SpectraSuite Data File
++++++++++++++++++++++++++++++++++++
Date: Wed Sep 04 17:40:20 EDT 2013
User: lab3
Dark Spectrum Present: Yes
Reference Spectrum Present: No
Number of Sampled Component Spectra: 1
Spectrometers: USB2E7196
Integration Time (usec): 170000 (USB2E7196)
Spectra Averaged: 20 (USB2E7196)
Boxcar Smoothing: 10 (USB2E7196)
Correct for Electrical Dark: No (USB2E7196)
Strobe/Lamp Enabled: No (USB2E7196)
Correct for Detector Non-linearity: No (USB2E7196)
Correct for Stray Light: No (USB2E7196)
Number of Pixels in Processed Spectrum: 2048
>>>>>Begin Processed Spectral Data<<<<<
339.09	0.00
339.48	211.70
339.86	213.90
340.24	214.45
340.63	217.60
341.01	224.25
341.39	219.20
341.78	221.35
342.16	222.25
342.54	222.15
342.93	211.69
343.31	222.38
343.69	222.97
344.07	223.45
344.46	223.96
344.84	224.29
345.22	224.29
345.60	224.56
345.99	224.75
346.37	224.90
346.75	224.95
347.13	224.98
347.52	225.01
347.90	225.23
348.28	225.25
348.66	225.32
349.05	225.20
349.43	225.25
349.81	225.34
350.19	225.40
350.57	225.42
350.96	225.52
351.34	225.60
351.72	225.65
352.10	225.66
352.48	225.72
352.87	225.83
353.25	225.92
353.63	225.98
354.01	225.96
354.39	226.08
354.77	226.14
355.15	226.35
355.54	226.33
355.92	226.23
356.30	226.28
356.68	226.67
357.06	226.80
357.44	226.74
357.82	226.77
358.20	227.20
358.58	227.23
358.97	227.31
359.35	227.46
359.73	227.62
360.11	227.74
360.49	227.81
360.87	227.82
361.25	227.95
361.63	228.21
362.01	228.34
362.39	228.29
362.77	228.43
363.15	228.44
363.53	228.46
363.91	228.52
364.29	228.60
364.67	228.15
365.05	228.21
365.43	228.31
365.81	228.46
366.19	228.30
366.57	228.50
366.95	228.48
367.33	228.37
367.71	228.39
368.09	228.52
368.47	228.52
368.85	228.51
369.23	228.62
369.61	228.42
369.99	228.65
370.37	228.76
370.75	229.00
371.13	228.88
371.51	228.81
371.89	228.85
372.27	228.81
372.65	228.87
373.03	228.78
373.41	228.74
373.78	228.55
374.16	228.35
374.54	228.21
374.92	228.08
375.30	228.08
375.68	227.91
376.06	227.83
376.44	227.68
376.82	227.68
377.19	227.50
377.57	227.37
377.95	227.06
378.33	226.86
378.71	226.48
379.09	226.54
379.47	226.54
379.84	226.40
380.22	226.22
380.60	226.05
380.98	226.00
381.36	225.91
381.73	225.85
382.11	225.87
382.49	225.83
382.87	225.81
383.25	225.70
383.62	226.22
384.00	226.06
384.38	226.05
384.76	226.10
385.13	226.26
385.51	226.23
385.89	226.08
386.27	226.08
386.64	226.13
387.02	226.02
387.40	226.02
387.78	225.98
388.15	226.02
388.53	225.90
388.91	225.87
389.29	225.84
389.66	225.81
390.04	225.67
390.42	225.69
390.79	225.67
391.17	225.63
391.55	225.09
391.92	225.09
392.30	225.14
392.68	225.00
393.05	224.95
393.43	224.97
393.81	225.02
394.18	224.97
394.56	224.99
394.94	225.09
395.31	225.02
395.69	225.15
396.06	225.25
396.44	225.37
396.82	225.35
397.19	225.67
397.57	225.69
397.95	225.85
398.32	225.78
398.70	225.93
399.07	226.13
399.45	226.16
399.82	226.23
400.20	226.30
400.58	226.36
400.95	226.30
401.33	226.52
401.70	227.08
402.08	227.25
402.45	227.36
402.83	227.57
403.20	227.77
403.58	227.88
403.95	228.12
404.33	228.42
404.71	228.65
405.08	229.07
405.46	229.28
405.83	229.46
406.21	229.70
406.58	229.90
406.96	230.13
407.33	230.45
407.70	230.81
408.08	231.47
408.45	231.88
408.83	232.34
409.20	232.54
409.58	232.54
409.95	233.03
410.33	233.53
410.70	233.83
411.08	234.39
411.45	234.95
411.82	235.39
412.20	236.04
412.57	236.93
412.95	237.05
413.32	237.85
413.69	238.49
414.07	239.29
414.44	240.14
414.82	241.04
415.19	242.09
415.56	243.12
415.94	243.83
416.31	245.03
416.68	246.11
417.06	247.55
417.43	248.95
417.81	250.37
418.18	251.82
418.55	253.45
418.93	255.10
419.30	256.88
419.67	258.80
420.04	260.63
420.42	262.48
420.79	265.15
421.16	267.40
421.54	270.05
421.91	272.46
422.28	275.03
422.66	277.71
423.03	280.54
423.40	283.23
423.77	286.22
424.15	289.19
424.52	292.35
424.89	295.79
425.26	299.04
425.64	302.20
426.01	305.58
426.38	309.22
426.75	312.98
427.13	316.78
427.50	320.57
427.87	324.60
428.24	328.75
428.61	332.45
428.99	336.89
429.36	341.34
429.73	345.94
430.10	350.45
430.47	355.14
430.85	359.75
431.22	364.88
431.59	370.60
431.96	375.65
432.33	381.44
432.70	386.92
433.08	393.42
433.45	399.50
433.82	405.64
434.19	412.42
434.56	419.22
434.93	425.51
435.30	431.97
435.68	439.16
436.05	446.05
436.42	453.05
436.79	459.34
437.16	466.26
437.53	473.59
437.90	480.78
438.27	487.92
438.64	495.28
439.01	502.06
439.38	507.92
439.75	513.93
440.13	520.46
440.50	526.77
440.87	531.79
441.24	537.19
441.61	543.01
441.98	547.10
442.35	551.82
442.72	556.85
443.09	561.76
443.46	564.51
443.83	566.31
444.20	567.72
444.57	570.02
444.94	571.00
445.31	571.95
445.68	573.30
446.05	573.43
446.42	572.38
446.79	571.36
447.16	570.09
447.53	569.14
447.90	566.24
448.27	563.36
448.64	559.51
449.01	556.41
449.37	551.43
449.74	546.55
450.11	540.99
450.48	534.70
450.85	528.11
451.22	522.58
451.59	517.27
451.96	512.28
452.33	505.64
452.70	499.50
453.07	492.28
453.43	484.66
453.80	477.70
454.17	471.28
454.54	464.99
454.91	458.18
455.28	451.54
455.65	445.47
456.02	439.77
456.38	434.51
456.75	428.18
457.12	422.83
457.49	417.65
457.86	412.35
458.23	408.10
458.59	403.42
458.96	398.65
459.33	394.44
459.70	390.25
460.07	386.91
460.43	383.09
460.80	379.71
461.17	376.71
461.54	373.58
461.91	370.41
462.27	367.17
462.64	364.64
463.01	361.77
463.38	358.98
463.74	355.57
464.11	353.04
464.48	350.93
464.85	348.55
465.21	346.95
465.58	345.09
465.95	342.65
466.32	340.77
466.68	338.94
467.05	337.14
467.42	335.26
467.78	333.38
468.15	331.66
468.52	330.25
468.88	328.39
469.25	326.77
469.62	325.55
469.98	324.29
470.35	323.03
470.72	321.82
471.08	320.51
471.45	319.58
471.82	318.68
472.18	317.41
472.55	316.65
472.92	315.52
473.28	314.53
473.65	313.67
474.02	312.88
474.38	312.24
474.75	311.64
475.11	310.99
475.48	310.43
475.85	309.94
476.21	309.39
476.58	309.10
476.94	308.80
477.31	308.38
477.67	308.09
478.04	307.80
478.41	307.77
478.77	308.10
479.14	307.89
479.50	307.77
479.87	307.85
480.23	307.85
480.60	307.84
480.96	307.91
481.33	308.38
481.69	308.61
482.06	308.85
482.42	309.17
482.79	309.53
483.15	310.05
483.52	310.63
483.88	311.18
484.25	311.63
484.61	312.26
484.98	312.92
485.34	313.76
485.71	314.64
486.07	315.45
486.44	315.91
486.80	316.84
487.17	317.97
487.53	319.31
487.90	320.63
488.26	322.25
488.62	323.87
488.99	325.15
489.35	326.76
489.72	328.48
490.08	330.33
490.44	332.29
490.81	334.16
491.17	336.17
491.54	338.43
491.90	340.81
492.26	343.30
492.63	345.92
492.99	348.53
493.36	351.37
493.72	354.45
494.08	357.65
494.45	361.15
494.81	364.64
495.17	368.10
495.54	371.91
495.90	375.76
496.26	379.83
496.63	384.05
496.99	388.42
497.35	392.95
497.72	397.69
498.08	402.60
498.44	407.83
498.80	413.30
499.17	418.84
499.53	424.43
499.89	430.41
500.26	436.49
500.62	442.75
500.98	449.33
501.34	455.90
501.71	462.85
502.07	469.67
502.43	476.87
502.79	484.42
503.16	491.96
503.52	499.79
503.88	507.76
504.24	516.32
504.60	525.14
504.97	534.30
505.33	543.38
505.69	552.96
506.05	562.58
506.41	572.34
506.78	582.40
507.14	592.87
507.50	603.47
507.86	614.50
508.22	625.68
508.59	636.95
508.95	648.75
509.31	660.78
509.67	673.08
510.03	685.28
510.39	697.58
510.75	710.56
511.12	723.49
511.48	736.78
511.84	750.14
512.20	763.42
512.56	776.86
512.92	790.82
513.28	805.09
513.64	819.44
514.00	834.13
514.37	848.88
514.73	863.78
515.09	878.79
515.45	893.90
515.81	908.90
516.17	924.47
516.53	939.64
516.89	954.93
517.25	970.76
517.61	987.31
517.97	1003.77
518.33	1019.85
518.69	1036.34
519.05	1052.87
519.41	1069.41
519.77	1086.39
520.13	1103.06
520.49	1119.54
520.85	1137.38
521.21	1153.96
521.57	1170.69
521.93	1187.02
522.29	1203.80
522.65	1220.09
523.01	1236.26
523.37	1252.39
523.73	1268.44
524.09	1284.28
524.45	1300.03
524.81	1315.70
525.17	1331.32
525.53	1347.12
525.89	1363.04
526.25	1378.70
526.61	1393.84
526.97	1409.52
527.33	1425.20
527.68	1441.61
528.04	1457.65
528.40	1472.08
528.76	1487.96
529.12	1502.95
529.48	1518.18
529.84	1532.54
530.20	1547.74
530.56	1562.75
530.91	1578.17
531.27	1592.81
531.63	1607.57
531.99	1622.52
532.35	1637.11
532.71	1651.08
533.07	1665.75
533.42	1679.59
533.78	1693.41
534.14	1707.84
534.50	1721.02
534.86	1734.40
535.21	1746.01
535.57	1758.30
535.93	1769.99
536.29	1781.66
536.65	1793.73
537.00	1805.61
537.36	1817.48
537.72	1828.06
538.08	1839.35
538.44	1850.05
538.79	1860.59
539.15	1871.22
539.51	1881.20
539.87	1890.62
540.22	1899.31
540.58	1908.14
540.94	1916.20
541.29	1923.74
541.65	1930.66
542.01	1937.95
542.37	1943.55
542.72	1949.96
543.08	1955.71
543.44	1962.08
543.79	1967.26
544.15	1972.46
544.51	1977.36
544.87	1981.97
545.22	1986.13
545.58	1989.38
545.94	1992.32
546.29	1994.86
546.65	1997.03
547.01	1998.79
547.36	2000.59
547.72	2002.33
548.07	2002.22
548.43	2003.56
548.79	2004.26
549.14	2004.60
549.50	2004.57
549.86	2005.23
550.21	2005.43
550.57	2005.49
550.92	2003.97
551.28	2002.37
551.64	2001.49
551.99	2000.39
552.35	1999.22
552.70	1998.37
553.06	1997.30
553.41	1995.65
553.77	1994.44
554.13	1993.47
554.48	1992.15
554.84	1990.71
555.19	1989.46
555.55	1988.68
555.90	1985.78
556.26	1983.21
556.61	1980.16
556.97	1976.43
557.32	1973.83
557.68	1970.75
558.03	1967.54
558.39	1964.31
558.74	1961.84
559.10	1957.39
559.45	1952.73
559.81	1947.42
560.16	1941.85
560.52	1936.12
560.87	1931.03
561.23	1925.28
561.58	1919.07
561.94	1912.39
562.29	1905.14
562.64	1898.28
563.00	1890.27
563.35	1883.70
563.71	1877.11
564.06	1870.94
564.42	1864.92
564.77	1857.92
565.12	1850.90
565.48	1844.12
565.83	1837.18
566.19	1829.95
566.54	1822.98
566.89	1816.10
567.25	1809.31
567.60	1802.91
567.96	1796.39
568.31	1789.40
568.66	1782.26
569.02	1774.51
569.37	1767.31
569.72	1760.78
570.08	1752.89
570.43	1745.39
570.78	1737.76
571.14	1730.04
571.49	1721.56
571.84	1713.74
572.20	1705.03
572.55	1697.11
572.90	1688.00
573.26	1679.66
573.61	1670.97
573.96	1661.98
574.31	1652.45
574.67	1643.22
575.02	1633.24
575.37	1623.29
575.72	1613.10
576.08	1603.50
576.43	1593.85
576.78	1584.10
577.13	1573.66
577.49	1564.09
577.84	1555.11
578.19	1546.00
578.54	1536.43
578.90	1527.59
579.25	1518.42
579.60	1509.40
579.95	1499.47
580.30	1489.74
580.66	1479.73
581.01	1469.67
581.36	1459.25
581.71	1450.11
582.06	1440.58
582.42	1431.76
582.77	1422.86
583.12	1414.24
583.47	1405.24
583.82	1396.80
584.17	1387.77
584.53	1379.55
584.88	1370.21
585.23	1360.82
585.58	1350.85
585.93	1341.26
586.28	1331.57
586.63	1321.34
586.98	1311.14
587.34	1301.65
587.69	1292.54
588.04	1283.77
588.39	1275.07
588.74	1266.63
589.09	1258.05
589.44	1248.98
589.79	1240.24
590.14	1231.67
590.49	1223.01
590.84	1214.59
591.19	1206.12
591.54	1197.62
591.89	1188.76
592.25	1181.70
592.60	1173.59
592.95	1165.81
593.30	1157.58
593.65	1149.36
594.00	1141.10
594.35	1134.62
594.70	1126.57
595.05	1118.47
595.40	1109.91
595.75	1101.60
596.10	1093.90
596.45	1085.79
596.80	1078.43
597.15	1070.37
597.50	1062.23
597.85	1054.55
598.19	1046.34
598.54	1038.15
598.89	1030.51
599.24	1023.27
599.59	1015.21
599.94	1007.77
600.29	1000.66
600.64	993.78
600.99	986.36
601.34	979.96
601.69	971.91
602.04	965.07
602.39	958.50
602.74	952.46
603.08	946.12
603.43	939.79
603.78	933.13
604.13	926.53
604.48	919.99
604.83	913.39
605.18	906.56
605.53	900.31
605.87	893.89
606.22	888.09
606.57	881.89
606.92	875.53
607.27	869.45
607.62	863.45
607.96	857.60
608.31	852.45
608.66	846.70
609.01	840.97
609.36	835.20
609.70	829.50
610.05	823.48
610.40	817.81
610.75	811.95
611.10	806.35
611.44	800.63
611.79	795.29
612.14	790.06
612.49	784.89
612.83	779.83
613.18	774.66
613.53	769.36
613.88	763.89
614.22	758.60
614.57	753.05
614.92	747.57
615.27	742.41
615.61	736.92
615.96	731.72
616.31	726.72
616.65	722.01
617.00	717.07
617.35	712.21
617.70	707.29
618.04	702.45
618.39	697.57
618.74	693.22
619.08	688.50
619.43	683.64
619.78	678.89
620.12	673.91
620.47	669.48
620.82	664.74
621.16	660.17
621.51	655.98
621.85	651.85
622.20	647.48
622.55	643.06
622.89	638.88
623.24	634.65
623.59	630.31
623.93	625.96
624.28	621.74
624.62	618.14
624.97	614.30
625.32	610.42
625.66	606.60
626.01	602.34
626.35	598.59
626.70	594.89
627.04	591.25
627.39	587.53
627.73	583.83
628.08	580.25
628.43	576.66
628.77	572.89
629.12	569.43
629.46	566.15
629.81	563.02
630.15	559.68
630.50	556.37
630.84	553.06
631.19	549.85
631.53	546.83
631.88	543.07
632.22	539.67
632.57	536.75
632.91	533.57
633.26	530.70
633.60	527.50
633.95	524.31
634.29	521.10
634.64	518.15
634.98	515.03
635.32	512.10
635.67	509.32
636.01	506.51
636.36	503.49
636.70	500.83
637.05	497.89
637.39	495.03
637.73	492.25
638.08	489.46
638.42	486.60
638.77	483.62
639.11	480.74
639.45	477.92
639.80	474.74
640.14	472.00
640.49	469.32
640.83	466.70
641.17	464.25
641.52	461.57
641.86	459.18
642.20	456.99
642.55	454.47
642.89	451.97
643.23	449.62
643.58	447.43
643.92	444.72
644.26	442.34
644.61	440.21
644.95	437.88
645.29	435.51
645.64	433.39
645.98	431.20
646.32	429.23
646.66	427.01
647.01	425.02
647.35	423.06
647.69	421.00
648.04	419.10
648.38	417.11
648.72	415.27
649.06	413.04
649.41	410.75
649.75	408.67
650.09	406.70
650.43	404.65
650.78	402.63
651.12	400.73
651.46	398.81
651.80	396.90
652.14	394.99
652.49	393.35
652.83	391.55
653.17	389.84
653.51	387.91
653.85	386.27
654.20	384.60
654.54	382.80
654.88	380.94
655.22	379.42
655.56	377.74
655.90	376.13
656.25	374.67
656.59	373.17
656.93	371.61
657.27	370.18
657.61	368.42
657.95	366.93
658.29	365.45
658.64	364.03
658.98	362.40
659.32	360.86
659.66	359.32
660.00	357.82
660.34	356.37
660.68	354.90
661.02	353.53
661.36	352.11
661.70	350.75
662.05	349.45
662.39	348.00
662.73	346.80
663.07	345.75
663.41	344.48
663.75	343.13
664.09	341.95
664.43	340.54
664.77	339.45
665.11	338.10
665.45	337.01
665.79	335.91
666.13	334.80
666.47	333.62
666.81	332.48
667.15	331.26
667.49	330.19
667.83	329.40
668.17	328.35
668.51	327.33
668.85	326.42
669.19	325.74
669.53	324.70
669.87	323.60
670.21	322.36
670.55	321.35
670.89	320.67
671.23	319.64
671.57	318.63
671.91	317.76
672.25	316.89
672.58	315.97
672.92	314.92
673.26	314.05
673.60	313.24
673.94	312.45
674.28	311.74
674.62	310.97
674.96	310.01
675.30	309.30
675.64	308.52
675.97	307.69
676.31	306.64
676.65	305.70
676.99	305.08
677.33	304.29
677.67	303.54
678.01	302.53
678.34	301.76
678.68	301.20
679.02	300.30
679.36	299.56
679.70	298.78
680.04	298.16
680.37	297.50
680.71	296.80
681.05	296.13
681.39	295.42
681.73	294.70
682.06	294.07
682.40	293.32
682.74	292.76
683.08	292.22
683.42	291.58
683.75	291.04
684.09	290.28
684.43	289.76
684.77	289.13
685.10	288.56
685.44	288.11
685.78	287.46
686.12	286.95
686.45	286.43
686.79	285.89
687.13	285.41
687.46	284.86
687.80	284.40
688.14	283.74
688.48	283.25
688.81	282.66
689.15	282.21
689.49	281.73
689.82	281.18
690.16	280.51
690.50	280.03
690.83	279.48
691.17	278.88
691.51	278.34
691.84	277.93
692.18	277.51
692.52	276.90
692.85	276.54
693.19	276.26
693.52	275.79
693.86	275.25
694.20	274.71
694.53	274.27
694.87	273.75
695.21	273.32
695.54	272.86
695.88	272.35
696.21	271.63
696.55	271.11
696.88	270.53
697.22	270.03
697.56	269.70
697.89	269.22
698.23	268.91
698.56	268.41
698.90	267.97
699.23	267.48
699.57	267.15
699.90	266.63
700.24	266.12
700.58	265.77
700.91	265.55
701.25	265.47
701.58	265.42
701.92	265.15
702.25	264.87
702.59	264.44
702.92	264.28
703.26	264.13
703.59	263.82
703.93	264.01
704.26	263.80
704.60	263.44
704.93	263.14
705.26	262.80
705.60	262.60
705.93	262.21
706.27	262.05
706.60	261.79
706.94	261.69
707.27	261.32
707.61	261.00
707.94	260.63
708.27	260.01
708.61	259.30
708.94	258.98
709.28	258.58
709.61	258.29
709.94	257.91
710.28	257.60
710.61	257.36
710.95	256.64
711.28	256.58
711.61	256.20
711.95	256.03
712.28	255.69
712.61	255.39
712.95	255.38
713.28	255.33
713.61	254.94
713.95	254.48
714.28	254.23
714.61	253.90
714.95	253.63
715.28	253.30
715.61	253.04
715.95	252.77
716.28	252.48
716.61	252.33
716.95	252.09
717.28	251.83
717.61	251.53
717.94	251.26
718.28	250.67
718.61	250.50
718.94	250.23
719.27	249.98
719.61	249.79
719.94	249.48
720.27	249.04
720.60	248.95
720.94	248.81
721.27	248.69
721.60	248.66
721.93	248.44
722.27	248.45
722.60	248.37
722.93	248.22
723.26	248.08
723.59	247.82
723.93	247.71
724.26	247.57
724.59	247.37
724.92	247.26
725.25	247.22
725.59	247.06
725.92	246.94
726.25	246.79
726.58	246.72
726.91	246.49
727.24	246.34
727.57	246.08
727.91	245.81
728.24	245.68
728.57	245.40
728.90	245.34
729.23	245.04
729.56	245.11
729.89	244.92
730.22	244.84
730.55	244.70
730.89	244.46
731.22	244.28
731.55	244.15
731.88	243.99
732.21	243.83
732.54	243.59
732.87	243.41
733.20	243.28
733.53	243.05
733.86	242.98
734.19	242.76
734.52	242.76
734.85	243.01
735.18	242.75
735.51	242.76
735.84	242.57
736.17	242.58
736.50	242.19
736.83	242.60
737.16	242.37
737.49	242.25
737.82	242.10
738.15	242.02
738.48	241.86
738.81	241.75
739.14	241.59
739.47	241.45
739.80	241.26
740.13	241.12
740.46	240.84
740.79	240.62
741.12	240.49
741.45	240.15
741.78	239.72
742.11	239.68
742.44	239.53
742.77	239.42
743.10	239.13
743.43	238.96
743.75	238.28
744.08	238.85
744.41	238.63
744.74	238.48
745.07	238.24
745.40	238.20
745.73	238.27
746.06	238.01
746.39	237.97
746.71	237.83
747.04	237.73
747.37	237.68
747.70	237.57
748.03	237.51
748.36	237.60
748.68	237.48
749.01	237.41
749.34	237.21
749.67	237.17
750.00	237.16
750.33	237.42
750.65	237.43
750.98	236.69
751.31	236.63
751.64	236.59
751.97	236.78
752.29	236.68
752.62	236.27
752.95	236.29
753.28	236.15
753.60	236.01
753.93	236.05
754.26	236.06
754.59	235.95
754.91	235.81
755.24	235.64
755.57	235.61
755.90	235.40
756.22	235.32
756.55	235.18
756.88	234.97
757.20	234.55
757.53	234.29
757.86	234.26
758.19	234.19
758.51	234.09
758.84	233.75
759.17	233.64
759.49	233.68
759.82	233.81
760.15	233.81
760.47	233.80
760.80	233.57
761.13	233.49
761.45	233.36
761.78	233.35
762.11	233.29
762.43	233.14
762.76	233.08
763.08	233.08
763.41	233.03
763.74	233.06
764.06	233.04
764.39	233.04
764.71	232.99
765.04	232.90
765.37	232.79
765.69	232.71
766.02	232.64
766.34	232.51
766.67	232.23
767.00	232.20
767.32	232.37
767.65	232.63
767.97	232.60
768.30	232.63
768.62	232.54
768.95	232.45
769.27	232.41
769.60	232.45
769.92	232.22
770.25	232.06
770.57	231.86
770.90	231.78
771.22	231.67
771.55	231.56
771.87	231.55
772.20	231.42
772.52	231.79
772.85	232.29
773.17	232.25
773.50	232.20
773.82	232.05
774.15	231.79
774.47	231.40
774.80	231.24
775.12	231.14
775.45	231.08
775.77	231.05
776.09	231.04
776.42	231.00
776.74	231.14
777.07	231.07
777.39	231.04
777.72	230.95
778.04	230.97
778.36	230.95
778.69	230.93
779.01	231.05
779.33	230.61
779.66	230.00
779.98	229.94
780.31	229.97
780.63	230.20
780.95	230.22
781.28	230.19
781.60	230.13
781.92	230.04
782.25	230.00
782.57	229.93
782.89	229.78
783.22	229.67
783.54	229.53
783.86	229.58
784.19	229.49
784.51	229.61
784.83	229.51
785.16	229.43
785.48	229.41
785.80	229.34
786.12	229.29
786.45	229.28
786.77	229.30
787.09	229.14
787.42	228.92
787.74	228.93
788.06	228.91
788.38	228.89
788.71	228.83
789.03	228.80
789.35	228.91
789.67	228.86
789.99	228.89
790.32	228.83
790.64	228.85
790.96	229.28
791.28	229.12
791.61	229.07
791.93	229.11
792.25	229.05
792.57	229.34
792.89	229.25
793.21	229.24
793.54	229.16
793.86	229.17
794.18	229.13
794.50	228.96
794.82	229.00
795.14	229.00
795.47	229.18
795.79	229.16
796.11	229.01
796.43	228.99
796.75	228.96
797.07	228.97
797.39	228.88
797.71	228.59
798.04	228.64
798.36	228.67
798.68	228.68
799.00	228.73
799.32	228.52
799.64	228.68
799.96	228.65
800.28	228.76
800.60	228.75
800.92	228.76
801.24	228.82
801.56	228.82
801.89	228.81
802.21	228.74
802.53	228.69
802.85	228.80
803.17	229.12
803.49	229.01
803.81	229.01
804.13	229.05
804.45	228.97
804.77	228.97
805.09	228.97
805.41	228.92
805.73	228.88
806.05	228.76
806.37	228.74
806.69	228.75
807.01	228.67
807.33	228.75
807.65	228.65
807.97	228.84
808.28	228.84
808.60	228.85
808.92	228.82
809.24	229.15
809.56	229.09
809.88	228.81
810.20	228.86
810.52	228.92
810.84	228.86
811.16	228.81
811.48	228.74
811.80	228.90
812.12	228.84
812.43	228.92
812.75	228.90
813.07	228.80
813.39	228.76
813.71	228.71
814.03	228.59
814.35	228.60
814.67	228.42
814.98	228.32
815.30	228.30
815.62	228.15
815.94	227.83
816.26	228.02
816.58	227.96
816.89	228.02
817.21	227.92
817.53	227.91
817.85	227.86
818.17	227.83
818.48	227.66
818.80	227.70
819.12	227.54
819.44	227.42
819.76	227.35
820.07	227.35
820.39	227.34
820.71	227.36
821.03	227.28
821.34	227.18
821.66	227.18
821.98	227.20
822.30	227.26
822.61	227.52
822.93	227.26
823.25	227.20
823.57	227.07
823.88	227.09
824.20	227.06
824.52	227.14
824.83	227.11
825.15	227.05
825.47	227.03
825.79	227.03
826.10	227.09
826.42	227.09
826.74	227.12
827.05	227.08
827.37	227.09
827.69	227.05
828.00	227.03
828.32	227.02
828.64	226.87
828.95	227.03
829.27	226.85
829.58	226.78
829.90	226.83
830.22	226.82
830.53	226.70
830.85	226.60
831.17	226.49
831.48	226.45
831.80	226.40
832.11	226.29
832.43	226.20
832.75	226.13
833.06	226.40
833.38	226.24
833.69	226.20
834.01	226.22
834.32	226.24
834.64	226.24
834.96	226.22
835.27	226.28
835.59	226.13
835.90	226.02
836.22	226.00
836.53	225.90
836.85	225.86
837.16	226.36
837.48	226.50
837.79	226.65
838.11	226.66
838.42	226.65
838.74	226.69
839.05	226.65
839.37	226.67
839.68	226.40
840.00	226.39
840.31	226.49
840.63	226.49
840.94	226.41
841.26	226.40
841.57	226.45
841.88	226.50
842.20	226.44
842.51	226.44
842.83	226.44
843.14	226.89
843.46	226.94
843.77	226.66
844.08	226.59
844.40	226.40
844.71	226.36
845.03	226.33
845.34	226.36
845.65	226.38
845.97	226.41
846.28	226.41
846.60	226.45
846.91	226.34
847.22	226.29
847.54	226.43
847.85	226.48
848.16	226.43
848.48	226.30
848.79	226.55
849.10	226.61
849.42	226.65
849.73	226.22
850.04	226.22
850.36	226.01
850.67	226.11
850.98	226.18
851.30	226.23
851.61	226.28
851.92	226.29
852.23	226.53
852.55	226.61
852.86	226.64
853.17	226.73
853.49	226.87
853.80	226.95
854.11	226.99
854.42	227.08
854.74	227.06
855.05	227.13
855.36	226.90
855.67	226.87
855.99	226.93
856.30	227.53
856.61	227.53
856.92	227.63
857.23	227.56
857.55	227.52
857.86	227.54
858.17	227.63
858.48	227.52
858.79	227.29
859.11	227.28
859.42	227.29
859.73	227.17
860.04	227.11
860.35	227.03
860.66	226.86
860.98	226.82
861.29	226.88
861.60	226.84
861.91	226.91
862.22	226.82
862.53	226.66
862.84	226.02
863.16	226.13
863.47	225.99
863.78	225.97
864.09	226.00
864.40	226.02
864.71	225.95
865.02	226.01
865.33	226.04
865.64	225.90
865.95	225.85
866.27	226.15
866.58	226.08
866.89	226.10
867.20	226.11
867.51	225.94
867.82	225.90
868.13	226.04
868.44	225.93
868.75	226.04
869.06	226.09
869.37	226.19
869.68	225.95
869.99	226.04
870.30	226.04
870.61	226.04
870.92	225.93
871.23	225.88
871.54	225.91
871.85	226.02
872.16	226.08
872.47	226.03
872.78	225.77
873.09	225.84
873.40	225.79
873.71	225.79
874.02	225.88
874.33	225.80
874.64	225.67
874.95	225.73
875.26	225.58
875.56	225.62
875.87	225.60
876.18	225.69
876.49	226.13
876.80	226.12
877.11	226.04
877.42	226.10
877.73	226.15
878.04	226.07
878.35	226.02
878.66	226.08
878.96	226.09
879.27	226.00
879.58	225.95
879.89	225.93
880.20	226.11
880.51	226.11
880.82	226.15
881.12	226.20
881.43	226.17
881.74	226.16
882.05	226.08
882.36	226.09
882.67	226.06
882.97	225.56
883.28	225.49
883.59	225.44
883.90	225.51
884.21	225.59
884.51	225.58
884.82	225.53
885.13	225.51
885.44	225.57
885.74	225.65
886.05	225.66
886.36	225.70
886.67	225.57
886.98	225.76
887.28	225.87
887.59	225.88
887.90	225.87
888.20	225.85
888.51	225.99
888.82	225.94
889.13	226.03
889.43	226.42
889.74	226.43
890.05	226.52
890.35	226.42
890.66	226.39
890.97	226.34
891.28	226.35
891.58	226.40
891.89	226.38
892.20	226.34
892.50	226.38
892.81	226.33
893.12	226.27
893.42	226.10
893.73	226.03
894.04	226.07
894.34	226.16
894.65	226.24
894.95	226.11
895.26	226.15
895.57	226.44
895.87	226.00
896.18	226.08
896.48	226.09
896.79	226.09
897.10	226.12
897.40	226.14
897.71	226.19
898.01	226.10
898.32	226.20
898.63	226.24
898.93	226.16
899.24	226.24
899.54	226.29
899.85	226.24
900.15	226.23
900.46	226.18
900.76	226.14
901.07	226.14
901.38	226.15
901.68	226.17
901.99	225.84
902.29	225.90
902.60	225.87
902.90	225.84
903.21	225.89
903.51	225.87
903.82	226.05
904.12	226.00
904.43	226.05
904.73	225.85
905.03	225.87
905.34	226.32
905.64	226.23
905.95	226.14
906.25	226.13
906.56	226.04
906.86	226.02
907.17	225.92
907.47	225.91
907.77	225.91
908.08	225.82
908.38	225.86
908.69	225.88
908.99	225.93
909.30	225.95
909.60	225.95
909.90	225.99
910.21	225.73
910.51	225.64
910.81	225.61
911.12	225.62
911.42	225.56
911.73	225.05
912.03	225.06
912.33	225.17
912.64	225.13
912.94	225.13
913.24	225.04
913.55	225.06
913.85	225.01
914.15	225.03
914.46	225.10
914.76	225.01
915.06	224.98
915.37	224.90
915.67	224.83
915.97	224.76
916.27	224.63
916.58	224.75
916.88	224.73
917.18	224.75
917.49	225.13
917.79	225.10
918.09	225.19
918.39	225.33
918.70	225.25
919.00	225.35
919.30	225.56
919.60	225.58
919.91	225.60
920.21	225.71
920.51	225.63
920.81	225.59
921.12	225.67
921.42	225.63
921.72	225.71
922.02	225.74
922.32	225.85
922.63	225.87
922.93	226.07
923.23	226.15
923.53	226.10
923.83	225.80
924.13	225.88
924.44	225.90
924.74	225.95
925.04	226.11
925.34	226.05
925.64	225.91
925.94	225.96
926.24	226.23
926.55	226.10
926.85	226.27
927.15	226.29
927.45	226.28
927.75	226.34
928.05	226.39
928.35	226.44
928.65	226.61
928.95	226.65
929.26	226.53
929.56	226.61
929.86	226.64
930.16	226.66
930.46	226.62
930.76	226.69
931.06	226.47
931.36	226.41
931.66	226.52
931.96	226.57
932.26	226.64
932.56	226.44
932.86	226.51
933.16	226.46
933.46	226.45
933.76	226.43
934.06	226.58
934.36	226.64
934.66	226.64
934.96	226.50
935.26	226.56
935.56	226.66
935.86	226.52
936.16	226.52
936.46	226.50
936.76	226.55
937.06	226.45
937.36	226.62
937.66	226.59
937.96	226.53
938.26	226.47
938.56	226.38
938.86	226.42
939.16	226.50
939.46	226.52
939.76	226.56
940.06	226.61
940.35	226.46
940.65	226.29
940.95	226.33
941.25	226.28
941.55	226.20
941.85	226.12
942.15	226.24
942.45	226.33
942.75	226.26
943.04	226.34
943.34	226.45
943.64	226.27
943.94	226.23
944.24	226.21
944.54	226.27
944.84	226.26
945.13	226.14
945.43	226.08
945.73	226.08
946.03	226.06
946.33	225.97
946.62	225.90
946.92	225.87
947.22	225.93
947.52	225.93
947.82	225.97
948.11	225.85
948.41	225.76
948.71	225.59
949.01	225.66
949.31	225.50
949.60	225.43
949.90	225.55
950.20	225.54
950.50	225.52
950.79	225.39
951.09	225.45
951.39	225.46
951.69	225.41
951.98	225.51
952.28	225.54
952.58	225.53
952.87	225.56
953.17	225.59
953.47	225.46
953.76	225.37
954.06	225.31
954.36	225.27
954.66	225.27
954.95	225.51
955.25	225.45
955.55	225.55
955.84	225.40
956.14	225.45
956.44	225.38
956.73	225.31
957.03	225.40
957.32	225.35
957.62	225.29
957.92	225.40
958.21	225.32
958.51	225.83
958.81	225.83
959.10	225.92
959.40	226.06
959.69	226.12
959.99	226.32
960.29	226.28
960.58	226.27
960.88	226.52
961.17	226.41
961.47	226.52
961.76	226.43
962.06	226.58
962.36	226.47
962.65	226.62
962.95	226.73
963.24	226.72
963.54	226.72
963.83	226.80
964.13	226.71
964.42	226.63
964.72	226.22
965.01	226.29
965.31	226.21
965.60	226.14
965.90	226.45
966.19	226.26
966.49	226.33
966.78	226.35
967.08	226.20
967.37	226.25
967.67	226.18
967.96	226.26
968.26	226.22
968.55	226.37
968.85	226.36
969.14	226.35
969.43	226.30
969.73	226.31
970.02	226.24
970.32	226.26
970.61	226.24
970.91	226.17
971.20	226.09
971.49	226.06
971.79	226.06
972.08	225.74
972.38	225.80
972.67	225.79
972.96	225.86
973.26	225.85
973.55	225.96
973.85	225.89
974.14	225.90
974.43	225.96
974.73	225.84
975.02	225.74
975.31	225.64
975.61	225.67
975.90	225.59
976.19	225.54
976.49	225.56
976.78	225.61
977.07	225.53
977.37	225.60
977.66	225.66
977.95	225.55
978.24	225.60
978.54	225.73
978.83	225.73
979.12	225.70
979.42	225.68
979.71	225.57
980.00	225.65
980.29	225.58
980.59	225.54
980.88	225.61
981.17	225.65
981.46	225.74
981.76	225.65
982.05	225.80
982.34	225.92
982.63	225.93
982.93	225.90
983.22	226.09
983.51	226.07
983.80	226.15
984.09	226.23
984.39	226.13
984.68	226.04
984.97	226.03
985.26	225.96
985.55	225.94
985.85	225.80
986.14	225.79
986.43	225.91
986.72	225.81
987.01	225.70
987.30	225.65
987.59	225.55
987.89	225.63
988.18	225.50
988.47	225.41
988.76	225.34
989.05	225.28
989.34	225.07
989.63	225.21
989.92	225.07
990.22	224.99
990.51	224.96
990.80	224.89
991.09	224.92
991.38	224.99
991.67	224.91
991.96	224.94
992.25	224.92
992.54	224.75
992.83	224.82
993.12	224.74
993.41	224.85
993.70	225.04
993.99	225.13
994.28	225.15
994.58	225.21
994.87	225.21
995.16	225.19
995.45	225.26
995.74	225.05
996.03	225.18
996.32	225.23
996.61	225.34
996.90	225.26
997.19	225.23
997.48	225.22
997.77	225.23
998.06	225.19
998.34	225.19
998.63	225.21
998.92	225.22
999.21	225.36
999.50	225.33
999.79	225.17
1000.08	225.14
1000.37	225.16
1000.66	225.11
1000.95	225.20
1001.24	225.26
1001.53	225.26
1001.82	225.25
1002.11	225.11
1002.40	225.20
1002.68	225.31
1002.97	225.75
1003.26	225.67
1003.55	225.62
1003.84	225.60
1004.13	225.78
1004.42	225.81
1004.71	225.82
1004.99	225.78
1005.28	225.85
1005.57	225.81
1005.86	225.79
1006.15	225.84
1006.44	225.80
1006.72	225.90
1007.01	225.82
1007.30	225.84
1007.59	225.80
1007.88	225.81
1008.17	225.91
1008.45	225.91
1008.74	225.71
1009.03	225.46
1009.32	225.55
1009.60	225.55
1009.89	225.57
1010.18	225.37
1010.47	225.33
1010.76	225.35
1011.04	225.30
1011.33	225.36
1011.62	225.39
1011.91	225.43
1012.19	225.38
1012.48	225.47
1012.77	225.51
1013.05	225.71
1013.34	225.74
1013.63	225.67
1013.92	225.71
1014.20	225.65
1014.49	225.55
1014.78	225.59
1015.06	225.43
1015.35	225.29
1015.64	225.40
1015.92	225.51
1016.21	225.58
1016.50	225.56
1016.78	225.62
1017.07	225.65
1017.36	225.51
1017.64	225.52
1017.93	225.64
1018.22	225.56
1018.50	225.53
1018.79	225.41
1019.08	225.22
1019.36	225.24
1019.65	225.24
1019.93	225.33
1020.22	225.43
1020.51	225.66
1020.79	225.60
1021.08	224.45
1021.36	225.65
1021.65	224.50
1021.94	225.40
1022.22	225.70
1022.51	224.30
1022.79	227.15
1023.08	226.40
1023.36	230.80
1023.65	223.90
>>>>>End Processed Spectral Data<<<<<
