SpectraSuite Data File
++++++++++++++++++++++++++++++++++++
Date: Wed Sep 04 17:47:00 EDT 2013
User: lab3
Dark Spectrum Present: Yes
Reference Spectrum Present: No
Number of Sampled Component Spectra: 1
Spectrometers: USB2E7196
Integration Time (usec): 170000 (USB2E7196)
Spectra Averaged: 20 (USB2E7196)
Boxcar Smoothing: 10 (USB2E7196)
Correct for Electrical Dark: No (USB2E7196)
Strobe/Lamp Enabled: No (USB2E7196)
Correct for Detector Non-linearity: No (USB2E7196)
Correct for Stray Light: No (USB2E7196)
Number of Pixels in Processed Spectrum: 2048
>>>>>Begin Processed Spectral Data<<<<<
339.09	0.00
339.48	212.60
339.86	212.80
340.24	216.10
340.63	217.45
341.01	225.70
341.39	219.80
341.78	220.10
342.16	223.25
342.54	221.85
342.93	211.87
343.31	222.53
343.69	223.09
344.07	223.65
344.46	224.14
344.84	224.52
345.22	224.45
345.60	224.76
345.99	225.08
346.37	225.19
346.75	225.30
347.13	225.30
347.52	225.34
347.90	225.56
348.28	225.57
348.66	225.68
349.05	225.43
349.43	225.54
349.81	225.56
350.19	225.60
350.57	225.60
350.96	225.73
351.34	225.92
351.72	226.00
352.10	226.06
352.48	226.05
352.87	226.13
353.25	226.21
353.63	226.15
354.01	226.17
354.39	226.26
354.77	226.44
355.15	226.73
355.54	226.74
355.92	226.63
356.30	226.76
356.68	227.10
357.06	227.27
357.44	227.25
357.82	227.30
358.20	227.69
358.58	227.78
358.97	227.87
359.35	227.98
359.73	228.11
360.11	228.18
360.49	228.26
360.87	228.36
361.25	228.47
361.63	228.75
362.01	228.81
362.39	228.82
362.77	228.87
363.15	228.79
363.53	228.82
363.91	228.94
364.29	228.95
364.67	228.54
365.05	228.54
365.43	228.56
365.81	228.76
366.19	228.61
366.57	228.81
366.95	228.83
367.33	228.68
367.71	228.69
368.09	228.78
368.47	228.73
368.85	228.60
369.23	228.73
369.61	228.53
369.99	228.68
370.37	228.72
370.75	228.93
371.13	228.88
371.51	228.81
371.89	228.80
372.27	228.77
372.65	228.82
373.03	228.83
373.41	228.86
373.78	228.66
374.16	228.45
374.54	228.32
374.92	228.21
375.30	228.20
375.68	228.06
376.06	228.07
376.44	228.07
376.82	228.02
377.19	227.90
377.57	227.89
377.95	227.64
378.33	227.54
378.71	227.16
379.09	227.15
379.47	227.14
379.84	227.00
380.22	226.94
380.60	226.75
380.98	226.68
381.36	226.60
381.73	226.56
382.11	226.65
382.49	226.54
382.87	226.43
383.25	226.42
383.62	226.90
384.00	226.74
384.38	226.74
384.76	226.85
385.13	226.99
385.51	226.89
385.89	226.80
386.27	226.72
386.64	226.78
387.02	226.76
387.40	226.77
387.78	226.80
388.15	226.81
388.53	226.74
388.91	226.69
389.29	226.62
389.66	226.63
390.04	226.49
390.42	226.58
390.79	226.64
391.17	226.55
391.55	226.05
391.92	226.10
392.30	226.06
392.68	225.96
393.05	225.85
393.43	225.92
393.81	225.97
394.18	226.00
394.56	226.04
394.94	226.13
395.31	226.04
395.69	226.19
396.06	226.28
396.44	226.42
396.82	226.44
397.19	226.76
397.57	226.75
397.95	226.92
398.32	226.76
398.70	226.83
399.07	226.99
399.45	227.06
399.82	227.06
400.20	227.11
400.58	227.23
400.95	227.18
401.33	227.28
401.70	227.72
402.08	227.85
402.45	228.03
402.83	228.30
403.20	228.51
403.58	228.60
403.95	228.89
404.33	229.05
404.71	229.28
405.08	229.71
405.46	229.96
405.83	230.13
406.21	230.46
406.58	230.78
406.96	231.04
407.33	231.39
407.70	231.72
408.08	232.51
408.45	232.93
408.83	233.44
409.20	233.84
409.58	234.00
409.95	234.55
410.33	235.02
410.70	235.36
411.08	235.99
411.45	236.57
411.82	237.02
412.20	237.82
412.57	238.79
412.95	239.15
413.32	240.01
413.69	240.85
414.07	241.72
414.44	242.63
414.82	243.66
415.19	244.82
415.56	246.00
415.94	246.95
416.31	248.38
416.68	249.77
417.06	251.36
417.43	252.96
417.81	254.72
418.18	256.43
418.55	258.31
418.93	260.22
419.30	262.29
419.67	264.42
420.04	266.65
420.42	268.93
420.79	271.91
421.16	274.66
421.54	277.67
421.91	280.62
422.28	283.70
422.66	286.90
423.03	290.25
423.40	293.49
423.77	296.94
424.15	300.32
424.52	304.00
424.89	308.24
425.26	312.15
425.64	315.79
426.01	319.95
426.38	324.17
426.75	328.65
427.13	333.15
427.50	337.88
427.87	342.65
428.24	347.47
428.61	351.89
428.99	357.10
429.36	362.52
429.73	367.90
430.10	373.35
430.47	378.98
430.85	384.53
431.22	390.67
431.59	397.34
431.96	403.42
432.33	410.25
432.70	416.69
433.08	424.46
433.45	431.67
433.82	438.86
434.19	447.02
434.56	454.99
434.93	462.67
435.30	470.30
435.68	478.73
436.05	486.98
436.42	495.05
436.79	502.63
437.16	510.70
437.53	519.27
437.90	527.70
438.27	536.00
438.64	544.78
439.01	552.89
439.38	559.85
439.75	566.99
440.13	574.95
440.50	582.36
440.87	588.25
441.24	594.67
441.61	601.45
441.98	606.45
442.35	612.06
442.72	617.77
443.09	623.46
443.46	626.87
443.83	629.10
444.20	631.12
444.57	633.70
444.94	634.87
445.31	636.07
445.68	637.48
446.05	637.76
446.42	636.50
446.79	635.23
447.16	633.80
447.53	632.49
447.90	628.66
448.27	624.94
448.64	620.15
449.01	616.55
449.37	610.71
449.74	604.69
450.11	598.04
450.48	590.43
450.85	582.68
451.22	575.96
451.59	569.59
451.96	563.50
452.33	555.42
452.70	548.17
453.07	539.68
453.43	530.68
453.80	522.45
454.17	514.52
454.54	506.83
454.91	498.62
455.28	490.85
455.65	483.72
456.02	477.18
456.38	471.03
456.75	463.41
457.12	456.95
457.49	450.87
457.86	444.65
458.23	439.65
458.59	434.00
458.96	428.32
459.33	423.20
459.70	418.10
460.07	414.16
460.43	409.52
460.80	405.24
461.17	401.77
461.54	397.78
461.91	394.09
462.27	390.35
462.64	387.22
463.01	383.74
463.38	380.54
463.74	376.56
464.11	373.61
464.48	370.99
464.85	368.17
465.21	366.09
465.58	363.79
465.95	361.00
466.32	358.81
466.68	356.56
467.05	354.50
467.42	352.42
467.78	350.24
468.15	348.18
468.52	346.67
468.88	344.35
469.25	342.53
469.62	340.98
469.98	339.37
470.35	337.92
470.72	336.55
471.08	334.87
471.45	333.63
471.82	332.37
472.18	330.91
472.55	330.01
472.92	328.66
473.28	327.52
473.65	326.49
474.02	325.33
474.38	324.51
474.75	323.72
475.11	322.75
475.48	322.11
475.85	321.41
476.21	320.65
476.58	320.20
476.94	319.84
477.31	319.50
477.67	319.16
478.04	318.90
478.41	318.70
478.77	319.01
479.14	318.71
479.50	318.51
479.87	318.54
480.23	318.47
480.60	318.44
480.96	318.47
481.33	318.88
481.69	319.21
482.06	319.39
482.42	319.61
482.79	320.05
483.15	320.48
483.52	321.13
483.88	321.69
484.25	322.28
484.61	322.77
484.98	323.32
485.34	324.24
485.71	325.12
486.07	326.13
486.44	326.66
486.80	327.73
487.17	328.84
487.53	330.26
487.90	331.68
488.26	333.43
488.62	335.08
488.99	336.56
489.35	338.26
489.72	340.22
490.08	342.19
490.44	344.20
490.81	346.39
491.17	348.61
491.54	351.18
491.90	353.72
492.26	356.46
492.63	359.29
492.99	362.09
493.36	365.17
493.72	368.38
494.08	371.76
494.45	375.46
494.81	379.43
495.17	383.16
495.54	387.25
495.90	391.33
496.26	395.73
496.63	400.33
496.99	405.09
497.35	409.99
497.72	415.24
498.08	420.71
498.44	426.26
498.80	432.19
499.17	438.08
499.53	444.35
499.89	450.92
500.26	457.66
500.62	464.60
500.98	471.95
501.34	479.36
501.71	487.09
502.07	494.75
502.43	502.74
502.79	511.14
503.16	519.86
503.52	528.80
503.88	538.00
504.24	547.57
504.60	557.48
504.97	567.88
505.33	578.14
505.69	589.04
506.05	600.12
506.41	611.32
506.78	622.90
507.14	634.87
507.50	647.06
507.86	659.45
508.22	672.25
508.59	685.18
508.95	698.72
509.31	712.67
509.67	726.96
510.03	741.24
510.39	755.84
510.75	770.53
511.12	785.38
511.48	801.02
511.84	816.62
512.20	832.29
512.56	848.25
512.92	864.76
513.28	881.43
513.64	898.41
514.00	915.60
514.37	933.11
514.73	950.77
515.09	968.99
515.45	987.47
515.81	1005.58
516.17	1024.23
516.53	1042.64
516.89	1060.99
517.25	1080.07
517.61	1100.01
517.97	1119.83
518.33	1139.90
518.69	1160.10
519.05	1180.30
519.41	1200.63
519.77	1221.30
520.13	1241.78
520.49	1262.11
520.85	1284.10
521.21	1304.85
521.57	1326.06
521.93	1346.31
522.29	1367.19
522.65	1387.43
523.01	1407.89
523.37	1428.29
523.73	1448.91
524.09	1469.24
524.45	1489.67
524.81	1510.17
525.17	1530.39
525.53	1550.70
525.89	1570.90
526.25	1591.24
526.61	1610.98
526.97	1631.30
527.33	1652.27
527.68	1673.69
528.04	1694.91
528.40	1714.12
528.76	1734.64
529.12	1754.69
529.48	1775.52
529.84	1795.18
530.20	1815.75
530.56	1835.94
530.91	1856.57
531.27	1876.60
531.63	1896.50
531.99	1916.68
532.35	1936.12
532.71	1955.72
533.07	1975.87
533.42	1995.51
533.78	2014.88
534.14	2034.42
534.50	2053.35
534.86	2072.24
535.21	2089.10
535.57	2106.79
535.93	2124.19
536.29	2141.41
536.65	2159.06
537.00	2176.34
537.36	2193.68
537.72	2209.48
538.08	2226.38
538.44	2242.39
538.79	2258.24
539.15	2274.41
539.51	2289.92
539.87	2304.79
540.22	2318.46
540.58	2332.18
540.94	2345.11
541.29	2357.42
541.65	2369.67
542.01	2381.76
542.37	2391.70
542.72	2402.31
543.08	2412.39
543.44	2423.50
543.79	2433.10
544.15	2442.66
544.51	2452.26
544.87	2461.68
545.22	2470.54
545.58	2477.67
545.94	2484.99
546.29	2491.09
546.65	2496.76
547.01	2501.89
547.36	2507.08
547.72	2512.12
548.07	2515.62
548.43	2520.21
548.79	2524.45
549.14	2528.25
549.50	2531.74
549.86	2535.45
550.21	2539.10
550.57	2542.45
550.92	2543.73
551.28	2545.01
551.64	2546.55
551.99	2548.10
552.35	2549.06
552.70	2550.74
553.06	2552.19
553.41	2552.73
553.77	2554.20
554.13	2555.65
554.48	2557.08
554.84	2558.01
555.19	2559.29
555.55	2560.96
555.90	2560.11
556.26	2559.22
556.61	2557.20
556.97	2554.80
557.32	2553.70
557.68	2552.27
558.03	2550.58
558.39	2548.61
558.74	2547.75
559.10	2544.52
559.45	2540.38
559.81	2535.49
560.16	2529.88
560.52	2524.79
560.87	2520.54
561.23	2515.11
561.58	2509.03
561.94	2502.14
562.29	2495.18
562.64	2487.94
563.00	2479.68
563.35	2473.13
563.71	2466.51
564.06	2460.33
564.42	2453.80
564.77	2447.08
565.12	2439.45
565.48	2431.82
565.83	2423.99
566.19	2415.64
566.54	2407.61
566.89	2399.56
567.25	2392.27
567.60	2385.49
567.96	2377.97
568.31	2369.66
568.66	2361.05
569.02	2352.17
569.37	2343.89
569.72	2335.97
570.08	2326.82
570.43	2317.64
570.78	2308.77
571.14	2299.21
571.49	2289.02
571.84	2279.55
572.20	2268.72
572.55	2258.54
572.90	2247.74
573.26	2237.73
573.61	2226.98
573.96	2216.05
574.31	2204.23
574.67	2192.26
575.02	2179.56
575.37	2167.11
575.72	2154.32
576.08	2142.53
576.43	2130.16
576.78	2117.20
577.13	2104.00
577.49	2091.53
577.84	2079.51
578.19	2067.43
578.54	2055.12
578.90	2043.64
579.25	2031.74
579.60	2019.60
579.95	2007.15
580.30	1994.21
580.66	1980.91
581.01	1967.54
581.36	1954.09
581.71	1941.65
582.06	1929.18
582.42	1916.78
582.77	1904.44
583.12	1892.76
583.47	1880.59
583.82	1868.98
584.17	1857.48
584.53	1845.82
584.88	1833.18
585.23	1820.48
585.58	1806.65
585.93	1793.77
586.28	1780.55
586.63	1766.60
586.98	1752.57
587.34	1739.58
587.69	1726.45
588.04	1714.27
588.39	1702.60
588.74	1690.88
589.09	1679.11
589.44	1666.89
589.79	1655.19
590.14	1643.36
590.49	1631.24
590.84	1619.40
591.19	1607.55
591.54	1595.20
591.89	1583.22
592.25	1572.99
592.60	1561.84
592.95	1550.78
593.30	1539.31
593.65	1527.88
594.00	1516.30
594.35	1506.90
594.70	1495.29
595.05	1484.45
595.40	1472.59
595.75	1461.00
596.10	1449.83
596.45	1438.62
596.80	1427.91
597.15	1416.69
597.50	1405.25
597.85	1394.33
598.19	1382.99
598.54	1371.77
598.89	1361.02
599.24	1350.71
599.59	1339.33
599.94	1328.57
600.29	1318.50
600.64	1308.40
600.99	1297.70
601.34	1288.36
601.69	1277.33
602.04	1268.11
602.39	1258.58
602.74	1249.79
603.08	1240.57
603.43	1231.59
603.78	1222.16
604.13	1212.61
604.48	1203.19
604.83	1193.82
605.18	1184.16
605.53	1174.67
605.87	1165.75
606.22	1157.52
606.57	1148.40
606.92	1139.35
607.27	1130.72
607.62	1122.16
607.96	1113.74
608.31	1106.14
608.66	1097.97
609.01	1089.87
609.36	1081.31
609.70	1073.12
610.05	1064.65
610.40	1056.34
610.75	1047.63
611.10	1039.82
611.44	1031.49
611.79	1023.52
612.14	1015.93
612.49	1008.44
612.83	1001.32
613.18	993.75
613.53	986.17
613.88	978.65
614.22	971.24
614.57	963.55
614.92	955.82
615.27	948.59
615.61	941.08
615.96	933.79
616.31	926.53
616.65	919.62
617.00	912.57
617.35	905.47
617.70	898.58
618.04	891.82
618.39	884.89
618.74	878.91
619.08	872.40
619.43	865.76
619.78	858.98
620.12	851.95
620.47	845.25
620.82	838.27
621.16	831.58
621.51	825.36
621.85	819.10
622.20	812.64
622.55	806.30
622.89	800.25
623.24	793.87
623.59	787.57
623.93	781.41
624.28	775.48
624.62	770.10
624.97	764.51
625.32	759.00
625.66	753.25
626.01	747.36
626.35	741.98
626.70	736.38
627.04	731.28
627.39	726.03
627.73	720.83
628.08	715.73
628.43	710.56
628.77	705.41
629.12	700.52
629.46	696.00
629.81	691.28
630.15	686.45
630.50	681.85
630.84	677.21
631.19	672.68
631.53	668.26
631.88	663.12
632.22	658.38
632.57	654.08
632.91	649.57
633.26	645.27
633.60	640.74
633.95	636.41
634.29	631.71
634.64	627.47
634.98	623.03
635.32	618.80
635.67	614.84
636.01	610.70
636.36	606.44
636.70	602.32
637.05	598.17
637.39	594.14
637.73	590.22
638.08	586.36
638.42	582.45
638.77	578.25
639.11	574.07
639.45	569.84
639.80	565.52
640.14	561.60
640.49	557.65
640.83	553.95
641.17	550.34
641.52	546.84
641.86	543.28
642.20	540.15
642.55	536.60
642.89	533.06
643.23	529.63
643.58	526.60
643.92	523.12
644.26	519.79
644.61	516.65
644.95	513.39
645.29	509.98
645.64	506.77
645.98	503.74
646.32	500.85
646.66	497.89
647.01	494.95
647.35	492.27
647.69	489.40
648.04	486.63
648.38	483.83
648.72	480.99
649.06	478.04
649.41	474.89
649.75	472.05
650.09	469.23
650.43	466.51
650.78	463.54
651.12	460.81
651.46	458.19
651.80	455.41
652.14	452.75
652.49	450.30
652.83	447.79
653.17	445.22
653.51	442.63
653.85	440.36
654.20	437.97
654.54	435.45
654.88	433.04
655.22	430.80
655.56	428.46
655.90	426.14
656.25	423.98
656.59	421.87
656.93	419.84
657.27	417.90
657.61	415.60
657.95	413.57
658.29	411.43
658.64	409.44
658.98	407.29
659.32	405.06
659.66	402.98
660.00	400.92
660.34	398.80
660.68	396.74
661.02	394.65
661.36	392.76
661.70	390.65
662.05	388.65
662.39	386.65
662.73	385.01
663.07	383.50
663.41	381.75
663.75	379.99
664.09	378.09
664.43	376.16
664.77	374.41
665.11	372.63
665.45	371.05
665.79	369.37
666.13	367.62
666.47	365.99
666.81	364.37
667.15	362.74
667.49	361.30
667.83	360.03
668.17	358.49
668.51	357.00
668.85	355.72
669.19	354.65
669.53	353.25
669.87	351.65
670.21	350.10
670.55	348.68
670.89	347.45
671.23	346.17
671.57	344.82
671.91	343.56
672.25	342.30
672.58	341.10
672.92	339.59
673.26	338.60
673.60	337.43
673.94	336.26
674.28	335.23
674.62	334.20
674.96	333.00
675.30	331.99
675.64	330.84
675.97	329.60
676.31	328.24
676.65	326.98
676.99	326.04
677.33	324.87
677.67	323.77
678.01	322.42
678.34	321.35
678.68	320.39
679.02	319.35
679.36	318.36
679.70	317.39
680.04	316.57
680.37	315.55
680.71	314.62
681.05	313.72
681.39	312.78
681.73	311.74
682.06	310.87
682.40	309.94
682.74	309.14
683.08	308.56
683.42	307.76
683.75	307.07
684.09	306.09
684.43	305.34
684.77	304.55
685.10	303.90
685.44	303.16
685.78	302.37
686.12	301.60
686.45	300.87
686.79	300.00
687.13	299.31
687.46	298.49
687.80	297.90
688.14	297.05
688.48	296.25
688.81	295.57
689.15	294.96
689.49	294.23
689.82	293.51
690.16	292.65
690.50	291.85
690.83	291.12
691.17	290.34
691.51	289.58
691.84	288.99
692.18	288.30
692.52	287.61
692.85	287.05
693.19	286.68
693.52	286.09
693.86	285.40
694.20	284.78
694.53	284.32
694.87	283.63
695.21	283.12
695.54	282.60
695.88	281.89
696.21	281.13
696.55	280.61
696.88	280.00
697.22	279.37
697.56	278.90
697.89	278.38
698.23	278.08
698.56	277.54
698.90	277.09
699.23	276.53
699.57	276.11
699.90	275.47
700.24	274.74
700.58	274.20
700.91	273.82
701.25	273.69
701.58	273.51
701.92	273.21
702.25	272.77
702.59	272.27
702.92	271.95
703.26	271.61
703.59	271.14
703.93	271.19
704.26	270.83
704.60	270.47
704.93	269.94
705.26	269.41
705.60	269.07
705.93	268.53
706.27	268.34
706.60	268.02
706.94	267.93
707.27	267.59
707.61	267.33
707.94	267.06
708.27	266.35
708.61	265.55
708.94	265.08
709.28	264.75
709.61	264.33
709.94	263.96
710.28	263.49
710.61	263.15
710.95	262.32
711.28	262.31
711.61	261.85
711.95	261.65
712.28	261.27
712.61	260.96
712.95	260.98
713.28	260.81
713.61	260.32
713.95	259.76
714.28	259.45
714.61	258.96
714.95	258.51
715.28	258.04
715.61	257.81
715.95	257.57
716.28	257.14
716.61	256.92
716.95	256.60
717.28	256.34
717.61	256.09
717.94	255.79
718.28	255.12
718.61	254.89
718.94	254.49
719.27	254.27
719.61	253.99
719.94	253.50
720.27	253.00
720.60	252.84
720.94	252.61
721.27	252.38
721.60	252.30
721.93	251.99
722.27	251.96
722.60	251.70
722.93	251.39
723.26	251.31
723.59	251.03
723.93	250.84
724.26	250.65
724.59	250.40
724.92	250.19
725.25	250.12
725.59	249.92
725.92	249.89
726.25	249.66
726.58	249.50
726.91	249.33
727.24	249.19
727.57	248.93
727.91	248.63
728.24	248.43
728.57	248.11
728.90	248.05
729.23	247.72
729.56	247.90
729.89	247.85
730.22	247.55
730.55	247.40
730.89	247.26
731.22	247.06
731.55	246.91
731.88	246.78
732.21	246.53
732.54	246.33
732.87	246.05
733.20	245.88
733.53	245.72
733.86	245.54
734.19	245.28
734.52	245.20
734.85	245.41
735.18	245.27
735.51	245.30
735.84	245.14
736.17	245.17
736.50	244.67
736.83	244.96
737.16	244.81
737.49	244.66
737.82	244.44
738.15	244.33
738.48	244.09
738.81	243.92
739.14	243.73
739.47	243.55
739.80	243.40
740.13	243.27
740.46	243.00
740.79	242.73
741.12	242.56
741.45	242.38
741.78	241.89
742.11	241.84
742.44	241.51
742.77	241.47
743.10	241.25
743.43	241.08
743.75	240.41
744.08	240.93
744.41	240.70
744.74	240.52
745.07	240.23
745.40	240.14
745.73	240.15
746.06	240.04
746.39	239.93
746.71	239.76
747.04	239.60
747.37	239.41
747.70	239.37
748.03	239.28
748.36	239.22
748.68	239.08
749.01	238.73
749.34	238.67
749.67	238.45
750.00	238.29
750.33	238.47
750.65	238.25
750.98	237.48
751.31	237.44
751.64	237.43
751.97	237.65
752.29	237.50
752.62	237.22
752.95	237.03
753.28	236.92
753.60	236.82
753.93	236.80
754.26	236.87
754.59	236.59
754.91	236.40
755.24	236.15
755.57	236.17
755.90	236.10
756.22	235.96
756.55	235.83
756.88	235.65
757.20	235.27
757.53	235.11
757.86	234.99
758.19	234.83
758.51	234.72
758.84	234.38
759.17	234.30
759.49	234.26
759.82	234.41
760.15	234.39
760.47	234.28
760.80	234.09
761.13	233.95
761.45	233.91
761.78	233.85
762.11	233.88
762.43	233.65
762.76	233.55
763.08	233.53
763.41	233.51
763.74	233.52
764.06	233.39
764.39	233.41
764.71	233.37
765.04	233.41
765.37	233.25
765.69	233.18
766.02	233.08
766.34	232.95
766.67	232.77
767.00	232.74
767.32	232.95
767.65	233.22
767.97	233.17
768.30	233.23
768.62	233.20
768.95	233.09
769.27	233.07
769.60	233.15
769.92	233.00
770.25	232.89
770.57	232.71
770.90	232.72
771.22	232.61
771.55	232.61
771.87	232.55
772.20	232.51
772.52	232.90
772.85	233.50
773.17	233.44
773.50	233.29
773.82	233.18
774.15	232.91
774.47	232.57
774.80	232.43
775.12	232.34
775.45	232.26
775.77	232.22
776.09	232.21
776.42	232.11
776.74	232.26
777.07	232.14
777.39	232.13
777.72	232.05
778.04	232.03
778.36	231.91
778.69	231.83
779.01	231.80
779.33	231.29
779.66	230.67
779.98	230.63
780.31	230.67
780.63	230.85
780.95	230.85
781.28	230.71
781.60	230.66
781.92	230.67
782.25	230.66
782.57	230.63
782.89	230.59
783.22	230.52
783.54	230.40
783.86	230.40
784.19	230.35
784.51	230.47
784.83	230.44
785.16	230.39
785.48	230.40
785.80	230.35
786.12	230.37
786.45	230.28
786.77	230.26
787.09	230.15
787.42	229.99
787.74	230.04
788.06	230.18
788.38	230.15
788.71	230.03
789.03	230.03
789.35	230.00
789.67	229.84
789.99	229.92
790.32	229.82
790.64	229.86
790.96	230.24
791.28	230.05
791.61	229.92
791.93	229.95
792.25	229.90
792.57	230.24
792.89	230.10
793.21	230.18
793.54	230.03
793.86	230.00
794.18	229.91
794.50	229.73
794.82	229.63
795.14	229.69
795.47	229.72
795.79	229.70
796.11	229.55
796.43	229.56
796.75	229.49
797.07	229.45
797.39	229.43
797.71	229.03
798.04	229.02
798.36	229.05
798.68	229.02
799.00	229.02
799.32	228.73
799.64	228.90
799.96	228.83
800.28	229.02
800.60	229.01
800.92	229.03
801.24	229.03
801.56	229.09
801.89	229.00
802.21	229.09
802.53	228.99
802.85	229.12
803.17	229.29
803.49	229.19
803.81	229.12
804.13	229.05
804.45	229.06
804.77	229.08
805.09	229.06
805.41	229.00
805.73	228.91
806.05	228.80
806.37	228.72
806.69	228.71
807.01	228.59
807.33	228.56
807.65	228.43
807.97	228.60
808.28	228.50
808.60	228.54
808.92	228.41
809.24	228.70
809.56	228.62
809.88	228.55
810.20	228.57
810.52	228.66
810.84	228.61
811.16	228.50
811.48	228.42
811.80	228.62
812.12	228.67
812.43	228.79
812.75	228.78
813.07	228.76
813.39	228.81
813.71	228.78
814.03	228.73
814.35	228.73
814.67	228.52
814.98	228.47
815.30	228.41
815.62	228.27
815.94	227.95
816.26	228.16
816.58	228.04
816.89	228.07
817.21	227.93
817.53	228.00
817.85	228.09
818.17	228.16
818.48	227.90
818.80	227.93
819.12	227.76
819.44	227.70
819.76	227.60
820.07	227.55
820.39	227.55
820.71	227.60
821.03	227.60
821.34	227.57
821.66	227.57
821.98	227.64
822.30	227.66
822.61	227.95
822.93	227.72
823.25	227.72
823.57	227.65
823.88	227.76
824.20	227.68
824.52	227.68
824.83	227.59
825.15	227.55
825.47	227.50
825.79	227.51
826.10	227.47
826.42	227.52
826.74	227.52
827.05	227.45
827.37	227.44
827.69	227.41
828.00	227.48
828.32	227.53
828.64	227.39
828.95	227.64
829.27	227.54
829.58	227.55
829.90	227.61
830.22	227.70
830.53	227.60
830.85	227.55
831.17	227.42
831.48	227.44
831.80	227.49
832.11	227.38
832.43	227.31
832.75	227.34
833.06	227.58
833.38	227.42
833.69	227.44
834.01	227.41
834.32	227.30
834.64	227.16
834.96	227.16
835.27	227.20
835.59	226.92
835.90	226.78
836.22	226.70
836.53	226.61
836.85	226.52
837.16	227.01
837.48	227.01
837.79	227.16
838.11	227.13
838.42	227.11
838.74	227.24
839.05	227.22
839.37	227.18
839.68	226.87
840.00	226.86
840.31	226.95
840.63	226.96
840.94	227.01
841.26	227.03
841.57	227.04
841.88	227.11
842.20	227.14
842.51	227.03
842.83	227.09
843.14	227.52
843.46	227.51
843.77	227.12
844.08	227.14
844.40	226.96
844.71	226.93
845.03	226.89
845.34	226.76
845.65	226.78
845.97	226.79
846.28	226.84
846.60	226.90
846.91	226.74
847.22	226.71
847.54	226.79
847.85	226.75
848.16	226.66
848.48	226.60
848.79	226.78
849.10	226.86
849.42	226.82
849.73	226.37
850.04	226.30
850.36	226.22
850.67	226.30
850.98	226.37
851.30	226.44
851.61	226.45
851.92	226.50
852.23	226.60
852.55	226.65
852.86	226.67
853.17	226.70
853.49	226.86
853.80	226.94
854.11	227.01
854.42	227.17
854.74	227.08
855.05	227.05
855.36	226.84
855.67	226.77
855.99	226.83
856.30	227.40
856.61	227.40
856.92	227.39
857.23	227.33
857.55	227.30
857.86	227.28
858.17	227.34
858.48	227.32
858.79	227.23
859.11	227.29
859.42	227.25
859.73	227.20
860.04	227.15
860.35	226.97
860.66	226.77
860.98	226.74
861.29	226.84
861.60	226.84
861.91	227.01
862.22	227.02
862.53	226.94
862.84	226.33
863.16	226.48
863.47	226.46
863.78	226.42
864.09	226.40
864.40	226.38
864.71	226.37
865.02	226.43
865.33	226.39
865.64	226.28
865.95	226.30
866.27	226.60
866.58	226.56
866.89	226.64
867.20	226.70
867.51	226.58
867.82	226.57
868.13	226.72
868.44	226.54
868.75	226.61
869.06	226.61
869.37	226.67
869.68	226.48
869.99	226.52
870.30	226.56
870.61	226.61
870.92	226.60
871.23	226.52
871.54	226.57
871.85	226.75
872.16	226.81
872.47	226.68
872.78	226.38
873.09	226.48
873.40	226.45
873.71	226.46
874.02	226.47
874.33	226.39
874.64	226.23
874.95	226.28
875.26	226.19
875.56	226.16
875.87	226.14
876.18	226.17
876.49	226.63
876.80	226.57
877.11	226.51
877.42	226.48
877.73	226.46
878.04	226.40
878.35	226.34
878.66	226.36
878.96	226.34
879.27	226.33
879.58	226.27
879.89	226.24
880.20	226.41
880.51	226.47
880.82	226.42
881.12	226.45
881.43	226.38
881.74	226.33
882.05	226.41
882.36	226.42
882.67	226.41
882.97	225.94
883.28	225.91
883.59	225.88
883.90	225.96
884.21	226.06
884.51	226.01
884.82	225.91
885.13	225.90
885.44	225.94
885.74	225.99
886.05	225.95
886.36	226.00
886.67	225.68
886.98	225.94
887.28	226.03
887.59	226.05
887.90	226.12
888.20	226.10
888.51	226.13
888.82	226.06
889.13	226.08
889.43	226.50
889.74	226.50
890.05	226.45
890.35	226.37
890.66	226.31
890.97	226.27
891.28	226.29
891.58	226.30
891.89	226.36
892.20	226.34
892.50	226.29
892.81	226.30
893.12	226.44
893.42	226.09
893.73	226.11
894.04	226.12
894.34	226.15
894.65	226.22
894.95	226.20
895.26	226.25
895.57	226.52
895.87	226.01
896.18	226.11
896.48	226.20
896.79	226.20
897.10	226.30
897.40	226.31
897.71	226.41
898.01	226.38
898.32	226.43
898.63	226.41
898.93	226.49
899.24	226.49
899.54	226.45
899.85	226.47
900.15	226.49
900.46	226.51
900.76	226.55
901.07	226.50
901.38	226.42
901.68	226.52
901.99	226.28
902.29	226.39
902.60	226.35
902.90	226.36
903.21	226.42
903.51	226.37
903.82	226.47
904.12	226.36
904.43	226.35
904.73	226.30
905.03	226.26
905.34	226.72
905.64	226.66
905.95	226.67
906.25	226.68
906.56	226.69
906.86	226.66
907.17	226.62
907.47	226.70
907.77	226.61
908.08	226.48
908.38	226.48
908.69	226.44
908.99	226.53
909.30	226.47
909.60	226.42
909.90	226.44
910.21	226.27
910.51	226.18
910.81	226.16
911.12	226.20
911.42	226.22
911.73	225.68
912.03	225.68
912.33	225.77
912.64	225.79
912.94	225.65
913.24	225.56
913.55	225.59
913.85	225.47
914.15	225.65
914.46	225.76
914.76	225.69
915.06	225.62
915.37	225.51
915.67	225.53
915.97	225.56
916.27	225.47
916.58	225.56
916.88	225.60
917.18	225.62
917.49	225.91
917.79	225.91
918.09	225.98
918.39	226.10
918.70	226.10
919.00	226.08
919.30	226.38
919.60	226.38
919.91	226.27
920.21	226.40
920.51	226.27
920.81	226.21
921.12	226.30
921.42	226.35
921.72	226.40
922.02	226.41
922.32	226.48
922.63	226.52
922.93	226.69
923.23	226.75
923.53	226.66
923.83	226.36
924.13	226.42
924.44	226.47
924.74	226.57
925.04	226.60
925.34	226.64
925.64	226.43
925.94	226.48
926.24	226.76
926.55	226.65
926.85	226.73
927.15	226.74
927.45	226.73
927.75	226.74
928.05	226.77
928.35	226.74
928.65	226.85
928.95	226.90
929.26	226.74
929.56	226.78
929.86	226.79
930.16	226.77
930.46	226.69
930.76	226.73
931.06	226.48
931.36	226.39
931.66	226.44
931.96	226.50
932.26	226.54
932.56	226.33
932.86	226.46
933.16	226.50
933.46	226.41
933.76	226.30
934.06	226.38
934.36	226.45
934.66	226.51
934.96	226.38
935.26	226.40
935.56	226.51
935.86	226.46
936.16	226.50
936.46	226.47
936.76	226.51
937.06	226.40
937.36	226.47
937.66	226.49
937.96	226.48
938.26	226.35
938.56	226.26
938.86	226.31
939.16	226.27
939.46	226.26
939.76	226.35
940.06	226.41
940.35	226.27
940.65	226.08
940.95	226.04
941.25	225.96
941.55	225.82
941.85	225.76
942.15	225.86
942.45	225.95
942.75	225.95
943.04	225.96
943.34	226.05
943.64	225.94
943.94	225.87
944.24	225.78
944.54	225.79
944.84	225.78
945.13	225.65
945.43	225.59
945.73	225.55
946.03	225.48
946.33	225.41
946.62	225.34
946.92	225.38
947.22	225.42
947.52	225.40
947.82	225.42
948.11	225.33
948.41	225.20
948.71	225.04
949.01	225.01
949.31	224.95
949.60	224.91
949.90	225.05
950.20	225.03
950.50	225.01
950.79	225.04
951.09	225.13
951.39	225.15
951.69	225.09
951.98	225.08
952.28	225.12
952.58	225.12
952.87	225.26
953.17	225.30
953.47	225.22
953.76	225.31
954.06	225.33
954.36	225.25
954.66	225.17
954.95	225.28
955.25	225.29
955.55	225.31
955.84	225.21
956.14	225.23
956.44	225.20
956.73	225.11
957.03	225.08
957.32	225.03
957.62	224.95
957.92	225.03
958.21	225.07
958.51	225.60
958.81	225.68
959.10	225.69
959.40	225.73
959.69	225.76
959.99	225.80
960.29	225.80
960.58	225.84
960.88	226.02
961.17	225.99
961.47	226.08
961.76	226.02
962.06	226.11
962.36	226.03
962.65	226.11
962.95	226.19
963.24	226.17
963.54	226.19
963.83	226.30
964.13	226.29
964.42	226.22
964.72	225.82
965.01	225.78
965.31	225.71
965.60	225.64
965.90	225.99
966.19	225.85
966.49	225.84
966.78	225.79
967.08	225.79
967.37	225.87
967.67	225.81
967.96	225.95
968.26	225.91
968.55	225.98
968.85	225.99
969.14	226.08
969.43	226.04
969.73	226.04
970.02	226.04
970.32	226.05
970.61	225.98
970.91	225.87
971.20	225.83
971.49	225.83
971.79	225.94
972.08	225.54
972.38	225.61
972.67	225.64
972.96	225.78
973.26	225.68
973.55	225.75
973.85	225.72
974.14	225.69
974.43	225.75
974.73	225.68
975.02	225.60
975.31	225.52
975.61	225.58
975.90	225.55
976.19	225.46
976.49	225.54
976.78	225.62
977.07	225.61
977.37	225.70
977.66	225.72
977.95	225.60
978.24	225.63
978.54	225.73
978.83	225.67
979.12	225.65
979.42	225.66
979.71	225.51
980.00	225.55
980.29	225.54
980.59	225.49
980.88	225.63
981.17	225.62
981.46	225.65
981.76	225.64
982.05	225.76
982.34	225.81
982.63	225.76
982.93	225.70
983.22	225.89
983.51	225.88
983.80	225.96
984.09	226.02
984.39	226.04
984.68	225.99
984.97	226.03
985.26	225.97
985.55	225.98
985.85	225.94
986.14	225.91
986.43	225.88
986.72	225.82
987.01	225.67
987.30	225.66
987.59	225.62
987.89	225.66
988.18	225.52
988.47	225.49
988.76	225.40
989.05	225.36
989.34	225.20
989.63	225.23
989.92	225.13
990.22	225.09
990.51	225.05
990.80	225.02
991.09	225.05
991.38	225.11
991.67	225.09
991.96	225.11
992.25	225.18
992.54	225.16
992.83	225.17
993.12	225.13
993.41	225.22
993.70	225.45
993.99	225.52
994.28	225.55
994.58	225.63
994.87	225.62
995.16	225.64
995.45	225.62
995.74	225.52
996.03	225.55
996.32	225.60
996.61	225.72
996.90	225.61
997.19	225.60
997.48	225.60
997.77	225.62
998.06	225.62
998.34	225.55
998.63	225.56
998.92	225.64
999.21	225.70
999.50	225.71
999.79	225.54
1000.08	225.58
1000.37	225.63
1000.66	225.58
1000.95	225.71
1001.24	225.80
1001.53	225.87
1001.82	225.90
1002.11	225.88
1002.40	225.93
1002.68	226.00
1002.97	226.42
1003.26	226.35
1003.55	226.26
1003.84	226.22
1004.13	226.39
1004.42	226.45
1004.71	226.48
1004.99	226.44
1005.28	226.58
1005.57	226.57
1005.86	226.48
1006.15	226.41
1006.44	226.34
1006.72	226.42
1007.01	226.35
1007.30	226.34
1007.59	226.35
1007.88	226.39
1008.17	226.46
1008.45	226.41
1008.74	226.28
1009.03	226.00
1009.32	226.05
1009.60	226.11
1009.89	226.09
1010.18	225.92
1010.47	225.87
1010.76	225.88
1011.04	225.85
1011.33	225.87
1011.62	225.92
1011.91	225.98
1012.19	226.02
1012.48	226.03
1012.77	226.00
1013.05	226.25
1013.34	226.26
1013.63	226.12
1013.92	226.13
1014.20	226.00
1014.49	226.04
1014.78	226.07
1015.06	225.97
1015.35	225.96
1015.64	226.03
1015.92	226.11
1016.21	226.13
1016.50	226.01
1016.78	226.09
1017.07	226.05
1017.36	225.90
1017.64	225.84
1017.93	225.94
1018.22	225.88
1018.50	225.85
1018.79	225.82
1019.08	225.56
1019.36	225.57
1019.65	225.55
1019.93	225.65
1020.22	225.70
1020.51	225.92
1020.79	225.80
1021.08	225.15
1021.36	224.50
1021.65	225.40
1021.94	225.40
1022.22	226.15
1022.51	223.85
1022.79	228.25
1023.08	225.20
1023.36	231.95
1023.65	224.05
>>>>>End Processed Spectral Data<<<<<
