SpectraSuite Data File
++++++++++++++++++++++++++++++++++++
Date: Wed Sep 04 17:56:48 EDT 2013
User: lab3
Dark Spectrum Present: Yes
Reference Spectrum Present: No
Number of Sampled Component Spectra: 1
Spectrometers: USB2E7196
Integration Time (usec): 170000 (USB2E7196)
Spectra Averaged: 20 (USB2E7196)
Boxcar Smoothing: 10 (USB2E7196)
Correct for Electrical Dark: No (USB2E7196)
Strobe/Lamp Enabled: No (USB2E7196)
Correct for Detector Non-linearity: No (USB2E7196)
Correct for Stray Light: No (USB2E7196)
Number of Pixels in Processed Spectrum: 2048
>>>>>Begin Processed Spectral Data<<<<<
339.09	0.00
339.48	213.25
339.86	214.05
340.24	216.15
340.63	217.25
341.01	226.05
341.39	220.65
341.78	222.40
342.16	224.45
342.54	222.65
342.93	212.32
343.31	223.01
343.69	223.53
344.07	224.07
344.46	224.57
344.84	224.98
345.22	224.93
345.60	225.15
345.99	225.35
346.37	225.41
346.75	225.49
347.13	225.59
347.52	225.69
347.90	225.87
348.28	225.97
348.66	226.14
349.05	225.96
349.43	226.05
349.81	226.06
350.19	226.15
350.57	226.22
350.96	226.32
351.34	226.47
351.72	226.58
352.10	226.68
352.48	226.69
352.87	226.73
353.25	226.83
353.63	226.93
354.01	227.00
354.39	227.16
354.77	227.24
355.15	227.47
355.54	227.45
355.92	227.37
356.30	227.40
356.68	227.72
357.06	227.84
357.44	227.79
357.82	227.95
358.20	228.45
358.58	228.50
358.97	228.60
359.35	228.70
359.73	228.85
360.11	228.83
360.49	228.91
360.87	229.01
361.25	229.10
361.63	229.23
362.01	229.31
362.39	229.25
362.77	229.39
363.15	229.35
363.53	229.45
363.91	229.53
364.29	229.56
364.67	229.22
365.05	229.30
365.43	229.45
365.81	229.45
366.19	229.27
366.57	229.52
366.95	229.50
367.33	229.42
367.71	229.50
368.09	229.58
368.47	229.61
368.85	229.55
369.23	229.55
369.61	229.50
369.99	229.55
370.37	229.65
370.75	229.87
371.13	229.75
371.51	229.67
371.89	229.69
372.27	229.69
372.65	229.72
373.03	229.71
373.41	229.63
373.78	229.57
374.16	229.33
374.54	229.08
374.92	229.03
375.30	228.99
375.68	228.74
376.06	228.73
376.44	228.59
376.82	228.59
377.19	228.57
377.57	228.50
377.95	228.32
378.33	228.18
378.71	227.85
379.09	227.83
379.47	227.79
379.84	227.70
380.22	227.64
380.60	227.42
380.98	227.26
381.36	227.22
381.73	227.14
382.11	227.15
382.49	227.18
382.87	227.10
383.25	227.08
383.62	227.60
384.00	227.39
384.38	227.39
384.76	227.40
385.13	227.61
385.51	227.49
385.89	227.40
386.27	227.34
386.64	227.36
387.02	227.29
387.40	227.22
387.78	227.18
388.15	227.18
388.53	227.18
388.91	227.15
389.29	227.06
389.66	227.10
390.04	227.00
390.42	227.04
390.79	226.99
391.17	226.95
391.55	226.42
391.92	226.47
392.30	226.44
392.68	226.36
393.05	226.31
393.43	226.44
393.81	226.52
394.18	226.53
394.56	226.55
394.94	226.62
395.31	226.57
395.69	226.73
396.06	226.79
396.44	226.91
396.82	226.92
397.19	227.23
397.57	227.25
397.95	227.50
398.32	227.40
398.70	227.49
399.07	227.68
399.45	227.73
399.82	227.83
400.20	227.97
400.58	228.04
400.95	227.91
401.33	228.02
401.70	228.52
402.08	228.67
402.45	228.75
402.83	229.01
403.20	229.24
403.58	229.33
403.95	229.47
404.33	229.67
404.71	229.88
405.08	230.32
405.46	230.51
405.83	230.63
406.21	230.92
406.58	231.24
406.96	231.51
407.33	231.91
407.70	232.31
408.08	233.06
408.45	233.52
408.83	233.95
409.20	234.26
409.58	234.27
409.95	234.80
410.33	235.30
410.70	235.70
411.08	236.34
411.45	237.00
411.82	237.62
412.20	238.35
412.57	239.32
412.95	239.58
413.32	240.43
413.69	241.28
414.07	242.16
414.44	243.10
414.82	244.15
415.19	245.32
415.56	246.47
415.94	247.42
416.31	248.87
416.68	250.36
417.06	252.07
417.43	253.84
417.81	255.56
418.18	257.50
418.55	259.41
418.93	261.36
419.30	263.40
419.67	265.62
420.04	267.90
420.42	270.22
420.79	273.41
421.16	276.26
421.54	279.29
421.91	282.35
422.28	285.46
422.66	288.66
423.03	292.16
423.40	295.56
423.77	299.12
424.15	302.65
424.52	306.40
424.89	310.54
425.26	314.41
425.64	318.21
426.01	322.32
426.38	326.79
426.75	331.41
427.13	336.02
427.50	340.76
427.87	345.66
428.24	350.56
428.61	355.10
428.99	360.33
429.36	365.84
429.73	371.40
430.10	377.03
430.47	382.78
430.85	388.37
431.22	394.55
431.59	401.35
431.96	407.62
432.33	414.60
432.70	421.23
433.08	429.03
433.45	436.52
433.82	444.01
434.19	452.23
434.56	460.32
434.93	468.03
435.30	475.84
435.68	484.40
436.05	492.90
436.42	501.20
436.79	508.96
437.16	517.22
437.53	525.94
437.90	534.54
438.27	543.21
438.64	552.22
439.01	560.42
439.38	567.59
439.75	574.73
440.13	582.72
440.50	590.36
440.87	596.64
441.24	602.98
441.61	609.87
441.98	614.81
442.35	620.63
442.72	626.66
443.09	632.51
443.46	636.07
443.83	638.45
444.20	640.42
444.57	643.09
444.94	644.36
445.31	645.49
445.68	646.90
446.05	646.93
446.42	645.40
446.79	644.03
447.16	642.39
447.53	641.04
447.90	637.31
448.27	633.59
448.64	628.67
449.01	625.04
449.37	618.94
449.74	613.06
450.11	606.17
450.48	598.33
450.85	590.27
451.22	583.39
451.59	576.71
451.96	570.41
452.33	562.38
452.70	554.84
453.07	546.05
453.43	536.87
453.80	528.49
454.17	520.62
454.54	512.87
454.91	504.70
455.28	496.76
455.65	489.34
456.02	482.48
456.38	476.02
456.75	468.10
457.12	461.51
457.49	455.10
457.86	448.72
458.23	443.50
458.59	437.71
458.96	431.86
459.33	426.76
459.70	421.49
460.07	417.31
460.43	412.64
460.80	408.47
461.17	404.78
461.54	400.80
461.91	397.01
462.27	393.10
462.64	389.77
463.01	386.22
463.38	382.99
463.74	378.83
464.11	375.90
464.48	373.29
464.85	370.44
465.21	368.32
465.58	366.03
465.95	363.23
466.32	361.10
466.68	358.77
467.05	356.55
467.42	354.47
467.78	352.08
468.15	349.99
468.52	348.38
468.88	346.12
469.25	344.15
469.62	342.66
469.98	341.07
470.35	339.57
470.72	338.19
471.08	336.41
471.45	335.29
471.82	334.01
472.18	332.58
472.55	331.56
472.92	330.19
473.28	329.05
473.65	328.00
474.02	326.88
474.38	326.05
474.75	325.20
475.11	324.25
475.48	323.74
475.85	323.14
476.21	322.41
476.58	322.00
476.94	321.58
477.31	321.04
477.67	320.75
478.04	320.39
478.41	320.14
478.77	320.44
479.14	320.21
479.50	320.10
479.87	320.22
480.23	320.25
480.60	320.29
480.96	320.43
481.33	320.82
481.69	321.06
482.06	321.30
482.42	321.67
482.79	322.01
483.15	322.49
483.52	323.02
483.88	323.50
484.25	323.98
484.61	324.60
484.98	325.24
485.34	326.09
485.71	327.12
486.07	328.11
486.44	328.68
486.80	329.67
487.17	330.80
487.53	332.09
487.90	333.52
488.26	335.21
488.62	336.78
488.99	338.33
489.35	340.07
489.72	341.96
490.08	343.88
490.44	346.01
490.81	348.16
491.17	350.34
491.54	352.91
491.90	355.54
492.26	358.25
492.63	361.17
492.99	364.00
493.36	367.09
493.72	370.38
494.08	373.90
494.45	377.62
494.81	381.50
495.17	385.41
495.54	389.56
495.90	393.71
496.26	398.22
496.63	402.84
496.99	407.65
497.35	412.71
497.72	418.09
498.08	423.58
498.44	429.29
498.80	435.42
499.17	441.47
499.53	447.67
499.89	454.47
500.26	461.22
500.62	468.15
500.98	475.58
501.34	482.99
501.71	490.69
502.07	498.67
502.43	506.89
502.79	515.30
503.16	523.82
503.52	532.84
503.88	541.95
504.24	551.51
504.60	561.60
504.97	571.92
505.33	582.29
505.69	593.39
506.05	604.47
506.41	615.68
506.78	627.46
507.14	639.55
507.50	651.76
507.86	664.46
508.22	677.69
508.59	690.69
508.95	704.37
509.31	718.69
509.67	733.00
510.03	747.28
510.39	762.18
510.75	777.34
511.12	792.40
511.48	808.10
511.84	823.90
512.20	839.87
512.56	856.26
512.92	872.97
513.28	889.66
513.64	906.79
514.00	924.39
514.37	941.84
514.73	959.95
515.09	978.26
515.45	996.79
515.81	1015.12
516.17	1033.88
516.53	1052.49
516.89	1071.04
517.25	1090.23
517.61	1110.43
517.97	1130.26
518.33	1150.44
518.69	1170.98
519.05	1191.52
519.41	1212.21
519.77	1233.33
520.13	1254.08
520.49	1274.81
520.85	1297.34
521.21	1318.52
521.57	1339.68
521.93	1360.69
522.29	1382.11
522.65	1402.79
523.01	1423.36
523.37	1444.19
523.73	1465.31
524.09	1486.05
524.45	1506.80
524.81	1527.75
525.17	1548.21
525.53	1569.16
525.89	1589.65
526.25	1610.48
526.61	1631.07
526.97	1652.22
527.33	1673.34
527.68	1695.07
528.04	1716.38
528.40	1736.02
528.76	1756.98
529.12	1777.35
529.48	1798.42
529.84	1818.50
530.20	1839.62
530.56	1860.56
530.91	1881.57
531.27	1901.71
531.63	1922.50
531.99	1943.14
532.35	1963.18
532.71	1983.37
533.07	2004.05
533.42	2024.23
533.78	2044.43
534.14	2064.20
534.50	2083.21
534.86	2102.37
535.21	2120.07
535.57	2138.47
535.93	2155.85
536.29	2173.89
536.65	2192.29
537.00	2209.76
537.36	2227.56
537.72	2244.40
538.08	2261.64
538.44	2278.23
538.79	2295.08
539.15	2311.57
539.51	2327.54
539.87	2342.78
540.22	2357.04
540.58	2371.31
540.94	2384.68
541.29	2397.25
541.65	2410.00
542.01	2422.84
542.37	2433.68
542.72	2444.69
543.08	2455.62
543.44	2467.53
543.79	2477.44
544.15	2487.46
544.51	2497.51
544.87	2506.97
545.22	2515.41
545.58	2522.93
545.94	2530.10
546.29	2536.70
546.65	2542.94
547.01	2548.57
547.36	2554.24
547.72	2559.73
548.07	2563.55
548.43	2568.87
548.79	2573.52
549.14	2577.52
549.50	2581.23
549.86	2584.78
550.21	2588.50
550.57	2591.75
550.92	2593.23
551.28	2594.84
551.64	2596.65
551.99	2598.53
552.35	2600.10
552.70	2602.02
553.06	2604.07
553.41	2605.37
553.77	2606.98
554.13	2608.61
554.48	2610.13
554.84	2611.35
555.19	2612.66
555.55	2614.64
555.90	2613.68
556.26	2612.62
556.61	2610.95
556.97	2608.60
557.32	2608.38
557.68	2607.22
558.03	2605.65
558.39	2604.60
558.74	2603.59
559.10	2600.54
559.45	2596.98
559.81	2592.27
560.16	2587.42
560.52	2582.70
560.87	2578.22
561.23	2572.65
561.58	2566.60
561.94	2559.70
562.29	2552.62
562.64	2545.64
563.00	2537.08
563.35	2530.87
563.71	2524.35
564.06	2518.12
564.42	2511.80
564.77	2505.09
565.12	2497.33
565.48	2489.47
565.83	2481.25
566.19	2473.11
566.54	2465.24
566.89	2457.41
567.25	2449.80
567.60	2442.78
567.96	2434.90
568.31	2426.82
568.66	2418.47
569.02	2409.68
569.37	2401.60
569.72	2394.02
570.08	2384.50
570.43	2374.99
570.78	2365.91
571.14	2356.44
571.49	2346.45
571.84	2336.75
572.20	2325.45
572.55	2315.69
572.90	2304.95
573.26	2294.63
573.61	2283.57
573.96	2272.63
574.31	2260.49
574.67	2248.82
575.02	2235.74
575.37	2223.13
575.72	2210.07
576.08	2197.84
576.43	2185.27
576.78	2171.97
577.13	2158.21
577.49	2145.52
577.84	2133.85
578.19	2121.53
578.54	2109.07
578.90	2096.97
579.25	2084.73
579.60	2072.35
579.95	2059.35
580.30	2046.35
580.66	2033.10
581.01	2019.50
581.36	2005.53
581.71	1992.83
582.06	1980.03
582.42	1967.56
582.77	1954.86
583.12	1943.08
583.47	1930.55
583.82	1918.49
584.17	1906.44
584.53	1894.41
584.88	1881.70
585.23	1868.76
585.58	1854.76
585.93	1841.48
586.28	1828.04
586.63	1814.17
586.98	1800.01
587.34	1786.62
587.69	1773.42
588.04	1760.52
588.39	1748.63
588.74	1736.39
589.09	1724.07
589.44	1710.99
589.79	1698.92
590.14	1686.92
590.49	1674.58
590.84	1662.49
591.19	1650.06
591.54	1637.66
591.89	1625.64
592.25	1615.30
592.60	1603.61
592.95	1592.15
593.30	1580.18
593.65	1568.37
594.00	1556.39
594.35	1546.47
594.70	1534.62
595.05	1523.18
595.40	1511.16
595.75	1499.09
596.10	1487.90
596.45	1476.69
596.80	1465.97
597.15	1454.51
597.50	1442.62
597.85	1431.25
598.19	1419.67
598.54	1408.39
598.89	1397.33
599.24	1386.69
599.59	1375.06
599.94	1364.25
600.29	1353.75
600.64	1343.19
600.99	1332.38
601.34	1322.68
601.69	1311.50
602.04	1301.72
602.39	1291.94
602.74	1282.94
603.08	1273.51
603.43	1264.18
603.78	1254.39
604.13	1244.62
604.48	1234.76
604.83	1225.04
605.18	1215.16
605.53	1205.57
605.87	1196.35
606.22	1187.86
606.57	1178.35
606.92	1168.68
607.27	1159.52
607.62	1150.81
607.96	1142.30
608.31	1134.38
608.66	1125.97
609.01	1117.40
609.36	1108.94
609.70	1100.49
610.05	1091.79
610.40	1083.26
610.75	1074.38
611.10	1065.89
611.44	1057.32
611.79	1049.06
612.14	1041.30
612.49	1033.38
612.83	1025.93
613.18	1018.18
613.53	1010.44
613.88	1002.46
614.22	994.89
614.57	986.99
614.92	978.95
615.27	971.49
615.61	963.76
615.96	956.05
616.31	948.55
616.65	941.29
617.00	933.97
617.35	926.57
617.70	919.42
618.04	912.49
618.39	905.57
618.74	899.26
619.08	892.57
619.43	885.43
619.78	878.43
620.12	871.23
620.47	864.13
620.82	857.02
621.16	850.31
621.51	843.99
621.85	837.69
622.20	831.16
622.55	824.58
622.89	818.12
623.24	811.63
623.59	805.14
623.93	798.91
624.28	792.66
624.62	786.99
624.97	781.14
625.32	775.27
625.66	769.22
626.01	762.98
626.35	757.26
626.70	751.79
627.04	746.49
627.39	740.92
627.73	735.80
628.08	730.60
628.43	725.15
628.77	719.65
629.12	714.40
629.46	709.61
629.81	704.72
630.15	699.82
630.50	695.01
630.84	690.25
631.19	685.25
631.53	680.70
631.88	675.48
632.22	670.56
632.57	666.03
632.91	661.37
633.26	657.03
633.60	652.51
633.95	648.05
634.29	643.24
634.64	638.85
634.98	634.03
635.32	629.52
635.67	625.45
636.01	621.19
636.36	616.85
636.70	612.65
637.05	608.55
637.39	604.45
637.73	600.34
638.08	596.30
638.42	592.16
638.77	587.73
639.11	583.50
639.45	579.23
639.80	574.91
640.14	570.91
640.49	566.78
640.83	563.05
641.17	559.25
641.52	555.71
641.86	551.98
642.20	548.82
642.55	545.06
642.89	541.57
643.23	538.09
643.58	535.06
643.92	531.47
644.26	528.01
644.61	524.67
644.95	521.29
645.29	517.94
645.64	514.78
645.98	511.75
646.32	508.79
646.66	505.73
647.01	502.67
647.35	499.84
647.69	496.94
648.04	493.95
648.38	491.20
648.72	488.19
649.06	485.33
649.41	482.16
649.75	479.18
650.09	476.45
650.43	473.62
650.78	470.46
651.12	467.63
651.46	464.81
651.80	462.04
652.14	459.44
652.49	456.85
652.83	454.27
653.17	451.60
653.51	448.83
653.85	446.47
654.20	444.04
654.54	441.44
654.88	438.83
655.22	436.54
655.56	433.90
655.90	431.51
656.25	429.28
656.59	427.11
656.93	424.96
657.27	422.77
657.61	420.32
657.95	418.11
658.29	415.90
658.64	413.87
658.98	411.59
659.32	409.11
659.66	406.98
660.00	404.85
660.34	402.76
660.68	400.79
661.02	398.70
661.36	396.66
661.70	394.62
662.05	392.81
662.39	390.85
662.73	389.18
663.07	387.55
663.41	385.69
663.75	383.71
664.09	381.95
664.43	379.89
664.77	378.35
665.11	376.64
665.45	374.99
665.79	373.20
666.13	371.64
666.47	370.08
666.81	368.35
667.15	366.55
667.49	365.05
667.83	363.70
668.17	362.15
668.51	360.72
668.85	359.47
669.19	358.18
669.53	356.59
669.87	355.02
670.21	353.50
670.55	352.14
670.89	351.04
671.23	349.60
671.57	348.20
671.91	346.79
672.25	345.44
672.58	344.30
672.92	342.84
673.26	341.50
673.60	340.28
673.94	339.12
674.28	338.15
674.62	337.00
674.96	335.63
675.30	334.50
675.64	333.37
675.97	332.05
676.31	330.75
676.65	329.61
676.99	328.70
677.33	327.51
677.67	326.37
678.01	324.99
678.34	323.96
678.68	323.12
679.02	322.07
679.36	321.08
679.70	319.95
680.04	319.15
680.37	318.16
680.71	317.18
681.05	316.24
681.39	315.34
681.73	314.40
682.06	313.44
682.40	312.60
682.74	311.68
683.08	310.97
683.42	310.01
683.75	309.27
684.09	308.29
684.43	307.59
684.77	306.72
685.10	305.98
685.44	305.26
685.78	304.36
686.12	303.66
686.45	302.80
686.79	301.98
687.13	301.31
687.46	300.60
687.80	300.00
688.14	299.30
688.48	298.50
688.81	297.72
689.15	297.22
689.49	296.43
689.82	295.76
690.16	294.93
690.50	294.32
690.83	293.55
691.17	292.77
691.51	291.98
691.84	291.35
692.18	290.69
692.52	289.95
692.85	289.31
693.19	288.74
693.52	288.19
693.86	287.51
694.20	286.81
694.53	286.22
694.87	285.45
695.21	284.77
695.54	284.19
695.88	283.51
696.21	282.72
696.55	282.07
696.88	281.41
697.22	280.77
697.56	280.24
697.89	279.61
698.23	279.04
698.56	278.35
698.90	277.92
699.23	277.33
699.57	276.78
699.90	276.22
700.24	275.62
700.58	275.13
700.91	274.83
701.25	274.57
701.58	274.40
701.92	274.13
702.25	273.71
702.59	273.18
702.92	272.87
703.26	272.49
703.59	272.06
703.93	272.04
704.26	271.70
704.60	271.31
704.93	270.85
705.26	270.42
705.60	270.19
705.93	269.65
706.27	269.39
706.60	269.12
706.94	268.91
707.27	268.49
707.61	268.12
707.94	267.63
708.27	266.93
708.61	266.14
708.94	265.62
709.28	265.21
709.61	264.82
709.94	264.45
710.28	264.02
710.61	263.76
710.95	262.98
711.28	262.94
711.61	262.42
711.95	262.24
712.28	261.86
712.61	261.46
712.95	261.36
713.28	261.20
713.61	260.68
713.95	260.18
714.28	259.84
714.61	259.46
714.95	259.07
715.28	258.69
715.61	258.34
715.95	258.10
716.28	257.74
716.61	257.56
716.95	257.20
717.28	256.95
717.61	256.48
717.94	256.16
718.28	255.43
718.61	255.15
718.94	254.73
719.27	254.48
719.61	254.27
719.94	253.87
720.27	253.33
720.60	253.16
720.94	252.96
721.27	252.84
721.60	252.69
721.93	252.50
722.27	252.50
722.60	252.42
722.93	252.15
723.26	252.00
723.59	251.71
723.93	251.56
724.26	251.35
724.59	251.20
724.92	251.05
725.25	251.04
725.59	250.84
725.92	250.76
726.25	250.57
726.58	250.41
726.91	250.27
727.24	250.23
727.57	250.04
727.91	249.77
728.24	249.55
728.57	249.30
728.90	249.24
729.23	248.92
729.56	248.96
729.89	248.79
730.22	248.55
730.55	248.29
730.89	248.05
731.22	247.87
731.55	247.70
731.88	247.51
732.21	247.32
732.54	247.17
732.87	246.96
733.20	246.82
733.53	246.63
733.86	246.43
734.19	246.17
734.52	246.10
734.85	246.29
735.18	246.02
735.51	246.05
735.84	245.76
736.17	245.72
736.50	245.28
736.83	245.70
737.16	245.58
737.49	245.50
737.82	245.29
738.15	245.18
738.48	244.99
738.81	244.79
739.14	244.44
739.47	244.25
739.80	244.12
740.13	244.01
740.46	243.77
740.79	243.53
741.12	243.34
741.45	243.08
741.78	242.60
742.11	242.59
742.44	242.20
742.77	242.13
743.10	241.95
743.43	241.76
743.75	241.06
744.08	241.55
744.41	241.31
744.74	241.17
745.07	240.99
745.40	240.99
745.73	241.09
746.06	241.09
746.39	241.02
746.71	240.80
747.04	240.58
747.37	240.48
747.70	240.44
748.03	240.32
748.36	240.27
748.68	240.16
749.01	239.91
749.34	239.83
749.67	239.69
750.00	239.62
750.33	239.92
750.65	239.78
750.98	238.98
751.31	238.95
751.64	238.85
751.97	238.94
752.29	238.80
752.62	238.50
752.95	238.39
753.28	238.24
753.60	238.15
753.93	238.25
754.26	238.20
754.59	237.98
754.91	237.84
755.24	237.69
755.57	237.55
755.90	237.46
756.22	237.35
756.55	237.19
756.88	236.95
757.20	236.45
757.53	236.32
757.86	236.30
758.19	236.20
758.51	236.14
758.84	235.84
759.17	235.74
759.49	235.71
759.82	235.77
760.15	235.72
760.47	235.66
760.80	235.36
761.13	235.35
761.45	235.24
761.78	235.13
762.11	235.04
762.43	234.99
762.76	234.88
763.08	234.82
763.41	234.82
763.74	234.87
764.06	234.83
764.39	234.73
764.71	234.60
765.04	234.48
765.37	234.35
765.69	234.23
766.02	234.12
766.34	234.02
766.67	233.76
767.00	233.77
767.32	233.88
767.65	234.06
767.97	233.92
768.30	233.89
768.62	233.90
768.95	233.78
769.27	233.77
769.60	233.84
769.92	233.73
770.25	233.56
770.57	233.35
770.90	233.26
771.22	233.10
771.55	233.11
771.87	233.11
772.20	233.06
772.52	233.45
772.85	233.97
773.17	233.83
773.50	233.80
773.82	233.68
774.15	233.45
774.47	233.20
774.80	233.06
775.12	232.97
775.45	232.89
775.77	232.91
776.09	232.93
776.42	232.80
776.74	232.92
777.07	232.89
777.39	232.89
777.72	232.81
778.04	232.89
778.36	232.83
778.69	232.84
779.01	232.83
779.33	232.31
779.66	231.69
779.98	231.69
780.31	231.71
780.63	231.91
780.95	231.85
781.28	231.79
781.60	231.74
781.92	231.68
782.25	231.62
782.57	231.57
782.89	231.41
783.22	231.37
783.54	231.22
783.86	231.25
784.19	231.16
784.51	231.34
784.83	231.28
785.16	231.19
785.48	231.06
785.80	231.05
786.12	231.07
786.45	231.02
786.77	230.97
787.09	230.81
787.42	230.54
787.74	230.65
788.06	230.55
788.38	230.54
788.71	230.47
789.03	230.47
789.35	230.49
789.67	230.44
789.99	230.41
790.32	230.38
790.64	230.37
790.96	230.77
791.28	230.54
791.61	230.48
791.93	230.46
792.25	230.46
792.57	230.78
792.89	230.67
793.21	230.73
793.54	230.72
793.86	230.68
794.18	230.73
794.50	230.60
794.82	230.65
795.14	230.70
795.47	230.77
795.79	230.73
796.11	230.66
796.43	230.58
796.75	230.59
797.07	230.47
797.39	230.38
797.71	229.97
798.04	230.03
798.36	230.02
798.68	230.00
799.00	229.97
799.32	229.65
799.64	229.70
799.96	229.68
800.28	229.63
800.60	229.65
800.92	229.63
801.24	229.52
801.56	229.51
801.89	229.44
802.21	229.47
802.53	229.44
802.85	229.48
803.17	229.69
803.49	229.54
803.81	229.59
804.13	229.59
804.45	229.49
804.77	229.46
805.09	229.40
805.41	229.40
805.73	229.32
806.05	229.19
806.37	229.16
806.69	229.09
807.01	229.09
807.33	229.06
807.65	228.93
807.97	229.16
808.28	229.10
808.60	229.05
808.92	228.97
809.24	229.23
809.56	229.09
809.88	228.97
810.20	228.96
810.52	229.01
810.84	228.85
811.16	228.84
811.48	228.77
811.80	228.93
812.12	228.83
812.43	228.92
812.75	228.88
813.07	228.92
813.39	228.88
813.71	228.87
814.03	228.80
814.35	228.69
814.67	228.47
814.98	228.41
815.30	228.38
815.62	228.30
815.94	227.97
816.26	228.21
816.58	228.06
816.89	228.04
817.21	227.86
817.53	227.95
817.85	227.98
818.17	227.93
818.48	227.78
818.80	227.90
819.12	227.76
819.44	227.70
819.76	227.64
820.07	227.65
820.39	227.60
820.71	227.60
821.03	227.69
821.34	227.62
821.66	227.69
821.98	227.78
822.30	227.78
822.61	228.05
822.93	227.80
823.25	227.73
823.57	227.78
823.88	227.90
824.20	227.87
824.52	227.91
824.83	227.92
825.15	227.82
825.47	227.75
825.79	227.83
826.10	227.83
826.42	227.76
826.74	227.75
827.05	227.68
827.37	227.71
827.69	227.66
828.00	227.70
828.32	227.73
828.64	227.67
828.95	227.89
829.27	227.74
829.58	227.78
829.90	227.90
830.22	227.94
830.53	227.83
830.85	227.78
831.17	227.66
831.48	227.69
831.80	227.76
832.11	227.81
832.43	227.75
832.75	227.81
833.06	228.07
833.38	227.91
833.69	227.98
834.01	227.97
834.32	227.98
834.64	227.93
834.96	227.90
835.27	227.88
835.59	227.68
835.90	227.66
836.22	227.55
836.53	227.41
836.85	227.32
837.16	227.82
837.48	227.85
837.79	228.02
838.11	227.96
838.42	228.02
838.74	227.90
839.05	227.81
839.37	227.72
839.68	227.42
840.00	227.48
840.31	227.48
840.63	227.45
840.94	227.34
841.26	227.28
841.57	227.24
841.88	227.22
842.20	227.18
842.51	227.08
842.83	227.06
843.14	227.56
843.46	227.61
843.77	227.30
844.08	227.28
844.40	227.15
844.71	227.17
845.03	227.07
845.34	227.10
845.65	227.07
845.97	227.09
846.28	227.16
846.60	227.08
846.91	227.00
847.22	226.96
847.54	227.08
847.85	227.12
848.16	227.08
848.48	226.99
848.79	227.19
849.10	227.21
849.42	227.30
849.73	226.82
850.04	226.80
850.36	226.64
850.67	226.70
850.98	226.61
851.30	226.63
851.61	226.58
851.92	226.62
852.23	226.77
852.55	226.86
852.86	226.75
853.17	226.90
853.49	226.96
853.80	227.09
854.11	227.08
854.42	227.14
854.74	227.02
855.05	227.05
855.36	226.79
855.67	226.77
855.99	226.79
856.30	227.32
856.61	227.25
856.92	227.26
857.23	227.22
857.55	227.22
857.86	227.18
858.17	227.28
858.48	227.17
858.79	227.06
859.11	227.06
859.42	227.11
859.73	226.99
860.04	227.00
860.35	226.81
860.66	226.77
860.98	226.76
861.29	226.84
861.60	226.86
861.91	226.95
862.22	226.97
862.53	226.84
862.84	226.33
863.16	226.52
863.47	226.42
863.78	226.40
864.09	226.46
864.40	226.51
864.71	226.44
865.02	226.55
865.33	226.53
865.64	226.42
865.95	226.37
866.27	226.75
866.58	226.73
866.89	226.86
867.20	226.81
867.51	226.72
867.82	226.78
868.13	226.95
868.44	226.82
868.75	226.89
869.06	226.92
869.37	226.95
869.68	226.78
869.99	226.91
870.30	226.91
870.61	226.92
870.92	226.88
871.23	226.96
871.54	226.99
871.85	227.11
872.16	227.23
872.47	227.27
872.78	226.97
873.09	226.98
873.40	226.95
873.71	227.00
874.02	226.99
874.33	226.89
874.64	226.75
874.95	226.88
875.26	226.73
875.56	226.72
875.87	226.71
876.18	226.70
876.49	227.17
876.80	227.19
877.11	227.20
877.42	227.23
877.73	227.21
878.04	227.18
878.35	227.22
878.66	227.18
878.96	227.16
879.27	227.10
879.58	227.06
879.89	227.01
880.20	227.12
880.51	227.18
880.82	227.23
881.12	227.23
881.43	227.11
881.74	227.04
882.05	227.05
882.36	227.05
882.67	227.04
882.97	226.51
883.28	226.47
883.59	226.39
883.90	226.44
884.21	226.50
884.51	226.41
884.82	226.34
885.13	226.40
885.44	226.38
885.74	226.43
886.05	226.40
886.36	226.42
886.67	226.30
886.98	226.45
887.28	226.50
887.59	226.52
887.90	226.59
888.20	226.59
888.51	226.64
888.82	226.53
889.13	226.56
889.43	226.89
889.74	226.89
890.05	226.81
890.35	226.75
890.66	226.61
890.97	226.60
891.28	226.49
891.58	226.48
891.89	226.50
892.20	226.42
892.50	226.35
892.81	226.34
893.12	226.31
893.42	226.09
893.73	226.06
894.04	226.03
894.34	226.03
894.65	226.08
894.95	226.02
895.26	226.08
895.57	226.28
895.87	225.84
896.18	225.90
896.48	225.99
896.79	225.95
897.10	226.05
897.40	226.06
897.71	226.05
898.01	226.00
898.32	226.03
898.63	226.10
898.93	226.22
899.24	226.25
899.54	226.23
899.85	226.21
900.15	226.19
900.46	226.18
900.76	226.23
901.07	226.19
901.38	226.29
901.68	226.34
901.99	226.11
902.29	226.25
902.60	226.18
902.90	226.16
903.21	226.13
903.51	226.15
903.82	226.21
904.12	226.26
904.43	226.23
904.73	226.22
905.03	226.21
905.34	226.62
905.64	226.56
905.95	226.57
906.25	226.59
906.56	226.63
906.86	226.66
907.17	226.69
907.47	226.72
907.77	226.59
908.08	226.50
908.38	226.56
908.69	226.50
908.99	226.62
909.30	226.64
909.60	226.70
909.90	226.68
910.21	226.57
910.51	226.55
910.81	226.61
911.12	226.59
911.42	226.60
911.73	226.13
912.03	226.12
912.33	226.23
912.64	226.23
912.94	226.15
913.24	226.08
913.55	226.00
913.85	226.02
914.15	226.20
914.46	226.30
914.76	226.27
915.06	226.35
915.37	226.25
915.67	226.25
915.97	226.27
916.27	226.18
916.58	226.24
916.88	226.24
917.18	226.18
917.49	226.55
917.79	226.54
918.09	226.67
918.39	226.84
918.70	226.80
919.00	226.84
919.30	227.06
919.60	227.01
919.91	227.01
920.21	226.97
920.51	226.84
920.81	226.84
921.12	226.90
921.42	226.80
921.72	226.90
922.02	226.94
922.32	226.96
922.63	226.95
922.93	227.18
923.23	227.18
923.53	227.19
923.83	226.90
924.13	226.94
924.44	226.87
924.74	226.93
925.04	227.12
925.34	227.14
925.64	227.01
925.94	227.07
926.24	227.35
926.55	227.39
926.85	227.44
927.15	227.40
927.45	227.41
927.75	227.43
928.05	227.38
928.35	227.29
928.65	227.35
928.95	227.38
929.26	227.20
929.56	227.30
929.86	227.34
930.16	227.32
930.46	227.23
930.76	227.28
931.06	227.04
931.36	226.83
931.66	226.90
931.96	226.92
932.26	226.92
932.56	226.69
932.86	226.74
933.16	226.75
933.46	226.73
933.76	226.63
934.06	226.75
934.36	226.91
934.66	226.87
934.96	226.85
935.26	226.91
935.56	226.91
935.86	226.74
936.16	226.63
936.46	226.52
936.76	226.47
937.06	226.34
937.36	226.43
937.66	226.43
937.96	226.39
938.26	226.29
938.56	226.28
938.86	226.28
939.16	226.31
939.46	226.37
939.76	226.37
940.06	226.36
940.35	226.22
940.65	225.99
940.95	226.04
941.25	225.94
941.55	225.93
941.85	225.89
942.15	226.09
942.45	226.30
942.75	226.34
943.04	226.37
943.34	226.52
943.64	226.41
943.94	226.35
944.24	226.32
944.54	226.35
944.84	226.35
945.13	226.26
945.43	226.18
945.73	226.15
946.03	226.11
946.33	226.07
946.62	226.14
946.92	226.13
947.22	226.17
947.52	226.19
947.82	226.22
948.11	226.21
948.41	226.05
948.71	225.88
949.01	225.92
949.31	225.93
949.60	225.89
949.90	225.99
950.20	226.01
950.50	226.00
950.79	225.94
951.09	225.97
951.39	226.03
951.69	225.98
951.98	226.01
952.28	226.00
952.58	226.02
952.87	225.98
953.17	226.04
953.47	226.00
953.76	225.94
954.06	225.80
954.36	225.67
954.66	225.72
954.95	225.82
955.25	225.81
955.55	225.82
955.84	225.79
956.14	225.83
956.44	225.80
956.73	225.74
957.03	225.83
957.32	225.81
957.62	225.74
957.92	225.83
958.21	225.82
958.51	226.40
958.81	226.45
959.10	226.43
959.40	226.53
959.69	226.60
959.99	226.66
960.29	226.73
960.58	226.78
960.88	226.90
961.17	226.85
961.47	226.96
961.76	226.90
962.06	226.93
962.36	226.84
962.65	226.88
962.95	226.90
963.24	226.82
963.54	226.89
963.83	226.94
964.13	226.94
964.42	226.78
964.72	226.33
965.01	226.38
965.31	226.40
965.60	226.36
965.90	226.70
966.19	226.65
966.49	226.66
966.78	226.63
967.08	226.60
967.37	226.65
967.67	226.45
967.96	226.57
968.26	226.56
968.55	226.66
968.85	226.61
969.14	226.64
969.43	226.67
969.73	226.62
970.02	226.57
970.32	226.50
970.61	226.60
970.91	226.55
971.20	226.46
971.49	226.44
971.79	226.48
972.08	226.08
972.38	226.12
972.67	226.12
972.96	226.21
973.26	226.15
973.55	226.28
973.85	226.37
974.14	226.32
974.43	226.38
974.73	226.32
975.02	226.35
975.31	226.38
975.61	226.35
975.90	226.34
976.19	226.38
976.49	226.44
976.78	226.46
977.07	226.50
977.37	226.55
977.66	226.58
977.95	226.50
978.24	226.54
978.54	226.64
978.83	226.63
979.12	226.60
979.42	226.60
979.71	226.52
980.00	226.46
980.29	226.50
980.59	226.43
980.88	226.52
981.17	226.61
981.46	226.57
981.76	226.59
982.05	226.68
982.34	226.67
982.63	226.70
982.93	226.61
983.22	226.76
983.51	226.76
983.80	226.78
984.09	226.87
984.39	226.85
984.68	226.78
984.97	226.77
985.26	226.79
985.55	226.87
985.85	226.74
986.14	226.85
986.43	226.91
986.72	226.90
987.01	226.76
987.30	226.66
987.59	226.67
987.89	226.71
988.18	226.62
988.47	226.55
988.76	226.50
989.05	226.50
989.34	226.38
989.63	226.55
989.92	226.49
990.22	226.39
990.51	226.38
990.80	226.31
991.09	226.35
991.38	226.39
991.67	226.31
991.96	226.31
992.25	226.20
992.54	226.13
992.83	226.12
993.12	226.09
993.41	226.19
993.70	226.34
993.99	226.43
994.28	226.45
994.58	226.50
994.87	226.38
995.16	226.37
995.45	226.27
995.74	226.04
996.03	226.08
996.32	226.11
996.61	226.18
996.90	226.28
997.19	226.26
997.48	226.30
997.77	226.23
998.06	226.24
998.34	226.26
998.63	226.25
998.92	226.28
999.21	226.34
999.50	226.28
999.79	226.12
1000.08	226.09
1000.37	226.05
1000.66	226.05
1000.95	226.25
1001.24	226.33
1001.53	226.40
1001.82	226.38
1002.11	226.33
1002.40	226.41
1002.68	226.54
1002.97	226.75
1003.26	226.75
1003.55	226.61
1003.84	226.66
1004.13	226.89
1004.42	226.81
1004.71	226.83
1004.99	226.81
1005.28	226.96
1005.57	227.03
1005.86	226.96
1006.15	226.85
1006.44	226.86
1006.72	226.87
1007.01	226.80
1007.30	226.76
1007.59	226.78
1007.88	226.82
1008.17	226.87
1008.45	226.79
1008.74	226.55
1009.03	226.42
1009.32	226.43
1009.60	226.47
1009.89	226.52
1010.18	226.33
1010.47	226.44
1010.76	226.46
1011.04	226.46
1011.33	226.50
1011.62	226.50
1011.91	226.59
1012.19	226.67
1012.48	226.68
1012.77	226.71
1013.05	226.88
1013.34	226.92
1013.63	226.86
1013.92	226.90
1014.20	226.84
1014.49	226.86
1014.78	226.96
1015.06	226.73
1015.35	226.72
1015.64	226.80
1015.92	226.76
1016.21	226.76
1016.50	226.75
1016.78	226.75
1017.07	226.80
1017.36	226.67
1017.64	226.57
1017.93	226.63
1018.22	226.62
1018.50	226.61
1018.79	226.51
1019.08	226.30
1019.36	226.32
1019.65	226.21
1019.93	226.28
1020.22	226.34
1020.51	226.55
1020.79	226.50
1021.08	226.55
1021.36	225.95
1021.65	224.50
1021.94	225.40
1022.22	227.30
1022.51	223.95
1022.79	227.75
1023.08	226.40
1023.36	232.00
1023.65	225.45
>>>>>End Processed Spectral Data<<<<<
