SpectraSuite Data File
++++++++++++++++++++++++++++++++++++
Date: Wed Sep 04 18:04:31 EDT 2013
User: lab3
Dark Spectrum Present: Yes
Reference Spectrum Present: No
Number of Sampled Component Spectra: 1
Spectrometers: USB2E7196
Integration Time (usec): 170000 (USB2E7196)
Spectra Averaged: 20 (USB2E7196)
Boxcar Smoothing: 10 (USB2E7196)
Correct for Electrical Dark: No (USB2E7196)
Strobe/Lamp Enabled: No (USB2E7196)
Correct for Detector Non-linearity: No (USB2E7196)
Correct for Stray Light: No (USB2E7196)
Number of Pixels in Processed Spectrum: 2048
>>>>>Begin Processed Spectral Data<<<<<
339.09	0.00
339.48	212.65
339.86	215.50
340.24	216.20
340.63	218.00
341.01	225.75
341.39	220.25
341.78	222.75
342.16	223.40
342.54	224.45
342.93	212.59
343.31	223.31
343.69	223.90
344.07	224.38
344.46	224.89
344.84	225.35
345.22	225.31
345.60	225.61
345.99	225.86
346.37	226.00
346.75	226.04
347.13	226.18
347.52	226.28
347.90	226.52
348.28	226.48
348.66	226.68
349.05	226.55
349.43	226.62
349.81	226.67
350.19	226.72
350.57	226.76
350.96	226.89
351.34	226.97
351.72	227.07
352.10	227.10
352.48	227.15
352.87	227.17
353.25	227.25
353.63	227.23
354.01	227.25
354.39	227.30
354.77	227.37
355.15	227.52
355.54	227.52
355.92	227.46
356.30	227.58
356.68	227.91
357.06	227.98
357.44	227.95
357.82	228.00
358.20	228.43
358.58	228.54
358.97	228.58
359.35	228.65
359.73	228.79
360.11	228.84
360.49	228.84
360.87	228.87
361.25	229.02
361.63	229.21
362.01	229.24
362.39	229.28
362.77	229.46
363.15	229.51
363.53	229.56
363.91	229.61
364.29	229.65
364.67	229.22
365.05	229.24
365.43	229.42
365.81	229.48
366.19	229.37
366.57	229.60
366.95	229.60
367.33	229.60
367.71	229.62
368.09	229.71
368.47	229.76
368.85	229.73
369.23	229.76
369.61	229.70
369.99	229.88
370.37	229.93
370.75	230.07
371.13	229.94
371.51	229.84
371.89	229.87
372.27	229.94
372.65	229.93
373.03	229.94
373.41	229.83
373.78	229.83
374.16	229.56
374.54	229.36
374.92	229.35
375.30	229.37
375.68	229.23
376.06	229.21
376.44	229.12
376.82	229.13
377.19	229.05
377.57	228.95
377.95	228.66
378.33	228.54
378.71	228.21
379.09	228.19
379.47	228.15
379.84	228.07
380.22	227.89
380.60	227.77
380.98	227.75
381.36	227.64
381.73	227.50
382.11	227.43
382.49	227.33
382.87	227.20
383.25	227.11
383.62	227.60
384.00	227.49
384.38	227.42
384.76	227.45
385.13	227.58
385.51	227.49
385.89	227.47
386.27	227.51
386.64	227.56
387.02	227.52
387.40	227.58
387.78	227.63
388.15	227.63
388.53	227.56
388.91	227.49
389.29	227.44
389.66	227.47
390.04	227.41
390.42	227.46
390.79	227.44
391.17	227.40
391.55	226.85
391.92	226.80
392.30	226.86
392.68	226.76
393.05	226.75
393.43	226.86
393.81	226.91
394.18	226.81
394.56	226.84
394.94	226.96
395.31	226.88
395.69	226.94
396.06	227.01
396.44	227.15
396.82	227.20
397.19	227.47
397.57	227.47
397.95	227.65
398.32	227.63
398.70	227.80
399.07	227.91
399.45	228.03
399.82	228.13
400.20	228.15
400.58	228.25
400.95	228.16
401.33	228.32
401.70	228.69
402.08	228.82
402.45	228.95
402.83	229.18
403.20	229.34
403.58	229.45
403.95	229.70
404.33	229.87
404.71	230.09
405.08	230.52
405.46	230.73
405.83	231.00
406.21	231.22
406.58	231.45
406.96	231.74
407.33	232.00
407.70	232.36
408.08	233.16
408.45	233.55
408.83	234.00
409.20	234.34
409.58	234.54
409.95	235.10
410.33	235.61
410.70	236.00
411.08	236.67
411.45	237.30
411.82	237.80
412.20	238.60
412.57	239.62
412.95	240.04
413.32	240.93
413.69	241.76
414.07	242.82
414.44	243.84
414.82	244.90
415.19	246.16
415.56	247.34
415.94	248.29
416.31	249.74
416.68	251.26
417.06	252.95
417.43	254.61
417.81	256.45
418.18	258.28
418.55	260.23
418.93	262.23
419.30	264.33
419.67	266.68
420.04	269.00
420.42	271.18
420.79	274.27
421.16	277.10
421.54	280.11
421.91	283.02
422.28	286.12
422.66	289.37
423.03	292.87
423.40	296.30
423.77	300.00
424.15	303.62
424.52	307.44
424.89	311.59
425.26	315.50
425.64	319.27
426.01	323.48
426.38	327.85
426.75	332.42
427.13	336.96
427.50	341.64
427.87	346.50
428.24	351.54
428.61	356.04
428.99	361.28
429.36	366.81
429.73	372.39
430.10	377.98
430.47	383.89
430.85	389.52
431.22	395.60
431.59	402.29
431.96	408.56
432.33	415.47
432.70	422.09
433.08	430.11
433.45	437.63
433.82	445.07
434.19	453.27
434.56	461.42
434.93	469.19
435.30	477.15
435.68	485.79
436.05	494.35
436.42	502.72
436.79	510.50
437.16	518.98
437.53	527.85
437.90	536.62
438.27	545.01
438.64	554.01
439.01	562.63
439.38	569.92
439.75	577.20
440.13	585.46
440.50	593.09
440.87	599.11
441.24	605.38
441.61	612.31
441.98	617.54
442.35	623.43
442.72	629.50
443.09	635.12
443.46	638.60
443.83	640.80
444.20	642.80
444.57	645.50
444.94	646.66
445.31	647.69
445.68	649.02
446.05	649.11
446.42	647.63
446.79	646.05
447.16	644.43
447.53	643.12
447.90	639.17
448.27	635.61
448.64	630.75
449.01	627.09
449.37	620.96
449.74	614.83
450.11	608.00
450.48	600.19
450.85	592.31
451.22	585.34
451.59	578.85
451.96	572.53
452.33	564.39
452.70	556.70
453.07	548.05
453.43	538.89
453.80	530.52
454.17	522.56
454.54	514.78
454.91	506.58
455.28	498.45
455.65	491.09
456.02	484.09
456.38	477.63
456.75	469.93
457.12	463.30
457.49	456.90
457.86	450.42
458.23	445.28
458.59	439.65
458.96	433.90
459.33	428.65
459.70	423.50
460.07	419.50
460.43	414.93
460.80	410.48
461.17	406.59
461.54	402.62
461.91	398.82
462.27	394.97
462.64	391.65
463.01	388.26
463.38	384.83
463.74	380.73
464.11	377.87
464.48	375.10
464.85	372.30
465.21	370.21
465.58	367.82
465.95	364.94
466.32	362.52
466.68	360.36
467.05	358.17
467.42	356.01
467.78	353.54
468.15	351.39
468.52	349.93
468.88	347.84
469.25	345.92
469.62	344.46
469.98	342.86
470.35	341.38
470.72	339.82
471.08	338.26
471.45	337.11
471.82	335.74
472.18	334.41
472.55	333.35
472.92	331.97
473.28	330.87
473.65	329.71
474.02	328.70
474.38	327.71
474.75	326.92
475.11	326.04
475.48	325.46
475.85	324.77
476.21	324.02
476.58	323.56
476.94	323.15
477.31	322.62
477.67	322.24
478.04	321.76
478.41	321.47
478.77	321.57
479.14	321.20
479.50	321.05
479.87	321.01
480.23	321.04
480.60	321.02
480.96	321.10
481.33	321.54
481.69	321.79
482.06	322.02
482.42	322.19
482.79	322.53
483.15	322.88
483.52	323.55
483.88	324.02
484.25	324.55
484.61	325.27
484.98	325.95
485.34	326.83
485.71	327.79
486.07	328.78
486.44	329.37
486.80	330.50
487.17	331.60
487.53	332.93
487.90	334.35
488.26	336.02
488.62	337.58
488.99	339.07
489.35	340.72
489.72	342.60
490.08	344.69
490.44	346.71
490.81	349.12
491.17	351.36
491.54	353.88
491.90	356.46
492.26	359.14
492.63	361.98
492.99	364.80
493.36	367.93
493.72	371.33
494.08	374.81
494.45	378.53
494.81	382.48
495.17	386.36
495.54	390.50
495.90	394.75
496.26	399.33
496.63	404.02
496.99	408.86
497.35	413.94
497.72	419.19
498.08	424.71
498.44	430.14
498.80	436.13
499.17	442.19
499.53	448.40
499.89	455.02
500.26	461.79
500.62	468.87
500.98	476.28
501.34	483.66
501.71	491.35
502.07	499.21
502.43	507.33
502.79	515.71
503.16	524.35
503.52	533.44
503.88	542.63
504.24	552.36
504.60	562.44
504.97	572.68
505.33	583.17
505.69	594.22
506.05	605.45
506.41	616.61
506.78	628.42
507.14	640.65
507.50	652.94
507.86	665.62
508.22	678.58
508.59	691.64
508.95	705.24
509.31	719.52
509.67	733.73
510.03	748.11
510.39	763.02
510.75	778.22
511.12	793.40
511.48	808.88
511.84	824.40
512.20	840.36
512.56	856.95
512.92	873.50
513.28	890.37
513.64	907.64
514.00	925.35
514.37	943.02
514.73	961.23
515.09	979.44
515.45	997.80
515.81	1016.33
516.17	1034.97
516.53	1053.85
516.89	1072.55
517.25	1092.21
517.61	1112.51
517.97	1132.68
518.33	1152.97
518.69	1173.54
519.05	1194.42
519.41	1215.43
519.77	1236.63
520.13	1257.48
520.49	1278.42
520.85	1300.86
521.21	1322.05
521.57	1343.51
521.93	1364.63
522.29	1385.90
522.65	1407.02
523.01	1428.25
523.37	1448.99
523.73	1470.26
524.09	1491.17
524.45	1512.15
524.81	1533.14
525.17	1553.65
525.53	1574.33
525.89	1595.18
526.25	1615.99
526.61	1636.41
526.97	1657.32
527.33	1678.53
527.68	1700.28
528.04	1721.66
528.40	1741.35
528.76	1762.53
529.12	1782.80
529.48	1803.33
529.84	1823.12
530.20	1844.17
530.56	1864.75
530.91	1885.76
531.27	1906.53
531.63	1927.08
531.99	1947.64
532.35	1967.69
532.71	1988.23
533.07	2009.08
533.42	2028.86
533.78	2048.72
534.14	2068.84
534.50	2088.25
534.86	2107.68
535.21	2125.35
535.57	2143.76
535.93	2161.66
536.29	2179.45
536.65	2197.78
537.00	2215.72
537.36	2233.64
537.72	2250.14
538.08	2267.59
538.44	2284.53
538.79	2300.80
539.15	2317.35
539.51	2333.28
539.87	2348.52
540.22	2362.99
540.58	2377.40
540.94	2391.19
541.29	2404.03
541.65	2416.51
542.01	2429.52
542.37	2439.93
542.72	2451.03
543.08	2462.10
543.44	2473.69
543.79	2484.06
544.15	2494.22
544.51	2504.17
544.87	2514.13
545.22	2523.01
545.58	2531.01
545.94	2538.29
546.29	2545.15
546.65	2551.80
547.01	2557.76
547.36	2563.68
547.72	2569.16
548.07	2573.15
548.43	2578.47
548.79	2583.27
549.14	2587.67
549.50	2590.90
549.86	2595.57
550.21	2599.58
550.57	2602.92
550.92	2604.47
551.28	2605.77
551.64	2608.15
551.99	2610.60
552.35	2612.35
552.70	2614.55
553.06	2616.37
553.41	2617.84
553.77	2619.64
554.13	2621.44
554.48	2623.18
554.84	2624.74
555.19	2625.89
555.55	2627.83
555.90	2627.22
556.26	2626.47
556.61	2625.25
556.97	2623.71
557.32	2622.83
557.68	2622.04
558.03	2620.66
558.39	2619.51
558.74	2619.05
559.10	2616.06
559.45	2612.49
559.81	2608.30
560.16	2603.77
560.52	2598.83
560.87	2594.65
561.23	2589.24
561.58	2582.99
561.94	2575.95
562.29	2568.35
562.64	2561.59
563.00	2553.30
563.35	2546.52
563.71	2540.20
564.06	2533.95
564.42	2527.30
564.77	2520.49
565.12	2512.28
565.48	2504.65
565.83	2497.03
566.19	2489.03
566.54	2481.23
566.89	2472.89
567.25	2465.00
567.60	2457.61
567.96	2450.26
568.31	2441.99
568.66	2433.26
569.02	2424.27
569.37	2416.13
569.72	2408.58
570.08	2398.86
570.43	2389.45
570.78	2380.99
571.14	2371.60
571.49	2361.31
571.84	2352.12
572.20	2340.87
572.55	2331.07
572.90	2320.17
573.26	2309.85
573.61	2298.21
573.96	2287.05
574.31	2275.25
574.67	2263.16
575.02	2250.35
575.37	2237.31
575.72	2223.92
576.08	2211.75
576.43	2199.41
576.78	2186.25
577.13	2172.47
577.49	2159.96
577.84	2148.04
578.19	2135.31
578.54	2122.52
578.90	2110.48
579.25	2097.88
579.60	2085.73
579.95	2072.56
580.30	2059.33
580.66	2045.32
581.01	2031.91
581.36	2017.60
581.71	2004.68
582.06	1991.78
582.42	1978.99
582.77	1966.26
583.12	1954.53
583.47	1942.16
583.82	1929.95
584.17	1918.14
584.53	1906.13
584.88	1893.11
585.23	1879.83
585.58	1865.57
585.93	1852.19
586.28	1838.36
586.63	1823.93
586.98	1809.60
587.34	1796.33
587.69	1783.05
588.04	1770.62
588.39	1758.47
588.74	1746.19
589.09	1734.15
589.44	1721.09
589.79	1709.10
590.14	1697.20
590.49	1684.85
590.84	1672.59
591.19	1660.31
591.54	1647.95
591.89	1635.83
592.25	1625.52
592.60	1614.21
592.95	1602.94
593.30	1591.23
593.65	1579.54
594.00	1567.53
594.35	1557.65
594.70	1545.78
595.05	1534.45
595.40	1522.17
595.75	1510.05
596.10	1498.82
596.45	1487.19
596.80	1476.47
597.15	1464.72
597.50	1452.82
597.85	1441.32
598.19	1429.72
598.54	1418.04
598.89	1406.44
599.24	1395.71
599.59	1383.89
599.94	1372.75
600.29	1362.07
600.64	1351.22
600.99	1340.40
601.34	1330.96
601.69	1319.70
602.04	1309.67
602.39	1299.89
602.74	1290.70
603.08	1281.38
603.43	1272.16
603.78	1262.37
604.13	1252.76
604.48	1242.99
604.83	1233.26
605.18	1223.43
605.53	1213.78
605.87	1204.62
606.22	1196.05
606.57	1186.76
606.92	1177.30
607.27	1168.15
607.62	1159.43
607.96	1150.77
608.31	1142.72
608.66	1134.15
609.01	1125.30
609.36	1116.86
609.70	1108.17
610.05	1099.42
610.40	1090.79
610.75	1081.83
611.10	1073.39
611.44	1064.53
611.79	1056.26
612.14	1048.30
612.49	1040.24
612.83	1032.92
613.18	1025.04
613.53	1017.06
613.88	1008.88
614.22	1001.17
614.57	993.22
614.92	985.29
615.27	977.68
615.61	969.92
615.96	962.18
616.31	954.68
616.65	947.34
617.00	939.74
617.35	932.47
617.70	925.23
618.04	918.08
618.39	911.15
618.74	904.67
619.08	897.84
619.43	890.57
619.78	883.42
620.12	876.21
620.47	869.10
620.82	862.01
621.16	855.18
621.51	848.85
621.85	842.49
622.20	835.68
622.55	828.89
622.89	822.09
623.24	815.52
623.59	809.26
623.93	803.00
624.28	796.99
624.62	791.29
624.97	785.35
625.32	779.49
625.66	773.26
626.01	767.05
626.35	761.40
626.70	755.92
627.04	750.74
627.39	744.91
627.73	739.59
628.08	734.40
628.43	728.95
628.77	723.27
629.12	717.99
629.46	713.12
629.81	708.45
630.15	703.81
630.50	698.98
630.84	694.02
631.19	689.24
631.53	684.46
631.88	679.11
632.22	674.20
632.57	669.79
632.91	665.21
633.26	660.72
633.60	655.97
633.95	651.20
634.29	646.22
634.64	641.92
634.98	637.26
635.32	632.81
635.67	628.78
636.01	624.50
636.36	620.08
636.70	616.01
637.05	611.81
637.39	607.65
637.73	603.54
638.08	599.33
638.42	594.98
638.77	590.65
639.11	586.36
639.45	582.08
639.80	577.51
640.14	573.40
640.49	569.39
640.83	565.64
641.17	562.00
641.52	558.45
641.86	554.81
642.20	551.52
642.55	547.68
642.89	544.06
643.23	540.51
643.58	537.32
643.92	533.56
644.26	530.05
644.61	526.75
644.95	523.23
645.29	519.88
645.64	516.73
645.98	513.73
646.32	510.75
646.66	507.72
647.01	504.82
647.35	502.02
647.69	499.15
648.04	496.24
648.38	493.32
648.72	490.31
649.06	487.27
649.41	484.23
649.75	481.30
650.09	478.39
650.43	475.58
650.78	472.54
651.12	469.65
651.46	466.81
651.80	463.98
652.14	461.27
652.49	458.74
652.83	456.17
653.17	453.41
653.51	450.76
653.85	448.28
654.20	445.81
654.54	443.05
654.88	440.45
655.22	437.99
655.56	435.50
655.90	433.10
656.25	430.73
656.59	428.36
656.93	426.23
657.27	424.14
657.61	421.65
657.95	419.53
658.29	417.34
658.64	415.32
658.98	413.07
659.32	410.89
659.66	408.64
660.00	406.40
660.34	404.34
660.68	402.18
661.02	400.05
661.36	397.95
661.70	396.12
662.05	394.17
662.39	392.32
662.73	390.51
663.07	388.87
663.41	386.96
663.75	385.04
664.09	383.09
664.43	380.98
664.77	379.31
665.11	377.53
665.45	375.96
665.79	374.26
666.13	372.54
666.47	370.83
666.81	369.15
667.15	367.39
667.49	365.87
667.83	364.57
668.17	363.06
668.51	361.54
668.85	360.10
669.19	358.93
669.53	357.30
669.87	355.73
670.21	354.22
670.55	352.90
670.89	351.76
671.23	350.44
671.57	349.07
671.91	347.80
672.25	346.46
672.58	345.21
672.92	343.65
673.26	342.40
673.60	341.23
673.94	340.02
674.28	338.97
674.62	337.81
674.96	336.38
675.30	335.30
675.64	334.03
675.97	332.82
676.31	331.43
676.65	330.22
676.99	329.28
677.33	328.02
677.67	326.87
678.01	325.67
678.34	324.57
678.68	323.62
679.02	322.54
679.36	321.54
679.70	320.43
680.04	319.53
680.37	318.62
680.71	317.62
681.05	316.72
681.39	315.75
681.73	314.73
682.06	313.78
682.40	312.96
682.74	312.17
683.08	311.45
683.42	310.49
683.75	309.80
684.09	308.82
684.43	308.02
684.77	307.13
685.10	306.25
685.44	305.51
685.78	304.72
686.12	303.87
686.45	303.09
686.79	302.35
687.13	301.71
687.46	300.85
687.80	300.22
688.14	299.40
688.48	298.64
688.81	297.98
689.15	297.54
689.49	296.65
689.82	296.02
690.16	295.04
690.50	294.44
690.83	293.69
691.17	292.97
691.51	292.26
691.84	291.73
692.18	291.00
692.52	290.29
692.85	289.68
693.19	289.23
693.52	288.46
693.86	287.74
694.20	287.08
694.53	286.54
694.87	285.90
695.21	285.29
695.54	284.65
695.88	283.92
696.21	283.10
696.55	282.54
696.88	281.84
697.22	281.27
697.56	280.70
697.89	280.12
698.23	279.63
698.56	279.13
698.90	278.61
699.23	278.10
699.57	277.52
699.90	276.90
700.24	276.24
700.58	275.92
700.91	275.57
701.25	275.41
701.58	275.23
701.92	274.81
702.25	274.33
702.59	273.89
702.92	273.57
703.26	273.16
703.59	272.69
703.93	272.63
704.26	272.28
704.60	271.85
704.93	271.34
705.26	270.79
705.60	270.40
705.93	269.83
706.27	269.50
706.60	269.28
706.94	269.12
707.27	268.76
707.61	268.32
707.94	267.87
708.27	267.06
708.61	266.27
708.94	265.78
709.28	265.41
709.61	264.99
709.94	264.51
710.28	264.16
710.61	263.88
710.95	263.08
711.28	263.03
711.61	262.65
711.95	262.46
712.28	262.09
712.61	261.83
712.95	261.75
713.28	261.67
713.61	261.25
713.95	260.76
714.28	260.40
714.61	259.93
714.95	259.58
715.28	259.27
715.61	258.90
715.95	258.59
716.28	258.22
716.61	257.98
716.95	257.64
717.28	257.26
717.61	256.91
717.94	256.62
718.28	256.03
718.61	255.70
718.94	255.29
719.27	255.09
719.61	254.77
719.94	254.41
720.27	253.84
720.60	253.53
720.94	253.29
721.27	253.03
721.60	252.95
721.93	252.71
722.27	252.62
722.60	252.57
722.93	252.30
723.26	252.14
723.59	251.84
723.93	251.71
724.26	251.62
724.59	251.34
724.92	251.20
725.25	251.07
725.59	250.91
725.92	250.84
726.25	250.66
726.58	250.49
726.91	250.25
727.24	250.17
727.57	250.02
727.91	249.70
728.24	249.58
728.57	249.27
728.90	249.17
729.23	248.83
729.56	248.80
729.89	248.66
730.22	248.48
730.55	248.30
730.89	248.08
731.22	247.87
731.55	247.65
731.88	247.48
732.21	247.23
732.54	246.97
732.87	246.83
733.20	246.67
733.53	246.51
733.86	246.32
734.19	245.97
734.52	245.90
734.85	246.00
735.18	245.75
735.51	245.74
735.84	245.55
736.17	245.56
736.50	245.17
736.83	245.55
737.16	245.39
737.49	245.33
737.82	245.18
738.15	245.08
738.48	245.04
738.81	244.92
739.14	244.73
739.47	244.60
739.80	244.42
740.13	244.21
740.46	244.02
740.79	243.86
741.12	243.82
741.45	243.58
741.78	243.28
742.11	243.31
742.44	243.05
742.77	242.93
743.10	242.73
743.43	242.58
743.75	241.94
744.08	242.47
744.41	242.36
744.74	242.18
745.07	241.92
745.40	241.83
745.73	241.87
746.06	241.78
746.39	241.69
746.71	241.45
747.04	241.37
747.37	241.14
747.70	241.15
748.03	241.01
748.36	240.95
748.68	240.82
749.01	240.57
749.34	240.42
749.67	240.34
750.00	240.28
750.33	240.55
750.65	240.46
750.98	239.70
751.31	239.49
751.64	239.48
751.97	239.67
752.29	239.48
752.62	239.12
752.95	238.97
753.28	238.81
753.60	238.74
753.93	238.75
754.26	238.74
754.59	238.45
754.91	238.35
755.24	238.26
755.57	238.09
755.90	237.91
756.22	237.83
756.55	237.58
756.88	237.40
757.20	236.90
757.53	236.66
757.86	236.58
758.19	236.56
758.51	236.47
758.84	236.12
759.17	236.02
759.49	235.97
759.82	236.10
760.15	236.13
760.47	235.98
760.80	235.75
761.13	235.69
761.45	235.66
761.78	235.56
762.11	235.45
762.43	235.37
762.76	235.34
763.08	235.34
763.41	235.35
763.74	235.29
764.06	235.17
764.39	235.20
764.71	235.09
765.04	234.95
765.37	234.78
765.69	234.69
766.02	234.60
766.34	234.50
766.67	234.21
767.00	234.20
767.32	234.41
767.65	234.60
767.97	234.51
768.30	234.42
768.62	234.36
768.95	234.28
769.27	234.23
769.60	234.33
769.92	234.21
770.25	234.03
770.57	233.85
770.90	233.88
771.22	233.68
771.55	233.69
771.87	233.57
772.20	233.54
772.52	233.90
772.85	234.40
773.17	234.31
773.50	234.27
773.82	234.08
774.15	233.81
774.47	233.49
774.80	233.39
775.12	233.33
775.45	233.28
775.77	233.21
776.09	233.19
776.42	233.06
776.74	233.18
777.07	233.16
777.39	233.14
777.72	233.01
778.04	233.13
778.36	233.04
778.69	233.04
779.01	233.01
779.33	232.60
779.66	232.05
779.98	232.02
780.31	231.98
780.63	232.21
780.95	232.26
781.28	232.27
781.60	232.25
781.92	232.21
782.25	232.12
782.57	232.09
782.89	232.06
783.22	231.99
783.54	231.80
783.86	231.83
784.19	231.75
784.51	231.93
784.83	231.82
785.16	231.74
785.48	231.73
785.80	231.68
786.12	231.62
786.45	231.59
786.77	231.56
787.09	231.56
787.42	231.28
787.74	231.18
788.06	231.16
788.38	231.05
788.71	230.91
789.03	230.92
789.35	230.97
789.67	230.83
789.99	230.82
790.32	230.72
790.64	230.72
790.96	231.08
791.28	230.82
791.61	230.70
791.93	230.72
792.25	230.72
792.57	231.04
792.89	230.97
793.21	230.99
793.54	230.95
793.86	230.81
794.18	230.77
794.50	230.67
794.82	230.58
795.14	230.68
795.47	230.78
795.79	230.74
796.11	230.58
796.43	230.52
796.75	230.49
797.07	230.53
797.39	230.51
797.71	230.18
798.04	230.23
798.36	230.25
798.68	230.21
799.00	230.18
799.32	229.99
799.64	230.04
799.96	229.98
800.28	230.09
800.60	230.00
800.92	230.09
801.24	230.05
801.56	230.16
801.89	230.06
802.21	230.13
802.53	230.05
802.85	230.15
803.17	230.37
803.49	230.23
803.81	230.14
804.13	230.10
804.45	230.01
804.77	230.02
805.09	230.04
805.41	229.97
805.73	229.85
806.05	229.74
806.37	229.74
806.69	229.68
807.01	229.55
807.33	229.73
807.65	229.51
807.97	229.76
808.28	229.63
808.60	229.60
808.92	229.51
809.24	229.80
809.56	229.73
809.88	229.65
810.20	229.76
810.52	229.88
810.84	229.75
811.16	229.72
811.48	229.64
811.80	229.87
812.12	229.90
812.43	229.99
812.75	229.92
813.07	229.82
813.39	229.88
813.71	229.83
814.03	229.73
814.35	229.83
814.67	229.62
814.98	229.53
815.30	229.59
815.62	229.50
815.94	229.16
816.26	229.32
816.58	229.09
816.89	229.06
817.21	228.97
817.53	229.00
817.85	229.00
818.17	228.98
818.48	228.73
818.80	228.81
819.12	228.78
819.44	228.71
819.76	228.67
820.07	228.62
820.39	228.66
820.71	228.60
821.03	228.62
821.34	228.55
821.66	228.67
821.98	228.66
822.30	228.65
822.61	228.92
822.93	228.69
823.25	228.69
823.57	228.70
823.88	228.73
824.20	228.70
824.52	228.80
824.83	228.79
825.15	228.71
825.47	228.64
825.79	228.64
826.10	228.60
826.42	228.59
826.74	228.59
827.05	228.50
827.37	228.51
827.69	228.36
828.00	228.34
828.32	228.27
828.64	228.11
828.95	228.31
829.27	228.14
829.58	228.06
829.90	228.13
830.22	228.08
830.53	227.94
830.85	227.83
831.17	227.66
831.48	227.62
831.80	227.55
832.11	227.49
832.43	227.40
832.75	227.39
833.06	227.66
833.38	227.54
833.69	227.50
834.01	227.49
834.32	227.49
834.64	227.46
834.96	227.34
835.27	227.37
835.59	227.17
835.90	227.13
836.22	227.10
836.53	227.02
836.85	226.96
837.16	227.38
837.48	227.44
837.79	227.55
838.11	227.57
838.42	227.63
838.74	227.62
839.05	227.53
839.37	227.51
839.68	227.16
840.00	227.12
840.31	227.23
840.63	227.24
840.94	227.22
841.26	227.25
841.57	227.33
841.88	227.40
842.20	227.42
842.51	227.31
842.83	227.30
843.14	227.67
843.46	227.65
843.77	227.37
844.08	227.37
844.40	227.26
844.71	227.18
845.03	227.11
845.34	227.15
845.65	227.18
845.97	227.22
846.28	227.22
846.60	227.27
846.91	227.20
847.22	227.16
847.54	227.24
847.85	227.20
848.16	227.19
848.48	227.07
848.79	227.17
849.10	227.18
849.42	227.28
849.73	226.87
850.04	226.97
850.36	226.88
850.67	226.96
850.98	227.00
851.30	227.05
851.61	227.05
851.92	227.01
852.23	227.14
852.55	227.16
852.86	227.19
853.17	227.27
853.49	227.35
853.80	227.41
854.11	227.41
854.42	227.50
854.74	227.48
855.05	227.56
855.36	227.37
855.67	227.45
855.99	227.46
856.30	228.07
856.61	227.98
856.92	228.07
857.23	228.01
857.55	228.00
857.86	228.00
858.17	228.15
858.48	228.11
858.79	227.97
859.11	228.00
859.42	228.02
859.73	227.90
860.04	227.80
860.35	227.75
860.66	227.69
860.98	227.71
861.29	227.78
861.60	227.79
861.91	227.89
862.22	227.84
862.53	227.81
862.84	227.16
863.16	227.30
863.47	227.18
863.78	227.16
864.09	227.15
864.40	227.20
864.71	227.20
865.02	227.28
865.33	227.31
865.64	227.21
865.95	227.14
866.27	227.45
866.58	227.46
866.89	227.45
867.20	227.47
867.51	227.38
867.82	227.25
868.13	227.32
868.44	227.24
868.75	227.34
869.06	227.43
869.37	227.60
869.68	227.52
869.99	227.58
870.30	227.60
870.61	227.65
870.92	227.59
871.23	227.53
871.54	227.54
871.85	227.63
872.16	227.73
872.47	227.72
872.78	227.53
873.09	227.58
873.40	227.62
873.71	227.54
874.02	227.58
874.33	227.58
874.64	227.48
874.95	227.58
875.26	227.47
875.56	227.35
875.87	227.32
876.18	227.20
876.49	227.69
876.80	227.63
877.11	227.57
877.42	227.59
877.73	227.61
878.04	227.56
878.35	227.54
878.66	227.50
878.96	227.49
879.27	227.41
879.58	227.35
879.89	227.36
880.20	227.55
880.51	227.48
880.82	227.44
881.12	227.46
881.43	227.30
881.74	227.23
882.05	227.20
882.36	227.20
882.67	227.25
882.97	226.71
883.28	226.69
883.59	226.70
883.90	226.69
884.21	226.72
884.51	226.74
884.82	226.68
885.13	226.73
885.44	226.76
885.74	226.71
886.05	226.76
886.36	226.67
886.67	226.50
886.98	226.73
887.28	226.85
887.59	226.86
887.90	226.89
888.20	226.85
888.51	226.96
888.82	226.90
889.13	227.00
889.43	227.38
889.74	227.43
890.05	227.45
890.35	227.44
890.66	227.35
890.97	227.28
891.28	227.27
891.58	227.28
891.89	227.32
892.20	227.38
892.50	227.26
892.81	227.27
893.12	227.26
893.42	227.08
893.73	227.12
894.04	227.13
894.34	227.21
894.65	227.28
894.95	227.20
895.26	227.21
895.57	227.35
895.87	226.91
896.18	226.99
896.48	227.02
896.79	227.04
897.10	227.10
897.40	227.18
897.71	227.26
898.01	227.19
898.32	227.17
898.63	227.17
898.93	227.29
899.24	227.38
899.54	227.38
899.85	227.36
900.15	227.28
900.46	227.26
900.76	227.30
901.07	227.28
901.38	227.26
901.68	227.33
901.99	227.07
902.29	227.17
902.60	227.06
902.90	226.98
903.21	226.92
903.51	226.88
903.82	226.93
904.12	226.89
904.43	226.95
904.73	226.98
905.03	226.98
905.34	227.35
905.64	227.30
905.95	227.33
906.25	227.27
906.56	227.30
906.86	227.30
907.17	227.20
907.47	227.24
907.77	227.24
908.08	227.12
908.38	227.14
908.69	227.14
908.99	227.34
909.30	227.44
909.60	227.49
909.90	227.54
910.21	227.44
910.51	227.37
910.81	227.29
911.12	227.36
911.42	227.42
911.73	226.93
912.03	226.94
912.33	226.99
912.64	227.04
912.94	226.95
913.24	226.88
913.55	226.91
913.85	226.88
914.15	227.03
914.46	227.07
914.76	227.09
915.06	227.08
915.37	226.91
915.67	226.79
915.97	226.77
916.27	226.60
916.58	226.61
916.88	226.66
917.18	226.65
917.49	226.92
917.79	226.84
918.09	226.96
918.39	227.13
918.70	227.11
919.00	227.07
919.30	227.30
919.60	227.32
919.91	227.23
920.21	227.22
920.51	227.12
920.81	227.14
921.12	227.17
921.42	227.15
921.72	227.24
922.02	227.37
922.32	227.49
922.63	227.58
922.93	227.78
923.23	227.77
923.53	227.74
923.83	227.49
924.13	227.64
924.44	227.62
924.74	227.69
925.04	227.79
925.34	227.84
925.64	227.61
925.94	227.60
926.24	227.94
926.55	227.96
926.85	227.96
927.15	227.92
927.45	227.93
927.75	227.90
928.05	227.88
928.35	227.73
928.65	227.80
928.95	227.89
929.26	227.70
929.56	227.83
929.86	227.91
930.16	227.76
930.46	227.63
930.76	227.61
931.06	227.34
931.36	227.20
931.66	227.27
931.96	227.32
932.26	227.37
932.56	227.12
932.86	227.16
933.16	227.24
933.46	227.19
933.76	227.06
934.06	227.19
934.36	227.29
934.66	227.30
934.96	227.20
935.26	227.14
935.56	227.24
935.86	227.02
936.16	226.97
936.46	226.98
936.76	227.01
937.06	226.94
937.36	226.98
937.66	226.99
937.96	226.95
938.26	226.90
938.56	226.82
938.86	226.87
939.16	226.93
939.46	226.88
939.76	226.91
940.06	227.03
940.35	226.90
940.65	226.65
940.95	226.73
941.25	226.55
941.55	226.48
941.85	226.49
942.15	226.61
942.45	226.70
942.75	226.67
943.04	226.68
943.34	226.75
943.64	226.75
943.94	226.68
944.24	226.68
944.54	226.68
944.84	226.68
945.13	226.55
945.43	226.41
945.73	226.35
946.03	226.34
946.33	226.29
946.62	226.26
946.92	226.28
947.22	226.30
947.52	226.39
947.82	226.48
948.11	226.37
948.41	226.23
948.71	226.11
949.01	226.11
949.31	225.99
949.60	226.02
949.90	226.07
950.20	226.11
950.50	226.08
950.79	226.17
951.09	226.25
951.39	226.31
951.69	226.27
951.98	226.42
952.28	226.44
952.58	226.34
952.87	226.36
953.17	226.47
953.47	226.44
953.76	226.44
954.06	226.35
954.36	226.26
954.66	226.29
954.95	226.38
955.25	226.44
955.55	226.58
955.84	226.45
956.14	226.43
956.44	226.38
956.73	226.26
957.03	226.21
957.32	226.19
957.62	226.17
957.92	226.32
958.21	226.30
958.51	226.85
958.81	226.96
959.10	227.05
959.40	227.10
959.69	227.12
959.99	227.23
960.29	227.25
960.58	227.23
960.88	227.45
961.17	227.45
961.47	227.47
961.76	227.42
962.06	227.50
962.36	227.46
962.65	227.51
962.95	227.60
963.24	227.49
963.54	227.49
963.83	227.55
964.13	227.54
964.42	227.38
964.72	226.94
965.01	226.92
965.31	226.89
965.60	226.77
965.90	227.08
966.19	226.89
966.49	226.91
966.78	226.97
967.08	226.90
967.37	226.90
967.67	226.85
967.96	226.87
968.26	226.88
968.55	226.91
968.85	226.87
969.14	226.88
969.43	226.93
969.73	226.90
970.02	226.85
970.32	226.80
970.61	226.79
970.91	226.70
971.20	226.68
971.49	226.59
971.79	226.68
972.08	226.35
972.38	226.38
972.67	226.36
972.96	226.36
973.26	226.31
973.55	226.43
973.85	226.39
974.14	226.35
974.43	226.38
974.73	226.34
975.02	226.32
975.31	226.37
975.61	226.41
975.90	226.35
976.19	226.25
976.49	226.28
976.78	226.27
977.07	226.20
977.37	226.13
977.66	226.22
977.95	226.11
978.24	226.08
978.54	226.18
978.83	226.18
979.12	226.23
979.42	226.22
979.71	226.07
980.00	226.08
980.29	226.16
980.59	226.04
980.88	226.12
981.17	226.12
981.46	226.10
981.76	226.17
982.05	226.34
982.34	226.48
982.63	226.49
982.93	226.57
983.22	226.70
983.51	226.81
983.80	226.89
984.09	227.01
984.39	227.00
984.68	226.95
984.97	226.94
985.26	226.83
985.55	226.91
985.85	226.83
986.14	226.86
986.43	226.90
986.72	226.87
987.01	226.77
987.30	226.75
987.59	226.68
987.89	226.69
988.18	226.54
988.47	226.44
988.76	226.32
989.05	226.29
989.34	226.27
989.63	226.31
989.92	226.16
990.22	226.10
990.51	226.13
990.80	226.13
991.09	226.18
991.38	226.31
991.67	226.16
991.96	226.18
992.25	226.20
992.54	226.08
992.83	226.14
993.12	226.07
993.41	226.18
993.70	226.41
993.99	226.47
994.28	226.53
994.58	226.65
994.87	226.74
995.16	226.68
995.45	226.61
995.74	226.53
996.03	226.61
996.32	226.63
996.61	226.70
996.90	226.65
997.19	226.61
997.48	226.57
997.77	226.54
998.06	226.60
998.34	226.56
998.63	226.61
998.92	226.56
999.21	226.70
999.50	226.72
999.79	226.49
1000.08	226.38
1000.37	226.40
1000.66	226.28
1000.95	226.35
1001.24	226.41
1001.53	226.45
1001.82	226.47
1002.11	226.39
1002.40	226.39
1002.68	226.48
1002.97	226.86
1003.26	226.80
1003.55	226.80
1003.84	226.84
1004.13	226.93
1004.42	226.93
1004.71	226.90
1004.99	226.96
1005.28	227.00
1005.57	226.98
1005.86	226.94
1006.15	226.93
1006.44	226.79
1006.72	226.82
1007.01	226.75
1007.30	226.72
1007.59	226.65
1007.88	226.57
1008.17	226.56
1008.45	226.48
1008.74	226.27
1009.03	226.01
1009.32	226.00
1009.60	225.99
1009.89	225.98
1010.18	225.83
1010.47	225.81
1010.76	225.82
1011.04	225.83
1011.33	225.94
1011.62	226.00
1011.91	226.12
1012.19	226.15
1012.48	226.23
1012.77	226.27
1013.05	226.44
1013.34	226.42
1013.63	226.45
1013.92	226.56
1014.20	226.57
1014.49	226.56
1014.78	226.63
1015.06	226.51
1015.35	226.51
1015.64	226.50
1015.92	226.66
1016.21	226.73
1016.50	226.76
1016.78	226.82
1017.07	226.80
1017.36	226.66
1017.64	226.51
1017.93	226.53
1018.22	226.49
1018.50	226.42
1018.79	226.41
1019.08	226.29
1019.36	226.38
1019.65	226.34
1019.93	226.44
1020.22	226.53
1020.51	226.82
1020.79	226.71
1021.08	225.90
1021.36	224.00
1021.65	226.75
1021.94	227.60
1022.22	227.20
1022.51	225.35
1022.79	228.80
1023.08	227.05
1023.36	231.80
1023.65	224.50
>>>>>End Processed Spectral Data<<<<<
