SpectraSuite Data File
++++++++++++++++++++++++++++++++++++
Date: Wed Sep 04 17:40:02 EDT 2013
User: lab3
Dark Spectrum Present: Yes
Reference Spectrum Present: No
Number of Sampled Component Spectra: 1
Spectrometers: USB2E7196
Integration Time (usec): 170000 (USB2E7196)
Spectra Averaged: 20 (USB2E7196)
Boxcar Smoothing: 10 (USB2E7196)
Correct for Electrical Dark: No (USB2E7196)
Strobe/Lamp Enabled: No (USB2E7196)
Correct for Detector Non-linearity: No (USB2E7196)
Correct for Stray Light: No (USB2E7196)
Number of Pixels in Processed Spectrum: 2048
>>>>>Begin Processed Spectral Data<<<<<
339.09	0.00
339.48	212.95
339.86	213.90
340.24	215.30
340.63	216.35
341.01	224.45
341.39	218.90
341.78	222.30
342.16	223.20
342.54	221.55
342.93	211.62
343.31	222.27
343.69	222.83
344.07	223.34
344.46	223.84
344.84	224.24
345.22	224.24
345.60	224.52
345.99	224.62
346.37	224.72
346.75	224.87
347.13	225.02
347.52	225.07
347.90	225.25
348.28	225.28
348.66	225.40
349.05	225.23
349.43	225.30
349.81	225.43
350.19	225.50
350.57	225.51
350.96	225.59
351.34	225.71
351.72	225.71
352.10	225.77
352.48	225.75
352.87	225.82
353.25	225.88
353.63	225.90
354.01	226.02
354.39	226.13
354.77	226.19
355.15	226.33
355.54	226.32
355.92	226.25
356.30	226.31
356.68	226.72
357.06	226.80
357.44	226.79
357.82	226.74
358.20	227.17
358.58	227.26
358.97	227.36
359.35	227.44
359.73	227.60
360.11	227.64
360.49	227.75
360.87	227.73
361.25	227.89
361.63	228.16
362.01	228.20
362.39	228.12
362.77	228.26
363.15	228.30
363.53	228.42
363.91	228.51
364.29	228.54
364.67	228.14
365.05	228.24
365.43	228.40
365.81	228.48
366.19	228.35
366.57	228.55
366.95	228.53
367.33	228.52
367.71	228.57
368.09	228.70
368.47	228.69
368.85	228.79
369.23	228.86
369.61	228.71
369.99	228.84
370.37	228.92
370.75	229.15
371.13	229.02
371.51	228.93
371.89	228.90
372.27	228.87
372.65	228.88
373.03	228.83
373.41	228.72
373.78	228.71
374.16	228.41
374.54	228.28
374.92	228.24
375.30	228.18
375.68	227.94
376.06	227.92
376.44	227.82
376.82	227.73
377.19	227.64
377.57	227.55
377.95	227.34
378.33	227.22
378.71	226.83
379.09	226.85
379.47	226.85
379.84	226.74
380.22	226.73
380.60	226.55
380.98	226.47
381.36	226.45
381.73	226.29
382.11	226.40
382.49	226.34
382.87	226.15
383.25	226.14
383.62	226.68
384.00	226.50
384.38	226.48
384.76	226.56
385.13	226.65
385.51	226.60
385.89	226.54
386.27	226.56
386.64	226.59
387.02	226.52
387.40	226.46
387.78	226.53
388.15	226.49
388.53	226.46
388.91	226.37
389.29	226.24
389.66	226.24
390.04	226.09
390.42	226.16
390.79	226.25
391.17	226.16
391.55	225.64
391.92	225.66
392.30	225.70
392.68	225.53
393.05	225.52
393.43	225.47
393.81	225.48
394.18	225.43
394.56	225.47
394.94	225.61
395.31	225.57
395.69	225.68
396.06	225.77
396.44	225.85
396.82	225.92
397.19	226.23
397.57	226.25
397.95	226.38
398.32	226.28
398.70	226.39
399.07	226.56
399.45	226.64
399.82	226.74
400.20	226.77
400.58	226.95
400.95	226.82
401.33	227.02
401.70	227.47
402.08	227.65
402.45	227.75
402.83	227.90
403.20	228.10
403.58	228.13
403.95	228.32
404.33	228.61
404.71	228.88
405.08	229.30
405.46	229.54
405.83	229.78
406.21	229.95
406.58	230.20
406.96	230.43
407.33	230.71
407.70	231.00
408.08	231.76
408.45	232.11
408.83	232.59
409.20	232.94
409.58	232.99
409.95	233.42
410.33	233.82
410.70	234.10
411.08	234.62
411.45	235.22
411.82	235.65
412.20	236.23
412.57	237.01
412.95	237.16
413.32	237.89
413.69	238.55
414.07	239.31
414.44	240.09
414.82	240.95
415.19	242.02
415.56	243.00
415.94	243.71
416.31	244.86
416.68	246.02
417.06	247.34
417.43	248.75
417.81	250.16
418.18	251.68
418.55	253.29
418.93	254.99
419.30	256.62
419.67	258.46
420.04	260.31
420.42	262.14
420.79	264.74
421.16	266.98
421.54	269.57
421.91	272.09
422.28	274.63
422.66	277.24
423.03	280.04
423.40	282.72
423.77	285.50
424.15	288.52
424.52	291.60
424.89	295.11
425.26	298.37
425.64	301.48
426.01	304.93
426.38	308.46
426.75	312.09
427.13	315.91
427.50	319.86
427.87	323.88
428.24	327.86
428.61	331.59
428.99	336.12
429.36	340.61
429.73	345.08
430.10	349.63
430.47	354.31
430.85	358.88
431.22	364.03
431.59	369.94
431.96	374.93
432.33	380.68
432.70	386.17
433.08	392.66
433.45	398.90
433.82	405.13
434.19	411.99
434.56	418.76
434.93	425.03
435.30	431.57
435.68	438.78
436.05	445.88
436.42	452.75
436.79	459.11
437.16	465.99
437.53	473.38
437.90	480.72
438.27	487.97
438.64	495.38
439.01	502.31
439.38	508.10
439.75	514.17
440.13	520.89
440.50	527.02
440.87	532.07
441.24	537.33
441.61	543.01
441.98	547.24
442.35	552.07
442.72	557.22
443.09	562.18
443.46	564.94
443.83	566.79
444.20	568.50
444.57	570.65
444.94	571.63
445.31	572.55
445.68	573.79
446.05	573.89
446.42	573.03
446.79	571.92
447.16	570.62
447.53	569.60
447.90	566.61
448.27	563.85
448.64	559.93
449.01	556.97
449.37	551.94
449.74	547.03
450.11	541.73
450.48	535.32
450.85	528.58
451.22	523.04
451.59	517.81
451.96	512.72
452.33	506.14
452.70	500.12
453.07	493.01
453.43	485.35
453.80	478.50
454.17	471.87
454.54	465.51
454.91	458.88
455.28	452.30
455.65	446.10
456.02	440.54
456.38	435.27
456.75	428.81
457.12	423.50
457.49	418.34
457.86	412.91
458.23	408.72
458.59	403.96
458.96	399.20
459.33	394.86
459.70	390.64
460.07	387.25
460.43	383.39
460.80	379.98
461.17	377.01
461.54	373.75
461.91	370.50
462.27	367.31
462.64	364.60
463.01	361.74
463.38	359.10
463.74	355.70
464.11	353.23
464.48	351.06
464.85	348.73
465.21	346.95
465.58	345.03
465.95	342.64
466.32	340.90
466.68	338.96
467.05	337.24
467.42	335.41
467.78	333.54
468.15	331.80
468.52	330.40
468.88	328.45
469.25	326.86
469.62	325.75
469.98	324.50
470.35	323.18
470.72	321.98
471.08	320.44
471.45	319.35
471.82	318.40
472.18	317.28
472.55	316.51
472.92	315.46
473.28	314.47
473.65	313.64
474.02	312.74
474.38	312.16
474.75	311.58
475.11	310.84
475.48	310.27
475.85	309.77
476.21	309.20
476.58	308.87
476.94	308.63
477.31	308.25
477.67	307.91
478.04	307.70
478.41	307.56
478.77	308.01
479.14	307.88
479.50	307.73
479.87	307.81
480.23	307.70
480.60	307.70
480.96	307.82
481.33	308.21
481.69	308.46
482.06	308.69
482.42	308.98
482.79	309.40
483.15	309.94
483.52	310.55
483.88	311.01
484.25	311.53
484.61	312.14
484.98	312.74
485.34	313.64
485.71	314.63
486.07	315.60
486.44	316.14
486.80	317.13
487.17	318.25
487.53	319.60
487.90	320.93
488.26	322.49
488.62	324.09
488.99	325.46
489.35	327.02
489.72	328.75
490.08	330.56
490.44	332.47
490.81	334.46
491.17	336.48
491.54	338.82
491.90	341.29
492.26	343.79
492.63	346.49
492.99	349.16
493.36	351.99
493.72	355.04
494.08	358.19
494.45	361.48
494.81	364.93
495.17	368.36
495.54	372.23
495.90	376.02
496.26	379.96
496.63	384.19
496.99	388.50
497.35	393.11
497.72	397.88
498.08	402.70
498.44	407.74
498.80	413.15
499.17	418.59
499.53	424.19
499.89	430.07
500.26	436.04
500.62	442.23
500.98	448.75
501.34	455.18
501.71	462.04
502.07	468.96
502.43	476.17
502.79	483.58
503.16	491.20
503.52	499.09
503.88	507.34
504.24	515.78
504.60	524.67
504.97	533.66
505.33	542.71
505.69	552.42
506.05	562.00
506.41	571.64
506.78	581.83
507.14	592.18
507.50	602.85
507.86	613.66
508.22	624.99
508.59	636.16
508.95	648.08
509.31	660.35
509.67	672.59
510.03	684.64
510.39	697.25
510.75	710.17
511.12	723.18
511.48	736.24
511.84	749.76
512.20	763.31
512.56	776.86
512.92	790.88
513.28	804.80
513.64	819.32
514.00	834.03
514.37	848.74
514.73	863.72
515.09	878.81
515.45	893.95
515.81	908.97
516.17	924.28
516.53	939.33
516.89	954.33
517.25	970.10
517.61	986.92
517.97	1003.11
518.33	1019.34
518.69	1035.59
519.05	1052.11
519.41	1068.51
519.77	1085.28
520.13	1101.92
520.49	1118.12
520.85	1136.10
521.21	1152.65
521.57	1169.46
521.93	1185.56
522.29	1202.40
522.65	1218.44
523.01	1234.96
523.37	1250.84
523.73	1267.12
524.09	1283.23
524.45	1299.13
524.81	1315.29
525.17	1330.71
525.53	1346.59
525.89	1362.28
526.25	1378.20
526.61	1393.78
526.97	1409.53
527.33	1425.38
527.68	1441.62
528.04	1457.78
528.40	1472.20
528.76	1487.89
529.12	1503.04
529.48	1518.38
529.84	1532.96
530.20	1548.42
530.56	1563.44
530.91	1578.64
531.27	1593.41
531.63	1608.01
531.99	1622.69
532.35	1636.79
532.71	1651.09
533.07	1665.70
533.42	1679.56
533.78	1693.32
534.14	1706.94
534.50	1720.22
534.86	1733.41
535.21	1745.07
535.57	1757.59
535.93	1769.34
536.29	1781.33
536.65	1793.38
537.00	1805.12
537.36	1816.49
537.72	1827.15
538.08	1838.11
538.44	1848.73
538.79	1859.50
539.15	1870.13
539.51	1880.53
539.87	1890.07
540.22	1898.66
540.58	1907.42
540.94	1915.28
541.29	1922.89
541.65	1930.22
542.01	1937.24
542.37	1942.74
542.72	1948.98
543.08	1954.71
543.44	1961.27
543.79	1965.98
544.15	1970.94
544.51	1976.30
544.87	1981.20
545.22	1985.34
545.58	1988.94
545.94	1991.98
546.29	1994.26
546.65	1996.30
547.01	1998.02
547.36	1999.58
547.72	2001.49
548.07	2001.79
548.43	2003.29
548.79	2003.96
549.14	2004.34
549.50	2004.78
549.86	2005.24
550.21	2005.74
550.57	2005.71
550.92	2003.93
551.28	2002.90
551.64	2002.04
551.99	2000.76
552.35	1999.30
552.70	1998.45
553.06	1997.32
553.41	1996.09
553.77	1994.97
554.13	1994.23
554.48	1992.70
554.84	1991.47
555.19	1989.86
555.55	1989.00
555.90	1986.18
556.26	1983.12
556.61	1980.04
556.97	1976.24
557.32	1973.35
557.68	1970.22
558.03	1967.18
558.39	1964.39
558.74	1961.32
559.10	1956.88
559.45	1952.23
559.81	1947.21
560.16	1941.34
560.52	1935.62
560.87	1930.35
561.23	1924.35
561.58	1918.06
561.94	1911.43
562.29	1904.17
562.64	1897.07
563.00	1889.17
563.35	1882.74
563.71	1876.68
564.06	1870.17
564.42	1863.92
564.77	1857.71
565.12	1850.65
565.48	1843.66
565.83	1836.45
566.19	1829.52
566.54	1822.76
566.89	1815.39
567.25	1808.69
567.60	1802.46
567.96	1796.01
568.31	1789.17
568.66	1782.04
569.02	1774.17
569.37	1767.17
569.72	1761.03
570.08	1753.54
570.43	1745.57
570.78	1738.05
571.14	1730.16
571.49	1721.97
571.84	1713.95
572.20	1705.22
572.55	1697.21
572.90	1688.37
573.26	1679.96
573.61	1671.18
573.96	1662.00
574.31	1652.79
574.67	1643.33
575.02	1633.37
575.37	1623.33
575.72	1613.08
576.08	1603.73
576.43	1594.12
576.78	1584.26
577.13	1573.62
577.49	1564.03
577.84	1554.90
578.19	1545.83
578.54	1536.29
578.90	1527.38
579.25	1518.19
579.60	1508.84
579.95	1499.08
580.30	1489.20
580.66	1479.31
581.01	1469.25
581.36	1459.23
581.71	1449.95
582.06	1440.65
582.42	1431.55
582.77	1422.25
583.12	1413.66
583.47	1404.48
583.82	1395.66
584.17	1386.68
584.53	1378.12
584.88	1368.75
585.23	1359.51
585.58	1349.30
585.93	1339.93
586.28	1330.29
586.63	1320.37
586.98	1310.29
587.34	1300.98
587.69	1291.75
588.04	1282.70
588.39	1274.04
588.74	1265.45
589.09	1256.74
589.44	1247.50
589.79	1238.68
590.14	1230.44
590.49	1221.61
590.84	1213.09
591.19	1204.79
591.54	1196.36
591.89	1187.88
592.25	1180.62
592.60	1172.66
592.95	1164.55
593.30	1156.29
593.65	1148.05
594.00	1139.58
594.35	1133.21
594.70	1124.95
595.05	1116.82
595.40	1108.52
595.75	1100.30
596.10	1092.40
596.45	1084.60
596.80	1077.06
597.15	1069.40
597.50	1061.23
597.85	1053.63
598.19	1045.66
598.54	1037.57
598.89	1029.89
599.24	1022.33
599.59	1014.40
599.94	1006.92
600.29	1000.05
600.64	993.06
600.99	985.76
601.34	979.33
601.69	971.25
602.04	964.55
602.39	958.10
602.74	952.13
603.08	945.70
603.43	939.45
603.78	932.89
604.13	926.55
604.48	919.99
604.83	913.43
605.18	906.59
605.53	900.16
605.87	893.97
606.22	887.90
606.57	881.85
606.92	875.50
607.27	869.53
607.62	863.42
607.96	857.66
608.31	852.37
608.66	846.78
609.01	841.08
609.36	835.19
609.70	829.50
610.05	823.59
610.40	818.04
610.75	812.15
611.10	806.64
611.44	800.71
611.79	795.13
612.14	789.72
612.49	784.56
612.83	779.54
613.18	774.51
613.53	769.49
613.88	764.04
614.22	758.71
614.57	753.26
614.92	748.11
615.27	742.72
615.61	737.35
615.96	732.07
616.31	726.95
616.65	722.39
617.00	717.35
617.35	712.36
617.70	707.40
618.04	702.51
618.39	697.70
618.74	693.42
619.08	688.87
619.43	684.15
619.78	679.47
620.12	674.78
620.47	670.04
620.82	665.11
621.16	660.54
621.51	656.32
621.85	652.06
622.20	647.52
622.55	643.25
622.89	639.00
623.24	634.92
623.59	630.61
623.93	626.27
624.28	622.12
624.62	618.70
624.97	614.88
625.32	611.09
625.66	607.14
626.01	603.00
626.35	599.25
626.70	595.52
627.04	591.99
627.39	588.13
627.73	584.57
628.08	581.19
628.43	577.54
628.77	573.84
629.12	570.28
629.46	567.08
629.81	563.97
630.15	560.80
630.50	557.32
630.84	554.03
631.19	550.81
631.53	547.68
631.88	543.75
632.22	540.40
632.57	537.38
632.91	534.21
633.26	531.34
633.60	528.14
633.95	525.06
634.29	521.77
634.64	518.76
634.98	515.47
635.32	512.35
635.67	509.65
636.01	506.82
636.36	503.87
636.70	501.10
637.05	498.09
637.39	495.20
637.73	492.48
638.08	489.81
638.42	486.87
638.77	483.97
639.11	481.12
639.45	478.15
639.80	475.11
640.14	472.32
640.49	469.52
640.83	466.93
641.17	464.46
641.52	461.82
641.86	459.28
642.20	457.16
642.55	454.67
642.89	452.10
643.23	449.54
643.58	447.45
643.92	444.70
644.26	442.30
644.61	440.03
644.95	437.63
645.29	435.23
645.64	433.06
645.98	430.84
646.32	428.90
646.66	426.81
647.01	424.68
647.35	422.79
647.69	420.72
648.04	418.72
648.38	416.61
648.72	414.61
649.06	412.57
649.41	410.35
649.75	408.35
650.09	406.51
650.43	404.80
650.78	402.56
651.12	400.77
651.46	398.98
651.80	397.05
652.14	395.17
652.49	393.54
652.83	391.73
653.17	389.95
653.51	388.09
653.85	386.36
654.20	384.70
654.54	382.91
654.88	381.21
655.22	379.65
655.56	378.06
655.90	376.46
656.25	374.85
656.59	373.37
656.93	371.91
657.27	370.49
657.61	368.74
657.95	367.32
658.29	365.81
658.64	364.25
658.98	362.74
659.32	361.22
659.66	359.63
660.00	358.15
660.34	356.77
660.68	355.28
661.02	353.84
661.36	352.52
661.70	351.01
662.05	349.62
662.39	348.28
662.73	347.07
663.07	346.17
663.41	345.03
663.75	343.57
664.09	342.31
664.43	340.89
664.77	339.73
665.11	338.38
665.45	337.24
665.79	336.12
666.13	335.00
666.47	333.88
666.81	332.74
667.15	331.49
667.49	330.39
667.83	329.50
668.17	328.48
668.51	327.39
668.85	326.48
669.19	325.76
669.53	324.74
669.87	323.62
670.21	322.35
670.55	321.29
670.89	320.64
671.23	319.58
671.57	318.54
671.91	317.62
672.25	316.79
672.58	315.95
672.92	314.90
673.26	314.07
673.60	313.23
673.94	312.41
674.28	311.73
674.62	310.90
674.96	309.92
675.30	309.18
675.64	308.35
675.97	307.48
676.31	306.46
676.65	305.52
676.99	304.93
677.33	304.10
677.67	303.36
678.01	302.29
678.34	301.60
678.68	300.96
679.02	300.12
679.36	299.40
679.70	298.60
680.04	298.01
680.37	297.24
680.71	296.57
681.05	295.82
681.39	295.18
681.73	294.55
682.06	293.93
682.40	293.28
682.74	292.68
683.08	292.27
683.42	291.51
683.75	291.04
684.09	290.26
684.43	289.67
684.77	289.01
685.10	288.52
685.44	287.95
685.78	287.40
686.12	286.87
686.45	286.35
686.79	285.74
687.13	285.24
687.46	284.78
687.80	284.32
688.14	283.82
688.48	283.19
688.81	282.60
689.15	282.12
689.49	281.59
689.82	281.10
690.16	280.37
690.50	279.97
690.83	279.39
691.17	278.80
691.51	278.30
691.84	277.90
692.18	277.43
692.52	276.92
692.85	276.45
693.19	276.19
693.52	275.62
693.86	275.18
694.20	274.68
694.53	274.11
694.87	273.61
695.21	273.08
695.54	272.62
695.88	272.16
696.21	271.64
696.55	271.10
696.88	270.61
697.22	270.17
697.56	269.78
697.89	269.26
698.23	268.96
698.56	268.50
698.90	268.03
699.23	267.57
699.57	267.28
699.90	266.76
700.24	266.20
700.58	265.87
700.91	265.63
701.25	265.65
701.58	265.69
701.92	265.38
702.25	265.12
702.59	264.79
702.92	264.44
703.26	264.14
703.59	263.89
703.93	263.96
704.26	263.74
704.60	263.41
704.93	263.20
705.26	262.70
705.60	262.46
705.93	262.15
706.27	261.97
706.60	261.62
706.94	261.46
707.27	261.13
707.61	260.83
707.94	260.43
708.27	259.63
708.61	258.88
708.94	258.44
709.28	258.11
709.61	257.86
709.94	257.56
710.28	257.34
710.61	256.98
710.95	256.25
711.28	256.22
711.61	255.90
711.95	255.70
712.28	255.42
712.61	255.06
712.95	255.09
713.28	255.00
713.61	254.69
713.95	254.34
714.28	254.12
714.61	253.89
714.95	253.56
715.28	253.28
715.61	253.10
715.95	252.90
716.28	252.58
716.61	252.31
716.95	252.02
717.28	251.63
717.61	251.41
717.94	251.20
718.28	250.62
718.61	250.39
718.94	250.02
719.27	249.89
719.61	249.73
719.94	249.25
720.27	248.79
720.60	248.55
720.94	248.33
721.27	248.13
721.60	247.95
721.93	247.82
722.27	247.83
722.60	247.62
722.93	247.40
723.26	247.33
723.59	247.07
723.93	247.00
724.26	246.88
724.59	246.71
724.92	246.55
725.25	246.50
725.59	246.29
725.92	246.17
726.25	245.93
726.58	245.78
726.91	245.68
727.24	245.57
727.57	245.39
727.91	245.20
728.24	245.10
728.57	244.94
728.90	244.81
729.23	244.45
729.56	244.59
729.89	244.48
730.22	244.23
730.55	244.13
730.89	243.95
731.22	243.79
731.55	243.62
731.88	243.48
732.21	243.27
732.54	243.07
732.87	243.00
733.20	243.02
733.53	242.92
733.86	242.80
734.19	242.60
734.52	242.55
734.85	242.73
735.18	242.55
735.51	242.49
735.84	242.40
736.17	242.40
736.50	242.02
736.83	242.41
737.16	242.34
737.49	242.24
737.82	242.09
738.15	242.00
738.48	241.85
738.81	241.68
739.14	241.44
739.47	241.35
739.80	241.13
740.13	240.90
740.46	240.65
740.79	240.44
741.12	240.30
741.45	240.06
741.78	239.65
742.11	239.61
742.44	239.37
742.77	239.29
743.10	239.09
743.43	238.93
743.75	238.29
744.08	238.77
744.41	238.56
744.74	238.38
745.07	238.10
745.40	238.13
745.73	238.29
746.06	238.23
746.39	238.20
746.71	238.00
747.04	237.83
747.37	237.72
747.70	237.65
748.03	237.57
748.36	237.61
748.68	237.52
749.01	237.29
749.34	237.20
749.67	237.04
750.00	237.04
750.33	237.29
750.65	237.24
750.98	236.56
751.31	236.50
751.64	236.45
751.97	236.74
752.29	236.57
752.62	236.25
752.95	236.13
753.28	235.89
753.60	235.88
753.93	235.97
754.26	235.99
754.59	235.81
754.91	235.72
755.24	235.56
755.57	235.46
755.90	235.30
756.22	235.18
756.55	235.05
756.88	234.87
757.20	234.52
757.53	234.28
757.86	234.18
758.19	234.12
758.51	234.03
758.84	233.69
759.17	233.59
759.49	233.49
759.82	233.62
760.15	233.67
760.47	233.61
760.80	233.33
761.13	233.29
761.45	233.15
761.78	233.03
762.11	232.97
762.43	232.89
762.76	232.87
763.08	232.92
763.41	232.91
763.74	232.91
764.06	232.84
764.39	232.79
764.71	232.71
765.04	232.55
765.37	232.52
765.69	232.46
766.02	232.39
766.34	232.31
766.67	232.06
767.00	232.10
767.32	232.29
767.65	232.57
767.97	232.40
768.30	232.48
768.62	232.47
768.95	232.37
769.27	232.37
769.60	232.40
769.92	232.27
770.25	232.11
770.57	232.02
770.90	231.88
771.22	231.85
771.55	231.83
771.87	231.87
772.20	231.76
772.52	232.19
772.85	232.78
773.17	232.85
773.50	232.82
773.82	232.65
774.15	232.36
774.47	232.05
774.80	232.08
775.12	232.02
775.45	231.94
775.77	231.93
776.09	231.88
776.42	231.85
776.74	231.98
777.07	231.99
777.39	231.89
777.72	231.84
778.04	231.80
778.36	231.68
778.69	231.62
779.01	231.64
779.33	231.11
779.66	230.47
779.98	230.40
780.31	230.44
780.63	230.59
780.95	230.61
781.28	230.55
781.60	230.42
781.92	230.34
782.25	230.31
782.57	230.29
782.89	230.24
783.22	230.17
783.54	229.99
783.86	229.92
784.19	229.88
784.51	229.99
784.83	229.91
785.16	229.95
785.48	229.86
785.80	229.86
786.12	229.83
786.45	229.77
786.77	229.67
787.09	229.60
787.42	229.44
787.74	229.42
788.06	229.45
788.38	229.41
788.71	229.38
789.03	229.42
789.35	229.43
789.67	229.26
789.99	229.32
790.32	229.27
790.64	229.30
790.96	229.68
791.28	229.53
791.61	229.57
791.93	229.51
792.25	229.51
792.57	229.77
792.89	229.66
793.21	229.71
793.54	229.69
793.86	229.54
794.18	229.53
794.50	229.44
794.82	229.42
795.14	229.48
795.47	229.50
795.79	229.49
796.11	229.32
796.43	229.36
796.75	229.33
797.07	229.25
797.39	229.22
797.71	228.85
798.04	228.86
798.36	228.82
798.68	228.86
799.00	228.87
799.32	228.60
799.64	228.71
799.96	228.65
800.28	228.68
800.60	228.73
800.92	228.71
801.24	228.65
801.56	228.61
801.89	228.61
802.21	228.64
802.53	228.51
802.85	228.67
803.17	228.85
803.49	228.65
803.81	228.61
804.13	228.60
804.45	228.50
804.77	228.60
805.09	228.54
805.41	228.50
805.73	228.39
806.05	228.29
806.37	228.23
806.69	228.19
807.01	228.15
807.33	228.13
807.65	228.03
807.97	228.30
808.28	228.29
808.60	228.20
808.92	228.18
809.24	228.42
809.56	228.36
809.88	228.20
810.20	228.23
810.52	228.39
810.84	228.30
811.16	228.26
811.48	228.11
811.80	228.32
812.12	228.28
812.43	228.38
812.75	228.38
813.07	228.34
813.39	228.30
813.71	228.30
814.03	228.25
814.35	228.20
814.67	227.99
814.98	227.94
815.30	227.95
815.62	227.79
815.94	227.55
816.26	227.68
816.58	227.56
816.89	227.66
817.21	227.57
817.53	227.69
817.85	227.67
818.17	227.69
818.48	227.50
818.80	227.53
819.12	227.53
819.44	227.45
819.76	227.41
820.07	227.48
820.39	227.42
820.71	227.44
821.03	227.42
821.34	227.30
821.66	227.34
821.98	227.40
822.30	227.45
822.61	227.66
822.93	227.45
823.25	227.47
823.57	227.39
823.88	227.37
824.20	227.29
824.52	227.46
824.83	227.43
825.15	227.37
825.47	227.35
825.79	227.31
826.10	227.33
826.42	227.31
826.74	227.27
827.05	227.22
827.37	227.23
827.69	227.26
828.00	227.34
828.32	227.37
828.64	227.25
828.95	227.43
829.27	227.33
829.58	227.26
829.90	227.42
830.22	227.37
830.53	227.25
830.85	227.16
831.17	226.97
831.48	227.04
831.80	227.07
832.11	226.99
832.43	226.93
832.75	226.90
833.06	227.16
833.38	227.00
833.69	227.03
834.01	227.01
834.32	226.93
834.64	226.86
834.96	226.88
835.27	226.81
835.59	226.65
835.90	226.58
836.22	226.65
836.53	226.50
836.85	226.51
837.16	227.03
837.48	227.06
837.79	227.26
838.11	227.24
838.42	227.21
838.74	227.29
839.05	227.27
839.37	227.25
839.68	226.94
840.00	226.98
840.31	227.06
840.63	227.03
840.94	227.02
841.26	227.07
841.57	227.02
841.88	227.15
842.20	227.17
842.51	227.09
842.83	227.10
843.14	227.47
843.46	227.46
843.77	227.17
844.08	227.07
844.40	226.91
844.71	226.82
845.03	226.81
845.34	226.75
845.65	226.74
845.97	226.74
846.28	226.79
846.60	226.90
846.91	226.87
847.22	226.92
847.54	226.98
847.85	226.87
848.16	226.81
848.48	226.64
848.79	226.72
849.10	226.75
849.42	226.80
849.73	226.40
850.04	226.40
850.36	226.33
850.67	226.56
850.98	226.58
851.30	226.64
851.61	226.69
851.92	226.68
852.23	226.83
852.55	226.87
852.86	226.91
853.17	226.81
853.49	226.90
853.80	226.91
854.11	226.99
854.42	227.20
854.74	227.12
855.05	227.16
855.36	226.99
855.67	227.04
855.99	227.01
856.30	227.60
856.61	227.59
856.92	227.57
857.23	227.45
857.55	227.36
857.86	227.37
858.17	227.38
858.48	227.30
858.79	227.16
859.11	227.24
859.42	227.14
859.73	227.15
860.04	227.07
860.35	226.98
860.66	226.79
860.98	226.67
861.29	226.74
861.60	226.79
861.91	226.85
862.22	226.80
862.53	226.74
862.84	226.17
863.16	226.29
863.47	226.19
863.78	226.18
864.09	226.25
864.40	226.23
864.71	226.30
865.02	226.45
865.33	226.42
865.64	226.34
865.95	226.41
866.27	226.75
866.58	226.69
866.89	226.81
867.20	226.83
867.51	226.76
867.82	226.73
868.13	226.78
868.44	226.78
868.75	226.88
869.06	226.83
869.37	226.88
869.68	226.76
869.99	226.88
870.30	227.02
870.61	227.08
870.92	227.01
871.23	226.88
871.54	226.91
871.85	227.02
872.16	227.11
872.47	227.04
872.78	226.78
873.09	226.81
873.40	226.76
873.71	226.86
874.02	226.90
874.33	226.83
874.64	226.84
874.95	226.84
875.26	226.68
875.56	226.67
875.87	226.66
876.18	226.59
876.49	227.00
876.80	226.84
877.11	226.70
877.42	226.69
877.73	226.68
878.04	226.59
878.35	226.56
878.66	226.53
878.96	226.55
879.27	226.42
879.58	226.34
879.89	226.26
880.20	226.37
880.51	226.33
880.82	226.40
881.12	226.38
881.43	226.25
881.74	226.17
882.05	226.16
882.36	226.14
882.67	226.14
882.97	225.68
883.28	225.60
883.59	225.59
883.90	225.66
884.21	225.76
884.51	225.71
884.82	225.59
885.13	225.58
885.44	225.55
885.74	225.62
886.05	225.64
886.36	225.72
886.67	225.53
886.98	225.79
887.28	225.87
887.59	225.83
887.90	225.85
888.20	225.89
888.51	225.95
888.82	225.83
889.13	225.87
889.43	226.21
889.74	226.21
890.05	226.18
890.35	226.06
890.66	225.96
890.97	225.96
891.28	225.95
891.58	225.91
891.89	225.94
892.20	225.91
892.50	225.94
892.81	225.89
893.12	225.91
893.42	225.66
893.73	225.65
894.04	225.64
894.34	225.67
894.65	225.64
894.95	225.59
895.26	225.69
895.57	225.92
895.87	225.45
896.18	225.60
896.48	225.72
896.79	225.79
897.10	225.91
897.40	226.00
897.71	226.10
898.01	226.10
898.32	226.18
898.63	226.17
898.93	226.14
899.24	226.14
899.54	226.14
899.85	226.15
900.15	226.08
900.46	226.11
900.76	226.15
901.07	226.18
901.38	226.23
901.68	226.25
901.99	226.02
902.29	226.05
902.60	225.96
902.90	225.87
903.21	225.92
903.51	225.80
903.82	225.84
904.12	225.81
904.43	225.84
904.73	225.76
905.03	225.81
905.34	226.28
905.64	226.22
905.95	226.16
906.25	226.18
906.56	226.14
906.86	226.14
907.17	226.16
907.47	226.17
907.77	226.17
908.08	226.09
908.38	226.15
908.69	226.21
908.99	226.34
909.30	226.43
909.60	226.40
909.90	226.54
910.21	226.41
910.51	226.36
910.81	226.31
911.12	226.38
911.42	226.30
911.73	225.82
912.03	225.88
912.33	226.00
912.64	226.00
912.94	226.01
913.24	225.96
913.55	225.91
913.85	225.89
914.15	225.93
914.46	226.04
914.76	225.97
915.06	225.94
915.37	225.87
915.67	225.85
915.97	225.81
916.27	225.68
916.58	225.68
916.88	225.68
917.18	225.70
917.49	225.96
917.79	225.95
918.09	226.03
918.39	226.15
918.70	226.14
919.00	226.16
919.30	226.35
919.60	226.33
919.91	226.25
920.21	226.31
920.51	226.15
920.81	226.05
921.12	226.12
921.42	226.13
921.72	226.13
922.02	226.06
922.32	226.15
922.63	226.13
922.93	226.40
923.23	226.44
923.53	226.36
923.83	226.07
924.13	226.12
924.44	226.04
924.74	226.06
925.04	226.12
925.34	226.07
925.64	225.94
925.94	225.94
926.24	226.25
926.55	226.18
926.85	226.28
927.15	226.34
927.45	226.35
927.75	226.30
928.05	226.32
928.35	226.29
928.65	226.36
928.95	226.34
929.26	226.11
929.56	226.12
929.86	226.11
930.16	226.04
930.46	226.01
930.76	226.13
931.06	225.98
931.36	225.87
931.66	225.95
931.96	225.96
932.26	226.00
932.56	225.72
932.86	225.72
933.16	225.72
933.46	225.62
933.76	225.49
934.06	225.58
934.36	225.68
934.66	225.72
934.96	225.61
935.26	225.70
935.56	225.76
935.86	225.63
936.16	225.71
936.46	225.69
936.76	225.70
937.06	225.56
937.36	225.56
937.66	225.56
937.96	225.65
938.26	225.55
938.56	225.47
938.86	225.51
939.16	225.66
939.46	225.73
939.76	225.80
940.06	225.82
940.35	225.70
940.65	225.49
940.95	225.52
941.25	225.44
941.55	225.37
941.85	225.31
942.15	225.44
942.45	225.55
942.75	225.54
943.04	225.51
943.34	225.63
943.64	225.61
943.94	225.55
944.24	225.43
944.54	225.45
944.84	225.50
945.13	225.46
945.43	225.40
945.73	225.34
946.03	225.31
946.33	225.31
946.62	225.27
946.92	225.28
947.22	225.20
947.52	225.26
947.82	225.28
948.11	225.33
948.41	225.27
948.71	225.11
949.01	225.21
949.31	225.21
949.60	225.07
949.90	225.09
950.20	225.09
950.50	225.11
950.79	225.11
951.09	225.20
951.39	225.21
951.69	225.14
951.98	225.25
952.28	225.28
952.58	225.29
952.87	225.33
953.17	225.42
953.47	225.46
953.76	225.45
954.06	225.43
954.36	225.35
954.66	225.29
954.95	225.43
955.25	225.43
955.55	225.51
955.84	225.48
956.14	225.59
956.44	225.61
956.73	225.47
957.03	225.49
957.32	225.46
957.62	225.42
957.92	225.52
958.21	225.44
958.51	225.96
958.81	226.02
959.10	226.07
959.40	226.20
959.69	226.23
959.99	226.30
960.29	226.27
960.58	226.20
960.88	226.36
961.17	226.35
961.47	226.41
961.76	226.31
962.06	226.41
962.36	226.36
962.65	226.38
962.95	226.45
963.24	226.36
963.54	226.39
963.83	226.40
964.13	226.31
964.42	226.23
964.72	225.77
965.01	225.79
965.31	225.75
965.60	225.58
965.90	225.89
966.19	225.78
966.49	225.80
966.78	225.83
967.08	225.80
967.37	225.75
967.67	225.56
967.96	225.65
968.26	225.60
968.55	225.59
968.85	225.50
969.14	225.53
969.43	225.55
969.73	225.53
970.02	225.56
970.32	225.60
970.61	225.58
970.91	225.50
971.20	225.36
971.49	225.35
971.79	225.42
972.08	225.06
972.38	225.08
972.67	225.06
972.96	225.12
973.26	225.03
973.55	225.18
973.85	225.29
974.14	225.21
974.43	225.33
974.73	225.21
975.02	225.18
975.31	225.16
975.61	225.13
975.90	225.06
976.19	225.03
976.49	225.08
976.78	225.11
977.07	225.17
977.37	225.25
977.66	225.32
977.95	225.22
978.24	225.33
978.54	225.46
978.83	225.44
979.12	225.45
979.42	225.44
979.71	225.30
980.00	225.28
980.29	225.32
980.59	225.19
980.88	225.38
981.17	225.43
981.46	225.49
981.76	225.52
982.05	225.65
982.34	225.66
982.63	225.70
982.93	225.72
983.22	225.81
983.51	225.80
983.80	225.85
984.09	225.94
984.39	225.90
984.68	225.81
984.97	225.87
985.26	225.81
985.55	225.86
985.85	225.81
986.14	225.82
986.43	225.86
986.72	225.91
987.01	225.75
987.30	225.77
987.59	225.69
987.89	225.71
988.18	225.56
988.47	225.54
988.76	225.41
989.05	225.31
989.34	225.26
989.63	225.39
989.92	225.30
990.22	225.22
990.51	225.11
990.80	225.05
991.09	225.13
991.38	225.19
991.67	225.15
991.96	225.12
992.25	225.16
992.54	225.10
992.83	225.00
993.12	224.93
993.41	224.99
993.70	225.18
993.99	225.35
994.28	225.50
994.58	225.56
994.87	225.56
995.16	225.55
995.45	225.49
995.74	225.32
996.03	225.36
996.32	225.46
996.61	225.63
996.90	225.62
997.19	225.52
997.48	225.50
997.77	225.51
998.06	225.49
998.34	225.50
998.63	225.45
998.92	225.50
999.21	225.61
999.50	225.55
999.79	225.36
1000.08	225.27
1000.37	225.25
1000.66	225.20
1000.95	225.26
1001.24	225.34
1001.53	225.37
1001.82	225.38
1002.11	225.26
1002.40	225.35
1002.68	225.49
1002.97	225.81
1003.26	225.69
1003.55	225.61
1003.84	225.62
1004.13	225.84
1004.42	225.79
1004.71	225.81
1004.99	225.76
1005.28	225.89
1005.57	225.86
1005.86	225.81
1006.15	225.73
1006.44	225.59
1006.72	225.63
1007.01	225.60
1007.30	225.56
1007.59	225.56
1007.88	225.55
1008.17	225.62
1008.45	225.46
1008.74	225.23
1009.03	224.97
1009.32	225.06
1009.60	225.09
1009.89	225.05
1010.18	224.92
1010.47	224.86
1010.76	224.88
1011.04	224.92
1011.33	224.87
1011.62	224.94
1011.91	224.98
1012.19	225.03
1012.48	225.04
1012.77	225.07
1013.05	225.29
1013.34	225.33
1013.63	225.27
1013.92	225.33
1014.20	225.30
1014.49	225.29
1014.78	225.36
1015.06	225.30
1015.35	225.30
1015.64	225.37
1015.92	225.42
1016.21	225.41
1016.50	225.50
1016.78	225.55
1017.07	225.52
1017.36	225.48
1017.64	225.44
1017.93	225.53
1018.22	225.43
1018.50	225.49
1018.79	225.42
1019.08	225.11
1019.36	225.15
1019.65	225.15
1019.93	225.27
1020.22	225.39
1020.51	225.59
1020.79	225.49
1021.08	223.35
1021.36	225.05
1021.65	224.90
1021.94	223.70
1022.22	225.60
1022.51	225.50
1022.79	228.15
1023.08	226.40
1023.36	229.90
1023.65	224.45
>>>>>End Processed Spectral Data<<<<<
