SpectraSuite Data File
++++++++++++++++++++++++++++++++++++
Date: Wed Sep 04 17:55:04 EDT 2013
User: lab3
Dark Spectrum Present: Yes
Reference Spectrum Present: No
Number of Sampled Component Spectra: 1
Spectrometers: USB2E7196
Integration Time (usec): 170000 (USB2E7196)
Spectra Averaged: 20 (USB2E7196)
Boxcar Smoothing: 10 (USB2E7196)
Correct for Electrical Dark: No (USB2E7196)
Strobe/Lamp Enabled: No (USB2E7196)
Correct for Detector Non-linearity: No (USB2E7196)
Correct for Stray Light: No (USB2E7196)
Number of Pixels in Processed Spectrum: 2048
>>>>>Begin Processed Spectral Data<<<<<
339.09	0.00
339.48	212.95
339.86	214.45
340.24	216.20
340.63	217.15
341.01	226.50
341.39	220.60
341.78	222.85
342.16	223.10
342.54	224.35
342.93	212.51
343.31	223.21
343.69	223.75
344.07	224.27
344.46	224.74
344.84	225.10
345.22	225.01
345.60	225.34
345.99	225.47
346.37	225.56
346.75	225.65
347.13	225.66
347.52	225.70
347.90	226.00
348.28	226.02
348.66	226.18
349.05	226.09
349.43	226.19
349.81	226.23
350.19	226.32
350.57	226.42
350.96	226.53
351.34	226.61
351.72	226.71
352.10	226.75
352.48	226.71
352.87	226.82
353.25	226.92
353.63	226.94
354.01	226.99
354.39	227.14
354.77	227.15
355.15	227.30
355.54	227.31
355.92	227.19
356.30	227.27
356.68	227.55
357.06	227.56
357.44	227.56
357.82	227.62
358.20	228.09
358.58	228.12
358.97	228.19
359.35	228.40
359.73	228.59
360.11	228.61
360.49	228.81
360.87	228.88
361.25	229.05
361.63	229.21
362.01	229.26
362.39	229.32
362.77	229.45
363.15	229.53
363.53	229.64
363.91	229.68
364.29	229.68
364.67	229.32
365.05	229.42
365.43	229.53
365.81	229.60
366.19	229.39
366.57	229.60
366.95	229.56
367.33	229.42
367.71	229.35
368.09	229.54
368.47	229.46
368.85	229.44
369.23	229.50
369.61	229.36
369.99	229.53
370.37	229.54
370.75	229.73
371.13	229.63
371.51	229.56
371.89	229.61
372.27	229.63
372.65	229.71
373.03	229.63
373.41	229.54
373.78	229.37
374.16	229.09
374.54	228.98
374.92	228.89
375.30	228.89
375.68	228.81
376.06	228.76
376.44	228.69
376.82	228.65
377.19	228.53
377.57	228.42
377.95	228.24
378.33	228.12
378.71	227.78
379.09	227.73
379.47	227.72
379.84	227.58
380.22	227.42
380.60	227.15
380.98	227.09
381.36	226.96
381.73	226.97
382.11	227.00
382.49	226.86
382.87	226.74
383.25	226.68
383.62	227.17
384.00	226.97
384.38	227.00
384.76	227.06
385.13	227.17
385.51	227.16
385.89	227.07
386.27	227.04
386.64	227.08
387.02	227.02
387.40	226.85
387.78	226.85
388.15	226.85
388.53	226.91
388.91	226.90
389.29	226.91
389.66	226.89
390.04	226.84
390.42	226.92
390.79	227.02
391.17	226.94
391.55	226.37
391.92	226.44
392.30	226.38
392.68	226.30
393.05	226.25
393.43	226.30
393.81	226.31
394.18	226.35
394.56	226.41
394.94	226.57
395.31	226.62
395.69	226.81
396.06	226.95
396.44	227.04
396.82	227.02
397.19	227.32
397.57	227.34
397.95	227.53
398.32	227.45
398.70	227.52
399.07	227.80
399.45	227.96
399.82	228.02
400.20	228.14
400.58	228.18
400.95	228.08
401.33	228.30
401.70	228.75
402.08	228.88
402.45	228.90
402.83	229.12
403.20	229.25
403.58	229.39
403.95	229.65
404.33	229.92
404.71	230.18
405.08	230.57
405.46	230.82
405.83	231.03
406.21	231.30
406.58	231.62
406.96	231.82
407.33	232.11
407.70	232.44
408.08	233.17
408.45	233.65
408.83	234.22
409.20	234.47
409.58	234.60
409.95	235.07
410.33	235.69
410.70	236.05
411.08	236.73
411.45	237.34
411.82	237.85
412.20	238.50
412.57	239.48
412.95	239.85
413.32	240.76
413.69	241.60
414.07	242.43
414.44	243.44
414.82	244.46
415.19	245.67
415.56	246.80
415.94	247.79
416.31	249.20
416.68	250.56
417.06	252.32
417.43	254.00
417.81	255.68
418.18	257.44
418.55	259.36
418.93	261.36
419.30	263.39
419.67	265.56
420.04	267.84
420.42	270.08
420.79	273.14
421.16	275.87
421.54	278.83
421.91	281.94
422.28	285.01
422.66	288.27
423.03	291.67
423.40	295.09
423.77	298.59
424.15	302.15
424.52	306.00
424.89	310.04
425.26	314.01
425.64	317.79
426.01	321.90
426.38	326.22
426.75	330.68
427.13	335.24
427.50	340.07
427.87	344.99
428.24	349.95
428.61	354.36
428.99	359.69
429.36	365.27
429.73	370.69
430.10	376.19
430.47	381.91
430.85	387.46
431.22	393.72
431.59	400.64
431.96	406.91
432.33	413.75
432.70	420.43
433.08	428.26
433.45	435.73
433.82	443.04
434.19	451.26
434.56	459.40
434.93	467.13
435.30	474.94
435.68	483.75
436.05	492.20
436.42	500.52
436.79	508.16
437.16	516.40
437.53	525.32
437.90	534.14
438.27	542.76
438.64	551.79
439.01	560.06
439.38	567.11
439.75	574.06
440.13	582.19
440.50	589.80
440.87	595.98
441.24	602.40
441.61	609.62
441.98	614.75
442.35	620.57
442.72	626.45
443.09	632.23
443.46	635.45
443.83	637.75
444.20	639.82
444.57	642.50
444.94	643.69
445.31	644.74
445.68	646.07
446.05	646.12
446.42	644.85
446.79	643.29
447.16	641.71
447.53	640.72
447.90	636.99
448.27	633.22
448.64	628.27
449.01	624.62
449.37	618.38
449.74	612.30
450.11	605.49
450.48	597.83
450.85	589.84
451.22	582.97
451.59	576.52
451.96	570.13
452.33	562.05
452.70	554.62
453.07	546.00
453.43	536.84
453.80	528.53
454.17	520.43
454.54	512.79
454.91	504.67
455.28	496.56
455.65	489.00
456.02	482.13
456.38	475.85
456.75	468.03
457.12	461.47
457.49	455.16
457.86	448.76
458.23	443.62
458.59	437.89
458.96	432.03
459.33	426.75
459.70	421.78
460.07	417.71
460.43	413.09
460.80	408.65
461.17	404.85
461.54	400.79
461.91	396.92
462.27	393.07
462.64	389.70
463.01	386.16
463.38	382.93
463.74	378.93
464.11	375.82
464.48	373.25
464.85	370.38
465.21	368.24
465.58	365.95
465.95	363.00
466.32	360.73
466.68	358.47
467.05	356.20
467.42	353.93
467.78	351.52
468.15	349.31
468.52	347.85
468.88	345.60
469.25	343.72
469.62	342.27
469.98	340.62
470.35	339.11
470.72	337.64
471.08	335.92
471.45	334.56
471.82	333.26
472.18	331.78
472.55	330.74
472.92	329.36
473.28	328.09
473.65	327.03
474.02	325.92
474.38	325.10
474.75	324.33
475.11	323.43
475.48	322.84
475.85	322.28
476.21	321.44
476.58	320.94
476.94	320.49
477.31	319.98
477.67	319.58
478.04	319.26
478.41	319.09
478.77	319.33
479.14	319.13
479.50	319.17
479.87	319.15
480.23	319.14
480.60	319.18
480.96	319.22
481.33	319.66
481.69	319.94
482.06	320.19
482.42	320.57
482.79	320.95
483.15	321.47
483.52	322.09
483.88	322.72
484.25	323.39
484.61	324.15
484.98	324.84
485.34	325.82
485.71	326.84
486.07	327.74
486.44	328.35
486.80	329.49
487.17	330.52
487.53	331.94
487.90	333.38
488.26	335.10
488.62	336.89
488.99	338.44
489.35	340.20
489.72	342.13
490.08	344.11
490.44	346.14
490.81	348.38
491.17	350.48
491.54	352.90
491.90	355.33
492.26	357.98
492.63	360.77
492.99	363.60
493.36	366.63
493.72	370.11
494.08	373.68
494.45	377.45
494.81	381.36
495.17	385.31
495.54	389.49
495.90	393.68
496.26	398.23
496.63	402.91
496.99	407.75
497.35	412.87
497.72	418.02
498.08	423.46
498.44	429.08
498.80	435.20
499.17	441.15
499.53	447.49
499.89	454.14
500.26	460.95
500.62	467.96
500.98	475.53
501.34	482.90
501.71	490.49
502.07	498.20
502.43	506.25
502.79	514.64
503.16	523.34
503.52	532.33
503.88	541.39
504.24	551.16
504.60	561.06
504.97	571.25
505.33	581.71
505.69	592.89
506.05	603.99
506.41	615.20
506.78	626.89
507.14	638.96
507.50	651.23
507.86	663.83
508.22	676.84
508.59	689.59
508.95	703.18
509.31	717.19
509.67	731.60
510.03	745.93
510.39	760.39
510.75	775.44
511.12	790.65
511.48	806.26
511.84	821.72
512.20	837.63
512.56	853.88
512.92	870.66
513.28	887.23
513.64	904.36
514.00	921.92
514.37	939.69
514.73	957.80
515.09	976.01
515.45	994.44
515.81	1012.76
516.17	1031.59
516.53	1050.25
516.89	1069.29
517.25	1088.39
517.61	1108.76
517.97	1129.15
518.33	1149.20
518.69	1169.57
519.05	1190.03
519.41	1210.69
519.77	1231.93
520.13	1252.80
520.49	1273.48
520.85	1296.02
521.21	1317.10
521.57	1338.41
521.93	1358.95
522.29	1379.98
522.65	1400.77
523.01	1421.74
523.37	1442.45
523.73	1463.64
524.09	1484.10
524.45	1504.50
524.81	1525.59
525.17	1546.13
525.53	1566.89
525.89	1587.70
526.25	1608.21
526.61	1628.62
526.97	1649.52
527.33	1670.61
527.68	1692.30
528.04	1713.47
528.40	1732.89
528.76	1753.87
529.12	1774.02
529.48	1795.28
529.84	1815.55
530.20	1836.58
530.56	1857.26
530.91	1878.10
531.27	1898.44
531.63	1919.18
531.99	1939.78
532.35	1959.60
532.71	1979.66
533.07	2000.06
533.42	2019.77
533.78	2039.93
534.14	2059.87
534.50	2079.10
534.86	2098.59
535.21	2115.87
535.57	2134.45
535.93	2152.17
536.29	2169.95
536.65	2188.26
537.00	2205.70
537.36	2223.08
537.72	2239.48
538.08	2256.63
538.44	2273.31
538.79	2289.70
539.15	2306.13
539.51	2322.39
539.87	2337.64
540.22	2351.69
540.58	2366.15
540.94	2379.48
541.29	2391.96
541.65	2404.73
542.01	2417.10
542.37	2427.32
542.72	2438.60
543.08	2449.06
543.44	2460.62
543.79	2470.35
544.15	2480.16
544.51	2490.16
544.87	2499.83
545.22	2508.55
545.58	2516.12
545.94	2523.26
546.29	2529.54
546.65	2535.76
547.01	2540.98
547.36	2546.39
547.72	2551.61
548.07	2555.23
548.43	2560.55
548.79	2565.36
549.14	2569.30
549.50	2573.05
549.86	2576.96
550.21	2580.70
550.57	2584.05
550.92	2585.63
551.28	2587.32
551.64	2589.34
551.99	2591.36
552.35	2592.97
552.70	2595.04
553.06	2596.72
553.41	2598.08
553.77	2600.20
554.13	2601.95
554.48	2603.76
554.84	2605.45
555.19	2607.06
555.55	2609.07
555.90	2608.21
556.26	2607.35
556.61	2605.58
556.97	2603.49
557.32	2602.84
557.68	2601.57
558.03	2600.20
558.39	2598.94
558.74	2598.10
559.10	2594.97
559.45	2591.07
559.81	2586.21
560.16	2581.14
560.52	2576.47
560.87	2572.11
561.23	2566.50
561.58	2560.36
561.94	2553.22
562.29	2545.65
562.64	2538.27
563.00	2529.84
563.35	2523.47
563.71	2516.51
564.06	2510.35
564.42	2503.84
564.77	2496.64
565.12	2489.29
565.48	2481.63
565.83	2473.55
566.19	2465.54
566.54	2457.88
566.89	2450.15
567.25	2442.82
567.60	2435.48
567.96	2427.85
568.31	2419.82
568.66	2411.06
569.02	2402.07
569.37	2394.00
569.72	2386.57
570.08	2377.65
570.43	2368.28
570.78	2359.17
571.14	2350.09
571.49	2339.98
571.84	2330.48
572.20	2319.75
572.55	2309.50
572.90	2298.56
573.26	2288.33
573.61	2277.00
573.96	2265.83
574.31	2253.64
574.67	2241.89
575.02	2229.38
575.37	2216.54
575.72	2203.29
576.08	2191.44
576.43	2178.92
576.78	2165.89
577.13	2152.04
577.49	2139.18
577.84	2127.24
578.19	2115.10
578.54	2102.35
578.90	2090.43
579.25	2078.22
579.60	2065.72
579.95	2052.64
580.30	2039.48
580.66	2025.95
581.01	2012.46
581.36	1998.38
581.71	1985.76
582.06	1972.61
582.42	1960.16
582.77	1947.63
583.12	1935.92
583.47	1923.43
583.82	1911.78
584.17	1899.75
584.53	1888.25
584.88	1875.29
585.23	1862.05
585.58	1847.66
585.93	1834.60
586.28	1821.34
586.63	1807.23
586.98	1793.12
587.34	1779.95
587.69	1766.94
588.04	1754.69
588.39	1742.81
588.74	1731.04
589.09	1718.94
589.44	1706.45
589.79	1694.19
590.14	1682.40
590.49	1670.19
590.84	1658.20
591.19	1645.97
591.54	1633.47
591.89	1621.04
592.25	1610.99
592.60	1599.62
592.95	1588.55
593.30	1576.56
593.65	1564.63
594.00	1552.90
594.35	1543.21
594.70	1531.64
595.05	1520.35
595.40	1507.91
595.75	1496.01
596.10	1484.60
596.45	1473.29
596.80	1462.33
597.15	1451.01
597.50	1438.99
597.85	1427.62
598.19	1415.90
598.54	1404.10
598.89	1393.36
599.24	1382.76
599.59	1370.95
599.94	1359.99
600.29	1349.60
600.64	1339.28
600.99	1328.30
601.34	1318.63
601.69	1307.48
602.04	1297.46
602.39	1287.59
602.74	1278.81
603.08	1269.50
603.43	1260.12
603.78	1250.38
604.13	1240.81
604.48	1231.06
604.83	1221.34
605.18	1211.47
605.53	1201.89
605.87	1192.85
606.22	1184.05
606.57	1174.80
606.92	1165.67
607.27	1156.74
607.62	1148.00
607.96	1139.64
608.31	1131.96
608.66	1123.65
609.01	1114.98
609.36	1106.48
609.70	1097.94
610.05	1089.01
610.40	1080.37
610.75	1071.56
611.10	1063.15
611.44	1054.47
611.79	1046.28
612.14	1038.68
612.49	1030.75
612.83	1023.34
613.18	1015.67
613.53	1007.95
613.88	1000.06
614.22	992.24
614.57	984.49
614.92	976.62
615.27	968.82
615.61	960.98
615.96	953.25
616.31	945.76
616.65	938.68
617.00	931.37
617.35	924.03
617.70	916.90
618.04	910.04
618.39	903.20
618.74	896.87
619.08	889.90
619.43	882.80
619.78	875.80
620.12	868.70
620.47	861.61
620.82	854.46
621.16	847.52
621.51	841.19
621.85	834.90
622.20	828.20
622.55	821.62
622.89	815.35
623.24	808.84
623.59	802.54
623.93	796.11
624.28	789.87
624.62	784.33
624.97	778.64
625.32	772.74
625.66	766.58
626.01	760.54
626.35	755.12
626.70	749.57
627.04	744.29
627.39	738.78
627.73	733.59
628.08	728.34
628.43	723.10
628.77	717.55
629.12	712.19
629.46	707.33
629.81	702.63
630.15	697.89
630.50	693.19
630.84	688.48
631.19	683.70
631.53	679.14
631.88	673.88
632.22	668.80
632.57	664.40
632.91	660.08
633.26	655.61
633.60	651.07
633.95	646.31
634.29	641.69
634.64	637.39
634.98	632.59
635.32	628.35
635.67	624.36
636.01	620.21
636.36	616.00
636.70	612.10
637.05	607.98
637.39	603.72
637.73	599.66
638.08	595.76
638.42	591.60
638.77	587.29
639.11	582.98
639.45	578.77
639.80	574.48
640.14	570.27
640.49	566.33
640.83	562.47
641.17	558.94
641.52	555.12
641.86	551.38
642.20	548.24
642.55	544.42
642.89	540.66
643.23	537.18
643.58	533.97
643.92	530.23
644.26	526.68
644.61	523.39
644.95	519.99
645.29	516.51
645.64	513.42
645.98	510.36
646.32	507.61
646.66	504.57
647.01	501.40
647.35	498.66
647.69	495.76
648.04	492.96
648.38	490.12
648.72	487.21
649.06	484.20
649.41	481.13
649.75	478.16
650.09	475.27
650.43	472.30
650.78	469.33
651.12	466.58
651.46	463.75
651.80	460.95
652.14	458.18
652.49	455.64
652.83	452.98
653.17	450.39
653.51	447.53
653.85	445.15
654.20	442.83
654.54	440.15
654.88	437.56
655.22	435.28
655.56	432.99
655.90	430.79
656.25	428.41
656.59	426.23
656.93	424.07
657.27	421.96
657.61	419.63
657.95	417.30
658.29	415.11
658.64	413.01
658.98	410.84
659.32	408.63
659.66	406.39
660.00	404.34
660.34	402.30
660.68	400.47
661.02	398.37
661.36	396.35
661.70	394.33
662.05	392.30
662.39	390.22
662.73	388.37
663.07	386.62
663.41	384.85
663.75	382.90
664.09	381.05
664.43	379.15
664.77	377.61
665.11	375.94
665.45	374.28
665.79	372.73
666.13	371.08
666.47	369.52
666.81	367.80
667.15	366.09
667.49	364.60
667.83	363.20
668.17	361.70
668.51	360.18
668.85	358.95
669.19	357.76
669.53	356.24
669.87	354.64
670.21	353.03
670.55	351.65
670.89	350.65
671.23	349.39
671.57	348.03
671.91	346.61
672.25	345.30
672.58	344.17
672.92	342.62
673.26	341.37
673.60	340.12
673.94	338.98
674.28	337.87
674.62	336.71
674.96	335.38
675.30	334.29
675.64	333.09
675.97	331.74
676.31	330.46
676.65	329.29
676.99	328.32
677.33	327.20
677.67	326.20
678.01	324.74
678.34	323.73
678.68	322.79
679.02	321.81
679.36	320.82
679.70	319.68
680.04	318.87
680.37	317.92
680.71	317.00
681.05	316.20
681.39	315.31
681.73	314.37
682.06	313.47
682.40	312.58
682.74	311.76
683.08	311.18
683.42	310.30
683.75	309.51
684.09	308.66
684.43	307.85
684.77	306.98
685.10	306.30
685.44	305.42
685.78	304.61
686.12	303.78
686.45	303.00
686.79	302.22
687.13	301.49
687.46	300.70
687.80	300.03
688.14	299.11
688.48	298.41
688.81	297.62
689.15	296.94
689.49	296.29
689.82	295.66
690.16	294.68
690.50	294.00
690.83	293.22
691.17	292.36
691.51	291.76
691.84	291.15
692.18	290.38
692.52	289.69
692.85	289.12
693.19	288.67
693.52	287.95
693.86	287.23
694.20	286.62
694.53	286.02
694.87	285.32
695.21	284.80
695.54	284.19
695.88	283.56
696.21	282.82
696.55	282.03
696.88	281.32
697.22	280.67
697.56	280.14
697.89	279.50
698.23	279.03
698.56	278.40
698.90	277.90
699.23	277.31
699.57	276.86
699.90	276.22
700.24	275.65
700.58	275.30
700.91	274.89
701.25	274.77
701.58	274.57
701.92	274.19
702.25	273.68
702.59	273.14
702.92	272.77
703.26	272.39
703.59	272.01
703.93	272.00
704.26	271.68
704.60	271.27
704.93	270.92
705.26	270.50
705.60	270.17
705.93	269.66
706.27	269.54
706.60	269.22
706.94	269.12
707.27	268.58
707.61	268.16
707.94	267.80
708.27	267.01
708.61	266.29
708.94	265.89
709.28	265.52
709.61	265.10
709.94	264.64
710.28	264.25
710.61	263.90
710.95	263.09
711.28	263.03
711.61	262.65
711.95	262.40
712.28	262.00
712.61	261.64
712.95	261.59
713.28	261.40
713.61	260.98
713.95	260.47
714.28	260.18
714.61	259.81
714.95	259.43
715.28	259.07
715.61	258.76
715.95	258.43
716.28	258.08
716.61	257.87
716.95	257.52
717.28	257.23
717.61	256.95
717.94	256.64
718.28	255.98
718.61	255.74
718.94	255.39
719.27	255.18
719.61	254.88
719.94	254.42
720.27	253.81
720.60	253.45
720.94	253.17
721.27	252.95
721.60	252.79
721.93	252.59
722.27	252.56
722.60	252.40
722.93	252.08
723.26	251.98
723.59	251.68
723.93	251.58
724.26	251.35
724.59	251.18
724.92	251.01
725.25	250.96
725.59	250.69
725.92	250.50
726.25	250.25
726.58	250.10
726.91	249.91
727.24	249.76
727.57	249.55
727.91	249.32
728.24	249.23
728.57	248.98
728.90	248.85
729.23	248.39
729.56	248.42
729.89	248.30
730.22	248.06
730.55	247.84
730.89	247.61
731.22	247.50
731.55	247.18
731.88	247.07
732.21	246.86
732.54	246.65
732.87	246.52
733.20	246.40
733.53	246.16
733.86	246.05
734.19	245.80
734.52	245.77
734.85	245.89
735.18	245.57
735.51	245.59
735.84	245.47
736.17	245.58
736.50	245.13
736.83	245.53
737.16	245.31
737.49	245.23
737.82	245.09
738.15	244.93
738.48	244.87
738.81	244.69
739.14	244.44
739.47	244.28
739.80	244.09
740.13	243.97
740.46	243.82
740.79	243.52
741.12	243.48
741.45	243.26
741.78	242.88
742.11	242.95
742.44	242.64
742.77	242.60
743.10	242.32
743.43	242.19
743.75	241.53
744.08	242.00
744.41	241.82
744.74	241.61
745.07	241.41
745.40	241.40
745.73	241.44
746.06	241.36
746.39	241.34
746.71	241.14
747.04	240.95
747.37	240.80
747.70	240.83
748.03	240.70
748.36	240.69
748.68	240.55
749.01	240.23
749.34	240.13
749.67	239.97
750.00	239.92
750.33	240.14
750.65	240.07
750.98	239.42
751.31	239.30
751.64	239.22
751.97	239.41
752.29	239.21
752.62	238.85
752.95	238.70
753.28	238.50
753.60	238.37
753.93	238.44
754.26	238.34
754.59	238.10
754.91	237.94
755.24	237.79
755.57	237.70
755.90	237.59
756.22	237.48
756.55	237.26
756.88	237.14
757.20	236.79
757.53	236.56
757.86	236.41
758.19	236.38
758.51	236.27
758.84	235.90
759.17	235.76
759.49	235.73
759.82	235.90
760.15	235.84
760.47	235.76
760.80	235.49
761.13	235.50
761.45	235.35
761.78	235.31
762.11	235.17
762.43	234.96
762.76	234.86
763.08	234.80
763.41	234.74
763.74	234.61
764.06	234.55
764.39	234.52
764.71	234.44
765.04	234.31
765.37	234.23
765.69	234.14
766.02	234.03
766.34	233.96
766.67	233.66
767.00	233.72
767.32	233.92
767.65	234.11
767.97	234.02
768.30	234.00
768.62	233.92
768.95	233.85
769.27	233.82
769.60	233.90
769.92	233.69
770.25	233.52
770.57	233.42
770.90	233.25
771.22	233.14
771.55	233.11
771.87	233.05
772.20	233.01
772.52	233.35
772.85	233.92
773.17	233.82
773.50	233.73
773.82	233.57
774.15	233.33
774.47	232.97
774.80	232.86
775.12	232.86
775.45	232.80
775.77	232.72
776.09	232.75
776.42	232.69
776.74	232.86
777.07	232.87
777.39	232.80
777.72	232.84
778.04	232.89
778.36	232.81
778.69	232.82
779.01	232.79
779.33	232.39
779.66	231.77
779.98	231.79
780.31	231.80
780.63	231.92
780.95	231.98
781.28	232.00
781.60	231.94
781.92	231.87
782.25	231.89
782.57	231.92
782.89	231.83
783.22	231.71
783.54	231.50
783.86	231.44
784.19	231.44
784.51	231.46
784.83	231.31
785.16	231.30
785.48	231.20
785.80	231.17
786.12	231.07
786.45	231.04
786.77	230.95
787.09	230.86
787.42	230.64
787.74	230.57
788.06	230.61
788.38	230.55
788.71	230.44
789.03	230.39
789.35	230.43
789.67	230.35
789.99	230.34
790.32	230.29
790.64	230.38
790.96	230.58
791.28	230.45
791.61	230.39
791.93	230.32
792.25	230.28
792.57	230.58
792.89	230.46
793.21	230.42
793.54	230.30
793.86	230.18
794.18	230.20
794.50	230.00
794.82	229.88
795.14	229.87
795.47	229.92
795.79	229.81
796.11	229.56
796.43	229.45
796.75	229.38
797.07	229.38
797.39	229.25
797.71	228.95
798.04	228.89
798.36	228.84
798.68	228.79
799.00	228.76
799.32	228.45
799.64	228.52
799.96	228.47
800.28	228.59
800.60	228.57
800.92	228.58
801.24	228.56
801.56	228.65
801.89	228.61
802.21	228.64
802.53	228.61
802.85	228.76
803.17	229.05
803.49	228.99
803.81	228.91
804.13	228.92
804.45	228.84
804.77	228.88
805.09	228.89
805.41	228.80
805.73	228.71
806.05	228.66
806.37	228.68
806.69	228.69
807.01	228.67
807.33	228.72
807.65	228.58
807.97	228.85
808.28	228.73
808.60	228.77
808.92	228.68
809.24	228.91
809.56	228.82
809.88	228.72
810.20	228.67
810.52	228.75
810.84	228.65
811.16	228.60
811.48	228.51
811.80	228.63
812.12	228.67
812.43	228.82
812.75	228.83
813.07	228.75
813.39	228.81
813.71	228.69
814.03	228.64
814.35	228.64
814.67	228.45
814.98	228.42
815.30	228.37
815.62	228.34
815.94	228.00
816.26	228.26
816.58	228.04
816.89	228.17
817.21	228.12
817.53	228.14
817.85	228.24
818.17	228.24
818.48	228.12
818.80	228.21
819.12	228.06
819.44	227.93
819.76	227.94
820.07	227.88
820.39	227.87
820.71	227.85
821.03	227.85
821.34	227.74
821.66	227.75
821.98	227.75
822.30	227.68
822.61	228.05
822.93	227.79
823.25	227.83
823.57	227.79
823.88	227.91
824.20	227.88
824.52	227.83
824.83	227.83
825.15	227.80
825.47	227.78
825.79	227.82
826.10	227.87
826.42	227.84
826.74	227.86
827.05	227.89
827.37	227.99
827.69	227.93
828.00	227.96
828.32	228.03
828.64	227.96
828.95	228.23
829.27	228.06
829.58	227.99
829.90	228.06
830.22	228.06
830.53	227.92
830.85	227.91
831.17	227.80
831.48	227.82
831.80	227.81
832.11	227.72
832.43	227.61
832.75	227.55
833.06	227.80
833.38	227.69
833.69	227.68
834.01	227.58
834.32	227.56
834.64	227.57
834.96	227.54
835.27	227.50
835.59	227.36
835.90	227.29
836.22	227.35
836.53	227.24
836.85	227.17
837.16	227.63
837.48	227.65
837.79	227.82
838.11	227.84
838.42	227.81
838.74	227.89
839.05	227.89
839.37	227.96
839.68	227.65
840.00	227.66
840.31	227.73
840.63	227.72
840.94	227.80
841.26	227.73
841.57	227.66
841.88	227.80
842.20	227.62
842.51	227.55
842.83	227.49
843.14	227.93
843.46	227.95
843.77	227.64
844.08	227.62
844.40	227.50
844.71	227.44
845.03	227.46
845.34	227.43
845.65	227.48
845.97	227.42
846.28	227.45
846.60	227.44
846.91	227.36
847.22	227.37
847.54	227.43
847.85	227.42
848.16	227.40
848.48	227.27
848.79	227.52
849.10	227.59
849.42	227.59
849.73	227.13
850.04	227.11
850.36	227.04
850.67	227.13
850.98	227.14
851.30	227.14
851.61	227.09
851.92	227.05
852.23	227.19
852.55	227.20
852.86	227.27
853.17	227.32
853.49	227.39
853.80	227.48
854.11	227.47
854.42	227.52
854.74	227.50
855.05	227.52
855.36	227.32
855.67	227.32
855.99	227.31
856.30	227.85
856.61	227.80
856.92	227.70
857.23	227.63
857.55	227.60
857.86	227.58
858.17	227.63
858.48	227.60
858.79	227.38
859.11	227.39
859.42	227.27
859.73	227.19
860.04	227.12
860.35	226.97
860.66	226.82
860.98	226.85
861.29	226.87
861.60	226.84
861.91	226.86
862.22	226.77
862.53	226.67
862.84	226.10
863.16	226.21
863.47	226.17
863.78	226.14
864.09	226.17
864.40	226.18
864.71	226.16
865.02	226.21
865.33	226.22
865.64	226.12
865.95	226.21
866.27	226.47
866.58	226.48
866.89	226.61
867.20	226.65
867.51	226.64
867.82	226.63
868.13	226.78
868.44	226.76
868.75	226.91
869.06	227.00
869.37	227.10
869.68	226.96
869.99	226.97
870.30	227.04
870.61	227.11
870.92	227.03
871.23	227.03
871.54	227.07
871.85	227.20
872.16	227.29
872.47	227.25
872.78	227.01
873.09	227.10
873.40	227.01
873.71	226.97
874.02	226.98
874.33	226.91
874.64	226.86
874.95	226.95
875.26	226.82
875.56	226.85
875.87	226.83
876.18	226.87
876.49	227.39
876.80	227.35
877.11	227.28
877.42	227.37
877.73	227.37
878.04	227.31
878.35	227.36
878.66	227.44
878.96	227.41
879.27	227.43
879.58	227.35
879.89	227.32
880.20	227.51
880.51	227.48
880.82	227.53
881.12	227.45
881.43	227.38
881.74	227.33
882.05	227.32
882.36	227.36
882.67	227.44
882.97	226.90
883.28	226.83
883.59	226.80
883.90	226.92
884.21	227.05
884.51	227.09
884.82	226.94
885.13	226.93
885.44	226.96
885.74	226.97
886.05	227.00
886.36	227.03
886.67	226.91
886.98	227.14
887.28	227.21
887.59	227.29
887.90	227.26
888.20	227.26
888.51	227.27
888.82	227.20
889.13	227.27
889.43	227.73
889.74	227.74
890.05	227.81
890.35	227.65
890.66	227.56
890.97	227.49
891.28	227.49
891.58	227.44
891.89	227.45
892.20	227.38
892.50	227.29
892.81	227.33
893.12	227.25
893.42	227.00
893.73	227.00
894.04	227.01
894.34	227.07
894.65	227.03
894.95	226.98
895.26	226.96
895.57	227.06
895.87	226.59
896.18	226.65
896.48	226.61
896.79	226.61
897.10	226.68
897.40	226.69
897.71	226.77
898.01	226.77
898.32	226.82
898.63	226.78
898.93	226.82
899.24	226.73
899.54	226.76
899.85	226.72
900.15	226.68
900.46	226.60
900.76	226.62
901.07	226.62
901.38	226.60
901.68	226.65
901.99	226.41
902.29	226.39
902.60	226.36
902.90	226.28
903.21	226.26
903.51	226.14
903.82	226.24
904.12	226.15
904.43	226.08
904.73	226.01
905.03	226.04
905.34	226.49
905.64	226.46
905.95	226.45
906.25	226.45
906.56	226.43
906.86	226.43
907.17	226.42
907.47	226.46
907.77	226.45
908.08	226.40
908.38	226.41
908.69	226.43
908.99	226.53
909.30	226.58
909.60	226.55
909.90	226.65
910.21	226.46
910.51	226.44
910.81	226.46
911.12	226.48
911.42	226.54
911.73	226.06
912.03	226.09
912.33	226.16
912.64	226.24
912.94	226.15
913.24	226.12
913.55	226.11
913.85	226.10
914.15	226.25
914.46	226.31
914.76	226.28
915.06	226.34
915.37	226.30
915.67	226.28
915.97	226.36
916.27	226.24
916.58	226.35
916.88	226.39
917.18	226.44
917.49	226.75
917.79	226.70
918.09	226.73
918.39	226.89
918.70	226.93
919.00	226.94
919.30	227.23
919.60	227.16
919.91	227.10
920.21	227.15
920.51	226.97
920.81	226.92
921.12	227.04
921.42	226.90
921.72	226.90
922.02	227.01
922.32	227.05
922.63	227.08
922.93	227.34
923.23	227.36
923.53	227.35
923.83	227.09
924.13	227.15
924.44	227.19
924.74	227.27
925.04	227.38
925.34	227.27
925.64	227.07
925.94	227.11
926.24	227.31
926.55	227.24
926.85	227.37
927.15	227.39
927.45	227.42
927.75	227.49
928.05	227.47
928.35	227.44
928.65	227.50
928.95	227.58
929.26	227.31
929.56	227.40
929.86	227.38
930.16	227.28
930.46	227.27
930.76	227.25
931.06	227.00
931.36	226.87
931.66	226.98
931.96	227.10
932.26	227.17
932.56	227.00
932.86	227.02
933.16	227.04
933.46	226.97
933.76	226.86
934.06	226.99
934.36	227.09
934.66	227.05
934.96	226.91
935.26	226.89
935.56	226.96
935.86	226.80
936.16	226.70
936.46	226.69
936.76	226.60
937.06	226.55
937.36	226.58
937.66	226.57
937.96	226.53
938.26	226.31
938.56	226.22
938.86	226.22
939.16	226.34
939.46	226.40
939.76	226.41
940.06	226.36
940.35	226.24
940.65	226.02
940.95	226.01
941.25	225.91
941.55	225.85
941.85	225.84
942.15	225.94
942.45	226.11
942.75	226.14
943.04	226.16
943.34	226.26
943.64	226.23
943.94	226.20
944.24	226.16
944.54	226.28
944.84	226.30
945.13	226.27
945.43	226.11
945.73	226.03
946.03	225.97
946.33	225.93
946.62	225.91
946.92	225.96
947.22	225.91
947.52	226.00
947.82	226.02
948.11	225.96
948.41	225.82
948.71	225.67
949.01	225.66
949.31	225.61
949.60	225.54
949.90	225.61
950.20	225.55
950.50	225.57
950.79	225.53
951.09	225.58
951.39	225.53
951.69	225.50
951.98	225.60
952.28	225.70
952.58	225.77
952.87	225.73
953.17	225.71
953.47	225.73
953.76	225.71
954.06	225.65
954.36	225.60
954.66	225.68
954.95	225.86
955.25	225.99
955.55	226.05
955.84	225.96
956.14	226.02
956.44	226.04
956.73	225.93
957.03	225.92
957.32	225.93
957.62	225.92
957.92	225.98
958.21	225.89
958.51	226.31
958.81	226.27
959.10	226.35
959.40	226.51
959.69	226.53
959.99	226.60
960.29	226.63
960.58	226.58
960.88	226.67
961.17	226.51
961.47	226.50
961.76	226.39
962.06	226.52
962.36	226.37
962.65	226.35
962.95	226.39
963.24	226.32
963.54	226.30
963.83	226.37
964.13	226.38
964.42	226.33
964.72	225.98
965.01	226.03
965.31	226.01
965.60	225.86
965.90	226.08
966.19	226.07
966.49	226.05
966.78	226.04
967.08	226.01
967.37	226.04
967.67	225.95
967.96	226.08
968.26	226.00
968.55	226.11
968.85	226.13
969.14	226.15
969.43	226.15
969.73	226.14
970.02	226.06
970.32	226.02
970.61	225.93
970.91	225.81
971.20	225.72
971.49	225.61
971.79	225.72
972.08	225.42
972.38	225.42
972.67	225.42
972.96	225.50
973.26	225.36
973.55	225.58
973.85	225.55
974.14	225.55
974.43	225.57
974.73	225.49
975.02	225.47
975.31	225.48
975.61	225.48
975.90	225.46
976.19	225.45
976.49	225.55
976.78	225.64
977.07	225.71
977.37	225.82
977.66	225.91
977.95	225.88
978.24	225.96
978.54	226.06
978.83	226.07
979.12	226.07
979.42	226.16
979.71	226.00
980.00	225.98
980.29	226.04
980.59	226.05
980.88	226.16
981.17	226.19
981.46	226.15
981.76	226.21
982.05	226.37
982.34	226.44
982.63	226.40
982.93	226.38
983.22	226.47
983.51	226.51
983.80	226.66
984.09	226.70
984.39	226.70
984.68	226.61
984.97	226.62
985.26	226.60
985.55	226.61
985.85	226.50
986.14	226.62
986.43	226.56
986.72	226.53
987.01	226.40
987.30	226.33
987.59	226.37
987.89	226.32
988.18	226.14
988.47	226.13
988.76	226.12
989.05	226.13
989.34	226.02
989.63	226.11
989.92	225.98
990.22	225.89
990.51	225.88
990.80	225.79
991.09	225.82
991.38	225.83
991.67	225.78
991.96	225.84
992.25	225.82
992.54	225.76
992.83	225.80
993.12	225.80
993.41	225.89
993.70	226.05
993.99	226.13
994.28	226.24
994.58	226.34
994.87	226.29
995.16	226.23
995.45	226.17
995.74	226.00
996.03	226.04
996.32	226.09
996.61	226.14
996.90	226.17
997.19	226.11
997.48	226.11
997.77	226.12
998.06	226.13
998.34	226.10
998.63	226.13
998.92	226.10
999.21	226.17
999.50	226.20
999.79	226.04
1000.08	226.07
1000.37	226.04
1000.66	225.97
1000.95	226.09
1001.24	226.15
1001.53	226.26
1001.82	226.30
1002.11	226.21
1002.40	226.26
1002.68	226.41
1002.97	226.73
1003.26	226.71
1003.55	226.59
1003.84	226.66
1004.13	226.82
1004.42	226.79
1004.71	226.78
1004.99	226.80
1005.28	226.94
1005.57	226.94
1005.86	226.87
1006.15	226.85
1006.44	226.80
1006.72	226.79
1007.01	226.74
1007.30	226.79
1007.59	226.73
1007.88	226.66
1008.17	226.81
1008.45	226.71
1008.74	226.56
1009.03	226.35
1009.32	226.39
1009.60	226.55
1009.89	226.47
1010.18	226.28
1010.47	226.27
1010.76	226.24
1011.04	226.17
1011.33	226.15
1011.62	226.19
1011.91	226.33
1012.19	226.34
1012.48	226.33
1012.77	226.26
1013.05	226.43
1013.34	226.36
1013.63	226.33
1013.92	226.34
1014.20	226.22
1014.49	226.25
1014.78	226.23
1015.06	226.05
1015.35	226.03
1015.64	226.09
1015.92	226.14
1016.21	226.10
1016.50	226.06
1016.78	226.18
1017.07	226.27
1017.36	226.16
1017.64	226.06
1017.93	226.01
1018.22	225.94
1018.50	225.91
1018.79	225.92
1019.08	225.70
1019.36	225.77
1019.65	225.73
1019.93	225.80
1020.22	225.82
1020.51	226.06
1020.79	226.01
1021.08	225.05
1021.36	224.85
1021.65	225.10
1021.94	225.35
1022.22	226.60
1022.51	224.70
1022.79	226.75
1023.08	226.15
1023.36	231.85
1023.65	224.95
>>>>>End Processed Spectral Data<<<<<
