SpectraSuite Data File
++++++++++++++++++++++++++++++++++++
Date: Wed Sep 04 18:01:41 EDT 2013
User: lab3
Dark Spectrum Present: Yes
Reference Spectrum Present: No
Number of Sampled Component Spectra: 1
Spectrometers: USB2E7196
Integration Time (usec): 170000 (USB2E7196)
Spectra Averaged: 20 (USB2E7196)
Boxcar Smoothing: 10 (USB2E7196)
Correct for Electrical Dark: No (USB2E7196)
Strobe/Lamp Enabled: No (USB2E7196)
Correct for Detector Non-linearity: No (USB2E7196)
Correct for Stray Light: No (USB2E7196)
Number of Pixels in Processed Spectrum: 2048
>>>>>Begin Processed Spectral Data<<<<<
339.09	0.00
339.48	213.80
339.86	214.75
340.24	215.80
340.63	218.30
341.01	226.45
341.39	220.65
341.78	221.85
342.16	224.60
342.54	222.45
342.93	212.75
343.31	223.41
343.69	224.00
344.07	224.52
344.46	225.00
344.84	225.39
345.22	225.37
345.60	225.66
345.99	225.87
346.37	225.96
346.75	226.07
347.13	226.09
347.52	226.16
347.90	226.34
348.28	226.38
348.66	226.54
349.05	226.46
349.43	226.57
349.81	226.70
350.19	226.70
350.57	226.75
350.96	226.80
351.34	226.99
351.72	227.03
352.10	227.06
352.48	227.15
352.87	227.16
353.25	227.20
353.63	227.25
354.01	227.28
354.39	227.46
354.77	227.62
355.15	227.81
355.54	227.74
355.92	227.72
356.30	227.79
356.68	228.18
357.06	228.24
357.44	228.20
357.82	228.20
358.20	228.70
358.58	228.69
358.97	228.80
359.35	228.87
359.73	228.98
360.11	229.06
360.49	229.15
360.87	229.23
361.25	229.35
361.63	229.57
362.01	229.69
362.39	229.66
362.77	229.73
363.15	229.73
363.53	229.85
363.91	229.90
364.29	229.92
364.67	229.49
365.05	229.53
365.43	229.61
365.81	229.70
366.19	229.60
366.57	229.82
366.95	229.83
367.33	229.74
367.71	229.83
368.09	229.91
368.47	229.87
368.85	229.85
369.23	229.85
369.61	229.61
369.99	229.71
370.37	229.69
370.75	229.85
371.13	229.71
371.51	229.58
371.89	229.55
372.27	229.57
372.65	229.58
373.03	229.56
373.41	229.39
373.78	229.29
374.16	228.89
374.54	228.70
374.92	228.60
375.30	228.60
375.68	228.33
376.06	228.34
376.44	228.22
376.82	228.23
377.19	228.18
377.57	228.13
377.95	227.91
378.33	227.86
378.71	227.47
379.09	227.47
379.47	227.49
379.84	227.37
380.22	227.20
380.60	227.02
380.98	226.93
381.36	226.90
381.73	226.76
382.11	226.77
382.49	226.76
382.87	226.63
383.25	226.53
383.62	227.13
384.00	226.90
384.38	226.95
384.76	226.93
385.13	227.08
385.51	226.96
385.89	226.82
386.27	226.72
386.64	226.82
387.02	226.71
387.40	226.64
387.78	226.60
388.15	226.69
388.53	226.69
388.91	226.65
389.29	226.64
389.66	226.73
390.04	226.70
390.42	226.77
390.79	226.82
391.17	226.82
391.55	226.23
391.92	226.25
392.30	226.22
392.68	226.16
393.05	226.09
393.43	226.19
393.81	226.31
394.18	226.30
394.56	226.36
394.94	226.56
395.31	226.46
395.69	226.65
396.06	226.71
396.44	226.77
396.82	226.78
397.19	227.08
397.57	227.10
397.95	227.27
398.32	227.20
398.70	227.26
399.07	227.48
399.45	227.57
399.82	227.69
400.20	227.79
400.58	227.86
400.95	227.85
401.33	228.11
401.70	228.54
402.08	228.63
402.45	228.71
402.83	228.93
403.20	229.23
403.58	229.38
403.95	229.58
404.33	229.82
404.71	230.09
405.08	230.56
405.46	230.80
405.83	230.99
406.21	231.22
406.58	231.58
406.96	231.89
407.33	232.29
407.70	232.69
408.08	233.44
408.45	233.92
408.83	234.39
409.20	234.71
409.58	234.82
409.95	235.44
410.33	235.98
410.70	236.32
411.08	236.88
411.45	237.45
411.82	237.99
412.20	238.82
412.57	239.80
412.95	240.10
413.32	241.01
413.69	241.79
414.07	242.80
414.44	243.76
414.82	244.66
415.19	245.79
415.56	246.96
415.94	247.97
416.31	249.31
416.68	250.72
417.06	252.24
417.43	253.87
417.81	255.66
418.18	257.56
418.55	259.49
418.93	261.52
419.30	263.66
419.67	265.93
420.04	268.15
420.42	270.40
420.79	273.46
421.16	276.17
421.54	279.32
421.91	282.26
422.28	285.34
422.66	288.75
423.03	292.19
423.40	295.54
423.77	299.03
424.15	302.69
424.52	306.56
424.89	310.83
425.26	314.85
425.64	318.58
426.01	322.70
426.38	327.20
426.75	331.77
427.13	336.37
427.50	341.11
427.87	346.12
428.24	351.12
428.61	355.71
428.99	361.19
429.36	366.70
429.73	372.25
430.10	377.69
430.47	383.28
430.85	389.05
431.22	395.25
431.59	402.11
431.96	408.40
432.33	415.27
432.70	421.91
433.08	429.81
433.45	437.30
433.82	444.73
434.19	452.90
434.56	461.15
434.93	468.85
435.30	476.75
435.68	485.40
436.05	493.80
436.42	502.23
436.79	509.88
437.16	518.31
437.53	527.30
437.90	536.13
438.27	544.90
438.64	553.74
439.01	562.20
439.38	569.37
439.75	576.55
440.13	584.67
440.50	592.30
440.87	598.50
441.24	605.00
441.61	612.10
441.98	617.19
442.35	623.06
442.72	629.21
443.09	634.97
443.46	638.26
443.83	640.68
444.20	642.50
444.57	645.22
444.94	646.44
445.31	647.54
445.68	649.10
446.05	649.14
446.42	647.90
446.79	646.42
447.16	644.93
447.53	643.65
447.90	639.86
448.27	636.12
448.64	631.23
449.01	627.51
449.37	621.29
449.74	615.30
450.11	608.35
450.48	600.44
450.85	592.22
451.22	585.41
451.59	578.82
451.96	572.56
452.33	564.40
452.70	556.77
453.07	547.93
453.43	538.52
453.80	530.11
454.17	522.02
454.54	514.32
454.91	505.93
455.28	497.96
455.65	490.62
456.02	483.77
456.38	477.29
456.75	469.38
457.12	462.85
457.49	456.57
457.86	450.08
458.23	444.95
458.59	439.45
458.96	433.73
459.33	428.62
459.70	423.55
460.07	419.35
460.43	414.62
460.80	410.40
461.17	406.66
461.54	402.57
461.91	398.69
462.27	394.80
462.64	391.61
463.01	387.91
463.38	384.56
463.74	380.59
464.11	377.59
464.48	374.90
464.85	371.92
465.21	369.68
465.58	367.32
465.95	364.53
466.32	362.22
466.68	359.77
467.05	357.43
467.42	355.13
467.78	352.82
468.15	350.71
468.52	349.02
468.88	346.78
469.25	344.97
469.62	343.57
469.98	341.92
470.35	340.34
470.72	338.96
471.08	337.20
471.45	335.90
471.82	334.58
472.18	333.18
472.55	332.20
472.92	330.75
473.28	329.60
473.65	328.41
474.02	327.40
474.38	326.58
474.75	325.88
475.11	325.06
475.48	324.37
475.85	323.69
476.21	323.06
476.58	322.63
476.94	322.14
477.31	321.60
477.67	321.12
478.04	320.84
478.41	320.60
478.77	320.94
479.14	320.72
479.50	320.63
479.87	320.64
480.23	320.58
480.60	320.61
480.96	320.71
481.33	321.15
481.69	321.34
482.06	321.52
482.42	321.70
482.79	322.08
483.15	322.62
483.52	323.34
483.88	323.75
484.25	324.35
484.61	324.93
484.98	325.60
485.34	326.64
485.71	327.53
486.07	328.50
486.44	329.03
486.80	330.01
487.17	331.19
487.53	332.61
487.90	334.00
488.26	335.66
488.62	337.41
488.99	338.86
489.35	340.64
489.72	342.53
490.08	344.49
490.44	346.48
490.81	348.74
491.17	350.86
491.54	353.35
491.90	355.99
492.26	358.88
492.63	361.70
492.99	364.45
493.36	367.55
493.72	370.92
494.08	374.40
494.45	378.19
494.81	382.08
495.17	386.03
495.54	390.26
495.90	394.59
496.26	398.92
496.63	403.62
496.99	408.44
497.35	413.55
497.72	418.92
498.08	424.38
498.44	430.04
498.80	436.06
499.17	442.10
499.53	448.27
499.89	454.75
500.26	461.67
500.62	468.61
500.98	475.99
501.34	483.43
501.71	491.18
502.07	499.02
502.43	507.09
502.79	515.50
503.16	524.14
503.52	533.18
503.88	542.46
504.24	552.13
504.60	562.21
504.97	572.59
505.33	582.88
505.69	594.09
506.05	605.26
506.41	616.64
506.78	628.38
507.14	640.60
507.50	653.07
507.86	665.70
508.22	678.83
508.59	692.07
508.95	705.78
509.31	720.01
509.67	734.39
510.03	748.86
510.39	763.49
510.75	778.65
511.12	793.79
511.48	809.50
511.84	825.17
512.20	841.01
512.56	857.29
512.92	874.36
513.28	891.08
513.64	908.22
514.00	925.58
514.37	943.40
514.73	961.56
515.09	979.75
515.45	998.08
515.81	1016.57
516.17	1035.18
516.53	1053.77
516.89	1072.29
517.25	1091.51
517.61	1111.84
517.97	1132.25
518.33	1152.13
518.69	1172.32
519.05	1192.96
519.41	1213.84
519.77	1235.08
520.13	1255.96
520.49	1276.91
520.85	1299.38
521.21	1320.65
521.57	1342.02
521.93	1363.01
522.29	1384.05
522.65	1404.94
523.01	1426.13
523.37	1446.85
523.73	1467.97
524.09	1488.70
524.45	1509.81
524.81	1530.83
525.17	1551.31
525.53	1571.76
525.89	1593.05
526.25	1614.09
526.61	1634.51
526.97	1655.61
527.33	1676.98
527.68	1698.93
528.04	1720.00
528.40	1739.67
528.76	1760.75
529.12	1781.09
529.48	1801.96
529.84	1822.18
530.20	1843.37
530.56	1864.29
530.91	1885.49
531.27	1906.08
531.63	1927.03
531.99	1947.78
532.35	1967.98
532.71	1988.18
533.07	2009.08
533.42	2028.86
533.78	2048.91
534.14	2068.98
534.50	2088.08
534.86	2107.06
535.21	2124.74
535.57	2143.28
535.93	2161.18
536.29	2179.00
536.65	2197.71
537.00	2215.25
537.36	2233.14
537.72	2249.75
538.08	2266.76
538.44	2283.48
538.79	2300.05
539.15	2316.36
539.51	2332.16
539.87	2347.72
540.22	2362.14
540.58	2376.56
540.94	2390.02
541.29	2403.00
541.65	2415.61
542.01	2428.48
542.37	2439.43
542.72	2450.40
543.08	2461.29
543.44	2473.14
543.79	2483.40
544.15	2493.16
544.51	2503.53
544.87	2513.41
545.22	2522.10
545.58	2529.95
545.94	2537.59
546.29	2544.54
546.65	2550.99
547.01	2556.76
547.36	2562.37
547.72	2568.05
548.07	2572.31
548.43	2577.77
548.79	2582.15
549.14	2586.44
549.50	2590.22
549.86	2594.26
550.21	2598.31
550.57	2601.65
550.92	2603.27
551.28	2604.71
551.64	2607.32
551.99	2608.96
552.35	2610.51
552.70	2612.66
553.06	2614.31
553.41	2615.31
553.77	2617.08
554.13	2619.08
554.48	2620.90
554.84	2622.42
555.19	2623.55
555.55	2625.15
555.90	2624.14
556.26	2623.91
556.61	2622.43
556.97	2620.30
557.32	2619.55
557.68	2618.24
558.03	2616.78
558.39	2615.20
558.74	2614.45
559.10	2610.82
559.45	2607.67
559.81	2603.03
560.16	2598.10
560.52	2593.65
560.87	2589.26
561.23	2583.44
561.58	2577.21
561.94	2569.97
562.29	2562.51
562.64	2555.61
563.00	2547.39
563.35	2541.44
563.71	2534.56
564.06	2528.38
564.42	2522.05
564.77	2515.55
565.12	2508.15
565.48	2500.51
565.83	2493.03
566.19	2484.97
566.54	2477.59
566.89	2469.22
567.25	2462.00
567.60	2454.84
567.96	2447.03
568.31	2439.06
568.66	2430.67
569.02	2421.69
569.37	2413.98
569.72	2406.48
570.08	2396.99
570.43	2387.71
570.78	2378.20
571.14	2368.89
571.49	2358.70
571.84	2348.98
572.20	2338.01
572.55	2328.16
572.90	2317.07
573.26	2306.47
573.61	2295.15
573.96	2283.88
574.31	2271.79
574.67	2259.85
575.02	2246.94
575.37	2234.27
575.72	2221.02
576.08	2208.70
576.43	2196.23
576.78	2182.87
577.13	2169.20
577.49	2156.25
577.84	2144.38
578.19	2132.42
578.54	2119.91
578.90	2107.90
579.25	2095.34
579.60	2082.69
579.95	2068.98
580.30	2056.07
580.66	2042.44
581.01	2028.95
581.36	2014.90
581.71	2002.60
582.06	1989.12
582.42	1976.65
582.77	1964.08
583.12	1952.11
583.47	1939.69
583.82	1927.55
584.17	1915.30
584.53	1903.32
584.88	1890.61
585.23	1877.11
585.58	1862.76
585.93	1849.15
586.28	1835.67
586.63	1821.58
586.98	1807.18
587.34	1794.28
587.69	1781.04
588.04	1768.28
588.39	1756.19
588.74	1743.88
589.09	1731.35
589.44	1718.65
589.79	1706.60
590.14	1694.45
590.49	1682.19
590.84	1670.08
591.19	1657.88
591.54	1645.67
591.89	1633.10
592.25	1622.91
592.60	1611.51
592.95	1600.09
593.30	1588.20
593.65	1576.36
594.00	1564.71
594.35	1554.94
594.70	1543.02
595.05	1531.29
595.40	1519.21
595.75	1506.93
596.10	1495.78
596.45	1484.25
596.80	1473.47
597.15	1461.84
597.50	1449.73
597.85	1438.00
598.19	1426.33
598.54	1414.68
598.89	1403.30
599.24	1392.81
599.59	1381.08
599.94	1369.97
600.29	1359.53
600.64	1348.84
600.99	1337.70
601.34	1328.13
601.69	1316.76
602.04	1306.84
602.39	1297.12
602.74	1287.96
603.08	1278.98
603.43	1269.54
603.78	1259.83
604.13	1250.18
604.48	1240.46
604.83	1231.05
605.18	1221.54
605.53	1211.74
605.87	1202.32
606.22	1193.79
606.57	1184.25
606.92	1174.78
607.27	1165.78
607.62	1157.04
607.96	1148.55
608.31	1140.69
608.66	1132.04
609.01	1123.33
609.36	1114.76
609.70	1106.08
610.05	1097.25
610.40	1088.48
610.75	1079.69
611.10	1071.27
611.44	1062.54
611.79	1054.20
612.14	1046.19
612.49	1038.08
612.83	1030.66
613.18	1023.00
613.53	1015.16
613.88	1007.06
614.22	999.41
614.57	991.47
614.92	983.45
615.27	975.89
615.61	968.11
615.96	960.19
616.31	952.97
616.65	945.82
617.00	938.42
617.35	931.06
617.70	923.94
618.04	916.67
618.39	909.55
618.74	903.01
619.08	896.18
619.43	889.06
619.78	882.12
620.12	875.05
620.47	868.33
620.82	861.13
621.16	854.47
621.51	847.92
621.85	841.40
622.20	834.84
622.55	828.21
622.89	821.71
623.24	815.34
623.59	808.61
623.93	802.15
624.28	796.03
624.62	790.37
624.97	784.38
625.32	778.75
625.66	772.70
626.01	766.61
626.35	761.01
626.70	755.41
627.04	749.90
627.39	744.28
627.73	738.71
628.08	733.45
628.43	727.84
628.77	722.28
629.12	717.16
629.46	712.15
629.81	707.17
630.15	702.41
630.50	697.52
630.84	692.60
631.19	687.81
631.53	683.35
631.88	678.15
632.22	673.16
632.57	668.54
632.91	664.11
633.26	659.78
633.60	655.04
633.95	650.43
634.29	645.68
634.64	641.21
634.98	636.47
635.32	632.09
635.67	628.23
636.01	623.93
636.36	619.45
636.70	615.40
637.05	611.29
637.39	606.91
637.73	602.67
638.08	598.80
638.42	594.48
638.77	589.96
639.11	585.62
639.45	581.30
639.80	576.82
640.14	572.70
640.49	568.53
640.83	564.69
641.17	560.85
641.52	557.18
641.86	553.64
642.20	550.38
642.55	546.54
642.89	542.79
643.23	539.39
643.58	536.22
643.92	532.53
644.26	529.18
644.61	525.98
644.95	522.71
645.29	519.23
645.64	516.05
645.98	512.97
646.32	510.06
646.66	507.06
647.01	504.17
647.35	501.37
647.69	498.31
648.04	495.41
648.38	492.64
648.72	489.67
649.06	486.43
649.41	483.22
649.75	480.30
650.09	477.45
650.43	474.53
650.78	471.64
651.12	468.79
651.46	465.85
651.80	463.12
652.14	460.37
652.49	457.90
652.83	455.30
653.17	452.70
653.51	449.94
653.85	447.51
654.20	444.88
654.54	442.18
654.88	439.67
655.22	437.45
655.56	434.97
655.90	432.55
656.25	430.36
656.59	428.15
656.93	426.05
657.27	423.88
657.61	421.42
657.95	419.07
658.29	416.84
658.64	414.76
658.98	412.36
659.32	410.29
659.66	408.08
660.00	406.02
660.34	403.89
660.68	401.91
661.02	399.79
661.36	397.90
661.70	395.83
662.05	393.96
662.39	391.93
662.73	390.11
663.07	388.54
663.41	386.63
663.75	384.75
664.09	382.81
664.43	380.92
664.77	379.35
665.11	377.59
665.45	375.91
665.79	374.23
666.13	372.53
666.47	370.81
666.81	369.12
667.15	367.47
667.49	366.05
667.83	364.67
668.17	363.20
668.51	361.63
668.85	360.33
669.19	359.10
669.53	357.53
669.87	356.00
670.21	354.44
670.55	353.12
670.89	352.02
671.23	350.58
671.57	349.20
671.91	347.83
672.25	346.55
672.58	345.35
672.92	343.99
673.26	342.76
673.60	341.53
673.94	340.36
674.28	339.09
674.62	337.85
674.96	336.61
675.30	335.50
675.64	334.32
675.97	333.05
676.31	331.72
676.65	330.46
676.99	329.45
677.33	328.20
677.67	327.09
678.01	325.78
678.34	324.80
678.68	323.91
679.02	322.90
679.36	321.87
679.70	320.79
680.04	319.77
680.37	318.83
680.71	317.82
681.05	316.85
681.39	315.94
681.73	315.00
682.06	313.98
682.40	313.11
682.74	312.30
683.08	311.69
683.42	310.73
683.75	309.98
684.09	309.06
684.43	308.35
684.77	307.49
685.10	306.61
685.44	305.83
685.78	304.91
686.12	304.10
686.45	303.30
686.79	302.50
687.13	301.85
687.46	301.12
687.80	300.46
688.14	299.62
688.48	298.86
688.81	298.01
689.15	297.43
689.49	296.65
689.82	295.97
690.16	294.99
690.50	294.37
690.83	293.65
691.17	292.82
691.51	292.13
691.84	291.49
692.18	290.87
692.52	290.18
692.85	289.55
693.19	289.04
693.52	288.46
693.86	287.70
694.20	287.01
694.53	286.41
694.87	285.64
695.21	285.08
695.54	284.52
695.88	283.95
696.21	283.16
696.55	282.60
696.88	281.96
697.22	281.43
697.56	280.95
697.89	280.28
698.23	279.85
698.56	279.26
698.90	278.79
699.23	278.26
699.57	277.74
699.90	277.19
700.24	276.49
700.58	275.92
700.91	275.64
701.25	275.56
701.58	275.40
701.92	275.11
702.25	274.71
702.59	274.21
702.92	273.85
703.26	273.47
703.59	272.97
703.93	272.91
704.26	272.59
704.60	272.11
704.93	271.83
705.26	271.31
705.60	270.95
705.93	270.46
706.27	270.18
706.60	269.91
706.94	269.73
707.27	269.31
707.61	269.02
707.94	268.53
708.27	267.80
708.61	267.06
708.94	266.65
709.28	266.21
709.61	265.82
709.94	265.46
710.28	265.04
710.61	264.70
710.95	263.90
711.28	263.85
711.61	263.45
711.95	263.14
712.28	262.79
712.61	262.50
712.95	262.40
713.28	262.20
713.61	261.72
713.95	261.20
714.28	260.90
714.61	260.47
714.95	260.19
715.28	259.72
715.61	259.37
715.95	259.02
716.28	258.70
716.61	258.39
716.95	258.04
717.28	257.71
717.61	257.40
717.94	257.12
718.28	256.45
718.61	256.09
718.94	255.74
719.27	255.47
719.61	255.11
719.94	254.67
720.27	254.20
720.60	253.92
720.94	253.65
721.27	253.44
721.60	253.23
721.93	252.89
722.27	252.87
722.60	252.71
722.93	252.45
723.26	252.23
723.59	252.01
723.93	251.82
724.26	251.66
724.59	251.35
724.92	251.15
725.25	251.10
725.59	250.98
725.92	250.80
726.25	250.57
726.58	250.40
726.91	250.22
727.24	250.02
727.57	249.85
727.91	249.60
728.24	249.42
728.57	249.19
728.90	249.10
729.23	248.75
729.56	248.75
729.89	248.55
730.22	248.28
730.55	248.07
730.89	247.80
731.22	247.56
731.55	247.44
731.88	247.25
732.21	246.94
732.54	246.70
732.87	246.52
733.20	246.42
733.53	246.27
733.86	246.10
734.19	245.91
734.52	245.75
734.85	245.96
735.18	245.80
735.51	245.82
735.84	245.69
736.17	245.61
736.50	245.25
736.83	245.60
737.16	245.55
737.49	245.44
737.82	245.29
738.15	245.26
738.48	245.12
738.81	245.01
739.14	244.79
739.47	244.66
739.80	244.52
740.13	244.40
740.46	244.13
740.79	243.93
741.12	243.80
741.45	243.67
741.78	243.27
742.11	243.19
742.44	242.93
742.77	242.89
743.10	242.72
743.43	242.59
743.75	242.01
744.08	242.46
744.41	242.26
744.74	242.18
745.07	241.86
745.40	241.77
745.73	241.88
746.06	241.85
746.39	241.75
746.71	241.61
747.04	241.40
747.37	241.31
747.70	241.23
748.03	241.15
748.36	241.05
748.68	240.94
749.01	240.74
749.34	240.69
749.67	240.50
750.00	240.41
750.33	240.63
750.65	240.49
750.98	239.79
751.31	239.71
751.64	239.55
751.97	239.64
752.29	239.52
752.62	239.05
752.95	238.88
753.28	238.69
753.60	238.52
753.93	238.61
754.26	238.55
754.59	238.31
754.91	238.15
755.24	238.03
755.57	237.92
755.90	237.76
756.22	237.54
756.55	237.41
756.88	237.22
757.20	236.77
757.53	236.52
757.86	236.43
758.19	236.37
758.51	236.30
758.84	236.07
759.17	235.87
759.49	235.92
759.82	236.01
760.15	235.92
760.47	235.90
760.80	235.61
761.13	235.57
761.45	235.44
761.78	235.33
762.11	235.19
762.43	235.05
762.76	235.00
763.08	234.94
763.41	234.86
763.74	234.78
764.06	234.67
764.39	234.61
764.71	234.42
765.04	234.25
765.37	234.09
765.69	234.00
766.02	233.95
766.34	233.80
766.67	233.57
767.00	233.55
767.32	233.64
767.65	233.83
767.97	233.69
768.30	233.72
768.62	233.66
768.95	233.57
769.27	233.48
769.60	233.42
769.92	233.27
770.25	233.16
770.57	233.01
770.90	233.02
771.22	232.95
771.55	232.90
771.87	232.86
772.20	232.92
772.52	233.30
772.85	233.86
773.17	233.81
773.50	233.65
773.82	233.55
774.15	233.35
774.47	233.04
774.80	232.98
775.12	232.90
775.45	232.85
775.77	232.77
776.09	232.67
776.42	232.68
776.74	232.80
777.07	232.74
777.39	232.74
777.72	232.60
778.04	232.68
778.36	232.65
778.69	232.69
779.01	232.60
779.33	232.11
779.66	231.54
779.98	231.49
780.31	231.52
780.63	231.76
780.95	231.76
781.28	231.72
781.60	231.70
781.92	231.67
782.25	231.62
782.57	231.58
782.89	231.61
783.22	231.55
783.54	231.47
783.86	231.44
784.19	231.38
784.51	231.51
784.83	231.42
785.16	231.34
785.48	231.27
785.80	231.22
786.12	231.26
786.45	231.20
786.77	231.21
787.09	231.23
787.42	230.98
787.74	230.96
788.06	230.95
788.38	230.90
788.71	230.82
789.03	230.77
789.35	230.84
789.67	230.79
789.99	230.72
790.32	230.64
790.64	230.65
790.96	231.04
791.28	230.87
791.61	230.80
791.93	230.85
792.25	230.75
792.57	231.11
792.89	231.03
793.21	231.04
793.54	230.87
793.86	230.74
794.18	230.62
794.50	230.49
794.82	230.42
795.14	230.39
795.47	230.52
795.79	230.58
796.11	230.47
796.43	230.37
796.75	230.31
797.07	230.28
797.39	230.24
797.71	229.84
798.04	229.82
798.36	229.80
798.68	229.79
799.00	229.87
799.32	229.56
799.64	229.51
799.96	229.47
800.28	229.61
800.60	229.60
800.92	229.66
801.24	229.60
801.56	229.68
801.89	229.69
802.21	229.66
802.53	229.51
802.85	229.59
803.17	229.82
803.49	229.77
803.81	229.75
804.13	229.71
804.45	229.73
804.77	229.82
805.09	229.79
805.41	229.64
805.73	229.56
806.05	229.47
806.37	229.45
806.69	229.42
807.01	229.40
807.33	229.46
807.65	229.33
807.97	229.60
808.28	229.47
808.60	229.46
808.92	229.40
809.24	229.67
809.56	229.56
809.88	229.34
810.20	229.39
810.52	229.43
810.84	229.42
811.16	229.37
811.48	229.27
811.80	229.52
812.12	229.57
812.43	229.60
812.75	229.62
813.07	229.62
813.39	229.54
813.71	229.46
814.03	229.41
814.35	229.42
814.67	229.23
814.98	229.26
815.30	229.20
815.62	229.13
815.94	228.88
816.26	229.09
816.58	229.05
816.89	229.06
817.21	228.95
817.53	228.95
817.85	228.95
818.17	228.89
818.48	228.62
818.80	228.74
819.12	228.70
819.44	228.61
819.76	228.56
820.07	228.66
820.39	228.63
820.71	228.67
821.03	228.64
821.34	228.53
821.66	228.60
821.98	228.64
822.30	228.60
822.61	228.89
822.93	228.68
823.25	228.63
823.57	228.59
823.88	228.64
824.20	228.61
824.52	228.65
824.83	228.65
825.15	228.65
825.47	228.62
825.79	228.60
826.10	228.61
826.42	228.59
826.74	228.60
827.05	228.62
827.37	228.63
827.69	228.69
828.00	228.75
828.32	228.71
828.64	228.66
828.95	228.93
829.27	228.78
829.58	228.70
829.90	228.85
830.22	228.83
830.53	228.79
830.85	228.65
831.17	228.56
831.48	228.53
831.80	228.55
832.11	228.47
832.43	228.43
832.75	228.36
833.06	228.64
833.38	228.52
833.69	228.54
834.01	228.47
834.32	228.39
834.64	228.33
834.96	228.26
835.27	228.27
835.59	228.09
835.90	228.00
836.22	228.03
836.53	227.91
836.85	227.91
837.16	228.31
837.48	228.40
837.79	228.51
838.11	228.52
838.42	228.53
838.74	228.52
839.05	228.40
839.37	228.45
839.68	228.14
840.00	228.05
840.31	228.05
840.63	228.03
840.94	227.96
841.26	227.91
841.57	227.96
841.88	227.96
842.20	227.85
842.51	227.74
842.83	227.74
843.14	228.13
843.46	228.08
843.77	227.81
844.08	227.75
844.40	227.62
844.71	227.51
845.03	227.44
845.34	227.44
845.65	227.47
845.97	227.44
846.28	227.45
846.60	227.51
846.91	227.36
847.22	227.28
847.54	227.41
847.85	227.45
848.16	227.35
848.48	227.33
848.79	227.50
849.10	227.54
849.42	227.55
849.73	227.11
850.04	227.04
850.36	226.89
850.67	226.98
850.98	226.95
851.30	227.01
851.61	227.02
851.92	227.02
852.23	227.18
852.55	227.17
852.86	227.17
853.17	227.17
853.49	227.33
853.80	227.48
854.11	227.51
854.42	227.60
854.74	227.65
855.05	227.62
855.36	227.36
855.67	227.43
855.99	227.41
856.30	227.92
856.61	228.00
856.92	228.03
857.23	228.03
857.55	228.03
857.86	228.04
858.17	228.13
858.48	228.00
858.79	227.91
859.11	228.01
859.42	227.94
859.73	227.90
860.04	227.93
860.35	227.75
860.66	227.64
860.98	227.54
861.29	227.56
861.60	227.55
861.91	227.68
862.22	227.58
862.53	227.51
862.84	226.97
863.16	227.07
863.47	226.99
863.78	226.95
864.09	226.96
864.40	226.95
864.71	226.94
865.02	227.07
865.33	227.07
865.64	226.90
865.95	226.93
866.27	227.32
866.58	227.13
866.89	227.27
867.20	227.20
867.51	227.11
867.82	227.10
868.13	227.24
868.44	227.15
868.75	227.27
869.06	227.33
869.37	227.43
869.68	227.25
869.99	227.36
870.30	227.39
870.61	227.44
870.92	227.44
871.23	227.35
871.54	227.31
871.85	227.37
872.16	227.56
872.47	227.53
872.78	227.20
873.09	227.31
873.40	227.19
873.71	227.26
874.02	227.36
874.33	227.29
874.64	227.21
874.95	227.26
875.26	227.24
875.56	227.23
875.87	227.20
876.18	227.22
876.49	227.71
876.80	227.71
877.11	227.68
877.42	227.65
877.73	227.70
878.04	227.70
878.35	227.71
878.66	227.67
878.96	227.67
879.27	227.67
879.58	227.65
879.89	227.65
880.20	227.78
880.51	227.80
880.82	227.80
881.12	227.80
881.43	227.75
881.74	227.61
882.05	227.56
882.36	227.61
882.67	227.67
882.97	227.15
883.28	227.08
883.59	227.02
883.90	227.05
884.21	227.09
884.51	227.04
884.82	226.95
885.13	226.98
885.44	226.97
885.74	226.89
886.05	226.89
886.36	226.88
886.67	226.73
886.98	226.89
887.28	226.96
887.59	226.95
887.90	226.95
888.20	226.99
888.51	227.14
888.82	227.02
889.13	227.02
889.43	227.33
889.74	227.30
890.05	227.30
890.35	227.22
890.66	227.16
890.97	227.13
891.28	227.07
891.58	227.04
891.89	227.06
892.20	227.10
892.50	227.04
892.81	227.10
893.12	227.05
893.42	226.74
893.73	226.70
894.04	226.71
894.34	226.69
894.65	226.62
894.95	226.50
895.26	226.51
895.57	226.73
895.87	226.27
896.18	226.38
896.48	226.45
896.79	226.53
897.10	226.52
897.40	226.55
897.71	226.66
898.01	226.59
898.32	226.60
898.63	226.55
898.93	226.60
899.24	226.54
899.54	226.54
899.85	226.60
900.15	226.57
900.46	226.56
900.76	226.66
901.07	226.64
901.38	226.65
901.68	226.67
901.99	226.39
902.29	226.50
902.60	226.41
902.90	226.31
903.21	226.30
903.51	226.32
903.82	226.44
904.12	226.39
904.43	226.42
904.73	226.37
905.03	226.43
905.34	226.93
905.64	226.88
905.95	226.90
906.25	226.95
906.56	226.99
906.86	226.92
907.17	226.87
907.47	226.94
907.77	226.88
908.08	226.82
908.38	226.94
908.69	226.96
908.99	227.09
909.30	227.16
909.60	227.11
909.90	227.14
910.21	227.00
910.51	226.95
910.81	226.96
911.12	226.98
911.42	227.02
911.73	226.48
912.03	226.57
912.33	226.69
912.64	226.58
912.94	226.50
913.24	226.54
913.55	226.49
913.85	226.45
914.15	226.59
914.46	226.70
914.76	226.63
915.06	226.53
915.37	226.40
915.67	226.36
915.97	226.45
916.27	226.35
916.58	226.41
916.88	226.45
917.18	226.47
917.49	226.83
917.79	226.76
918.09	226.82
918.39	226.92
918.70	226.89
919.00	226.97
919.30	227.19
919.60	227.16
919.91	227.14
920.21	227.23
920.51	227.16
920.81	227.14
921.12	227.25
921.42	227.29
921.72	227.36
922.02	227.36
922.32	227.43
922.63	227.46
922.93	227.66
923.23	227.66
923.53	227.57
923.83	227.25
924.13	227.30
924.44	227.29
924.74	227.35
925.04	227.40
925.34	227.39
925.64	227.23
925.94	227.20
926.24	227.50
926.55	227.45
926.85	227.46
927.15	227.39
927.45	227.32
927.75	227.36
928.05	227.30
928.35	227.23
928.65	227.28
928.95	227.30
929.26	227.10
929.56	227.16
929.86	227.25
930.16	227.19
930.46	227.17
930.76	227.17
931.06	226.96
931.36	226.89
931.66	226.92
931.96	226.90
932.26	226.90
932.56	226.66
932.86	226.68
933.16	226.61
933.46	226.63
933.76	226.55
934.06	226.64
934.36	226.88
934.66	226.96
934.96	226.77
935.26	226.80
935.56	226.87
935.86	226.77
936.16	226.63
936.46	226.61
936.76	226.55
937.06	226.45
937.36	226.52
937.66	226.55
937.96	226.50
938.26	226.47
938.56	226.45
938.86	226.45
939.16	226.47
939.46	226.56
939.76	226.56
940.06	226.54
940.35	226.37
940.65	226.05
940.95	226.04
941.25	226.04
941.55	225.99
941.85	225.95
942.15	226.06
942.45	226.27
942.75	226.26
943.04	226.26
943.34	226.42
943.64	226.33
943.94	226.25
944.24	226.24
944.54	226.27
944.84	226.25
945.13	226.20
945.43	226.17
945.73	226.15
946.03	226.03
946.33	226.04
946.62	226.05
946.92	226.11
947.22	226.19
947.52	226.20
947.82	226.21
948.11	226.04
948.41	225.89
948.71	225.78
949.01	225.85
949.31	225.88
949.60	225.85
949.90	225.90
950.20	225.88
950.50	225.98
950.79	225.99
951.09	226.10
951.39	226.12
951.69	226.05
951.98	226.16
952.28	226.28
952.58	226.30
952.87	226.31
953.17	226.37
953.47	226.30
953.76	226.30
954.06	226.26
954.36	226.38
954.66	226.43
954.95	226.48
955.25	226.48
955.55	226.52
955.84	226.43
956.14	226.54
956.44	226.59
956.73	226.38
957.03	226.41
957.32	226.41
957.62	226.36
957.92	226.46
958.21	226.34
958.51	226.87
958.81	226.86
959.10	226.89
959.40	227.00
959.69	227.00
959.99	227.14
960.29	227.15
960.58	227.06
960.88	227.18
961.17	227.16
961.47	227.18
961.76	227.12
962.06	227.24
962.36	227.16
962.65	227.16
962.95	227.20
963.24	227.05
963.54	227.05
963.83	227.13
964.13	227.13
964.42	227.03
964.72	226.66
965.01	226.61
965.31	226.59
965.60	226.50
965.90	226.82
966.19	226.65
966.49	226.68
966.78	226.72
967.08	226.72
967.37	226.74
967.67	226.69
967.96	226.77
968.26	226.68
968.55	226.77
968.85	226.77
969.14	226.80
969.43	226.88
969.73	226.80
970.02	226.74
970.32	226.69
970.61	226.73
970.91	226.60
971.20	226.69
971.49	226.68
971.79	226.62
972.08	226.26
972.38	226.30
972.67	226.21
972.96	226.28
973.26	226.18
973.55	226.29
973.85	226.25
974.14	226.22
974.43	226.26
974.73	226.18
975.02	226.12
975.31	226.13
975.61	226.11
975.90	226.14
976.19	226.10
976.49	226.13
976.78	226.20
977.07	226.24
977.37	226.22
977.66	226.24
977.95	226.23
978.24	226.26
978.54	226.39
978.83	226.40
979.12	226.38
979.42	226.37
979.71	226.25
980.00	226.29
980.29	226.28
980.59	226.23
980.88	226.34
981.17	226.34
981.46	226.39
981.76	226.35
982.05	226.55
982.34	226.60
982.63	226.61
982.93	226.57
983.22	226.67
983.51	226.70
983.80	226.83
984.09	226.92
984.39	226.88
984.68	226.75
984.97	226.82
985.26	226.77
985.55	226.74
985.85	226.67
986.14	226.75
986.43	226.82
986.72	226.84
987.01	226.72
987.30	226.74
987.59	226.72
987.89	226.78
988.18	226.60
988.47	226.52
988.76	226.53
989.05	226.53
989.34	226.48
989.63	226.52
989.92	226.42
990.22	226.37
990.51	226.38
990.80	226.40
991.09	226.41
991.38	226.45
991.67	226.50
991.96	226.49
992.25	226.46
992.54	226.37
992.83	226.32
993.12	226.30
993.41	226.35
993.70	226.51
993.99	226.61
994.28	226.61
994.58	226.75
994.87	226.68
995.16	226.60
995.45	226.52
995.74	226.43
996.03	226.48
996.32	226.46
996.61	226.61
996.90	226.55
997.19	226.46
997.48	226.43
997.77	226.39
998.06	226.42
998.34	226.36
998.63	226.35
998.92	226.34
999.21	226.39
999.50	226.43
999.79	226.28
1000.08	226.28
1000.37	226.34
1000.66	226.25
1000.95	226.38
1001.24	226.52
1001.53	226.53
1001.82	226.51
1002.11	226.45
1002.40	226.57
1002.68	226.68
1002.97	227.09
1003.26	227.05
1003.55	227.03
1003.84	227.09
1004.13	227.22
1004.42	227.24
1004.71	227.22
1004.99	227.20
1005.28	227.29
1005.57	227.21
1005.86	227.13
1006.15	227.04
1006.44	226.95
1006.72	226.95
1007.01	226.92
1007.30	226.83
1007.59	226.84
1007.88	226.82
1008.17	226.79
1008.45	226.63
1008.74	226.42
1009.03	226.18
1009.32	226.27
1009.60	226.26
1009.89	226.23
1010.18	226.03
1010.47	226.02
1010.76	226.00
1011.04	225.98
1011.33	226.02
1011.62	226.07
1011.91	226.16
1012.19	226.22
1012.48	226.25
1012.77	226.33
1013.05	226.53
1013.34	226.55
1013.63	226.47
1013.92	226.54
1014.20	226.56
1014.49	226.59
1014.78	226.62
1015.06	226.52
1015.35	226.47
1015.64	226.59
1015.92	226.65
1016.21	226.63
1016.50	226.63
1016.78	226.76
1017.07	226.81
1017.36	226.66
1017.64	226.59
1017.93	226.53
1018.22	226.44
1018.50	226.50
1018.79	226.39
1019.08	226.10
1019.36	226.14
1019.65	226.10
1019.93	226.22
1020.22	226.27
1020.51	226.49
1020.79	226.36
1021.08	225.20
1021.36	227.10
1021.65	225.25
1021.94	225.50
1022.22	226.95
1022.51	224.75
1022.79	228.85
1023.08	227.30
1023.36	231.00
1023.65	224.25
>>>>>End Processed Spectral Data<<<<<
