SpectraSuite Data File
++++++++++++++++++++++++++++++++++++
Date: Wed Sep 04 17:58:22 EDT 2013
User: lab3
Dark Spectrum Present: Yes
Reference Spectrum Present: No
Number of Sampled Component Spectra: 1
Spectrometers: USB2E7196
Integration Time (usec): 170000 (USB2E7196)
Spectra Averaged: 20 (USB2E7196)
Boxcar Smoothing: 10 (USB2E7196)
Correct for Electrical Dark: No (USB2E7196)
Strobe/Lamp Enabled: No (USB2E7196)
Correct for Detector Non-linearity: No (USB2E7196)
Correct for Stray Light: No (USB2E7196)
Number of Pixels in Processed Spectrum: 2048
>>>>>Begin Processed Spectral Data<<<<<
339.09	0.00
339.48	214.55
339.86	214.10
340.24	217.40
340.63	217.40
341.01	225.35
341.39	220.35
341.78	222.40
342.16	224.30
342.54	223.45
342.93	212.76
343.31	223.49
343.69	224.01
344.07	224.47
344.46	224.95
344.84	225.34
345.22	225.39
345.60	225.66
345.99	225.88
346.37	226.01
346.75	226.12
347.13	226.19
347.52	226.29
347.90	226.45
348.28	226.44
348.66	226.57
349.05	226.43
349.43	226.50
349.81	226.55
350.19	226.57
350.57	226.63
350.96	226.74
351.34	226.81
351.72	226.92
352.10	227.06
352.48	227.04
352.87	227.06
353.25	227.10
353.63	227.14
354.01	227.20
354.39	227.19
354.77	227.27
355.15	227.42
355.54	227.38
355.92	227.32
356.30	227.42
356.68	227.74
357.06	227.85
357.44	227.85
357.82	227.86
358.20	228.37
358.58	228.41
358.97	228.46
359.35	228.61
359.73	228.71
360.11	228.73
360.49	228.80
360.87	228.86
361.25	228.99
361.63	229.19
362.01	229.27
362.39	229.27
362.77	229.34
363.15	229.38
363.53	229.43
363.91	229.45
364.29	229.48
364.67	229.11
365.05	229.07
365.43	229.16
365.81	229.26
366.19	229.05
366.57	229.30
366.95	229.33
367.33	229.23
367.71	229.20
368.09	229.30
368.47	229.28
368.85	229.27
369.23	229.38
369.61	229.21
369.99	229.37
370.37	229.51
370.75	229.77
371.13	229.64
371.51	229.63
371.89	229.65
372.27	229.65
372.65	229.65
373.03	229.61
373.41	229.63
373.78	229.50
374.16	229.35
374.54	229.19
374.92	229.10
375.30	229.10
375.68	228.95
376.06	228.94
376.44	228.91
376.82	228.95
377.19	228.80
377.57	228.73
377.95	228.46
378.33	228.37
378.71	228.01
379.09	228.08
379.47	228.02
379.84	227.93
380.22	227.88
380.60	227.72
380.98	227.69
381.36	227.53
381.73	227.45
382.11	227.34
382.49	227.29
382.87	227.17
383.25	227.12
383.62	227.69
384.00	227.51
384.38	227.47
384.76	227.55
385.13	227.71
385.51	227.63
385.89	227.59
386.27	227.60
386.64	227.65
387.02	227.60
387.40	227.56
387.78	227.56
388.15	227.49
388.53	227.45
388.91	227.39
389.29	227.35
389.66	227.42
390.04	227.33
390.42	227.31
390.79	227.29
391.17	227.28
391.55	226.71
391.92	226.78
392.30	226.80
392.68	226.69
393.05	226.62
393.43	226.71
393.81	226.70
394.18	226.61
394.56	226.55
394.94	226.63
395.31	226.61
395.69	226.76
396.06	226.91
396.44	227.02
396.82	227.06
397.19	227.33
397.57	227.32
397.95	227.47
398.32	227.34
398.70	227.45
399.07	227.56
399.45	227.60
399.82	227.71
400.20	227.71
400.58	227.72
400.95	227.61
401.33	227.80
401.70	228.23
402.08	228.34
402.45	228.51
402.83	228.71
403.20	228.91
403.58	229.03
403.95	229.21
404.33	229.46
404.71	229.67
405.08	230.15
405.46	230.37
405.83	230.64
406.21	231.00
406.58	231.31
406.96	231.57
407.33	231.89
407.70	232.20
408.08	232.92
408.45	233.41
408.83	233.94
409.20	234.27
409.58	234.45
409.95	234.98
410.33	235.49
410.70	235.83
411.08	236.43
411.45	236.96
411.82	237.51
412.20	238.22
412.57	239.13
412.95	239.36
413.32	240.30
413.69	241.13
414.07	242.03
414.44	242.98
414.82	244.03
415.19	245.26
415.56	246.53
415.94	247.60
416.31	248.99
416.68	250.30
417.06	251.97
417.43	253.57
417.81	255.31
418.18	257.18
418.55	259.15
418.93	261.16
419.30	263.31
419.67	265.64
420.04	267.87
420.42	270.24
420.79	273.42
421.16	276.10
421.54	279.18
421.91	282.14
422.28	285.26
422.66	288.50
423.03	292.01
423.40	295.28
423.77	298.81
424.15	302.41
424.52	306.32
424.89	310.47
425.26	314.53
425.64	318.39
426.01	322.60
426.38	326.97
426.75	331.52
427.13	336.08
427.50	340.85
427.87	345.92
428.24	350.88
428.61	355.43
428.99	360.81
429.36	366.30
429.73	371.90
430.10	377.41
430.47	383.05
430.85	388.69
431.22	394.86
431.59	401.66
431.96	408.05
432.33	415.04
432.70	421.74
433.08	429.63
433.45	437.00
433.82	444.36
434.19	452.74
434.56	460.88
434.93	468.64
435.30	476.36
435.68	484.93
436.05	493.45
436.42	501.85
436.79	509.58
437.16	518.14
437.53	526.99
437.90	535.85
438.27	544.58
438.64	553.59
439.01	561.88
439.38	569.05
439.75	576.08
440.13	584.20
440.50	591.75
440.87	597.97
441.24	604.49
441.61	611.52
441.98	616.52
442.35	622.31
442.72	628.36
443.09	634.22
443.46	637.65
443.83	639.96
444.20	641.89
444.57	644.57
444.94	645.45
445.31	646.54
445.68	647.95
446.05	648.00
446.42	646.65
446.79	645.19
447.16	643.55
447.53	642.40
447.90	638.63
448.27	634.85
448.64	629.80
449.01	626.15
449.37	619.85
449.74	613.88
450.11	607.09
450.48	599.27
450.85	591.16
451.22	584.13
451.59	577.52
451.96	571.07
452.33	562.78
452.70	555.41
453.07	546.67
453.43	537.36
453.80	529.01
454.17	520.90
454.54	513.27
454.91	505.11
455.28	496.92
455.65	489.34
456.02	482.52
456.38	476.05
456.75	468.23
457.12	461.76
457.49	455.28
457.86	448.83
458.23	443.65
458.59	437.87
458.96	432.13
459.33	426.93
459.70	421.85
460.07	417.93
460.43	413.21
460.80	408.90
461.17	405.15
461.54	401.18
461.91	397.34
462.27	393.44
462.64	390.12
463.01	386.57
463.38	383.29
463.74	379.30
464.11	376.36
464.48	373.62
464.85	370.74
465.21	368.60
465.58	366.34
465.95	363.52
466.32	361.37
466.68	359.12
467.05	356.85
467.42	354.69
467.78	352.31
468.15	350.15
468.52	348.54
468.88	346.34
469.25	344.37
469.62	342.88
469.98	341.22
470.35	339.79
470.72	338.36
471.08	336.58
471.45	335.32
471.82	334.11
472.18	332.71
472.55	331.81
472.92	330.51
473.28	329.31
473.65	328.22
474.02	327.16
474.38	326.37
474.75	325.65
475.11	324.73
475.48	324.14
475.85	323.62
476.21	323.01
476.58	322.48
476.94	322.16
477.31	321.72
477.67	321.37
478.04	321.01
478.41	320.82
478.77	321.11
479.14	320.87
479.50	320.63
479.87	320.64
480.23	320.56
480.60	320.54
480.96	320.61
481.33	320.99
481.69	321.28
482.06	321.51
482.42	321.79
482.79	322.20
483.15	322.61
483.52	323.16
483.88	323.65
484.25	324.23
484.61	324.88
484.98	325.51
485.34	326.43
485.71	327.38
486.07	328.28
486.44	328.90
486.80	329.91
487.17	331.03
487.53	332.43
487.90	333.82
488.26	335.50
488.62	337.15
488.99	338.59
489.35	340.31
489.72	342.22
490.08	344.19
490.44	346.19
490.81	348.37
491.17	350.62
491.54	353.12
491.90	355.68
492.26	358.35
492.63	361.23
492.99	364.14
493.36	367.25
493.72	370.58
494.08	374.05
494.45	377.81
494.81	381.76
495.17	385.60
495.54	389.85
495.90	394.07
496.26	398.61
496.63	403.32
496.99	408.09
497.35	413.10
497.72	418.46
498.08	423.98
498.44	429.70
498.80	435.68
499.17	441.69
499.53	448.00
499.89	454.63
500.26	461.26
500.62	468.22
500.98	475.68
501.34	483.17
501.71	491.04
502.07	498.81
502.43	506.78
502.79	515.11
503.16	523.79
503.52	532.79
503.88	542.09
504.24	551.84
504.60	561.79
504.97	572.04
505.33	582.50
505.69	593.73
506.05	604.77
506.41	615.90
506.78	627.62
507.14	639.80
507.50	652.07
507.86	664.90
508.22	677.90
508.59	690.86
508.95	704.69
509.31	718.74
509.67	733.11
510.03	747.64
510.39	762.54
510.75	777.50
511.12	792.84
511.48	808.28
511.84	824.08
512.20	840.05
512.56	856.33
512.92	873.06
513.28	889.61
513.64	907.11
514.00	924.68
514.37	942.44
514.73	960.54
515.09	978.96
515.45	997.40
515.81	1015.96
516.17	1034.89
516.53	1053.55
516.89	1072.30
517.25	1091.88
517.61	1112.20
517.97	1132.64
518.33	1152.60
518.69	1172.83
519.05	1193.56
519.41	1214.02
519.77	1235.26
520.13	1256.35
520.49	1277.29
520.85	1299.96
521.21	1321.05
521.57	1342.64
521.93	1363.68
522.29	1384.77
522.65	1405.51
523.01	1426.63
523.37	1447.55
523.73	1468.66
524.09	1489.55
524.45	1510.49
524.81	1531.40
525.17	1552.22
525.53	1572.58
525.89	1593.67
526.25	1614.57
526.61	1635.12
526.97	1656.35
527.33	1677.78
527.68	1699.47
528.04	1720.54
528.40	1740.19
528.76	1761.22
529.12	1781.65
529.48	1802.50
529.84	1822.91
530.20	1844.27
530.56	1865.01
530.91	1886.00
531.27	1906.63
531.63	1927.15
531.99	1947.83
532.35	1967.77
532.71	1988.10
533.07	2008.94
533.42	2029.06
533.78	2049.20
534.14	2069.13
534.50	2088.27
534.86	2107.58
535.21	2125.24
535.57	2143.93
535.93	2161.67
536.29	2179.60
536.65	2197.78
537.00	2215.45
537.36	2232.97
537.72	2249.35
538.08	2266.36
538.44	2282.95
538.79	2299.33
539.15	2315.96
539.51	2331.81
539.87	2347.37
540.22	2361.15
540.58	2375.59
540.94	2389.05
541.29	2401.69
541.65	2414.37
542.01	2427.16
542.37	2437.35
542.72	2448.44
543.08	2459.09
543.44	2470.84
543.79	2480.93
544.15	2490.91
544.51	2500.88
544.87	2511.03
545.22	2519.91
545.58	2528.00
545.94	2534.85
546.29	2541.50
546.65	2547.39
547.01	2553.07
547.36	2558.58
547.72	2564.38
548.07	2568.37
548.43	2573.46
548.79	2578.38
549.14	2582.46
549.50	2586.15
549.86	2590.41
550.21	2594.13
550.57	2597.52
550.92	2598.76
551.28	2600.25
551.64	2602.58
551.99	2604.69
552.35	2606.05
552.70	2608.13
553.06	2609.93
553.41	2611.83
553.77	2613.64
554.13	2615.51
554.48	2616.90
554.84	2618.12
555.19	2618.90
555.55	2620.61
555.90	2619.83
556.26	2618.84
556.61	2617.27
556.97	2615.27
557.32	2614.73
557.68	2614.05
558.03	2612.67
558.39	2611.64
558.74	2610.55
559.10	2607.26
559.45	2603.51
559.81	2598.86
560.16	2593.70
560.52	2588.19
560.87	2583.60
561.23	2578.17
561.58	2572.22
561.94	2565.63
562.29	2558.21
562.64	2551.73
563.00	2543.55
563.35	2536.80
563.71	2530.24
564.06	2524.08
564.42	2517.70
564.77	2510.55
565.12	2502.73
565.48	2495.19
565.83	2486.97
566.19	2479.06
566.54	2471.34
566.89	2463.41
567.25	2455.94
567.60	2448.98
567.96	2442.02
568.31	2433.99
568.66	2425.59
569.02	2416.80
569.37	2408.78
569.72	2401.46
570.08	2391.67
570.43	2381.96
570.78	2373.47
571.14	2364.14
571.49	2353.89
571.84	2344.45
572.20	2333.71
572.55	2323.65
572.90	2312.55
573.26	2302.54
573.61	2291.40
573.96	2280.03
574.31	2268.06
574.67	2256.08
575.02	2242.85
575.37	2230.05
575.72	2216.84
576.08	2204.33
576.43	2191.73
576.78	2178.04
577.13	2164.38
577.49	2151.94
577.84	2140.25
578.19	2127.98
578.54	2115.18
578.90	2103.56
579.25	2090.74
579.60	2078.37
579.95	2065.07
580.30	2051.72
580.66	2037.90
581.01	2024.30
581.36	2010.43
581.71	1997.84
582.06	1984.79
582.42	1972.67
582.77	1959.99
583.12	1947.98
583.47	1935.67
583.82	1923.73
584.17	1912.00
584.53	1899.97
584.88	1886.90
585.23	1873.55
585.58	1858.94
585.93	1845.66
586.28	1831.89
586.63	1818.04
586.98	1803.58
587.34	1790.58
587.69	1777.68
588.04	1765.64
588.39	1753.58
588.74	1741.59
589.09	1729.18
589.44	1716.63
589.79	1704.31
590.14	1692.19
590.49	1679.88
590.84	1667.53
591.19	1655.32
591.54	1643.08
591.89	1630.91
592.25	1620.81
592.60	1609.23
592.95	1598.06
593.30	1586.07
593.65	1574.04
594.00	1561.80
594.35	1552.08
594.70	1540.22
595.05	1528.73
595.40	1516.12
595.75	1504.19
596.10	1492.78
596.45	1481.43
596.80	1470.23
597.15	1458.74
597.50	1446.88
597.85	1435.40
598.19	1423.80
598.54	1412.08
598.89	1400.86
599.24	1390.04
599.59	1378.43
599.94	1367.64
600.29	1357.24
600.64	1347.07
600.99	1336.26
601.34	1326.93
601.69	1315.72
602.04	1305.64
602.39	1295.87
602.74	1286.73
603.08	1277.25
603.43	1267.85
603.78	1257.99
604.13	1248.45
604.48	1238.63
604.83	1228.81
605.18	1219.07
605.53	1209.44
605.87	1200.10
606.22	1191.27
606.57	1182.07
606.92	1172.39
607.27	1163.30
607.62	1154.39
607.96	1145.56
608.31	1137.67
608.66	1128.95
609.01	1120.17
609.36	1111.46
609.70	1102.73
610.05	1094.00
610.40	1085.17
610.75	1076.25
611.10	1067.91
611.44	1059.08
611.79	1050.80
612.14	1043.05
612.49	1035.11
612.83	1027.64
613.18	1019.66
613.53	1011.93
613.88	1003.93
614.22	996.31
614.57	988.37
614.92	980.46
615.27	972.87
615.61	965.16
615.96	957.63
616.31	950.16
616.65	943.42
617.00	935.95
617.35	928.75
617.70	921.80
618.04	914.62
618.39	907.43
618.74	901.17
619.08	894.33
619.43	887.23
619.78	880.14
620.12	873.00
620.47	866.43
620.82	859.30
621.16	852.46
621.51	846.06
621.85	839.71
622.20	833.01
622.55	826.30
622.89	819.64
623.24	813.18
623.59	806.76
623.93	800.29
624.28	794.19
624.62	788.43
624.97	782.53
625.32	776.85
625.66	770.86
626.01	764.62
626.35	759.25
626.70	753.61
627.04	748.61
627.39	743.07
627.73	737.52
628.08	732.30
628.43	726.71
628.77	721.16
629.12	715.95
629.46	711.17
629.81	706.52
630.15	701.77
630.50	697.01
630.84	692.10
631.19	687.16
631.53	682.53
631.88	677.32
632.22	672.41
632.57	667.80
632.91	663.28
633.26	658.94
633.60	653.97
633.95	649.38
634.29	644.46
634.64	640.10
634.98	635.36
635.32	631.05
635.67	627.16
636.01	622.91
636.36	618.47
636.70	614.30
637.05	609.98
637.39	605.74
637.73	601.44
638.08	597.42
638.42	593.17
638.77	588.99
639.11	584.57
639.45	580.31
639.80	576.13
640.14	571.99
640.49	567.86
640.83	564.11
641.17	560.45
641.52	556.77
641.86	553.02
642.20	549.95
642.55	546.15
642.89	542.34
643.23	538.73
643.58	535.62
643.92	531.99
644.26	528.54
644.61	525.35
644.95	521.99
645.29	518.60
645.64	515.46
645.98	512.22
646.32	509.31
646.66	506.23
647.01	503.11
647.35	500.39
647.69	497.47
648.04	494.62
648.38	491.80
648.72	488.80
649.06	485.79
649.41	482.72
649.75	479.79
650.09	477.08
650.43	474.35
650.78	471.44
651.12	468.62
651.46	465.85
651.80	463.04
652.14	460.34
652.49	457.96
652.83	455.34
653.17	452.73
653.51	450.00
653.85	447.54
654.20	445.11
654.54	442.45
654.88	439.97
655.22	437.75
655.56	435.30
655.90	433.00
656.25	430.69
656.59	428.48
656.93	426.30
657.27	424.00
657.61	421.53
657.95	419.18
658.29	417.06
658.64	414.98
658.98	412.77
659.32	410.52
659.66	408.17
660.00	406.14
660.34	404.09
660.68	402.15
661.02	400.10
661.36	398.15
661.70	396.03
662.05	393.95
662.39	391.75
662.73	389.92
663.07	388.30
663.41	386.47
663.75	384.47
664.09	382.51
664.43	380.67
664.77	379.13
665.11	377.35
665.45	375.68
665.79	374.00
666.13	372.27
666.47	370.54
666.81	368.91
667.15	367.02
667.49	365.47
667.83	364.10
668.17	362.59
668.51	361.02
668.85	359.74
669.19	358.62
669.53	357.19
669.87	355.70
670.21	353.98
670.55	352.52
670.89	351.33
671.23	349.93
671.57	348.50
671.91	347.10
672.25	345.82
672.58	344.51
672.92	343.02
673.26	341.73
673.60	340.62
673.94	339.38
674.28	338.38
674.62	337.19
674.96	335.76
675.30	334.57
675.64	333.37
675.97	332.09
676.31	330.75
676.65	329.54
676.99	328.48
677.33	327.40
677.67	326.33
678.01	325.04
678.34	324.00
678.68	323.08
679.02	321.95
679.36	320.90
679.70	319.83
680.04	318.90
680.37	317.98
680.71	316.95
681.05	316.01
681.39	315.06
681.73	314.07
682.06	313.19
682.40	312.28
682.74	311.41
683.08	310.63
683.42	309.69
683.75	308.98
684.09	308.04
684.43	307.19
684.77	306.34
685.10	305.53
685.44	304.76
685.78	303.91
686.12	303.13
686.45	302.37
686.79	301.56
687.13	300.95
687.46	300.21
687.80	299.53
688.14	298.78
688.48	298.07
688.81	297.36
689.15	296.77
689.49	296.03
689.82	295.27
690.16	294.41
690.50	293.78
690.83	293.00
691.17	292.30
691.51	291.60
691.84	290.98
692.18	290.27
692.52	289.55
692.85	288.93
693.19	288.46
693.52	287.85
693.86	287.14
694.20	286.44
694.53	285.78
694.87	285.18
695.21	284.53
695.54	283.90
695.88	283.29
696.21	282.50
696.55	281.94
696.88	281.31
697.22	280.71
697.56	280.24
697.89	279.55
698.23	278.95
698.56	278.42
698.90	277.87
699.23	277.30
699.57	276.80
699.90	276.24
700.24	275.59
700.58	275.17
700.91	274.82
701.25	274.69
701.58	274.57
701.92	274.20
702.25	273.83
702.59	273.27
702.92	272.79
703.26	272.43
703.59	272.01
703.93	272.07
704.26	271.77
704.60	271.27
704.93	270.92
705.26	270.54
705.60	270.21
705.93	269.66
706.27	269.40
706.60	269.18
706.94	269.00
707.27	268.59
707.61	268.21
707.94	267.82
708.27	267.06
708.61	266.27
708.94	265.83
709.28	265.44
709.61	265.04
709.94	264.70
710.28	264.34
710.61	264.00
710.95	263.20
711.28	263.07
711.61	262.73
711.95	262.38
712.28	261.97
712.61	261.59
712.95	261.62
713.28	261.48
713.61	261.01
713.95	260.50
714.28	260.24
714.61	259.85
714.95	259.47
715.28	259.10
715.61	258.85
715.95	258.52
716.28	258.20
716.61	258.04
716.95	257.68
717.28	257.38
717.61	257.05
717.94	256.75
718.28	256.15
718.61	255.84
718.94	255.56
719.27	255.37
719.61	255.08
719.94	254.72
720.27	254.18
720.60	253.92
720.94	253.68
721.27	253.50
721.60	253.32
721.93	253.08
722.27	253.06
722.60	252.85
722.93	252.54
723.26	252.31
723.59	251.95
723.93	251.88
724.26	251.68
724.59	251.39
724.92	251.25
725.25	251.17
725.59	250.91
725.92	250.79
726.25	250.50
726.58	250.37
726.91	250.08
727.24	249.94
727.57	249.70
727.91	249.42
728.24	249.23
728.57	248.98
728.90	248.85
729.23	248.39
729.56	248.44
729.89	248.34
730.22	248.12
730.55	248.01
730.89	247.71
731.22	247.48
731.55	247.40
731.88	247.22
732.21	247.04
732.54	246.85
732.87	246.63
733.20	246.48
733.53	246.23
733.86	246.05
734.19	245.85
734.52	245.81
734.85	245.97
735.18	245.68
735.51	245.69
735.84	245.60
736.17	245.64
736.50	245.28
736.83	245.67
737.16	245.50
737.49	245.40
737.82	245.30
738.15	245.23
738.48	245.02
738.81	244.82
739.14	244.58
739.47	244.45
739.80	244.36
740.13	244.35
740.46	244.15
740.79	243.96
741.12	243.81
741.45	243.56
741.78	243.16
742.11	243.20
742.44	242.90
742.77	242.80
743.10	242.51
743.43	242.32
743.75	241.69
744.08	242.23
744.41	241.96
744.74	241.72
745.07	241.49
745.40	241.45
745.73	241.55
746.06	241.41
746.39	241.31
746.71	241.06
747.04	240.79
747.37	240.62
747.70	240.58
748.03	240.49
748.36	240.43
748.68	240.33
749.01	240.05
749.34	239.88
749.67	239.73
750.00	239.73
750.33	240.00
750.65	239.92
750.98	239.20
751.31	239.17
751.64	239.13
751.97	239.32
752.29	239.18
752.62	238.89
752.95	238.76
753.28	238.61
753.60	238.54
753.93	238.61
754.26	238.60
754.59	238.40
754.91	238.22
755.24	238.09
755.57	237.95
755.90	237.87
756.22	237.79
756.55	237.64
756.88	237.37
757.20	236.90
757.53	236.66
757.86	236.53
758.19	236.46
758.51	236.37
758.84	235.98
759.17	235.78
759.49	235.71
759.82	235.88
760.15	235.84
760.47	235.75
760.80	235.54
761.13	235.52
761.45	235.45
761.78	235.35
762.11	235.29
762.43	235.13
762.76	235.00
763.08	234.90
763.41	234.90
763.74	234.91
764.06	234.79
764.39	234.73
764.71	234.63
765.04	234.47
765.37	234.31
765.69	234.37
766.02	234.35
766.34	234.20
766.67	233.91
767.00	233.97
767.32	234.21
767.65	234.35
767.97	234.22
768.30	234.20
768.62	234.17
768.95	234.06
769.27	234.04
769.60	233.98
769.92	233.87
770.25	233.66
770.57	233.54
770.90	233.55
771.22	233.45
771.55	233.38
771.87	233.36
772.20	233.39
772.52	233.68
772.85	234.24
773.17	234.20
773.50	234.16
773.82	233.94
774.15	233.59
774.47	233.27
774.80	233.20
775.12	233.11
775.45	233.05
775.77	233.04
776.09	233.03
776.42	233.05
776.74	233.20
777.07	233.17
777.39	233.13
777.72	233.02
778.04	233.08
778.36	233.00
778.69	233.05
779.01	232.95
779.33	232.40
779.66	231.77
779.98	231.70
780.31	231.68
780.63	231.86
780.95	231.97
781.28	231.97
781.60	231.89
781.92	231.81
782.25	231.80
782.57	231.74
782.89	231.67
783.22	231.61
783.54	231.51
783.86	231.48
784.19	231.48
784.51	231.58
784.83	231.45
785.16	231.41
785.48	231.34
785.80	231.30
786.12	231.35
786.45	231.32
786.77	231.30
787.09	231.21
787.42	231.00
787.74	230.94
788.06	230.91
788.38	230.89
788.71	230.81
789.03	230.86
789.35	230.84
789.67	230.83
789.99	230.82
790.32	230.67
790.64	230.65
790.96	231.01
791.28	230.79
791.61	230.68
791.93	230.64
792.25	230.55
792.57	230.89
792.89	230.75
793.21	230.75
793.54	230.66
793.86	230.53
794.18	230.47
794.50	230.37
794.82	230.34
795.14	230.36
795.47	230.45
795.79	230.32
796.11	230.22
796.43	230.13
796.75	230.11
797.07	230.12
797.39	230.12
797.71	229.74
798.04	229.80
798.36	229.91
798.68	229.93
799.00	229.94
799.32	229.65
799.64	229.74
799.96	229.68
800.28	229.81
800.60	229.85
800.92	229.92
801.24	229.90
801.56	229.89
801.89	229.88
802.21	229.87
802.53	229.74
802.85	229.90
803.17	230.10
803.49	229.91
803.81	229.87
804.13	229.87
804.45	229.75
804.77	229.75
805.09	229.65
805.41	229.64
805.73	229.52
806.05	229.46
806.37	229.40
806.69	229.37
807.01	229.32
807.33	229.31
807.65	229.07
807.97	229.22
808.28	229.19
808.60	229.15
808.92	229.07
809.24	229.40
809.56	229.19
809.88	229.01
810.20	229.15
810.52	229.23
810.84	229.19
811.16	229.15
811.48	229.08
811.80	229.25
812.12	229.19
812.43	229.21
812.75	229.19
813.07	229.15
813.39	229.13
813.71	229.04
814.03	228.98
814.35	229.03
814.67	228.81
814.98	228.75
815.30	228.75
815.62	228.65
815.94	228.27
816.26	228.51
816.58	228.43
816.89	228.40
817.21	228.33
817.53	228.25
817.85	228.26
818.17	228.27
818.48	228.04
818.80	228.10
819.12	228.05
819.44	228.00
819.76	227.92
820.07	227.91
820.39	227.92
820.71	227.97
821.03	227.95
821.34	227.92
821.66	227.96
821.98	228.00
822.30	228.00
822.61	228.34
822.93	228.11
823.25	228.09
823.57	227.98
823.88	228.02
824.20	228.08
824.52	228.15
824.83	228.05
825.15	227.98
825.47	227.97
825.79	228.11
826.10	228.01
826.42	228.00
826.74	228.11
827.05	228.07
827.37	228.09
827.69	228.06
828.00	228.08
828.32	228.08
828.64	227.96
828.95	228.22
829.27	228.02
829.58	228.07
829.90	228.19
830.22	228.27
830.53	228.10
830.85	228.03
831.17	227.94
831.48	227.97
831.80	228.11
832.11	228.11
832.43	227.98
832.75	228.08
833.06	228.39
833.38	228.25
833.69	228.21
834.01	228.12
834.32	228.18
834.64	228.14
834.96	228.17
835.27	228.17
835.59	228.05
835.90	228.06
836.22	227.97
836.53	227.90
836.85	227.77
837.16	228.28
837.48	228.34
837.79	228.48
838.11	228.50
838.42	228.46
838.74	228.49
839.05	228.46
839.37	228.40
839.68	228.15
840.00	228.15
840.31	228.26
840.63	228.31
840.94	228.28
841.26	228.25
841.57	228.17
841.88	228.19
842.20	228.09
842.51	228.00
842.83	227.98
843.14	228.44
843.46	228.49
843.77	228.27
844.08	228.14
844.40	227.98
844.71	227.99
845.03	227.98
845.34	227.95
845.65	227.94
845.97	227.92
846.28	227.88
846.60	227.91
846.91	227.85
847.22	227.82
847.54	227.89
847.85	227.88
848.16	227.91
848.48	227.81
848.79	228.00
849.10	228.09
849.42	228.14
849.73	227.60
850.04	227.55
850.36	227.35
850.67	227.48
850.98	227.57
851.30	227.55
851.61	227.55
851.92	227.54
852.23	227.69
852.55	227.72
852.86	227.74
853.17	227.70
853.49	227.73
853.80	227.80
854.11	227.78
854.42	227.85
854.74	227.68
855.05	227.75
855.36	227.50
855.67	227.40
855.99	227.43
856.30	228.07
856.61	228.11
856.92	228.12
857.23	228.04
857.55	227.91
857.86	227.90
858.17	227.96
858.48	227.85
858.79	227.75
859.11	227.79
859.42	227.76
859.73	227.67
860.04	227.60
860.35	227.44
860.66	227.31
860.98	227.27
861.29	227.38
861.60	227.37
861.91	227.51
862.22	227.47
862.53	227.32
862.84	226.69
863.16	226.76
863.47	226.65
863.78	226.67
864.09	226.64
864.40	226.68
864.71	226.65
865.02	226.76
865.33	226.64
865.64	226.57
865.95	226.57
866.27	226.95
866.58	226.94
866.89	227.00
867.20	227.05
867.51	226.99
867.82	226.92
868.13	227.01
868.44	226.82
868.75	226.93
869.06	227.01
869.37	227.03
869.68	226.89
869.99	226.99
870.30	226.93
870.61	227.01
870.92	226.94
871.23	226.95
871.54	226.98
871.85	227.16
872.16	227.18
872.47	227.16
872.78	226.79
873.09	226.90
873.40	226.89
873.71	226.88
874.02	226.99
874.33	226.95
874.64	226.87
874.95	226.98
875.26	226.87
875.56	226.86
875.87	226.79
876.18	226.86
876.49	227.35
876.80	227.41
877.11	227.36
877.42	227.35
877.73	227.28
878.04	227.18
878.35	227.17
878.66	227.20
878.96	227.23
879.27	227.33
879.58	227.21
879.89	227.17
880.20	227.30
880.51	227.25
880.82	227.31
881.12	227.34
881.43	227.22
881.74	227.22
882.05	227.22
882.36	227.33
882.67	227.27
882.97	226.78
883.28	226.71
883.59	226.71
883.90	226.82
884.21	226.89
884.51	226.91
884.82	226.83
885.13	226.78
885.44	226.76
885.74	226.75
886.05	226.79
886.36	226.80
886.67	226.65
886.98	226.88
887.28	226.96
887.59	226.90
887.90	227.02
888.20	226.93
888.51	226.98
888.82	226.89
889.13	226.95
889.43	227.31
889.74	227.28
890.05	227.20
890.35	227.06
890.66	226.96
890.97	226.88
891.28	226.86
891.58	226.91
891.89	226.82
892.20	226.75
892.50	226.70
892.81	226.64
893.12	226.69
893.42	226.37
893.73	226.35
894.04	226.37
894.34	226.39
894.65	226.41
894.95	226.35
895.26	226.33
895.57	226.49
895.87	226.02
896.18	226.10
896.48	226.17
896.79	226.16
897.10	226.30
897.40	226.33
897.71	226.36
898.01	226.28
898.32	226.34
898.63	226.34
898.93	226.35
899.24	226.42
899.54	226.34
899.85	226.40
900.15	226.31
900.46	226.30
900.76	226.29
901.07	226.31
901.38	226.35
901.68	226.38
901.99	226.24
902.29	226.22
902.60	226.17
902.90	226.11
903.21	226.14
903.51	226.01
903.82	226.08
904.12	226.09
904.43	226.11
904.73	226.04
905.03	226.06
905.34	226.49
905.64	226.43
905.95	226.48
906.25	226.47
906.56	226.46
906.86	226.44
907.17	226.39
907.47	226.42
907.77	226.39
908.08	226.38
908.38	226.34
908.69	226.43
908.99	226.47
909.30	226.52
909.60	226.49
909.90	226.58
910.21	226.47
910.51	226.33
910.81	226.34
911.12	226.45
911.42	226.45
911.73	225.98
912.03	226.01
912.33	226.07
912.64	226.06
912.94	226.12
913.24	226.07
913.55	226.01
913.85	225.95
914.15	226.04
914.46	226.02
914.76	225.94
915.06	225.88
915.37	225.82
915.67	225.82
915.97	225.87
916.27	225.78
916.58	225.80
916.88	225.89
917.18	225.86
917.49	226.15
917.79	226.12
918.09	226.15
918.39	226.26
918.70	226.23
919.00	226.23
919.30	226.44
919.60	226.39
919.91	226.47
920.21	226.56
920.51	226.44
920.81	226.44
921.12	226.57
921.42	226.55
921.72	226.64
922.02	226.65
922.32	226.69
922.63	226.77
922.93	226.96
923.23	226.96
923.53	226.94
923.83	226.60
924.13	226.62
924.44	226.72
924.74	226.82
925.04	226.97
925.34	226.95
925.64	226.66
925.94	226.69
926.24	226.92
926.55	226.88
926.85	226.95
927.15	226.94
927.45	226.98
927.75	227.06
928.05	227.07
928.35	227.10
928.65	227.13
928.95	227.10
929.26	226.94
929.56	227.05
929.86	227.12
930.16	227.15
930.46	227.18
930.76	227.15
931.06	226.89
931.36	226.71
931.66	226.83
931.96	226.92
932.26	226.98
932.56	226.80
932.86	226.85
933.16	226.89
933.46	226.81
933.76	226.75
934.06	226.84
934.36	227.07
934.66	227.01
934.96	226.91
935.26	226.93
935.56	227.00
935.86	226.83
936.16	226.78
936.46	226.67
936.76	226.68
937.06	226.62
937.36	226.73
937.66	226.76
937.96	226.64
938.26	226.59
938.56	226.59
938.86	226.56
939.16	226.64
939.46	226.65
939.76	226.75
940.06	226.74
940.35	226.66
940.65	226.37
940.95	226.44
941.25	226.37
941.55	226.28
941.85	226.26
942.15	226.38
942.45	226.49
942.75	226.53
943.04	226.55
943.34	226.66
943.64	226.54
943.94	226.49
944.24	226.51
944.54	226.47
944.84	226.43
945.13	226.38
945.43	226.31
945.73	226.25
946.03	226.22
946.33	226.13
946.62	226.08
946.92	226.00
947.22	226.02
947.52	226.08
947.82	226.12
948.11	226.04
948.41	225.91
948.71	225.80
949.01	225.89
949.31	225.72
949.60	225.59
949.90	225.71
950.20	225.72
950.50	225.83
950.79	225.80
951.09	225.82
951.39	225.84
951.69	225.77
951.98	225.87
952.28	225.95
952.58	226.03
952.87	226.02
953.17	226.12
953.47	226.03
953.76	226.02
954.06	225.99
954.36	226.02
954.66	225.99
954.95	226.11
955.25	226.05
955.55	226.21
955.84	226.19
956.14	226.20
956.44	226.17
956.73	225.99
957.03	226.01
957.32	226.05
957.62	226.05
957.92	226.14
958.21	226.06
958.51	226.50
958.81	226.51
959.10	226.60
959.40	226.64
959.69	226.67
959.99	226.76
960.29	226.74
960.58	226.64
960.88	226.87
961.17	226.79
961.47	226.80
961.76	226.70
962.06	226.72
962.36	226.75
962.65	226.77
962.95	226.85
963.24	226.87
963.54	226.84
963.83	226.86
964.13	226.83
964.42	226.77
964.72	226.44
965.01	226.47
965.31	226.42
965.60	226.41
965.90	226.70
966.19	226.52
966.49	226.64
966.78	226.68
967.08	226.60
967.37	226.56
967.67	226.52
967.96	226.65
968.26	226.72
968.55	226.75
968.85	226.68
969.14	226.70
969.43	226.63
969.73	226.59
970.02	226.55
970.32	226.54
970.61	226.57
970.91	226.35
971.20	226.24
971.49	226.20
971.79	226.18
972.08	225.89
972.38	226.01
972.67	225.95
972.96	226.01
973.26	225.93
973.55	226.13
973.85	226.16
974.14	226.10
974.43	226.13
974.73	226.00
975.02	226.07
975.31	226.04
975.61	226.13
975.90	226.17
976.19	226.12
976.49	226.17
976.78	226.10
977.07	226.17
977.37	226.22
977.66	226.30
977.95	226.27
978.24	226.32
978.54	226.37
978.83	226.25
979.12	226.27
979.42	226.35
979.71	226.30
980.00	226.30
980.29	226.33
980.59	226.21
980.88	226.40
981.17	226.41
981.46	226.38
981.76	226.40
982.05	226.51
982.34	226.49
982.63	226.45
982.93	226.56
983.22	226.71
983.51	226.70
983.80	226.75
984.09	226.84
984.39	226.78
984.68	226.71
984.97	226.86
985.26	226.73
985.55	226.76
985.85	226.63
986.14	226.65
986.43	226.71
986.72	226.71
987.01	226.51
987.30	226.50
987.59	226.52
987.89	226.49
988.18	226.38
988.47	226.45
988.76	226.38
989.05	226.27
989.34	226.18
989.63	226.32
989.92	226.28
990.22	226.18
990.51	226.24
990.80	226.20
991.09	226.23
991.38	226.43
991.67	226.32
991.96	226.26
992.25	226.29
992.54	226.14
992.83	226.12
993.12	226.12
993.41	226.16
993.70	226.33
993.99	226.39
994.28	226.41
994.58	226.45
994.87	226.46
995.16	226.49
995.45	226.44
995.74	226.29
996.03	226.37
996.32	226.46
996.61	226.58
996.90	226.56
997.19	226.52
997.48	226.42
997.77	226.45
998.06	226.47
998.34	226.48
998.63	226.56
998.92	226.63
999.21	226.67
999.50	226.73
999.79	226.63
1000.08	226.65
1000.37	226.61
1000.66	226.55
1000.95	226.58
1001.24	226.65
1001.53	226.72
1001.82	226.69
1002.11	226.54
1002.40	226.61
1002.68	226.66
1002.97	227.06
1003.26	226.97
1003.55	226.88
1003.84	226.95
1004.13	227.10
1004.42	227.00
1004.71	226.99
1004.99	226.94
1005.28	227.10
1005.57	226.99
1005.86	226.89
1006.15	226.83
1006.44	226.77
1006.72	226.84
1007.01	226.80
1007.30	226.76
1007.59	226.68
1007.88	226.63
1008.17	226.69
1008.45	226.51
1008.74	226.30
1009.03	226.05
1009.32	226.13
1009.60	226.17
1009.89	226.08
1010.18	225.97
1010.47	226.05
1010.76	225.97
1011.04	225.98
1011.33	225.96
1011.62	226.02
1011.91	226.07
1012.19	226.12
1012.48	226.18
1012.77	226.15
1013.05	226.33
1013.34	226.39
1013.63	226.35
1013.92	226.41
1014.20	226.31
1014.49	226.33
1014.78	226.35
1015.06	226.21
1015.35	226.17
1015.64	226.23
1015.92	226.28
1016.21	226.26
1016.50	226.19
1016.78	226.28
1017.07	226.34
1017.36	226.25
1017.64	226.11
1017.93	226.13
1018.22	226.06
1018.50	226.02
1018.79	226.03
1019.08	225.83
1019.36	225.82
1019.65	225.85
1019.93	225.92
1020.22	226.08
1020.51	226.31
1020.79	226.25
1021.08	225.80
1021.36	224.85
1021.65	226.55
1021.94	225.40
1022.22	226.95
1022.51	226.20
1022.79	226.80
1023.08	228.25
1023.36	230.90
1023.65	224.70
>>>>>End Processed Spectral Data<<<<<
