SpectraSuite Data File
++++++++++++++++++++++++++++++++++++
Date: Wed Sep 04 17:46:04 EDT 2013
User: lab3
Dark Spectrum Present: Yes
Reference Spectrum Present: No
Number of Sampled Component Spectra: 1
Spectrometers: USB2E7196
Integration Time (usec): 170000 (USB2E7196)
Spectra Averaged: 20 (USB2E7196)
Boxcar Smoothing: 10 (USB2E7196)
Correct for Electrical Dark: No (USB2E7196)
Strobe/Lamp Enabled: No (USB2E7196)
Correct for Detector Non-linearity: No (USB2E7196)
Correct for Stray Light: No (USB2E7196)
Number of Pixels in Processed Spectrum: 2048
>>>>>Begin Processed Spectral Data<<<<<
339.09	0.00
339.48	211.75
339.86	212.95
340.24	215.55
340.63	216.90
341.01	225.05
341.39	218.80
341.78	222.55
342.16	224.05
342.54	221.95
342.93	211.94
343.31	222.60
343.69	223.18
344.07	223.72
344.46	224.21
344.84	224.64
345.22	224.73
345.60	225.08
345.99	225.24
346.37	225.33
346.75	225.48
347.13	225.59
347.52	225.61
347.90	225.80
348.28	225.72
348.66	225.87
349.05	225.75
349.43	225.75
349.81	225.80
350.19	225.85
350.57	225.98
350.96	226.06
351.34	226.18
351.72	226.26
352.10	226.38
352.48	226.43
352.87	226.44
353.25	226.45
353.63	226.50
354.01	226.50
354.39	226.55
354.77	226.57
355.15	226.70
355.54	226.71
355.92	226.65
356.30	226.79
356.68	227.11
357.06	227.12
357.44	227.02
357.82	227.05
358.20	227.45
358.58	227.49
358.97	227.53
359.35	227.69
359.73	227.87
360.11	227.86
360.49	227.89
360.87	227.93
361.25	228.09
361.63	228.25
362.01	228.29
362.39	228.35
362.77	228.45
363.15	228.49
363.53	228.54
363.91	228.63
364.29	228.58
364.67	228.21
365.05	228.32
365.43	228.47
365.81	228.55
366.19	228.36
366.57	228.62
366.95	228.61
367.33	228.45
367.71	228.43
368.09	228.54
368.47	228.53
368.85	228.61
369.23	228.61
369.61	228.47
369.99	228.71
370.37	228.79
370.75	229.06
371.13	228.97
371.51	228.85
371.89	228.81
372.27	228.87
372.65	228.89
373.03	228.82
373.41	228.74
373.78	228.77
374.16	228.58
374.54	228.33
374.92	228.32
375.30	228.32
375.68	228.16
376.06	228.13
376.44	228.08
376.82	227.97
377.19	227.87
377.57	227.76
377.95	227.50
378.33	227.34
378.71	226.92
379.09	226.89
379.47	226.92
379.84	226.83
380.22	226.69
380.60	226.53
380.98	226.47
381.36	226.43
381.73	226.25
382.11	226.23
382.49	226.22
382.87	226.02
383.25	225.98
383.62	226.56
384.00	226.42
384.38	226.36
384.76	226.43
385.13	226.60
385.51	226.58
385.89	226.44
386.27	226.43
386.64	226.47
387.02	226.44
387.40	226.36
387.78	226.40
388.15	226.45
388.53	226.36
388.91	226.26
389.29	226.17
389.66	226.24
390.04	226.13
390.42	226.18
390.79	226.23
391.17	226.25
391.55	225.59
391.92	225.58
392.30	225.59
392.68	225.44
393.05	225.36
393.43	225.38
393.81	225.51
394.18	225.43
394.56	225.42
394.94	225.54
395.31	225.59
395.69	225.78
396.06	225.90
396.44	225.96
396.82	225.99
397.19	226.27
397.57	226.25
397.95	226.45
398.32	226.35
398.70	226.42
399.07	226.54
399.45	226.65
399.82	226.75
400.20	226.85
400.58	226.93
400.95	226.76
401.33	227.02
401.70	227.46
402.08	227.65
402.45	227.79
402.83	228.03
403.20	228.13
403.58	228.12
403.95	228.37
404.33	228.70
404.71	228.99
405.08	229.42
405.46	229.70
405.83	229.94
406.21	230.20
406.58	230.55
406.96	230.81
407.33	231.18
407.70	231.56
408.08	232.30
408.45	232.81
408.83	233.38
409.20	233.66
409.58	233.74
409.95	234.21
410.33	234.87
410.70	235.21
411.08	235.85
411.45	236.51
411.82	236.96
412.20	237.68
412.57	238.62
412.95	239.06
413.32	239.86
413.69	240.60
414.07	241.49
414.44	242.49
414.82	243.45
415.19	244.62
415.56	245.80
415.94	246.77
416.31	248.10
416.68	249.41
417.06	251.03
417.43	252.63
417.81	254.37
418.18	256.04
418.55	257.98
418.93	259.96
419.30	262.01
419.67	264.22
420.04	266.43
420.42	268.65
420.79	271.53
421.16	274.29
421.54	277.33
421.91	280.30
422.28	283.24
422.66	286.45
423.03	289.86
423.40	293.08
423.77	296.48
424.15	299.96
424.52	303.72
424.89	307.85
425.26	311.72
425.64	315.40
426.01	319.40
426.38	323.65
426.75	328.02
427.13	332.50
427.50	337.03
427.87	341.90
428.24	346.83
428.61	351.23
428.99	356.39
429.36	361.73
429.73	367.11
430.10	372.53
430.47	378.03
430.85	383.43
431.22	389.52
431.59	396.22
431.96	402.28
432.33	409.08
432.70	415.46
433.08	423.16
433.45	430.59
433.82	437.75
434.19	445.74
434.56	453.75
434.93	461.29
435.30	468.90
435.68	477.24
436.05	485.36
436.42	493.54
436.79	501.07
437.16	509.19
437.53	517.88
437.90	526.40
438.27	534.87
438.64	543.62
439.01	551.73
439.38	558.79
439.75	565.93
440.13	573.75
440.50	581.19
440.87	587.15
441.24	593.25
441.61	600.08
441.98	605.16
442.35	610.90
442.72	616.73
443.09	622.55
443.46	625.99
443.83	628.30
444.20	630.35
444.57	632.99
444.94	634.12
445.31	635.05
445.68	636.55
446.05	636.81
446.42	635.57
446.79	634.28
447.16	632.74
447.53	631.54
447.90	628.02
448.27	624.42
448.64	619.78
449.01	616.32
449.37	610.55
449.74	604.57
450.11	597.75
450.48	590.11
450.85	582.29
451.22	575.48
451.59	569.11
451.96	562.86
452.33	554.99
452.70	547.82
453.07	539.42
453.43	530.40
453.80	522.19
454.17	514.43
454.54	506.93
454.91	498.83
455.28	490.99
455.65	483.67
456.02	477.08
456.38	470.74
456.75	463.03
457.12	456.64
457.49	450.46
457.86	444.24
458.23	439.35
458.59	433.77
458.96	428.14
459.33	423.06
459.70	418.09
460.07	414.06
460.43	409.52
460.80	405.34
461.17	401.69
461.54	397.70
461.91	393.93
462.27	390.10
462.64	387.00
463.01	383.52
463.38	380.29
463.74	376.31
464.11	373.46
464.48	370.96
464.85	368.17
465.21	366.14
465.58	363.93
465.95	361.03
466.32	358.76
466.68	356.45
467.05	354.30
467.42	352.11
467.78	349.88
468.15	347.71
468.52	346.08
468.88	343.85
469.25	341.97
469.62	340.50
469.98	338.86
470.35	337.28
470.72	335.84
471.08	334.12
471.45	332.82
471.82	331.50
472.18	329.95
472.55	328.86
472.92	327.51
473.28	326.42
473.65	325.35
474.02	324.39
474.38	323.69
474.75	322.89
475.11	322.07
475.48	321.50
475.85	320.81
476.21	320.15
476.58	319.73
476.94	319.39
477.31	318.90
477.67	318.49
478.04	318.15
478.41	317.87
478.77	318.11
479.14	317.83
479.50	317.70
479.87	317.81
480.23	317.84
480.60	317.80
480.96	317.83
481.33	318.26
481.69	318.48
482.06	318.72
482.42	319.03
482.79	319.42
483.15	319.81
483.52	320.52
483.88	321.03
484.25	321.60
484.61	322.23
484.98	322.86
485.34	323.87
485.71	324.83
486.07	325.82
486.44	326.50
486.80	327.68
487.17	328.81
487.53	330.16
487.90	331.54
488.26	333.26
488.62	334.96
488.99	336.52
489.35	338.24
489.72	340.12
490.08	341.99
490.44	343.94
490.81	346.10
491.17	348.30
491.54	350.86
491.90	353.44
492.26	356.05
492.63	358.85
492.99	361.54
493.36	364.71
493.72	367.98
494.08	371.37
494.45	375.08
494.81	379.00
495.17	382.88
495.54	387.18
495.90	391.34
496.26	395.78
496.63	400.36
496.99	405.18
497.35	410.25
497.72	415.54
498.08	420.98
498.44	426.60
498.80	432.58
499.17	438.50
499.53	444.70
499.89	451.32
500.26	458.20
500.62	465.24
500.98	472.54
501.34	479.88
501.71	487.68
502.07	495.36
502.43	503.31
502.79	511.63
503.16	520.13
503.52	529.08
503.88	538.16
504.24	547.70
504.60	557.55
504.97	567.64
505.33	578.00
505.69	589.04
506.05	599.95
506.41	611.04
506.78	622.65
507.14	634.50
507.50	646.82
507.86	659.28
508.22	672.11
508.59	684.97
508.95	698.64
509.31	712.51
509.67	726.70
510.03	740.76
510.39	755.22
510.75	770.06
511.12	785.19
511.48	800.67
511.84	816.16
512.20	831.90
512.56	847.95
512.92	864.51
513.28	880.98
513.64	897.89
514.00	915.28
514.37	932.78
514.73	950.79
515.09	968.62
515.45	986.70
515.81	1004.90
516.17	1023.33
516.53	1041.66
516.89	1059.74
517.25	1078.67
517.61	1098.76
517.97	1118.60
518.33	1138.44
518.69	1158.34
519.05	1178.48
519.41	1199.07
519.77	1219.82
520.13	1240.24
520.49	1260.55
520.85	1282.63
521.21	1303.37
521.57	1324.11
521.93	1344.51
522.29	1365.01
522.65	1385.32
523.01	1405.91
523.37	1426.28
523.73	1446.99
524.09	1466.94
524.45	1487.57
524.81	1508.01
525.17	1528.05
525.53	1548.43
525.89	1568.85
526.25	1588.96
526.61	1608.71
526.97	1628.76
527.33	1649.43
527.68	1670.67
528.04	1691.44
528.40	1710.52
528.76	1731.23
529.12	1751.20
529.48	1771.57
529.84	1791.53
530.20	1812.14
530.56	1832.29
530.91	1852.53
531.27	1872.59
531.63	1892.75
531.99	1912.92
532.35	1932.69
532.71	1952.37
533.07	1972.15
533.42	1991.34
533.78	2010.78
534.14	2030.04
534.50	2048.59
534.86	2067.26
535.21	2084.52
535.57	2102.62
535.93	2119.60
536.29	2136.67
536.65	2154.33
537.00	2171.40
537.36	2188.36
537.72	2204.43
538.08	2221.05
538.44	2237.16
538.79	2252.67
539.15	2268.85
539.51	2283.80
539.87	2298.33
540.22	2311.74
540.58	2325.70
540.94	2338.65
541.29	2350.66
541.65	2362.66
542.01	2374.70
542.37	2384.82
542.72	2395.19
543.08	2405.10
543.44	2416.40
543.79	2425.83
544.15	2434.80
544.51	2444.33
544.87	2453.23
545.22	2461.30
545.58	2468.38
545.94	2474.91
546.29	2481.12
546.65	2486.65
547.01	2491.91
547.36	2497.01
547.72	2502.30
548.07	2505.75
548.43	2510.44
548.79	2514.84
549.14	2518.62
549.50	2522.10
549.86	2525.63
550.21	2528.90
550.57	2531.73
550.92	2532.23
551.28	2533.22
551.64	2535.25
551.99	2536.68
552.35	2537.91
552.70	2539.41
553.06	2540.84
553.41	2542.01
553.77	2542.94
554.13	2544.40
554.48	2545.75
554.84	2546.77
555.19	2547.57
555.55	2549.15
555.90	2547.85
556.26	2546.56
556.61	2544.85
556.97	2542.39
557.32	2541.66
557.68	2540.04
558.03	2538.18
558.39	2537.04
558.74	2535.91
559.10	2532.35
559.45	2528.65
559.81	2523.98
560.16	2518.53
560.52	2513.34
560.87	2508.76
561.23	2503.55
561.58	2497.10
561.94	2490.02
562.29	2482.27
562.64	2475.13
563.00	2466.35
563.35	2459.87
563.71	2453.08
564.06	2446.74
564.42	2440.36
564.77	2432.75
565.12	2425.32
565.48	2417.77
565.83	2409.67
566.19	2401.66
566.54	2393.87
566.89	2385.41
567.25	2377.73
567.60	2370.71
567.96	2362.98
568.31	2354.76
568.66	2346.09
569.02	2337.43
569.37	2329.75
569.72	2322.30
570.08	2312.97
570.43	2303.73
570.78	2294.77
571.14	2285.78
571.49	2275.60
571.84	2266.00
572.20	2255.46
572.55	2245.36
572.90	2234.72
573.26	2224.49
573.61	2213.60
573.96	2202.68
574.31	2191.14
574.67	2179.50
575.02	2167.01
575.37	2154.65
575.72	2141.69
576.08	2130.01
576.43	2117.64
576.78	2104.49
577.13	2091.25
577.49	2078.70
577.84	2067.33
578.19	2055.53
578.54	2042.94
578.90	2031.49
579.25	2019.45
579.60	2007.47
579.95	1994.71
580.30	1981.75
580.66	1968.57
581.01	1955.33
581.36	1941.66
581.71	1929.17
582.06	1916.56
582.42	1904.66
582.77	1892.47
583.12	1880.92
583.47	1868.97
583.82	1857.25
584.17	1845.48
584.53	1834.16
584.88	1821.75
585.23	1808.97
585.58	1795.17
585.93	1782.68
586.28	1769.53
586.63	1755.73
586.98	1741.81
587.34	1729.17
587.69	1716.25
588.04	1704.47
588.39	1692.62
588.74	1680.95
589.09	1669.43
589.44	1657.02
589.79	1645.01
590.14	1633.51
590.49	1621.82
590.84	1610.15
591.19	1598.57
591.54	1586.67
591.89	1574.46
592.25	1564.70
592.60	1553.35
592.95	1542.37
593.30	1530.68
593.65	1519.19
594.00	1507.81
594.35	1498.14
594.70	1486.58
595.05	1475.62
595.40	1463.71
595.75	1452.49
596.10	1441.75
596.45	1430.63
596.80	1420.26
597.15	1409.46
597.50	1397.92
597.85	1387.00
598.19	1375.43
598.54	1364.36
598.89	1353.67
599.24	1343.47
599.59	1332.16
599.94	1321.95
600.29	1311.96
600.64	1302.06
600.99	1291.76
601.34	1282.46
601.69	1271.75
602.04	1262.26
602.39	1253.00
602.74	1244.32
603.08	1235.10
603.43	1225.95
603.78	1216.35
604.13	1207.16
604.48	1197.62
604.83	1188.31
605.18	1178.73
605.53	1169.52
605.87	1160.46
606.22	1152.07
606.57	1143.17
606.92	1133.89
607.27	1124.97
607.62	1116.14
607.96	1107.80
608.31	1100.05
608.66	1092.06
609.01	1084.01
609.36	1075.83
609.70	1067.46
610.05	1058.88
610.40	1050.61
610.75	1042.36
611.10	1034.54
611.44	1025.96
611.79	1018.02
612.14	1010.58
612.49	1002.91
612.83	995.96
613.18	988.51
613.53	981.00
613.88	973.22
614.22	965.96
614.57	958.40
614.92	950.99
615.27	943.66
615.61	936.21
615.96	928.87
616.31	921.58
616.65	914.84
617.00	907.97
617.35	901.04
617.70	894.19
618.04	887.33
618.39	880.48
618.74	874.40
619.08	867.74
619.43	860.77
619.78	853.85
620.12	846.75
620.47	840.07
620.82	833.10
621.16	826.55
621.51	820.30
621.85	814.19
622.20	807.80
622.55	801.25
622.89	795.04
623.24	788.76
623.59	782.64
623.93	776.49
624.28	770.58
624.62	765.28
624.97	759.73
625.32	754.11
625.66	748.26
626.01	742.25
626.35	736.88
626.70	731.68
627.04	726.80
627.39	721.55
627.73	716.57
628.08	711.52
628.43	706.55
628.77	701.48
629.12	696.46
629.46	691.93
629.81	687.53
630.15	682.99
630.50	678.45
630.84	673.72
631.19	669.18
631.53	664.65
631.88	659.51
632.22	654.86
632.57	650.53
632.91	646.23
633.26	642.16
633.60	637.69
633.95	633.18
634.29	628.56
634.64	624.41
634.98	619.68
635.32	615.70
635.67	611.64
636.01	607.52
636.36	603.35
636.70	599.35
637.05	595.30
637.39	591.35
637.73	587.35
638.08	583.56
638.42	579.47
638.77	575.45
639.11	571.31
639.45	567.11
639.80	562.90
640.14	559.06
640.49	555.16
640.83	551.65
641.17	548.17
641.52	544.66
641.86	541.09
642.20	538.12
642.55	534.47
642.89	531.02
643.23	527.78
643.58	524.69
643.92	521.15
644.26	517.80
644.61	514.61
644.95	511.37
645.29	508.08
645.64	504.99
645.98	501.92
646.32	499.15
646.66	496.24
647.01	493.39
647.35	490.63
647.69	487.88
648.04	485.10
648.38	482.37
648.72	479.55
649.06	476.60
649.41	473.56
649.75	470.77
650.09	467.96
650.43	465.04
650.78	462.16
651.12	459.47
651.46	456.86
651.80	454.14
652.14	451.58
652.49	449.20
652.83	446.80
653.17	444.25
653.51	441.65
653.85	439.29
654.20	436.92
654.54	434.28
654.88	431.75
655.22	429.49
655.56	427.13
655.90	424.92
656.25	422.71
656.59	420.56
656.93	418.49
657.27	416.55
657.61	414.24
657.95	412.17
658.29	410.02
658.64	408.07
658.98	405.98
659.32	403.77
659.66	401.51
660.00	399.39
660.34	397.41
660.68	395.52
661.02	393.51
661.36	391.57
661.70	389.75
662.05	387.93
662.39	386.06
662.73	384.32
663.07	382.68
663.41	380.91
663.75	379.11
664.09	377.30
664.43	375.46
664.77	373.83
665.11	372.10
665.45	370.56
665.79	368.83
666.13	367.16
666.47	365.53
666.81	363.97
667.15	362.28
667.49	360.88
667.83	359.54
668.17	358.11
668.51	356.75
668.85	355.44
669.19	354.35
669.53	352.96
669.87	351.52
670.21	350.12
670.55	348.82
670.89	347.69
671.23	346.43
671.57	345.07
671.91	343.83
672.25	342.56
672.58	341.28
672.92	339.90
673.26	338.72
673.60	337.62
673.94	336.57
674.28	335.59
674.62	334.42
674.96	333.13
675.30	332.08
675.64	330.97
675.97	329.74
676.31	328.32
676.65	327.08
676.99	326.08
677.33	324.80
677.67	323.79
678.01	322.45
678.34	321.32
678.68	320.43
679.02	319.38
679.36	318.41
679.70	317.54
680.04	316.68
680.37	315.71
680.71	314.67
681.05	313.73
681.39	312.87
681.73	311.91
682.06	311.03
682.40	310.06
682.74	309.18
683.08	308.62
683.42	307.77
683.75	306.98
684.09	306.09
684.43	305.41
684.77	304.54
685.10	303.82
685.44	303.11
685.78	302.21
686.12	301.46
686.45	300.68
686.79	299.80
687.13	299.08
687.46	298.41
687.80	297.78
688.14	296.91
688.48	296.12
688.81	295.43
689.15	294.90
689.49	294.23
689.82	293.54
690.16	292.56
690.50	291.83
690.83	291.12
691.17	290.39
691.51	289.75
691.84	289.04
692.18	288.37
692.52	287.66
692.85	287.00
693.19	286.56
693.52	285.95
693.86	285.35
694.20	284.70
694.53	284.06
694.87	283.46
695.21	282.90
695.54	282.35
695.88	281.66
696.21	280.84
696.55	280.20
696.88	279.60
697.22	279.02
697.56	278.60
697.89	278.05
698.23	277.51
698.56	276.89
698.90	276.50
699.23	275.96
699.57	275.52
699.90	275.05
700.24	274.45
700.58	274.01
700.91	273.60
701.25	273.50
701.58	273.38
701.92	273.03
702.25	272.60
702.59	272.06
702.92	271.64
703.26	271.33
703.59	270.99
703.93	270.99
704.26	270.62
704.60	270.25
704.93	269.83
705.26	269.43
705.60	269.15
705.93	268.70
706.27	268.47
706.60	268.23
706.94	268.02
707.27	267.62
707.61	267.27
707.94	266.85
708.27	266.15
708.61	265.41
708.94	265.04
709.28	264.68
709.61	264.38
709.94	264.09
710.28	263.67
710.61	263.30
710.95	262.50
711.28	262.53
711.61	262.09
711.95	261.80
712.28	261.43
712.61	261.01
712.95	260.95
713.28	260.82
713.61	260.33
713.95	259.83
714.28	259.59
714.61	259.18
714.95	258.88
715.28	258.49
715.61	258.13
715.95	257.78
716.28	257.42
716.61	257.28
716.95	256.89
717.28	256.64
717.61	256.30
717.94	256.07
718.28	255.37
718.61	255.14
718.94	254.78
719.27	254.53
719.61	254.29
719.94	253.84
720.27	253.30
720.60	252.99
720.94	252.74
721.27	252.47
721.60	252.36
721.93	252.08
722.27	251.97
722.60	251.82
722.93	251.52
723.26	251.36
723.59	250.94
723.93	250.80
724.26	250.62
724.59	250.40
724.92	250.20
725.25	250.11
725.59	249.87
725.92	249.71
726.25	249.50
726.58	249.39
726.91	249.13
727.24	248.97
727.57	248.81
727.91	248.64
728.24	248.50
728.57	248.19
728.90	248.12
729.23	247.82
729.56	247.88
729.89	247.75
730.22	247.53
730.55	247.35
730.89	247.15
731.22	246.87
731.55	246.75
731.88	246.62
732.21	246.38
732.54	246.21
732.87	246.10
733.20	245.96
733.53	245.76
733.86	245.68
734.19	245.46
734.52	245.35
734.85	245.51
735.18	245.27
735.51	245.32
735.84	245.14
736.17	245.15
736.50	244.71
736.83	245.12
737.16	245.06
737.49	244.92
737.82	244.73
738.15	244.67
738.48	244.45
738.81	244.20
739.14	244.03
739.47	243.88
739.80	243.70
740.13	243.68
740.46	243.49
740.79	243.29
741.12	243.11
741.45	243.02
741.78	242.62
742.11	242.55
742.44	242.31
742.77	242.22
743.10	241.95
743.43	241.84
743.75	241.15
744.08	241.62
744.41	241.45
744.74	241.36
745.07	241.15
745.40	241.09
745.73	241.27
746.06	241.15
746.39	241.06
746.71	240.91
747.04	240.58
747.37	240.39
747.70	240.38
748.03	240.35
748.36	240.22
748.68	240.09
749.01	239.87
749.34	239.70
749.67	239.58
750.00	239.61
750.33	239.87
750.65	239.83
750.98	239.11
751.31	239.06
751.64	238.92
751.97	239.08
752.29	238.92
752.62	238.45
752.95	238.34
753.28	238.18
753.60	238.07
753.93	238.15
754.26	238.07
754.59	237.85
754.91	237.63
755.24	237.45
755.57	237.33
755.90	237.18
756.22	237.03
756.55	236.86
756.88	236.53
757.20	236.06
757.53	235.76
757.86	235.62
758.19	235.54
758.51	235.48
758.84	235.10
759.17	235.05
759.49	234.98
759.82	235.11
760.15	235.10
760.47	234.99
760.80	234.71
761.13	234.70
761.45	234.59
761.78	234.58
762.11	234.51
762.43	234.32
762.76	234.25
763.08	234.22
763.41	234.20
763.74	234.26
764.06	234.14
764.39	234.04
764.71	233.98
765.04	233.87
765.37	233.65
765.69	233.60
766.02	233.49
766.34	233.44
766.67	233.15
767.00	233.04
767.32	233.23
767.65	233.52
767.97	233.39
768.30	233.30
768.62	233.21
768.95	233.08
769.27	233.00
769.60	233.00
769.92	232.85
770.25	232.62
770.57	232.41
770.90	232.32
771.22	232.29
771.55	232.13
771.87	232.07
772.20	231.99
772.52	232.36
772.85	232.86
773.17	232.87
773.50	232.82
773.82	232.71
774.15	232.44
774.47	232.05
774.80	232.01
775.12	231.93
775.45	231.89
775.77	231.87
776.09	231.91
776.42	231.86
776.74	232.02
777.07	232.05
777.39	231.99
777.72	231.99
778.04	232.00
778.36	231.95
778.69	231.88
779.01	232.00
779.33	231.55
779.66	230.95
779.98	230.87
780.31	230.86
780.63	231.09
780.95	231.10
781.28	231.09
781.60	230.97
781.92	230.95
782.25	230.93
782.57	230.95
782.89	230.88
783.22	230.79
783.54	230.64
783.86	230.65
784.19	230.65
784.51	230.74
784.83	230.70
785.16	230.69
785.48	230.66
785.80	230.54
786.12	230.57
786.45	230.50
786.77	230.45
787.09	230.38
787.42	230.20
787.74	230.25
788.06	230.21
788.38	230.11
788.71	230.04
789.03	229.97
789.35	229.93
789.67	229.88
789.99	229.92
790.32	229.81
790.64	229.78
790.96	230.11
791.28	229.90
791.61	229.83
791.93	229.90
792.25	229.82
792.57	230.21
792.89	230.07
793.21	230.11
793.54	230.09
793.86	229.99
794.18	229.98
794.50	229.82
794.82	229.83
795.14	229.94
795.47	229.99
795.79	230.03
796.11	229.93
796.43	229.88
796.75	229.83
797.07	229.81
797.39	229.78
797.71	229.39
798.04	229.43
798.36	229.45
798.68	229.33
799.00	229.38
799.32	229.05
799.64	229.11
799.96	229.09
800.28	229.17
800.60	229.14
800.92	229.11
801.24	229.11
801.56	229.08
801.89	228.98
802.21	229.04
802.53	228.88
802.85	228.98
803.17	229.23
803.49	229.14
803.81	229.12
804.13	229.02
804.45	228.98
804.77	229.01
805.09	228.98
805.41	228.95
805.73	228.92
806.05	228.81
806.37	228.76
806.69	228.75
807.01	228.65
807.33	228.69
807.65	228.51
807.97	228.65
808.28	228.66
808.60	228.67
808.92	228.59
809.24	228.93
809.56	228.83
809.88	228.59
810.20	228.61
810.52	228.66
810.84	228.61
811.16	228.63
811.48	228.56
811.80	228.65
812.12	228.73
812.43	228.73
812.75	228.80
813.07	228.76
813.39	228.75
813.71	228.65
814.03	228.60
814.35	228.55
814.67	228.30
814.98	228.18
815.30	228.22
815.62	228.17
815.94	227.86
816.26	228.08
816.58	228.02
816.89	228.08
817.21	228.03
817.53	228.10
817.85	228.10
818.17	228.09
818.48	227.92
818.80	227.95
819.12	227.89
819.44	227.81
819.76	227.80
820.07	227.82
820.39	227.88
820.71	227.93
821.03	228.01
821.34	228.07
821.66	228.18
821.98	228.18
822.30	228.10
822.61	228.39
822.93	228.17
823.25	228.13
823.57	228.04
823.88	228.15
824.20	228.14
824.52	228.17
824.83	228.16
825.15	228.10
825.47	228.10
825.79	228.23
826.10	228.11
826.42	228.04
826.74	228.04
827.05	227.98
827.37	227.95
827.69	227.89
828.00	227.89
828.32	227.85
828.64	227.76
828.95	227.96
829.27	227.80
829.58	227.73
829.90	227.89
830.22	227.97
830.53	227.80
830.85	227.66
831.17	227.53
831.48	227.53
831.80	227.64
832.11	227.47
832.43	227.38
832.75	227.42
833.06	227.69
833.38	227.50
833.69	227.53
834.01	227.56
834.32	227.58
834.64	227.54
834.96	227.49
835.27	227.50
835.59	227.39
835.90	227.28
836.22	227.20
836.53	227.01
836.85	226.88
837.16	227.38
837.48	227.41
837.79	227.57
838.11	227.54
838.42	227.48
838.74	227.60
839.05	227.52
839.37	227.45
839.68	227.11
840.00	227.16
840.31	227.14
840.63	227.01
840.94	226.95
841.26	226.93
841.57	226.92
841.88	226.93
842.20	226.76
842.51	226.75
842.83	226.76
843.14	227.14
843.46	227.20
843.77	226.97
844.08	226.98
844.40	226.89
844.71	226.85
845.03	226.71
845.34	226.73
845.65	226.68
845.97	226.80
846.28	226.81
846.60	226.79
846.91	226.73
847.22	226.79
847.54	226.85
847.85	226.79
848.16	226.79
848.48	226.61
848.79	226.88
849.10	226.81
849.42	226.91
849.73	226.55
850.04	226.51
850.36	226.25
850.67	226.41
850.98	226.28
851.30	226.36
851.61	226.43
851.92	226.35
852.23	226.48
852.55	226.46
852.86	226.54
853.17	226.60
853.49	226.70
853.80	226.85
854.11	226.91
854.42	226.98
854.74	226.95
855.05	227.06
855.36	226.81
855.67	226.90
855.99	226.93
856.30	227.44
856.61	227.38
856.92	227.41
857.23	227.32
857.55	227.37
857.86	227.29
858.17	227.34
858.48	227.29
858.79	227.19
859.11	227.17
859.42	227.09
859.73	227.07
860.04	226.98
860.35	226.82
860.66	226.68
860.98	226.68
861.29	226.70
861.60	226.65
861.91	226.78
862.22	226.69
862.53	226.55
862.84	226.00
863.16	226.17
863.47	226.12
863.78	226.10
864.09	226.13
864.40	226.21
864.71	226.27
865.02	226.31
865.33	226.26
865.64	226.18
865.95	226.22
866.27	226.50
866.58	226.50
866.89	226.54
867.20	226.52
867.51	226.43
867.82	226.42
868.13	226.65
868.44	226.53
868.75	226.66
869.06	226.65
869.37	226.71
869.68	226.45
869.99	226.51
870.30	226.52
870.61	226.53
870.92	226.38
871.23	226.23
871.54	226.28
871.85	226.34
872.16	226.44
872.47	226.42
872.78	226.13
873.09	226.19
873.40	226.09
873.71	226.11
874.02	226.17
874.33	226.11
874.64	225.88
874.95	225.95
875.26	225.80
875.56	225.80
875.87	225.75
876.18	225.82
876.49	226.35
876.80	226.27
877.11	226.12
877.42	226.13
877.73	226.20
878.04	226.11
878.35	226.18
878.66	226.13
878.96	226.10
879.27	226.10
879.58	226.05
879.89	226.08
880.20	226.20
880.51	226.23
880.82	226.26
881.12	226.32
881.43	226.22
881.74	226.14
882.05	226.23
882.36	226.28
882.67	226.33
882.97	225.73
883.28	225.70
883.59	225.73
883.90	225.86
884.21	225.86
884.51	225.87
884.82	225.75
885.13	225.76
885.44	225.80
885.74	225.75
886.05	225.75
886.36	225.72
886.67	225.52
886.98	225.68
887.28	225.70
887.59	225.69
887.90	225.69
888.20	225.68
888.51	225.61
888.82	225.58
889.13	225.53
889.43	225.97
889.74	225.95
890.05	226.00
890.35	225.91
890.66	225.90
890.97	225.85
891.28	225.83
891.58	225.87
891.89	225.81
892.20	225.81
892.50	225.76
892.81	225.77
893.12	225.78
893.42	225.56
893.73	225.51
894.04	225.52
894.34	225.58
894.65	225.63
894.95	225.65
895.26	225.66
895.57	225.94
895.87	225.50
896.18	225.59
896.48	225.60
896.79	225.62
897.10	225.72
897.40	225.73
897.71	225.78
898.01	225.68
898.32	225.75
898.63	225.79
898.93	225.85
899.24	225.92
899.54	225.97
899.85	226.06
900.15	226.15
900.46	226.18
900.76	226.23
901.07	226.23
901.38	226.29
901.68	226.30
901.99	226.10
902.29	226.10
902.60	226.07
902.90	226.03
903.21	226.09
903.51	226.11
903.82	226.28
904.12	226.29
904.43	226.35
904.73	226.39
905.03	226.39
905.34	226.85
905.64	226.80
905.95	226.79
906.25	226.70
906.56	226.65
906.86	226.69
907.17	226.65
907.47	226.69
907.77	226.64
908.08	226.58
908.38	226.58
908.69	226.56
908.99	226.70
909.30	226.82
909.60	226.78
909.90	226.75
910.21	226.59
910.51	226.63
910.81	226.69
911.12	226.69
911.42	226.67
911.73	226.21
912.03	226.17
912.33	226.29
912.64	226.28
912.94	226.25
913.24	226.17
913.55	226.13
913.85	226.14
914.15	226.24
914.46	226.31
914.76	226.35
915.06	226.36
915.37	226.23
915.67	226.10
915.97	226.03
916.27	225.86
916.58	225.85
916.88	225.75
917.18	225.62
917.49	225.94
917.79	225.94
918.09	225.94
918.39	226.06
918.70	225.94
919.00	225.94
919.30	226.11
919.60	226.06
919.91	226.02
920.21	225.97
920.51	225.81
920.81	225.78
921.12	225.77
921.42	225.78
921.72	225.82
922.02	225.88
922.32	225.92
922.63	226.00
922.93	226.23
923.23	226.26
923.53	226.28
923.83	225.87
924.13	225.90
924.44	225.94
924.74	226.03
925.04	226.18
925.34	226.15
925.64	225.97
925.94	226.01
926.24	226.25
926.55	226.26
926.85	226.38
927.15	226.40
927.45	226.43
927.75	226.44
928.05	226.45
928.35	226.37
928.65	226.48
928.95	226.56
929.26	226.44
929.56	226.47
929.86	226.53
930.16	226.56
930.46	226.47
930.76	226.44
931.06	226.18
931.36	226.08
931.66	226.16
931.96	226.25
932.26	226.25
932.56	226.13
932.86	226.11
933.16	226.14
933.46	226.10
933.76	226.02
934.06	226.13
934.36	226.24
934.66	226.26
934.96	226.19
935.26	226.18
935.56	226.20
935.86	226.12
936.16	226.04
936.46	225.95
936.76	225.99
937.06	225.95
937.36	226.04
937.66	226.09
937.96	226.07
938.26	226.00
938.56	226.03
938.86	226.06
939.16	226.20
939.46	226.21
939.76	226.18
940.06	226.13
940.35	226.02
940.65	225.77
940.95	225.82
941.25	225.73
941.55	225.69
941.85	225.60
942.15	225.77
942.45	225.90
942.75	225.98
943.04	226.05
943.34	226.17
943.64	226.16
943.94	226.05
944.24	226.01
944.54	226.02
944.84	225.99
945.13	225.94
945.43	225.88
945.73	225.87
946.03	225.89
946.33	225.91
946.62	225.85
946.92	225.98
947.22	225.97
947.52	226.03
947.82	226.11
948.11	226.15
948.41	225.96
948.71	225.84
949.01	225.82
949.31	225.73
949.60	225.68
949.90	225.76
950.20	225.70
950.50	225.74
950.79	225.70
951.09	225.77
951.39	225.64
951.69	225.64
951.98	225.70
952.28	225.72
952.58	225.75
952.87	225.70
953.17	225.74
953.47	225.73
953.76	225.66
954.06	225.51
954.36	225.41
954.66	225.44
954.95	225.53
955.25	225.56
955.55	225.59
955.84	225.52
956.14	225.52
956.44	225.55
956.73	225.46
957.03	225.52
957.32	225.53
957.62	225.54
957.92	225.57
958.21	225.52
958.51	226.02
958.81	225.99
959.10	226.13
959.40	226.16
959.69	226.17
959.99	226.33
960.29	226.40
960.58	226.38
960.88	226.56
961.17	226.57
961.47	226.64
961.76	226.61
962.06	226.71
962.36	226.62
962.65	226.72
962.95	226.72
963.24	226.61
963.54	226.50
963.83	226.61
964.13	226.50
964.42	226.36
964.72	225.97
965.01	225.96
965.31	225.89
965.60	225.80
965.90	226.05
966.19	225.90
966.49	225.86
966.78	225.83
967.08	225.76
967.37	225.72
967.67	225.55
967.96	225.65
968.26	225.52
968.55	225.59
968.85	225.45
969.14	225.47
969.43	225.50
969.73	225.51
970.02	225.47
970.32	225.44
970.61	225.50
970.91	225.37
971.20	225.31
971.49	225.26
971.79	225.31
972.08	224.98
972.38	224.94
972.67	224.93
972.96	225.01
973.26	224.84
973.55	225.00
973.85	224.98
974.14	224.89
974.43	225.02
974.73	224.95
975.02	224.96
975.31	224.98
975.61	225.01
975.90	224.99
976.19	224.93
976.49	225.00
976.78	224.99
977.07	224.98
977.37	225.00
977.66	225.11
977.95	225.01
978.24	225.10
978.54	225.26
978.83	225.21
979.12	225.25
979.42	225.29
979.71	225.20
980.00	225.28
980.29	225.29
980.59	225.10
980.88	225.24
981.17	225.26
981.46	225.24
981.76	225.21
982.05	225.40
982.34	225.50
982.63	225.55
982.93	225.53
983.22	225.67
983.51	225.74
983.80	225.77
984.09	225.91
984.39	225.90
984.68	225.83
984.97	225.89
985.26	225.88
985.55	226.05
985.85	225.93
986.14	226.03
986.43	226.10
986.72	226.21
987.01	226.07
987.30	226.09
987.59	226.13
987.89	226.19
988.18	226.00
988.47	225.98
988.76	225.95
989.05	225.95
989.34	225.87
989.63	225.99
989.92	225.93
990.22	225.81
990.51	225.76
990.80	225.80
991.09	225.93
991.38	226.02
991.67	225.90
991.96	225.93
992.25	225.87
992.54	225.79
992.83	225.79
993.12	225.81
993.41	225.94
993.70	226.12
993.99	226.19
994.28	226.30
994.58	226.34
994.87	226.27
995.16	226.26
995.45	226.28
995.74	226.14
996.03	226.21
996.32	226.32
996.61	226.49
996.90	226.48
997.19	226.40
997.48	226.31
997.77	226.28
998.06	226.29
998.34	226.29
998.63	226.32
998.92	226.35
999.21	226.38
999.50	226.36
999.79	226.20
1000.08	226.16
1000.37	226.14
1000.66	226.02
1000.95	226.12
1001.24	226.12
1001.53	226.10
1001.82	226.02
1002.11	225.86
1002.40	225.90
1002.68	226.04
1002.97	226.26
1003.26	226.20
1003.55	226.11
1003.84	226.15
1004.13	226.37
1004.42	226.33
1004.71	226.36
1004.99	226.25
1005.28	226.34
1005.57	226.27
1005.86	226.21
1006.15	226.13
1006.44	226.04
1006.72	226.13
1007.01	226.09
1007.30	226.05
1007.59	226.02
1007.88	226.11
1008.17	226.12
1008.45	226.03
1008.74	225.68
1009.03	225.51
1009.32	225.45
1009.60	225.44
1009.89	225.45
1010.18	225.18
1010.47	225.20
1010.76	225.23
1011.04	225.24
1011.33	225.24
1011.62	225.27
1011.91	225.28
1012.19	225.31
1012.48	225.32
1012.77	225.35
1013.05	225.56
1013.34	225.57
1013.63	225.55
1013.92	225.54
1014.20	225.54
1014.49	225.53
1014.78	225.57
1015.06	225.45
1015.35	225.55
1015.64	225.65
1015.92	225.67
1016.21	225.70
1016.50	225.73
1016.78	225.74
1017.07	225.74
1017.36	225.67
1017.64	225.66
1017.93	225.68
1018.22	225.67
1018.50	225.71
1018.79	225.65
1019.08	225.45
1019.36	225.55
1019.65	225.52
1019.93	225.75
1020.22	225.88
1020.51	226.15
1020.79	226.17
1021.08	225.35
1021.36	225.60
1021.65	225.15
1021.94	225.95
1022.22	226.75
1022.51	225.05
1022.79	230.05
1023.08	227.05
1023.36	231.55
1023.65	224.50
>>>>>End Processed Spectral Data<<<<<
