SpectraSuite Data File
++++++++++++++++++++++++++++++++++++
Date: Wed Sep 04 18:04:45 EDT 2013
User: lab3
Dark Spectrum Present: Yes
Reference Spectrum Present: No
Number of Sampled Component Spectra: 1
Spectrometers: USB2E7196
Integration Time (usec): 170000 (USB2E7196)
Spectra Averaged: 20 (USB2E7196)
Boxcar Smoothing: 10 (USB2E7196)
Correct for Electrical Dark: No (USB2E7196)
Strobe/Lamp Enabled: No (USB2E7196)
Correct for Detector Non-linearity: No (USB2E7196)
Correct for Stray Light: No (USB2E7196)
Number of Pixels in Processed Spectrum: 2048
>>>>>Begin Processed Spectral Data<<<<<
339.09	0.00
339.48	214.50
339.86	214.60
340.24	214.55
340.63	217.30
341.01	227.65
341.39	221.05
341.78	222.35
342.16	224.40
342.54	224.25
342.93	212.64
343.31	223.37
343.69	223.83
344.07	224.38
344.46	224.95
344.84	225.40
345.22	225.33
345.60	225.60
345.99	225.84
346.37	225.90
346.75	225.95
347.13	226.05
347.52	226.16
347.90	226.38
348.28	226.47
348.66	226.56
349.05	226.41
349.43	226.63
349.81	226.64
350.19	226.73
350.57	226.82
350.96	226.95
351.34	227.05
351.72	227.20
352.10	227.23
352.48	227.26
352.87	227.29
353.25	227.30
353.63	227.35
354.01	227.38
354.39	227.50
354.77	227.62
355.15	227.86
355.54	227.80
355.92	227.70
356.30	227.77
356.68	228.09
357.06	228.16
357.44	228.18
357.82	228.31
358.20	228.72
358.58	228.74
358.97	228.79
359.35	228.92
359.73	229.06
360.11	229.09
360.49	229.16
360.87	229.19
361.25	229.30
361.63	229.53
362.01	229.60
362.39	229.61
362.77	229.72
363.15	229.73
363.53	229.84
363.91	229.93
364.29	229.96
364.67	229.59
365.05	229.68
365.43	229.67
365.81	229.73
366.19	229.60
366.57	229.88
366.95	229.89
367.33	229.83
367.71	229.83
368.09	229.94
368.47	229.93
368.85	229.97
369.23	230.08
369.61	229.90
369.99	230.01
370.37	230.05
370.75	230.24
371.13	230.10
371.51	230.02
371.89	230.03
372.27	230.02
372.65	230.02
373.03	230.01
373.41	229.97
373.78	229.87
374.16	229.59
374.54	229.33
374.92	229.18
375.30	229.22
375.68	229.04
376.06	229.01
376.44	228.94
376.82	228.91
377.19	228.80
377.57	228.76
377.95	228.53
378.33	228.44
378.71	228.03
379.09	228.00
379.47	227.99
379.84	227.85
380.22	227.70
380.60	227.58
380.98	227.42
381.36	227.33
381.73	227.22
382.11	227.24
382.49	227.18
382.87	227.15
383.25	226.98
383.62	227.53
384.00	227.39
384.38	227.35
384.76	227.37
385.13	227.53
385.51	227.41
385.89	227.37
386.27	227.36
386.64	227.45
387.02	227.42
387.40	227.32
387.78	227.27
388.15	227.30
388.53	227.24
388.91	227.24
389.29	227.16
389.66	227.18
390.04	227.08
390.42	227.14
390.79	227.12
391.17	227.16
391.55	226.57
391.92	226.53
392.30	226.53
392.68	226.42
393.05	226.38
393.43	226.39
393.81	226.35
394.18	226.30
394.56	226.26
394.94	226.34
395.31	226.40
395.69	226.63
396.06	226.69
396.44	226.81
396.82	226.83
397.19	227.15
397.57	227.18
397.95	227.32
398.32	227.34
398.70	227.44
399.07	227.52
399.45	227.58
399.82	227.68
400.20	227.77
400.58	227.90
400.95	227.76
401.33	227.96
401.70	228.49
402.08	228.62
402.45	228.77
402.83	229.04
403.20	229.21
403.58	229.27
403.95	229.55
404.33	229.79
404.71	230.00
405.08	230.45
405.46	230.73
405.83	231.04
406.21	231.30
406.58	231.62
406.96	231.94
407.33	232.35
407.70	232.77
408.08	233.49
408.45	233.91
408.83	234.49
409.20	234.92
409.58	235.02
409.95	235.59
410.33	236.17
410.70	236.49
411.08	237.14
411.45	237.80
411.82	238.38
412.20	239.15
412.57	240.11
412.95	240.46
413.32	241.36
413.69	242.21
414.07	243.11
414.44	244.20
414.82	245.22
415.19	246.38
415.56	247.57
415.94	248.57
416.31	249.96
416.68	251.31
417.06	252.93
417.43	254.63
417.81	256.39
418.18	258.13
418.55	260.05
418.93	262.00
419.30	264.11
419.67	266.35
420.04	268.65
420.42	270.98
420.79	274.05
421.16	276.74
421.54	279.77
421.91	282.85
422.28	285.82
422.66	289.16
423.03	292.68
423.40	296.04
423.77	299.63
424.15	303.31
424.52	307.23
424.89	311.44
425.26	315.41
425.64	319.13
426.01	323.34
426.38	327.78
426.75	332.34
427.13	336.94
427.50	341.74
427.87	346.63
428.24	351.62
428.61	356.13
428.99	361.60
429.36	367.05
429.73	372.50
430.10	378.10
430.47	383.69
430.85	389.24
431.22	395.40
431.59	402.15
431.96	408.43
432.33	415.24
432.70	421.92
433.08	429.89
433.45	437.43
433.82	444.80
434.19	452.96
434.56	461.24
434.93	468.85
435.30	476.59
435.68	485.28
436.05	493.76
436.42	502.20
436.79	509.85
437.16	518.33
437.53	527.20
437.90	536.06
438.27	544.79
438.64	553.86
439.01	562.26
439.38	569.53
439.75	576.62
440.13	584.77
440.50	592.20
440.87	598.29
441.24	604.73
441.61	612.04
441.98	617.23
442.35	622.93
442.72	629.05
443.09	635.01
443.46	638.41
443.83	640.80
444.20	642.91
444.57	645.67
444.94	646.71
445.31	647.74
445.68	648.97
446.05	649.14
446.42	647.85
446.79	646.45
447.16	644.76
447.53	643.75
447.90	640.17
448.27	636.58
448.64	631.53
449.01	627.74
449.37	621.32
449.74	615.26
450.11	608.37
450.48	600.57
450.85	592.42
451.22	585.60
451.59	578.97
451.96	572.50
452.33	564.22
452.70	556.81
453.07	548.18
453.43	539.10
453.80	530.62
454.17	522.45
454.54	514.53
454.91	506.43
455.28	498.16
455.65	490.44
456.02	483.56
456.38	477.28
456.75	469.58
457.12	463.01
457.49	456.73
457.86	450.37
458.23	445.24
458.59	439.45
458.96	433.57
459.33	428.36
459.70	423.20
460.07	419.10
460.43	414.38
460.80	410.10
461.17	406.36
461.54	402.35
461.91	398.50
462.27	394.69
462.64	391.39
463.01	387.90
463.38	384.72
463.74	380.71
464.11	377.74
464.48	375.08
464.85	372.24
465.21	370.04
465.58	367.66
465.95	364.75
466.32	362.60
466.68	360.34
467.05	358.08
467.42	355.90
467.78	353.64
468.15	351.60
468.52	349.90
468.88	347.56
469.25	345.60
469.62	344.17
469.98	342.70
470.35	341.16
470.72	339.60
471.08	337.87
471.45	336.60
471.82	335.27
472.18	333.73
472.55	332.67
472.92	331.30
473.28	330.26
473.65	329.28
474.02	328.21
474.38	327.34
474.75	326.57
475.11	325.69
475.48	325.04
475.85	324.36
476.21	323.73
476.58	323.20
476.94	322.86
477.31	322.42
477.67	321.90
478.04	321.54
478.41	321.42
478.77	321.66
479.14	321.38
479.50	321.24
479.87	321.40
480.23	321.46
480.60	321.52
480.96	321.47
481.33	321.76
481.69	321.85
482.06	322.07
482.42	322.27
482.79	322.49
483.15	322.97
483.52	323.56
483.88	323.97
484.25	324.65
484.61	325.35
484.98	325.99
485.34	327.01
485.71	327.92
486.07	328.88
486.44	329.42
486.80	330.54
487.17	331.74
487.53	333.02
487.90	334.39
488.26	335.98
488.62	337.72
488.99	339.24
489.35	341.11
489.72	342.98
490.08	345.01
490.44	347.09
490.81	349.31
491.17	351.50
491.54	354.03
491.90	356.60
492.26	359.23
492.63	362.02
492.99	364.83
493.36	367.95
493.72	371.25
494.08	374.74
494.45	378.42
494.81	382.30
495.17	386.24
495.54	390.52
495.90	394.80
496.26	399.19
496.63	403.85
496.99	408.66
497.35	413.74
497.72	418.97
498.08	424.45
498.44	430.16
498.80	436.23
499.17	442.25
499.53	448.45
499.89	455.08
500.26	462.02
500.62	468.99
500.98	476.43
501.34	483.88
501.71	491.68
502.07	499.51
502.43	507.52
502.79	515.89
503.16	524.56
503.52	533.54
503.88	542.76
504.24	552.47
504.60	562.36
504.97	572.77
505.33	583.21
505.69	594.43
506.05	605.35
506.41	616.68
506.78	628.44
507.14	640.60
507.50	652.94
507.86	665.47
508.22	678.42
508.59	691.30
508.95	705.15
509.31	719.15
509.67	733.68
510.03	748.14
510.39	763.00
510.75	778.05
511.12	793.38
511.48	809.11
511.84	824.84
512.20	840.91
512.56	857.14
512.92	874.26
513.28	890.88
513.64	908.25
514.00	925.80
514.37	943.79
514.73	961.97
515.09	980.17
515.45	998.70
515.81	1017.14
516.17	1036.18
516.53	1054.71
516.89	1073.70
517.25	1092.90
517.61	1113.18
517.97	1133.48
518.33	1153.52
518.69	1173.90
519.05	1194.67
519.41	1215.37
519.77	1236.74
520.13	1257.48
520.49	1277.97
520.85	1300.48
521.21	1321.81
521.57	1343.15
521.93	1363.89
522.29	1384.99
522.65	1405.74
523.01	1426.82
523.37	1447.74
523.73	1468.99
524.09	1489.77
524.45	1510.56
524.81	1531.75
525.17	1552.34
525.53	1573.00
525.89	1594.05
526.25	1614.75
526.61	1635.41
526.97	1656.90
527.33	1678.16
527.68	1700.03
528.04	1721.37
528.40	1741.28
528.76	1762.40
529.12	1782.58
529.48	1803.54
529.84	1823.93
530.20	1845.33
530.56	1866.05
530.91	1887.22
531.27	1907.82
531.63	1928.55
531.99	1949.48
532.35	1969.40
532.71	1989.51
533.07	2010.10
533.42	2030.05
533.78	2050.16
534.14	2069.84
534.50	2088.66
534.86	2107.57
535.21	2125.31
535.57	2143.94
535.93	2161.64
536.29	2179.25
536.65	2197.77
537.00	2215.29
537.36	2232.52
537.72	2249.19
538.08	2266.52
538.44	2283.43
538.79	2299.64
539.15	2316.15
539.51	2331.87
539.87	2347.40
540.22	2362.19
540.58	2376.52
540.94	2389.90
541.29	2402.61
541.65	2415.33
542.01	2428.10
542.37	2439.06
542.72	2450.51
543.08	2461.22
543.44	2473.17
543.79	2483.52
544.15	2493.38
544.51	2503.64
544.87	2513.88
545.22	2522.51
545.58	2530.26
545.94	2537.68
546.29	2544.51
546.65	2551.12
547.01	2557.01
547.36	2563.00
547.72	2568.58
548.07	2572.83
548.43	2578.57
548.79	2583.55
549.14	2587.68
549.50	2591.30
549.86	2595.45
550.21	2598.98
550.57	2602.45
550.92	2603.82
551.28	2605.41
551.64	2608.03
551.99	2610.28
552.35	2612.47
552.70	2614.50
553.06	2616.23
553.41	2617.34
553.77	2619.31
554.13	2621.10
554.48	2622.90
554.84	2623.97
555.19	2625.20
555.55	2627.05
555.90	2626.30
556.26	2625.66
556.61	2624.29
556.97	2622.64
557.32	2622.17
557.68	2621.10
558.03	2620.02
558.39	2619.00
558.74	2618.10
559.10	2614.73
559.45	2611.21
559.81	2606.30
560.16	2601.72
560.52	2597.07
560.87	2592.90
561.23	2587.53
561.58	2581.42
561.94	2574.43
562.29	2567.23
562.64	2559.82
563.00	2551.47
563.35	2545.20
563.71	2538.60
564.06	2532.72
564.42	2526.12
564.77	2519.16
565.12	2511.86
565.48	2504.26
565.83	2496.48
566.19	2488.56
566.54	2480.91
566.89	2472.76
567.25	2465.11
567.60	2457.79
567.96	2450.27
568.31	2442.02
568.66	2433.23
569.02	2424.32
569.37	2416.20
569.72	2408.40
570.08	2399.22
570.43	2390.02
570.78	2380.88
571.14	2371.46
571.49	2360.90
571.84	2351.53
572.20	2340.71
572.55	2330.91
572.90	2319.76
573.26	2309.13
573.61	2297.91
573.96	2286.73
574.31	2274.74
574.67	2262.95
575.02	2250.39
575.37	2237.49
575.72	2224.07
576.08	2212.12
576.43	2199.75
576.78	2186.73
577.13	2173.34
577.49	2160.71
577.84	2148.75
578.19	2136.33
578.54	2123.85
578.90	2111.81
579.25	2099.33
579.60	2086.52
579.95	2072.87
580.30	2059.60
580.66	2046.12
581.01	2032.37
581.36	2018.28
581.71	2005.42
582.06	1992.36
582.42	1979.79
582.77	1967.31
583.12	1955.45
583.47	1942.60
583.82	1930.18
584.17	1918.05
584.53	1905.82
584.88	1893.04
585.23	1879.77
585.58	1865.30
585.93	1851.73
586.28	1838.50
586.63	1824.19
586.98	1810.11
587.34	1797.13
587.69	1783.89
588.04	1771.38
588.39	1759.34
588.74	1747.43
589.09	1735.33
589.44	1722.41
589.79	1710.06
590.14	1698.05
590.49	1685.88
590.84	1673.78
591.19	1661.79
591.54	1649.15
591.89	1636.80
592.25	1626.28
592.60	1614.63
592.95	1603.41
593.30	1591.32
593.65	1579.36
594.00	1567.52
594.35	1557.63
594.70	1545.79
595.05	1534.32
595.40	1522.05
595.75	1510.04
596.10	1498.63
596.45	1486.97
596.80	1475.99
597.15	1464.34
597.50	1452.41
597.85	1440.83
598.19	1429.32
598.54	1417.46
598.89	1406.14
599.24	1395.50
599.59	1383.71
599.94	1372.73
600.29	1362.08
600.64	1351.75
600.99	1340.70
601.34	1331.15
601.69	1319.80
602.04	1309.67
602.39	1300.12
602.74	1290.88
603.08	1281.55
603.43	1272.12
603.78	1262.37
604.13	1252.76
604.48	1243.14
604.83	1233.50
605.18	1223.59
605.53	1213.85
605.87	1204.68
606.22	1196.17
606.57	1186.91
606.92	1177.61
607.27	1168.68
607.62	1159.76
607.96	1151.01
608.31	1142.89
608.66	1134.18
609.01	1125.55
609.36	1116.86
609.70	1108.00
610.05	1099.26
610.40	1090.43
610.75	1081.47
611.10	1073.11
611.44	1064.35
611.79	1056.03
612.14	1047.96
612.49	1040.13
612.83	1032.66
613.18	1025.05
613.53	1017.03
613.88	1008.90
614.22	1001.11
614.57	993.18
614.92	985.42
615.27	977.92
615.61	970.24
615.96	962.37
616.31	954.70
616.65	947.50
617.00	940.00
617.35	932.52
617.70	925.38
618.04	918.27
618.39	911.17
618.74	904.77
619.08	897.59
619.43	890.61
619.78	883.55
620.12	876.23
620.47	869.05
620.82	862.01
621.16	855.13
621.51	848.43
621.85	841.99
622.20	835.16
622.55	828.46
622.89	821.93
623.24	815.47
623.59	809.17
623.93	802.93
624.28	796.95
624.62	791.23
624.97	785.38
625.32	779.67
625.66	773.70
626.01	767.42
626.35	761.88
626.70	756.08
627.04	750.80
627.39	745.27
627.73	739.86
628.08	734.56
628.43	729.18
628.77	723.79
629.12	718.43
629.46	713.75
629.81	708.87
630.15	704.10
630.50	699.30
630.84	694.32
631.19	689.32
631.53	684.53
631.88	679.23
632.22	674.23
632.57	669.49
632.91	664.81
633.26	660.43
633.60	655.96
633.95	651.34
634.29	646.36
634.64	641.99
634.98	637.22
635.32	632.72
635.67	628.66
636.01	624.42
636.36	619.94
636.70	615.70
637.05	611.42
637.39	607.21
637.73	603.03
638.08	598.94
638.42	594.76
638.77	590.26
639.11	586.09
639.45	581.82
639.80	577.52
640.14	573.37
640.49	569.16
640.83	565.24
641.17	561.55
641.52	557.90
641.86	554.18
642.20	550.83
642.55	547.16
642.89	543.38
643.23	539.86
643.58	536.79
643.92	533.05
644.26	529.64
644.61	526.34
644.95	522.90
645.29	519.41
645.64	516.21
645.98	513.16
646.32	510.16
646.66	507.01
647.01	503.95
647.35	501.07
647.69	498.15
648.04	495.25
648.38	492.32
648.72	489.29
649.06	486.13
649.41	483.03
649.75	479.97
650.09	477.20
650.43	474.39
650.78	471.35
651.12	468.50
651.46	465.68
651.80	462.75
652.14	460.06
652.49	457.72
652.83	454.99
653.17	452.47
653.51	449.62
653.85	447.33
654.20	444.91
654.54	442.37
654.88	439.80
655.22	437.56
655.56	435.12
655.90	432.81
656.25	430.73
656.59	428.61
656.93	426.56
657.27	424.48
657.61	422.01
657.95	419.83
658.29	417.63
658.64	415.46
658.98	413.26
659.32	410.93
659.66	408.68
660.00	406.63
660.34	404.54
660.68	402.64
661.02	400.50
661.36	398.48
661.70	396.41
662.05	394.53
662.39	392.38
662.73	390.56
663.07	388.88
663.41	386.86
663.75	384.88
664.09	383.00
664.43	381.00
664.77	379.38
665.11	377.51
665.45	375.87
665.79	374.24
666.13	372.60
666.47	371.04
666.81	369.32
667.15	367.55
667.49	365.97
667.83	364.51
668.17	363.05
668.51	361.54
668.85	360.22
669.19	359.08
669.53	357.57
669.87	355.98
670.21	354.42
670.55	353.14
670.89	351.94
671.23	350.48
671.57	349.05
671.91	347.59
672.25	346.40
672.58	345.16
672.92	343.74
673.26	342.50
673.60	341.34
673.94	340.17
674.28	339.19
674.62	338.10
674.96	336.74
675.30	335.41
675.64	334.22
675.97	332.88
676.31	331.48
676.65	330.20
676.99	329.25
677.33	328.08
677.67	327.01
678.01	325.66
678.34	324.69
678.68	323.79
679.02	322.71
679.36	321.63
679.70	320.59
680.04	319.52
680.37	318.41
680.71	317.36
681.05	316.44
681.39	315.41
681.73	314.39
682.06	313.48
682.40	312.59
682.74	311.77
683.08	311.01
683.42	310.13
683.75	309.49
684.09	308.52
684.43	307.70
684.77	306.77
685.10	306.02
685.44	305.18
685.78	304.30
686.12	303.56
686.45	302.80
686.79	301.88
687.13	301.32
687.46	300.65
687.80	300.04
688.14	299.24
688.48	298.53
688.81	297.78
689.15	297.28
689.49	296.60
689.82	295.89
690.16	295.13
690.50	294.43
690.83	293.58
691.17	292.78
691.51	292.08
691.84	291.43
692.18	290.80
692.52	290.12
692.85	289.55
693.19	289.18
693.52	288.57
693.86	287.99
694.20	287.34
694.53	286.81
694.87	286.11
695.21	285.41
695.54	284.82
695.88	284.11
696.21	283.26
696.55	282.69
696.88	282.05
697.22	281.37
697.56	280.82
697.89	280.24
698.23	279.77
698.56	279.22
698.90	278.80
699.23	278.19
699.57	277.57
699.90	276.92
700.24	276.17
700.58	275.65
700.91	275.19
701.25	275.06
701.58	274.82
701.92	274.51
702.25	274.20
702.59	273.73
702.92	273.35
703.26	272.98
703.59	272.56
703.93	272.51
704.26	272.14
704.60	271.71
704.93	271.27
705.26	270.82
705.60	270.53
705.93	269.97
706.27	269.70
706.60	269.55
706.94	269.39
707.27	269.00
707.61	268.65
707.94	268.29
708.27	267.51
708.61	266.78
708.94	266.35
709.28	265.90
709.61	265.49
709.94	265.18
710.28	264.84
710.61	264.46
710.95	263.62
711.28	263.59
711.61	263.24
711.95	263.01
712.28	262.68
712.61	262.28
712.95	262.28
713.28	262.10
713.61	261.68
713.95	261.16
714.28	260.81
714.61	260.43
714.95	260.10
715.28	259.70
715.61	259.38
715.95	259.06
716.28	258.72
716.61	258.47
716.95	258.10
717.28	257.72
717.61	257.35
717.94	257.07
718.28	256.47
718.61	256.13
718.94	255.79
719.27	255.48
719.61	255.17
719.94	254.72
720.27	254.25
720.60	253.84
720.94	253.58
721.27	253.44
721.60	253.27
721.93	252.96
722.27	252.92
722.60	252.76
722.93	252.42
723.26	252.25
723.59	251.97
723.93	251.84
724.26	251.70
724.59	251.48
724.92	251.36
725.25	251.25
725.59	251.04
725.92	250.89
726.25	250.72
726.58	250.55
726.91	250.30
727.24	250.30
727.57	250.21
727.91	249.99
728.24	249.70
728.57	249.47
728.90	249.36
729.23	249.03
729.56	249.06
729.89	248.94
730.22	248.77
730.55	248.60
730.89	248.46
731.22	248.24
731.55	248.07
731.88	247.87
732.21	247.61
732.54	247.32
732.87	247.19
733.20	247.00
733.53	246.85
733.86	246.72
734.19	246.34
734.52	246.23
734.85	246.42
735.18	246.26
735.51	246.21
735.84	246.07
736.17	245.98
736.50	245.49
736.83	245.90
737.16	245.73
737.49	245.60
737.82	245.35
738.15	245.24
738.48	245.14
738.81	245.00
739.14	244.84
739.47	244.79
739.80	244.66
740.13	244.54
740.46	244.35
740.79	244.15
741.12	244.01
741.45	243.80
741.78	243.36
742.11	243.34
742.44	243.04
742.77	242.98
743.10	242.80
743.43	242.76
743.75	242.10
744.08	242.59
744.41	242.38
744.74	242.18
745.07	241.96
745.40	241.81
745.73	241.78
746.06	241.69
746.39	241.63
746.71	241.47
747.04	241.28
747.37	241.14
747.70	241.11
748.03	241.10
748.36	240.96
748.68	240.84
749.01	240.58
749.34	240.42
749.67	240.27
750.00	240.25
750.33	240.42
750.65	240.31
750.98	239.55
751.31	239.48
751.64	239.48
751.97	239.58
752.29	239.56
752.62	239.24
752.95	239.03
753.28	238.81
753.60	238.62
753.93	238.63
754.26	238.55
754.59	238.25
754.91	237.99
755.24	237.91
755.57	237.80
755.90	237.70
756.22	237.63
756.55	237.45
756.88	237.16
757.20	236.76
757.53	236.59
757.86	236.46
758.19	236.37
758.51	236.24
758.84	235.96
759.17	235.75
759.49	235.73
759.82	235.91
760.15	235.84
760.47	235.76
760.80	235.55
761.13	235.54
761.45	235.51
761.78	235.47
762.11	235.34
762.43	235.18
762.76	235.06
763.08	235.07
763.41	234.95
763.74	234.92
764.06	234.85
764.39	234.70
764.71	234.62
765.04	234.51
765.37	234.40
765.69	234.22
766.02	234.07
766.34	233.96
766.67	233.64
767.00	233.68
767.32	233.84
767.65	234.07
767.97	233.93
768.30	233.89
768.62	233.82
768.95	233.73
769.27	233.66
769.60	233.74
769.92	233.55
770.25	233.42
770.57	233.33
770.90	233.20
771.22	233.14
771.55	233.10
771.87	233.09
772.20	233.02
772.52	233.45
772.85	234.04
773.17	233.98
773.50	233.96
773.82	233.80
774.15	233.49
774.47	233.14
774.80	233.08
775.12	233.02
775.45	233.02
775.77	233.03
776.09	233.06
776.42	232.90
776.74	233.03
777.07	232.97
777.39	232.96
777.72	232.96
778.04	232.96
778.36	232.99
778.69	232.94
779.01	232.99
779.33	232.55
779.66	231.94
779.98	231.93
780.31	231.93
780.63	232.14
780.95	232.24
781.28	232.18
781.60	232.10
781.92	232.10
782.25	232.01
782.57	231.94
782.89	231.86
783.22	231.81
783.54	231.69
783.86	231.77
784.19	231.67
784.51	231.79
784.83	231.75
785.16	231.60
785.48	231.53
785.80	231.50
786.12	231.52
786.45	231.53
786.77	231.50
787.09	231.44
787.42	231.25
787.74	231.29
788.06	231.28
788.38	231.28
788.71	231.22
789.03	231.24
789.35	231.26
789.67	231.19
789.99	231.28
790.32	231.18
790.64	231.20
790.96	231.65
791.28	231.44
791.61	231.36
791.93	231.45
792.25	231.40
792.57	231.63
792.89	231.45
793.21	231.43
793.54	231.38
793.86	231.36
794.18	231.37
794.50	231.19
794.82	231.25
795.14	231.28
795.47	231.27
795.79	231.17
796.11	231.04
796.43	231.03
796.75	231.00
797.07	231.03
797.39	230.91
797.71	230.55
798.04	230.52
798.36	230.57
798.68	230.50
799.00	230.62
799.32	230.34
799.64	230.44
799.96	230.49
800.28	230.50
800.60	230.44
800.92	230.45
801.24	230.48
801.56	230.43
801.89	230.35
802.21	230.40
802.53	230.35
802.85	230.49
803.17	230.69
803.49	230.50
803.81	230.46
804.13	230.45
804.45	230.26
804.77	230.34
805.09	230.32
805.41	230.28
805.73	230.12
806.05	230.00
806.37	229.97
806.69	229.81
807.01	229.84
807.33	229.75
807.65	229.54
807.97	229.64
808.28	229.56
808.60	229.46
808.92	229.32
809.24	229.51
809.56	229.38
809.88	229.25
810.20	229.22
810.52	229.25
810.84	229.18
811.16	229.18
811.48	229.04
811.80	229.22
812.12	229.10
812.43	229.20
812.75	229.18
813.07	229.07
813.39	229.08
813.71	228.93
814.03	228.93
814.35	229.00
814.67	228.79
814.98	228.72
815.30	228.73
815.62	228.66
815.94	228.45
816.26	228.63
816.58	228.44
816.89	228.52
817.21	228.44
817.53	228.46
817.85	228.51
818.17	228.57
818.48	228.34
818.80	228.46
819.12	228.36
819.44	228.28
819.76	228.30
820.07	228.26
820.39	228.25
820.71	228.25
821.03	228.18
821.34	228.19
821.66	228.29
821.98	228.34
822.30	228.30
822.61	228.54
822.93	228.24
823.25	228.26
823.57	228.17
823.88	228.16
824.20	228.18
824.52	228.22
824.83	228.21
825.15	228.07
825.47	228.02
825.79	228.02
826.10	228.04
826.42	228.00
826.74	228.01
827.05	228.03
827.37	228.10
827.69	228.06
828.00	228.04
828.32	227.95
828.64	227.87
828.95	228.14
829.27	228.02
829.58	228.11
829.90	228.21
830.22	228.20
830.53	228.12
830.85	228.00
831.17	227.93
831.48	227.88
831.80	227.91
832.11	227.91
832.43	227.83
832.75	227.83
833.06	228.14
833.38	228.05
833.69	228.01
834.01	228.00
834.32	228.00
834.64	227.99
834.96	228.01
835.27	227.99
835.59	227.85
835.90	227.76
836.22	227.71
836.53	227.56
836.85	227.62
837.16	228.15
837.48	228.18
837.79	228.27
838.11	228.22
838.42	228.23
838.74	228.30
839.05	228.25
839.37	228.22
839.68	227.90
840.00	228.00
840.31	228.15
840.63	228.10
840.94	228.13
841.26	228.06
841.57	228.11
841.88	228.17
842.20	228.10
842.51	228.03
842.83	228.00
843.14	228.46
843.46	228.44
843.77	228.14
844.08	228.07
844.40	227.95
844.71	227.95
845.03	227.92
845.34	227.89
845.65	227.94
845.97	227.91
846.28	227.89
846.60	227.82
846.91	227.74
847.22	227.75
847.54	227.84
847.85	227.93
848.16	227.84
848.48	227.78
848.79	227.96
849.10	228.02
849.42	228.09
849.73	227.63
850.04	227.60
850.36	227.45
850.67	227.63
850.98	227.62
851.30	227.67
851.61	227.72
851.92	227.65
852.23	227.77
852.55	227.82
852.86	227.84
853.17	227.92
853.49	227.96
853.80	228.02
854.11	227.95
854.42	227.98
854.74	227.86
855.05	227.79
855.36	227.57
855.67	227.65
855.99	227.66
856.30	228.20
856.61	228.22
856.92	228.25
857.23	228.18
857.55	228.16
857.86	228.13
858.17	228.13
858.48	228.11
858.79	228.02
859.11	228.10
859.42	228.12
859.73	228.03
860.04	228.00
860.35	227.85
860.66	227.72
860.98	227.66
861.29	227.74
861.60	227.80
861.91	227.85
862.22	227.76
862.53	227.63
862.84	227.06
863.16	227.19
863.47	227.11
863.78	227.06
864.09	227.01
864.40	227.04
864.71	227.12
865.02	227.21
865.33	227.17
865.64	227.09
865.95	227.08
866.27	227.34
866.58	227.25
866.89	227.36
867.20	227.38
867.51	227.35
867.82	227.41
868.13	227.49
868.44	227.45
868.75	227.50
869.06	227.59
869.37	227.65
869.68	227.45
869.99	227.57
870.30	227.56
870.61	227.65
870.92	227.56
871.23	227.49
871.54	227.50
871.85	227.63
872.16	227.65
872.47	227.58
872.78	227.35
873.09	227.42
873.40	227.35
873.71	227.41
874.02	227.43
874.33	227.36
874.64	227.31
874.95	227.39
875.26	227.26
875.56	227.23
875.87	227.18
876.18	227.17
876.49	227.50
876.80	227.53
877.11	227.47
877.42	227.51
877.73	227.50
878.04	227.46
878.35	227.42
878.66	227.42
878.96	227.40
879.27	227.35
879.58	227.29
879.89	227.24
880.20	227.28
880.51	227.22
880.82	227.25
881.12	227.22
881.43	227.11
881.74	227.03
882.05	227.03
882.36	227.06
882.67	227.10
882.97	226.67
883.28	226.67
883.59	226.71
883.90	226.75
884.21	226.83
884.51	226.78
884.82	226.69
885.13	226.67
885.44	226.74
885.74	226.86
886.05	226.87
886.36	226.92
886.67	226.81
886.98	227.11
887.28	227.13
887.59	227.18
887.90	227.21
888.20	227.21
888.51	227.26
888.82	227.21
889.13	227.24
889.43	227.60
889.74	227.53
890.05	227.47
890.35	227.42
890.66	227.40
890.97	227.35
891.28	227.28
891.58	227.28
891.89	227.24
892.20	227.11
892.50	226.99
892.81	226.95
893.12	227.03
893.42	226.71
893.73	226.74
894.04	226.75
894.34	226.76
894.65	226.84
894.95	226.77
895.26	226.82
895.57	227.04
895.87	226.59
896.18	226.65
896.48	226.63
896.79	226.68
897.10	226.67
897.40	226.74
897.71	226.83
898.01	226.76
898.32	226.84
898.63	226.84
898.93	226.98
899.24	226.92
899.54	226.86
899.85	226.91
900.15	226.82
900.46	226.80
900.76	226.86
901.07	226.75
901.38	226.73
901.68	226.79
901.99	226.54
902.29	226.62
902.60	226.62
902.90	226.62
903.21	226.63
903.51	226.57
903.82	226.63
904.12	226.61
904.43	226.68
904.73	226.69
905.03	226.77
905.34	227.20
905.64	227.28
905.95	227.23
906.25	227.21
906.56	227.21
906.86	227.24
907.17	227.14
907.47	227.21
907.77	227.26
908.08	227.17
908.38	227.22
908.69	227.20
908.99	227.29
909.30	227.37
909.60	227.41
909.90	227.47
910.21	227.28
910.51	227.27
910.81	227.24
911.12	227.20
911.42	227.18
911.73	226.71
912.03	226.69
912.33	226.83
912.64	226.82
912.94	226.85
913.24	226.73
913.55	226.81
913.85	226.81
914.15	226.83
914.46	226.90
914.76	226.86
915.06	226.81
915.37	226.69
915.67	226.56
915.97	226.47
916.27	226.32
916.58	226.39
916.88	226.38
917.18	226.36
917.49	226.68
917.79	226.62
918.09	226.69
918.39	226.84
918.70	226.80
919.00	226.84
919.30	227.01
919.60	227.05
919.91	226.93
920.21	226.95
920.51	226.88
920.81	226.78
921.12	226.83
921.42	226.83
921.72	226.86
922.02	226.93
922.32	226.96
922.63	227.03
922.93	227.27
923.23	227.24
923.53	227.18
923.83	226.90
924.13	226.93
924.44	226.90
924.74	226.96
925.04	227.08
925.34	227.08
925.64	226.89
925.94	226.86
926.24	227.13
926.55	227.11
926.85	227.15
927.15	227.19
927.45	227.25
927.75	227.21
928.05	227.19
928.35	227.19
928.65	227.30
928.95	227.36
929.26	227.16
929.56	227.28
929.86	227.30
930.16	227.21
930.46	227.21
930.76	227.18
931.06	226.90
931.36	226.68
931.66	226.70
931.96	226.73
932.26	226.75
932.56	226.51
932.86	226.51
933.16	226.51
933.46	226.44
933.76	226.27
934.06	226.47
934.36	226.67
934.66	226.66
934.96	226.55
935.26	226.50
935.56	226.60
935.86	226.53
936.16	226.53
936.46	226.51
936.76	226.51
937.06	226.45
937.36	226.54
937.66	226.61
937.96	226.57
938.26	226.48
938.56	226.50
938.86	226.59
939.16	226.76
939.46	226.81
939.76	226.91
940.06	227.03
940.35	226.92
940.65	226.69
940.95	226.70
941.25	226.65
941.55	226.60
941.85	226.54
942.15	226.54
942.45	226.69
942.75	226.75
943.04	226.76
943.34	226.87
943.64	226.84
943.94	226.78
944.24	226.77
944.54	226.84
944.84	226.79
945.13	226.71
945.43	226.58
945.73	226.55
946.03	226.45
946.33	226.35
946.62	226.30
946.92	226.31
947.22	226.35
947.52	226.35
947.82	226.43
948.11	226.38
948.41	226.36
948.71	226.18
949.01	226.21
949.31	226.16
949.60	226.11
949.90	226.16
950.20	226.16
950.50	226.24
950.79	226.19
951.09	226.31
951.39	226.32
951.69	226.28
951.98	226.37
952.28	226.42
952.58	226.40
952.87	226.44
953.17	226.51
953.47	226.48
953.76	226.49
954.06	226.45
954.36	226.43
954.66	226.43
954.95	226.63
955.25	226.62
955.55	226.68
955.84	226.61
956.14	226.70
956.44	226.74
956.73	226.69
957.03	226.71
957.32	226.69
957.62	226.67
957.92	226.81
958.21	226.80
958.51	227.30
958.81	227.38
959.10	227.47
959.40	227.61
959.69	227.69
959.99	227.74
960.29	227.74
960.58	227.76
960.88	227.95
961.17	227.88
961.47	227.90
961.76	227.89
962.06	227.94
962.36	227.90
962.65	227.90
962.95	227.89
963.24	227.86
963.54	227.85
963.83	227.89
964.13	227.83
964.42	227.68
964.72	227.40
965.01	227.29
965.31	227.21
965.60	227.04
965.90	227.30
966.19	227.26
966.49	227.29
966.78	227.25
967.08	227.20
967.37	227.16
967.67	227.08
967.96	227.20
968.26	227.23
968.55	227.17
968.85	227.15
969.14	227.20
969.43	227.22
969.73	227.22
970.02	227.16
970.32	227.12
970.61	227.14
970.91	226.97
971.20	226.98
971.49	226.99
971.79	227.08
972.08	226.75
972.38	226.77
972.67	226.79
972.96	226.91
973.26	226.74
973.55	226.88
973.85	226.92
974.14	226.80
974.43	226.90
974.73	226.91
975.02	226.90
975.31	226.85
975.61	226.87
975.90	226.82
976.19	226.81
976.49	226.92
976.78	226.93
977.07	226.95
977.37	226.97
977.66	227.03
977.95	226.95
978.24	227.03
978.54	227.11
978.83	227.06
979.12	226.92
979.42	226.95
979.71	226.86
980.00	226.83
980.29	226.92
980.59	226.76
980.88	226.94
981.17	226.86
981.46	226.92
981.76	226.93
982.05	227.10
982.34	227.18
982.63	227.11
982.93	227.11
983.22	227.21
983.51	227.31
983.80	227.37
984.09	227.39
984.39	227.32
984.68	227.25
984.97	227.25
985.26	227.29
985.55	227.34
985.85	227.25
986.14	227.29
986.43	227.25
986.72	227.34
987.01	227.05
987.30	227.12
987.59	227.04
987.89	227.02
988.18	226.80
988.47	226.62
988.76	226.56
989.05	226.53
989.34	226.45
989.63	226.50
989.92	226.37
990.22	226.37
990.51	226.32
990.80	226.29
991.09	226.40
991.38	226.40
991.67	226.45
991.96	226.43
992.25	226.45
992.54	226.39
992.83	226.38
993.12	226.47
993.41	226.48
993.70	226.68
993.99	226.77
994.28	226.85
994.58	226.95
994.87	226.92
995.16	226.91
995.45	226.87
995.74	226.71
996.03	226.81
996.32	226.83
996.61	226.97
996.90	226.96
997.19	226.86
997.48	226.81
997.77	226.73
998.06	226.72
998.34	226.66
998.63	226.59
998.92	226.54
999.21	226.64
999.50	226.69
999.79	226.52
1000.08	226.46
1000.37	226.51
1000.66	226.50
1000.95	226.72
1001.24	226.76
1001.53	226.86
1001.82	226.82
1002.11	226.68
1002.40	226.77
1002.68	226.88
1002.97	227.22
1003.26	227.14
1003.55	227.20
1003.84	227.25
1004.13	227.42
1004.42	227.42
1004.71	227.50
1004.99	227.48
1005.28	227.53
1005.57	227.48
1005.86	227.46
1006.15	227.48
1006.44	227.45
1006.72	227.49
1007.01	227.25
1007.30	227.24
1007.59	227.19
1007.88	227.25
1008.17	227.25
1008.45	227.09
1008.74	226.95
1009.03	226.70
1009.32	226.74
1009.60	226.70
1009.89	226.58
1010.18	226.44
1010.47	226.34
1010.76	226.33
1011.04	226.35
1011.33	226.36
1011.62	226.36
1011.91	226.33
1012.19	226.35
1012.48	226.32
1012.77	226.36
1013.05	226.66
1013.34	226.69
1013.63	226.61
1013.92	226.59
1014.20	226.56
1014.49	226.60
1014.78	226.57
1015.06	226.41
1015.35	226.43
1015.64	226.48
1015.92	226.69
1016.21	226.73
1016.50	226.83
1016.78	226.85
1017.07	226.94
1017.36	226.84
1017.64	226.78
1017.93	226.82
1018.22	226.77
1018.50	226.71
1018.79	226.70
1019.08	226.47
1019.36	226.49
1019.65	226.46
1019.93	226.54
1020.22	226.73
1020.51	226.91
1020.79	226.86
1021.08	226.25
1021.36	225.05
1021.65	227.10
1021.94	226.40
1022.22	227.05
1022.51	225.30
1022.79	227.80
1023.08	228.85
1023.36	231.10
1023.65	225.65
>>>>>End Processed Spectral Data<<<<<
