SpectraSuite Data File
++++++++++++++++++++++++++++++++++++
Date: Wed Sep 04 17:47:07 EDT 2013
User: lab3
Dark Spectrum Present: Yes
Reference Spectrum Present: No
Number of Sampled Component Spectra: 1
Spectrometers: USB2E7196
Integration Time (usec): 170000 (USB2E7196)
Spectra Averaged: 20 (USB2E7196)
Boxcar Smoothing: 10 (USB2E7196)
Correct for Electrical Dark: No (USB2E7196)
Strobe/Lamp Enabled: No (USB2E7196)
Correct for Detector Non-linearity: No (USB2E7196)
Correct for Stray Light: No (USB2E7196)
Number of Pixels in Processed Spectrum: 2048
>>>>>Begin Processed Spectral Data<<<<<
339.09	0.00
339.48	212.60
339.86	214.05
340.24	215.00
340.63	216.90
341.01	226.10
341.39	219.80
341.78	221.30
342.16	222.30
342.54	222.55
342.93	211.98
343.31	222.68
343.69	223.26
344.07	223.77
344.46	224.32
344.84	224.77
345.22	224.67
345.60	224.96
345.99	225.20
346.37	225.37
346.75	225.57
347.13	225.61
347.52	225.70
347.90	225.94
348.28	225.89
348.66	226.07
349.05	225.98
349.43	226.03
349.81	226.06
350.19	226.01
350.57	226.04
350.96	226.23
351.34	226.23
351.72	226.30
352.10	226.40
352.48	226.40
352.87	226.44
353.25	226.53
353.63	226.60
354.01	226.58
354.39	226.62
354.77	226.62
355.15	226.80
355.54	226.77
355.92	226.63
356.30	226.78
356.68	227.19
357.06	227.25
357.44	227.21
357.82	227.30
358.20	227.79
358.58	227.87
358.97	227.92
359.35	228.18
359.73	228.37
360.11	228.36
360.49	228.48
360.87	228.51
361.25	228.72
361.63	228.86
362.01	229.03
362.39	229.09
362.77	229.15
363.15	229.17
363.53	229.26
363.91	229.34
364.29	229.34
364.67	228.84
365.05	228.89
365.43	228.99
365.81	229.05
366.19	228.95
366.57	229.04
366.95	229.07
367.33	228.97
367.71	228.92
368.09	229.03
368.47	229.00
368.85	228.98
369.23	229.01
369.61	228.88
369.99	228.96
370.37	229.08
370.75	229.31
371.13	229.19
371.51	229.10
371.89	229.11
372.27	229.20
372.65	229.25
373.03	229.22
373.41	229.21
373.78	229.06
374.16	228.74
374.54	228.64
374.92	228.48
375.30	228.43
375.68	228.34
376.06	228.31
376.44	228.19
376.82	228.18
377.19	228.00
377.57	227.95
377.95	227.73
378.33	227.51
378.71	227.18
379.09	227.25
379.47	227.29
379.84	227.14
380.22	226.90
380.60	226.82
380.98	226.73
381.36	226.63
381.73	226.57
382.11	226.63
382.49	226.51
382.87	226.40
383.25	226.34
383.62	226.79
384.00	226.61
384.38	226.56
384.76	226.60
385.13	226.79
385.51	226.70
385.89	226.60
386.27	226.63
386.64	226.61
387.02	226.48
387.40	226.36
387.78	226.39
388.15	226.41
388.53	226.36
388.91	226.22
389.29	226.08
389.66	226.12
390.04	226.00
390.42	226.11
390.79	226.10
391.17	226.04
391.55	225.53
391.92	225.56
392.30	225.66
392.68	225.52
393.05	225.42
393.43	225.40
393.81	225.43
394.18	225.33
394.56	225.31
394.94	225.39
395.31	225.34
395.69	225.56
396.06	225.69
396.44	225.78
396.82	225.85
397.19	226.18
397.57	226.21
397.95	226.35
398.32	226.27
398.70	226.46
399.07	226.69
399.45	226.69
399.82	226.80
400.20	226.83
400.58	226.89
400.95	226.90
401.33	227.14
401.70	227.54
402.08	227.78
402.45	227.95
402.83	228.19
403.20	228.41
403.58	228.42
403.95	228.60
404.33	228.76
404.71	229.05
405.08	229.50
405.46	229.75
405.83	230.03
406.21	230.29
406.58	230.57
406.96	230.77
407.33	231.11
407.70	231.46
408.08	232.16
408.45	232.66
408.83	233.11
409.20	233.48
409.58	233.68
409.95	234.23
410.33	234.76
410.70	235.19
411.08	235.81
411.45	236.46
411.82	237.09
412.20	237.87
412.57	238.80
412.95	239.18
413.32	240.05
413.69	240.85
414.07	241.83
414.44	242.72
414.82	243.77
415.19	245.05
415.56	246.20
415.94	247.22
416.31	248.66
416.68	250.09
417.06	251.72
417.43	253.31
417.81	255.04
418.18	256.82
418.55	258.69
418.93	260.71
419.30	262.66
419.67	264.81
420.04	267.04
420.42	269.43
420.79	272.40
421.16	275.17
421.54	278.17
421.91	281.12
422.28	284.13
422.66	287.32
423.03	290.64
423.40	293.98
423.77	297.44
424.15	300.86
424.52	304.58
424.89	308.64
425.26	312.53
425.64	316.18
426.01	320.23
426.38	324.50
426.75	328.89
427.13	333.47
427.50	338.13
427.87	342.98
428.24	347.69
428.61	352.15
428.99	357.33
429.36	362.70
429.73	368.23
430.10	373.75
430.47	379.42
430.85	384.82
431.22	390.76
431.59	397.36
431.96	403.51
432.33	410.20
432.70	416.64
433.08	424.34
433.45	431.71
433.82	438.92
434.19	446.91
434.56	454.94
434.93	462.45
435.30	470.05
435.68	478.50
436.05	486.78
436.42	495.00
436.79	502.52
437.16	510.63
437.53	519.04
437.90	527.65
438.27	535.89
438.64	544.76
439.01	553.05
439.38	560.16
439.75	567.28
440.13	575.35
440.50	582.93
440.87	588.94
441.24	595.19
441.61	602.11
441.98	607.15
442.35	612.80
442.72	618.74
443.09	624.56
443.46	627.90
443.83	630.05
444.20	632.13
444.57	634.79
444.94	636.03
445.31	637.18
445.68	638.52
446.05	638.81
446.42	637.60
446.79	636.31
447.16	634.92
447.53	633.61
447.90	630.00
448.27	626.45
448.64	621.70
449.01	618.09
449.37	612.16
449.74	606.35
450.11	599.77
450.48	592.24
450.85	584.36
451.22	577.62
451.59	571.30
451.96	564.94
452.33	557.10
452.70	549.82
453.07	541.40
453.43	532.47
453.80	524.21
454.17	516.30
454.54	508.65
454.91	500.53
455.28	492.65
455.65	485.30
456.02	478.49
456.38	472.23
456.75	464.44
457.12	457.94
457.49	451.71
457.86	445.36
458.23	440.24
458.59	434.51
458.96	428.90
459.33	423.95
459.70	419.01
460.07	414.91
460.43	410.21
460.80	406.01
461.17	402.36
461.54	398.46
461.91	394.78
462.27	390.89
462.64	387.62
463.01	384.28
463.38	381.00
463.74	377.03
464.11	374.07
464.48	371.62
464.85	368.88
465.21	366.75
465.58	364.45
465.95	361.74
466.32	359.66
466.68	357.45
467.05	355.17
467.42	352.94
467.78	350.59
468.15	348.63
468.52	346.95
468.88	344.59
469.25	342.67
469.62	341.15
469.98	339.58
470.35	338.09
470.72	336.56
471.08	334.78
471.45	333.56
471.82	332.22
472.18	330.84
472.55	329.82
472.92	328.52
473.28	327.46
473.65	326.29
474.02	325.29
474.38	324.35
474.75	323.60
475.11	322.79
475.48	322.16
475.85	321.49
476.21	320.91
476.58	320.55
476.94	320.23
477.31	319.75
477.67	319.35
478.04	318.99
478.41	318.80
478.77	319.20
479.14	318.92
479.50	318.94
479.87	319.00
480.23	318.94
480.60	319.01
480.96	319.00
481.33	319.51
481.69	319.80
482.06	320.10
482.42	320.42
482.79	320.75
483.15	321.10
483.52	321.72
483.88	322.12
484.25	322.68
484.61	323.33
484.98	324.01
485.34	325.02
485.71	326.00
486.07	326.96
486.44	327.46
486.80	328.48
487.17	329.55
487.53	330.85
487.90	332.43
488.26	334.15
488.62	335.83
488.99	337.30
489.35	339.00
489.72	340.75
490.08	342.68
490.44	344.79
490.81	347.06
491.17	349.31
491.54	351.89
491.90	354.46
492.26	357.04
492.63	359.83
492.99	362.71
493.36	365.77
493.72	369.12
494.08	372.60
494.45	376.35
494.81	380.33
495.17	384.08
495.54	388.05
495.90	392.06
496.26	396.38
496.63	400.87
496.99	405.55
497.35	410.58
497.72	415.80
498.08	421.25
498.44	426.88
498.80	432.82
499.17	438.70
499.53	444.73
499.89	451.53
500.26	458.29
500.62	464.87
500.98	472.20
501.34	479.43
501.71	487.20
502.07	494.95
502.43	502.86
502.79	511.29
503.16	519.87
503.52	528.81
503.88	538.10
504.24	547.89
504.60	557.87
504.97	568.18
505.33	578.48
505.69	589.46
506.05	600.43
506.41	611.45
506.78	623.18
507.14	635.11
507.50	647.12
507.86	659.69
508.22	672.70
508.59	685.41
508.95	698.87
509.31	712.76
509.67	726.91
510.03	740.94
510.39	755.46
510.75	770.29
511.12	785.39
511.48	800.87
511.84	816.23
512.20	831.85
512.56	847.90
512.92	864.68
513.28	881.09
513.64	898.10
514.00	915.36
514.37	932.85
514.73	951.04
515.09	969.39
515.45	987.52
515.81	1005.70
516.17	1024.42
516.53	1042.95
516.89	1061.30
517.25	1080.77
517.61	1100.84
517.97	1120.84
518.33	1140.78
518.69	1160.72
519.05	1180.98
519.41	1201.41
519.77	1222.06
520.13	1242.52
520.49	1262.65
520.85	1284.76
521.21	1305.47
521.57	1326.60
521.93	1347.16
522.29	1368.11
522.65	1388.18
523.01	1408.75
523.37	1429.19
523.73	1450.01
524.09	1470.28
524.45	1490.63
524.81	1510.92
525.17	1531.23
525.53	1551.54
525.89	1572.14
526.25	1592.61
526.61	1612.54
526.97	1633.05
527.33	1653.85
527.68	1675.18
528.04	1696.29
528.40	1715.39
528.76	1736.22
529.12	1756.25
529.48	1776.57
529.84	1795.90
530.20	1816.77
530.56	1837.31
530.91	1857.83
531.27	1877.71
531.63	1897.99
531.99	1918.07
532.35	1937.39
532.71	1957.07
533.07	1977.34
533.42	1996.56
533.78	2015.89
534.14	2035.44
534.50	2054.22
534.86	2073.02
535.21	2090.22
535.57	2108.18
535.93	2125.46
536.29	2142.91
536.65	2160.66
537.00	2177.56
537.36	2194.81
537.72	2211.00
538.08	2227.45
538.44	2243.56
538.79	2259.80
539.15	2275.36
539.51	2291.18
539.87	2306.35
540.22	2319.80
540.58	2333.71
540.94	2346.79
541.29	2359.28
541.65	2371.27
542.01	2383.46
542.37	2393.91
542.72	2404.50
543.08	2414.43
543.44	2425.69
543.79	2434.82
544.15	2444.27
544.51	2454.14
544.87	2462.95
545.22	2470.94
545.58	2478.06
545.94	2485.10
546.29	2490.94
546.65	2497.17
547.01	2502.29
547.36	2507.24
547.72	2512.70
548.07	2516.30
548.43	2520.89
548.79	2525.50
549.14	2529.48
549.50	2532.65
549.86	2535.93
550.21	2539.19
550.57	2542.50
550.92	2543.51
551.28	2544.90
551.64	2547.07
551.99	2548.42
552.35	2549.90
552.70	2551.68
553.06	2553.35
553.41	2554.12
553.77	2555.52
554.13	2556.79
554.48	2557.97
554.84	2559.01
555.19	2559.79
555.55	2561.27
555.90	2560.61
556.26	2559.19
556.61	2557.10
556.97	2555.03
557.32	2554.20
557.68	2553.17
558.03	2551.36
558.39	2549.90
558.74	2548.66
559.10	2544.85
559.45	2541.05
559.81	2536.65
560.16	2531.28
560.52	2526.06
560.87	2521.48
561.23	2516.12
561.58	2510.30
561.94	2503.50
562.29	2496.08
562.64	2489.08
563.00	2480.73
563.35	2474.06
563.71	2467.34
564.06	2461.06
564.42	2454.64
564.77	2447.45
565.12	2439.65
565.48	2431.96
565.83	2423.95
566.19	2415.91
566.54	2408.31
566.89	2400.58
567.25	2393.05
567.60	2386.15
567.96	2378.78
568.31	2371.14
568.66	2362.53
569.02	2353.79
569.37	2345.48
569.72	2337.90
570.08	2328.45
570.43	2318.98
570.78	2310.02
571.14	2300.51
571.49	2290.20
571.84	2280.49
572.20	2270.03
572.55	2259.79
572.90	2249.21
573.26	2239.02
573.61	2228.35
573.96	2217.06
574.31	2205.06
574.67	2193.09
575.02	2180.29
575.37	2167.71
575.72	2154.65
576.08	2142.59
576.43	2130.00
576.78	2117.29
577.13	2103.87
577.49	2091.55
577.84	2079.97
578.19	2067.98
578.54	2055.77
578.90	2044.39
579.25	2032.01
579.60	2019.74
579.95	2007.35
580.30	1994.40
580.66	1981.26
581.01	1967.78
581.36	1954.25
581.71	1942.01
582.06	1929.48
582.42	1917.28
582.77	1904.90
583.12	1893.05
583.47	1881.05
583.82	1869.18
584.17	1857.30
584.53	1845.79
584.88	1833.05
585.23	1819.93
585.58	1805.89
585.93	1792.90
586.28	1779.71
586.63	1766.27
586.98	1752.43
587.34	1739.30
587.69	1726.37
588.04	1714.18
588.39	1702.38
588.74	1690.65
589.09	1678.84
589.44	1666.39
589.79	1654.61
590.14	1643.07
590.49	1631.01
590.84	1619.30
591.19	1607.70
591.54	1595.94
591.89	1583.81
592.25	1574.01
592.60	1562.85
592.95	1551.78
593.30	1540.17
593.65	1528.41
594.00	1516.70
594.35	1507.11
594.70	1495.71
595.05	1484.63
595.40	1472.71
595.75	1461.08
596.10	1449.95
596.45	1438.80
596.80	1428.13
597.15	1416.96
597.50	1405.22
597.85	1394.30
598.19	1382.97
598.54	1371.64
598.89	1360.40
599.24	1350.02
599.59	1338.52
599.94	1327.99
600.29	1317.98
600.64	1308.18
600.99	1298.01
601.34	1289.00
601.69	1278.16
602.04	1268.53
602.39	1258.97
602.74	1250.30
603.08	1241.05
603.43	1231.94
603.78	1222.44
604.13	1213.25
604.48	1203.80
604.83	1194.64
605.18	1185.12
605.53	1175.60
605.87	1166.43
606.22	1158.22
606.57	1149.16
606.92	1140.04
607.27	1131.29
607.62	1122.95
607.96	1114.58
608.31	1106.74
608.66	1098.13
609.01	1089.99
609.36	1081.75
609.70	1073.46
610.05	1064.95
610.40	1056.90
610.75	1048.73
611.10	1040.52
611.44	1032.15
611.79	1024.37
612.14	1016.76
612.49	1009.29
612.83	1002.22
613.18	994.93
613.53	987.44
613.88	980.02
614.22	972.72
614.57	965.07
614.92	957.19
615.27	949.89
615.61	942.55
615.96	935.33
616.31	927.88
616.65	921.02
617.00	913.91
617.35	906.79
617.70	899.81
618.04	892.75
618.39	886.02
618.74	879.76
619.08	873.04
619.43	866.11
619.78	859.07
620.12	851.91
620.47	845.20
620.82	838.13
621.16	831.40
621.51	825.13
621.85	819.05
622.20	812.65
622.55	806.15
622.89	799.66
623.24	793.47
623.59	787.48
623.93	781.34
624.28	775.54
624.62	770.15
624.97	764.70
625.32	759.14
625.66	753.26
626.01	747.29
626.35	741.97
626.70	736.59
627.04	731.53
627.39	726.38
627.73	721.13
628.08	716.22
628.43	711.14
628.77	705.81
629.12	700.75
629.46	696.11
629.81	691.38
630.15	686.80
630.50	682.09
630.84	677.19
631.19	672.42
631.53	667.91
631.88	662.66
632.22	657.73
632.57	653.20
632.91	648.74
633.26	644.49
633.60	639.83
633.95	635.27
634.29	630.74
634.64	626.43
634.98	621.85
635.32	617.56
635.67	613.56
636.01	609.60
636.36	605.26
636.70	601.19
637.05	597.19
637.39	593.29
637.73	589.20
638.08	585.47
638.42	581.52
638.77	577.21
639.11	573.24
639.45	569.12
639.80	564.92
640.14	561.05
640.49	557.13
640.83	553.50
641.17	549.95
641.52	546.30
641.86	542.65
642.20	539.64
642.55	536.03
642.89	532.54
643.23	529.03
643.58	526.06
643.92	522.56
644.26	519.16
644.61	515.99
644.95	512.78
645.29	509.45
645.64	506.44
645.98	503.61
646.32	500.68
646.66	497.65
647.01	494.87
647.35	492.07
647.69	489.27
648.04	486.62
648.38	483.99
648.72	481.20
649.06	478.35
649.41	475.26
649.75	472.41
650.09	469.61
650.43	466.82
650.78	463.85
651.12	461.17
651.46	458.51
651.80	455.79
652.14	453.25
652.49	450.77
652.83	448.16
653.17	445.46
653.51	442.87
653.85	440.51
654.20	438.02
654.54	435.54
654.88	433.09
655.22	430.72
655.56	428.30
655.90	426.12
656.25	424.02
656.59	421.91
656.93	419.84
657.27	417.85
657.61	415.61
657.95	413.50
658.29	411.39
658.64	409.29
658.98	407.07
659.32	404.95
659.66	402.93
660.00	400.94
660.34	399.01
660.68	397.12
661.02	395.18
661.36	393.27
661.70	391.29
662.05	389.32
662.39	387.46
662.73	385.71
663.07	384.06
663.41	382.22
663.75	380.28
664.09	378.47
664.43	376.55
664.77	374.98
665.11	373.31
665.45	371.71
665.79	370.17
666.13	368.53
666.47	366.87
666.81	365.15
667.15	363.43
667.49	361.92
667.83	360.61
668.17	359.28
668.51	357.85
668.85	356.66
669.19	355.59
669.53	354.02
669.87	352.47
670.21	350.91
670.55	349.60
670.89	348.62
671.23	347.32
671.57	346.00
671.91	344.68
672.25	343.39
672.58	342.20
672.92	340.80
673.26	339.60
673.60	338.45
673.94	337.33
674.28	336.33
674.62	335.31
674.96	333.99
675.30	332.65
675.64	331.58
675.97	330.24
676.31	328.90
676.65	327.80
676.99	326.96
677.33	325.80
677.67	324.71
678.01	323.40
678.34	322.35
678.68	321.49
679.02	320.33
679.36	319.32
679.70	318.20
680.04	317.33
680.37	316.40
680.71	315.38
681.05	314.40
681.39	313.46
681.73	312.46
682.06	311.55
682.40	310.71
682.74	309.85
683.08	309.25
683.42	308.30
683.75	307.59
684.09	306.54
684.43	305.77
684.77	304.93
685.10	304.07
685.44	303.32
685.78	302.39
686.12	301.63
686.45	300.88
686.79	300.12
687.13	299.43
687.46	298.71
687.80	298.06
688.14	297.26
688.48	296.53
688.81	295.74
689.15	295.04
689.49	294.24
689.82	293.46
690.16	292.55
690.50	291.94
690.83	291.21
691.17	290.46
691.51	289.83
691.84	289.18
692.18	288.55
692.52	287.83
692.85	287.28
693.19	286.80
693.52	286.15
693.86	285.42
694.20	284.75
694.53	284.14
694.87	283.52
695.21	282.95
695.54	282.26
695.88	281.62
696.21	280.95
696.55	280.48
696.88	279.95
697.22	279.37
697.56	278.89
697.89	278.23
698.23	277.79
698.56	277.17
698.90	276.71
699.23	276.11
699.57	275.74
699.90	275.12
700.24	274.52
700.58	274.06
700.91	273.68
701.25	273.54
701.58	273.45
701.92	273.16
702.25	272.80
702.59	272.34
702.92	272.02
703.26	271.60
703.59	271.21
703.93	271.19
704.26	270.80
704.60	270.32
704.93	269.85
705.26	269.34
705.60	269.03
705.93	268.53
706.27	268.26
706.60	267.87
706.94	267.72
707.27	267.33
707.61	266.97
707.94	266.68
708.27	265.95
708.61	265.16
708.94	264.68
709.28	264.22
709.61	263.85
709.94	263.42
710.28	263.08
710.61	262.70
710.95	261.86
711.28	261.84
711.61	261.46
711.95	261.20
712.28	260.81
712.61	260.42
712.95	260.33
713.28	260.17
713.61	259.81
713.95	259.31
714.28	259.07
714.61	258.67
714.95	258.24
715.28	257.90
715.61	257.57
715.95	257.20
716.28	256.93
716.61	256.65
716.95	256.37
717.28	256.10
717.61	255.76
717.94	255.54
718.28	254.84
718.61	254.60
718.94	254.29
719.27	254.08
719.61	253.80
719.94	253.43
720.27	252.98
720.60	252.71
720.94	252.49
721.27	252.23
721.60	252.14
721.93	251.91
722.27	251.83
722.60	251.66
722.93	251.36
723.26	251.18
723.59	250.98
723.93	250.86
724.26	250.70
724.59	250.46
724.92	250.29
725.25	250.26
725.59	250.10
725.92	250.01
726.25	249.82
726.58	249.69
726.91	249.45
727.24	249.34
727.57	249.11
727.91	248.86
728.24	248.80
728.57	248.50
728.90	248.43
729.23	248.11
729.56	248.14
729.89	248.07
730.22	247.87
730.55	247.65
730.89	247.39
731.22	247.16
731.55	246.96
731.88	246.73
732.21	246.45
732.54	246.15
732.87	246.00
733.20	245.89
733.53	245.72
733.86	245.63
734.19	245.39
734.52	245.35
734.85	245.48
735.18	245.14
735.51	245.12
735.84	244.96
736.17	244.89
736.50	244.38
736.83	244.76
737.16	244.53
737.49	244.34
737.82	244.10
738.15	244.04
738.48	243.85
738.81	243.68
739.14	243.52
739.47	243.35
739.80	243.10
740.13	242.98
740.46	242.69
740.79	242.42
741.12	242.19
741.45	241.91
741.78	241.51
742.11	241.52
742.44	241.30
742.77	241.20
743.10	240.92
743.43	240.86
743.75	240.14
744.08	240.73
744.41	240.58
744.74	240.42
745.07	240.11
745.40	240.15
745.73	240.22
746.06	240.09
746.39	240.09
746.71	239.96
747.04	239.70
747.37	239.68
747.70	239.71
748.03	239.66
748.36	239.63
748.68	239.43
749.01	239.05
749.34	238.94
749.67	238.83
750.00	238.92
750.33	239.17
750.65	239.17
750.98	238.47
751.31	238.45
751.64	238.44
751.97	238.66
752.29	238.50
752.62	238.19
752.95	238.07
753.28	237.91
753.60	237.76
753.93	237.85
754.26	237.75
754.59	237.50
754.91	237.37
755.24	237.18
755.57	237.20
755.90	237.16
756.22	236.99
756.55	236.80
756.88	236.56
757.20	236.15
757.53	235.92
757.86	235.77
758.19	235.66
758.51	235.60
758.84	235.27
759.17	235.12
759.49	235.11
759.82	235.25
760.15	235.21
760.47	235.15
760.80	234.85
761.13	234.88
761.45	234.78
761.78	234.78
762.11	234.83
762.43	234.65
762.76	234.59
763.08	234.57
763.41	234.58
763.74	234.54
764.06	234.44
764.39	234.39
764.71	234.36
765.04	234.27
765.37	234.09
765.69	234.01
766.02	233.97
766.34	233.89
766.67	233.74
767.00	233.74
767.32	233.93
767.65	234.25
767.97	234.11
768.30	234.04
768.62	233.94
768.95	233.77
769.27	233.73
769.60	233.84
769.92	233.63
770.25	233.48
770.57	233.30
770.90	233.27
771.22	233.14
771.55	233.03
771.87	232.96
772.20	232.91
772.52	233.27
772.85	233.82
773.17	233.70
773.50	233.60
773.82	233.46
774.15	233.23
774.47	232.85
774.80	232.68
775.12	232.68
775.45	232.55
775.77	232.50
776.09	232.50
776.42	232.40
776.74	232.60
777.07	232.51
777.39	232.52
777.72	232.39
778.04	232.43
778.36	232.31
778.69	232.31
779.01	232.35
779.33	231.85
779.66	231.18
779.98	231.15
780.31	231.10
780.63	231.28
780.95	231.27
781.28	231.17
781.60	231.16
781.92	231.06
782.25	231.09
782.57	230.96
782.89	230.83
783.22	230.74
783.54	230.56
783.86	230.59
784.19	230.52
784.51	230.60
784.83	230.45
785.16	230.42
785.48	230.34
785.80	230.30
786.12	230.30
786.45	230.28
786.77	230.27
787.09	230.14
787.42	229.84
787.74	229.77
788.06	229.76
788.38	229.72
788.71	229.61
789.03	229.51
789.35	229.57
789.67	229.53
789.99	229.49
790.32	229.39
790.64	229.31
790.96	229.62
791.28	229.40
791.61	229.36
791.93	229.34
792.25	229.24
792.57	229.54
792.89	229.42
793.21	229.46
793.54	229.35
793.86	229.29
794.18	229.31
794.50	229.18
794.82	229.17
795.14	229.17
795.47	229.31
795.79	229.35
796.11	229.28
796.43	229.23
796.75	229.20
797.07	229.18
797.39	229.19
797.71	228.81
798.04	228.91
798.36	228.93
798.68	228.90
799.00	228.98
799.32	228.66
799.64	228.78
799.96	228.68
800.28	228.75
800.60	228.68
800.92	228.74
801.24	228.73
801.56	228.74
801.89	228.67
802.21	228.65
802.53	228.52
802.85	228.60
803.17	228.76
803.49	228.63
803.81	228.65
804.13	228.60
804.45	228.68
804.77	228.64
805.09	228.64
805.41	228.64
805.73	228.56
806.05	228.48
806.37	228.37
806.69	228.33
807.01	228.34
807.33	228.39
807.65	228.23
807.97	228.51
808.28	228.40
808.60	228.46
808.92	228.44
809.24	228.72
809.56	228.58
809.88	228.47
810.20	228.58
810.52	228.69
810.84	228.57
811.16	228.47
811.48	228.45
811.80	228.63
812.12	228.62
812.43	228.73
812.75	228.67
813.07	228.70
813.39	228.68
813.71	228.63
814.03	228.60
814.35	228.58
814.67	228.35
814.98	228.39
815.30	228.40
815.62	228.27
815.94	228.01
816.26	228.26
816.58	228.19
816.89	228.17
817.21	228.03
817.53	228.12
817.85	228.10
818.17	228.14
818.48	227.90
818.80	228.00
819.12	227.91
819.44	227.91
819.76	227.85
820.07	227.94
820.39	227.91
820.71	227.90
821.03	227.92
821.34	227.87
821.66	227.92
821.98	227.93
822.30	227.90
822.61	228.15
822.93	227.95
823.25	227.92
823.57	227.93
823.88	227.95
824.20	227.95
824.52	228.03
824.83	227.95
825.15	227.92
825.47	227.84
825.79	227.84
826.10	227.82
826.42	227.77
826.74	227.76
827.05	227.70
827.37	227.74
827.69	227.67
828.00	227.67
828.32	227.68
828.64	227.56
828.95	227.79
829.27	227.61
829.58	227.64
829.90	227.70
830.22	227.72
830.53	227.56
830.85	227.45
831.17	227.34
831.48	227.35
831.80	227.37
832.11	227.26
832.43	227.22
832.75	227.17
833.06	227.39
833.38	227.24
833.69	227.17
834.01	227.18
834.32	227.16
834.64	227.13
834.96	227.09
835.27	227.12
835.59	227.03
835.90	226.94
836.22	226.84
836.53	226.71
836.85	226.55
837.16	227.10
837.48	227.10
837.79	227.25
838.11	227.28
838.42	227.29
838.74	227.38
839.05	227.31
839.37	227.25
839.68	226.99
840.00	227.00
840.31	227.08
840.63	227.00
840.94	226.93
841.26	226.84
841.57	226.81
841.88	226.84
842.20	226.76
842.51	226.74
842.83	226.76
843.14	227.22
843.46	227.29
843.77	227.00
844.08	226.95
844.40	226.77
844.71	226.69
845.03	226.65
845.34	226.59
845.65	226.58
845.97	226.68
846.28	226.75
846.60	226.79
846.91	226.75
847.22	226.81
847.54	226.92
847.85	226.99
848.16	226.87
848.48	226.81
848.79	226.95
849.10	227.00
849.42	227.04
849.73	226.58
850.04	226.48
850.36	226.33
850.67	226.43
850.98	226.52
851.30	226.55
851.61	226.57
851.92	226.56
852.23	226.73
852.55	226.71
852.86	226.69
853.17	226.75
853.49	226.90
853.80	226.95
854.11	227.00
854.42	227.09
854.74	227.13
855.05	227.07
855.36	226.88
855.67	226.94
855.99	226.94
856.30	227.50
856.61	227.58
856.92	227.64
857.23	227.64
857.55	227.57
857.86	227.54
858.17	227.66
858.48	227.64
858.79	227.64
859.11	227.73
859.42	227.70
859.73	227.58
860.04	227.50
860.35	227.35
860.66	227.24
860.98	227.15
861.29	227.13
861.60	227.13
861.91	227.22
862.22	227.14
862.53	227.02
862.84	226.46
863.16	226.50
863.47	226.36
863.78	226.28
864.09	226.32
864.40	226.40
864.71	226.36
865.02	226.35
865.33	226.20
865.64	226.10
865.95	226.10
866.27	226.47
866.58	226.51
866.89	226.63
867.20	226.62
867.51	226.59
867.82	226.59
868.13	226.71
868.44	226.56
868.75	226.60
869.06	226.58
869.37	226.65
869.68	226.55
869.99	226.59
870.30	226.61
870.61	226.66
870.92	226.55
871.23	226.45
871.54	226.56
871.85	226.67
872.16	226.68
872.47	226.68
872.78	226.36
873.09	226.24
873.40	226.13
873.71	226.20
874.02	226.22
874.33	226.19
874.64	226.12
874.95	226.21
875.26	226.11
875.56	226.21
875.87	226.13
876.18	226.14
876.49	226.65
876.80	226.61
877.11	226.50
877.42	226.53
877.73	226.60
878.04	226.51
878.35	226.49
878.66	226.53
878.96	226.50
879.27	226.43
879.58	226.48
879.89	226.45
880.20	226.56
880.51	226.52
880.82	226.51
881.12	226.58
881.43	226.51
881.74	226.38
882.05	226.27
882.36	226.37
882.67	226.35
882.97	225.85
883.28	225.83
883.59	225.78
883.90	225.79
884.21	225.83
884.51	225.78
884.82	225.68
885.13	225.68
885.44	225.66
885.74	225.66
886.05	225.67
886.36	225.71
886.67	225.50
886.98	225.80
887.28	225.94
887.59	225.94
887.90	225.96
888.20	226.04
888.51	226.17
888.82	226.05
889.13	226.13
889.43	226.50
889.74	226.50
890.05	226.50
890.35	226.51
890.66	226.33
890.97	226.36
891.28	226.41
891.58	226.44
891.89	226.51
892.20	226.48
892.50	226.46
892.81	226.47
893.12	226.46
893.42	226.19
893.73	226.15
894.04	226.09
894.34	226.13
894.65	226.16
894.95	226.09
895.26	226.15
895.57	226.35
895.87	225.94
896.18	226.02
896.48	226.06
896.79	226.03
897.10	226.19
897.40	226.19
897.71	226.16
898.01	226.10
898.32	226.12
898.63	226.11
898.93	226.18
899.24	226.19
899.54	226.22
899.85	226.19
900.15	226.14
900.46	226.20
900.76	226.26
901.07	226.22
901.38	226.22
901.68	226.35
901.99	226.05
902.29	226.07
902.60	226.02
902.90	226.00
903.21	226.01
903.51	226.00
903.82	226.13
904.12	226.20
904.43	226.26
904.73	226.26
905.03	226.31
905.34	226.74
905.64	226.69
905.95	226.66
906.25	226.67
906.56	226.71
906.86	226.64
907.17	226.56
907.47	226.62
907.77	226.65
908.08	226.49
908.38	226.60
908.69	226.65
908.99	226.76
909.30	226.83
909.60	226.82
909.90	226.85
910.21	226.66
910.51	226.59
910.81	226.60
911.12	226.58
911.42	226.62
911.73	226.09
912.03	226.12
912.33	226.28
912.64	226.34
912.94	226.28
913.24	226.29
913.55	226.27
913.85	226.24
914.15	226.26
914.46	226.27
914.76	226.21
915.06	226.22
915.37	226.13
915.67	226.12
915.97	226.10
916.27	225.97
916.58	226.03
916.88	225.98
917.18	225.89
917.49	226.19
917.79	226.08
918.09	226.21
918.39	226.35
918.70	226.33
919.00	226.29
919.30	226.51
919.60	226.44
919.91	226.37
920.21	226.42
920.51	226.24
920.81	226.19
921.12	226.30
921.42	226.30
921.72	226.27
922.02	226.17
922.32	226.21
922.63	226.24
922.93	226.51
923.23	226.52
923.53	226.49
923.83	226.18
924.13	226.25
924.44	226.22
924.74	226.30
925.04	226.35
925.34	226.35
925.64	226.10
925.94	226.09
926.24	226.39
926.55	226.29
926.85	226.40
927.15	226.41
927.45	226.39
927.75	226.30
928.05	226.35
928.35	226.39
928.65	226.48
928.95	226.51
929.26	226.24
929.56	226.43
929.86	226.50
930.16	226.51
930.46	226.51
930.76	226.48
931.06	226.24
931.36	226.09
931.66	226.17
931.96	226.29
932.26	226.40
932.56	226.18
932.86	226.22
933.16	226.25
933.46	226.27
933.76	226.19
934.06	226.31
934.36	226.44
934.66	226.42
934.96	226.43
935.26	226.41
935.56	226.52
935.86	226.33
936.16	226.23
936.46	226.12
936.76	226.16
937.06	226.18
937.36	226.24
937.66	226.20
937.96	226.17
938.26	226.01
938.56	225.94
938.86	225.97
939.16	226.12
939.46	226.19
939.76	226.23
940.06	226.23
940.35	226.07
940.65	225.82
940.95	225.81
941.25	225.67
941.55	225.63
941.85	225.58
942.15	225.69
942.45	225.91
942.75	225.94
943.04	225.88
943.34	225.96
943.64	225.87
943.94	225.88
944.24	225.85
944.54	225.95
944.84	225.90
945.13	225.84
945.43	225.72
945.73	225.68
946.03	225.57
946.33	225.52
946.62	225.60
946.92	225.67
947.22	225.81
947.52	225.82
947.82	225.85
948.11	225.85
948.41	225.81
948.71	225.65
949.01	225.65
949.31	225.67
949.60	225.53
949.90	225.57
950.20	225.60
950.50	225.60
950.79	225.53
951.09	225.58
951.39	225.62
951.69	225.58
951.98	225.73
952.28	225.75
952.58	225.78
952.87	225.76
953.17	225.77
953.47	225.64
953.76	225.65
954.06	225.60
954.36	225.50
954.66	225.41
954.95	225.47
955.25	225.53
955.55	225.55
955.84	225.53
956.14	225.60
956.44	225.60
956.73	225.49
957.03	225.55
957.32	225.47
957.62	225.46
957.92	225.57
958.21	225.43
958.51	226.05
958.81	226.16
959.10	226.18
959.40	226.29
959.69	226.37
959.99	226.46
960.29	226.47
960.58	226.47
960.88	226.60
961.17	226.63
961.47	226.65
961.76	226.57
962.06	226.65
962.36	226.61
962.65	226.61
962.95	226.62
963.24	226.55
963.54	226.64
963.83	226.63
964.13	226.59
964.42	226.56
964.72	226.12
965.01	226.05
965.31	226.05
965.60	225.90
965.90	226.17
966.19	226.06
966.49	226.09
966.78	226.13
967.08	226.12
967.37	226.09
967.67	225.96
967.96	226.05
968.26	226.05
968.55	226.05
968.85	226.02
969.14	226.10
969.43	226.13
969.73	226.11
970.02	226.10
970.32	226.11
970.61	226.06
970.91	225.92
971.20	225.83
971.49	225.74
971.79	225.85
972.08	225.48
972.38	225.47
972.67	225.46
972.96	225.46
973.26	225.38
973.55	225.50
973.85	225.54
974.14	225.49
974.43	225.52
974.73	225.49
975.02	225.42
975.31	225.34
975.61	225.36
975.90	225.30
976.19	225.23
976.49	225.25
976.78	225.26
977.07	225.26
977.37	225.34
977.66	225.42
977.95	225.28
978.24	225.40
978.54	225.55
978.83	225.54
979.12	225.49
979.42	225.46
979.71	225.34
980.00	225.34
980.29	225.36
980.59	225.27
980.88	225.40
981.17	225.43
981.46	225.47
981.76	225.46
982.05	225.62
982.34	225.72
982.63	225.67
982.93	225.68
983.22	225.86
983.51	225.87
983.80	225.93
984.09	226.03
984.39	225.93
984.68	225.82
984.97	225.75
985.26	225.76
985.55	225.85
985.85	225.81
986.14	225.91
986.43	225.95
986.72	225.92
987.01	225.72
987.30	225.77
987.59	225.74
987.89	225.77
988.18	225.62
988.47	225.60
988.76	225.54
989.05	225.54
989.34	225.38
989.63	225.54
989.92	225.48
990.22	225.38
990.51	225.39
990.80	225.42
991.09	225.56
991.38	225.65
991.67	225.65
991.96	225.64
992.25	225.59
992.54	225.50
992.83	225.54
993.12	225.57
993.41	225.64
993.70	225.85
993.99	225.92
994.28	226.00
994.58	226.07
994.87	226.07
995.16	226.07
995.45	226.06
995.74	225.88
996.03	225.93
996.32	226.00
996.61	226.10
996.90	226.07
997.19	226.04
997.48	226.07
997.77	225.96
998.06	226.01
998.34	225.99
998.63	225.93
998.92	225.92
999.21	225.96
999.50	226.00
999.79	225.82
1000.08	225.77
1000.37	225.75
1000.66	225.64
1000.95	225.78
1001.24	225.76
1001.53	225.87
1001.82	225.91
1002.11	225.81
1002.40	225.99
1002.68	226.15
1002.97	226.53
1003.26	226.47
1003.55	226.35
1003.84	226.34
1004.13	226.45
1004.42	226.50
1004.71	226.64
1004.99	226.63
1005.28	226.82
1005.57	226.75
1005.86	226.69
1006.15	226.75
1006.44	226.74
1006.72	226.78
1007.01	226.62
1007.30	226.67
1007.59	226.59
1007.88	226.51
1008.17	226.56
1008.45	226.34
1008.74	226.12
1009.03	225.90
1009.32	225.90
1009.60	225.91
1009.89	225.91
1010.18	225.80
1010.47	225.81
1010.76	225.76
1011.04	225.75
1011.33	225.71
1011.62	225.72
1011.91	225.78
1012.19	225.75
1012.48	225.67
1012.77	225.74
1013.05	225.97
1013.34	225.94
1013.63	225.88
1013.92	225.91
1014.20	225.86
1014.49	225.90
1014.78	225.90
1015.06	225.71
1015.35	225.68
1015.64	225.75
1015.92	225.89
1016.21	225.80
1016.50	225.77
1016.78	225.79
1017.07	225.83
1017.36	225.70
1017.64	225.59
1017.93	225.59
1018.22	225.52
1018.50	225.48
1018.79	225.41
1019.08	225.18
1019.36	225.20
1019.65	225.13
1019.93	225.20
1020.22	225.25
1020.51	225.47
1020.79	225.41
1021.08	224.75
1021.36	223.40
1021.65	225.35
1021.94	224.80
1022.22	225.50
1022.51	223.35
1022.79	226.45
1023.08	225.60
1023.36	231.00
1023.65	224.15
>>>>>End Processed Spectral Data<<<<<
