SpectraSuite Data File
++++++++++++++++++++++++++++++++++++
Date: Wed Sep 04 17:43:24 EDT 2013
User: lab3
Dark Spectrum Present: Yes
Reference Spectrum Present: No
Number of Sampled Component Spectra: 1
Spectrometers: USB2E7196
Integration Time (usec): 170000 (USB2E7196)
Spectra Averaged: 20 (USB2E7196)
Boxcar Smoothing: 10 (USB2E7196)
Correct for Electrical Dark: No (USB2E7196)
Strobe/Lamp Enabled: No (USB2E7196)
Correct for Detector Non-linearity: No (USB2E7196)
Correct for Stray Light: No (USB2E7196)
Number of Pixels in Processed Spectrum: 2048
>>>>>Begin Processed Spectral Data<<<<<
339.09	0.00
339.48	213.95
339.86	214.30
340.24	215.05
340.63	217.75
341.01	224.70
341.39	220.60
341.78	222.25
342.16	223.30
342.54	222.15
342.93	212.17
343.31	222.89
343.69	223.37
344.07	223.84
344.46	224.37
344.84	224.73
345.22	224.73
345.60	225.02
345.99	225.22
346.37	225.37
346.75	225.50
347.13	225.51
347.52	225.52
347.90	225.75
348.28	225.84
348.66	225.97
349.05	225.80
349.43	225.88
349.81	225.99
350.19	226.10
350.57	226.05
350.96	226.20
351.34	226.31
351.72	226.42
352.10	226.50
352.48	226.49
352.87	226.55
353.25	226.58
353.63	226.62
354.01	226.65
354.39	226.65
354.77	226.71
355.15	226.95
355.54	226.95
355.92	226.83
356.30	226.85
356.68	227.28
357.06	227.38
357.44	227.40
357.82	227.41
358.20	227.84
358.58	227.91
358.97	227.96
359.35	228.06
359.73	228.23
360.11	228.32
360.49	228.41
360.87	228.49
361.25	228.70
361.63	228.89
362.01	229.02
362.39	229.07
362.77	229.16
363.15	229.10
363.53	229.24
363.91	229.29
364.29	229.33
364.67	228.84
365.05	228.90
365.43	228.96
365.81	229.08
366.19	229.01
366.57	229.24
366.95	229.28
367.33	229.23
367.71	229.17
368.09	229.24
368.47	229.23
368.85	229.14
369.23	229.14
369.61	228.94
369.99	229.01
370.37	229.11
370.75	229.30
371.13	229.27
371.51	229.13
371.89	229.13
372.27	229.11
372.65	229.14
373.03	229.15
373.41	229.00
373.78	228.90
374.16	228.49
374.54	228.28
374.92	228.12
375.30	228.09
375.68	227.91
376.06	227.82
376.44	227.85
376.82	227.87
377.19	227.79
377.57	227.74
377.95	227.50
378.33	227.36
378.71	226.97
379.09	226.94
379.47	226.97
379.84	226.86
380.22	226.79
380.60	226.65
380.98	226.51
381.36	226.48
381.73	226.34
382.11	226.43
382.49	226.42
382.87	226.31
383.25	226.20
383.62	226.73
384.00	226.62
384.38	226.50
384.76	226.57
385.13	226.72
385.51	226.66
385.89	226.56
386.27	226.57
386.64	226.64
387.02	226.50
387.40	226.42
387.78	226.43
388.15	226.34
388.53	226.27
388.91	226.25
389.29	226.18
389.66	226.25
390.04	226.08
390.42	226.11
390.79	226.14
391.17	226.16
391.55	225.55
391.92	225.49
392.30	225.47
392.68	225.29
393.05	225.27
393.43	225.30
393.81	225.34
394.18	225.24
394.56	225.30
394.94	225.47
395.31	225.44
395.69	225.64
396.06	225.82
396.44	225.91
396.82	225.98
397.19	226.28
397.57	226.25
397.95	226.46
398.32	226.39
398.70	226.50
399.07	226.65
399.45	226.79
399.82	226.92
400.20	226.98
400.58	227.16
400.95	227.05
401.33	227.24
401.70	227.70
402.08	227.87
402.45	228.00
402.83	228.22
403.20	228.40
403.58	228.46
403.95	228.70
404.33	228.89
404.71	229.14
405.08	229.58
405.46	229.88
405.83	230.11
406.21	230.37
406.58	230.70
406.96	230.94
407.33	231.30
407.70	231.67
408.08	232.44
408.45	232.82
408.83	233.27
409.20	233.64
409.58	233.81
409.95	234.36
410.33	234.84
410.70	235.22
411.08	235.92
411.45	236.58
411.82	237.07
412.20	237.88
412.57	238.81
412.95	239.09
413.32	239.86
413.69	240.70
414.07	241.60
414.44	242.48
414.82	243.48
415.19	244.58
415.56	245.65
415.94	246.56
416.31	247.98
416.68	249.27
417.06	250.85
417.43	252.40
417.81	254.08
418.18	255.86
418.55	257.71
418.93	259.56
419.30	261.51
419.67	263.67
420.04	265.79
420.42	267.98
420.79	270.96
421.16	273.63
421.54	276.45
421.91	279.26
422.28	282.23
422.66	285.39
423.03	288.72
423.40	291.99
423.77	295.37
424.15	298.73
424.52	302.38
424.89	306.30
425.26	310.03
425.64	313.63
426.01	317.57
426.38	321.77
426.75	326.06
427.13	330.41
427.50	335.01
427.87	339.67
428.24	344.23
428.61	348.40
428.99	353.50
429.36	358.73
429.73	364.01
430.10	369.23
430.47	374.59
430.85	379.91
431.22	385.83
431.59	392.35
431.96	398.38
432.33	404.89
432.70	411.30
433.08	418.88
433.45	426.02
433.82	433.03
434.19	440.89
434.56	448.80
434.93	456.06
435.30	463.45
435.68	471.62
436.05	479.74
436.42	487.69
436.79	495.07
437.16	503.11
437.53	511.55
437.90	519.72
438.27	528.00
438.64	536.64
439.01	544.65
439.38	551.49
439.75	558.31
440.13	566.25
440.50	573.46
440.87	579.20
441.24	585.26
441.61	592.03
441.98	596.75
442.35	602.13
442.72	607.95
443.09	613.60
443.46	616.89
443.83	619.13
444.20	621.07
444.57	623.62
444.94	624.67
445.31	625.82
445.68	627.36
446.05	627.44
446.42	626.16
446.79	624.76
447.16	623.31
447.53	622.13
447.90	618.44
448.27	615.01
448.64	610.27
449.01	606.79
449.37	600.95
449.74	595.27
450.11	588.75
450.48	581.31
450.85	573.51
451.22	567.04
451.59	560.82
451.96	554.92
452.33	547.19
452.70	540.16
453.07	531.75
453.43	523.04
453.80	515.10
454.17	507.31
454.54	499.86
454.91	491.96
455.28	484.25
455.65	477.15
456.02	470.52
456.38	464.58
456.75	457.20
457.12	450.94
457.49	444.94
457.86	438.90
458.23	434.03
458.59	428.72
458.96	423.24
459.33	418.30
459.70	413.47
460.07	409.61
460.43	405.10
460.80	401.11
461.17	397.52
461.54	393.74
461.91	390.20
462.27	386.55
462.64	383.47
463.01	380.10
463.38	376.98
463.74	373.19
464.11	370.24
464.48	367.61
464.85	364.91
465.21	362.85
465.58	360.56
465.95	357.92
466.32	355.69
466.68	353.41
467.05	351.25
467.42	349.06
467.78	346.89
468.15	344.82
468.52	343.29
468.88	341.19
469.25	339.29
469.62	337.91
469.98	336.40
470.35	334.94
470.72	333.56
471.08	331.89
471.45	330.60
471.82	329.46
472.18	328.18
472.55	327.17
472.92	325.90
473.28	324.87
473.65	323.76
474.02	322.72
474.38	321.93
474.75	321.29
475.11	320.49
475.48	319.80
475.85	319.30
476.21	318.65
476.58	318.12
476.94	317.84
477.31	317.34
477.67	316.94
478.04	316.67
478.41	316.44
478.77	316.76
479.14	316.48
479.50	316.40
479.87	316.39
480.23	316.41
480.60	316.45
480.96	316.52
481.33	316.88
481.69	317.16
482.06	317.53
482.42	317.77
482.79	318.16
483.15	318.56
483.52	319.16
483.88	319.65
484.25	320.21
484.61	320.88
484.98	321.58
485.34	322.61
485.71	323.54
486.07	324.52
486.44	325.13
486.80	326.29
487.17	327.40
487.53	328.75
487.90	330.18
488.26	331.83
488.62	333.50
488.99	334.96
489.35	336.63
489.72	338.43
490.08	340.30
490.44	342.29
490.81	344.45
491.17	346.56
491.54	349.01
491.90	351.68
492.26	354.32
492.63	357.06
492.99	359.75
493.36	362.68
493.72	365.98
494.08	369.37
494.45	373.04
494.81	376.89
495.17	380.66
495.54	384.70
495.90	388.88
496.26	393.21
496.63	397.80
496.99	402.53
497.35	407.44
497.72	412.76
498.08	418.08
498.44	423.75
498.80	429.71
499.17	435.63
499.53	441.64
499.89	448.00
500.26	454.62
500.62	461.46
500.98	468.81
501.34	476.09
501.71	483.71
502.07	491.34
502.43	499.19
502.79	507.42
503.16	516.12
503.52	524.80
503.88	533.65
504.24	543.08
504.60	552.84
504.97	562.86
505.33	573.04
505.69	583.77
506.05	594.44
506.41	605.32
506.78	616.80
507.14	628.61
507.50	640.57
507.86	652.90
508.22	665.54
508.59	678.23
508.95	691.38
509.31	705.07
509.67	718.89
510.03	732.60
510.39	746.65
510.75	760.88
511.12	775.70
511.48	790.99
511.84	806.35
512.20	821.74
512.56	837.45
512.92	853.75
513.28	870.10
513.64	886.74
514.00	903.69
514.37	920.72
514.73	938.17
515.09	955.82
515.45	973.50
515.81	991.15
516.17	1008.93
516.53	1027.19
516.89	1045.26
517.25	1063.75
517.61	1083.55
517.97	1103.26
518.33	1122.49
518.69	1141.86
519.05	1161.33
519.41	1180.93
519.77	1201.14
520.13	1221.20
520.49	1240.74
520.85	1260.66
521.21	1280.88
521.57	1301.20
521.93	1321.08
522.29	1341.18
522.65	1360.79
523.01	1380.70
523.37	1400.40
523.73	1420.75
524.09	1440.26
524.45	1459.64
524.81	1479.45
525.17	1498.64
525.53	1518.14
525.89	1537.93
526.25	1557.52
526.61	1576.90
526.97	1596.55
527.33	1616.40
527.68	1636.59
528.04	1656.68
528.40	1676.37
528.76	1695.92
529.12	1715.02
529.48	1734.42
529.84	1753.18
530.20	1773.06
530.56	1792.39
530.91	1812.10
531.27	1831.11
531.63	1850.17
531.99	1869.21
532.35	1887.77
532.71	1906.70
533.07	1925.74
533.42	1944.15
533.78	1962.71
534.14	1981.28
534.50	1999.22
534.86	2016.76
535.21	2032.99
535.57	2049.89
535.93	2066.27
536.29	2082.68
536.65	2099.22
537.00	2115.63
537.36	2131.95
537.72	2147.00
538.08	2162.87
538.44	2177.95
538.79	2192.83
539.15	2207.96
539.51	2222.80
539.87	2236.78
540.22	2249.60
540.58	2262.85
540.94	2274.86
541.29	2286.35
541.65	2297.62
542.01	2308.77
542.37	2318.22
542.72	2328.33
543.08	2337.66
543.44	2348.11
543.79	2357.13
544.15	2365.94
544.51	2374.51
544.87	2382.80
545.22	2389.95
545.58	2396.14
545.94	2402.03
546.29	2407.21
546.65	2412.11
547.01	2416.60
547.36	2420.66
547.72	2424.74
548.07	2427.24
548.43	2430.99
548.79	2433.96
549.14	2436.75
549.50	2439.24
549.86	2442.29
550.21	2444.70
550.57	2447.27
550.92	2447.43
551.28	2447.72
551.64	2448.77
551.99	2449.52
552.35	2449.85
552.70	2451.44
553.06	2452.47
553.41	2452.85
553.77	2453.71
554.13	2454.37
554.48	2455.09
554.84	2456.09
555.19	2456.47
555.55	2457.33
555.90	2456.40
556.26	2455.49
556.61	2453.30
556.97	2450.93
557.32	2449.75
557.68	2448.10
558.03	2445.83
558.39	2444.11
558.74	2442.49
559.10	2438.83
559.45	2434.55
559.81	2429.89
560.16	2424.34
560.52	2418.76
560.87	2414.21
561.23	2408.36
561.58	2402.57
561.94	2395.48
562.29	2387.75
562.64	2381.00
563.00	2372.72
563.35	2366.13
563.71	2359.05
564.06	2352.49
564.42	2345.99
564.77	2338.43
565.12	2330.53
565.48	2322.68
565.83	2314.59
566.19	2306.75
566.54	2299.03
566.89	2291.43
567.25	2283.84
567.60	2276.56
567.96	2269.38
568.31	2261.14
568.66	2252.92
569.02	2243.56
569.37	2235.15
569.72	2227.54
570.08	2218.32
570.43	2209.06
570.78	2200.00
571.14	2190.81
571.49	2180.98
571.84	2171.59
572.20	2161.27
572.55	2151.50
572.90	2141.15
573.26	2131.58
573.61	2120.62
573.96	2109.94
574.31	2098.48
574.67	2087.16
575.02	2075.04
575.37	2062.87
575.72	2050.54
576.08	2039.20
576.43	2027.57
576.78	2015.25
577.13	2002.54
577.49	1990.35
577.84	1978.95
578.19	1967.29
578.54	1955.54
578.90	1944.40
579.25	1932.47
579.60	1920.87
579.95	1909.01
580.30	1896.54
580.66	1883.53
581.01	1870.76
581.36	1857.48
581.71	1845.49
582.06	1833.42
582.42	1821.64
582.77	1809.95
583.12	1798.57
583.47	1786.81
583.82	1775.64
584.17	1764.42
584.53	1753.30
584.88	1741.30
585.23	1729.20
585.58	1715.97
585.93	1703.60
586.28	1691.03
586.63	1678.03
586.98	1664.84
587.34	1652.27
587.69	1640.18
588.04	1628.69
588.39	1617.69
588.74	1606.46
589.09	1595.28
589.44	1583.49
589.79	1572.10
590.14	1560.73
590.49	1549.61
590.84	1538.22
591.19	1526.99
591.54	1515.82
591.89	1504.50
592.25	1495.08
592.60	1484.45
592.95	1474.29
593.30	1463.25
593.65	1452.44
594.00	1441.54
594.35	1432.68
594.70	1421.93
595.05	1411.50
595.40	1400.17
595.75	1389.04
596.10	1378.65
596.45	1367.95
596.80	1357.76
597.15	1347.45
597.50	1336.79
597.85	1326.43
598.19	1315.88
598.54	1305.18
598.89	1294.73
599.24	1284.99
599.59	1274.16
599.94	1264.23
600.29	1254.63
600.64	1245.28
600.99	1235.45
601.34	1226.69
601.69	1216.30
602.04	1207.33
602.39	1198.29
602.74	1189.95
603.08	1181.49
603.43	1173.19
603.78	1164.30
604.13	1155.67
604.48	1146.81
604.83	1137.70
605.18	1128.76
605.53	1120.17
605.87	1111.93
606.22	1104.30
606.57	1095.81
606.92	1087.41
607.27	1079.51
607.62	1071.54
607.96	1063.62
608.31	1056.33
608.66	1048.70
609.01	1040.96
609.36	1033.13
609.70	1025.43
610.05	1017.67
610.40	1010.10
610.75	1002.18
611.10	994.77
611.44	986.92
611.79	979.51
612.14	972.56
612.49	965.45
612.83	958.50
613.18	951.36
613.53	944.06
613.88	936.92
614.22	929.64
614.57	922.20
614.92	914.74
615.27	907.99
615.61	900.91
615.96	893.86
616.31	886.85
616.65	880.31
617.00	873.56
617.35	866.86
617.70	860.23
618.04	853.65
618.39	847.35
618.74	841.46
619.08	835.21
619.43	828.88
619.78	822.43
620.12	815.94
620.47	809.65
620.82	803.35
621.16	797.17
621.51	791.65
621.85	785.94
622.20	780.05
622.55	773.92
622.89	767.93
623.24	762.11
623.59	756.30
623.93	750.53
624.28	744.96
624.62	739.80
624.97	734.48
625.32	729.28
625.66	723.92
626.01	718.40
626.35	713.39
626.70	708.25
627.04	703.34
627.39	698.21
627.73	693.41
628.08	688.61
628.43	683.61
628.77	678.45
629.12	673.65
629.46	669.31
629.81	665.06
630.15	660.83
630.50	656.49
630.84	652.10
631.19	647.83
631.53	643.65
631.88	638.87
632.22	634.44
632.57	630.21
632.91	625.78
633.26	621.59
633.60	617.20
633.95	613.08
634.29	608.75
634.64	604.90
634.98	600.46
635.32	596.53
635.67	592.89
636.01	589.09
636.36	585.09
636.70	581.35
637.05	577.44
637.39	573.63
637.73	569.82
638.08	566.18
638.42	562.22
638.77	558.34
639.11	554.51
639.45	550.55
639.80	546.68
640.14	542.99
640.49	539.53
640.83	536.19
641.17	532.89
641.52	529.65
641.86	526.31
642.20	523.50
642.55	520.14
642.89	516.76
643.23	513.73
643.58	510.88
643.92	507.37
644.26	504.25
644.61	501.29
644.95	498.13
645.29	495.13
645.64	492.46
645.98	489.58
646.32	486.85
646.66	484.14
647.01	481.39
647.35	478.85
647.69	475.98
648.04	473.47
648.38	470.76
648.72	468.10
649.06	465.37
649.41	462.45
649.75	459.70
650.09	457.20
650.43	454.35
650.78	451.60
651.12	449.06
651.46	446.57
651.80	444.04
652.14	441.64
652.49	439.21
652.83	436.72
653.17	434.41
653.51	431.83
653.85	429.60
654.20	427.33
654.54	424.98
654.88	422.78
655.22	420.67
655.56	418.43
655.90	416.21
656.25	414.02
656.59	411.96
656.93	410.02
657.27	408.01
657.61	405.85
657.95	403.92
658.29	402.02
658.64	400.02
658.98	398.04
659.32	396.03
659.66	394.15
660.00	392.22
660.34	390.29
660.68	388.59
661.02	386.74
661.36	384.97
661.70	383.07
662.05	381.30
662.39	379.35
662.73	377.77
663.07	376.30
663.41	374.75
663.75	373.02
664.09	371.25
664.43	369.44
664.77	368.04
665.11	366.24
665.45	364.78
665.79	363.32
666.13	361.70
666.47	360.15
666.81	358.58
667.15	356.98
667.49	355.60
667.83	354.35
668.17	352.84
668.51	351.40
668.85	350.18
669.19	349.11
669.53	347.80
669.87	346.32
670.21	344.90
670.55	343.57
670.89	342.58
671.23	341.43
671.57	340.23
671.91	338.86
672.25	337.74
672.58	336.69
672.92	335.39
673.26	334.27
673.60	333.29
673.94	332.24
674.28	331.23
674.62	330.09
674.96	328.85
675.30	327.83
675.64	326.75
675.97	325.61
676.31	324.26
676.65	323.06
676.99	322.22
677.33	321.10
677.67	320.16
678.01	318.93
678.34	317.89
678.68	317.04
679.02	316.14
679.36	315.20
679.70	314.19
680.04	313.32
680.37	312.40
680.71	311.39
681.05	310.56
681.39	309.76
681.73	308.98
682.06	308.11
682.40	307.29
682.74	306.60
683.08	306.02
683.42	305.19
683.75	304.52
684.09	303.58
684.43	302.90
684.77	302.08
685.10	301.38
685.44	300.69
685.78	299.86
686.12	299.10
686.45	298.35
686.79	297.53
687.13	296.87
687.46	296.20
687.80	295.61
688.14	294.88
688.48	294.16
688.81	293.44
689.15	292.91
689.49	292.19
689.82	291.62
690.16	290.73
690.50	290.19
690.83	289.48
691.17	288.86
691.51	288.18
691.84	287.64
692.18	286.90
692.52	286.23
692.85	285.66
693.19	285.29
693.52	284.73
693.86	284.13
694.20	283.53
694.53	282.97
694.87	282.36
695.21	281.71
695.54	281.13
695.88	280.47
696.21	279.75
696.55	279.21
696.88	278.48
697.22	277.85
697.56	277.26
697.89	276.70
698.23	276.17
698.56	275.64
698.90	275.17
699.23	274.73
699.57	274.30
699.90	273.73
700.24	273.13
700.58	272.74
700.91	272.34
701.25	272.22
701.58	272.15
701.92	271.83
702.25	271.44
702.59	270.93
702.92	270.55
703.26	270.20
703.59	269.84
703.93	269.88
704.26	269.58
704.60	269.31
704.93	268.92
705.26	268.53
705.60	268.23
705.93	267.69
706.27	267.42
706.60	267.12
706.94	267.00
707.27	266.56
707.61	266.14
707.94	265.74
708.27	265.08
708.61	264.29
708.94	263.82
709.28	263.54
709.61	263.18
709.94	262.90
710.28	262.52
710.61	262.15
710.95	261.38
711.28	261.40
711.61	261.02
711.95	260.80
712.28	260.40
712.61	260.00
712.95	259.96
713.28	259.83
713.61	259.35
713.95	258.87
714.28	258.65
714.61	258.37
714.95	258.04
715.28	257.55
715.61	257.28
715.95	257.04
716.28	256.60
716.61	256.41
716.95	256.07
717.28	255.75
717.61	255.44
717.94	255.11
718.28	254.46
718.61	254.10
718.94	253.72
719.27	253.56
719.61	253.32
719.94	252.95
720.27	252.44
720.60	252.21
720.94	251.99
721.27	251.78
721.60	251.53
721.93	251.30
722.27	251.40
722.60	251.19
722.93	250.88
723.26	250.74
723.59	250.42
723.93	250.22
724.26	250.17
724.59	249.95
724.92	249.83
725.25	249.77
725.59	249.64
725.92	249.54
726.25	249.28
726.58	249.17
726.91	248.97
727.24	248.87
727.57	248.70
727.91	248.46
728.24	248.35
728.57	248.18
728.90	248.08
729.23	247.69
729.56	247.76
729.89	247.65
730.22	247.48
730.55	247.33
730.89	247.15
731.22	246.90
731.55	246.77
731.88	246.63
732.21	246.30
732.54	246.06
732.87	245.94
733.20	245.80
733.53	245.64
733.86	245.50
734.19	245.29
734.52	245.20
734.85	245.32
735.18	245.00
735.51	245.05
735.84	244.92
736.17	244.87
736.50	244.45
736.83	244.84
737.16	244.68
737.49	244.55
737.82	244.38
738.15	244.32
738.48	244.19
738.81	243.97
739.14	243.87
739.47	243.71
739.80	243.50
740.13	243.46
740.46	243.20
740.79	242.99
741.12	242.88
741.45	242.71
741.78	242.31
742.11	242.37
742.44	242.05
742.77	241.94
743.10	241.71
743.43	241.57
743.75	240.88
744.08	241.41
744.41	241.16
744.74	241.03
745.07	240.73
745.40	240.58
745.73	240.66
746.06	240.57
746.39	240.52
746.71	240.34
747.04	240.10
747.37	239.96
747.70	239.89
748.03	239.78
748.36	239.63
748.68	239.50
749.01	239.18
749.34	239.10
749.67	239.01
750.00	238.95
750.33	239.18
750.65	239.14
750.98	238.40
751.31	238.35
751.64	238.26
751.97	238.42
752.29	238.38
752.62	238.11
752.95	237.94
753.28	237.82
753.60	237.71
753.93	237.77
754.26	237.75
754.59	237.50
754.91	237.25
755.24	237.20
755.57	237.16
755.90	237.04
756.22	236.88
756.55	236.68
756.88	236.53
757.20	236.14
757.53	235.89
757.86	235.72
758.19	235.70
758.51	235.56
758.84	235.17
759.17	234.94
759.49	234.87
759.82	235.00
760.15	234.84
760.47	234.69
760.80	234.39
761.13	234.35
761.45	234.20
761.78	234.24
762.11	234.06
762.43	233.86
762.76	233.82
763.08	233.72
763.41	233.62
763.74	233.53
764.06	233.44
764.39	233.37
764.71	233.38
765.04	233.24
765.37	233.17
765.69	233.16
766.02	233.14
766.34	232.99
766.67	232.78
767.00	232.82
767.32	233.09
767.65	233.37
767.97	233.25
768.30	233.36
768.62	233.24
768.95	233.13
769.27	233.06
769.60	233.03
769.92	232.99
770.25	232.87
770.57	232.73
770.90	232.60
771.22	232.53
771.55	232.42
771.87	232.38
772.20	232.35
772.52	232.66
772.85	233.17
773.17	233.17
773.50	233.04
773.82	232.93
774.15	232.63
774.47	232.22
774.80	232.04
775.12	231.94
775.45	231.92
775.77	231.99
776.09	231.93
776.42	231.90
776.74	231.94
777.07	231.85
777.39	231.85
777.72	231.79
778.04	231.82
778.36	231.71
778.69	231.75
779.01	231.72
779.33	231.33
779.66	230.76
779.98	230.73
780.31	230.69
780.63	230.90
780.95	230.98
781.28	230.93
781.60	230.98
781.92	230.93
782.25	230.82
782.57	230.79
782.89	230.79
783.22	230.75
783.54	230.65
783.86	230.69
784.19	230.65
784.51	230.85
784.83	230.73
785.16	230.74
785.48	230.70
785.80	230.63
786.12	230.63
786.45	230.62
786.77	230.61
787.09	230.62
787.42	230.45
787.74	230.39
788.06	230.37
788.38	230.31
788.71	230.24
789.03	230.35
789.35	230.31
789.67	230.24
789.99	230.19
790.32	230.04
790.64	230.08
790.96	230.39
791.28	230.13
791.61	230.05
791.93	230.05
792.25	229.96
792.57	230.31
792.89	230.13
793.21	230.07
793.54	230.04
793.86	229.96
794.18	229.89
794.50	229.80
794.82	229.82
795.14	229.79
795.47	229.85
795.79	229.75
796.11	229.62
796.43	229.62
796.75	229.59
797.07	229.61
797.39	229.53
797.71	229.22
798.04	229.21
798.36	229.23
798.68	229.23
799.00	229.30
799.32	229.03
799.64	229.19
799.96	229.23
800.28	229.27
800.60	229.24
800.92	229.23
801.24	229.16
801.56	229.18
801.89	229.14
802.21	229.19
802.53	229.10
802.85	229.29
803.17	229.49
803.49	229.40
803.81	229.39
804.13	229.37
804.45	229.35
804.77	229.42
805.09	229.43
805.41	229.34
805.73	229.12
806.05	228.97
806.37	228.91
806.69	228.85
807.01	228.65
807.33	228.63
807.65	228.44
807.97	228.65
808.28	228.60
808.60	228.57
808.92	228.40
809.24	228.74
809.56	228.58
809.88	228.39
810.20	228.39
810.52	228.45
810.84	228.33
811.16	228.27
811.48	228.19
811.80	228.33
812.12	228.34
812.43	228.55
812.75	228.57
813.07	228.48
813.39	228.50
813.71	228.52
814.03	228.50
814.35	228.52
814.67	228.35
814.98	228.26
815.30	228.26
815.62	228.26
815.94	227.92
816.26	228.13
816.58	227.99
816.89	228.04
817.21	227.96
817.53	227.98
817.85	227.95
818.17	227.94
818.48	227.66
818.80	227.76
819.12	227.62
819.44	227.51
819.76	227.45
820.07	227.41
820.39	227.40
820.71	227.48
821.03	227.44
821.34	227.37
821.66	227.48
821.98	227.56
822.30	227.55
822.61	227.80
822.93	227.53
823.25	227.52
823.57	227.48
823.88	227.49
824.20	227.49
824.52	227.62
824.83	227.61
825.15	227.65
825.47	227.60
825.79	227.59
826.10	227.63
826.42	227.62
826.74	227.63
827.05	227.61
827.37	227.59
827.69	227.59
828.00	227.60
828.32	227.58
828.64	227.45
828.95	227.72
829.27	227.57
829.58	227.61
829.90	227.69
830.22	227.67
830.53	227.57
830.85	227.55
831.17	227.35
831.48	227.36
831.80	227.35
832.11	227.30
832.43	227.29
832.75	227.27
833.06	227.57
833.38	227.42
833.69	227.36
834.01	227.41
834.32	227.36
834.64	227.31
834.96	227.29
835.27	227.31
835.59	227.03
835.90	226.95
836.22	226.85
836.53	226.74
836.85	226.71
837.16	227.25
837.48	227.30
837.79	227.52
838.11	227.55
838.42	227.59
838.74	227.60
839.05	227.55
839.37	227.52
839.68	227.18
840.00	227.19
840.31	227.27
840.63	227.19
840.94	227.22
841.26	227.12
841.57	227.11
841.88	227.12
842.20	227.05
842.51	226.97
842.83	226.98
843.14	227.50
843.46	227.59
843.77	227.34
844.08	227.29
844.40	227.15
844.71	227.07
845.03	226.95
845.34	227.01
845.65	227.01
845.97	227.03
846.28	227.05
846.60	227.05
846.91	227.00
847.22	226.82
847.54	226.92
847.85	226.96
848.16	226.90
848.48	226.83
848.79	227.04
849.10	227.10
849.42	227.11
849.73	226.62
850.04	226.51
850.36	226.30
850.67	226.41
850.98	226.38
851.30	226.41
851.61	226.41
851.92	226.26
852.23	226.44
852.55	226.42
852.86	226.48
853.17	226.48
853.49	226.53
853.80	226.73
854.11	226.74
854.42	226.79
854.74	226.68
855.05	226.73
855.36	226.49
855.67	226.45
855.99	226.56
856.30	227.12
856.61	227.10
856.92	226.97
857.23	226.91
857.55	226.84
857.86	226.81
858.17	226.91
858.48	226.90
858.79	226.76
859.11	226.85
859.42	226.79
859.73	226.75
860.04	226.81
860.35	226.68
860.66	226.51
860.98	226.51
861.29	226.61
861.60	226.57
861.91	226.67
862.22	226.61
862.53	226.43
862.84	225.93
863.16	226.08
863.47	226.12
863.78	226.06
864.09	226.12
864.40	226.12
864.71	226.13
865.02	226.18
865.33	226.09
865.64	225.97
865.95	226.07
866.27	226.45
866.58	226.31
866.89	226.36
867.20	226.40
867.51	226.37
867.82	226.35
868.13	226.50
868.44	226.55
868.75	226.69
869.06	226.77
869.37	226.80
869.68	226.61
869.99	226.75
870.30	226.85
870.61	226.90
870.92	226.86
871.23	226.78
871.54	226.83
871.85	226.91
872.16	226.99
872.47	226.90
872.78	226.60
873.09	226.69
873.40	226.66
873.71	226.70
874.02	226.73
874.33	226.72
874.64	226.59
874.95	226.56
875.26	226.44
875.56	226.42
875.87	226.28
876.18	226.26
876.49	226.70
876.80	226.60
877.11	226.50
877.42	226.51
877.73	226.55
878.04	226.49
878.35	226.57
878.66	226.54
878.96	226.48
879.27	226.42
879.58	226.37
879.89	226.32
880.20	226.43
880.51	226.36
880.82	226.33
881.12	226.35
881.43	226.29
881.74	226.32
882.05	226.26
882.36	226.44
882.67	226.53
882.97	225.99
883.28	225.96
883.59	225.95
883.90	225.99
884.21	226.02
884.51	225.95
884.82	225.83
885.13	225.84
885.44	225.85
885.74	225.91
886.05	225.93
886.36	225.94
886.67	225.76
886.98	226.02
887.28	226.08
887.59	226.06
887.90	226.06
888.20	225.99
888.51	226.10
888.82	225.95
889.13	225.94
889.43	226.32
889.74	226.27
890.05	226.27
890.35	226.25
890.66	226.18
890.97	226.18
891.28	226.15
891.58	226.10
891.89	226.07
892.20	225.99
892.50	225.93
892.81	225.92
893.12	225.94
893.42	225.68
893.73	225.70
894.04	225.69
894.34	225.71
894.65	225.74
894.95	225.67
895.26	225.72
895.57	225.96
895.87	225.54
896.18	225.70
896.48	225.76
896.79	225.76
897.10	225.83
897.40	225.90
897.71	225.93
898.01	225.93
898.32	225.95
898.63	226.03
898.93	226.07
899.24	226.17
899.54	226.17
899.85	226.20
900.15	226.16
900.46	226.19
900.76	226.21
901.07	226.20
901.38	226.24
901.68	226.27
901.99	226.05
902.29	226.11
902.60	226.00
902.90	225.99
903.21	226.00
903.51	225.96
903.82	226.06
904.12	226.05
904.43	226.09
904.73	226.19
905.03	226.21
905.34	226.71
905.64	226.64
905.95	226.72
906.25	226.78
906.56	226.74
906.86	226.81
907.17	226.77
907.47	226.81
907.77	226.74
908.08	226.65
908.38	226.66
908.69	226.73
908.99	226.75
909.30	226.81
909.60	226.80
909.90	226.90
910.21	226.65
910.51	226.63
910.81	226.73
911.12	226.69
911.42	226.64
911.73	226.11
912.03	226.13
912.33	226.20
912.64	226.16
912.94	226.20
913.24	226.08
913.55	226.04
913.85	226.02
914.15	226.16
914.46	226.30
914.76	226.25
915.06	226.19
915.37	226.16
915.67	226.05
915.97	226.04
916.27	225.86
916.58	226.00
916.88	226.00
917.18	225.93
917.49	226.26
917.79	226.30
918.09	226.37
918.39	226.51
918.70	226.39
919.00	226.44
919.30	226.61
919.60	226.59
919.91	226.51
920.21	226.56
920.51	226.41
920.81	226.29
921.12	226.34
921.42	226.26
921.72	226.33
922.02	226.40
922.32	226.47
922.63	226.51
922.93	226.81
923.23	226.88
923.53	226.81
923.83	226.44
924.13	226.46
924.44	226.41
924.74	226.53
925.04	226.64
925.34	226.59
925.64	226.38
925.94	226.35
926.24	226.68
926.55	226.59
926.85	226.68
927.15	226.73
927.45	226.73
927.75	226.75
928.05	226.77
928.35	226.72
928.65	226.76
928.95	226.80
929.26	226.51
929.56	226.51
929.86	226.61
930.16	226.64
930.46	226.55
930.76	226.53
931.06	226.24
931.36	226.14
931.66	226.24
931.96	226.31
932.26	226.38
932.56	226.13
932.86	226.13
933.16	226.13
933.46	226.03
933.76	226.00
934.06	226.12
934.36	226.25
934.66	226.27
934.96	226.20
935.26	226.21
935.56	226.24
935.86	226.05
936.16	225.91
936.46	225.79
936.76	225.82
937.06	225.80
937.36	225.84
937.66	225.80
937.96	225.72
938.26	225.59
938.56	225.56
938.86	225.62
939.16	225.78
939.46	225.85
939.76	225.93
940.06	225.92
940.35	225.82
940.65	225.62
940.95	225.62
941.25	225.57
941.55	225.55
941.85	225.55
942.15	225.76
942.45	226.00
942.75	226.00
943.04	225.93
943.34	226.01
943.64	226.02
943.94	226.01
944.24	225.99
944.54	226.09
944.84	226.06
945.13	225.96
945.43	225.87
945.73	225.75
946.03	225.77
946.33	225.69
946.62	225.63
946.92	225.56
947.22	225.66
947.52	225.63
947.82	225.66
948.11	225.65
948.41	225.50
948.71	225.34
949.01	225.42
949.31	225.44
949.60	225.36
949.90	225.44
950.20	225.43
950.50	225.43
950.79	225.43
951.09	225.56
951.39	225.61
951.69	225.50
951.98	225.65
952.28	225.66
952.58	225.66
952.87	225.68
953.17	225.77
953.47	225.72
953.76	225.75
954.06	225.72
954.36	225.60
954.66	225.70
954.95	225.85
955.25	225.86
955.55	225.95
955.84	225.89
956.14	225.95
956.44	225.96
956.73	225.93
957.03	225.93
957.32	225.86
957.62	225.85
957.92	226.00
958.21	225.95
958.51	226.47
958.81	226.55
959.10	226.60
959.40	226.70
959.69	226.69
959.99	226.78
960.29	226.77
960.58	226.80
960.88	226.89
961.17	226.81
961.47	226.96
961.76	226.85
962.06	227.00
962.36	226.89
962.65	226.84
962.95	226.93
963.24	226.86
963.54	226.85
963.83	226.87
964.13	226.83
964.42	226.66
964.72	226.31
965.01	226.35
965.31	226.36
965.60	226.24
965.90	226.49
966.19	226.39
966.49	226.37
966.78	226.36
967.08	226.39
967.37	226.44
967.67	226.22
967.96	226.32
968.26	226.26
968.55	226.32
968.85	226.32
969.14	226.26
969.43	226.28
969.73	226.33
970.02	226.33
970.32	226.32
970.61	226.39
970.91	226.16
971.20	226.02
971.49	225.90
971.79	225.95
972.08	225.64
972.38	225.66
972.67	225.65
972.96	225.75
973.26	225.58
973.55	225.70
973.85	225.74
974.14	225.66
974.43	225.80
974.73	225.67
975.02	225.76
975.31	225.81
975.61	225.85
975.90	225.70
976.19	225.62
976.49	225.72
976.78	225.73
977.07	225.82
977.37	225.92
977.66	226.00
977.95	225.92
978.24	225.95
978.54	226.03
978.83	225.99
979.12	225.96
979.42	226.02
979.71	225.91
980.00	225.89
980.29	226.03
980.59	225.83
980.88	226.01
981.17	225.94
981.46	225.87
981.76	225.87
982.05	226.11
982.34	226.19
982.63	226.16
982.93	226.06
983.22	226.06
983.51	226.08
983.80	226.18
984.09	226.26
984.39	226.27
984.68	226.19
984.97	226.25
985.26	226.20
985.55	226.21
985.85	226.07
986.14	226.19
986.43	226.17
986.72	226.15
987.01	225.96
987.30	225.99
987.59	225.98
987.89	225.92
988.18	225.72
988.47	225.60
988.76	225.52
989.05	225.60
989.34	225.57
989.63	225.67
989.92	225.60
990.22	225.53
990.51	225.42
990.80	225.45
991.09	225.48
991.38	225.53
991.67	225.48
991.96	225.46
992.25	225.46
992.54	225.34
992.83	225.41
993.12	225.36
993.41	225.45
993.70	225.57
993.99	225.65
994.28	225.70
994.58	225.86
994.87	225.76
995.16	225.66
995.45	225.65
995.74	225.48
996.03	225.50
996.32	225.57
996.61	225.73
996.90	225.67
997.19	225.68
997.48	225.63
997.77	225.50
998.06	225.49
998.34	225.44
998.63	225.46
998.92	225.38
999.21	225.50
999.50	225.47
999.79	225.35
1000.08	225.31
1000.37	225.35
1000.66	225.27
1000.95	225.44
1001.24	225.46
1001.53	225.50
1001.82	225.48
1002.11	225.31
1002.40	225.34
1002.68	225.50
1002.97	225.84
1003.26	225.78
1003.55	225.79
1003.84	225.89
1004.13	226.12
1004.42	226.04
1004.71	226.07
1004.99	226.05
1005.28	226.20
1005.57	226.18
1005.86	226.19
1006.15	226.17
1006.44	226.05
1006.72	226.08
1007.01	226.10
1007.30	226.13
1007.59	226.07
1007.88	226.11
1008.17	226.30
1008.45	226.19
1008.74	225.91
1009.03	225.70
1009.32	225.68
1009.60	225.65
1009.89	225.66
1010.18	225.37
1010.47	225.40
1010.76	225.40
1011.04	225.43
1011.33	225.39
1011.62	225.39
1011.91	225.41
1012.19	225.49
1012.48	225.51
1012.77	225.55
1013.05	225.73
1013.34	225.75
1013.63	225.75
1013.92	225.75
1014.20	225.65
1014.49	225.74
1014.78	225.80
1015.06	225.67
1015.35	225.68
1015.64	225.76
1015.92	225.82
1016.21	226.00
1016.50	226.00
1016.78	226.02
1017.07	226.08
1017.36	225.97
1017.64	225.95
1017.93	226.01
1018.22	225.96
1018.50	226.00
1018.79	226.00
1019.08	225.75
1019.36	225.80
1019.65	225.83
1019.93	225.90
1020.22	225.98
1020.51	226.10
1020.79	226.01
1021.08	225.85
1021.36	225.30
1021.65	226.15
1021.94	225.75
1022.22	226.25
1022.51	226.10
1022.79	226.65
1023.08	226.55
1023.36	229.20
1023.65	223.85
>>>>>End Processed Spectral Data<<<<<
