SpectraSuite Data File
++++++++++++++++++++++++++++++++++++
Date: Wed Sep 04 17:57:51 EDT 2013
User: lab3
Dark Spectrum Present: Yes
Reference Spectrum Present: No
Number of Sampled Component Spectra: 1
Spectrometers: USB2E7196
Integration Time (usec): 170000 (USB2E7196)
Spectra Averaged: 20 (USB2E7196)
Boxcar Smoothing: 10 (USB2E7196)
Correct for Electrical Dark: No (USB2E7196)
Strobe/Lamp Enabled: No (USB2E7196)
Correct for Detector Non-linearity: No (USB2E7196)
Correct for Stray Light: No (USB2E7196)
Number of Pixels in Processed Spectrum: 2048
>>>>>Begin Processed Spectral Data<<<<<
339.09	0.00
339.48	213.75
339.86	214.85
340.24	216.25
340.63	216.35
341.01	225.90
341.39	221.15
341.78	223.80
342.16	222.40
342.54	222.15
342.93	212.43
343.31	223.18
343.69	223.66
344.07	224.11
344.46	224.61
344.84	225.11
345.22	225.09
345.60	225.30
345.99	225.41
346.37	225.57
346.75	225.68
347.13	225.75
347.52	225.79
347.90	225.95
348.28	225.98
348.66	226.15
349.05	225.98
349.43	226.03
349.81	226.11
350.19	226.18
350.57	226.22
350.96	226.29
351.34	226.36
351.72	226.46
352.10	226.51
352.48	226.45
352.87	226.48
353.25	226.53
353.63	226.59
354.01	226.70
354.39	226.83
354.77	226.93
355.15	227.12
355.54	227.20
355.92	227.15
356.30	227.27
356.68	227.62
357.06	227.86
357.44	227.78
357.82	227.77
358.20	228.24
358.58	228.35
358.97	228.42
359.35	228.58
359.73	228.75
360.11	228.86
360.49	229.00
360.87	229.05
361.25	229.17
361.63	229.37
362.01	229.41
362.39	229.41
362.77	229.54
363.15	229.57
363.53	229.63
363.91	229.73
364.29	229.71
364.67	229.30
365.05	229.30
365.43	229.45
365.81	229.62
366.19	229.51
366.57	229.69
366.95	229.63
367.33	229.49
367.71	229.51
368.09	229.64
368.47	229.63
368.85	229.60
369.23	229.64
369.61	229.44
369.99	229.58
370.37	229.61
370.75	229.82
371.13	229.73
371.51	229.67
371.89	229.66
372.27	229.70
372.65	229.75
373.03	229.69
373.41	229.60
373.78	229.45
374.16	229.16
374.54	228.99
374.92	228.91
375.30	228.89
375.68	228.71
376.06	228.66
376.44	228.53
376.82	228.54
377.19	228.56
377.57	228.51
377.95	228.33
378.33	228.26
378.71	227.89
379.09	227.87
379.47	227.86
379.84	227.75
380.22	227.53
380.60	227.33
380.98	227.28
381.36	227.24
381.73	227.15
382.11	227.19
382.49	227.04
382.87	226.92
383.25	226.93
383.62	227.45
384.00	227.28
384.38	227.27
384.76	227.27
385.13	227.28
385.51	227.24
385.89	227.10
386.27	227.02
386.64	226.99
387.02	226.91
387.40	226.83
387.78	226.80
388.15	226.86
388.53	226.78
388.91	226.70
389.29	226.58
389.66	226.67
390.04	226.60
390.42	226.72
390.79	226.78
391.17	226.73
391.55	226.20
391.92	226.19
392.30	226.22
392.68	226.16
393.05	226.23
393.43	226.23
393.81	226.27
394.18	226.22
394.56	226.28
394.94	226.44
395.31	226.40
395.69	226.56
396.06	226.71
396.44	226.80
396.82	226.77
397.19	227.09
397.57	227.07
397.95	227.19
398.32	227.13
398.70	227.16
399.07	227.36
399.45	227.43
399.82	227.49
400.20	227.53
400.58	227.60
400.95	227.44
401.33	227.65
401.70	228.14
402.08	228.28
402.45	228.46
402.83	228.69
403.20	228.90
403.58	228.94
403.95	229.11
404.33	229.44
404.71	229.77
405.08	230.19
405.46	230.44
405.83	230.72
406.21	231.03
406.58	231.32
406.96	231.57
407.33	231.91
407.70	232.39
408.08	233.13
408.45	233.57
408.83	234.14
409.20	234.55
409.58	234.72
409.95	235.35
410.33	235.87
410.70	236.21
411.08	236.78
411.45	237.47
411.82	238.10
412.20	238.82
412.57	239.75
412.95	240.14
413.32	241.01
413.69	241.84
414.07	242.80
414.44	243.90
414.82	244.84
415.19	246.07
415.56	247.20
415.94	248.23
416.31	249.67
416.68	251.08
417.06	252.70
417.43	254.28
417.81	256.01
418.18	257.91
418.55	259.84
418.93	261.88
419.30	263.90
419.67	266.10
420.04	268.42
420.42	270.75
420.79	273.80
421.16	276.53
421.54	279.51
421.91	282.45
422.28	285.51
422.66	288.85
423.03	292.22
423.40	295.56
423.77	299.12
424.15	302.73
424.52	306.44
424.89	310.66
425.26	314.60
425.64	318.43
426.01	322.58
426.38	327.00
426.75	331.50
427.13	336.17
427.50	340.98
427.87	345.77
428.24	350.66
428.61	355.21
428.99	360.57
429.36	366.11
429.73	371.72
430.10	377.25
430.47	383.01
430.85	388.77
431.22	395.08
431.59	401.78
431.96	408.08
432.33	415.11
432.70	421.80
433.08	429.70
433.45	437.25
433.82	444.69
434.19	452.95
434.56	461.11
434.93	468.84
435.30	476.63
435.68	485.39
436.05	494.03
436.42	502.38
436.79	510.13
437.16	518.55
437.53	527.24
437.90	536.00
438.27	544.62
438.64	553.46
439.01	561.80
439.38	569.08
439.75	576.17
440.13	584.15
440.50	591.72
440.87	597.80
441.24	604.09
441.61	611.12
441.98	616.29
442.35	622.04
442.72	627.99
443.09	633.78
443.46	637.05
443.83	639.32
444.20	641.34
444.57	643.93
444.94	644.98
445.31	646.18
445.68	647.62
446.05	647.69
446.42	646.62
446.79	645.13
447.16	643.64
447.53	642.33
447.90	638.75
448.27	635.17
448.64	630.35
449.01	626.52
449.37	620.20
449.74	613.99
450.11	607.16
450.48	599.39
450.85	591.28
451.22	584.59
451.59	577.80
451.96	571.45
452.33	563.33
452.70	555.85
453.07	547.15
453.43	537.80
453.80	529.35
454.17	521.10
454.54	513.30
454.91	504.96
455.28	496.95
455.65	489.35
456.02	482.22
456.38	475.80
456.75	468.00
457.12	461.61
457.49	455.36
457.86	449.00
458.23	443.92
458.59	438.25
458.96	432.34
459.33	427.13
459.70	421.96
460.07	417.93
460.43	413.31
460.80	408.92
461.17	405.25
461.54	401.27
461.91	397.44
462.27	393.50
462.64	390.19
463.01	386.66
463.38	383.39
463.74	379.49
464.11	376.46
464.48	373.97
464.85	370.91
465.21	368.72
465.58	366.32
465.95	363.41
466.32	361.11
466.68	358.80
467.05	356.64
467.42	354.40
467.78	351.98
468.15	349.78
468.52	348.15
468.88	345.89
469.25	343.93
469.62	342.43
469.98	340.84
470.35	339.37
470.72	337.97
471.08	336.23
471.45	334.92
471.82	333.68
472.18	332.09
472.55	331.14
472.92	329.74
473.28	328.73
473.65	327.60
474.02	326.53
474.38	325.83
474.75	325.10
475.11	324.26
475.48	323.70
475.85	323.12
476.21	322.54
476.58	322.06
476.94	321.78
477.31	321.29
477.67	320.90
478.04	320.61
478.41	320.40
478.77	320.71
479.14	320.41
479.50	320.29
479.87	320.49
480.23	320.52
480.60	320.52
480.96	320.54
481.33	320.95
481.69	321.17
482.06	321.30
482.42	321.60
482.79	321.96
483.15	322.41
483.52	323.03
483.88	323.50
484.25	324.07
484.61	324.59
484.98	325.23
485.34	326.26
485.71	327.14
486.07	328.10
486.44	328.66
486.80	329.69
487.17	330.84
487.53	332.08
487.90	333.44
488.26	335.12
488.62	336.79
488.99	338.25
489.35	340.00
489.72	341.87
490.08	343.89
490.44	345.85
490.81	348.13
491.17	350.31
491.54	352.75
491.90	355.30
492.26	358.01
492.63	360.94
492.99	363.66
493.36	366.75
493.72	370.06
494.08	373.60
494.45	377.36
494.81	381.16
495.17	384.97
495.54	389.24
495.90	393.46
496.26	397.92
496.63	402.67
496.99	407.53
497.35	412.43
497.72	417.57
498.08	423.20
498.44	428.71
498.80	434.72
499.17	440.89
499.53	447.19
499.89	453.90
500.26	460.62
500.62	467.67
500.98	475.09
501.34	482.61
501.71	490.33
502.07	498.16
502.43	506.33
502.79	514.85
503.16	523.55
503.52	532.72
503.88	542.04
504.24	551.66
504.60	561.77
504.97	572.12
505.33	582.72
505.69	593.68
506.05	604.85
506.41	616.05
506.78	627.72
507.14	639.77
507.50	652.11
507.86	664.84
508.22	677.91
508.59	690.85
508.95	704.56
509.31	718.58
509.67	732.89
510.03	747.16
510.39	762.05
510.75	777.11
511.12	792.18
511.48	807.87
511.84	823.69
512.20	839.61
512.56	856.06
512.92	872.84
513.28	889.78
513.64	907.06
514.00	924.71
514.37	942.32
514.73	960.40
515.09	978.70
515.45	997.09
515.81	1015.46
516.17	1034.40
516.53	1052.81
516.89	1071.61
517.25	1091.08
517.61	1111.36
517.97	1131.50
518.33	1151.57
518.69	1172.01
519.05	1192.55
519.41	1213.30
519.77	1234.50
520.13	1255.20
520.49	1275.82
520.85	1298.09
521.21	1319.28
521.57	1340.73
521.93	1362.05
522.29	1383.31
522.65	1403.79
523.01	1424.82
523.37	1445.74
523.73	1467.07
524.09	1487.75
524.45	1508.68
524.81	1529.70
525.17	1550.45
525.53	1571.29
525.89	1592.22
526.25	1613.08
526.61	1633.58
526.97	1654.62
527.33	1675.95
527.68	1698.24
528.04	1719.83
528.40	1739.59
528.76	1760.76
529.12	1781.10
529.48	1801.81
529.84	1822.15
530.20	1843.64
530.56	1864.18
530.91	1885.02
531.27	1905.37
531.63	1926.43
531.99	1947.40
532.35	1967.56
532.71	1987.64
533.07	2008.13
533.42	2028.18
533.78	2048.40
534.14	2068.45
534.50	2087.55
534.86	2106.59
535.21	2123.80
535.57	2142.30
535.93	2160.25
536.29	2177.93
536.65	2196.46
537.00	2213.90
537.36	2231.43
537.72	2248.06
538.08	2265.79
538.44	2282.72
538.79	2299.19
539.15	2315.66
539.51	2331.25
539.87	2346.36
540.22	2360.90
540.58	2375.06
540.94	2388.38
541.29	2400.72
541.65	2413.28
542.01	2426.10
542.37	2436.69
542.72	2447.83
543.08	2458.61
543.44	2470.44
543.79	2480.64
544.15	2490.37
544.51	2500.47
544.87	2510.29
545.22	2518.98
545.58	2526.62
545.94	2533.59
546.29	2539.96
546.65	2546.35
547.01	2552.05
547.36	2557.86
547.72	2563.25
548.07	2567.56
548.43	2573.05
548.79	2577.95
549.14	2582.05
549.50	2585.84
549.86	2589.75
550.21	2593.88
550.57	2596.84
550.92	2598.00
551.28	2599.35
551.64	2601.71
551.99	2603.82
552.35	2605.41
552.70	2607.43
553.06	2609.35
553.41	2610.61
553.77	2612.66
554.13	2614.22
554.48	2615.90
554.84	2617.25
555.19	2618.62
555.55	2620.29
555.90	2619.28
556.26	2618.45
556.61	2616.75
556.97	2614.91
557.32	2614.80
557.68	2613.30
558.03	2611.85
558.39	2610.72
558.74	2609.83
559.10	2606.60
559.45	2602.94
559.81	2598.45
560.16	2593.49
560.52	2588.38
560.87	2584.42
561.23	2579.08
561.58	2572.94
561.94	2566.12
562.29	2558.43
562.64	2551.39
563.00	2543.17
563.35	2536.69
563.71	2530.04
564.06	2523.94
564.42	2517.23
564.77	2509.79
565.12	2502.27
565.48	2494.69
565.83	2486.81
566.19	2478.95
566.54	2471.38
566.89	2463.12
567.25	2455.47
567.60	2448.48
567.96	2440.89
568.31	2432.63
568.66	2423.71
569.02	2414.85
569.37	2406.79
569.72	2399.44
570.08	2390.03
570.43	2380.55
570.78	2371.44
571.14	2362.00
571.49	2351.67
571.84	2341.94
572.20	2331.00
572.55	2320.81
572.90	2310.00
573.26	2299.60
573.61	2288.61
573.96	2277.08
574.31	2265.35
574.67	2253.53
575.02	2240.49
575.37	2227.78
575.72	2214.77
576.08	2202.72
576.43	2190.35
576.78	2177.15
577.13	2163.30
577.49	2150.57
577.84	2138.75
578.19	2126.61
578.54	2113.77
578.90	2102.15
579.25	2089.61
579.60	2077.31
579.95	2064.34
580.30	2051.07
580.66	2037.47
581.01	2023.62
581.36	2009.75
581.71	1997.21
582.06	1984.21
582.42	1971.42
582.77	1958.74
583.12	1946.75
583.47	1934.42
583.82	1922.34
584.17	1910.10
584.53	1898.39
584.88	1885.43
585.23	1872.20
585.58	1858.05
585.93	1844.94
586.28	1831.39
586.63	1817.17
586.98	1802.93
587.34	1789.84
587.69	1776.84
588.04	1764.17
588.39	1751.92
588.74	1739.79
589.09	1727.39
589.44	1714.48
589.79	1702.48
590.14	1690.54
590.49	1678.13
590.84	1665.88
591.19	1653.59
591.54	1641.37
591.89	1629.04
592.25	1618.73
592.60	1607.20
592.95	1595.73
593.30	1583.80
593.65	1571.88
594.00	1560.16
594.35	1550.29
594.70	1538.46
595.05	1526.95
595.40	1514.60
595.75	1502.81
596.10	1491.30
596.45	1479.60
596.80	1468.98
597.15	1457.39
597.50	1445.55
597.85	1434.20
598.19	1422.60
598.54	1410.92
598.89	1399.54
599.24	1388.97
599.59	1377.25
599.94	1366.30
600.29	1355.85
600.64	1345.50
600.99	1334.64
601.34	1325.17
601.69	1314.01
602.04	1303.98
602.39	1294.21
602.74	1285.34
603.08	1275.93
603.43	1266.72
603.78	1257.06
604.13	1247.24
604.48	1237.73
604.83	1227.85
605.18	1217.90
605.53	1208.46
605.87	1199.24
606.22	1190.71
606.57	1181.33
606.92	1171.80
607.27	1162.80
607.62	1154.01
607.96	1145.24
608.31	1137.19
608.66	1128.43
609.01	1119.90
609.36	1111.33
609.70	1102.74
610.05	1094.00
610.40	1085.35
610.75	1076.56
611.10	1068.30
611.44	1059.81
611.79	1051.61
612.14	1043.70
612.49	1036.05
612.83	1028.27
613.18	1020.57
613.53	1012.76
613.88	1004.78
614.22	997.29
614.57	989.44
614.92	981.47
615.27	974.14
615.61	966.45
615.96	959.02
616.31	951.49
616.65	944.30
617.00	936.98
617.35	929.38
617.70	922.18
618.04	915.00
618.39	908.00
618.74	901.44
619.08	894.39
619.43	887.38
619.78	880.16
620.12	872.96
620.47	865.88
620.82	858.62
621.16	851.88
621.51	845.21
621.85	838.82
622.20	832.23
622.55	825.39
622.89	818.81
623.24	812.47
623.59	806.01
623.93	799.64
624.28	793.44
624.62	788.02
624.97	782.13
625.32	776.35
625.66	770.35
626.01	764.16
626.35	758.63
626.70	753.15
627.04	747.70
627.39	742.41
627.73	737.10
628.08	731.81
628.43	726.25
628.77	720.88
629.12	715.37
629.46	710.61
629.81	705.77
630.15	700.94
630.50	695.90
630.84	691.01
631.19	686.32
631.53	681.75
631.88	676.35
632.22	671.57
632.57	666.98
632.91	662.28
633.26	657.86
633.60	653.21
633.95	648.41
634.29	643.71
634.64	639.00
634.98	634.28
635.32	630.05
635.67	626.03
636.01	621.82
636.36	617.51
636.70	613.37
637.05	609.31
637.39	605.24
637.73	601.18
638.08	597.10
638.42	592.72
638.77	588.26
639.11	583.85
639.45	579.40
639.80	575.00
640.14	570.96
640.49	566.89
640.83	563.04
641.17	559.48
641.52	555.87
641.86	552.41
642.20	549.36
642.55	545.53
642.89	541.95
643.23	538.36
643.58	535.30
643.92	531.61
644.26	528.05
644.61	524.68
644.95	521.33
645.29	518.00
645.64	514.91
645.98	511.92
646.32	509.16
646.66	506.26
647.01	503.36
647.35	500.62
647.69	497.68
648.04	494.88
648.38	491.99
648.72	489.13
649.06	486.07
649.41	482.83
649.75	479.88
650.09	477.01
650.43	474.23
650.78	471.33
651.12	468.52
651.46	465.69
651.80	462.93
652.14	460.22
652.49	457.69
652.83	455.11
653.17	452.42
653.51	449.72
653.85	447.33
654.20	444.86
654.54	442.17
654.88	439.68
655.22	437.40
655.56	434.95
655.90	432.54
656.25	430.31
656.59	428.04
656.93	425.87
657.27	423.81
657.61	421.31
657.95	419.10
658.29	416.92
658.64	414.94
658.98	412.74
659.32	410.39
659.66	408.19
660.00	405.97
660.34	403.84
660.68	401.88
661.02	399.83
661.36	397.84
661.70	395.74
662.05	393.78
662.39	391.74
662.73	389.81
663.07	388.12
663.41	386.21
663.75	384.37
664.09	382.40
664.43	380.35
664.77	378.75
665.11	376.94
665.45	375.33
665.79	373.63
666.13	371.90
666.47	370.23
666.81	368.59
667.15	367.00
667.49	365.59
667.83	364.20
668.17	362.63
668.51	361.17
668.85	359.97
669.19	358.63
669.53	357.03
669.87	355.61
670.21	354.01
670.55	352.63
670.89	351.49
671.23	350.20
671.57	348.84
671.91	347.47
672.25	346.02
672.58	344.75
672.92	343.38
673.26	342.12
673.60	340.95
673.94	339.75
674.28	338.61
674.62	337.38
674.96	336.00
675.30	334.80
675.64	333.51
675.97	332.23
676.31	330.97
676.65	329.80
676.99	328.82
677.33	327.62
677.67	326.51
678.01	325.11
678.34	324.08
678.68	323.11
679.02	322.05
679.36	321.09
679.70	320.06
680.04	319.01
680.37	317.96
680.71	316.99
681.05	316.14
681.39	315.22
681.73	314.21
682.06	313.32
682.40	312.49
682.74	311.60
683.08	310.86
683.42	309.98
683.75	309.31
684.09	308.37
684.43	307.58
684.77	306.71
685.10	305.96
685.44	305.10
685.78	304.25
686.12	303.50
686.45	302.70
686.79	301.79
687.13	301.14
687.46	300.32
687.80	299.68
688.14	298.72
688.48	297.96
688.81	297.19
689.15	296.61
689.49	295.80
689.82	295.14
690.16	294.13
690.50	293.43
690.83	292.62
691.17	291.85
691.51	291.19
691.84	290.59
692.18	289.90
692.52	289.20
692.85	288.58
693.19	288.09
693.52	287.43
693.86	286.75
694.20	286.12
694.53	285.66
694.87	284.97
695.21	284.43
695.54	283.84
695.88	283.25
696.21	282.46
696.55	281.91
696.88	281.28
697.22	280.80
697.56	280.28
697.89	279.54
698.23	279.04
698.56	278.51
698.90	277.99
699.23	277.49
699.57	277.05
699.90	276.48
700.24	275.85
700.58	275.40
700.91	275.00
701.25	274.87
701.58	274.76
701.92	274.37
702.25	273.94
702.59	273.58
702.92	273.18
703.26	272.76
703.59	272.30
703.93	272.32
704.26	271.94
704.60	271.50
704.93	271.20
705.26	270.68
705.60	270.24
705.93	269.75
706.27	269.41
706.60	269.18
706.94	269.00
707.27	268.55
707.61	268.25
707.94	267.89
708.27	267.18
708.61	266.38
708.94	266.00
709.28	265.59
709.61	264.98
709.94	264.66
710.28	264.36
710.61	264.10
710.95	263.26
711.28	263.21
711.61	262.85
711.95	262.63
712.28	262.19
712.61	261.92
712.95	261.86
713.28	261.71
713.61	261.23
713.95	260.68
714.28	260.42
714.61	259.89
714.95	259.49
715.28	259.07
715.61	258.74
715.95	258.39
716.28	258.00
716.61	257.87
716.95	257.51
717.28	257.13
717.61	256.72
717.94	256.53
718.28	255.92
718.61	255.62
718.94	255.17
719.27	255.02
719.61	254.74
719.94	254.34
720.27	253.84
720.60	253.54
720.94	253.31
721.27	253.12
721.60	253.14
721.93	252.89
722.27	252.83
722.60	252.70
722.93	252.44
723.26	252.22
723.59	251.92
723.93	251.71
724.26	251.59
724.59	251.42
724.92	251.16
725.25	251.09
725.59	250.87
725.92	250.80
726.25	250.62
726.58	250.40
726.91	250.13
727.24	249.98
727.57	249.82
727.91	249.59
728.24	249.44
728.57	249.06
728.90	248.91
729.23	248.63
729.56	248.72
729.89	248.48
730.22	248.29
730.55	248.08
730.89	247.94
731.22	247.68
731.55	247.49
731.88	247.30
732.21	247.06
732.54	246.81
732.87	246.53
733.20	246.36
733.53	246.24
733.86	246.14
734.19	245.95
734.52	245.87
734.85	246.02
735.18	245.71
735.51	245.70
735.84	245.62
736.17	245.55
736.50	245.05
736.83	245.56
737.16	245.45
737.49	245.40
737.82	245.14
738.15	245.11
738.48	244.94
738.81	244.74
739.14	244.62
739.47	244.49
739.80	244.44
740.13	244.37
740.46	244.11
740.79	243.92
741.12	243.75
741.45	243.51
741.78	243.11
742.11	243.15
742.44	243.03
742.77	242.95
743.10	242.76
743.43	242.62
743.75	241.90
744.08	242.46
744.41	242.27
744.74	242.14
745.07	241.86
745.40	241.83
745.73	241.92
746.06	241.77
746.39	241.74
746.71	241.60
747.04	241.39
747.37	241.29
747.70	241.21
748.03	241.11
748.36	241.10
748.68	241.04
749.01	240.75
749.34	240.58
749.67	240.40
750.00	240.31
750.33	240.60
750.65	240.57
750.98	239.77
751.31	239.65
751.64	239.61
751.97	239.82
752.29	239.66
752.62	239.40
752.95	239.27
753.28	239.06
753.60	238.91
753.93	238.94
754.26	238.88
754.59	238.61
754.91	238.46
755.24	238.23
755.57	238.09
755.90	238.04
756.22	237.84
756.55	237.64
756.88	237.44
757.20	237.00
757.53	236.69
757.86	236.61
758.19	236.53
758.51	236.47
758.84	236.15
759.17	236.01
759.49	235.89
759.82	236.01
760.15	235.98
760.47	235.86
760.80	235.61
761.13	235.53
761.45	235.47
761.78	235.40
762.11	235.33
762.43	235.18
762.76	235.04
763.08	235.02
763.41	235.00
763.74	234.94
764.06	234.81
764.39	234.84
764.71	234.70
765.04	234.55
765.37	234.29
765.69	234.17
766.02	234.09
766.34	234.03
766.67	233.75
767.00	233.72
767.32	233.90
767.65	234.10
767.97	233.99
768.30	233.83
768.62	233.75
768.95	233.66
769.27	233.55
769.60	233.56
769.92	233.41
770.25	233.25
770.57	233.09
770.90	232.98
771.22	232.86
771.55	232.80
771.87	232.72
772.20	232.71
772.52	233.03
772.85	233.55
773.17	233.47
773.50	233.30
773.82	233.23
774.15	232.96
774.47	232.58
774.80	232.49
775.12	232.49
775.45	232.43
775.77	232.34
776.09	232.34
776.42	232.25
776.74	232.27
777.07	232.17
777.39	232.21
777.72	232.14
778.04	232.16
778.36	232.20
778.69	232.15
779.01	232.21
779.33	231.80
779.66	231.20
779.98	231.07
780.31	231.14
780.63	231.22
780.95	231.25
781.28	231.30
781.60	231.32
781.92	231.29
782.25	231.21
782.57	231.22
782.89	231.12
783.22	231.10
783.54	231.07
783.86	231.12
784.19	231.05
784.51	231.13
784.83	231.00
785.16	230.88
785.48	230.89
785.80	230.81
786.12	230.77
786.45	230.66
786.77	230.72
787.09	230.64
787.42	230.45
787.74	230.41
788.06	230.35
788.38	230.29
788.71	230.29
789.03	230.30
789.35	230.33
789.67	230.26
789.99	230.28
790.32	230.27
790.64	230.27
790.96	230.64
791.28	230.48
791.61	230.43
791.93	230.44
792.25	230.40
792.57	230.71
792.89	230.62
793.21	230.81
793.54	230.68
793.86	230.63
794.18	230.62
794.50	230.50
794.82	230.43
795.14	230.40
795.47	230.43
795.79	230.37
796.11	230.30
796.43	230.31
796.75	230.27
797.07	230.16
797.39	230.12
797.71	229.75
798.04	229.86
798.36	229.87
798.68	229.86
799.00	229.90
799.32	229.58
799.64	229.67
799.96	229.44
800.28	229.59
800.60	229.51
800.92	229.56
801.24	229.51
801.56	229.62
801.89	229.64
802.21	229.63
802.53	229.57
802.85	229.58
803.17	229.78
803.49	229.62
803.81	229.53
804.13	229.45
804.45	229.39
804.77	229.42
805.09	229.38
805.41	229.33
805.73	229.25
806.05	229.22
806.37	229.19
806.69	229.21
807.01	229.11
807.33	229.13
807.65	228.94
807.97	229.15
808.28	228.97
808.60	228.92
808.92	228.80
809.24	229.09
809.56	229.08
809.88	228.84
810.20	228.92
810.52	229.10
810.84	229.04
811.16	229.00
811.48	228.94
811.80	229.12
812.12	229.08
812.43	229.11
812.75	229.07
813.07	228.96
813.39	228.93
813.71	228.86
814.03	228.87
814.35	228.84
814.67	228.65
814.98	228.63
815.30	228.65
815.62	228.58
815.94	228.22
816.26	228.35
816.58	228.32
816.89	228.28
817.21	228.11
817.53	228.16
817.85	228.10
818.17	228.02
818.48	227.78
818.80	227.90
819.12	227.76
819.44	227.65
819.76	227.61
820.07	227.63
820.39	227.61
820.71	227.61
821.03	227.62
821.34	227.56
821.66	227.59
821.98	227.56
822.30	227.54
822.61	227.88
822.93	227.65
823.25	227.62
823.57	227.52
823.88	227.64
824.20	227.60
824.52	227.72
824.83	227.70
825.15	227.72
825.47	227.67
825.79	227.82
826.10	227.80
826.42	227.73
826.74	227.75
827.05	227.77
827.37	227.81
827.69	227.75
828.00	227.78
828.32	227.83
828.64	227.77
828.95	228.10
829.27	227.92
829.58	227.94
829.90	228.02
830.22	228.14
830.53	228.05
830.85	227.99
831.17	227.90
831.48	227.94
831.80	227.93
832.11	227.89
832.43	227.73
832.75	227.80
833.06	228.09
833.38	228.00
833.69	228.01
834.01	227.98
834.32	228.03
834.64	227.97
834.96	227.93
835.27	227.97
835.59	227.79
835.90	227.72
836.22	227.65
836.53	227.57
836.85	227.51
837.16	227.98
837.48	228.07
837.79	228.14
838.11	228.11
838.42	228.07
838.74	228.10
839.05	228.10
839.37	228.10
839.68	227.80
840.00	227.80
840.31	227.85
840.63	227.82
840.94	227.84
841.26	227.81
841.57	227.85
841.88	227.90
842.20	227.84
842.51	227.84
842.83	227.93
843.14	228.36
843.46	228.41
843.77	228.11
844.08	228.03
844.40	227.95
844.71	227.90
845.03	227.90
845.34	227.85
845.65	227.87
845.97	227.83
846.28	227.89
846.60	227.89
846.91	227.84
847.22	227.86
847.54	227.92
847.85	227.96
848.16	227.90
848.48	227.77
848.79	227.99
849.10	227.94
849.42	227.91
849.73	227.43
850.04	227.40
850.36	227.31
850.67	227.33
850.98	227.33
851.30	227.42
851.61	227.40
851.92	227.45
852.23	227.62
852.55	227.72
852.86	227.75
853.17	227.82
853.49	227.93
853.80	227.97
854.11	227.96
854.42	228.05
854.74	227.96
855.05	228.00
855.36	227.70
855.67	227.71
855.99	227.72
856.30	228.32
856.61	228.26
856.92	228.25
857.23	228.31
857.55	228.30
857.86	228.17
858.17	228.27
858.48	228.20
858.79	228.07
859.11	228.00
859.42	227.92
859.73	227.80
860.04	227.74
860.35	227.58
860.66	227.47
860.98	227.34
861.29	227.45
861.60	227.41
861.91	227.48
862.22	227.40
862.53	227.32
862.84	226.66
863.16	226.76
863.47	226.60
863.78	226.56
864.09	226.50
864.40	226.64
864.71	226.62
865.02	226.68
865.33	226.58
865.64	226.59
865.95	226.58
866.27	226.95
866.58	226.88
866.89	226.96
867.20	226.95
867.51	227.00
867.82	226.98
868.13	227.06
868.44	226.97
868.75	227.06
869.06	227.01
869.37	227.10
869.68	227.00
869.99	227.08
870.30	227.08
870.61	227.15
870.92	227.08
871.23	227.05
871.54	227.06
871.85	227.16
872.16	227.16
872.47	227.12
872.78	226.74
873.09	226.69
873.40	226.64
873.71	226.70
874.02	226.68
874.33	226.61
874.64	226.55
874.95	226.62
875.26	226.54
875.56	226.59
875.87	226.63
876.18	226.62
876.49	227.07
876.80	227.09
877.11	227.00
877.42	226.95
877.73	227.03
878.04	226.93
878.35	226.95
878.66	227.00
878.96	227.00
879.27	227.04
879.58	227.11
879.89	227.12
880.20	227.22
880.51	227.17
880.82	227.22
881.12	227.26
881.43	227.20
881.74	227.19
882.05	227.19
882.36	227.15
882.67	227.21
882.97	226.75
883.28	226.71
883.59	226.72
883.90	226.83
884.21	226.85
884.51	226.84
884.82	226.77
885.13	226.81
885.44	226.91
885.74	226.91
886.05	226.90
886.36	226.92
886.67	226.74
886.98	227.01
887.28	227.00
887.59	227.02
887.90	227.12
888.20	227.03
888.51	227.17
888.82	227.16
889.13	227.13
889.43	227.51
889.74	227.44
890.05	227.41
890.35	227.31
890.66	227.20
890.97	227.13
891.28	227.07
891.58	227.02
891.89	226.95
892.20	226.85
892.50	226.77
892.81	226.67
893.12	226.62
893.42	226.35
893.73	226.41
894.04	226.35
894.34	226.35
894.65	226.38
894.95	226.28
895.26	226.26
895.57	226.48
895.87	225.97
896.18	226.09
896.48	226.13
896.79	226.09
897.10	226.11
897.40	226.12
897.71	226.08
898.01	226.00
898.32	226.03
898.63	226.02
898.93	226.01
899.24	226.01
899.54	226.02
899.85	226.06
900.15	225.95
900.46	225.96
900.76	225.90
901.07	225.85
901.38	225.78
901.68	225.91
901.99	225.65
902.29	225.70
902.60	225.60
902.90	225.54
903.21	225.60
903.51	225.60
903.82	225.75
904.12	225.85
904.43	225.87
904.73	225.78
905.03	225.90
905.34	226.45
905.64	226.49
905.95	226.54
906.25	226.49
906.56	226.50
906.86	226.53
907.17	226.52
907.47	226.60
907.77	226.52
908.08	226.39
908.38	226.50
908.69	226.57
908.99	226.67
909.30	226.71
909.60	226.70
909.90	226.67
910.21	226.56
910.51	226.45
910.81	226.50
911.12	226.59
911.42	226.54
911.73	225.95
912.03	225.96
912.33	226.07
912.64	226.07
912.94	226.06
913.24	226.00
913.55	225.94
913.85	225.91
914.15	226.16
914.46	226.21
914.76	226.11
915.06	226.09
915.37	226.08
915.67	226.06
915.97	226.11
916.27	226.05
916.58	226.10
916.88	226.15
917.18	226.10
917.49	226.49
917.79	226.46
918.09	226.59
918.39	226.73
918.70	226.65
919.00	226.69
919.30	227.01
919.60	227.05
919.91	227.05
920.21	227.04
920.51	226.86
920.81	226.89
921.12	227.00
921.42	226.96
921.72	226.91
922.02	226.96
922.32	227.02
922.63	227.10
922.93	227.34
923.23	227.35
923.53	227.35
923.83	227.03
924.13	227.13
924.44	227.14
924.74	227.25
925.04	227.37
925.34	227.32
925.64	227.01
925.94	226.94
926.24	227.26
926.55	227.34
926.85	227.50
927.15	227.48
927.45	227.55
927.75	227.57
928.05	227.65
928.35	227.60
928.65	227.69
928.95	227.69
929.26	227.48
929.56	227.57
929.86	227.59
930.16	227.52
930.46	227.51
930.76	227.45
931.06	227.23
931.36	227.10
931.66	227.21
931.96	227.31
932.26	227.35
932.56	227.09
932.86	227.05
933.16	226.99
933.46	226.92
933.76	226.76
934.06	226.85
934.36	226.99
934.66	226.96
934.96	226.88
935.26	226.88
935.56	226.90
935.86	226.79
936.16	226.75
936.46	226.70
936.76	226.59
937.06	226.56
937.36	226.58
937.66	226.61
937.96	226.50
938.26	226.35
938.56	226.30
938.86	226.32
939.16	226.42
939.46	226.41
939.76	226.50
940.06	226.53
940.35	226.45
940.65	226.20
940.95	226.24
941.25	226.14
941.55	226.06
941.85	226.05
942.15	226.12
942.45	226.22
942.75	226.25
943.04	226.29
943.34	226.39
943.64	226.34
943.94	226.23
944.24	226.26
944.54	226.28
944.84	226.31
945.13	226.29
945.43	226.23
945.73	226.25
946.03	226.15
946.33	226.09
946.62	226.06
946.92	225.99
947.22	226.06
947.52	226.04
947.82	226.18
948.11	226.14
948.41	226.08
948.71	225.97
949.01	226.04
949.31	226.08
949.60	226.04
949.90	226.12
950.20	226.13
950.50	226.18
950.79	226.22
951.09	226.30
951.39	226.31
951.69	226.23
951.98	226.33
952.28	226.38
952.58	226.40
952.87	226.40
953.17	226.51
953.47	226.45
953.76	226.53
954.06	226.45
954.36	226.38
954.66	226.35
954.95	226.53
955.25	226.56
955.55	226.54
955.84	226.44
956.14	226.45
956.44	226.55
956.73	226.43
957.03	226.45
957.32	226.45
957.62	226.45
957.92	226.60
958.21	226.49
958.51	227.04
958.81	227.09
959.10	227.18
959.40	227.36
959.69	227.43
959.99	227.45
960.29	227.45
960.58	227.49
960.88	227.73
961.17	227.64
961.47	227.65
961.76	227.71
962.06	227.82
962.36	227.77
962.65	227.76
962.95	227.81
963.24	227.77
963.54	227.80
963.83	227.82
964.13	227.77
964.42	227.74
964.72	227.32
965.01	227.33
965.31	227.26
965.60	227.10
965.90	227.37
966.19	227.24
966.49	227.25
966.78	227.14
967.08	227.08
967.37	227.06
967.67	226.97
967.96	227.02
968.26	227.07
968.55	227.12
968.85	227.16
969.14	227.20
969.43	227.23
969.73	227.14
970.02	227.14
970.32	227.14
970.61	227.16
970.91	227.06
971.20	226.95
971.49	226.90
971.79	226.91
972.08	226.51
972.38	226.54
972.67	226.46
972.96	226.63
973.26	226.46
973.55	226.63
973.85	226.61
974.14	226.53
974.43	226.47
974.73	226.31
975.02	226.23
975.31	226.15
975.61	226.15
975.90	226.14
976.19	226.04
976.49	226.01
976.78	225.98
977.07	225.92
977.37	225.96
977.66	226.02
977.95	225.97
978.24	226.05
978.54	226.17
978.83	226.13
979.12	225.98
979.42	226.04
979.71	225.87
980.00	225.82
980.29	225.81
980.59	225.73
980.88	225.94
981.17	225.86
981.46	225.89
981.76	225.88
982.05	225.99
982.34	226.04
982.63	226.06
982.93	225.95
983.22	226.07
983.51	226.12
983.80	226.20
984.09	226.23
984.39	226.12
984.68	226.05
984.97	226.07
985.26	226.10
985.55	226.00
985.85	225.90
986.14	225.98
986.43	226.02
986.72	225.98
987.01	225.78
987.30	225.81
987.59	225.78
987.89	225.75
988.18	225.61
988.47	225.54
988.76	225.42
989.05	225.49
989.34	225.40
989.63	225.50
989.92	225.38
990.22	225.31
990.51	225.40
990.80	225.38
991.09	225.47
991.38	225.58
991.67	225.66
991.96	225.62
992.25	225.66
992.54	225.55
992.83	225.64
993.12	225.75
993.41	225.81
993.70	226.00
993.99	226.16
994.28	226.21
994.58	226.29
994.87	226.34
995.16	226.37
995.45	226.43
995.74	226.25
996.03	226.31
996.32	226.46
996.61	226.49
996.90	226.52
997.19	226.50
997.48	226.47
997.77	226.45
998.06	226.53
998.34	226.46
998.63	226.50
998.92	226.41
999.21	226.47
999.50	226.47
999.79	226.33
1000.08	226.22
1000.37	226.17
1000.66	226.10
1000.95	226.32
1001.24	226.33
1001.53	226.34
1001.82	226.36
1002.11	226.30
1002.40	226.32
1002.68	226.50
1002.97	226.80
1003.26	226.78
1003.55	226.68
1003.84	226.69
1004.13	226.83
1004.42	226.83
1004.71	226.85
1004.99	226.93
1005.28	227.03
1005.57	227.03
1005.86	227.06
1006.15	227.04
1006.44	227.10
1006.72	227.22
1007.01	227.05
1007.30	227.08
1007.59	227.04
1007.88	227.07
1008.17	227.05
1008.45	226.93
1008.74	226.75
1009.03	226.55
1009.32	226.58
1009.60	226.62
1009.89	226.58
1010.18	226.45
1010.47	226.38
1010.76	226.45
1011.04	226.45
1011.33	226.43
1011.62	226.45
1011.91	226.46
1012.19	226.55
1012.48	226.49
1012.77	226.44
1013.05	226.60
1013.34	226.50
1013.63	226.44
1013.92	226.45
1014.20	226.45
1014.49	226.50
1014.78	226.49
1015.06	226.32
1015.35	226.31
1015.64	226.38
1015.92	226.45
1016.21	226.40
1016.50	226.45
1016.78	226.42
1017.07	226.42
1017.36	226.29
1017.64	226.16
1017.93	226.15
1018.22	226.08
1018.50	226.15
1018.79	226.20
1019.08	226.00
1019.36	226.08
1019.65	226.10
1019.93	226.17
1020.22	226.24
1020.51	226.47
1020.79	226.44
1021.08	225.75
1021.36	226.95
1021.65	226.90
1021.94	225.90
1022.22	226.45
1022.51	225.60
1022.79	227.55
1023.08	227.20
1023.36	232.05
1023.65	225.35
>>>>>End Processed Spectral Data<<<<<
