SpectraSuite Data File
++++++++++++++++++++++++++++++++++++
Date: Wed Sep 04 18:04:28 EDT 2013
User: lab3
Dark Spectrum Present: Yes
Reference Spectrum Present: No
Number of Sampled Component Spectra: 1
Spectrometers: USB2E7196
Integration Time (usec): 170000 (USB2E7196)
Spectra Averaged: 20 (USB2E7196)
Boxcar Smoothing: 10 (USB2E7196)
Correct for Electrical Dark: No (USB2E7196)
Strobe/Lamp Enabled: No (USB2E7196)
Correct for Detector Non-linearity: No (USB2E7196)
Correct for Stray Light: No (USB2E7196)
Number of Pixels in Processed Spectrum: 2048
>>>>>Begin Processed Spectral Data<<<<<
339.09	0.00
339.48	213.80
339.86	215.25
340.24	214.65
340.63	218.30
341.01	226.50
341.39	220.65
341.78	222.95
342.16	225.55
342.54	224.30
342.93	212.79
343.31	223.51
343.69	224.01
344.07	224.45
344.46	225.06
344.84	225.46
345.22	225.45
345.60	225.72
345.99	225.90
346.37	225.99
346.75	226.08
347.13	226.15
347.52	226.36
347.90	226.56
348.28	226.52
348.66	226.70
349.05	226.61
349.43	226.70
349.81	226.72
350.19	226.71
350.57	226.75
350.96	226.86
351.34	227.04
351.72	227.18
352.10	227.23
352.48	227.18
352.87	227.17
353.25	227.24
353.63	227.27
354.01	227.29
354.39	227.38
354.77	227.43
355.15	227.64
355.54	227.61
355.92	227.53
356.30	227.66
356.68	228.04
357.06	228.09
357.44	228.15
357.82	228.32
358.20	228.80
358.58	228.77
358.97	228.93
359.35	229.07
359.73	229.18
360.11	229.27
360.49	229.31
360.87	229.39
361.25	229.44
361.63	229.67
362.01	229.78
362.39	229.79
362.77	229.87
363.15	229.86
363.53	229.84
363.91	229.93
364.29	229.94
364.67	229.46
365.05	229.49
365.43	229.56
365.81	229.60
366.19	229.53
366.57	229.85
366.95	229.77
367.33	229.60
367.71	229.63
368.09	229.81
368.47	229.90
368.85	229.87
369.23	229.97
369.61	229.75
369.99	229.85
370.37	229.86
370.75	230.08
371.13	230.01
371.51	229.99
371.89	229.95
372.27	230.01
372.65	230.03
373.03	229.99
373.41	229.90
373.78	229.80
374.16	229.42
374.54	229.19
374.92	229.18
375.30	229.19
375.68	229.03
376.06	228.94
376.44	228.87
376.82	228.92
377.19	228.85
377.57	228.78
377.95	228.53
378.33	228.44
378.71	228.08
379.09	228.11
379.47	228.10
379.84	228.02
380.22	227.86
380.60	227.77
380.98	227.75
381.36	227.72
381.73	227.61
382.11	227.67
382.49	227.64
382.87	227.47
383.25	227.30
383.62	227.84
384.00	227.71
384.38	227.64
384.76	227.65
385.13	227.77
385.51	227.78
385.89	227.71
386.27	227.69
386.64	227.75
387.02	227.56
387.40	227.46
387.78	227.45
388.15	227.46
388.53	227.32
388.91	227.27
389.29	227.12
389.66	227.19
390.04	227.13
390.42	227.17
390.79	227.18
391.17	227.24
391.55	226.69
391.92	226.66
392.30	226.64
392.68	226.55
393.05	226.52
393.43	226.53
393.81	226.61
394.18	226.55
394.56	226.51
394.94	226.80
395.31	226.81
395.69	226.93
396.06	227.00
396.44	227.10
396.82	227.15
397.19	227.49
397.57	227.48
397.95	227.59
398.32	227.50
398.70	227.67
399.07	227.79
399.45	227.88
399.82	227.94
400.20	228.01
400.58	228.08
400.95	227.97
401.33	228.17
401.70	228.60
402.08	228.74
402.45	228.89
402.83	229.03
403.20	229.19
403.58	229.33
403.95	229.52
404.33	229.79
404.71	230.05
405.08	230.44
405.46	230.66
405.83	230.91
406.21	231.18
406.58	231.44
406.96	231.71
407.33	232.01
407.70	232.45
408.08	233.24
408.45	233.70
408.83	234.22
409.20	234.61
409.58	234.74
409.95	235.27
410.33	235.81
410.70	236.15
411.08	236.87
411.45	237.42
411.82	238.00
412.20	238.80
412.57	239.68
412.95	240.07
413.32	240.93
413.69	241.80
414.07	242.70
414.44	243.65
414.82	244.70
415.19	245.90
415.56	246.97
415.94	247.94
416.31	249.30
416.68	250.75
417.06	252.38
417.43	254.05
417.81	255.80
418.18	257.62
418.55	259.60
418.93	261.53
419.30	263.70
419.67	265.91
420.04	268.15
420.42	270.58
420.79	273.62
421.16	276.39
421.54	279.47
421.91	282.58
422.28	285.72
422.66	289.07
423.03	292.47
423.40	295.91
423.77	299.48
424.15	303.17
424.52	306.94
424.89	311.13
425.26	315.06
425.64	318.92
426.01	323.17
426.38	327.53
426.75	332.12
427.13	336.65
427.50	341.39
427.87	346.37
428.24	351.27
428.61	355.80
428.99	361.20
429.36	366.65
429.73	372.15
430.10	377.72
430.47	383.49
430.85	389.32
431.22	395.57
431.59	402.39
431.96	408.61
432.33	415.55
432.70	422.28
433.08	430.29
433.45	437.85
433.82	445.23
434.19	453.48
434.56	461.58
434.93	469.34
435.30	477.28
435.68	485.96
436.05	494.42
436.42	502.84
436.79	510.55
437.16	518.90
437.53	527.69
437.90	536.43
438.27	544.88
438.64	553.63
439.01	562.10
439.38	569.24
439.75	576.45
440.13	584.50
440.50	591.93
440.87	597.99
441.24	604.35
441.61	611.46
441.98	616.53
442.35	622.37
442.72	628.43
443.09	634.21
443.46	637.49
443.83	639.78
444.20	641.71
444.57	644.34
444.94	645.56
445.31	646.67
445.68	647.99
446.05	648.22
446.42	647.09
446.79	645.70
447.16	644.23
447.53	642.97
447.90	639.26
448.27	635.78
448.64	630.92
449.01	627.23
449.37	620.96
449.74	614.94
450.11	607.99
450.48	600.28
450.85	592.19
451.22	585.30
451.59	578.64
451.96	572.30
452.33	564.22
452.70	556.76
453.07	547.98
453.43	538.78
453.80	530.49
454.17	522.35
454.54	514.42
454.91	506.07
455.28	498.05
455.65	490.65
456.02	483.61
456.38	477.23
456.75	469.33
457.12	462.67
457.49	456.29
457.86	449.96
458.23	444.66
458.59	438.95
458.96	433.14
459.33	428.08
459.70	423.07
460.07	418.98
460.43	414.11
460.80	409.86
461.17	406.10
461.54	401.94
461.91	398.09
462.27	394.13
462.64	390.94
463.01	387.36
463.38	384.03
463.74	380.04
464.11	377.01
464.48	374.46
464.85	371.68
465.21	369.63
465.58	367.24
465.95	364.50
466.32	362.39
466.68	360.16
467.05	357.92
467.42	355.68
467.78	353.38
468.15	351.36
468.52	349.82
468.88	347.60
469.25	345.70
469.62	344.26
469.98	342.76
470.35	341.11
470.72	339.59
471.08	337.81
471.45	336.56
471.82	335.25
472.18	333.69
472.55	332.64
472.92	331.27
473.28	330.24
473.65	329.09
474.02	327.85
474.38	327.00
474.75	326.21
475.11	325.28
475.48	324.55
475.85	323.92
476.21	323.29
476.58	322.90
476.94	322.58
477.31	322.04
477.67	321.63
478.04	321.45
478.41	321.28
478.77	321.63
479.14	321.38
479.50	321.26
479.87	321.34
480.23	321.34
480.60	321.33
480.96	321.34
481.33	321.76
481.69	322.01
482.06	322.28
482.42	322.44
482.79	322.84
483.15	323.32
483.52	323.88
483.88	324.31
484.25	324.78
484.61	325.32
484.98	325.99
485.34	326.86
485.71	327.71
486.07	328.69
486.44	329.26
486.80	330.35
487.17	331.49
487.53	332.92
487.90	334.50
488.26	336.13
488.62	337.87
488.99	339.25
489.35	341.00
489.72	342.81
490.08	344.82
490.44	346.74
490.81	349.04
491.17	351.27
491.54	353.71
491.90	356.34
492.26	359.03
492.63	361.87
492.99	364.69
493.36	367.71
493.72	371.00
494.08	374.43
494.45	378.17
494.81	382.12
495.17	385.91
495.54	389.85
495.90	394.02
496.26	398.31
496.63	402.92
496.99	407.72
497.35	412.81
497.72	418.19
498.08	423.77
498.44	429.44
498.80	435.54
499.17	441.56
499.53	447.82
499.89	454.54
500.26	461.31
500.62	468.35
500.98	475.87
501.34	483.20
501.71	490.89
502.07	498.57
502.43	506.61
502.79	515.11
503.16	523.86
503.52	533.02
503.88	542.33
504.24	552.18
504.60	562.17
504.97	572.53
505.33	582.85
505.69	594.07
506.05	605.06
506.41	616.21
506.78	627.93
507.14	640.03
507.50	652.34
507.86	665.10
508.22	678.10
508.59	691.09
508.95	704.99
509.31	719.11
509.67	733.43
510.03	747.82
510.39	762.51
510.75	777.59
511.12	792.86
511.48	808.53
511.84	824.39
512.20	840.37
512.56	856.69
512.92	873.49
513.28	890.29
513.64	907.59
514.00	925.33
514.37	943.17
514.73	961.52
515.09	979.88
515.45	998.28
515.81	1016.89
516.17	1035.50
516.53	1054.11
516.89	1073.09
517.25	1092.77
517.61	1113.25
517.97	1133.58
518.33	1154.02
518.69	1174.41
519.05	1195.08
519.41	1215.73
519.77	1236.91
520.13	1257.94
520.49	1278.87
520.85	1301.12
521.21	1322.55
521.57	1343.83
521.93	1364.74
522.29	1386.02
522.65	1406.67
523.01	1427.49
523.37	1448.18
523.73	1469.78
524.09	1490.65
524.45	1511.42
524.81	1532.40
525.17	1552.81
525.53	1573.55
525.89	1594.11
526.25	1615.05
526.61	1635.71
526.97	1656.89
527.33	1678.18
527.68	1699.81
528.04	1721.22
528.40	1741.01
528.76	1761.88
529.12	1782.40
529.48	1803.32
529.84	1823.36
530.20	1844.83
530.56	1866.06
530.91	1887.08
531.27	1907.39
531.63	1927.99
531.99	1948.82
532.35	1968.69
532.71	1989.21
533.07	2009.91
533.42	2029.91
533.78	2050.04
534.14	2069.93
534.50	2089.05
534.86	2108.40
535.21	2126.15
535.57	2144.90
535.93	2162.79
536.29	2180.74
536.65	2198.96
537.00	2216.80
537.36	2234.44
537.72	2250.94
538.08	2267.99
538.44	2284.77
538.79	2301.32
539.15	2318.04
539.51	2334.15
539.87	2349.59
540.22	2363.69
540.58	2377.94
540.94	2391.84
541.29	2404.42
541.65	2417.17
542.01	2430.00
542.37	2440.60
542.72	2451.62
543.08	2462.46
543.44	2474.29
543.79	2484.46
544.15	2494.32
544.51	2504.65
544.87	2514.64
545.22	2523.50
545.58	2531.49
545.94	2539.10
546.29	2545.99
546.65	2552.26
547.01	2557.63
547.36	2563.30
547.72	2568.98
548.07	2573.30
548.43	2578.38
548.79	2583.28
549.14	2587.45
549.50	2591.01
549.86	2595.34
550.21	2599.28
550.57	2602.54
550.92	2604.11
551.28	2605.66
551.64	2608.20
551.99	2610.26
552.35	2611.79
552.70	2614.06
553.06	2615.80
553.41	2616.76
553.77	2618.47
554.13	2620.20
554.48	2622.24
554.84	2624.03
555.19	2625.61
555.55	2627.39
555.90	2626.70
556.26	2626.02
556.61	2624.63
556.97	2622.95
557.32	2622.38
557.68	2621.63
558.03	2620.15
558.39	2618.77
558.74	2617.95
559.10	2614.99
559.45	2611.29
559.81	2607.01
560.16	2602.17
560.52	2597.68
560.87	2593.64
561.23	2588.28
561.58	2582.42
561.94	2575.47
562.29	2568.22
562.64	2560.95
563.00	2552.40
563.35	2546.11
563.71	2539.40
564.06	2533.33
564.42	2526.85
564.77	2520.04
565.12	2512.23
565.48	2504.35
565.83	2496.49
566.19	2488.53
566.54	2480.95
566.89	2472.80
567.25	2465.37
567.60	2457.97
567.96	2450.33
568.31	2442.21
568.66	2433.43
569.02	2424.52
569.37	2416.68
569.72	2408.88
570.08	2399.24
570.43	2389.97
570.78	2380.89
571.14	2371.41
571.49	2361.21
571.84	2351.77
572.20	2340.78
572.55	2330.66
572.90	2319.89
573.26	2309.89
573.61	2298.66
573.96	2287.22
574.31	2275.15
574.67	2263.19
575.02	2250.40
575.37	2237.60
575.72	2224.36
576.08	2212.46
576.43	2199.86
576.78	2186.19
577.13	2172.43
577.49	2159.96
577.84	2147.96
578.19	2135.64
578.54	2123.00
578.90	2110.69
579.25	2098.25
579.60	2085.68
579.95	2072.73
580.30	2059.72
580.66	2046.03
581.01	2032.40
581.36	2018.56
581.71	2006.25
582.06	1992.85
582.42	1980.32
582.77	1967.47
583.12	1955.60
583.47	1943.16
583.82	1931.19
584.17	1919.41
584.53	1907.45
584.88	1894.80
585.23	1882.06
585.58	1867.85
585.93	1854.65
586.28	1841.33
586.63	1826.80
586.98	1812.59
587.34	1799.35
587.69	1785.93
588.04	1772.99
588.39	1761.00
588.74	1748.51
589.09	1735.94
589.44	1723.19
589.79	1710.76
590.14	1698.70
590.49	1686.31
590.84	1673.88
591.19	1661.56
591.54	1649.00
591.89	1636.52
592.25	1625.80
592.60	1614.04
592.95	1602.79
593.30	1590.54
593.65	1578.58
594.00	1566.61
594.35	1556.73
594.70	1544.84
595.05	1533.52
595.40	1521.35
595.75	1509.04
596.10	1497.95
596.45	1486.30
596.80	1475.51
597.15	1463.91
597.50	1452.01
597.85	1440.46
598.19	1428.86
598.54	1417.08
598.89	1405.76
599.24	1395.23
599.59	1383.31
599.94	1372.21
600.29	1361.27
600.64	1351.13
600.99	1339.99
601.34	1330.67
601.69	1319.22
602.04	1309.02
602.39	1299.25
602.74	1290.11
603.08	1280.76
603.43	1271.00
603.78	1261.20
604.13	1251.32
604.48	1241.56
604.83	1231.77
605.18	1222.00
605.53	1212.51
605.87	1203.37
606.22	1194.82
606.57	1185.30
606.92	1176.15
607.27	1167.12
607.62	1158.48
607.96	1149.61
608.31	1141.82
608.66	1133.27
609.01	1124.56
609.36	1116.02
609.70	1107.10
610.05	1098.55
610.40	1090.04
610.75	1081.36
611.10	1072.95
611.44	1064.37
611.79	1056.43
612.14	1048.45
612.49	1040.30
612.83	1032.55
613.18	1024.79
613.53	1016.82
613.88	1008.81
614.22	1000.95
614.57	992.94
614.92	985.01
615.27	977.43
615.61	969.51
615.96	961.65
616.31	954.33
616.65	947.30
617.00	940.03
617.35	932.43
617.70	925.28
618.04	918.15
618.39	911.24
618.74	904.79
619.08	897.52
619.43	890.43
619.78	883.56
620.12	876.40
620.47	869.42
620.82	862.12
621.16	855.37
621.51	849.05
621.85	842.74
622.20	835.81
622.55	829.08
622.89	822.72
623.24	816.34
623.59	809.63
623.93	803.28
624.28	797.00
624.62	791.26
624.97	785.33
625.32	779.41
625.66	773.23
626.01	766.85
626.35	761.38
626.70	755.92
627.04	750.75
627.39	745.17
627.73	739.72
628.08	734.53
628.43	728.94
628.77	723.30
629.12	717.89
629.46	713.27
629.81	708.42
630.15	703.48
630.50	698.50
630.84	693.65
631.19	688.66
631.53	684.04
631.88	678.84
632.22	673.91
632.57	669.41
632.91	664.80
633.26	660.46
633.60	655.72
633.95	650.95
634.29	645.90
634.64	641.40
634.98	636.47
635.32	632.04
635.67	628.05
636.01	623.98
636.36	619.48
636.70	615.34
637.05	611.06
637.39	606.87
637.73	602.66
638.08	598.69
638.42	594.36
638.77	590.00
639.11	585.62
639.45	581.18
639.80	576.63
640.14	572.50
640.49	568.35
640.83	564.41
641.17	560.66
641.52	556.96
641.86	553.30
642.20	550.22
642.55	546.46
642.89	542.74
643.23	539.03
643.58	535.96
643.92	532.14
644.26	528.84
644.61	525.52
644.95	522.15
645.29	518.75
645.64	515.61
645.98	512.48
646.32	509.58
646.66	506.49
647.01	503.60
647.35	500.87
647.69	497.95
648.04	495.17
648.38	492.31
648.72	489.38
649.06	486.27
649.41	483.12
649.75	480.12
650.09	477.35
650.43	474.45
650.78	471.46
651.12	468.80
651.46	465.96
651.80	463.28
652.14	460.58
652.49	458.13
652.83	455.65
653.17	452.99
653.51	450.29
653.85	447.87
654.20	445.32
654.54	442.59
654.88	440.13
655.22	437.88
655.56	435.39
655.90	433.05
656.25	430.82
656.59	428.52
656.93	426.44
657.27	424.28
657.61	421.98
657.95	419.78
658.29	417.49
658.64	415.33
658.98	412.90
659.32	410.66
659.66	408.36
660.00	406.08
660.34	404.07
660.68	402.06
661.02	400.05
661.36	398.10
661.70	396.04
662.05	393.97
662.39	391.92
662.73	390.15
663.07	388.48
663.41	386.66
663.75	384.72
664.09	382.83
664.43	380.86
664.77	379.19
665.11	377.31
665.45	375.64
665.79	374.05
666.13	372.43
666.47	370.80
666.81	369.14
667.15	367.43
667.49	365.85
667.83	364.41
668.17	362.96
668.51	361.50
668.85	360.24
669.19	359.13
669.53	357.54
669.87	355.98
670.21	354.33
670.55	352.92
670.89	351.89
671.23	350.56
671.57	349.08
671.91	347.60
672.25	346.32
672.58	345.14
672.92	343.59
673.26	342.27
673.60	340.96
673.94	339.80
674.28	338.69
674.62	337.58
674.96	336.24
675.30	335.04
675.64	333.73
675.97	332.39
676.31	330.97
676.65	329.81
676.99	328.88
677.33	327.64
677.67	326.54
678.01	325.16
678.34	324.04
678.68	323.12
679.02	322.06
679.36	321.06
679.70	320.00
680.04	319.01
680.37	318.22
680.71	317.23
681.05	316.30
681.39	315.40
681.73	314.37
682.06	313.49
682.40	312.55
682.74	311.79
683.08	311.11
683.42	310.23
683.75	309.45
684.09	308.43
684.43	307.60
684.77	306.78
685.10	305.96
685.44	305.17
685.78	304.37
686.12	303.65
686.45	302.84
686.79	302.00
687.13	301.38
687.46	300.46
687.80	299.90
688.14	299.05
688.48	298.19
688.81	297.43
689.15	296.78
689.49	296.06
689.82	295.34
690.16	294.39
690.50	293.69
690.83	292.93
691.17	292.19
691.51	291.63
691.84	290.97
692.18	290.29
692.52	289.58
692.85	288.98
693.19	288.55
693.52	287.94
693.86	287.29
694.20	286.65
694.53	286.06
694.87	285.35
695.21	284.76
695.54	284.24
695.88	283.58
696.21	282.84
696.55	282.25
696.88	281.60
697.22	281.03
697.56	280.50
697.89	279.87
698.23	279.35
698.56	278.82
698.90	278.30
699.23	277.78
699.57	277.33
699.90	276.73
700.24	276.02
700.58	275.56
700.91	275.12
701.25	275.05
701.58	274.96
701.92	274.52
702.25	274.07
702.59	273.58
702.92	273.19
703.26	272.88
703.59	272.42
703.93	272.47
704.26	272.21
704.60	271.84
704.93	271.47
705.26	271.04
705.60	270.73
705.93	270.28
706.27	270.04
706.60	269.75
706.94	269.62
707.27	269.27
707.61	268.82
707.94	268.42
708.27	267.62
708.61	266.89
708.94	266.52
709.28	266.12
709.61	265.77
709.94	265.47
710.28	265.01
710.61	264.61
710.95	263.72
711.28	263.62
711.61	263.25
711.95	263.05
712.28	262.66
712.61	262.23
712.95	262.11
713.28	261.86
713.61	261.43
713.95	260.90
714.28	260.52
714.61	260.24
714.95	259.86
715.28	259.46
715.61	259.11
715.95	258.75
716.28	258.47
716.61	258.17
716.95	257.85
717.28	257.55
717.61	257.27
717.94	257.00
718.28	256.30
718.61	256.00
718.94	255.55
719.27	255.31
719.61	255.11
719.94	254.70
720.27	254.30
720.60	253.93
720.94	253.70
721.27	253.49
721.60	253.29
721.93	253.07
722.27	253.02
722.60	252.82
722.93	252.60
723.26	252.40
723.59	252.11
723.93	251.92
724.26	251.82
724.59	251.56
724.92	251.32
725.25	251.30
725.59	251.11
725.92	250.97
726.25	250.78
726.58	250.58
726.91	250.39
727.24	250.19
727.57	250.03
727.91	249.77
728.24	249.61
728.57	249.28
728.90	249.13
729.23	248.82
729.56	248.89
729.89	248.75
730.22	248.55
730.55	248.43
730.89	248.20
731.22	247.98
731.55	247.86
731.88	247.84
732.21	247.50
732.54	247.26
732.87	247.10
733.20	246.89
733.53	246.68
733.86	246.55
734.19	246.29
734.52	246.29
734.85	246.39
735.18	246.12
735.51	246.22
735.84	246.08
736.17	246.02
736.50	245.58
736.83	245.91
737.16	245.66
737.49	245.46
737.82	245.31
738.15	245.16
738.48	245.01
738.81	244.85
739.14	244.69
739.47	244.43
739.80	244.26
740.13	244.20
740.46	243.92
740.79	243.69
741.12	243.57
741.45	243.29
741.78	242.97
742.11	243.05
742.44	242.80
742.77	242.81
743.10	242.63
743.43	242.50
743.75	241.85
744.08	242.38
744.41	242.22
744.74	242.05
745.07	241.85
745.40	241.78
745.73	241.76
746.06	241.65
746.39	241.74
746.71	241.55
747.04	241.36
747.37	241.32
747.70	241.32
748.03	241.24
748.36	241.17
748.68	240.95
749.01	240.74
749.34	240.67
749.67	240.53
750.00	240.48
750.33	240.74
750.65	240.74
750.98	240.01
751.31	239.90
751.64	239.87
751.97	240.04
752.29	239.92
752.62	239.57
752.95	239.50
753.28	239.22
753.60	239.17
753.93	239.17
754.26	239.14
754.59	238.89
754.91	238.67
755.24	238.54
755.57	238.54
755.90	238.37
756.22	238.20
756.55	237.92
756.88	237.72
757.20	237.27
757.53	237.03
757.86	236.91
758.19	236.91
758.51	236.78
758.84	236.42
759.17	236.31
759.49	236.27
759.82	236.32
760.15	236.37
760.47	236.29
760.80	236.03
761.13	235.94
761.45	235.80
761.78	235.78
762.11	235.67
762.43	235.51
762.76	235.41
763.08	235.29
763.41	235.21
763.74	235.10
764.06	235.02
764.39	234.92
764.71	234.90
765.04	234.69
765.37	234.56
765.69	234.54
766.02	234.45
766.34	234.34
766.67	234.07
767.00	234.03
767.32	234.17
767.65	234.42
767.97	234.33
768.30	234.34
768.62	234.20
768.95	234.10
769.27	234.02
769.60	234.04
769.92	233.92
770.25	233.79
770.57	233.60
770.90	233.52
771.22	233.40
771.55	233.37
771.87	233.33
772.20	233.25
772.52	233.54
772.85	234.08
773.17	234.03
773.50	234.05
773.82	233.89
774.15	233.67
774.47	233.34
774.80	233.37
775.12	233.30
775.45	233.37
775.77	233.35
776.09	233.33
776.42	233.30
776.74	233.38
777.07	233.42
777.39	233.48
777.72	233.40
778.04	233.45
778.36	233.34
778.69	233.37
779.01	233.38
779.33	232.90
779.66	232.28
779.98	232.27
780.31	232.20
780.63	232.39
780.95	232.38
781.28	232.30
781.60	232.08
781.92	232.09
782.25	232.00
782.57	232.02
782.89	231.99
783.22	231.84
783.54	231.78
783.86	231.70
784.19	231.65
784.51	231.75
784.83	231.67
785.16	231.64
785.48	231.55
785.80	231.50
786.12	231.55
786.45	231.49
786.77	231.44
787.09	231.44
787.42	231.24
787.74	231.28
788.06	231.35
788.38	231.36
788.71	231.19
789.03	231.15
789.35	231.12
789.67	230.95
789.99	230.97
790.32	230.86
790.64	230.92
790.96	231.27
791.28	231.14
791.61	231.05
791.93	231.04
792.25	230.98
792.57	231.25
792.89	231.14
793.21	231.18
793.54	231.12
793.86	230.97
794.18	230.95
794.50	230.76
794.82	230.67
795.14	230.72
795.47	230.86
795.79	230.83
796.11	230.65
796.43	230.65
796.75	230.64
797.07	230.55
797.39	230.48
797.71	230.13
798.04	230.08
798.36	230.13
798.68	230.04
799.00	230.13
799.32	229.92
799.64	229.98
799.96	229.92
800.28	230.04
800.60	230.05
800.92	230.07
801.24	230.03
801.56	230.09
801.89	229.99
802.21	229.98
802.53	229.86
802.85	230.02
803.17	230.21
803.49	230.16
803.81	230.23
804.13	230.21
804.45	230.06
804.77	230.13
805.09	230.10
805.41	230.06
805.73	229.96
806.05	229.82
806.37	229.84
806.69	229.75
807.01	229.61
807.33	229.65
807.65	229.47
807.97	229.69
808.28	229.61
808.60	229.62
808.92	229.55
809.24	229.82
809.56	229.73
809.88	229.55
810.20	229.51
810.52	229.58
810.84	229.48
811.16	229.49
811.48	229.46
811.80	229.55
812.12	229.55
812.43	229.60
812.75	229.65
813.07	229.61
813.39	229.63
813.71	229.63
814.03	229.55
814.35	229.61
814.67	229.39
814.98	229.38
815.30	229.31
815.62	229.26
815.94	229.03
816.26	229.22
816.58	229.17
816.89	229.23
817.21	229.07
817.53	229.15
817.85	229.20
818.17	229.12
818.48	228.96
818.80	229.03
819.12	228.96
819.44	228.87
819.76	228.72
820.07	228.71
820.39	228.69
820.71	228.72
821.03	228.70
821.34	228.65
821.66	228.61
821.98	228.70
822.30	228.68
822.61	228.93
822.93	228.64
823.25	228.61
823.57	228.50
823.88	228.57
824.20	228.46
824.52	228.47
824.83	228.44
825.15	228.46
825.47	228.44
825.79	228.52
826.10	228.44
826.42	228.45
826.74	228.50
827.05	228.44
827.37	228.46
827.69	228.40
828.00	228.45
828.32	228.49
828.64	228.40
828.95	228.66
829.27	228.50
829.58	228.55
829.90	228.65
830.22	228.75
830.53	228.63
830.85	228.68
831.17	228.58
831.48	228.61
831.80	228.60
832.11	228.64
832.43	228.45
832.75	228.47
833.06	228.71
833.38	228.55
833.69	228.54
834.01	228.47
834.32	228.45
834.64	228.44
834.96	228.50
835.27	228.50
835.59	228.31
835.90	228.27
836.22	228.21
836.53	228.09
836.85	227.93
837.16	228.49
837.48	228.35
837.79	228.55
838.11	228.56
838.42	228.48
838.74	228.44
839.05	228.41
839.37	228.39
839.68	228.10
840.00	228.13
840.31	228.18
840.63	228.13
840.94	228.05
841.26	227.99
841.57	227.90
841.88	227.86
842.20	227.77
842.51	227.63
842.83	227.67
843.14	228.13
843.46	228.19
843.77	227.89
844.08	227.97
844.40	227.81
844.71	227.73
845.03	227.71
845.34	227.67
845.65	227.67
845.97	227.71
846.28	227.73
846.60	227.72
846.91	227.72
847.22	227.75
847.54	227.90
847.85	227.89
848.16	227.85
848.48	227.85
848.79	228.00
849.10	228.15
849.42	228.18
849.73	227.72
850.04	227.72
850.36	227.53
850.67	227.59
850.98	227.64
851.30	227.65
851.61	227.70
851.92	227.71
852.23	227.97
852.55	227.96
852.86	228.11
853.17	228.10
853.49	228.13
853.80	228.25
854.11	228.30
854.42	228.38
854.74	228.34
855.05	228.38
855.36	228.17
855.67	228.08
855.99	228.05
856.30	228.59
856.61	228.53
856.92	228.57
857.23	228.53
857.55	228.45
857.86	228.44
858.17	228.51
858.48	228.38
858.79	228.18
859.11	228.29
859.42	228.16
859.73	228.18
860.04	228.07
860.35	227.85
860.66	227.69
860.98	227.66
861.29	227.76
861.60	227.67
861.91	227.77
862.22	227.76
862.53	227.71
862.84	227.10
863.16	227.26
863.47	227.09
863.78	227.08
864.09	227.21
864.40	227.25
864.71	227.20
865.02	227.35
865.33	227.41
865.64	227.26
865.95	227.21
866.27	227.51
866.58	227.55
866.89	227.65
867.20	227.59
867.51	227.49
867.82	227.45
868.13	227.62
868.44	227.53
868.75	227.66
869.06	227.70
869.37	227.78
869.68	227.62
869.99	227.75
870.30	227.77
870.61	227.76
870.92	227.70
871.23	227.65
871.54	227.62
871.85	227.60
872.16	227.59
872.47	227.59
872.78	227.30
873.09	227.30
873.40	227.24
873.71	227.26
874.02	227.25
874.33	227.16
874.64	227.05
874.95	227.10
875.26	226.90
875.56	226.79
875.87	226.75
876.18	226.70
876.49	227.15
876.80	227.09
877.11	226.93
877.42	226.94
877.73	226.99
878.04	226.90
878.35	226.94
878.66	226.97
878.96	226.98
879.27	226.96
879.58	226.97
879.89	226.92
880.20	227.15
880.51	227.18
880.82	227.22
881.12	227.19
881.43	227.12
881.74	227.07
882.05	227.10
882.36	227.15
882.67	227.16
882.97	226.65
883.28	226.63
883.59	226.67
883.90	226.79
884.21	226.81
884.51	226.79
884.82	226.63
885.13	226.64
885.44	226.54
885.74	226.53
886.05	226.49
886.36	226.55
886.67	226.30
886.98	226.50
887.28	226.56
887.59	226.60
887.90	226.61
888.20	226.69
888.51	226.78
888.82	226.73
889.13	226.87
889.43	227.23
889.74	227.15
890.05	227.13
890.35	227.04
890.66	226.96
890.97	227.00
891.28	227.00
891.58	227.01
891.89	227.10
892.20	227.00
892.50	226.97
892.81	226.97
893.12	226.99
893.42	226.76
893.73	226.72
894.04	226.71
894.34	226.71
894.65	226.69
894.95	226.65
895.26	226.68
895.57	226.88
895.87	226.46
896.18	226.59
896.48	226.60
896.79	226.60
897.10	226.72
897.40	226.72
897.71	226.83
898.01	226.78
898.32	226.83
898.63	226.85
898.93	226.98
899.24	226.95
899.54	227.00
899.85	227.04
900.15	227.06
900.46	227.07
900.76	227.17
901.07	227.08
901.38	227.04
901.68	227.15
901.99	226.89
902.29	226.92
902.60	226.90
902.90	226.92
903.21	226.88
903.51	226.85
903.82	226.97
904.12	226.92
904.43	227.04
904.73	226.99
905.03	227.07
905.34	227.41
905.64	227.38
905.95	227.38
906.25	227.40
906.56	227.35
906.86	227.40
907.17	227.33
907.47	227.45
907.77	227.41
908.08	227.21
908.38	227.18
908.69	227.25
908.99	227.35
909.30	227.37
909.60	227.32
909.90	227.29
910.21	227.11
910.51	227.10
910.81	227.08
911.12	227.10
911.42	227.04
911.73	226.63
912.03	226.68
912.33	226.80
912.64	226.71
912.94	226.69
913.24	226.59
913.55	226.57
913.85	226.47
914.15	226.62
914.46	226.75
914.76	226.74
915.06	226.70
915.37	226.58
915.67	226.55
915.97	226.59
916.27	226.50
916.58	226.52
916.88	226.49
917.18	226.41
917.49	226.72
917.79	226.77
918.09	226.79
918.39	226.95
918.70	226.93
919.00	226.98
919.30	227.18
919.60	227.14
919.91	227.09
920.21	227.13
920.51	226.97
920.81	226.92
921.12	226.94
921.42	226.92
921.72	226.92
922.02	226.88
922.32	227.01
922.63	227.05
922.93	227.27
923.23	227.26
923.53	227.25
923.83	226.96
924.13	226.95
924.44	226.90
924.74	226.94
925.04	226.98
925.34	227.00
925.64	226.80
925.94	226.80
926.24	227.11
926.55	227.04
926.85	227.22
927.15	227.22
927.45	227.28
927.75	227.24
928.05	227.30
928.35	227.32
928.65	227.37
928.95	227.38
929.26	227.22
929.56	227.35
929.86	227.39
930.16	227.32
930.46	227.33
930.76	227.39
931.06	227.13
931.36	226.97
931.66	227.03
931.96	227.09
932.26	227.14
932.56	226.95
932.86	227.01
933.16	226.92
933.46	226.89
933.76	226.86
934.06	227.01
934.36	227.18
934.66	227.13
934.96	227.07
935.26	227.11
935.56	227.18
935.86	227.01
936.16	226.91
936.46	226.88
936.76	226.79
937.06	226.71
937.36	226.78
937.66	226.82
937.96	226.77
938.26	226.67
938.56	226.65
938.86	226.57
939.16	226.66
939.46	226.74
939.76	226.78
940.06	226.78
940.35	226.66
940.65	226.39
940.95	226.46
941.25	226.34
941.55	226.24
941.85	226.18
942.15	226.33
942.45	226.50
942.75	226.46
943.04	226.56
943.34	226.72
943.64	226.70
943.94	226.64
944.24	226.67
944.54	226.76
944.84	226.70
945.13	226.68
945.43	226.66
945.73	226.63
946.03	226.53
946.33	226.49
946.62	226.45
946.92	226.52
947.22	226.58
947.52	226.61
947.82	226.69
948.11	226.61
948.41	226.50
948.71	226.35
949.01	226.41
949.31	226.33
949.60	226.23
949.90	226.29
950.20	226.22
950.50	226.23
950.79	226.15
951.09	226.24
951.39	226.27
951.69	226.22
951.98	226.30
952.28	226.37
952.58	226.30
952.87	226.34
953.17	226.32
953.47	226.23
953.76	226.18
954.06	226.06
954.36	226.05
954.66	226.10
954.95	226.28
955.25	226.39
955.55	226.43
955.84	226.27
956.14	226.33
956.44	226.42
956.73	226.33
957.03	226.37
957.32	226.31
957.62	226.30
957.92	226.34
958.21	226.28
958.51	226.81
958.81	226.86
959.10	226.88
959.40	226.98
959.69	226.99
959.99	227.08
960.29	227.12
960.58	227.04
960.88	227.22
961.17	227.11
961.47	227.06
961.76	227.05
962.06	227.13
962.36	227.05
962.65	227.10
962.95	227.12
963.24	227.02
963.54	227.16
963.83	227.19
964.13	227.21
964.42	227.03
964.72	226.70
965.01	226.74
965.31	226.67
965.60	226.58
965.90	226.92
966.19	226.80
966.49	226.85
966.78	226.87
967.08	226.76
967.37	226.78
967.67	226.73
967.96	226.83
968.26	226.83
968.55	226.89
968.85	226.83
969.14	226.81
969.43	226.90
969.73	226.80
970.02	226.74
970.32	226.75
970.61	226.76
970.91	226.62
971.20	226.54
971.49	226.55
971.79	226.55
972.08	226.15
972.38	226.20
972.67	226.11
972.96	226.24
973.26	226.13
973.55	226.25
973.85	226.28
974.14	226.11
974.43	226.18
974.73	226.05
975.02	226.01
975.31	226.04
975.61	226.05
975.90	226.04
976.19	226.05
976.49	226.02
976.78	226.10
977.07	226.01
977.37	226.05
977.66	226.15
977.95	226.15
978.24	226.24
978.54	226.34
978.83	226.39
979.12	226.33
979.42	226.33
979.71	226.25
980.00	226.19
980.29	226.30
980.59	226.22
980.88	226.44
981.17	226.48
981.46	226.49
981.76	226.41
982.05	226.50
982.34	226.54
982.63	226.55
982.93	226.52
983.22	226.68
983.51	226.68
983.80	226.68
984.09	226.69
984.39	226.68
984.68	226.61
984.97	226.66
985.26	226.65
985.55	226.65
985.85	226.57
986.14	226.73
986.43	226.78
986.72	226.77
987.01	226.56
987.30	226.55
987.59	226.52
987.89	226.57
988.18	226.47
988.47	226.47
988.76	226.39
989.05	226.41
989.34	226.36
989.63	226.45
989.92	226.40
990.22	226.35
990.51	226.35
990.80	226.32
991.09	226.31
991.38	226.30
991.67	226.30
991.96	226.25
992.25	226.18
992.54	226.06
992.83	226.06
993.12	226.06
993.41	226.11
993.70	226.35
993.99	226.45
994.28	226.47
994.58	226.49
994.87	226.48
995.16	226.53
995.45	226.54
995.74	226.39
996.03	226.45
996.32	226.51
996.61	226.62
996.90	226.59
997.19	226.57
997.48	226.61
997.77	226.68
998.06	226.73
998.34	226.63
998.63	226.65
998.92	226.65
999.21	226.79
999.50	226.82
999.79	226.59
1000.08	226.56
1000.37	226.60
1000.66	226.55
1000.95	226.66
1001.24	226.62
1001.53	226.63
1001.82	226.68
1002.11	226.67
1002.40	226.70
1002.68	226.81
1002.97	227.27
1003.26	227.24
1003.55	227.14
1003.84	227.11
1004.13	227.24
1004.42	227.34
1004.71	227.46
1004.99	227.48
1005.28	227.53
1005.57	227.45
1005.86	227.40
1006.15	227.39
1006.44	227.38
1006.72	227.44
1007.01	227.42
1007.30	227.40
1007.59	227.33
1007.88	227.28
1008.17	227.20
1008.45	227.11
1008.74	226.92
1009.03	226.60
1009.32	226.65
1009.60	226.71
1009.89	226.72
1010.18	226.66
1010.47	226.63
1010.76	226.55
1011.04	226.52
1011.33	226.47
1011.62	226.51
1011.91	226.56
1012.19	226.52
1012.48	226.47
1012.77	226.45
1013.05	226.68
1013.34	226.65
1013.63	226.63
1013.92	226.71
1014.20	226.75
1014.49	226.70
1014.78	226.71
1015.06	226.57
1015.35	226.48
1015.64	226.54
1015.92	226.57
1016.21	226.51
1016.50	226.50
1016.78	226.49
1017.07	226.54
1017.36	226.50
1017.64	226.49
1017.93	226.49
1018.22	226.50
1018.50	226.53
1018.79	226.51
1019.08	226.22
1019.36	226.24
1019.65	226.21
1019.93	226.28
1020.22	226.27
1020.51	226.50
1020.79	226.42
1021.08	226.65
1021.36	226.35
1021.65	226.45
1021.94	225.75
1022.22	226.05
1022.51	225.25
1022.79	228.30
1023.08	226.20
1023.36	230.25
1023.65	224.60
>>>>>End Processed Spectral Data<<<<<
