SpectraSuite Data File
++++++++++++++++++++++++++++++++++++
Date: Wed Sep 04 17:47:14 EDT 2013
User: lab3
Dark Spectrum Present: Yes
Reference Spectrum Present: No
Number of Sampled Component Spectra: 1
Spectrometers: USB2E7196
Integration Time (usec): 170000 (USB2E7196)
Spectra Averaged: 20 (USB2E7196)
Boxcar Smoothing: 10 (USB2E7196)
Correct for Electrical Dark: No (USB2E7196)
Strobe/Lamp Enabled: No (USB2E7196)
Correct for Detector Non-linearity: No (USB2E7196)
Correct for Stray Light: No (USB2E7196)
Number of Pixels in Processed Spectrum: 2048
>>>>>Begin Processed Spectral Data<<<<<
339.09	0.00
339.48	211.80
339.86	214.80
340.24	214.30
340.63	217.50
341.01	224.40
341.39	218.15
341.78	221.90
342.16	224.05
342.54	223.25
342.93	211.88
343.31	222.54
343.69	223.11
344.07	223.58
344.46	224.16
344.84	224.58
345.22	224.60
345.60	224.98
345.99	225.20
346.37	225.25
346.75	225.34
347.13	225.36
347.52	225.45
347.90	225.70
348.28	225.67
348.66	225.81
349.05	225.69
349.43	225.82
349.81	225.96
350.19	226.00
350.57	226.05
350.96	226.09
351.34	226.20
351.72	226.33
352.10	226.49
352.48	226.44
352.87	226.50
353.25	226.57
353.63	226.57
354.01	226.58
354.39	226.68
354.77	226.77
355.15	226.97
355.54	226.90
355.92	226.76
356.30	226.85
356.68	227.22
357.06	227.34
357.44	227.30
357.82	227.30
358.20	227.77
358.58	227.85
358.97	227.98
359.35	228.10
359.73	228.22
360.11	228.18
360.49	228.20
360.87	228.18
361.25	228.26
361.63	228.47
362.01	228.54
362.39	228.60
362.77	228.68
363.15	228.67
363.53	228.81
363.91	228.87
364.29	228.86
364.67	228.33
365.05	228.42
365.43	228.54
365.81	228.63
366.19	228.48
366.57	228.61
366.95	228.58
367.33	228.48
367.71	228.50
368.09	228.57
368.47	228.66
368.85	228.64
369.23	228.69
369.61	228.50
369.99	228.59
370.37	228.60
370.75	228.82
371.13	228.70
371.51	228.62
371.89	228.66
372.27	228.70
372.65	228.79
373.03	228.73
373.41	228.67
373.78	228.60
374.16	228.35
374.54	228.17
374.92	228.06
375.30	228.05
375.68	227.97
376.06	228.03
376.44	227.93
376.82	227.96
377.19	227.90
377.57	227.86
377.95	227.70
378.33	227.64
378.71	227.25
379.09	227.29
379.47	227.28
379.84	227.17
380.22	227.07
380.60	226.93
380.98	226.85
381.36	226.75
381.73	226.69
382.11	226.74
382.49	226.75
382.87	226.63
383.25	226.63
383.62	227.05
384.00	226.88
384.38	226.86
384.76	226.88
385.13	227.02
385.51	226.98
385.89	226.89
386.27	226.82
386.64	226.83
387.02	226.76
387.40	226.67
387.78	226.72
388.15	226.74
388.53	226.66
388.91	226.53
389.29	226.45
389.66	226.48
390.04	226.34
390.42	226.39
390.79	226.40
391.17	226.40
391.55	225.88
391.92	225.81
392.30	225.89
392.68	225.82
393.05	225.77
393.43	225.82
393.81	225.85
394.18	225.83
394.56	225.90
394.94	226.08
395.31	226.00
395.69	226.13
396.06	226.19
396.44	226.28
396.82	226.41
397.19	226.75
397.57	226.73
397.95	226.90
398.32	226.85
398.70	227.02
399.07	227.14
399.45	227.13
399.82	227.26
400.20	227.18
400.58	227.31
400.95	227.28
401.33	227.41
401.70	227.86
402.08	228.04
402.45	228.20
402.83	228.25
403.20	228.50
403.58	228.49
403.95	228.69
404.33	228.95
404.71	229.10
405.08	229.53
405.46	229.72
405.83	229.99
406.21	230.19
406.58	230.42
406.96	230.67
407.33	231.06
407.70	231.36
408.08	232.20
408.45	232.63
408.83	233.16
409.20	233.56
409.58	233.76
409.95	234.27
410.33	234.82
410.70	235.24
411.08	235.91
411.45	236.56
411.82	237.17
412.20	237.91
412.57	238.99
412.95	239.28
413.32	240.15
413.69	240.91
414.07	241.87
414.44	242.77
414.82	243.76
415.19	244.97
415.56	246.21
415.94	247.13
416.31	248.47
416.68	249.71
417.06	251.30
417.43	252.85
417.81	254.57
418.18	256.33
418.55	258.35
418.93	260.24
419.30	262.32
419.67	264.48
420.04	266.62
420.42	268.72
420.79	271.74
421.16	274.44
421.54	277.47
421.91	280.35
422.28	283.38
422.66	286.67
423.03	290.11
423.40	293.35
423.77	296.85
424.15	300.41
424.52	304.26
424.89	308.31
425.26	312.22
425.64	315.93
426.01	320.03
426.38	324.21
426.75	328.78
427.13	333.29
427.50	337.99
427.87	342.92
428.24	347.90
428.61	352.38
428.99	357.66
429.36	362.97
429.73	368.48
430.10	373.99
430.47	379.49
430.85	384.88
431.22	390.97
431.59	397.65
431.96	403.81
432.33	410.46
432.70	416.96
433.08	424.75
433.45	432.04
433.82	439.14
434.19	447.09
434.56	455.00
434.93	462.52
435.30	470.06
435.68	478.53
436.05	486.70
436.42	494.83
436.79	502.44
437.16	510.61
437.53	519.16
437.90	527.76
438.27	536.33
438.64	545.22
439.01	553.40
439.38	560.31
439.75	567.21
440.13	575.19
440.50	582.75
440.87	588.62
441.24	594.84
441.61	601.87
441.98	606.95
442.35	612.63
442.72	618.63
443.09	624.42
443.46	627.69
443.83	630.06
444.20	632.16
444.57	634.77
444.94	635.79
445.31	636.95
445.68	638.22
446.05	638.30
446.42	636.99
446.79	635.61
447.16	634.27
447.53	633.28
447.90	629.48
448.27	625.83
448.64	621.07
449.01	617.74
449.37	611.67
449.74	605.90
450.11	599.41
450.48	591.76
450.85	583.93
451.22	577.17
451.59	570.78
451.96	564.52
452.33	556.58
452.70	549.50
453.07	540.99
453.43	532.07
453.80	523.82
454.17	515.98
454.54	508.55
454.91	500.40
455.28	492.50
455.65	485.37
456.02	478.71
456.38	472.50
456.75	464.66
457.12	458.30
457.49	452.02
457.86	445.69
458.23	440.70
458.59	435.06
458.96	429.54
459.33	424.42
459.70	419.42
460.07	415.33
460.43	410.74
460.80	406.61
461.17	402.92
461.54	398.97
461.91	395.19
462.27	391.26
462.64	388.06
463.01	384.43
463.38	381.18
463.74	377.10
464.11	374.19
464.48	371.65
464.85	368.71
465.21	366.65
465.58	364.27
465.95	361.33
466.32	359.22
466.68	356.97
467.05	354.73
467.42	352.53
467.78	350.28
468.15	348.19
468.52	346.54
468.88	344.37
469.25	342.45
469.62	340.99
469.98	339.37
470.35	337.79
470.72	336.34
471.08	334.68
471.45	333.45
471.82	332.17
472.18	330.69
472.55	329.70
472.92	328.27
473.28	327.15
473.65	326.10
474.02	325.04
474.38	324.25
474.75	323.57
475.11	322.73
475.48	322.08
475.85	321.41
476.21	320.78
476.58	320.33
476.94	320.00
477.31	319.51
477.67	319.14
478.04	318.87
478.41	318.71
478.77	319.00
479.14	318.69
479.50	318.54
479.87	318.48
480.23	318.58
480.60	318.56
480.96	318.62
481.33	319.04
481.69	319.26
482.06	319.34
482.42	319.60
482.79	319.98
483.15	320.50
483.52	321.05
483.88	321.50
484.25	321.99
484.61	322.64
484.98	323.31
485.34	324.27
485.71	325.25
486.07	326.23
486.44	326.82
486.80	328.01
487.17	329.15
487.53	330.59
487.90	331.97
488.26	333.72
488.62	335.40
488.99	336.88
489.35	338.58
489.72	340.56
490.08	342.48
490.44	344.40
490.81	346.54
491.17	348.74
491.54	351.13
491.90	353.76
492.26	356.46
492.63	359.34
492.99	362.14
493.36	365.11
493.72	368.42
494.08	371.85
494.45	375.39
494.81	379.31
495.17	383.17
495.54	387.19
495.90	391.40
496.26	395.79
496.63	400.37
496.99	405.11
497.35	410.02
497.72	415.38
498.08	420.83
498.44	426.41
498.80	432.48
499.17	438.66
499.53	444.88
499.89	451.36
500.26	458.12
500.62	464.98
500.98	472.52
501.34	479.73
501.71	487.33
502.07	495.11
502.43	503.12
502.79	511.43
503.16	520.12
503.52	528.92
503.88	538.07
504.24	547.58
504.60	557.44
504.97	567.70
505.33	577.84
505.69	588.89
506.05	599.78
506.41	610.94
506.78	622.37
507.14	634.25
507.50	646.52
507.86	659.00
508.22	672.02
508.59	684.76
508.95	698.45
509.31	712.47
509.67	726.66
510.03	740.64
510.39	755.11
510.75	769.93
511.12	785.12
511.48	800.55
511.84	816.06
512.20	832.00
512.56	848.03
512.92	864.89
513.28	881.42
513.64	898.45
514.00	915.61
514.37	933.27
514.73	951.22
515.09	969.23
515.45	987.29
515.81	1005.47
516.17	1023.96
516.53	1042.29
516.89	1060.75
517.25	1079.83
517.61	1099.71
517.97	1119.90
518.33	1139.75
518.69	1159.67
519.05	1179.99
519.41	1200.53
519.77	1221.05
520.13	1241.60
520.49	1261.98
520.85	1283.85
521.21	1304.60
521.57	1325.79
521.93	1346.13
522.29	1366.79
522.65	1387.06
523.01	1407.94
523.37	1428.27
523.73	1449.04
524.09	1469.27
524.45	1489.71
524.81	1510.24
525.17	1530.63
525.53	1550.58
525.89	1571.13
526.25	1591.82
526.61	1611.84
526.97	1632.58
527.33	1653.68
527.68	1674.70
528.04	1695.68
528.40	1715.12
528.76	1735.91
529.12	1755.92
529.48	1776.21
529.84	1796.00
530.20	1816.92
530.56	1837.01
530.91	1857.43
531.27	1877.53
531.63	1897.70
531.99	1917.92
532.35	1937.45
532.71	1957.43
533.07	1977.97
533.42	1997.41
533.78	2016.58
534.14	2036.03
534.50	2054.55
534.86	2073.10
535.21	2090.52
535.57	2108.20
535.93	2125.33
536.29	2142.71
536.65	2160.35
537.00	2177.81
537.36	2194.95
537.72	2210.99
538.08	2227.73
538.44	2243.96
538.79	2259.88
539.15	2276.14
539.51	2291.63
539.87	2306.52
540.22	2320.03
540.58	2333.75
540.94	2346.58
541.29	2358.78
541.65	2370.83
542.01	2382.90
542.37	2392.94
542.72	2403.51
543.08	2413.56
543.44	2424.62
543.79	2434.07
544.15	2443.49
544.51	2453.16
544.87	2462.37
545.22	2470.76
545.58	2478.05
545.94	2484.79
546.29	2490.90
546.65	2496.72
547.01	2501.76
547.36	2506.97
547.72	2512.31
548.07	2515.79
548.43	2520.80
548.79	2525.52
549.14	2529.18
549.50	2532.91
549.86	2536.60
550.21	2540.18
550.57	2543.39
550.92	2544.84
551.28	2546.06
551.64	2548.11
551.99	2549.27
552.35	2550.60
552.70	2552.45
553.06	2553.91
553.41	2555.16
553.77	2556.86
554.13	2558.08
554.48	2559.57
554.84	2560.66
555.19	2561.67
555.55	2563.41
555.90	2562.60
556.26	2561.43
556.61	2560.12
556.97	2557.79
557.32	2557.07
557.68	2555.70
558.03	2554.00
558.39	2552.66
558.74	2551.77
559.10	2548.47
559.45	2544.74
559.81	2540.16
560.16	2534.63
560.52	2529.52
560.87	2525.08
561.23	2519.55
561.58	2513.78
561.94	2506.88
562.29	2499.50
562.64	2492.40
563.00	2484.02
563.35	2477.24
563.71	2470.71
564.06	2464.30
564.42	2457.81
564.77	2450.60
565.12	2443.27
565.48	2435.46
565.83	2427.18
566.19	2418.79
566.54	2410.87
566.89	2403.09
567.25	2395.45
567.60	2388.26
567.96	2380.87
568.31	2372.55
568.66	2364.01
569.02	2354.97
569.37	2346.73
569.72	2339.18
570.08	2329.83
570.43	2320.31
570.78	2311.15
571.14	2301.94
571.49	2291.50
571.84	2281.97
572.20	2271.47
572.55	2261.16
572.90	2250.74
573.26	2240.62
573.61	2229.89
573.96	2218.71
574.31	2206.90
574.67	2195.47
575.02	2182.89
575.37	2170.26
575.72	2157.26
576.08	2145.05
576.43	2132.62
576.78	2119.56
577.13	2106.23
577.49	2093.75
577.84	2082.38
578.19	2070.51
578.54	2057.55
578.90	2046.06
579.25	2033.69
579.60	2021.23
579.95	2008.34
580.30	1995.31
580.66	1982.03
581.01	1968.72
581.36	1955.14
581.71	1942.92
582.06	1930.09
582.42	1918.15
582.77	1905.75
583.12	1894.35
583.47	1882.60
583.82	1870.94
584.17	1859.15
584.53	1847.48
584.88	1834.67
585.23	1821.40
585.58	1807.68
585.93	1794.76
586.28	1781.78
586.63	1768.29
586.98	1754.63
587.34	1741.80
587.69	1728.90
588.04	1716.64
588.39	1704.77
588.74	1692.98
589.09	1681.03
589.44	1668.44
589.79	1656.30
590.14	1644.74
590.49	1632.53
590.84	1620.56
591.19	1608.54
591.54	1596.60
591.89	1584.46
592.25	1574.40
592.60	1563.25
592.95	1552.07
593.30	1540.59
593.65	1528.72
594.00	1516.76
594.35	1507.16
594.70	1495.71
595.05	1484.66
595.40	1472.87
595.75	1461.36
596.10	1450.11
596.45	1438.65
596.80	1428.09
597.15	1417.01
597.50	1405.54
597.85	1394.53
598.19	1383.20
598.54	1372.04
598.89	1361.31
599.24	1351.14
599.59	1340.01
599.94	1329.48
600.29	1319.51
600.64	1309.54
600.99	1299.14
601.34	1289.94
601.69	1279.03
602.04	1269.61
602.39	1260.19
602.74	1251.53
603.08	1242.36
603.43	1233.53
603.78	1224.17
604.13	1214.97
604.48	1205.54
604.83	1195.99
605.18	1186.49
605.53	1177.12
605.87	1168.37
606.22	1159.95
606.57	1150.72
606.92	1141.47
607.27	1132.75
607.62	1124.07
607.96	1115.93
608.31	1108.21
608.66	1099.98
609.01	1091.75
609.36	1083.22
609.70	1074.74
610.05	1066.12
610.40	1057.83
610.75	1049.42
611.10	1041.56
611.44	1033.26
611.79	1025.38
612.14	1017.91
612.49	1010.29
612.83	1002.95
613.18	995.23
613.53	987.63
613.88	980.16
614.22	972.75
614.57	965.15
614.92	957.52
615.27	949.98
615.61	942.46
615.96	935.08
616.31	927.79
616.65	921.03
617.00	914.07
617.35	907.15
617.70	900.21
618.04	893.21
618.39	886.30
618.74	879.93
619.08	873.15
619.43	866.23
619.78	859.49
620.12	852.58
620.47	845.89
620.82	838.87
621.16	832.17
621.51	826.02
621.85	819.90
622.20	813.46
622.55	806.96
622.89	800.78
623.24	794.66
623.59	788.34
623.93	782.11
624.28	776.24
624.62	770.80
624.97	765.25
625.32	759.75
625.66	753.98
626.01	748.09
626.35	742.75
626.70	737.45
627.04	732.15
627.39	726.85
627.73	721.76
628.08	716.87
628.43	711.65
628.77	706.33
629.12	701.28
629.46	696.65
629.81	692.08
630.15	687.40
630.50	682.50
630.84	678.03
631.19	673.38
631.53	668.58
631.88	663.32
632.22	658.47
632.57	654.06
632.91	649.55
633.26	645.27
633.60	640.73
633.95	636.17
634.29	631.54
634.64	627.27
634.98	622.62
635.32	618.33
635.67	614.39
636.01	610.36
636.36	606.04
636.70	602.02
637.05	597.90
637.39	593.83
637.73	589.99
638.08	585.97
638.42	581.90
638.77	577.90
639.11	573.69
639.45	569.45
639.80	565.10
640.14	561.14
640.49	557.18
640.83	553.48
641.17	550.02
641.52	546.53
641.86	543.01
642.20	539.95
642.55	536.40
642.89	532.97
643.23	529.43
643.58	526.39
643.92	522.72
644.26	519.46
644.61	516.28
644.95	512.92
645.29	509.55
645.64	506.56
645.98	503.58
646.32	501.00
646.66	498.04
647.01	495.26
647.35	492.55
647.69	489.66
648.04	487.03
648.38	484.24
648.72	481.45
649.06	478.43
649.41	475.42
649.75	472.62
650.09	469.84
650.43	467.18
650.78	464.30
651.12	461.63
651.46	458.77
651.80	456.05
652.14	453.48
652.49	451.18
652.83	448.62
653.17	446.09
653.51	443.30
653.85	441.06
654.20	438.66
654.54	436.16
654.88	433.65
655.22	431.39
655.56	429.00
655.90	426.70
656.25	424.61
656.59	422.46
656.93	420.28
657.27	418.26
657.61	415.87
657.95	413.66
658.29	411.61
658.64	409.77
658.98	407.65
659.32	405.45
659.66	403.27
660.00	401.25
660.34	399.16
660.68	397.28
661.02	395.21
661.36	393.18
661.70	391.21
662.05	389.41
662.39	387.43
662.73	385.59
663.07	383.99
663.41	382.14
663.75	380.24
664.09	378.59
664.43	376.65
664.77	375.07
665.11	373.30
665.45	371.63
665.79	369.93
666.13	368.29
666.47	366.65
666.81	364.99
667.15	363.35
667.49	361.99
667.83	360.66
668.17	359.27
668.51	357.89
668.85	356.61
669.19	355.51
669.53	354.07
669.87	352.64
670.21	351.08
670.55	349.74
670.89	348.65
671.23	347.17
671.57	345.74
671.91	344.42
672.25	343.29
672.58	342.10
672.92	340.70
673.26	339.46
673.60	338.34
673.94	337.26
674.28	336.11
674.62	334.95
674.96	333.58
675.30	332.40
675.64	331.23
675.97	329.97
676.31	328.55
676.65	327.31
676.99	326.39
677.33	325.29
677.67	324.25
678.01	322.96
678.34	321.94
678.68	321.08
679.02	320.06
679.36	319.05
679.70	318.05
680.04	317.22
680.37	316.28
680.71	315.29
681.05	314.39
681.39	313.50
681.73	312.51
682.06	311.61
682.40	310.71
682.74	309.83
683.08	309.16
683.42	308.29
683.75	307.63
684.09	306.64
684.43	305.81
684.77	304.95
685.10	304.20
685.44	303.44
685.78	302.61
686.12	301.83
686.45	301.05
686.79	300.13
687.13	299.35
687.46	298.63
687.80	298.08
688.14	297.25
688.48	296.55
688.81	295.77
689.15	295.19
689.49	294.43
689.82	293.80
690.16	292.87
690.50	292.25
690.83	291.43
691.17	290.65
691.51	289.96
691.84	289.33
692.18	288.58
692.52	287.88
692.85	287.31
693.19	286.83
693.52	286.12
693.86	285.49
694.20	284.77
694.53	284.10
694.87	283.38
695.21	282.79
695.54	282.10
695.88	281.47
696.21	280.72
696.55	280.17
696.88	279.50
697.22	278.93
697.56	278.39
697.89	277.77
698.23	277.32
698.56	276.71
698.90	276.20
699.23	275.66
699.57	275.20
699.90	274.52
700.24	273.89
700.58	273.43
700.91	273.05
701.25	273.01
701.58	273.00
701.92	272.59
702.25	272.19
702.59	271.70
702.92	271.33
703.26	270.98
703.59	270.53
703.93	270.59
704.26	270.34
704.60	269.81
704.93	269.41
705.26	268.87
705.60	268.57
705.93	268.07
706.27	267.78
706.60	267.43
706.94	267.27
707.27	266.83
707.61	266.54
707.94	266.18
708.27	265.41
708.61	264.60
708.94	264.18
709.28	263.73
709.61	263.33
709.94	263.00
710.28	262.68
710.61	262.34
710.95	261.57
711.28	261.42
711.61	261.14
711.95	260.87
712.28	260.57
712.61	260.21
712.95	260.17
713.28	260.04
713.61	259.67
713.95	259.18
714.28	258.98
714.61	258.58
714.95	258.21
715.28	257.90
715.61	257.61
715.95	257.36
716.28	257.05
716.61	256.88
716.95	256.50
717.28	256.12
717.61	255.86
717.94	255.56
718.28	254.98
718.61	254.72
718.94	254.46
719.27	254.19
719.61	254.03
719.94	253.57
720.27	253.14
720.60	252.82
720.94	252.62
721.27	252.42
721.60	252.34
721.93	252.20
722.27	252.16
722.60	251.97
722.93	251.72
723.26	251.53
723.59	251.29
723.93	251.13
724.26	250.97
724.59	250.76
724.92	250.65
725.25	250.61
725.59	250.41
725.92	250.25
726.25	250.14
726.58	249.94
726.91	249.78
727.24	249.60
727.57	249.51
727.91	249.25
728.24	249.06
728.57	248.73
728.90	248.53
729.23	248.19
729.56	248.30
729.89	248.14
730.22	248.00
730.55	247.82
730.89	247.70
731.22	247.49
731.55	247.29
731.88	247.08
732.21	246.80
732.54	246.50
732.87	246.34
733.20	246.09
733.53	245.94
733.86	245.86
734.19	245.63
734.52	245.46
734.85	245.65
735.18	245.44
735.51	245.48
735.84	245.35
736.17	245.33
736.50	244.89
736.83	245.33
737.16	245.20
737.49	245.05
737.82	244.80
738.15	244.75
738.48	244.55
738.81	244.41
739.14	244.14
739.47	244.05
739.80	243.87
740.13	243.82
740.46	243.61
740.79	243.35
741.12	243.16
741.45	243.05
741.78	242.62
742.11	242.57
742.44	242.32
742.77	242.25
743.10	242.10
743.43	241.96
743.75	241.27
744.08	241.70
744.41	241.56
744.74	241.39
745.07	241.08
745.40	241.15
745.73	241.20
746.06	241.14
746.39	241.07
746.71	240.89
747.04	240.61
747.37	240.41
747.70	240.43
748.03	240.40
748.36	240.32
748.68	240.22
749.01	240.03
749.34	239.95
749.67	239.83
750.00	239.73
750.33	239.97
750.65	239.88
750.98	239.16
751.31	239.05
751.64	239.01
751.97	239.24
752.29	239.04
752.62	238.69
752.95	238.56
753.28	238.38
753.60	238.29
753.93	238.39
754.26	238.47
754.59	238.20
754.91	238.08
755.24	237.95
755.57	237.87
755.90	237.69
756.22	237.51
756.55	237.32
756.88	237.08
757.20	236.64
757.53	236.39
757.86	236.29
758.19	236.15
758.51	236.11
758.84	235.71
759.17	235.56
759.49	235.50
759.82	235.67
760.15	235.64
760.47	235.60
760.80	235.35
761.13	235.25
761.45	235.16
761.78	235.07
762.11	235.01
762.43	234.89
762.76	234.87
763.08	234.87
763.41	234.87
763.74	234.81
764.06	234.73
764.39	234.71
764.71	234.62
765.04	234.56
765.37	234.35
765.69	234.31
766.02	234.25
766.34	234.18
766.67	233.91
767.00	233.93
767.32	234.05
767.65	234.33
767.97	234.23
768.30	234.21
768.62	234.10
768.95	233.85
769.27	233.75
769.60	233.69
769.92	233.49
770.25	233.27
770.57	233.15
770.90	233.09
771.22	232.96
771.55	232.92
771.87	232.94
772.20	232.93
772.52	233.26
772.85	233.73
773.17	233.69
773.50	233.70
773.82	233.57
774.15	233.29
774.47	232.88
774.80	232.74
775.12	232.61
775.45	232.56
775.77	232.57
776.09	232.59
776.42	232.47
776.74	232.62
777.07	232.63
777.39	232.58
777.72	232.45
778.04	232.54
778.36	232.49
778.69	232.41
779.01	232.36
779.33	231.86
779.66	231.32
779.98	231.11
780.31	230.99
780.63	231.11
780.95	231.11
781.28	231.03
781.60	230.95
781.92	230.91
782.25	230.88
782.57	230.81
782.89	230.76
783.22	230.77
783.54	230.54
783.86	230.50
784.19	230.50
784.51	230.69
784.83	230.48
785.16	230.36
785.48	230.35
785.80	230.31
786.12	230.30
786.45	230.25
786.77	230.37
787.09	230.31
787.42	230.14
787.74	230.14
788.06	230.15
788.38	230.08
788.71	230.07
789.03	230.02
789.35	230.07
789.67	229.90
789.99	229.95
790.32	229.81
790.64	229.78
790.96	230.11
791.28	229.85
791.61	229.83
791.93	229.85
792.25	229.76
792.57	230.14
792.89	230.09
793.21	230.05
793.54	229.99
793.86	229.94
794.18	229.88
794.50	229.68
794.82	229.69
795.14	229.77
795.47	229.77
795.79	229.78
796.11	229.66
796.43	229.72
796.75	229.65
797.07	229.78
797.39	229.81
797.71	229.43
798.04	229.41
798.36	229.44
798.68	229.45
799.00	229.42
799.32	229.10
799.64	229.20
799.96	229.21
800.28	229.25
800.60	229.22
800.92	229.25
801.24	229.31
801.56	229.28
801.89	229.19
802.21	229.28
802.53	229.14
802.85	229.25
803.17	229.49
803.49	229.34
803.81	229.32
804.13	229.23
804.45	229.23
804.77	229.26
805.09	229.25
805.41	229.13
805.73	229.05
806.05	228.96
806.37	228.88
806.69	228.81
807.01	228.71
807.33	228.80
807.65	228.63
807.97	228.82
808.28	228.77
808.60	228.83
808.92	228.70
809.24	229.09
809.56	229.03
809.88	228.77
810.20	228.81
810.52	228.77
810.84	228.71
811.16	228.62
811.48	228.64
811.80	228.78
812.12	228.82
812.43	228.92
812.75	228.98
813.07	228.91
813.39	228.94
813.71	228.89
814.03	228.76
814.35	228.79
814.67	228.67
814.98	228.66
815.30	228.59
815.62	228.43
815.94	228.09
816.26	228.26
816.58	228.10
816.89	228.13
817.21	228.10
817.53	228.10
817.85	228.09
818.17	228.10
818.48	227.86
818.80	227.90
819.12	227.75
819.44	227.60
819.76	227.55
820.07	227.57
820.39	227.51
820.71	227.54
821.03	227.57
821.34	227.42
821.66	227.42
821.98	227.42
822.30	227.44
822.61	227.66
822.93	227.37
823.25	227.44
823.57	227.42
823.88	227.49
824.20	227.44
824.52	227.48
824.83	227.35
825.15	227.25
825.47	227.22
825.79	227.29
826.10	227.25
826.42	227.19
826.74	227.18
827.05	227.21
827.37	227.20
827.69	227.10
828.00	227.13
828.32	227.17
828.64	227.16
828.95	227.40
829.27	227.27
829.58	227.25
829.90	227.30
830.22	227.36
830.53	227.20
830.85	227.16
831.17	227.10
831.48	227.10
831.80	227.17
832.11	227.17
832.43	227.08
832.75	227.05
833.06	227.39
833.38	227.22
833.69	227.10
834.01	227.09
834.32	227.04
834.64	227.00
834.96	226.87
835.27	226.89
835.59	226.76
835.90	226.66
836.22	226.68
836.53	226.53
836.85	226.38
837.16	226.86
837.48	226.84
837.79	226.96
838.11	227.05
838.42	227.10
838.74	227.17
839.05	227.16
839.37	227.17
839.68	226.93
840.00	226.94
840.31	227.05
840.63	227.05
840.94	227.01
841.26	227.00
841.57	227.07
841.88	227.07
842.20	227.06
842.51	227.00
842.83	227.01
843.14	227.48
843.46	227.49
843.77	227.25
844.08	227.32
844.40	227.22
844.71	227.20
845.03	227.11
845.34	227.03
845.65	226.99
845.97	226.98
846.28	227.02
846.60	227.07
846.91	227.01
847.22	226.97
847.54	227.13
847.85	227.14
848.16	227.08
848.48	227.05
848.79	227.21
849.10	227.30
849.42	227.32
849.73	226.88
850.04	226.88
850.36	226.73
850.67	226.81
850.98	226.78
851.30	226.74
851.61	226.76
851.92	226.72
852.23	227.00
852.55	227.09
852.86	227.05
853.17	227.08
853.49	227.22
853.80	227.35
854.11	227.49
854.42	227.62
854.74	227.61
855.05	227.59
855.36	227.36
855.67	227.33
855.99	227.32
856.30	227.92
856.61	227.88
856.92	227.89
857.23	227.80
857.55	227.78
857.86	227.70
858.17	227.74
858.48	227.73
858.79	227.51
859.11	227.53
859.42	227.47
859.73	227.49
860.04	227.40
860.35	227.21
860.66	226.93
860.98	226.83
861.29	226.85
861.60	226.87
861.91	226.95
862.22	226.92
862.53	226.80
862.84	226.23
863.16	226.39
863.47	226.28
863.78	226.28
864.09	226.29
864.40	226.31
864.71	226.30
865.02	226.35
865.33	226.29
865.64	226.14
865.95	226.21
866.27	226.41
866.58	226.40
866.89	226.46
867.20	226.52
867.51	226.41
867.82	226.37
868.13	226.50
868.44	226.29
868.75	226.37
869.06	226.51
869.37	226.58
869.68	226.38
869.99	226.44
870.30	226.49
870.61	226.54
870.92	226.50
871.23	226.47
871.54	226.45
871.85	226.65
872.16	226.73
872.47	226.59
872.78	226.30
873.09	226.36
873.40	226.31
873.71	226.30
874.02	226.39
874.33	226.35
874.64	226.15
874.95	226.32
875.26	226.17
875.56	226.12
875.87	226.04
876.18	226.06
876.49	226.54
876.80	226.43
877.11	226.33
877.42	226.39
877.73	226.44
878.04	226.39
878.35	226.32
878.66	226.34
878.96	226.35
879.27	226.40
879.58	226.34
879.89	226.25
880.20	226.44
880.51	226.42
880.82	226.43
881.12	226.51
881.43	226.42
881.74	226.41
882.05	226.35
882.36	226.40
882.67	226.41
882.97	225.94
883.28	225.92
883.59	225.87
883.90	225.95
884.21	225.95
884.51	225.98
884.82	225.88
885.13	225.88
885.44	225.93
885.74	225.94
886.05	225.96
886.36	226.11
886.67	225.91
886.98	226.18
887.28	226.23
887.59	226.19
887.90	226.20
888.20	226.20
888.51	226.26
888.82	226.21
889.13	226.20
889.43	226.54
889.74	226.58
890.05	226.65
890.35	226.59
890.66	226.47
890.97	226.37
891.28	226.38
891.58	226.37
891.89	226.35
892.20	226.26
892.50	226.16
892.81	226.00
893.12	225.96
893.42	225.70
893.73	225.74
894.04	225.77
894.34	225.83
894.65	225.78
894.95	225.76
895.26	225.68
895.57	225.97
895.87	225.50
896.18	225.57
896.48	225.55
896.79	225.57
897.10	225.72
897.40	225.79
897.71	225.84
898.01	225.85
898.32	225.90
898.63	225.90
898.93	225.90
899.24	226.03
899.54	226.03
899.85	225.97
900.15	225.95
900.46	225.95
900.76	225.97
901.07	225.99
901.38	226.01
901.68	226.14
901.99	225.87
902.29	225.96
902.60	225.94
902.90	225.95
903.21	225.90
903.51	225.87
903.82	225.95
904.12	225.92
904.43	225.96
904.73	225.92
905.03	225.91
905.34	226.42
905.64	226.46
905.95	226.50
906.25	226.55
906.56	226.54
906.86	226.47
907.17	226.39
907.47	226.43
907.77	226.40
908.08	226.32
908.38	226.36
908.69	226.40
908.99	226.39
909.30	226.40
909.60	226.41
909.90	226.40
910.21	226.27
910.51	226.22
910.81	226.16
911.12	226.19
911.42	226.21
911.73	225.69
912.03	225.66
912.33	225.73
912.64	225.72
912.94	225.64
913.24	225.60
913.55	225.58
913.85	225.54
914.15	225.60
914.46	225.64
914.76	225.57
915.06	225.54
915.37	225.50
915.67	225.50
915.97	225.52
916.27	225.38
916.58	225.40
916.88	225.40
917.18	225.36
917.49	225.72
917.79	225.70
918.09	225.85
918.39	225.89
918.70	225.80
919.00	225.84
919.30	226.14
919.60	226.19
919.91	226.13
920.21	226.13
920.51	225.99
920.81	225.95
921.12	225.96
921.42	225.94
921.72	225.98
922.02	226.01
922.32	226.05
922.63	226.16
922.93	226.37
923.23	226.33
923.53	226.25
923.83	225.89
924.13	225.92
924.44	225.78
924.74	225.84
925.04	226.00
925.34	225.97
925.64	225.71
925.94	225.67
926.24	226.01
926.55	225.99
926.85	226.10
927.15	226.11
927.45	226.23
927.75	226.23
928.05	226.21
928.35	226.15
928.65	226.27
928.95	226.30
929.26	226.23
929.56	226.40
929.86	226.52
930.16	226.47
930.46	226.47
930.76	226.50
931.06	226.39
931.36	226.28
931.66	226.33
931.96	226.43
932.26	226.49
932.56	226.27
932.86	226.34
933.16	226.35
933.46	226.34
933.76	226.27
934.06	226.35
934.36	226.57
934.66	226.51
934.96	226.37
935.26	226.39
935.56	226.37
935.86	226.21
936.16	226.23
936.46	226.26
936.76	226.21
937.06	226.20
937.36	226.14
937.66	226.13
937.96	226.12
938.26	225.99
938.56	225.96
938.86	225.97
939.16	226.02
939.46	226.10
939.76	226.04
940.06	226.01
940.35	225.89
940.65	225.68
940.95	225.81
941.25	225.71
941.55	225.67
941.85	225.61
942.15	225.83
942.45	225.94
942.75	225.93
943.04	225.93
943.34	226.03
943.64	226.07
943.94	226.04
944.24	226.06
944.54	226.09
944.84	226.09
945.13	225.96
945.43	225.94
945.73	225.81
946.03	225.93
946.33	225.88
946.62	225.91
946.92	225.84
947.22	225.85
947.52	225.90
947.82	225.99
948.11	226.00
948.41	225.83
948.71	225.65
949.01	225.71
949.31	225.80
949.60	225.78
949.90	225.87
950.20	225.87
950.50	225.82
950.79	225.80
951.09	225.84
951.39	225.90
951.69	225.90
951.98	226.10
952.28	226.10
952.58	226.16
952.87	226.10
953.17	226.17
953.47	226.06
953.76	226.05
954.06	225.94
954.36	225.84
954.66	225.79
954.95	225.94
955.25	225.94
955.55	225.90
955.84	225.76
956.14	225.70
956.44	225.77
956.73	225.69
957.03	225.72
957.32	225.64
957.62	225.68
957.92	225.72
958.21	225.62
958.51	226.08
958.81	226.11
959.10	226.23
959.40	226.33
959.69	226.35
959.99	226.45
960.29	226.48
960.58	226.43
960.88	226.64
961.17	226.50
961.47	226.51
961.76	226.49
962.06	226.66
962.36	226.59
962.65	226.55
962.95	226.65
963.24	226.62
963.54	226.67
963.83	226.69
964.13	226.66
964.42	226.55
964.72	226.20
965.01	226.13
965.31	226.07
965.60	225.88
965.90	226.18
966.19	226.02
966.49	225.98
966.78	226.01
967.08	225.91
967.37	226.00
967.67	225.90
967.96	225.92
968.26	225.88
968.55	225.96
968.85	225.90
969.14	225.81
969.43	225.85
969.73	225.81
970.02	225.78
970.32	225.77
970.61	225.71
970.91	225.57
971.20	225.48
971.49	225.43
971.79	225.56
972.08	225.23
972.38	225.30
972.67	225.25
972.96	225.32
973.26	225.23
973.55	225.32
973.85	225.30
974.14	225.22
974.43	225.18
974.73	225.08
975.02	225.11
975.31	225.21
975.61	225.20
975.90	225.22
976.19	225.18
976.49	225.17
976.78	225.33
977.07	225.34
977.37	225.46
977.66	225.50
977.95	225.41
978.24	225.39
978.54	225.54
978.83	225.57
979.12	225.54
979.42	225.56
979.71	225.49
980.00	225.54
980.29	225.70
980.59	225.68
980.88	225.89
981.17	225.89
981.46	225.87
981.76	225.85
982.05	225.96
982.34	225.99
982.63	226.07
982.93	226.06
983.22	226.21
983.51	226.22
983.80	226.35
984.09	226.46
984.39	226.51
984.68	226.44
984.97	226.53
985.26	226.52
985.55	226.62
985.85	226.50
986.14	226.60
986.43	226.56
986.72	226.52
987.01	226.37
987.30	226.33
987.59	226.29
987.89	226.24
988.18	226.15
988.47	226.16
988.76	226.04
989.05	225.97
989.34	225.84
989.63	226.01
989.92	225.89
990.22	225.80
990.51	225.75
990.80	225.69
991.09	225.63
991.38	225.73
991.67	225.68
991.96	225.67
992.25	225.64
992.54	225.57
992.83	225.60
993.12	225.55
993.41	225.65
993.70	225.85
993.99	226.06
994.28	226.10
994.58	226.14
994.87	226.12
995.16	226.09
995.45	225.98
995.74	225.76
996.03	225.89
996.32	225.93
996.61	226.03
996.90	226.02
997.19	226.02
997.48	225.97
997.77	225.90
998.06	225.91
998.34	225.89
998.63	225.93
998.92	225.94
999.21	226.01
999.50	225.96
999.79	225.76
1000.08	225.66
1000.37	225.60
1000.66	225.51
1000.95	225.66
1001.24	225.67
1001.53	225.85
1001.82	225.86
1002.11	225.72
1002.40	225.80
1002.68	225.94
1002.97	226.25
1003.26	226.24
1003.55	226.11
1003.84	226.11
1004.13	226.35
1004.42	226.27
1004.71	226.22
1004.99	226.17
1005.28	226.30
1005.57	226.30
1005.86	226.32
1006.15	226.26
1006.44	226.22
1006.72	226.28
1007.01	226.15
1007.30	226.18
1007.59	226.11
1007.88	226.12
1008.17	226.08
1008.45	225.92
1008.74	225.73
1009.03	225.52
1009.32	225.55
1009.60	225.62
1009.89	225.61
1010.18	225.38
1010.47	225.37
1010.76	225.40
1011.04	225.41
1011.33	225.40
1011.62	225.42
1011.91	225.41
1012.19	225.48
1012.48	225.50
1012.77	225.44
1013.05	225.73
1013.34	225.72
1013.63	225.71
1013.92	225.75
1014.20	225.80
1014.49	225.86
1014.78	225.94
1015.06	225.77
1015.35	225.73
1015.64	225.78
1015.92	225.85
1016.21	225.89
1016.50	225.92
1016.78	226.02
1017.07	226.10
1017.36	226.00
1017.64	225.99
1017.93	226.04
1018.22	225.92
1018.50	225.91
1018.79	225.88
1019.08	225.59
1019.36	225.71
1019.65	225.70
1019.93	225.78
1020.22	225.85
1020.51	226.12
1020.79	226.02
1021.08	223.70
1021.36	224.90
1021.65	224.30
1021.94	225.25
1022.22	227.20
1022.51	225.90
1022.79	228.20
1023.08	226.50
1023.36	231.90
1023.65	224.30
>>>>>End Processed Spectral Data<<<<<
