SpectraSuite Data File
++++++++++++++++++++++++++++++++++++
Date: Wed Sep 04 17:54:43 EDT 2013
User: lab3
Dark Spectrum Present: Yes
Reference Spectrum Present: No
Number of Sampled Component Spectra: 1
Spectrometers: USB2E7196
Integration Time (usec): 170000 (USB2E7196)
Spectra Averaged: 20 (USB2E7196)
Boxcar Smoothing: 10 (USB2E7196)
Correct for Electrical Dark: No (USB2E7196)
Strobe/Lamp Enabled: No (USB2E7196)
Correct for Detector Non-linearity: No (USB2E7196)
Correct for Stray Light: No (USB2E7196)
Number of Pixels in Processed Spectrum: 2048
>>>>>Begin Processed Spectral Data<<<<<
339.09	0.00
339.48	212.90
339.86	214.95
340.24	216.20
340.63	217.35
341.01	226.65
341.39	219.65
341.78	220.85
342.16	223.95
342.54	223.05
342.93	212.41
343.31	223.09
343.69	223.61
344.07	224.09
344.46	224.63
344.84	225.11
345.22	225.02
345.60	225.33
345.99	225.57
346.37	225.71
346.75	225.80
347.13	225.88
347.52	226.05
347.90	226.25
348.28	226.22
348.66	226.27
349.05	226.13
349.43	226.15
349.81	226.26
350.19	226.18
350.57	226.11
350.96	226.19
351.34	226.37
351.72	226.46
352.10	226.55
352.48	226.57
352.87	226.55
353.25	226.61
353.63	226.65
354.01	226.68
354.39	226.77
354.77	226.86
355.15	227.06
355.54	227.06
355.92	227.05
356.30	227.12
356.68	227.51
357.06	227.54
357.44	227.56
357.82	227.59
358.20	228.15
358.58	228.31
358.97	228.39
359.35	228.49
359.73	228.67
360.11	228.72
360.49	228.79
360.87	228.82
361.25	228.97
361.63	229.25
362.01	229.35
362.39	229.30
362.77	229.38
363.15	229.39
363.53	229.37
363.91	229.39
364.29	229.50
364.67	229.10
365.05	229.14
365.43	229.31
365.81	229.45
366.19	229.27
366.57	229.44
366.95	229.45
367.33	229.35
367.71	229.38
368.09	229.47
368.47	229.43
368.85	229.41
369.23	229.55
369.61	229.26
369.99	229.47
370.37	229.60
370.75	229.91
371.13	229.86
371.51	229.84
371.89	229.93
372.27	229.91
372.65	230.01
373.03	230.06
373.41	229.90
373.78	229.86
374.16	229.62
374.54	229.44
374.92	229.38
375.30	229.36
375.68	229.24
376.06	229.17
376.44	229.11
376.82	229.09
377.19	228.94
377.57	228.92
377.95	228.63
378.33	228.47
378.71	228.12
379.09	228.07
379.47	228.08
379.84	227.91
380.22	227.84
380.60	227.69
380.98	227.55
381.36	227.55
381.73	227.32
382.11	227.39
382.49	227.32
382.87	227.17
383.25	227.16
383.62	227.64
384.00	227.49
384.38	227.51
384.76	227.56
385.13	227.72
385.51	227.65
385.89	227.54
386.27	227.52
386.64	227.43
387.02	227.42
387.40	227.31
387.78	227.31
388.15	227.23
388.53	227.10
388.91	227.09
389.29	227.04
389.66	227.09
390.04	226.99
390.42	227.07
390.79	227.05
391.17	227.05
391.55	226.42
391.92	226.44
392.30	226.35
392.68	226.25
393.05	226.16
393.43	226.22
393.81	226.37
394.18	226.29
394.56	226.33
394.94	226.42
395.31	226.48
395.69	226.63
396.06	226.69
396.44	226.84
396.82	226.82
397.19	227.06
397.57	227.10
397.95	227.15
398.32	227.01
398.70	227.13
399.07	227.22
399.45	227.37
399.82	227.42
400.20	227.51
400.58	227.55
400.95	227.46
401.33	227.66
401.70	228.00
402.08	228.15
402.45	228.34
402.83	228.54
403.20	228.65
403.58	228.69
403.95	228.96
404.33	229.15
404.71	229.44
405.08	229.85
405.46	230.02
405.83	230.27
406.21	230.64
406.58	230.95
406.96	231.20
407.33	231.55
407.70	232.01
408.08	232.70
408.45	233.14
408.83	233.67
409.20	233.97
409.58	234.22
409.95	234.80
410.33	235.25
410.70	235.54
411.08	236.22
411.45	236.83
411.82	237.42
412.20	238.25
412.57	239.21
412.95	239.51
413.32	240.42
413.69	241.30
414.07	242.17
414.44	243.11
414.82	244.11
415.19	245.28
415.56	246.40
415.94	247.50
416.31	249.03
416.68	250.33
417.06	252.01
417.43	253.54
417.81	255.21
418.18	256.99
418.55	259.07
418.93	261.04
419.30	263.17
419.67	265.35
420.04	267.54
420.42	269.82
420.79	273.00
421.16	275.75
421.54	278.80
421.91	281.84
422.28	284.97
422.66	288.21
423.03	291.55
423.40	294.89
423.77	298.38
424.15	301.84
424.52	305.72
424.89	309.81
425.26	313.69
425.64	317.56
426.01	321.81
426.38	326.10
426.75	330.60
427.13	335.21
427.50	339.95
427.87	344.95
428.24	349.87
428.61	354.32
428.99	359.62
429.36	365.05
429.73	370.53
430.10	376.04
430.47	381.80
430.85	387.55
431.22	393.84
431.59	400.55
431.96	406.78
432.33	413.61
432.70	420.27
433.08	428.17
433.45	435.57
433.82	443.00
434.19	451.23
434.56	459.46
434.93	466.92
435.30	474.70
435.68	483.25
436.05	491.58
436.42	499.92
436.79	507.61
437.16	515.85
437.53	524.56
437.90	533.32
438.27	541.82
438.64	550.63
439.01	558.85
439.38	566.00
439.75	573.25
440.13	581.25
440.50	588.91
440.87	595.00
441.24	601.33
441.61	608.18
441.98	613.11
442.35	618.74
442.72	624.97
443.09	630.83
443.46	634.27
443.83	636.54
444.20	638.42
444.57	641.10
444.94	642.29
445.31	643.56
445.68	644.87
446.05	645.05
446.42	643.89
446.79	642.48
447.16	640.96
447.53	639.65
447.90	636.02
448.27	632.26
448.64	627.41
449.01	623.65
449.37	617.51
449.74	611.62
450.11	604.88
450.48	596.95
450.85	588.77
451.22	581.87
451.59	575.41
451.96	569.13
452.33	561.06
452.70	553.67
453.07	544.80
453.43	535.68
453.80	527.32
454.17	519.32
454.54	511.46
454.91	503.24
455.28	495.24
455.65	487.81
456.02	480.88
456.38	474.57
456.75	466.80
457.12	460.30
457.49	453.99
457.86	447.62
458.23	442.61
458.59	437.13
458.96	431.33
459.33	426.27
459.70	421.20
460.07	417.15
460.43	412.52
460.80	408.36
461.17	404.61
461.54	400.58
461.91	396.70
462.27	392.98
462.64	389.81
463.01	386.34
463.38	383.10
463.74	379.19
464.11	376.25
464.48	373.77
464.85	371.04
465.21	368.92
465.58	366.65
465.95	363.75
466.32	361.42
466.68	359.22
467.05	356.96
467.42	354.76
467.78	352.40
468.15	350.23
468.52	348.61
468.88	346.40
469.25	344.48
469.62	343.02
469.98	341.45
470.35	339.86
470.72	338.38
471.08	336.72
471.45	335.48
471.82	334.21
472.18	332.71
472.55	331.60
472.92	330.19
473.28	329.09
473.65	328.04
474.02	326.95
474.38	326.10
474.75	325.32
475.11	324.50
475.48	323.94
475.85	323.35
476.21	322.71
476.58	322.26
476.94	321.93
477.31	321.41
477.67	320.90
478.04	320.52
478.41	320.30
478.77	320.57
479.14	320.28
479.50	320.14
479.87	320.16
480.23	320.19
480.60	320.17
480.96	320.22
481.33	320.50
481.69	320.76
482.06	320.92
482.42	321.17
482.79	321.59
483.15	322.00
483.52	322.59
483.88	323.01
484.25	323.55
484.61	324.10
484.98	324.80
485.34	325.76
485.71	326.84
486.07	327.84
486.44	328.38
486.80	329.43
487.17	330.55
487.53	331.92
487.90	333.35
488.26	335.08
488.62	336.65
488.99	338.22
489.35	339.99
489.72	341.91
490.08	343.88
490.44	345.89
490.81	348.15
491.17	350.28
491.54	352.85
491.90	355.42
492.26	358.15
492.63	360.98
492.99	363.87
493.36	366.82
493.72	370.07
494.08	373.52
494.45	377.27
494.81	381.21
495.17	385.02
495.54	389.11
495.90	393.37
496.26	397.79
496.63	402.56
496.99	407.30
497.35	412.32
497.72	417.64
498.08	423.00
498.44	428.50
498.80	434.65
499.17	440.65
499.53	446.86
499.89	453.55
500.26	460.40
500.62	467.35
500.98	474.76
501.34	482.25
501.71	489.88
502.07	497.63
502.43	505.60
502.79	514.21
503.16	522.94
503.52	531.78
503.88	540.96
504.24	550.57
504.60	560.66
504.97	571.02
505.33	581.39
505.69	592.39
506.05	603.44
506.41	614.56
506.78	626.35
507.14	638.46
507.50	650.82
507.86	663.28
508.22	676.30
508.59	689.41
508.95	703.13
509.31	717.38
509.67	731.74
510.03	746.07
510.39	760.59
510.75	775.55
511.12	790.86
511.48	806.63
511.84	822.40
512.20	838.20
512.56	854.49
512.92	871.19
513.28	887.94
513.64	905.16
514.00	922.65
514.37	940.29
514.73	958.23
515.09	976.31
515.45	994.66
515.81	1012.91
516.17	1031.77
516.53	1050.19
516.89	1068.74
517.25	1087.90
517.61	1108.03
517.97	1128.18
518.33	1148.06
518.69	1168.33
519.05	1188.60
519.41	1209.18
519.77	1230.20
520.13	1251.12
520.49	1271.78
520.85	1294.01
521.21	1315.45
521.57	1336.88
521.93	1357.64
522.29	1378.85
522.65	1399.58
523.01	1420.38
523.37	1440.96
523.73	1461.66
524.09	1482.24
524.45	1503.03
524.81	1524.25
525.17	1544.82
525.53	1565.39
525.89	1586.60
526.25	1607.30
526.61	1627.71
526.97	1648.70
527.33	1670.03
527.68	1691.76
528.04	1713.25
528.40	1733.14
528.76	1753.82
529.12	1774.24
529.48	1795.21
529.84	1815.47
530.20	1836.63
530.56	1857.58
530.91	1878.71
531.27	1899.25
531.63	1919.92
531.99	1940.39
532.35	1960.19
532.71	1980.60
533.07	2001.18
533.42	2020.75
533.78	2040.62
534.14	2060.49
534.50	2079.66
534.86	2098.70
535.21	2115.88
535.57	2134.31
535.93	2151.83
536.29	2169.60
536.65	2187.37
537.00	2204.89
537.36	2222.32
537.72	2238.72
538.08	2255.67
538.44	2272.17
538.79	2288.54
539.15	2305.07
539.51	2320.84
539.87	2335.93
540.22	2349.74
540.58	2364.19
540.94	2377.42
541.29	2390.05
541.65	2402.58
542.01	2414.96
542.37	2425.60
542.72	2436.81
543.08	2447.15
543.44	2458.83
543.79	2468.68
544.15	2478.50
544.51	2488.49
544.87	2498.13
545.22	2506.52
545.58	2514.21
545.94	2521.56
546.29	2527.89
546.65	2534.19
547.01	2539.96
547.36	2545.64
547.72	2551.12
548.07	2555.01
548.43	2560.37
548.79	2565.11
549.14	2569.27
549.50	2572.92
549.86	2577.01
550.21	2580.82
550.57	2584.40
550.92	2585.65
551.28	2586.95
551.64	2589.46
551.99	2591.34
552.35	2593.02
552.70	2595.50
553.06	2597.28
553.41	2598.28
553.77	2600.16
554.13	2601.85
554.48	2603.38
554.84	2604.52
555.19	2605.70
555.55	2607.51
555.90	2606.85
556.26	2605.76
556.61	2604.35
556.97	2602.01
557.32	2601.12
557.68	2599.74
558.03	2598.19
558.39	2597.14
558.74	2596.58
559.10	2593.37
559.45	2589.80
559.81	2585.55
560.16	2580.11
560.52	2575.32
560.87	2571.13
561.23	2565.68
561.58	2559.80
561.94	2552.82
562.29	2545.54
562.64	2538.54
563.00	2530.13
563.35	2523.33
563.71	2516.90
564.06	2510.35
564.42	2504.30
564.77	2497.33
565.12	2489.87
565.48	2481.96
565.83	2473.90
566.19	2465.62
566.54	2457.74
566.89	2449.32
567.25	2441.12
567.60	2434.15
567.96	2426.63
568.31	2418.61
568.66	2409.87
569.02	2400.48
569.37	2392.60
569.72	2385.18
570.08	2375.93
570.43	2366.35
570.78	2357.35
571.14	2347.88
571.49	2338.03
571.84	2328.24
572.20	2317.47
572.55	2307.34
572.90	2296.37
573.26	2286.15
573.61	2275.15
573.96	2263.85
574.31	2252.19
574.67	2240.47
575.02	2227.58
575.37	2214.88
575.72	2201.65
576.08	2189.86
576.43	2177.51
576.78	2163.98
577.13	2150.29
577.49	2137.73
577.84	2126.19
578.19	2114.43
578.54	2101.80
578.90	2089.55
579.25	2077.37
579.60	2064.83
579.95	2051.80
580.30	2038.90
580.66	2025.23
581.01	2011.65
581.36	1997.69
581.71	1985.03
582.06	1972.24
582.42	1959.85
582.77	1947.15
583.12	1935.26
583.47	1922.79
583.82	1911.04
584.17	1899.54
584.53	1887.69
584.88	1874.48
585.23	1861.25
585.58	1846.96
585.93	1833.99
586.28	1820.95
586.63	1807.00
586.98	1792.72
587.34	1779.34
587.69	1765.95
588.04	1753.65
588.39	1741.79
588.74	1729.75
589.09	1717.39
589.44	1704.64
589.79	1692.33
590.14	1680.61
590.49	1668.50
590.84	1656.42
591.19	1643.99
591.54	1631.76
591.89	1619.63
592.25	1609.69
592.60	1598.23
592.95	1586.76
593.30	1574.81
593.65	1562.97
594.00	1550.92
594.35	1541.38
594.70	1529.78
595.05	1518.67
595.40	1506.58
595.75	1494.50
596.10	1483.45
596.45	1472.15
596.80	1461.21
597.15	1449.91
597.50	1437.80
597.85	1426.46
598.19	1414.83
598.54	1403.45
598.89	1391.96
599.24	1381.29
599.59	1369.38
599.94	1358.45
600.29	1348.10
600.64	1337.78
600.99	1326.81
601.34	1317.17
601.69	1305.98
602.04	1296.27
602.39	1286.55
602.74	1277.32
603.08	1267.90
603.43	1258.54
603.78	1248.96
604.13	1239.43
604.48	1230.01
604.83	1220.35
605.18	1210.39
605.53	1201.12
605.87	1191.88
606.22	1183.34
606.57	1173.96
606.92	1164.82
607.27	1155.97
607.62	1147.24
607.96	1138.57
608.31	1130.82
608.66	1122.51
609.01	1113.95
609.36	1105.41
609.70	1096.86
610.05	1088.28
610.40	1080.04
610.75	1071.34
611.10	1062.91
611.44	1054.31
611.79	1045.87
612.14	1037.98
612.49	1030.23
612.83	1022.67
613.18	1015.02
613.53	1007.31
613.88	999.50
614.22	991.70
614.57	983.67
614.92	975.65
615.27	968.17
615.61	960.32
615.96	952.58
616.31	945.13
616.65	938.01
617.00	930.48
617.35	923.36
617.70	916.08
618.04	908.94
618.39	901.87
618.74	895.52
619.08	888.83
619.43	881.98
619.78	874.98
620.12	867.69
620.47	860.69
620.82	853.41
621.16	846.57
621.51	840.32
621.85	834.28
622.20	827.91
622.55	821.26
622.89	814.75
623.24	808.49
623.59	801.95
623.93	795.55
624.28	789.74
624.62	784.11
624.97	778.44
625.32	772.70
625.66	766.91
626.01	760.85
626.35	755.13
626.70	749.63
627.04	744.39
627.39	738.94
627.73	733.69
628.08	728.77
628.43	723.32
628.77	717.80
629.12	712.40
629.46	707.45
629.81	702.91
630.15	698.16
630.50	693.36
630.84	688.70
631.19	683.95
631.53	679.36
631.88	673.98
632.22	669.02
632.57	664.53
632.91	659.94
633.26	655.40
633.60	650.82
633.95	646.09
634.29	641.41
634.64	637.12
634.98	632.40
635.32	627.98
635.67	624.00
636.01	620.00
636.36	615.61
636.70	611.60
637.05	607.20
637.39	603.11
637.73	599.05
638.08	595.05
638.42	590.78
638.77	586.44
639.11	582.10
639.45	577.82
639.80	573.42
640.14	569.27
640.49	565.19
640.83	561.55
641.17	557.91
641.52	554.04
641.86	550.29
642.20	547.00
642.55	543.32
642.89	539.64
643.23	536.07
643.58	532.94
643.92	529.13
644.26	525.81
644.61	522.72
644.95	519.21
645.29	515.73
645.64	512.59
645.98	509.39
646.32	506.61
646.66	503.57
647.01	500.59
647.35	497.97
647.69	495.17
648.04	492.30
648.38	489.45
648.72	486.64
649.06	483.71
649.41	480.68
649.75	477.62
650.09	474.74
650.43	471.96
650.78	469.05
651.12	466.38
651.46	463.72
651.80	460.77
652.14	458.15
652.49	455.71
652.83	453.24
653.17	450.71
653.51	447.88
653.85	445.36
654.20	442.93
654.54	440.28
654.88	437.77
655.22	435.47
655.56	433.17
655.90	430.85
656.25	428.54
656.59	426.32
656.93	424.28
657.27	422.31
657.61	419.84
657.95	417.58
658.29	415.45
658.64	413.28
658.98	411.08
659.32	408.93
659.66	406.71
660.00	404.57
660.34	402.53
660.68	400.60
661.02	398.69
661.36	396.80
661.70	394.81
662.05	392.83
662.39	390.88
662.73	389.03
663.07	387.47
663.41	385.71
663.75	383.74
664.09	381.80
664.43	379.81
664.77	378.14
665.11	376.40
665.45	374.82
665.79	373.13
666.13	371.45
666.47	369.76
666.81	368.15
667.15	366.46
667.49	364.82
667.83	363.44
668.17	361.86
668.51	360.33
668.85	359.01
669.19	357.92
669.53	356.39
669.87	354.82
670.21	353.28
670.55	351.83
670.89	350.77
671.23	349.49
671.57	348.21
671.91	346.94
672.25	345.62
672.58	344.27
672.92	342.86
673.26	341.64
673.60	340.52
673.94	339.34
674.28	338.21
674.62	337.17
674.96	335.87
675.30	334.73
675.64	333.45
675.97	332.13
676.31	330.68
676.65	329.42
676.99	328.42
677.33	327.19
677.67	326.13
678.01	324.81
678.34	323.70
678.68	322.73
679.02	321.60
679.36	320.62
679.70	319.55
680.04	318.56
680.37	317.59
680.71	316.58
681.05	315.62
681.39	314.70
681.73	313.70
682.06	312.74
682.40	311.92
682.74	311.21
683.08	310.44
683.42	309.60
683.75	308.93
684.09	308.05
684.43	307.30
684.77	306.45
685.10	305.60
685.44	304.85
685.78	303.90
686.12	303.08
686.45	302.29
686.79	301.55
687.13	300.89
687.46	300.16
687.80	299.49
688.14	298.70
688.48	297.91
688.81	297.25
689.15	296.71
689.49	295.92
689.82	295.15
690.16	294.28
690.50	293.65
690.83	292.83
691.17	292.04
691.51	291.36
691.84	290.76
692.18	290.13
692.52	289.38
692.85	288.83
693.19	288.39
693.52	287.76
693.86	286.97
694.20	286.31
694.53	285.64
694.87	285.01
695.21	284.36
695.54	283.85
695.88	283.17
696.21	282.35
696.55	281.80
696.88	281.23
697.22	280.69
697.56	280.02
697.89	279.43
698.23	278.98
698.56	278.39
698.90	277.87
699.23	277.28
699.57	276.80
699.90	276.32
700.24	275.70
700.58	275.20
700.91	274.96
701.25	274.85
701.58	274.72
701.92	274.34
702.25	273.93
702.59	273.43
702.92	273.03
703.26	272.78
703.59	272.33
703.93	272.23
704.26	271.90
704.60	271.58
704.93	271.16
705.26	270.68
705.60	270.29
705.93	269.76
706.27	269.56
706.60	269.33
706.94	269.08
707.27	268.68
707.61	268.35
707.94	267.87
708.27	267.13
708.61	266.35
708.94	265.91
709.28	265.51
709.61	265.02
709.94	264.65
710.28	264.21
710.61	263.91
710.95	263.19
711.28	263.14
711.61	262.73
711.95	262.53
712.28	262.23
712.61	261.94
712.95	261.85
713.28	261.73
713.61	261.20
713.95	260.68
714.28	260.39
714.61	259.95
714.95	259.63
715.28	259.28
715.61	259.00
715.95	258.74
716.28	258.44
716.61	258.24
716.95	257.87
717.28	257.52
717.61	257.14
717.94	256.85
718.28	256.17
718.61	255.90
718.94	255.48
719.27	255.19
719.61	254.93
719.94	254.52
720.27	253.94
720.60	253.67
720.94	253.45
721.27	253.21
721.60	253.11
721.93	252.85
722.27	252.76
722.60	252.60
722.93	252.30
723.26	252.07
723.59	251.79
723.93	251.66
724.26	251.56
724.59	251.35
724.92	251.21
725.25	251.13
725.59	250.95
725.92	250.80
726.25	250.51
726.58	250.30
726.91	250.05
727.24	249.89
727.57	249.72
727.91	249.43
728.24	249.26
728.57	248.94
728.90	248.85
729.23	248.54
729.56	248.58
729.89	248.39
730.22	248.17
730.55	248.03
730.89	247.83
731.22	247.61
731.55	247.40
731.88	247.21
732.21	246.92
732.54	246.65
732.87	246.53
733.20	246.42
733.53	246.26
733.86	246.14
734.19	245.90
734.52	245.79
734.85	246.02
735.18	245.81
735.51	245.85
735.84	245.69
736.17	245.62
736.50	245.18
736.83	245.55
737.16	245.46
737.49	245.34
737.82	245.17
738.15	245.03
738.48	244.90
738.81	244.74
739.14	244.59
739.47	244.45
739.80	244.26
740.13	244.17
740.46	243.96
740.79	243.78
741.12	243.68
741.45	243.43
741.78	243.04
742.11	243.00
742.44	242.77
742.77	242.69
743.10	242.53
743.43	242.38
743.75	241.71
744.08	242.27
744.41	242.11
744.74	241.93
745.07	241.73
745.40	241.68
745.73	241.71
746.06	241.53
746.39	241.51
746.71	241.34
747.04	241.12
747.37	240.95
747.70	240.92
748.03	240.76
748.36	240.79
748.68	240.61
749.01	240.38
749.34	240.22
749.67	240.07
750.00	239.96
750.33	240.24
750.65	240.15
750.98	239.32
751.31	239.21
751.64	239.17
751.97	239.27
752.29	239.06
752.62	238.77
752.95	238.66
753.28	238.46
753.60	238.34
753.93	238.39
754.26	238.39
754.59	238.15
754.91	238.10
755.24	237.96
755.57	237.87
755.90	237.72
756.22	237.57
756.55	237.38
756.88	237.24
757.20	236.84
757.53	236.63
757.86	236.57
758.19	236.51
758.51	236.40
758.84	236.16
759.17	236.04
759.49	235.98
759.82	236.15
760.15	236.11
760.47	236.11
760.80	235.89
761.13	235.82
761.45	235.72
761.78	235.59
762.11	235.44
762.43	235.32
762.76	235.22
763.08	235.18
763.41	235.15
763.74	234.97
764.06	234.87
764.39	234.84
764.71	234.69
765.04	234.55
765.37	234.46
765.69	234.32
766.02	234.26
766.34	234.11
766.67	233.88
767.00	233.88
767.32	233.99
767.65	234.20
767.97	234.19
768.30	234.19
768.62	234.20
768.95	234.12
769.27	234.06
769.60	234.14
769.92	234.02
770.25	233.89
770.57	233.86
770.90	233.68
771.22	233.59
771.55	233.55
771.87	233.46
772.20	233.39
772.52	233.76
772.85	234.25
773.17	234.28
773.50	234.19
773.82	234.08
774.15	233.80
774.47	233.55
774.80	233.37
775.12	233.25
775.45	233.11
775.77	233.10
776.09	233.09
776.42	233.00
776.74	233.04
777.07	232.96
777.39	232.95
777.72	232.96
778.04	232.97
778.36	232.93
778.69	232.95
779.01	232.91
779.33	232.45
779.66	231.90
779.98	231.78
780.31	231.75
780.63	231.93
780.95	231.91
781.28	231.80
781.60	231.73
781.92	231.70
782.25	231.70
782.57	231.64
782.89	231.58
783.22	231.50
783.54	231.42
783.86	231.46
784.19	231.41
784.51	231.49
784.83	231.34
785.16	231.30
785.48	231.25
785.80	231.25
786.12	231.22
786.45	231.21
786.77	231.18
787.09	231.14
787.42	230.90
787.74	230.93
788.06	230.93
788.38	230.85
788.71	230.77
789.03	230.74
789.35	230.79
789.67	230.62
789.99	230.67
790.32	230.57
790.64	230.51
790.96	230.89
791.28	230.74
791.61	230.70
791.93	230.64
792.25	230.60
792.57	230.92
792.89	230.81
793.21	230.80
793.54	230.70
793.86	230.56
794.18	230.49
794.50	230.34
794.82	230.27
795.14	230.31
795.47	230.39
795.79	230.39
796.11	230.27
796.43	230.31
796.75	230.23
797.07	230.22
797.39	230.20
797.71	229.76
798.04	229.71
798.36	229.75
798.68	229.77
799.00	229.75
799.32	229.40
799.64	229.51
799.96	229.49
800.28	229.58
800.60	229.63
800.92	229.63
801.24	229.63
801.56	229.61
801.89	229.61
802.21	229.63
802.53	229.50
802.85	229.60
803.17	229.87
803.49	229.77
803.81	229.76
804.13	229.71
804.45	229.70
804.77	229.74
805.09	229.67
805.41	229.66
805.73	229.64
806.05	229.55
806.37	229.55
806.69	229.40
807.01	229.45
807.33	229.42
807.65	229.28
807.97	229.52
808.28	229.49
808.60	229.44
808.92	229.32
809.24	229.60
809.56	229.56
809.88	229.33
810.20	229.38
810.52	229.46
810.84	229.44
811.16	229.34
811.48	229.30
811.80	229.51
812.12	229.42
812.43	229.47
812.75	229.43
813.07	229.31
813.39	229.47
813.71	229.36
814.03	229.30
814.35	229.30
814.67	229.09
814.98	229.03
815.30	229.04
815.62	228.99
815.94	228.68
816.26	228.87
816.58	228.74
816.89	228.71
817.21	228.53
817.53	228.52
817.85	228.52
818.17	228.45
818.48	228.23
818.80	228.35
819.12	228.28
819.44	228.26
819.76	228.19
820.07	228.15
820.39	228.04
820.71	228.15
821.03	228.12
821.34	228.10
821.66	228.12
821.98	228.10
822.30	228.05
822.61	228.31
822.93	228.03
823.25	228.00
823.57	227.93
823.88	228.05
824.20	228.05
824.52	228.14
824.83	228.17
825.15	228.10
825.47	228.04
825.79	228.05
826.10	228.03
826.42	228.08
826.74	227.97
827.05	227.99
827.37	227.94
827.69	227.91
828.00	227.83
828.32	227.83
828.64	227.73
828.95	227.98
829.27	227.87
829.58	227.87
829.90	227.89
830.22	227.97
830.53	227.87
830.85	227.80
831.17	227.64
831.48	227.61
831.80	227.66
832.11	227.62
832.43	227.50
832.75	227.47
833.06	227.69
833.38	227.64
833.69	227.60
834.01	227.59
834.32	227.60
834.64	227.57
834.96	227.55
835.27	227.54
835.59	227.39
835.90	227.24
836.22	227.22
836.53	227.16
836.85	227.10
837.16	227.56
837.48	227.56
837.79	227.76
838.11	227.76
838.42	227.73
838.74	227.78
839.05	227.80
839.37	227.72
839.68	227.44
840.00	227.47
840.31	227.59
840.63	227.55
840.94	227.50
841.26	227.46
841.57	227.51
841.88	227.55
842.20	227.45
842.51	227.39
842.83	227.36
843.14	227.83
843.46	227.83
843.77	227.53
844.08	227.50
844.40	227.34
844.71	227.31
845.03	227.32
845.34	227.26
845.65	227.25
845.97	227.28
846.28	227.37
846.60	227.35
846.91	227.23
847.22	227.18
847.54	227.29
847.85	227.38
848.16	227.32
848.48	227.22
848.79	227.35
849.10	227.48
849.42	227.58
849.73	227.04
850.04	227.01
850.36	226.79
850.67	226.86
850.98	226.87
851.30	226.93
851.61	226.89
851.92	226.89
852.23	227.05
852.55	227.14
852.86	227.07
853.17	227.14
853.49	227.26
853.80	227.40
854.11	227.48
854.42	227.54
854.74	227.48
855.05	227.60
855.36	227.45
855.67	227.43
855.99	227.38
856.30	227.96
856.61	227.96
856.92	228.11
857.23	228.07
857.55	228.03
857.86	227.89
858.17	227.90
858.48	227.83
858.79	227.63
859.11	227.62
859.42	227.56
859.73	227.44
860.04	227.37
860.35	227.19
860.66	227.00
860.98	226.86
861.29	226.92
861.60	226.85
861.91	227.03
862.22	226.92
862.53	226.84
862.84	226.29
863.16	226.37
863.47	226.18
863.78	226.17
864.09	226.15
864.40	226.28
864.71	226.31
865.02	226.36
865.33	226.36
865.64	226.33
865.95	226.43
866.27	226.77
866.58	226.70
866.89	226.80
867.20	226.79
867.51	226.71
867.82	226.65
868.13	226.83
868.44	226.64
868.75	226.78
869.06	226.88
869.37	226.93
869.68	226.83
869.99	226.95
870.30	226.98
870.61	227.06
870.92	226.99
871.23	226.93
871.54	227.04
871.85	227.15
872.16	227.20
872.47	227.11
872.78	226.80
873.09	226.92
873.40	226.83
873.71	226.93
874.02	226.98
874.33	226.97
874.64	226.80
874.95	226.89
875.26	226.73
875.56	226.63
875.87	226.62
876.18	226.62
876.49	227.05
876.80	226.98
877.11	226.88
877.42	226.86
877.73	226.89
878.04	226.74
878.35	226.65
878.66	226.59
878.96	226.58
879.27	226.50
879.58	226.36
879.89	226.35
880.20	226.44
880.51	226.47
880.82	226.52
881.12	226.54
881.43	226.44
881.74	226.43
882.05	226.41
882.36	226.45
882.67	226.44
882.97	226.06
883.28	226.02
883.59	226.03
883.90	226.07
884.21	226.24
884.51	226.27
884.82	226.30
885.13	226.26
885.44	226.32
885.74	226.39
886.05	226.51
886.36	226.57
886.67	226.44
886.98	226.71
887.28	226.72
887.59	226.78
887.90	226.83
888.20	226.88
888.51	227.09
888.82	227.03
889.13	227.09
889.43	227.37
889.74	227.36
890.05	227.43
890.35	227.42
890.66	227.29
890.97	227.25
891.28	227.23
891.58	227.30
891.89	227.32
892.20	227.28
892.50	227.25
892.81	227.25
893.12	227.19
893.42	227.02
893.73	227.06
894.04	227.00
894.34	227.01
894.65	226.92
894.95	226.80
895.26	226.79
895.57	227.05
895.87	226.64
896.18	226.80
896.48	226.74
896.79	226.69
897.10	226.77
897.40	226.79
897.71	226.82
898.01	226.73
898.32	226.74
898.63	226.76
898.93	226.72
899.24	226.69
899.54	226.70
899.85	226.61
900.15	226.55
900.46	226.56
900.76	226.64
901.07	226.70
901.38	226.65
901.68	226.70
901.99	226.40
902.29	226.40
902.60	226.29
902.90	226.20
903.21	226.25
903.51	226.17
903.82	226.29
904.12	226.25
904.43	226.30
904.73	226.25
905.03	226.31
905.34	226.76
905.64	226.71
905.95	226.78
906.25	226.76
906.56	226.78
906.86	226.77
907.17	226.66
907.47	226.62
907.77	226.57
908.08	226.45
908.38	226.46
908.69	226.50
908.99	226.54
909.30	226.65
909.60	226.62
909.90	226.68
910.21	226.51
910.51	226.47
910.81	226.46
911.12	226.46
911.42	226.37
911.73	225.90
912.03	225.98
912.33	225.99
912.64	225.98
912.94	225.86
913.24	225.81
913.55	225.82
913.85	225.75
914.15	225.80
914.46	225.91
914.76	225.82
915.06	225.75
915.37	225.74
915.67	225.72
915.97	225.73
916.27	225.51
916.58	225.48
916.88	225.49
917.18	225.52
917.49	225.89
917.79	225.92
918.09	225.96
918.39	226.04
918.70	225.98
919.00	225.97
919.30	226.23
919.60	226.18
919.91	226.11
920.21	226.17
920.51	226.13
920.81	226.11
921.12	226.25
921.42	226.32
921.72	226.33
922.02	226.37
922.32	226.44
922.63	226.60
922.93	226.90
923.23	226.92
923.53	226.85
923.83	226.51
924.13	226.52
924.44	226.50
924.74	226.58
925.04	226.72
925.34	226.70
925.64	226.56
925.94	226.57
926.24	226.87
926.55	226.84
926.85	226.91
927.15	226.89
927.45	226.87
927.75	226.93
928.05	226.95
928.35	226.92
928.65	227.05
928.95	227.03
929.26	226.83
929.56	226.88
929.86	226.96
930.16	226.87
930.46	226.86
930.76	226.90
931.06	226.69
931.36	226.58
931.66	226.71
931.96	226.72
932.26	226.78
932.56	226.56
932.86	226.67
933.16	226.69
933.46	226.69
933.76	226.62
934.06	226.69
934.36	226.85
934.66	226.90
934.96	226.77
935.26	226.82
935.56	226.96
935.86	226.86
936.16	226.76
936.46	226.77
936.76	226.80
937.06	226.77
937.36	226.77
937.66	226.78
937.96	226.66
938.26	226.64
938.56	226.58
938.86	226.69
939.16	226.72
939.46	226.71
939.76	226.75
940.06	226.70
940.35	226.55
940.65	226.25
940.95	226.21
941.25	226.08
941.55	226.00
941.85	225.92
942.15	226.02
942.45	226.12
942.75	226.09
943.04	226.07
943.34	226.19
943.64	226.13
943.94	226.09
944.24	226.10
944.54	226.07
944.84	226.02
945.13	225.90
945.43	225.79
945.73	225.72
946.03	225.65
946.33	225.63
946.62	225.55
946.92	225.56
947.22	225.58
947.52	225.59
947.82	225.69
948.11	225.55
948.41	225.47
948.71	225.38
949.01	225.38
949.31	225.35
949.60	225.25
949.90	225.33
950.20	225.24
950.50	225.31
950.79	225.29
951.09	225.38
951.39	225.35
951.69	225.32
951.98	225.46
952.28	225.49
952.58	225.50
952.87	225.54
953.17	225.68
953.47	225.63
953.76	225.65
954.06	225.54
954.36	225.54
954.66	225.52
954.95	225.68
955.25	225.75
955.55	225.83
955.84	225.77
956.14	225.86
956.44	226.00
956.73	225.85
957.03	225.95
957.32	226.00
957.62	225.97
957.92	226.05
958.21	226.03
958.51	226.59
958.81	226.70
959.10	226.76
959.40	226.82
959.69	226.90
959.99	227.02
960.29	227.06
960.58	227.05
960.88	227.16
961.17	227.10
961.47	227.18
961.76	227.10
962.06	227.17
962.36	227.05
962.65	227.10
962.95	227.14
963.24	227.07
963.54	227.06
963.83	227.08
964.13	227.09
964.42	226.96
964.72	226.57
965.01	226.54
965.31	226.55
965.60	226.40
965.90	226.70
966.19	226.59
966.49	226.62
966.78	226.69
967.08	226.70
967.37	226.72
967.67	226.57
967.96	226.67
968.26	226.62
968.55	226.71
968.85	226.68
969.14	226.72
969.43	226.78
969.73	226.69
970.02	226.72
970.32	226.69
970.61	226.66
970.91	226.59
971.20	226.52
971.49	226.46
971.79	226.50
972.08	226.11
972.38	226.18
972.67	226.14
972.96	226.15
973.26	226.07
973.55	226.18
973.85	226.21
974.14	226.16
974.43	226.20
974.73	226.14
975.02	226.08
975.31	226.01
975.61	225.91
975.90	225.90
976.19	225.88
976.49	225.87
976.78	225.92
977.07	225.85
977.37	225.90
977.66	225.96
977.95	225.97
978.24	226.03
978.54	226.14
978.83	226.05
979.12	226.01
979.42	225.96
979.71	225.91
980.00	225.92
980.29	225.96
980.59	225.94
980.88	226.09
981.17	226.07
981.46	226.11
981.76	226.13
982.05	226.25
982.34	226.23
982.63	226.23
982.93	226.24
983.22	226.34
983.51	226.38
983.80	226.40
984.09	226.49
984.39	226.43
984.68	226.26
984.97	226.35
985.26	226.34
985.55	226.42
985.85	226.26
986.14	226.34
986.43	226.35
986.72	226.34
987.01	226.13
987.30	226.10
987.59	226.15
987.89	226.14
988.18	226.05
988.47	226.03
988.76	226.04
989.05	226.00
989.34	225.96
989.63	226.09
989.92	226.02
990.22	225.90
990.51	225.95
990.80	225.95
991.09	225.97
991.38	226.01
991.67	226.01
991.96	226.05
992.25	226.07
992.54	226.02
992.83	225.94
993.12	226.02
993.41	226.11
993.70	226.25
993.99	226.41
994.28	226.49
994.58	226.60
994.87	226.58
995.16	226.60
995.45	226.56
995.74	226.31
996.03	226.37
996.32	226.43
996.61	226.51
996.90	226.50
997.19	226.52
997.48	226.50
997.77	226.44
998.06	226.40
998.34	226.35
998.63	226.31
998.92	226.45
999.21	226.48
999.50	226.52
999.79	226.37
1000.08	226.36
1000.37	226.35
1000.66	226.21
1000.95	226.35
1001.24	226.41
1001.53	226.40
1001.82	226.47
1002.11	226.34
1002.40	226.36
1002.68	226.57
1002.97	226.89
1003.26	226.78
1003.55	226.73
1003.84	226.79
1004.13	226.97
1004.42	226.94
1004.71	226.92
1004.99	226.84
1005.28	226.96
1005.57	226.97
1005.86	226.86
1006.15	226.82
1006.44	226.71
1006.72	226.92
1007.01	226.81
1007.30	226.80
1007.59	226.85
1007.88	226.82
1008.17	226.90
1008.45	226.81
1008.74	226.50
1009.03	226.33
1009.32	226.35
1009.60	226.35
1009.89	226.35
1010.18	226.20
1010.47	226.22
1010.76	226.21
1011.04	226.20
1011.33	226.17
1011.62	226.14
1011.91	226.25
1012.19	226.23
1012.48	226.32
1012.77	226.25
1013.05	226.48
1013.34	226.43
1013.63	226.40
1013.92	226.45
1014.20	226.47
1014.49	226.53
1014.78	226.55
1015.06	226.36
1015.35	226.35
1015.64	226.43
1015.92	226.39
1016.21	226.42
1016.50	226.33
1016.78	226.40
1017.07	226.41
1017.36	226.28
1017.64	226.21
1017.93	226.14
1018.22	226.15
1018.50	226.09
1018.79	226.06
1019.08	225.85
1019.36	225.81
1019.65	225.73
1019.93	225.82
1020.22	225.92
1020.51	226.13
1020.79	226.07
1021.08	226.25
1021.36	225.45
1021.65	226.40
1021.94	226.40
1022.22	225.05
1022.51	225.10
1022.79	227.75
1023.08	228.15
1023.36	231.40
1023.65	224.70
>>>>>End Processed Spectral Data<<<<<
