SpectraSuite Data File
++++++++++++++++++++++++++++++++++++
Date: Wed Sep 04 17:44:13 EDT 2013
User: lab3
Dark Spectrum Present: Yes
Reference Spectrum Present: No
Number of Sampled Component Spectra: 1
Spectrometers: USB2E7196
Integration Time (usec): 170000 (USB2E7196)
Spectra Averaged: 20 (USB2E7196)
Boxcar Smoothing: 10 (USB2E7196)
Correct for Electrical Dark: No (USB2E7196)
Strobe/Lamp Enabled: No (USB2E7196)
Correct for Detector Non-linearity: No (USB2E7196)
Correct for Stray Light: No (USB2E7196)
Number of Pixels in Processed Spectrum: 2048
>>>>>Begin Processed Spectral Data<<<<<
339.09	0.00
339.48	210.55
339.86	214.75
340.24	215.55
340.63	217.30
341.01	225.40
341.39	220.40
341.78	221.35
342.16	223.55
342.54	222.40
342.93	211.87
343.31	222.55
343.69	223.20
344.07	223.60
344.46	224.13
344.84	224.46
345.22	224.47
345.60	224.75
345.99	225.01
346.37	225.16
346.75	225.35
347.13	225.41
347.52	225.48
347.90	225.64
348.28	225.72
348.66	225.89
349.05	225.66
349.43	225.75
349.81	225.85
350.19	225.92
350.57	226.01
350.96	226.14
351.34	226.26
351.72	226.33
352.10	226.44
352.48	226.41
352.87	226.54
353.25	226.53
353.63	226.53
354.01	226.52
354.39	226.54
354.77	226.54
355.15	226.71
355.54	226.70
355.92	226.63
356.30	226.64
356.68	226.96
357.06	227.14
357.44	227.07
357.82	227.07
358.20	227.51
358.58	227.60
358.97	227.60
359.35	227.73
359.73	227.94
360.11	227.99
360.49	228.10
360.87	228.04
361.25	228.24
361.63	228.45
362.01	228.56
362.39	228.64
362.77	228.66
363.15	228.73
363.53	228.85
363.91	228.95
364.29	229.00
364.67	228.68
365.05	228.67
365.43	228.80
365.81	228.98
366.19	228.79
366.57	228.91
366.95	228.91
367.33	228.81
367.71	228.77
368.09	228.95
368.47	228.93
368.85	229.00
369.23	229.06
369.61	228.85
369.99	228.99
370.37	228.98
370.75	229.20
371.13	229.04
371.51	228.87
371.89	228.78
372.27	228.88
372.65	228.81
373.03	228.82
373.41	228.71
373.78	228.63
374.16	228.41
374.54	228.26
374.92	228.13
375.30	228.10
375.68	227.90
376.06	227.80
376.44	227.64
376.82	227.65
377.19	227.58
377.57	227.50
377.95	227.22
378.33	227.11
378.71	226.79
379.09	226.82
379.47	226.81
379.84	226.71
380.22	226.48
380.60	226.40
380.98	226.26
381.36	226.23
381.73	226.05
382.11	226.08
382.49	225.99
382.87	225.89
383.25	225.81
383.62	226.41
384.00	226.16
384.38	226.14
384.76	226.13
385.13	226.21
385.51	226.17
385.89	226.14
386.27	226.12
386.64	226.16
387.02	226.01
387.40	225.92
387.78	225.90
388.15	225.89
388.53	225.75
388.91	225.67
389.29	225.55
389.66	225.64
390.04	225.55
390.42	225.69
390.79	225.72
391.17	225.74
391.55	225.13
391.92	225.22
392.30	225.32
392.68	225.19
393.05	225.11
393.43	225.12
393.81	225.07
394.18	225.02
394.56	225.00
394.94	225.11
395.31	225.05
395.69	225.29
396.06	225.37
396.44	225.46
396.82	225.56
397.19	225.90
397.57	225.89
397.95	225.99
398.32	225.85
398.70	225.97
399.07	226.10
399.45	226.17
399.82	226.25
400.20	226.24
400.58	226.36
400.95	226.25
401.33	226.41
401.70	226.89
402.08	227.06
402.45	227.22
402.83	227.50
403.20	227.82
403.58	227.86
403.95	228.10
404.33	228.40
404.71	228.62
405.08	229.11
405.46	229.39
405.83	229.64
406.21	229.92
406.58	230.23
406.96	230.50
407.33	230.83
407.70	231.23
408.08	232.03
408.45	232.49
408.83	233.06
409.20	233.53
409.58	233.69
409.95	234.18
410.33	234.73
410.70	235.10
411.08	235.65
411.45	236.29
411.82	236.89
412.20	237.60
412.57	238.60
412.95	238.86
413.32	239.72
413.69	240.52
414.07	241.46
414.44	242.34
414.82	243.31
415.19	244.57
415.56	245.72
415.94	246.66
416.31	248.07
416.68	249.42
417.06	250.99
417.43	252.58
417.81	254.21
418.18	255.92
418.55	257.75
418.93	259.78
419.30	261.87
419.67	264.04
420.04	266.27
420.42	268.47
420.79	271.43
421.16	274.09
421.54	277.08
421.91	279.98
422.28	283.01
422.66	286.22
423.03	289.47
423.40	292.66
423.77	296.01
424.15	299.44
424.52	303.10
424.89	307.13
425.26	311.02
425.64	314.77
426.01	318.84
426.38	323.12
426.75	327.49
427.13	331.85
427.50	336.41
427.87	341.05
428.24	345.85
428.61	350.17
428.99	355.30
429.36	360.69
429.73	365.98
430.10	371.31
430.47	376.79
430.85	382.17
431.22	388.11
431.59	394.65
431.96	400.72
432.33	407.40
432.70	413.64
433.08	421.24
433.45	428.38
433.82	435.59
434.19	443.52
434.56	451.15
434.93	458.50
435.30	466.11
435.68	474.50
436.05	482.49
436.42	490.60
436.79	498.09
437.16	505.98
437.53	514.46
437.90	522.90
438.27	531.31
438.64	540.05
439.01	548.24
439.38	555.42
439.75	562.17
440.13	570.06
440.50	577.48
440.87	583.26
441.24	589.46
441.61	596.08
441.98	601.03
442.35	606.68
442.72	612.68
443.09	618.29
443.46	621.47
443.83	623.73
444.20	625.67
444.57	628.26
444.94	629.37
445.31	630.45
445.68	631.85
446.05	632.01
446.42	630.69
446.79	629.12
447.16	627.45
447.53	626.31
447.90	622.73
448.27	619.28
448.64	614.62
449.01	611.05
449.37	605.25
449.74	599.40
450.11	592.86
450.48	585.32
450.85	577.50
451.22	570.89
451.59	564.56
451.96	558.49
452.33	550.58
452.70	543.43
453.07	535.12
453.43	526.13
453.80	517.83
454.17	510.09
454.54	502.78
454.91	494.94
455.28	487.38
455.65	480.07
456.02	473.46
456.38	467.32
456.75	459.87
457.12	453.55
457.49	447.47
457.86	441.47
458.23	436.48
458.59	431.06
458.96	425.53
459.33	420.63
459.70	415.68
460.07	411.77
460.43	407.38
460.80	403.30
461.17	399.85
461.54	396.05
461.91	392.36
462.27	388.60
462.64	385.35
463.01	381.86
463.38	378.80
463.74	374.95
464.11	372.06
464.48	369.49
464.85	366.77
465.21	364.72
465.58	362.38
465.95	359.59
466.32	357.49
466.68	355.33
467.05	353.23
467.42	351.06
467.78	348.88
468.15	346.80
468.52	345.18
468.88	343.02
469.25	341.23
469.62	339.90
469.98	338.28
470.35	336.83
470.72	335.45
471.08	333.75
471.45	332.43
471.82	331.25
472.18	329.87
472.55	328.82
472.92	327.43
473.28	326.31
473.65	325.27
474.02	324.08
474.38	323.32
474.75	322.59
475.11	321.81
475.48	321.14
475.85	320.45
476.21	319.79
476.58	319.22
476.94	318.78
477.31	318.30
477.67	317.95
478.04	317.59
478.41	317.35
478.77	317.61
479.14	317.36
479.50	317.23
479.87	317.25
480.23	317.22
480.60	317.32
480.96	317.41
481.33	317.77
481.69	318.04
482.06	318.27
482.42	318.46
482.79	318.77
483.15	319.25
483.52	319.81
483.88	320.35
484.25	320.94
484.61	321.67
484.98	322.32
485.34	323.19
485.71	324.18
486.07	325.12
486.44	325.68
486.80	326.75
487.17	327.84
487.53	329.32
487.90	330.89
488.26	332.46
488.62	334.08
488.99	335.55
489.35	337.28
489.72	339.15
490.08	341.14
490.44	343.19
490.81	345.28
491.17	347.48
491.54	349.83
491.90	352.43
492.26	355.04
492.63	357.77
492.99	360.53
493.36	363.52
493.72	366.81
494.08	370.20
494.45	373.85
494.81	377.67
495.17	381.29
495.54	385.38
495.90	389.51
496.26	393.83
496.63	398.40
496.99	403.19
497.35	408.18
497.72	413.37
498.08	418.82
498.44	424.40
498.80	430.32
499.17	436.29
499.53	442.48
499.89	448.96
500.26	455.61
500.62	462.60
500.98	470.00
501.34	477.26
501.71	484.92
502.07	492.60
502.43	500.60
502.79	508.95
503.16	517.51
503.52	526.51
503.88	535.64
504.24	545.04
504.60	554.70
504.97	564.70
505.33	575.13
505.69	586.00
506.05	597.04
506.41	608.17
506.78	619.71
507.14	631.46
507.50	643.45
507.86	655.94
508.22	668.69
508.59	681.30
508.95	694.66
509.31	708.44
509.67	722.45
510.03	736.44
510.39	750.80
510.75	765.42
511.12	780.24
511.48	795.56
511.84	810.95
512.20	826.63
512.56	842.46
512.92	858.54
513.28	874.81
513.64	891.66
514.00	908.62
514.37	925.98
514.73	943.68
515.09	961.66
515.45	979.56
515.81	997.43
516.17	1015.99
516.53	1034.40
516.89	1052.79
517.25	1071.80
517.61	1091.43
517.97	1110.97
518.33	1130.41
518.69	1150.16
519.05	1170.00
519.41	1190.26
519.77	1210.68
520.13	1231.03
520.49	1250.98
520.85	1271.44
521.21	1291.67
521.57	1312.32
521.93	1332.26
522.29	1352.87
522.65	1372.61
523.01	1392.62
523.37	1412.65
523.73	1432.59
524.09	1452.12
524.45	1471.90
524.81	1491.88
525.17	1511.82
525.53	1531.78
525.89	1551.64
526.25	1571.60
526.61	1590.89
526.97	1610.88
527.33	1631.22
527.68	1651.86
528.04	1672.56
528.40	1692.72
528.76	1713.22
529.12	1732.69
529.48	1752.70
529.84	1771.66
530.20	1791.95
530.56	1811.99
530.91	1832.02
531.27	1851.89
531.63	1871.54
531.99	1891.34
532.35	1910.36
532.71	1929.65
533.07	1949.45
533.42	1968.46
533.78	1987.20
534.14	2006.51
534.50	2024.62
534.86	2042.81
535.21	2059.43
535.57	2076.84
535.93	2093.64
536.29	2110.08
536.65	2127.32
537.00	2144.19
537.36	2161.01
537.72	2176.55
538.08	2192.31
538.44	2207.80
538.79	2223.03
539.15	2238.49
539.51	2253.59
539.87	2267.94
540.22	2280.67
540.58	2293.96
540.94	2306.53
541.29	2318.75
541.65	2330.36
542.01	2341.96
542.37	2351.40
542.72	2361.71
543.08	2371.07
543.44	2381.44
543.79	2390.65
544.15	2399.73
544.51	2408.77
544.87	2417.28
545.22	2425.21
545.58	2432.46
545.94	2439.15
546.29	2444.72
546.65	2450.22
547.01	2454.81
547.36	2459.45
547.72	2464.26
548.07	2467.32
548.43	2471.58
548.79	2475.29
549.14	2478.49
549.50	2481.76
549.86	2485.36
550.21	2488.64
550.57	2491.80
550.92	2492.83
551.28	2493.61
551.64	2494.97
551.99	2496.07
552.35	2497.21
552.70	2499.02
553.06	2500.11
553.41	2500.79
553.77	2502.24
554.13	2503.22
554.48	2504.11
554.84	2504.83
555.19	2505.67
555.55	2507.09
555.90	2506.04
556.26	2504.68
556.61	2502.92
556.97	2500.44
557.32	2499.06
557.68	2497.38
558.03	2495.41
558.39	2493.58
558.74	2492.04
559.10	2488.77
559.45	2484.87
559.81	2479.91
560.16	2474.19
560.52	2468.97
560.87	2464.30
561.23	2458.36
561.58	2452.30
561.94	2445.26
562.29	2437.79
562.64	2430.64
563.00	2422.26
563.35	2415.36
563.71	2408.40
564.06	2401.95
564.42	2395.54
564.77	2388.65
565.12	2380.86
565.48	2372.88
565.83	2364.73
566.19	2356.85
566.54	2348.89
566.89	2340.72
567.25	2333.36
567.60	2326.20
567.96	2318.71
568.31	2310.48
568.66	2302.11
569.02	2293.44
569.37	2285.39
569.72	2278.32
570.08	2269.07
570.43	2259.45
570.78	2250.36
571.14	2241.29
571.49	2231.23
571.84	2221.59
572.20	2211.05
572.55	2200.96
572.90	2190.62
573.26	2180.68
573.61	2169.70
573.96	2158.59
574.31	2146.79
574.67	2135.04
575.02	2122.58
575.37	2110.24
575.72	2097.48
576.08	2085.81
576.43	2073.75
576.78	2061.08
577.13	2047.57
577.49	2035.37
577.84	2024.33
578.19	2013.01
578.54	2000.63
578.90	1989.27
579.25	1977.37
579.60	1965.38
579.95	1953.07
580.30	1940.38
580.66	1927.35
581.01	1914.60
581.36	1901.56
581.71	1889.76
582.06	1877.24
582.42	1865.40
582.77	1853.26
583.12	1841.81
583.47	1829.76
583.82	1818.45
584.17	1806.90
584.53	1795.74
584.88	1783.38
585.23	1770.56
585.58	1756.94
585.93	1744.55
586.28	1731.86
586.63	1718.37
586.98	1705.01
587.34	1692.27
587.69	1679.72
588.04	1667.81
588.39	1656.18
588.74	1644.51
589.09	1633.32
589.44	1621.31
589.79	1609.69
590.14	1598.59
590.49	1587.12
590.84	1575.70
591.19	1564.10
591.54	1552.62
591.89	1540.92
592.25	1531.10
592.60	1520.30
592.95	1509.63
593.30	1498.51
593.65	1487.16
594.00	1475.84
594.35	1466.44
594.70	1455.35
595.05	1444.64
595.40	1433.28
595.75	1422.08
596.10	1411.50
596.45	1400.27
596.80	1390.17
597.15	1379.48
597.50	1368.16
597.85	1357.40
598.19	1346.43
598.54	1335.15
598.89	1324.48
599.24	1314.44
599.59	1303.50
599.94	1293.19
600.29	1283.48
600.64	1273.75
600.99	1263.58
601.34	1254.65
601.69	1244.03
602.04	1234.87
602.39	1225.70
602.74	1217.22
603.08	1208.43
603.43	1199.68
603.78	1190.74
604.13	1181.80
604.48	1172.58
604.83	1163.63
605.18	1154.49
605.53	1145.70
605.87	1137.35
606.22	1129.40
606.57	1120.71
606.92	1112.04
607.27	1103.68
607.62	1095.38
607.96	1087.32
608.31	1080.04
608.66	1072.11
609.01	1064.20
609.36	1056.41
609.70	1048.43
610.05	1040.25
610.40	1032.47
610.75	1024.30
611.10	1016.31
611.44	1008.05
611.79	1000.37
612.14	992.74
612.49	985.48
612.83	978.39
613.18	970.92
613.53	963.40
613.88	955.97
614.22	948.59
614.57	941.25
614.92	933.78
615.27	926.68
615.61	919.19
615.96	911.92
616.31	904.88
616.65	897.91
617.00	890.91
617.35	883.93
617.70	877.11
618.04	870.44
618.39	864.03
618.74	858.10
619.08	851.62
619.43	845.00
619.78	838.20
620.12	831.39
620.47	824.99
620.82	818.31
621.16	811.99
621.51	806.05
621.85	800.11
622.20	794.07
622.55	787.64
622.89	781.71
623.24	775.90
623.59	769.87
623.93	764.04
624.28	758.42
624.62	753.36
624.97	747.85
625.32	742.33
625.66	736.57
626.01	730.73
626.35	725.61
626.70	720.72
627.04	715.97
627.39	710.89
627.73	705.95
628.08	701.18
628.43	695.94
628.77	691.03
629.12	686.04
629.46	681.50
629.81	677.14
630.15	672.48
630.50	667.92
630.84	663.37
631.19	658.96
631.53	654.60
631.88	649.62
632.22	644.90
632.57	640.83
632.91	636.68
633.26	632.65
633.60	628.22
633.95	623.75
634.29	619.18
634.64	614.95
634.98	610.42
635.32	606.36
635.67	602.63
636.01	598.59
636.36	594.61
636.70	590.71
637.05	586.80
637.39	583.00
637.73	579.07
638.08	575.40
638.42	571.43
638.77	567.37
639.11	563.26
639.45	559.45
639.80	555.25
640.14	551.41
640.49	547.60
640.83	543.99
641.17	540.60
641.52	537.21
641.86	533.98
642.20	531.07
642.55	527.70
642.89	524.29
643.23	521.04
643.58	517.97
643.92	514.42
644.26	511.18
644.61	508.16
644.95	504.98
645.29	501.81
645.64	498.89
645.98	495.94
646.32	493.33
646.66	490.40
647.01	487.76
647.35	485.06
647.69	482.39
648.04	479.88
648.38	477.19
648.72	474.53
649.06	471.67
649.41	468.70
649.75	465.85
650.09	463.19
650.43	460.40
650.78	457.62
651.12	455.12
651.46	452.44
651.80	449.83
652.14	447.31
652.49	444.90
652.83	442.37
653.17	439.97
653.51	437.42
653.85	435.19
654.20	432.80
654.54	430.38
654.88	427.90
655.22	425.72
655.56	423.35
655.90	421.11
656.25	419.02
656.59	416.99
656.93	414.97
657.27	413.09
657.61	410.88
657.95	408.74
658.29	406.60
658.64	404.70
658.98	402.62
659.32	400.65
659.66	398.59
660.00	396.65
660.34	394.76
660.68	392.86
661.02	390.96
661.36	388.94
661.70	386.95
662.05	385.18
662.39	383.27
662.73	381.66
663.07	380.09
663.41	378.22
663.75	376.34
664.09	374.43
664.43	372.50
664.77	370.98
665.11	369.35
665.45	367.83
665.79	366.22
666.13	364.65
666.47	362.90
666.81	361.32
667.15	359.67
667.49	358.24
667.83	356.92
668.17	355.41
668.51	354.06
668.85	352.83
669.19	351.74
669.53	350.34
669.87	348.82
670.21	347.28
670.55	346.01
670.89	344.94
671.23	343.79
671.57	342.41
671.91	341.04
672.25	339.80
672.58	338.63
672.92	337.20
673.26	335.90
673.60	334.86
673.94	333.66
674.28	332.62
674.62	331.38
674.96	330.13
675.30	329.13
675.64	328.07
675.97	326.86
676.31	325.43
676.65	324.23
676.99	323.43
677.33	322.36
677.67	321.33
678.01	320.12
678.34	319.08
678.68	318.32
679.02	317.38
679.36	316.47
679.70	315.53
680.04	314.75
680.37	313.94
680.71	313.04
681.05	312.24
681.39	311.28
681.73	310.46
682.06	309.58
682.40	308.66
682.74	307.96
683.08	307.37
683.42	306.58
683.75	305.86
684.09	304.93
684.43	304.23
684.77	303.42
685.10	302.65
685.44	301.94
685.78	301.11
686.12	300.37
686.45	299.59
686.79	298.77
687.13	298.13
687.46	297.43
687.80	296.81
688.14	296.03
688.48	295.39
688.81	294.67
689.15	294.09
689.49	293.44
689.82	292.68
690.16	291.71
690.50	291.05
690.83	290.39
691.17	289.59
691.51	288.87
691.84	288.28
692.18	287.67
692.52	287.04
692.85	286.51
693.19	286.16
693.52	285.60
693.86	285.00
694.20	284.37
694.53	283.88
694.87	283.26
695.21	282.70
695.54	282.15
695.88	281.43
696.21	280.74
696.55	280.12
696.88	279.53
697.22	278.98
697.56	278.58
697.89	277.95
698.23	277.53
698.56	277.00
698.90	276.57
699.23	276.03
699.57	275.59
699.90	274.97
700.24	274.27
700.58	273.75
700.91	273.34
701.25	273.16
701.58	272.95
701.92	272.55
702.25	272.05
702.59	271.50
702.92	271.21
703.26	270.78
703.59	270.29
703.93	270.25
704.26	269.93
704.60	269.46
704.93	269.06
705.26	268.55
705.60	268.17
705.93	267.55
706.27	267.28
706.60	266.90
706.94	266.73
707.27	266.29
707.61	265.95
707.94	265.52
708.27	264.79
708.61	264.00
708.94	263.55
709.28	263.16
709.61	262.81
709.94	262.43
710.28	262.13
710.61	261.79
710.95	261.00
711.28	260.98
711.61	260.60
711.95	260.36
712.28	259.99
712.61	259.62
712.95	259.61
713.28	259.52
713.61	259.19
713.95	258.69
714.28	258.44
714.61	258.06
714.95	257.69
715.28	257.32
715.61	256.98
715.95	256.73
716.28	256.42
716.61	256.14
716.95	255.80
717.28	255.41
717.61	255.16
717.94	254.85
718.28	254.20
718.61	253.86
718.94	253.45
719.27	253.20
719.61	252.94
719.94	252.55
720.27	251.94
720.60	251.59
720.94	251.32
721.27	251.15
721.60	251.07
721.93	250.86
722.27	250.81
722.60	250.67
722.93	250.43
723.26	250.29
723.59	250.07
723.93	249.91
724.26	249.79
724.59	249.63
724.92	249.47
725.25	249.46
725.59	249.26
725.92	249.14
726.25	248.97
726.58	248.85
726.91	248.68
727.24	248.60
727.57	248.44
727.91	248.21
728.24	247.96
728.57	247.60
728.90	247.47
729.23	247.11
729.56	247.20
729.89	247.04
730.22	246.85
730.55	246.62
730.89	246.49
731.22	246.24
731.55	245.94
731.88	245.81
732.21	245.55
732.54	245.35
732.87	245.20
733.20	245.12
733.53	244.94
733.86	244.82
734.19	244.58
734.52	244.43
734.85	244.61
735.18	244.38
735.51	244.43
735.84	244.26
736.17	244.34
736.50	243.95
736.83	244.33
737.16	244.22
737.49	244.07
737.82	243.87
738.15	243.85
738.48	243.81
738.81	243.65
739.14	243.45
739.47	243.29
739.80	243.15
740.13	242.98
740.46	242.80
740.79	242.59
741.12	242.48
741.45	242.32
741.78	241.93
742.11	242.01
742.44	241.72
742.77	241.65
743.10	241.34
743.43	241.13
743.75	240.39
744.08	240.86
744.41	240.81
744.74	240.69
745.07	240.45
745.40	240.33
745.73	240.46
746.06	240.34
746.39	240.37
746.71	240.18
747.04	239.99
747.37	239.94
747.70	239.85
748.03	239.72
748.36	239.70
748.68	239.58
749.01	239.28
749.34	239.20
749.67	239.11
750.00	239.14
750.33	239.44
750.65	239.49
750.98	238.78
751.31	238.70
751.64	238.63
751.97	238.89
752.29	238.82
752.62	238.39
752.95	238.27
753.28	238.06
753.60	238.05
753.93	238.13
754.26	238.06
754.59	237.86
754.91	237.74
755.24	237.59
755.57	237.51
755.90	237.47
756.22	237.36
756.55	237.14
756.88	236.95
757.20	236.47
757.53	236.19
757.86	236.08
758.19	235.98
758.51	235.85
758.84	235.40
759.17	235.27
759.49	235.28
759.82	235.46
760.15	235.45
760.47	235.30
760.80	235.08
761.13	235.04
761.45	234.93
761.78	234.93
762.11	234.86
762.43	234.68
762.76	234.58
763.08	234.60
763.41	234.65
763.74	234.61
764.06	234.57
764.39	234.52
764.71	234.48
765.04	234.32
765.37	234.29
765.69	234.21
766.02	234.11
766.34	233.94
766.67	233.65
767.00	233.70
767.32	233.98
767.65	234.22
767.97	234.07
768.30	234.07
768.62	233.95
768.95	233.85
769.27	233.83
769.60	233.79
769.92	233.64
770.25	233.49
770.57	233.33
770.90	233.29
771.22	233.23
771.55	233.07
771.87	233.07
772.20	232.95
772.52	233.30
772.85	233.90
773.17	233.92
773.50	233.80
773.82	233.60
774.15	233.24
774.47	232.87
774.80	232.71
775.12	232.66
775.45	232.61
775.77	232.56
776.09	232.48
776.42	232.38
776.74	232.44
777.07	232.37
777.39	232.32
777.72	232.23
778.04	232.29
778.36	232.25
778.69	232.20
779.01	232.18
779.33	231.71
779.66	231.08
779.98	231.05
780.31	231.06
780.63	231.19
780.95	231.21
781.28	231.19
781.60	231.16
781.92	231.12
782.25	231.01
782.57	230.99
782.89	230.94
783.22	230.88
783.54	230.75
783.86	230.72
784.19	230.68
784.51	230.79
784.83	230.63
785.16	230.61
785.48	230.58
785.80	230.60
786.12	230.70
786.45	230.63
786.77	230.65
787.09	230.61
787.42	230.38
787.74	230.37
788.06	230.32
788.38	230.27
788.71	230.17
789.03	230.20
789.35	230.26
789.67	230.20
789.99	230.29
790.32	230.23
790.64	230.30
790.96	230.64
791.28	230.45
791.61	230.44
791.93	230.38
792.25	230.30
792.57	230.60
792.89	230.44
793.21	230.45
793.54	230.29
793.86	230.20
794.18	230.22
794.50	230.10
794.82	230.03
795.14	230.11
795.47	230.15
795.79	230.11
796.11	229.96
796.43	229.90
796.75	229.80
797.07	229.77
797.39	229.72
797.71	229.34
798.04	229.38
798.36	229.39
798.68	229.41
799.00	229.45
799.32	229.12
799.64	229.19
799.96	229.17
800.28	229.28
800.60	229.29
800.92	229.28
801.24	229.25
801.56	229.29
801.89	229.22
802.21	229.20
802.53	229.11
802.85	229.20
803.17	229.49
803.49	229.46
803.81	229.38
804.13	229.27
804.45	229.27
804.77	229.25
805.09	229.21
805.41	229.13
805.73	229.08
806.05	228.97
806.37	228.96
806.69	228.84
807.01	228.74
807.33	228.76
807.65	228.67
807.97	228.93
808.28	228.89
808.60	228.85
808.92	228.84
809.24	229.13
809.56	228.98
809.88	228.74
810.20	228.66
810.52	228.74
810.84	228.69
811.16	228.60
811.48	228.62
811.80	228.74
812.12	228.73
812.43	228.80
812.75	228.78
813.07	228.60
813.39	228.65
813.71	228.61
814.03	228.49
814.35	228.52
814.67	228.30
814.98	228.24
815.30	228.16
815.62	228.05
815.94	227.69
816.26	227.89
816.58	227.74
816.89	227.84
817.21	227.74
817.53	227.67
817.85	227.76
818.17	227.68
818.48	227.57
818.80	227.64
819.12	227.56
819.44	227.51
819.76	227.52
820.07	227.49
820.39	227.44
820.71	227.51
821.03	227.43
821.34	227.35
821.66	227.43
821.98	227.52
822.30	227.52
822.61	227.87
822.93	227.65
823.25	227.69
823.57	227.65
823.88	227.72
824.20	227.75
824.52	227.73
824.83	227.71
825.15	227.64
825.47	227.54
825.79	227.52
826.10	227.51
826.42	227.54
826.74	227.57
827.05	227.53
827.37	227.54
827.69	227.46
828.00	227.54
828.32	227.54
828.64	227.49
828.95	227.71
829.27	227.55
829.58	227.59
829.90	227.69
830.22	227.65
830.53	227.56
830.85	227.48
831.17	227.45
831.48	227.47
831.80	227.48
832.11	227.45
832.43	227.43
832.75	227.40
833.06	227.68
833.38	227.58
833.69	227.59
834.01	227.55
834.32	227.62
834.64	227.50
834.96	227.49
835.27	227.51
835.59	227.39
835.90	227.27
836.22	227.17
836.53	227.06
836.85	227.03
837.16	227.49
837.48	227.61
837.79	227.66
838.11	227.64
838.42	227.63
838.74	227.72
839.05	227.65
839.37	227.62
839.68	227.31
840.00	227.33
840.31	227.38
840.63	227.38
840.94	227.29
841.26	227.26
841.57	227.13
841.88	227.15
842.20	227.10
842.51	227.02
842.83	227.04
843.14	227.48
843.46	227.45
843.77	227.16
844.08	227.08
844.40	226.98
844.71	226.95
845.03	226.92
845.34	226.84
845.65	226.83
845.97	226.90
846.28	226.93
846.60	226.98
846.91	226.81
847.22	226.77
847.54	226.87
847.85	226.92
848.16	226.91
848.48	226.85
848.79	227.01
849.10	227.11
849.42	227.17
849.73	226.70
850.04	226.84
850.36	226.67
850.67	226.82
850.98	226.77
851.30	226.82
851.61	226.76
851.92	226.75
852.23	226.93
852.55	226.92
852.86	226.96
853.17	226.95
853.49	227.15
853.80	227.26
854.11	227.29
854.42	227.33
854.74	227.32
855.05	227.33
855.36	227.07
855.67	227.00
855.99	226.95
856.30	227.55
856.61	227.43
856.92	227.52
857.23	227.42
857.55	227.42
857.86	227.38
858.17	227.51
858.48	227.48
858.79	227.29
859.11	227.26
859.42	227.19
859.73	227.10
860.04	227.06
860.35	226.93
860.66	226.83
860.98	226.76
861.29	226.90
861.60	226.82
861.91	226.96
862.22	226.93
862.53	226.86
862.84	226.25
863.16	226.40
863.47	226.31
863.78	226.25
864.09	226.35
864.40	226.33
864.71	226.25
865.02	226.38
865.33	226.33
865.64	226.36
865.95	226.35
866.27	226.69
866.58	226.65
866.89	226.80
867.20	226.72
867.51	226.70
867.82	226.53
868.13	226.66
868.44	226.57
868.75	226.67
869.06	226.67
869.37	226.75
869.68	226.56
869.99	226.63
870.30	226.68
870.61	226.70
870.92	226.64
871.23	226.60
871.54	226.57
871.85	226.74
872.16	226.66
872.47	226.63
872.78	226.31
873.09	226.37
873.40	226.20
873.71	226.26
874.02	226.27
874.33	226.31
874.64	226.23
874.95	226.27
875.26	226.13
875.56	226.14
875.87	226.08
876.18	226.08
876.49	226.53
876.80	226.50
877.11	226.42
877.42	226.44
877.73	226.51
878.04	226.47
878.35	226.37
878.66	226.41
878.96	226.41
879.27	226.40
879.58	226.36
879.89	226.37
880.20	226.50
880.51	226.49
880.82	226.46
881.12	226.50
881.43	226.38
881.74	226.38
882.05	226.37
882.36	226.43
882.67	226.51
882.97	226.05
883.28	226.00
883.59	225.97
883.90	226.07
884.21	226.13
884.51	226.08
884.82	226.15
885.13	226.22
885.44	226.24
885.74	226.26
886.05	226.25
886.36	226.28
886.67	226.07
886.98	226.29
887.28	226.35
887.59	226.29
887.90	226.35
888.20	226.36
888.51	226.46
888.82	226.40
889.13	226.36
889.43	226.67
889.74	226.68
890.05	226.63
890.35	226.65
890.66	226.59
890.97	226.59
891.28	226.50
891.58	226.45
891.89	226.37
892.20	226.32
892.50	226.34
892.81	226.26
893.12	226.31
893.42	226.06
893.73	226.12
894.04	226.16
894.34	226.21
894.65	226.21
894.95	226.19
895.26	226.16
895.57	226.47
895.87	226.03
896.18	226.07
896.48	226.17
896.79	226.05
897.10	226.09
897.40	226.12
897.71	226.19
898.01	226.19
898.32	226.32
898.63	226.36
898.93	226.37
899.24	226.45
899.54	226.50
899.85	226.53
900.15	226.57
900.46	226.57
900.76	226.65
901.07	226.63
901.38	226.65
901.68	226.74
901.99	226.37
902.29	226.45
902.60	226.47
902.90	226.43
903.21	226.46
903.51	226.41
903.82	226.48
904.12	226.46
904.43	226.53
904.73	226.55
905.03	226.55
905.34	226.97
905.64	226.97
905.95	226.91
906.25	226.94
906.56	226.93
906.86	226.90
907.17	226.77
907.47	226.80
907.77	226.75
908.08	226.65
908.38	226.73
908.69	226.71
908.99	226.78
909.30	226.76
909.60	226.72
909.90	226.73
910.21	226.62
910.51	226.57
910.81	226.52
911.12	226.65
911.42	226.61
911.73	226.13
912.03	226.15
912.33	226.24
912.64	226.27
912.94	226.10
913.24	226.00
913.55	226.02
913.85	225.98
914.15	226.00
914.46	226.05
914.76	226.05
915.06	226.05
915.37	225.97
915.67	225.92
915.97	225.94
916.27	225.78
916.58	225.82
916.88	225.80
917.18	225.71
917.49	225.83
917.79	225.79
918.09	225.90
918.39	225.95
918.70	225.88
919.00	225.76
919.30	226.06
919.60	226.02
919.91	225.92
920.21	225.95
920.51	225.90
920.81	225.84
921.12	225.85
921.42	225.86
921.72	225.88
922.02	225.95
922.32	225.99
922.63	226.08
922.93	226.25
923.23	226.27
923.53	226.20
923.83	225.92
924.13	226.03
924.44	225.94
924.74	225.98
925.04	226.06
925.34	226.04
925.64	225.76
925.94	225.80
926.24	226.11
926.55	226.08
926.85	226.06
927.15	226.03
927.45	226.00
927.75	226.00
928.05	226.02
928.35	225.91
928.65	225.98
928.95	225.99
929.26	225.83
929.56	225.93
929.86	226.06
930.16	226.01
930.46	225.93
930.76	226.00
931.06	225.86
931.36	225.73
931.66	225.85
931.96	225.92
932.26	225.99
932.56	225.78
932.86	225.77
933.16	225.79
933.46	225.83
933.76	225.83
934.06	225.94
934.36	226.03
934.66	226.14
934.96	226.07
935.26	226.10
935.56	226.20
935.86	226.06
936.16	225.96
936.46	225.90
936.76	225.91
937.06	225.76
937.36	225.84
937.66	225.91
937.96	225.91
938.26	225.84
938.56	225.74
938.86	225.78
939.16	225.95
939.46	226.04
939.76	226.06
940.06	226.07
940.35	225.95
940.65	225.74
940.95	225.75
941.25	225.65
941.55	225.61
941.85	225.54
942.15	225.64
942.45	225.85
942.75	225.95
943.04	225.98
943.34	226.11
943.64	226.01
943.94	225.92
944.24	225.90
944.54	225.95
944.84	225.99
945.13	225.87
945.43	225.75
945.73	225.69
946.03	225.61
946.33	225.48
946.62	225.48
946.92	225.50
947.22	225.52
947.52	225.59
947.82	225.61
948.11	225.61
948.41	225.53
948.71	225.29
949.01	225.28
949.31	225.27
949.60	225.28
949.90	225.34
950.20	225.35
950.50	225.36
950.79	225.29
951.09	225.37
951.39	225.40
951.69	225.41
951.98	225.52
952.28	225.58
952.58	225.62
952.87	225.57
953.17	225.68
953.47	225.63
953.76	225.60
954.06	225.53
954.36	225.47
954.66	225.47
954.95	225.71
955.25	225.72
955.55	225.73
955.84	225.61
956.14	225.62
956.44	225.62
956.73	225.58
957.03	225.66
957.32	225.70
957.62	225.64
957.92	225.72
958.21	225.62
958.51	226.20
958.81	226.25
959.10	226.33
959.40	226.41
959.69	226.44
959.99	226.49
960.29	226.50
960.58	226.48
960.88	226.66
961.17	226.52
961.47	226.55
961.76	226.50
962.06	226.60
962.36	226.57
962.65	226.64
962.95	226.62
963.24	226.60
963.54	226.50
963.83	226.58
964.13	226.56
964.42	226.49
964.72	226.06
965.01	226.14
965.31	226.08
965.60	225.96
965.90	226.23
966.19	226.15
966.49	226.23
966.78	226.18
967.08	226.10
967.37	226.09
967.67	226.05
967.96	226.16
968.26	226.15
968.55	226.27
968.85	226.24
969.14	226.27
969.43	226.25
969.73	226.29
970.02	226.23
970.32	226.17
970.61	226.19
970.91	226.04
971.20	225.96
971.49	225.90
971.79	225.91
972.08	225.62
972.38	225.64
972.67	225.52
972.96	225.61
973.26	225.51
973.55	225.70
973.85	225.61
974.14	225.58
974.43	225.56
974.73	225.36
975.02	225.33
975.31	225.27
975.61	225.23
975.90	225.15
976.19	225.20
976.49	225.22
976.78	225.24
977.07	225.29
977.37	225.28
977.66	225.40
977.95	225.40
978.24	225.41
978.54	225.54
978.83	225.58
979.12	225.49
979.42	225.54
979.71	225.44
980.00	225.44
980.29	225.38
980.59	225.30
980.88	225.49
981.17	225.48
981.46	225.51
981.76	225.50
982.05	225.62
982.34	225.66
982.63	225.66
982.93	225.63
983.22	225.72
983.51	225.73
983.80	225.74
984.09	225.80
984.39	225.81
984.68	225.70
984.97	225.69
985.26	225.67
985.55	225.74
985.85	225.65
986.14	225.75
986.43	225.85
986.72	225.85
987.01	225.72
987.30	225.70
987.59	225.65
987.89	225.67
988.18	225.51
988.47	225.45
988.76	225.37
989.05	225.35
989.34	225.30
989.63	225.47
989.92	225.43
990.22	225.33
990.51	225.27
990.80	225.24
991.09	225.33
991.38	225.41
991.67	225.33
991.96	225.28
992.25	225.37
992.54	225.31
992.83	225.34
993.12	225.34
993.41	225.40
993.70	225.59
993.99	225.64
994.28	225.82
994.58	225.87
994.87	225.84
995.16	225.79
995.45	225.72
995.74	225.51
996.03	225.57
996.32	225.67
996.61	225.75
996.90	225.78
997.19	225.74
997.48	225.76
997.77	225.70
998.06	225.69
998.34	225.59
998.63	225.49
998.92	225.49
999.21	225.57
999.50	225.63
999.79	225.54
1000.08	225.56
1000.37	225.46
1000.66	225.37
1000.95	225.49
1001.24	225.54
1001.53	225.59
1001.82	225.55
1002.11	225.42
1002.40	225.47
1002.68	225.56
1002.97	225.90
1003.26	225.84
1003.55	225.86
1003.84	225.84
1004.13	226.06
1004.42	225.98
1004.71	226.12
1004.99	226.07
1005.28	226.22
1005.57	226.19
1005.86	226.18
1006.15	226.12
1006.44	226.08
1006.72	226.15
1007.01	226.09
1007.30	226.19
1007.59	226.17
1007.88	226.21
1008.17	226.22
1008.45	226.08
1008.74	225.90
1009.03	225.68
1009.32	225.61
1009.60	225.56
1009.89	225.56
1010.18	225.37
1010.47	225.43
1010.76	225.34
1011.04	225.35
1011.33	225.30
1011.62	225.30
1011.91	225.25
1012.19	225.25
1012.48	225.33
1012.77	225.35
1013.05	225.56
1013.34	225.53
1013.63	225.43
1013.92	225.54
1014.20	225.53
1014.49	225.55
1014.78	225.62
1015.06	225.43
1015.35	225.55
1015.64	225.64
1015.92	225.73
1016.21	225.78
1016.50	225.78
1016.78	225.83
1017.07	225.82
1017.36	225.74
1017.64	225.70
1017.93	225.80
1018.22	225.84
1018.50	225.79
1018.79	225.80
1019.08	225.56
1019.36	225.58
1019.65	225.53
1019.93	225.58
1020.22	225.62
1020.51	225.91
1020.79	225.80
1021.08	225.80
1021.36	224.95
1021.65	225.55
1021.94	225.00
1022.22	226.50
1022.51	223.20
1022.79	227.65
1023.08	225.20
1023.36	231.65
1023.65	223.65
>>>>>End Processed Spectral Data<<<<<
