SpectraSuite Data File
++++++++++++++++++++++++++++++++++++
Date: Wed Sep 04 17:54:15 EDT 2013
User: lab3
Dark Spectrum Present: Yes
Reference Spectrum Present: No
Number of Sampled Component Spectra: 1
Spectrometers: USB2E7196
Integration Time (usec): 170000 (USB2E7196)
Spectra Averaged: 20 (USB2E7196)
Boxcar Smoothing: 10 (USB2E7196)
Correct for Electrical Dark: No (USB2E7196)
Strobe/Lamp Enabled: No (USB2E7196)
Correct for Detector Non-linearity: No (USB2E7196)
Correct for Stray Light: No (USB2E7196)
Number of Pixels in Processed Spectrum: 2048
>>>>>Begin Processed Spectral Data<<<<<
339.09	0.00
339.48	213.20
339.86	214.40
340.24	216.05
340.63	216.60
341.01	226.20
341.39	220.95
341.78	222.00
342.16	222.65
342.54	223.45
342.93	212.18
343.31	222.95
343.69	223.51
344.07	224.00
344.46	224.51
344.84	224.98
345.22	224.96
345.60	225.22
345.99	225.39
346.37	225.56
346.75	225.62
347.13	225.74
347.52	225.86
347.90	226.11
348.28	226.13
348.66	226.37
349.05	226.25
349.43	226.37
349.81	226.41
350.19	226.46
350.57	226.54
350.96	226.64
351.34	226.75
351.72	226.80
352.10	226.91
352.48	226.92
352.87	226.97
353.25	227.01
353.63	227.07
354.01	227.17
354.39	227.25
354.77	227.37
355.15	227.52
355.54	227.55
355.92	227.38
356.30	227.53
356.68	227.87
357.06	227.95
357.44	227.91
357.82	228.00
358.20	228.50
358.58	228.43
358.97	228.49
359.35	228.56
359.73	228.73
360.11	228.69
360.49	228.74
360.87	228.69
361.25	228.88
361.63	229.08
362.01	229.17
362.39	229.19
362.77	229.24
363.15	229.30
363.53	229.31
363.91	229.37
364.29	229.35
364.67	228.91
365.05	229.04
365.43	229.13
365.81	229.20
366.19	229.05
366.57	229.32
366.95	229.28
367.33	229.15
367.71	229.11
368.09	229.31
368.47	229.30
368.85	229.40
369.23	229.38
369.61	229.17
369.99	229.23
370.37	229.25
370.75	229.48
371.13	229.33
371.51	229.36
371.89	229.36
372.27	229.37
372.65	229.44
373.03	229.30
373.41	229.27
373.78	229.20
374.16	228.91
374.54	228.75
374.92	228.73
375.30	228.77
375.68	228.68
376.06	228.56
376.44	228.53
376.82	228.42
377.19	228.43
377.57	228.34
377.95	228.11
378.33	228.01
378.71	227.59
379.09	227.65
379.47	227.55
379.84	227.46
380.22	227.33
380.60	227.15
380.98	227.05
381.36	226.96
381.73	226.89
382.11	226.89
382.49	226.80
382.87	226.63
383.25	226.45
383.62	226.88
384.00	226.74
384.38	226.65
384.76	226.70
385.13	226.83
385.51	226.77
385.89	226.68
386.27	226.62
386.64	226.71
387.02	226.52
387.40	226.45
387.78	226.52
388.15	226.54
388.53	226.47
388.91	226.48
389.29	226.34
389.66	226.32
390.04	226.18
390.42	226.22
390.79	226.21
391.17	226.23
391.55	225.75
391.92	225.75
392.30	225.82
392.68	225.71
393.05	225.60
393.43	225.67
393.81	225.74
394.18	225.67
394.56	225.68
394.94	225.85
395.31	225.83
395.69	225.97
396.06	226.03
396.44	226.13
396.82	226.10
397.19	226.39
397.57	226.41
397.95	226.68
398.32	226.59
398.70	226.76
399.07	226.97
399.45	227.01
399.82	227.13
400.20	227.18
400.58	227.28
400.95	227.17
401.33	227.36
401.70	227.79
402.08	228.01
402.45	228.15
402.83	228.30
403.20	228.56
403.58	228.62
403.95	228.83
404.33	229.01
404.71	229.29
405.08	229.80
405.46	230.02
405.83	230.22
406.21	230.53
406.58	230.83
406.96	231.10
407.33	231.52
407.70	231.91
408.08	232.63
408.45	233.11
408.83	233.56
409.20	233.97
409.58	234.13
409.95	234.65
410.33	235.21
410.70	235.70
411.08	236.24
411.45	236.88
411.82	237.50
412.20	238.28
412.57	239.25
412.95	239.55
413.32	240.33
413.69	241.10
414.07	242.10
414.44	243.08
414.82	244.15
415.19	245.33
415.56	246.47
415.94	247.45
416.31	248.81
416.68	250.28
417.06	251.87
417.43	253.56
417.81	255.32
418.18	257.15
418.55	259.02
418.93	260.98
419.30	263.02
419.67	265.28
420.04	267.50
420.42	269.79
420.79	272.85
421.16	275.78
421.54	278.80
421.91	281.71
422.28	284.71
422.66	287.94
423.03	291.33
423.40	294.68
423.77	298.21
424.15	301.78
424.52	305.58
424.89	309.72
425.26	313.54
425.64	317.33
426.01	321.45
426.38	325.88
426.75	330.41
427.13	335.01
427.50	339.67
427.87	344.65
428.24	349.51
428.61	353.99
428.99	359.21
429.36	364.60
429.73	370.04
430.10	375.64
430.47	381.35
430.85	387.02
431.22	393.27
431.59	400.21
431.96	406.63
432.33	413.48
432.70	420.02
433.08	427.90
433.45	435.27
433.82	442.67
434.19	450.72
434.56	458.81
434.93	466.49
435.30	474.35
435.68	482.82
436.05	491.19
436.42	499.46
436.79	507.17
437.16	515.65
437.53	524.39
437.90	533.11
438.27	541.61
438.64	550.39
439.01	558.70
439.38	565.78
439.75	572.75
440.13	580.72
440.50	588.40
440.87	594.59
441.24	601.00
441.61	607.78
441.98	612.99
442.35	618.94
442.72	625.06
443.09	630.86
443.46	634.23
443.83	636.68
444.20	638.78
444.57	641.56
444.94	642.55
445.31	643.78
445.68	645.16
446.05	645.39
446.42	644.12
446.79	642.52
447.16	640.82
447.53	639.56
447.90	635.90
448.27	632.30
448.64	627.35
449.01	623.62
449.37	617.68
449.74	611.65
450.11	604.63
450.48	596.74
450.85	588.66
451.22	582.03
451.59	575.43
451.96	569.15
452.33	561.01
452.70	553.84
453.07	545.20
453.43	536.01
453.80	527.55
454.17	519.64
454.54	512.01
454.91	503.91
455.28	496.08
455.65	488.70
456.02	481.81
456.38	475.49
456.75	467.80
457.12	461.25
457.49	454.93
457.86	448.61
458.23	443.63
458.59	437.98
458.96	432.16
459.33	427.03
459.70	421.90
460.07	417.84
460.43	413.05
460.80	408.81
461.17	405.14
461.54	401.12
461.91	397.26
462.27	393.40
462.64	390.10
463.01	386.42
463.38	383.08
463.74	378.97
464.11	376.03
464.48	373.42
464.85	370.56
465.21	368.39
465.58	366.17
465.95	363.20
466.32	361.02
466.68	358.69
467.05	356.43
467.42	354.22
467.78	351.70
468.15	349.59
468.52	347.92
468.88	345.63
469.25	343.72
469.62	342.20
469.98	340.60
470.35	339.05
470.72	337.69
471.08	336.03
471.45	334.84
471.82	333.46
472.18	331.90
472.55	330.87
472.92	329.61
473.28	328.42
473.65	327.32
474.02	326.19
474.38	325.45
474.75	324.74
475.11	323.83
475.48	323.25
475.85	322.58
476.21	321.92
476.58	321.47
476.94	321.09
477.31	320.67
477.67	320.32
478.04	319.97
478.41	319.71
478.77	320.02
479.14	319.65
479.50	319.70
479.87	319.89
480.23	319.88
480.60	319.82
480.96	319.89
481.33	320.23
481.69	320.47
482.06	320.56
482.42	320.83
482.79	321.24
483.15	321.68
483.52	322.36
483.88	322.87
484.25	323.44
484.61	324.10
484.98	324.63
485.34	325.50
485.71	326.56
486.07	327.50
486.44	328.05
486.80	329.21
487.17	330.32
487.53	331.72
487.90	333.30
488.26	335.00
488.62	336.75
488.99	338.29
489.35	340.05
489.72	341.98
490.08	343.91
490.44	345.98
490.81	348.32
491.17	350.35
491.54	352.90
491.90	355.53
492.26	358.20
492.63	361.16
492.99	364.04
493.36	367.11
493.72	370.42
494.08	373.89
494.45	377.73
494.81	381.60
495.17	385.35
495.54	389.39
495.90	393.61
496.26	397.94
496.63	402.61
496.99	407.50
497.35	412.53
497.72	417.85
498.08	423.28
498.44	428.85
498.80	434.94
499.17	440.87
499.53	447.04
499.89	453.69
500.26	460.42
500.62	467.35
500.98	474.69
501.34	482.18
501.71	489.91
502.07	497.56
502.43	505.68
502.79	514.01
503.16	522.59
503.52	531.56
503.88	540.85
504.24	550.42
504.60	560.42
504.97	570.70
505.33	581.06
505.69	592.05
506.05	603.10
506.41	614.36
506.78	626.05
507.14	638.14
507.50	650.32
507.86	663.04
508.22	676.08
508.59	689.17
508.95	702.72
509.31	716.97
509.67	731.21
510.03	745.23
510.39	759.95
510.75	775.06
511.12	790.32
511.48	805.99
511.84	821.83
512.20	837.63
512.56	853.69
512.92	870.51
513.28	887.28
513.64	904.51
514.00	921.99
514.37	939.66
514.73	957.70
515.09	975.96
515.45	994.20
515.81	1012.41
516.17	1031.01
516.53	1049.81
516.89	1068.32
517.25	1087.77
517.61	1108.10
517.97	1128.36
518.33	1148.24
518.69	1168.39
519.05	1188.90
519.41	1209.56
519.77	1230.54
520.13	1251.59
520.49	1272.06
520.85	1294.20
521.21	1315.29
521.57	1336.48
521.93	1357.16
522.29	1378.20
522.65	1398.79
523.01	1419.62
523.37	1440.19
523.73	1461.21
524.09	1481.74
524.45	1502.29
524.81	1522.95
525.17	1543.63
525.53	1564.25
525.89	1585.17
526.25	1605.65
526.61	1625.85
526.97	1646.84
527.33	1667.97
527.68	1689.46
528.04	1710.91
528.40	1730.55
528.76	1751.45
529.12	1771.80
529.48	1793.00
529.84	1812.95
530.20	1834.18
530.56	1854.87
530.91	1876.04
531.27	1896.29
531.63	1916.48
531.99	1937.01
532.35	1957.12
532.71	1977.20
533.07	1997.37
533.42	2017.15
533.78	2037.19
534.14	2056.89
534.50	2075.73
534.86	2095.03
535.21	2112.75
535.57	2131.12
535.93	2148.60
536.29	2166.15
536.65	2184.28
537.00	2201.44
537.36	2218.96
537.72	2235.45
538.08	2252.54
538.44	2269.07
538.79	2285.63
539.15	2302.46
539.51	2318.51
539.87	2333.79
540.22	2347.76
540.58	2362.34
540.94	2375.64
541.29	2388.19
541.65	2400.80
542.01	2413.58
542.37	2424.13
542.72	2435.05
543.08	2445.65
543.44	2457.64
543.79	2467.94
544.15	2477.94
544.51	2488.09
544.87	2497.90
545.22	2506.27
545.58	2514.00
545.94	2521.47
546.29	2528.00
546.65	2534.05
547.01	2539.85
547.36	2545.39
547.72	2550.92
548.07	2554.75
548.43	2559.83
548.79	2564.37
549.14	2568.40
549.50	2571.99
549.86	2575.93
550.21	2579.45
550.57	2582.81
550.92	2583.86
551.28	2585.02
551.64	2587.17
551.99	2588.79
552.35	2590.30
552.70	2592.55
553.06	2594.38
553.41	2595.28
553.77	2596.83
554.13	2598.63
554.48	2600.04
554.84	2601.61
555.19	2602.65
555.55	2604.32
555.90	2603.72
556.26	2603.01
556.61	2601.29
556.97	2599.30
557.32	2598.38
557.68	2597.66
558.03	2596.03
558.39	2595.15
558.74	2594.12
559.10	2590.79
559.45	2587.35
559.81	2582.92
560.16	2577.85
560.52	2572.82
560.87	2568.65
561.23	2563.56
561.58	2557.43
561.94	2550.46
562.29	2542.59
562.64	2535.76
563.00	2527.68
563.35	2520.97
563.71	2514.40
564.06	2508.39
564.42	2501.74
564.77	2494.91
565.12	2487.10
565.48	2479.16
565.83	2470.90
566.19	2462.98
566.54	2455.32
566.89	2447.23
567.25	2439.32
567.60	2432.21
567.96	2424.60
568.31	2416.11
568.66	2407.28
569.02	2398.08
569.37	2389.78
569.72	2382.67
570.08	2373.52
570.43	2363.86
570.78	2354.85
571.14	2345.35
571.49	2335.30
571.84	2325.80
572.20	2314.74
572.55	2304.50
572.90	2293.98
573.26	2283.73
573.61	2272.86
573.96	2261.70
574.31	2249.82
574.67	2238.16
575.02	2225.18
575.37	2212.56
575.72	2199.56
576.08	2187.56
576.43	2175.58
576.78	2162.48
577.13	2148.34
577.49	2135.34
577.84	2123.76
578.19	2111.80
578.54	2099.55
578.90	2087.36
579.25	2074.69
579.60	2062.42
579.95	2049.68
580.30	2036.38
580.66	2022.86
581.01	2008.92
581.36	1994.72
581.71	1982.10
582.06	1969.20
582.42	1956.95
582.77	1944.33
583.12	1932.52
583.47	1920.04
583.82	1907.82
584.17	1895.89
584.53	1884.26
584.88	1871.65
585.23	1858.53
585.58	1844.33
585.93	1830.98
586.28	1817.85
586.63	1803.91
586.98	1789.60
587.34	1776.30
587.69	1763.22
588.04	1750.81
588.39	1738.96
588.74	1726.78
589.09	1714.61
589.44	1702.00
589.79	1689.84
590.14	1678.00
590.49	1665.95
590.84	1654.09
591.19	1642.01
591.54	1629.82
591.89	1617.78
592.25	1607.37
592.60	1595.86
592.95	1584.70
593.30	1572.83
593.65	1560.81
594.00	1549.21
594.35	1539.72
594.70	1527.85
595.05	1516.33
595.40	1504.31
595.75	1492.67
596.10	1481.69
596.45	1470.34
596.80	1459.29
597.15	1447.82
597.50	1435.98
597.85	1424.68
598.19	1412.98
598.54	1401.31
598.89	1390.06
599.24	1379.31
599.59	1367.68
599.94	1356.71
600.29	1346.19
600.64	1335.81
600.99	1325.30
601.34	1315.74
601.69	1304.63
602.04	1295.05
602.39	1285.51
602.74	1276.18
603.08	1266.74
603.43	1257.39
603.78	1247.72
604.13	1238.23
604.48	1228.64
604.83	1219.01
605.18	1209.39
605.53	1199.95
605.87	1191.05
606.22	1182.52
606.57	1173.45
606.92	1163.88
607.27	1155.16
607.62	1146.35
607.96	1138.05
608.31	1129.90
608.66	1121.55
609.01	1112.81
609.36	1104.17
609.70	1095.60
610.05	1087.19
610.40	1078.76
610.75	1070.20
611.10	1061.82
611.44	1053.35
611.79	1045.11
612.14	1037.25
612.49	1029.06
612.83	1021.48
613.18	1013.62
613.53	1005.87
613.88	997.86
614.22	990.56
614.57	982.66
614.92	974.90
615.27	967.26
615.61	959.83
615.96	952.08
616.31	944.66
616.65	937.58
617.00	930.38
617.35	923.33
617.70	916.31
618.04	909.25
618.39	902.37
618.74	895.87
619.08	889.10
619.43	882.00
619.78	875.13
620.12	868.08
620.47	861.16
620.82	854.02
621.16	847.14
621.51	840.69
621.85	834.38
622.20	827.81
622.55	821.27
622.89	814.62
623.24	808.24
623.59	802.06
623.93	795.87
624.28	789.85
624.62	784.01
624.97	777.94
625.32	772.19
625.66	766.12
626.01	760.13
626.35	754.73
626.70	749.49
627.04	744.13
627.39	738.67
627.73	733.44
628.08	728.50
628.43	723.12
628.77	717.57
629.12	712.32
629.46	707.54
629.81	702.79
630.15	698.15
630.50	693.28
630.84	688.23
631.19	683.32
631.53	678.76
631.88	673.62
632.22	668.82
632.57	664.28
632.91	659.83
633.26	655.45
633.60	650.78
633.95	646.00
634.29	641.30
634.64	636.69
634.98	632.02
635.32	627.61
635.67	623.76
636.01	619.68
636.36	615.30
636.70	611.25
637.05	606.94
637.39	602.71
637.73	598.79
638.08	594.80
638.42	590.54
638.77	586.10
639.11	581.84
639.45	577.65
639.80	573.37
640.14	569.24
640.49	565.40
640.83	561.56
641.17	558.02
641.52	554.34
641.86	550.97
642.20	547.83
642.55	544.08
642.89	540.33
643.23	536.77
643.58	533.59
643.92	529.86
644.26	526.55
644.61	523.40
644.95	519.93
645.29	516.70
645.64	513.71
645.98	510.72
646.32	507.77
646.66	504.68
647.01	501.69
647.35	498.98
647.69	495.75
648.04	492.85
648.38	489.94
648.72	487.10
649.06	483.95
649.41	480.70
649.75	477.66
650.09	474.78
650.43	472.04
650.78	469.07
651.12	466.31
651.46	463.51
651.80	460.63
652.14	458.02
652.49	455.51
652.83	452.99
653.17	450.42
653.51	447.56
653.85	445.25
654.20	442.73
654.54	439.96
654.88	437.49
655.22	435.30
655.56	432.88
655.90	430.47
656.25	428.20
656.59	425.99
656.93	423.81
657.27	421.74
657.61	419.27
657.95	417.14
658.29	414.89
658.64	412.76
658.98	410.64
659.32	408.32
659.66	406.00
660.00	403.78
660.34	401.71
660.68	399.89
661.02	397.77
661.36	395.90
661.70	394.06
662.05	392.21
662.39	390.10
662.73	388.31
663.07	386.68
663.41	384.86
663.75	382.97
664.09	381.18
664.43	379.26
664.77	377.73
665.11	375.88
665.45	374.29
665.79	372.59
666.13	370.77
666.47	369.16
666.81	367.48
667.15	365.73
667.49	364.26
667.83	362.89
668.17	361.29
668.51	359.70
668.85	358.32
669.19	357.20
669.53	355.70
669.87	354.27
670.21	352.69
670.55	351.38
670.89	350.23
671.23	348.86
671.57	347.58
671.91	346.28
672.25	344.93
672.58	343.64
672.92	342.22
673.26	341.11
673.60	339.90
673.94	338.88
674.28	337.91
674.62	336.71
674.96	335.32
675.30	334.23
675.64	333.08
675.97	331.80
676.31	330.46
676.65	329.26
676.99	328.28
677.33	327.26
677.67	326.18
678.01	324.89
678.34	323.95
678.68	322.98
679.02	321.92
679.36	320.97
679.70	319.97
680.04	319.17
680.37	318.13
680.71	317.21
681.05	316.29
681.39	315.29
681.73	314.29
682.06	313.38
682.40	312.56
682.74	311.80
683.08	311.09
683.42	310.11
683.75	309.36
684.09	308.35
684.43	307.55
684.77	306.67
685.10	305.90
685.44	305.03
685.78	304.19
686.12	303.40
686.45	302.63
686.79	301.80
687.13	301.14
687.46	300.43
687.80	299.78
688.14	298.87
688.48	298.11
688.81	297.35
689.15	296.77
689.49	295.99
689.82	295.31
690.16	294.45
690.50	293.78
690.83	293.08
691.17	292.29
691.51	291.51
691.84	290.89
692.18	290.19
692.52	289.52
692.85	288.81
693.19	288.31
693.52	287.66
693.86	286.99
694.20	286.22
694.53	285.55
694.87	284.84
695.21	284.23
695.54	283.68
695.88	283.03
696.21	282.29
696.55	281.73
696.88	281.08
697.22	280.49
697.56	279.95
697.89	279.32
698.23	278.81
698.56	278.25
698.90	277.67
699.23	277.08
699.57	276.57
699.90	275.99
700.24	275.22
700.58	274.78
700.91	274.32
701.25	274.22
701.58	274.15
701.92	273.80
702.25	273.40
702.59	272.87
702.92	272.48
703.26	272.07
703.59	271.66
703.93	271.52
704.26	271.11
704.60	270.69
704.93	270.19
705.26	269.73
705.60	269.42
705.93	268.89
706.27	268.67
706.60	268.42
706.94	268.26
707.27	267.89
707.61	267.53
707.94	267.18
708.27	266.39
708.61	265.62
708.94	265.20
709.28	264.79
709.61	264.43
709.94	264.08
710.28	263.68
710.61	263.21
710.95	262.49
711.28	262.48
711.61	262.05
711.95	261.83
712.28	261.50
712.61	261.05
712.95	261.08
713.28	260.88
713.61	260.33
713.95	259.82
714.28	259.54
714.61	259.11
714.95	258.67
715.28	258.25
715.61	257.86
715.95	257.50
716.28	257.13
716.61	256.86
716.95	256.37
717.28	256.10
717.61	255.80
717.94	255.56
718.28	254.88
718.61	254.69
718.94	254.37
719.27	254.12
719.61	253.99
719.94	253.47
720.27	253.02
720.60	252.84
720.94	252.67
721.27	252.44
721.60	252.29
721.93	252.12
722.27	252.15
722.60	252.12
722.93	251.92
723.26	251.79
723.59	251.46
723.93	251.44
724.26	251.27
724.59	251.00
724.92	250.74
725.25	250.71
725.59	250.43
725.92	250.31
726.25	250.11
726.58	249.88
726.91	249.74
727.24	249.68
727.57	249.48
727.91	249.23
728.24	249.06
728.57	248.82
728.90	248.79
729.23	248.50
729.56	248.45
729.89	248.29
730.22	248.11
730.55	248.01
730.89	247.77
731.22	247.60
731.55	247.50
731.88	247.37
732.21	247.07
732.54	246.89
732.87	246.73
733.20	246.53
733.53	246.38
733.86	246.25
734.19	245.91
734.52	245.85
734.85	246.00
735.18	245.74
735.51	245.73
735.84	245.55
736.17	245.47
736.50	245.03
736.83	245.37
737.16	245.22
737.49	245.08
737.82	244.96
738.15	244.88
738.48	244.74
738.81	244.57
739.14	244.40
739.47	244.27
739.80	244.04
740.13	243.95
740.46	243.77
740.79	243.55
741.12	243.43
741.45	243.19
741.78	242.74
742.11	242.84
742.44	242.63
742.77	242.49
743.10	242.26
743.43	242.18
743.75	241.55
744.08	241.99
744.41	241.82
744.74	241.66
745.07	241.40
745.40	241.33
745.73	241.35
746.06	241.29
746.39	241.17
746.71	241.05
747.04	240.88
747.37	240.73
747.70	240.70
748.03	240.65
748.36	240.60
748.68	240.54
749.01	240.24
749.34	240.03
749.67	239.92
750.00	239.79
750.33	239.98
750.65	239.96
750.98	239.35
751.31	239.27
751.64	239.25
751.97	239.38
752.29	239.18
752.62	238.84
752.95	238.64
753.28	238.52
753.60	238.37
753.93	238.39
754.26	238.29
754.59	238.08
754.91	237.86
755.24	237.70
755.57	237.56
755.90	237.40
756.22	237.29
756.55	237.06
756.88	236.95
757.20	236.53
757.53	236.24
757.86	236.11
758.19	236.00
758.51	235.84
758.84	235.53
759.17	235.45
759.49	235.42
759.82	235.59
760.15	235.51
760.47	235.51
760.80	235.26
761.13	235.20
761.45	235.06
761.78	235.04
762.11	235.05
762.43	234.91
762.76	234.84
763.08	234.87
763.41	234.86
763.74	234.79
764.06	234.67
764.39	234.67
764.71	234.50
765.04	234.44
765.37	234.35
765.69	234.24
766.02	234.16
766.34	234.07
766.67	233.86
767.00	233.87
767.32	234.02
767.65	234.30
767.97	234.20
768.30	234.24
768.62	234.22
768.95	234.06
769.27	234.02
769.60	234.07
769.92	233.88
770.25	233.71
770.57	233.59
770.90	233.56
771.22	233.46
771.55	233.45
771.87	233.40
772.20	233.36
772.52	233.77
772.85	234.27
773.17	234.24
773.50	234.12
773.82	234.00
774.15	233.74
774.47	233.29
774.80	233.24
775.12	233.16
775.45	233.12
775.77	233.00
776.09	233.00
776.42	232.90
776.74	233.00
777.07	232.98
777.39	232.90
777.72	232.85
778.04	232.84
778.36	232.69
778.69	232.68
779.01	232.59
779.33	232.11
779.66	231.55
779.98	231.51
780.31	231.56
780.63	231.73
780.95	231.70
781.28	231.77
781.60	231.72
781.92	231.61
782.25	231.48
782.57	231.46
782.89	231.30
783.22	231.25
783.54	231.10
783.86	231.07
784.19	231.05
784.51	231.11
784.83	231.01
785.16	231.00
785.48	230.89
785.80	230.80
786.12	230.79
786.45	230.74
786.77	230.70
787.09	230.48
787.42	230.29
787.74	230.25
788.06	230.19
788.38	230.09
788.71	230.07
789.03	230.10
789.35	230.13
789.67	230.06
789.99	230.05
790.32	230.03
790.64	230.07
790.96	230.44
791.28	230.24
791.61	230.13
791.93	230.19
792.25	230.19
792.57	230.55
792.89	230.46
793.21	230.41
793.54	230.34
793.86	230.30
794.18	230.29
794.50	230.17
794.82	230.09
795.14	230.12
795.47	230.19
795.79	230.15
796.11	230.06
796.43	230.08
796.75	230.09
797.07	230.03
797.39	229.99
797.71	229.58
798.04	229.61
798.36	229.63
798.68	229.57
799.00	229.53
799.32	229.23
799.64	229.26
799.96	229.29
800.28	229.32
800.60	229.29
800.92	229.29
801.24	229.25
801.56	229.35
801.89	229.27
802.21	229.31
802.53	229.17
802.85	229.28
803.17	229.45
803.49	229.33
803.81	229.27
804.13	229.20
804.45	229.16
804.77	229.23
805.09	229.24
805.41	229.12
805.73	229.02
806.05	228.96
806.37	228.89
806.69	228.83
807.01	228.73
807.33	228.80
807.65	228.65
807.97	228.85
808.28	228.74
808.60	228.76
808.92	228.65
809.24	229.00
809.56	228.85
809.88	228.67
810.20	228.67
810.52	228.77
810.84	228.71
811.16	228.68
811.48	228.66
811.80	228.82
812.12	228.89
812.43	229.01
812.75	229.05
813.07	229.09
813.39	229.15
813.71	229.19
814.03	229.13
814.35	229.18
814.67	228.96
814.98	228.91
815.30	228.92
815.62	228.80
815.94	228.47
816.26	228.67
816.58	228.63
816.89	228.70
817.21	228.62
817.53	228.62
817.85	228.53
818.17	228.43
818.48	228.23
818.80	228.22
819.12	228.14
819.44	227.99
819.76	227.83
820.07	227.80
820.39	227.74
820.71	227.70
821.03	227.70
821.34	227.68
821.66	227.85
821.98	227.89
822.30	227.94
822.61	228.25
822.93	228.04
823.25	228.06
823.57	228.01
823.88	228.04
824.20	228.04
824.52	228.19
824.83	228.13
825.15	228.10
825.47	228.08
825.79	228.11
826.10	228.12
826.42	228.08
826.74	228.10
827.05	228.06
827.37	228.15
827.69	228.08
828.00	228.07
828.32	227.94
828.64	227.81
828.95	228.07
829.27	227.89
829.58	227.80
829.90	227.73
830.22	227.76
830.53	227.71
830.85	227.70
831.17	227.49
831.48	227.51
831.80	227.57
832.11	227.49
832.43	227.42
832.75	227.43
833.06	227.77
833.38	227.62
833.69	227.61
834.01	227.60
834.32	227.60
834.64	227.52
834.96	227.58
835.27	227.57
835.59	227.34
835.90	227.23
836.22	227.30
836.53	227.27
836.85	227.17
837.16	227.54
837.48	227.51
837.79	227.75
838.11	227.75
838.42	227.66
838.74	227.75
839.05	227.70
839.37	227.63
839.68	227.36
840.00	227.35
840.31	227.40
840.63	227.33
840.94	227.29
841.26	227.26
841.57	227.16
841.88	227.16
842.20	227.10
842.51	227.07
842.83	226.99
843.14	227.43
843.46	227.48
843.77	227.22
844.08	227.21
844.40	227.08
844.71	227.06
845.03	227.02
845.34	226.96
845.65	226.90
845.97	226.83
846.28	226.77
846.60	226.79
846.91	226.69
847.22	226.64
847.54	226.66
847.85	226.77
848.16	226.72
848.48	226.66
848.79	226.84
849.10	226.83
849.42	226.89
849.73	226.43
850.04	226.38
850.36	226.17
850.67	226.26
850.98	226.22
851.30	226.28
851.61	226.22
851.92	226.25
852.23	226.48
852.55	226.58
852.86	226.74
853.17	226.77
853.49	226.96
853.80	227.12
854.11	227.17
854.42	227.22
854.74	227.21
855.05	227.27
855.36	227.10
855.67	227.09
855.99	227.13
856.30	227.73
856.61	227.75
856.92	227.85
857.23	227.81
857.55	227.83
857.86	227.78
858.17	227.89
858.48	227.80
858.79	227.70
859.11	227.74
859.42	227.66
859.73	227.65
860.04	227.56
860.35	227.40
860.66	227.35
860.98	227.32
861.29	227.49
861.60	227.45
861.91	227.56
862.22	227.56
862.53	227.51
862.84	226.94
863.16	227.07
863.47	226.97
863.78	226.92
864.09	226.97
864.40	227.10
864.71	227.14
865.02	227.22
865.33	227.14
865.64	227.06
865.95	227.04
866.27	227.40
866.58	227.35
866.89	227.43
867.20	227.41
867.51	227.37
867.82	227.30
868.13	227.50
868.44	227.31
868.75	227.42
869.06	227.42
869.37	227.47
869.68	227.35
869.99	227.46
870.30	227.59
870.61	227.65
870.92	227.45
871.23	227.40
871.54	227.50
871.85	227.64
872.16	227.76
872.47	227.75
872.78	227.40
873.09	227.49
873.40	227.39
873.71	227.45
874.02	227.42
874.33	227.30
874.64	227.15
874.95	227.26
875.26	227.18
875.56	227.17
875.87	227.14
876.18	227.18
876.49	227.58
876.80	227.46
877.11	227.35
877.42	227.45
877.73	227.46
878.04	227.45
878.35	227.48
878.66	227.48
878.96	227.47
879.27	227.45
879.58	227.41
879.89	227.49
880.20	227.58
880.51	227.65
880.82	227.73
881.12	227.77
881.43	227.70
881.74	227.64
882.05	227.60
882.36	227.62
882.67	227.51
882.97	226.97
883.28	226.95
883.59	226.92
883.90	226.96
884.21	227.08
884.51	227.01
884.82	226.84
885.13	226.81
885.44	226.75
885.74	226.77
886.05	226.80
886.36	226.73
886.67	226.53
886.98	226.74
887.28	226.70
887.59	226.67
887.90	226.67
888.20	226.59
888.51	226.73
888.82	226.65
889.13	226.67
889.43	227.15
889.74	227.07
890.05	227.09
890.35	226.95
890.66	226.81
890.97	226.74
891.28	226.73
891.58	226.72
891.89	226.80
892.20	226.77
892.50	226.66
892.81	226.66
893.12	226.66
893.42	226.42
893.73	226.46
894.04	226.45
894.34	226.53
894.65	226.60
894.95	226.46
895.26	226.44
895.57	226.67
895.87	226.17
896.18	226.33
896.48	226.37
896.79	226.39
897.10	226.47
897.40	226.48
897.71	226.55
898.01	226.55
898.32	226.52
898.63	226.49
898.93	226.51
899.24	226.52
899.54	226.51
899.85	226.55
900.15	226.48
900.46	226.49
900.76	226.50
901.07	226.47
901.38	226.48
901.68	226.65
901.99	226.42
902.29	226.52
902.60	226.43
902.90	226.36
903.21	226.37
903.51	226.27
903.82	226.33
904.12	226.35
904.43	226.33
904.73	226.33
905.03	226.35
905.34	226.79
905.64	226.77
905.95	226.74
906.25	226.66
906.56	226.67
906.86	226.73
907.17	226.66
907.47	226.68
907.77	226.63
908.08	226.46
908.38	226.48
908.69	226.49
908.99	226.61
909.30	226.58
909.60	226.57
909.90	226.67
910.21	226.61
910.51	226.53
910.81	226.54
911.12	226.62
911.42	226.58
911.73	226.05
912.03	226.09
912.33	226.23
912.64	226.22
912.94	226.19
913.24	226.13
913.55	226.12
913.85	226.11
914.15	226.21
914.46	226.31
914.76	226.28
915.06	226.23
915.37	226.09
915.67	226.12
915.97	226.15
916.27	226.03
916.58	226.04
916.88	225.97
917.18	225.99
917.49	226.29
917.79	226.31
918.09	226.50
918.39	226.58
918.70	226.49
919.00	226.50
919.30	226.72
919.60	226.61
919.91	226.55
920.21	226.55
920.51	226.43
920.81	226.42
921.12	226.50
921.42	226.47
921.72	226.56
922.02	226.59
922.32	226.64
922.63	226.69
922.93	226.93
923.23	227.01
923.53	226.94
923.83	226.60
924.13	226.68
924.44	226.65
924.74	226.78
925.04	226.90
925.34	226.90
925.64	226.63
925.94	226.69
926.24	226.95
926.55	226.90
926.85	226.99
927.15	226.95
927.45	226.90
927.75	226.91
928.05	226.86
928.35	226.78
928.65	226.87
928.95	226.88
929.26	226.69
929.56	226.78
929.86	226.83
930.16	226.82
930.46	226.70
930.76	226.80
931.06	226.52
931.36	226.39
931.66	226.50
931.96	226.66
932.26	226.75
932.56	226.59
932.86	226.72
933.16	226.68
933.46	226.71
933.76	226.66
934.06	226.75
934.36	226.92
934.66	227.04
934.96	226.91
935.26	226.92
935.56	227.00
935.86	226.92
936.16	226.89
936.46	226.87
936.76	226.89
937.06	226.72
937.36	226.83
937.66	226.82
937.96	226.77
938.26	226.66
938.56	226.58
938.86	226.55
939.16	226.68
939.46	226.70
939.76	226.70
940.06	226.70
940.35	226.56
940.65	226.33
940.95	226.32
941.25	226.31
941.55	226.28
941.85	226.24
942.15	226.31
942.45	226.39
942.75	226.39
943.04	226.46
943.34	226.63
943.64	226.55
943.94	226.55
944.24	226.50
944.54	226.51
944.84	226.46
945.13	226.43
945.43	226.25
945.73	226.26
946.03	226.18
946.33	226.14
946.62	226.15
946.92	226.12
947.22	226.15
947.52	226.12
947.82	226.20
948.11	226.16
948.41	226.04
948.71	225.89
949.01	225.88
949.31	225.78
949.60	225.71
949.90	225.72
950.20	225.78
950.50	225.82
950.79	225.78
951.09	225.91
951.39	225.88
951.69	225.79
951.98	225.91
952.28	225.98
952.58	225.98
952.87	225.99
953.17	226.10
953.47	226.00
953.76	226.07
954.06	225.90
954.36	225.79
954.66	225.81
954.95	225.97
955.25	226.04
955.55	226.10
955.84	226.02
956.14	226.03
956.44	225.95
956.73	225.84
957.03	225.92
957.32	225.87
957.62	225.83
957.92	225.97
958.21	225.84
958.51	226.30
958.81	226.36
959.10	226.39
959.40	226.45
959.69	226.55
959.99	226.53
960.29	226.60
960.58	226.62
960.88	226.82
961.17	226.79
961.47	226.79
961.76	226.77
962.06	226.83
962.36	226.83
962.65	226.86
962.95	226.88
963.24	226.85
963.54	226.90
963.83	226.99
964.13	226.96
964.42	226.95
964.72	226.57
965.01	226.60
965.31	226.60
965.60	226.46
965.90	226.68
966.19	226.58
966.49	226.61
966.78	226.60
967.08	226.56
967.37	226.49
967.67	226.43
967.96	226.46
968.26	226.42
968.55	226.49
968.85	226.46
969.14	226.48
969.43	226.49
969.73	226.42
970.02	226.39
970.32	226.33
970.61	226.26
970.91	226.21
971.20	226.13
971.49	226.08
971.79	226.18
972.08	225.82
972.38	225.95
972.67	225.92
972.96	226.00
973.26	225.88
973.55	226.08
973.85	225.97
974.14	225.99
974.43	226.00
974.73	225.95
975.02	225.94
975.31	226.00
975.61	225.98
975.90	225.95
976.19	225.90
976.49	225.99
976.78	226.10
977.07	226.10
977.37	226.18
977.66	226.22
977.95	226.15
978.24	226.31
978.54	226.35
978.83	226.24
979.12	226.24
979.42	226.32
979.71	226.18
980.00	226.28
980.29	226.33
980.59	226.28
980.88	226.37
981.17	226.45
981.46	226.47
981.76	226.43
982.05	226.57
982.34	226.56
982.63	226.53
982.93	226.41
983.22	226.51
983.51	226.53
983.80	226.64
984.09	226.70
984.39	226.64
984.68	226.58
984.97	226.70
985.26	226.67
985.55	226.60
985.85	226.60
986.14	226.70
986.43	226.72
986.72	226.70
987.01	226.52
987.30	226.46
987.59	226.32
987.89	226.36
988.18	226.17
988.47	226.12
988.76	226.05
989.05	226.05
989.34	225.98
989.63	226.06
989.92	226.00
990.22	225.88
990.51	225.86
990.80	225.80
991.09	225.82
991.38	225.83
991.67	225.85
991.96	225.77
992.25	225.72
992.54	225.55
992.83	225.53
993.12	225.54
993.41	225.60
993.70	225.78
993.99	225.79
994.28	225.98
994.58	226.07
994.87	226.07
995.16	226.10
995.45	225.98
995.74	225.78
996.03	225.81
996.32	225.91
996.61	226.01
996.90	225.97
997.19	225.87
997.48	225.90
997.77	225.76
998.06	225.74
998.34	225.67
998.63	225.65
998.92	225.64
999.21	225.69
999.50	225.67
999.79	225.49
1000.08	225.49
1000.37	225.42
1000.66	225.32
1000.95	225.42
1001.24	225.47
1001.53	225.61
1001.82	225.59
1002.11	225.42
1002.40	225.41
1002.68	225.50
1002.97	225.84
1003.26	225.88
1003.55	225.74
1003.84	225.81
1004.13	225.96
1004.42	225.97
1004.71	226.00
1004.99	226.01
1005.28	226.09
1005.57	226.03
1005.86	226.05
1006.15	226.02
1006.44	225.90
1006.72	226.02
1007.01	225.94
1007.30	225.88
1007.59	225.76
1007.88	225.79
1008.17	225.84
1008.45	225.71
1008.74	225.48
1009.03	225.23
1009.32	225.20
1009.60	225.31
1009.89	225.21
1010.18	225.02
1010.47	225.00
1010.76	225.05
1011.04	225.00
1011.33	225.05
1011.62	225.09
1011.91	225.13
1012.19	225.14
1012.48	225.16
1012.77	225.10
1013.05	225.33
1013.34	225.37
1013.63	225.38
1013.92	225.38
1014.20	225.30
1014.49	225.30
1014.78	225.36
1015.06	225.24
1015.35	225.28
1015.64	225.30
1015.92	225.45
1016.21	225.49
1016.50	225.54
1016.78	225.61
1017.07	225.68
1017.36	225.66
1017.64	225.56
1017.93	225.59
1018.22	225.62
1018.50	225.61
1018.79	225.66
1019.08	225.48
1019.36	225.46
1019.65	225.44
1019.93	225.69
1020.22	225.89
1020.51	226.24
1020.79	226.22
1021.08	225.90
1021.36	224.25
1021.65	226.00
1021.94	226.25
1022.22	225.45
1022.51	225.00
1022.79	230.00
1023.08	226.85
1023.36	231.70
1023.65	225.75
>>>>>End Processed Spectral Data<<<<<
