SpectraSuite Data File
++++++++++++++++++++++++++++++++++++
Date: Wed Sep 04 17:44:27 EDT 2013
User: lab3
Dark Spectrum Present: Yes
Reference Spectrum Present: No
Number of Sampled Component Spectra: 1
Spectrometers: USB2E7196
Integration Time (usec): 170000 (USB2E7196)
Spectra Averaged: 20 (USB2E7196)
Boxcar Smoothing: 10 (USB2E7196)
Correct for Electrical Dark: No (USB2E7196)
Strobe/Lamp Enabled: No (USB2E7196)
Correct for Detector Non-linearity: No (USB2E7196)
Correct for Stray Light: No (USB2E7196)
Number of Pixels in Processed Spectrum: 2048
>>>>>Begin Processed Spectral Data<<<<<
339.09	0.00
339.48	214.15
339.86	214.15
340.24	215.55
340.63	216.80
341.01	225.65
341.39	219.75
341.78	221.75
342.16	224.40
342.54	222.35
342.93	212.19
343.31	222.88
343.69	223.31
344.07	223.77
344.46	224.35
344.84	224.82
345.22	224.75
345.60	225.03
345.99	225.18
346.37	225.23
346.75	225.37
347.13	225.42
347.52	225.49
347.90	225.69
348.28	225.72
348.66	225.86
349.05	225.73
349.43	225.83
349.81	225.92
350.19	225.91
350.57	226.02
350.96	226.07
351.34	226.18
351.72	226.32
352.10	226.42
352.48	226.33
352.87	226.33
353.25	226.44
353.63	226.55
354.01	226.64
354.39	226.70
354.77	226.78
355.15	226.97
355.54	226.91
355.92	226.77
356.30	226.83
356.68	227.14
357.06	227.25
357.44	227.20
357.82	227.24
358.20	227.75
358.58	227.82
358.97	227.92
359.35	228.13
359.73	228.24
360.11	228.27
360.49	228.40
360.87	228.46
361.25	228.56
361.63	228.73
362.01	228.80
362.39	228.82
362.77	228.91
363.15	228.94
363.53	228.96
363.91	229.05
364.29	229.07
364.67	228.75
365.05	228.81
365.43	228.93
365.81	228.94
366.19	228.80
366.57	228.94
366.95	228.94
367.33	228.75
367.71	228.79
368.09	228.92
368.47	228.88
368.85	228.84
369.23	228.97
369.61	228.75
369.99	228.90
370.37	229.03
370.75	229.23
371.13	229.14
371.51	229.13
371.89	229.18
372.27	229.18
372.65	229.16
373.03	229.08
373.41	229.07
373.78	229.08
374.16	228.80
374.54	228.73
374.92	228.64
375.30	228.68
375.68	228.53
376.06	228.51
376.44	228.39
376.82	228.30
377.19	228.23
377.57	228.14
377.95	227.93
378.33	227.73
378.71	227.37
379.09	227.37
379.47	227.35
379.84	227.21
380.22	227.12
380.60	226.94
380.98	226.90
381.36	226.79
381.73	226.62
382.11	226.71
382.49	226.55
382.87	226.50
383.25	226.41
383.62	226.89
384.00	226.64
384.38	226.67
384.76	226.80
385.13	226.90
385.51	226.85
385.89	226.76
386.27	226.73
386.64	226.75
387.02	226.65
387.40	226.55
387.78	226.52
388.15	226.45
388.53	226.34
388.91	226.23
389.29	226.13
389.66	226.24
390.04	226.03
390.42	226.08
390.79	225.99
391.17	225.94
391.55	225.46
391.92	225.49
392.30	225.40
392.68	225.26
393.05	225.11
393.43	225.14
393.81	225.13
394.18	225.10
394.56	225.13
394.94	225.18
395.31	225.15
395.69	225.33
396.06	225.43
396.44	225.61
396.82	225.69
397.19	226.03
397.57	226.02
397.95	226.24
398.32	226.19
398.70	226.32
399.07	226.50
399.45	226.46
399.82	226.56
400.20	226.74
400.58	226.79
400.95	226.72
401.33	226.94
401.70	227.40
402.08	227.56
402.45	227.64
402.83	227.91
403.20	228.14
403.58	228.19
403.95	228.41
404.33	228.62
404.71	228.82
405.08	229.22
405.46	229.45
405.83	229.62
406.21	229.86
406.58	230.19
406.96	230.39
407.33	230.77
407.70	231.17
408.08	231.83
408.45	232.33
408.83	232.85
409.20	233.25
409.58	233.42
409.95	233.99
410.33	234.52
410.70	234.96
411.08	235.49
411.45	236.11
411.82	236.69
412.20	237.40
412.57	238.40
412.95	238.76
413.32	239.60
413.69	240.38
414.07	241.24
414.44	242.15
414.82	243.19
415.19	244.29
415.56	245.44
415.94	246.42
416.31	247.76
416.68	249.14
417.06	250.65
417.43	252.22
417.81	253.88
418.18	255.77
418.55	257.66
418.93	259.70
419.30	261.71
419.67	263.81
420.04	266.06
420.42	268.25
420.79	271.15
421.16	273.95
421.54	276.88
421.91	279.85
422.28	282.81
422.66	285.91
423.03	289.26
423.40	292.48
423.77	295.96
424.15	299.48
424.52	303.19
424.89	307.27
425.26	311.12
425.64	314.77
426.01	318.77
426.38	322.94
426.75	327.33
427.13	331.76
427.50	336.55
427.87	341.25
428.24	345.99
428.61	350.36
428.99	355.50
429.36	360.95
429.73	366.19
430.10	371.58
430.47	377.12
430.85	382.67
431.22	388.70
431.59	395.25
431.96	401.20
432.33	407.84
432.70	414.16
433.08	421.64
433.45	428.77
433.82	435.91
434.19	443.85
434.56	451.59
434.93	459.02
435.30	466.38
435.68	474.73
436.05	482.81
436.42	490.75
436.79	498.14
437.16	506.14
437.53	514.77
437.90	523.20
438.27	531.58
438.64	540.16
439.01	548.10
439.38	555.05
439.75	561.96
440.13	569.76
440.50	577.18
440.87	583.26
441.24	589.34
441.61	596.01
441.98	600.85
442.35	606.58
442.72	612.35
443.09	617.99
443.46	621.23
443.83	623.62
444.20	625.73
444.57	628.30
444.94	629.29
445.31	630.29
445.68	631.75
446.05	631.84
446.42	630.74
446.79	629.52
447.16	627.99
447.53	626.82
447.90	623.37
448.27	619.76
448.64	615.02
449.01	611.71
449.37	605.87
449.74	600.09
450.11	593.52
450.48	586.04
450.85	578.43
451.22	571.83
451.59	565.39
451.96	559.23
452.33	551.41
452.70	544.38
453.07	536.00
453.43	527.14
453.80	519.09
454.17	511.25
454.54	503.70
454.91	495.92
455.28	488.25
455.65	480.96
456.02	474.55
456.38	468.42
456.75	460.82
457.12	454.45
457.49	448.41
457.86	442.24
458.23	437.35
458.59	431.75
458.96	426.20
459.33	421.30
459.70	416.48
460.07	412.50
460.43	407.91
460.80	403.82
461.17	400.10
461.54	396.21
461.91	392.52
462.27	388.77
462.64	385.46
463.01	382.07
463.38	378.86
463.74	374.89
464.11	371.87
464.48	369.39
464.85	366.67
465.21	364.59
465.58	362.33
465.95	359.54
466.32	357.43
466.68	355.24
467.05	353.10
467.42	350.83
467.78	348.65
468.15	346.65
468.52	345.09
468.88	342.95
469.25	341.07
469.62	339.59
469.98	337.98
470.35	336.57
470.72	335.08
471.08	333.39
471.45	332.15
471.82	331.00
472.18	329.56
472.55	328.62
472.92	327.33
473.28	326.22
473.65	325.24
474.02	324.23
474.38	323.46
474.75	322.76
475.11	321.95
475.48	321.29
475.85	320.65
476.21	319.98
476.58	319.62
476.94	319.27
477.31	318.75
477.67	318.44
478.04	318.07
478.41	317.88
478.77	318.20
479.14	317.92
479.50	317.79
479.87	317.78
480.23	317.71
480.60	317.75
480.96	317.78
481.33	318.15
481.69	318.32
482.06	318.51
482.42	318.78
482.79	319.20
483.15	319.71
483.52	320.36
483.88	320.89
484.25	321.41
484.61	322.06
484.98	322.74
485.34	323.66
485.71	324.67
486.07	325.64
486.44	326.22
486.80	327.36
487.17	328.47
487.53	329.85
487.90	331.30
488.26	333.01
488.62	334.70
488.99	336.19
489.35	337.91
489.72	339.74
490.08	341.60
490.44	343.56
490.81	345.68
491.17	347.77
491.54	350.23
491.90	352.73
492.26	355.41
492.63	358.35
492.99	361.17
493.36	364.10
493.72	367.35
494.08	370.78
494.45	374.32
494.81	378.14
495.17	382.03
495.54	386.19
495.90	390.21
496.26	394.52
496.63	398.99
496.99	403.67
497.35	408.64
497.72	413.83
498.08	419.37
498.44	424.95
498.80	430.92
499.17	436.86
499.53	443.13
499.89	449.57
500.26	456.28
500.62	463.10
500.98	470.41
501.34	477.78
501.71	485.36
502.07	493.07
502.43	501.02
502.79	509.16
503.16	517.63
503.52	526.62
503.88	535.60
504.24	545.16
504.60	555.15
504.97	565.26
505.33	575.52
505.69	586.42
506.05	597.36
506.41	608.52
506.78	619.91
507.14	631.71
507.50	643.91
507.86	656.18
508.22	668.91
508.59	681.60
508.95	695.17
509.31	709.13
509.67	723.07
510.03	737.16
510.39	751.59
510.75	766.01
511.12	780.91
511.48	796.25
511.84	811.64
512.20	827.07
512.56	842.99
512.92	859.35
513.28	875.60
513.64	892.28
514.00	909.12
514.37	926.40
514.73	943.91
515.09	961.85
515.45	979.64
515.81	997.76
516.17	1016.22
516.53	1034.33
516.89	1052.49
517.25	1071.47
517.61	1091.40
517.97	1111.29
518.33	1131.21
518.69	1150.85
519.05	1171.01
519.41	1191.10
519.77	1211.74
520.13	1231.89
520.49	1252.05
520.85	1272.50
521.21	1293.06
521.57	1313.92
521.93	1334.12
522.29	1354.83
522.65	1374.69
523.01	1395.07
523.37	1415.02
523.73	1435.64
524.09	1455.39
524.45	1475.16
524.81	1495.25
525.17	1514.70
525.53	1534.69
525.89	1554.75
526.25	1574.98
526.61	1594.42
526.97	1614.94
527.33	1635.24
527.68	1656.42
528.04	1676.93
528.40	1697.12
528.76	1717.61
529.12	1737.19
529.48	1757.49
529.84	1776.65
530.20	1796.87
530.56	1816.72
530.91	1837.01
531.27	1856.27
531.63	1876.21
531.99	1896.22
532.35	1915.64
532.71	1935.21
533.07	1955.02
533.42	1974.08
533.78	1992.85
534.14	2011.88
534.50	2029.77
534.86	2048.01
535.21	2064.49
535.57	2081.93
535.93	2098.82
536.29	2115.51
536.65	2132.94
537.00	2149.34
537.36	2166.02
537.72	2181.63
538.08	2198.03
538.44	2213.57
538.79	2229.20
539.15	2244.89
539.51	2259.97
539.87	2274.23
540.22	2287.13
540.58	2300.31
540.94	2312.64
541.29	2324.54
541.65	2336.30
542.01	2348.06
542.37	2357.45
542.72	2367.94
543.08	2377.83
543.44	2388.57
543.79	2397.54
544.15	2406.40
544.51	2415.98
544.87	2424.71
545.22	2432.86
545.58	2440.00
545.94	2446.47
546.29	2452.24
546.65	2457.39
547.01	2462.39
547.36	2467.26
547.72	2472.20
548.07	2475.31
548.43	2479.95
548.79	2483.91
549.14	2487.38
549.50	2490.57
549.86	2494.31
550.21	2497.17
550.57	2499.57
550.92	2500.37
551.28	2501.36
551.64	2503.12
551.99	2504.11
552.35	2505.27
552.70	2506.88
553.06	2507.79
553.41	2508.40
553.77	2509.27
554.13	2510.54
554.48	2511.38
554.84	2511.73
555.19	2512.60
555.55	2514.05
555.90	2512.63
556.26	2511.27
556.61	2509.46
556.97	2506.70
557.32	2505.59
557.68	2503.91
558.03	2502.38
558.39	2500.72
558.74	2499.51
559.10	2496.00
559.45	2491.96
559.81	2487.37
560.16	2481.78
560.52	2476.42
560.87	2471.78
561.23	2466.40
561.58	2460.14
561.94	2452.99
562.29	2445.52
562.64	2438.58
563.00	2429.95
563.35	2423.46
563.71	2416.78
564.06	2410.01
564.42	2403.51
564.77	2396.63
565.12	2389.10
565.48	2381.23
565.83	2373.18
566.19	2365.05
566.54	2357.29
566.89	2349.42
567.25	2341.54
567.60	2334.23
567.96	2326.84
568.31	2318.66
568.66	2310.10
569.02	2301.25
569.37	2292.96
569.72	2285.88
570.08	2276.26
570.43	2267.02
570.78	2258.10
571.14	2248.71
571.49	2238.72
571.84	2229.57
572.20	2218.42
572.55	2208.39
572.90	2197.92
573.26	2187.66
573.61	2176.87
573.96	2165.85
574.31	2154.02
574.67	2142.48
575.02	2130.25
575.37	2117.95
575.72	2105.50
576.08	2093.84
576.43	2081.57
576.78	2069.11
577.13	2055.91
577.49	2043.70
577.84	2032.38
578.19	2020.41
578.54	2008.19
578.90	1996.80
579.25	1984.60
579.60	1972.87
579.95	1960.54
580.30	1948.00
580.66	1934.91
581.01	1921.68
581.36	1908.28
581.71	1896.20
582.06	1883.72
582.42	1871.51
582.77	1859.51
583.12	1847.94
583.47	1836.04
583.82	1824.67
584.17	1813.51
584.53	1801.98
584.88	1789.64
585.23	1777.09
585.58	1763.83
585.93	1751.31
586.28	1738.51
586.63	1725.19
586.98	1711.74
587.34	1698.86
587.69	1686.17
588.04	1674.43
588.39	1663.25
588.74	1651.67
589.09	1640.19
589.44	1628.16
589.79	1616.59
590.14	1605.06
590.49	1593.46
590.84	1581.76
591.19	1570.23
591.54	1558.19
591.89	1546.59
592.25	1536.93
592.60	1525.69
592.95	1514.77
593.30	1503.66
593.65	1492.53
594.00	1481.34
594.35	1472.13
594.70	1460.83
595.05	1449.79
595.40	1438.55
595.75	1427.06
596.10	1416.39
596.45	1405.55
596.80	1395.27
597.15	1384.55
597.50	1373.19
597.85	1362.40
598.19	1351.50
598.54	1340.50
598.89	1329.89
599.24	1319.75
599.59	1308.58
599.94	1298.62
600.29	1288.80
600.64	1278.94
600.99	1268.87
601.34	1259.53
601.69	1249.04
602.04	1239.95
602.39	1230.97
602.74	1222.39
603.08	1213.65
603.43	1204.71
603.78	1195.66
604.13	1186.42
604.48	1177.17
604.83	1168.14
605.18	1158.96
605.53	1150.13
605.87	1141.54
606.22	1133.65
606.57	1124.85
606.92	1116.06
607.27	1107.58
607.62	1099.32
607.96	1091.38
608.31	1083.83
608.66	1076.08
609.01	1067.93
609.36	1060.16
609.70	1052.11
610.05	1043.81
610.40	1035.74
610.75	1027.61
611.10	1019.52
611.44	1011.85
611.79	1004.40
612.14	997.04
612.49	989.67
612.83	982.48
613.18	975.18
613.53	967.70
613.88	960.45
614.22	953.22
614.57	945.66
614.92	938.17
615.27	930.85
615.61	923.44
615.96	916.02
616.31	908.97
616.65	902.03
617.00	894.97
617.35	887.96
617.70	881.19
618.04	874.38
618.39	867.93
618.74	861.74
619.08	855.10
619.43	848.61
619.78	841.87
620.12	835.05
620.47	828.41
620.82	821.51
621.16	815.04
621.51	809.09
621.85	803.08
622.20	796.95
622.55	790.77
622.89	784.68
623.24	778.83
623.59	772.60
623.93	766.74
624.28	761.12
624.62	755.88
624.97	750.44
625.32	745.12
625.66	739.44
626.01	733.46
626.35	728.19
626.70	722.94
627.04	718.01
627.39	712.85
627.73	707.93
628.08	703.27
628.43	697.96
628.77	692.86
629.12	687.93
629.46	683.39
629.81	678.85
630.15	674.31
630.50	669.79
630.84	665.35
631.19	660.82
631.53	656.44
631.88	651.38
632.22	646.70
632.57	642.38
632.91	638.00
633.26	633.85
633.60	629.49
633.95	625.12
634.29	620.56
634.64	616.39
634.98	611.97
635.32	607.73
635.67	604.13
636.01	600.04
636.36	595.92
636.70	591.97
637.05	588.11
637.39	584.38
637.73	580.57
638.08	576.84
638.42	572.84
638.77	568.77
639.11	564.74
639.45	560.70
639.80	556.72
640.14	552.88
640.49	549.07
640.83	545.54
641.17	542.14
641.52	538.85
641.86	535.39
642.20	532.41
642.55	528.98
642.89	525.50
643.23	522.26
643.58	519.49
643.92	516.10
644.26	512.83
644.61	509.63
644.95	506.34
645.29	503.21
645.64	500.33
645.98	497.42
646.32	494.68
646.66	491.85
647.01	489.02
647.35	486.46
647.69	483.84
648.04	481.14
648.38	478.45
648.72	475.74
649.06	472.95
649.41	469.89
649.75	467.18
650.09	464.50
650.43	461.75
650.78	458.77
651.12	456.21
651.46	453.49
651.80	450.87
652.14	448.48
652.49	446.00
652.83	443.64
653.17	441.15
653.51	438.59
653.85	436.33
654.20	433.92
654.54	431.46
654.88	429.07
655.22	426.87
655.56	424.45
655.90	422.24
656.25	420.07
656.59	417.97
656.93	415.85
657.27	413.86
657.61	411.67
657.95	409.55
658.29	407.38
658.64	405.56
658.98	403.48
659.32	401.27
659.66	399.21
660.00	397.09
660.34	395.16
660.68	393.34
661.02	391.37
661.36	389.52
661.70	387.54
662.05	385.65
662.39	383.80
662.73	382.08
663.07	380.48
663.41	378.80
663.75	377.04
664.09	375.25
664.43	373.35
664.77	371.76
665.11	370.07
665.45	368.47
665.79	366.78
666.13	365.15
666.47	363.51
666.81	361.90
667.15	360.25
667.49	358.78
667.83	357.42
668.17	355.97
668.51	354.54
668.85	353.26
669.19	352.18
669.53	350.65
669.87	349.22
670.21	347.69
670.55	346.20
670.89	345.09
671.23	343.82
671.57	342.54
671.91	341.19
672.25	340.02
672.58	338.95
672.92	337.51
673.26	336.27
673.60	335.14
673.94	333.99
674.28	332.93
674.62	331.77
674.96	330.58
675.30	329.49
675.64	328.33
675.97	327.20
676.31	325.82
676.65	324.73
676.99	323.80
677.33	322.66
677.67	321.80
678.01	320.54
678.34	319.58
678.68	318.65
679.02	317.60
679.36	316.59
679.70	315.50
680.04	314.61
680.37	313.76
680.71	312.87
681.05	312.04
681.39	311.24
681.73	310.40
682.06	309.50
682.40	308.71
682.74	307.98
683.08	307.37
683.42	306.49
683.75	305.77
684.09	304.79
684.43	304.02
684.77	303.15
685.10	302.42
685.44	301.58
685.78	300.86
686.12	300.27
686.45	299.55
686.79	298.75
687.13	298.25
687.46	297.51
687.80	296.83
688.14	295.98
688.48	295.14
688.81	294.38
689.15	293.79
689.49	292.95
689.82	292.27
690.16	291.39
690.50	290.80
690.83	290.09
691.17	289.39
691.51	288.73
691.84	288.08
692.18	287.42
692.52	286.80
692.85	286.24
693.19	285.79
693.52	285.18
693.86	284.62
694.20	283.94
694.53	283.30
694.87	282.75
695.21	282.23
695.54	281.77
695.88	281.14
696.21	280.44
696.55	279.95
696.88	279.42
697.22	278.79
697.56	278.33
697.89	277.74
698.23	277.37
698.56	276.85
698.90	276.49
699.23	276.00
699.57	275.58
699.90	274.97
700.24	274.27
700.58	273.85
700.91	273.46
701.25	273.35
701.58	273.34
701.92	273.04
702.25	272.60
702.59	272.06
702.92	271.66
703.26	271.28
703.59	270.83
703.93	270.82
704.26	270.55
704.60	270.13
704.93	269.72
705.26	269.23
705.60	268.95
705.93	268.37
706.27	268.09
706.60	267.77
706.94	267.61
707.27	267.20
707.61	266.87
707.94	266.47
708.27	265.69
708.61	264.89
708.94	264.38
709.28	264.00
709.61	263.72
709.94	263.49
710.28	263.12
710.61	262.80
710.95	261.96
711.28	261.86
711.61	261.44
711.95	261.21
712.28	260.85
712.61	260.41
712.95	260.45
713.28	260.24
713.61	259.85
713.95	259.42
714.28	259.16
714.61	258.69
714.95	258.26
715.28	257.88
715.61	257.58
715.95	257.33
716.28	256.97
716.61	256.73
716.95	256.38
717.28	256.06
717.61	255.76
717.94	255.55
718.28	254.92
718.61	254.67
718.94	254.35
719.27	254.05
719.61	253.85
719.94	253.46
720.27	253.00
720.60	252.73
720.94	252.50
721.27	252.30
721.60	252.21
721.93	252.02
722.27	251.97
722.60	251.79
722.93	251.50
723.26	251.43
723.59	251.09
723.93	250.91
724.26	250.80
724.59	250.51
724.92	250.25
725.25	250.23
725.59	249.92
725.92	249.75
726.25	249.59
726.58	249.41
726.91	249.17
727.24	249.11
727.57	248.91
727.91	248.55
728.24	248.45
728.57	248.20
728.90	248.04
729.23	247.70
729.56	247.78
729.89	247.54
730.22	247.17
730.55	246.93
730.89	246.71
731.22	246.47
731.55	246.33
731.88	246.17
732.21	245.83
732.54	245.75
732.87	245.53
733.20	245.39
733.53	245.16
733.86	245.00
734.19	244.70
734.52	244.57
734.85	244.84
735.18	244.56
735.51	244.55
735.84	244.51
736.17	244.49
736.50	244.04
736.83	244.56
737.16	244.47
737.49	244.36
737.82	244.17
738.15	244.07
738.48	243.91
738.81	243.76
739.14	243.63
739.47	243.46
739.80	243.35
740.13	243.28
740.46	243.08
740.79	242.81
741.12	242.66
741.45	242.54
741.78	242.08
742.11	242.08
742.44	241.79
742.77	241.71
743.10	241.50
743.43	241.32
743.75	240.62
744.08	241.17
744.41	241.00
744.74	240.83
745.07	240.66
745.40	240.65
745.73	240.74
746.06	240.62
746.39	240.53
746.71	240.28
747.04	240.13
747.37	240.00
747.70	240.05
748.03	239.93
748.36	239.88
748.68	239.75
749.01	239.49
749.34	239.43
749.67	239.27
750.00	239.34
750.33	239.65
750.65	239.59
750.98	238.86
751.31	238.82
751.64	238.73
751.97	238.95
752.29	238.78
752.62	238.44
752.95	238.30
753.28	238.08
753.60	238.10
753.93	238.13
754.26	238.12
754.59	237.86
754.91	237.73
755.24	237.55
755.57	237.47
755.90	237.44
756.22	237.30
756.55	237.14
756.88	236.92
757.20	236.53
757.53	236.29
757.86	236.24
758.19	236.13
758.51	236.06
758.84	235.60
759.17	235.52
759.49	235.47
759.82	235.63
760.15	235.68
760.47	235.59
760.80	235.29
761.13	235.21
761.45	235.15
761.78	235.11
762.11	235.03
762.43	234.89
762.76	234.76
763.08	234.71
763.41	234.70
763.74	234.67
764.06	234.58
764.39	234.49
764.71	234.34
765.04	234.25
765.37	234.16
765.69	234.14
766.02	234.04
766.34	233.89
766.67	233.67
767.00	233.66
767.32	233.79
767.65	234.03
767.97	233.97
768.30	233.95
768.62	233.88
768.95	233.74
769.27	233.65
769.60	233.62
769.92	233.48
770.25	233.36
770.57	233.11
770.90	232.98
771.22	232.88
771.55	232.84
771.87	232.79
772.20	232.71
772.52	233.09
772.85	233.60
773.17	233.63
773.50	233.48
773.82	233.34
774.15	233.10
774.47	232.76
774.80	232.70
775.12	232.63
775.45	232.55
775.77	232.55
776.09	232.58
776.42	232.55
776.74	232.65
777.07	232.49
777.39	232.52
777.72	232.43
778.04	232.49
778.36	232.51
778.69	232.50
779.01	232.45
779.33	231.97
779.66	231.40
779.98	231.28
780.31	231.32
780.63	231.52
780.95	231.47
781.28	231.39
781.60	231.36
781.92	231.31
782.25	231.28
782.57	231.24
782.89	231.14
783.22	231.09
783.54	230.98
783.86	231.00
784.19	230.96
784.51	231.09
784.83	231.01
785.16	230.90
785.48	230.89
785.80	230.93
786.12	230.90
786.45	230.76
786.77	230.74
787.09	230.65
787.42	230.45
787.74	230.50
788.06	230.50
788.38	230.40
788.71	230.32
789.03	230.31
789.35	230.39
789.67	230.36
789.99	230.28
790.32	230.19
790.64	230.19
790.96	230.49
791.28	230.31
791.61	230.23
791.93	230.21
792.25	230.07
792.57	230.40
792.89	230.26
793.21	230.35
793.54	230.30
793.86	230.24
794.18	230.22
794.50	230.10
794.82	230.11
795.14	230.12
795.47	230.20
795.79	230.16
796.11	230.00
796.43	229.91
796.75	229.90
797.07	229.91
797.39	229.85
797.71	229.48
798.04	229.53
798.36	229.51
798.68	229.45
799.00	229.49
799.32	229.17
799.64	229.26
799.96	229.22
800.28	229.30
800.60	229.21
800.92	229.20
801.24	229.14
801.56	229.13
801.89	229.09
802.21	229.12
802.53	229.12
802.85	229.17
803.17	229.36
803.49	229.30
803.81	229.26
804.13	229.21
804.45	229.20
804.77	229.15
805.09	229.17
805.41	229.12
805.73	229.08
806.05	228.92
806.37	228.89
806.69	228.82
807.01	228.74
807.33	228.71
807.65	228.50
807.97	228.71
808.28	228.61
808.60	228.55
808.92	228.40
809.24	228.62
809.56	228.53
809.88	228.42
810.20	228.40
810.52	228.40
810.84	228.34
811.16	228.24
811.48	228.23
811.80	228.36
812.12	228.33
812.43	228.32
812.75	228.39
813.07	228.35
813.39	228.36
813.71	228.24
814.03	228.27
814.35	228.30
814.67	228.08
814.98	228.03
815.30	227.98
815.62	227.89
815.94	227.59
816.26	227.79
816.58	227.59
816.89	227.63
817.21	227.58
817.53	227.61
817.85	227.57
818.17	227.46
818.48	227.18
818.80	227.29
819.12	227.27
819.44	227.15
819.76	227.11
820.07	227.10
820.39	227.11
820.71	227.20
821.03	227.20
821.34	227.15
821.66	227.21
821.98	227.33
822.30	227.34
822.61	227.58
822.93	227.33
823.25	227.40
823.57	227.34
823.88	227.40
824.20	227.35
824.52	227.51
824.83	227.51
825.15	227.48
825.47	227.42
825.79	227.42
826.10	227.40
826.42	227.29
826.74	227.33
827.05	227.33
827.37	227.25
827.69	227.17
828.00	227.30
828.32	227.37
828.64	227.28
828.95	227.57
829.27	227.41
829.58	227.48
829.90	227.55
830.22	227.58
830.53	227.49
830.85	227.46
831.17	227.31
831.48	227.33
831.80	227.44
832.11	227.47
832.43	227.40
832.75	227.45
833.06	227.83
833.38	227.71
833.69	227.69
834.01	227.73
834.32	227.79
834.64	227.63
834.96	227.65
835.27	227.64
835.59	227.47
835.90	227.38
836.22	227.30
836.53	227.19
836.85	227.18
837.16	227.62
837.48	227.58
837.79	227.75
838.11	227.80
838.42	227.78
838.74	227.78
839.05	227.83
839.37	227.78
839.68	227.46
840.00	227.44
840.31	227.50
840.63	227.44
840.94	227.41
841.26	227.42
841.57	227.33
841.88	227.38
842.20	227.29
842.51	227.31
842.83	227.33
843.14	227.77
843.46	227.77
843.77	227.50
844.08	227.51
844.40	227.37
844.71	227.29
845.03	227.25
845.34	227.18
845.65	227.05
845.97	227.05
846.28	227.10
846.60	227.14
846.91	227.08
847.22	227.09
847.54	227.18
847.85	227.22
848.16	227.12
848.48	227.01
848.79	227.16
849.10	227.16
849.42	227.21
849.73	226.76
850.04	226.67
850.36	226.51
850.67	226.58
850.98	226.54
851.30	226.57
851.61	226.55
851.92	226.51
852.23	226.68
852.55	226.76
852.86	226.71
853.17	226.73
853.49	226.77
853.80	226.85
854.11	226.85
854.42	226.86
854.74	226.87
855.05	226.86
855.36	226.54
855.67	226.50
855.99	226.49
856.30	227.03
856.61	226.98
856.92	226.99
857.23	227.03
857.55	226.95
857.86	226.95
858.17	226.98
858.48	226.90
858.79	226.80
859.11	226.81
859.42	226.82
859.73	226.79
860.04	226.81
860.35	226.65
860.66	226.53
860.98	226.53
861.29	226.65
861.60	226.63
861.91	226.81
862.22	226.77
862.53	226.72
862.84	226.22
863.16	226.38
863.47	226.33
863.78	226.25
864.09	226.37
864.40	226.44
864.71	226.45
865.02	226.57
865.33	226.53
865.64	226.43
865.95	226.40
866.27	226.67
866.58	226.61
866.89	226.74
867.20	226.72
867.51	226.66
867.82	226.50
868.13	226.71
868.44	226.64
868.75	226.80
869.06	226.77
869.37	226.77
869.68	226.66
869.99	226.75
870.30	226.84
870.61	226.85
870.92	226.63
871.23	226.62
871.54	226.62
871.85	226.78
872.16	226.83
872.47	226.71
872.78	226.45
873.09	226.56
873.40	226.45
873.71	226.49
874.02	226.55
874.33	226.56
874.64	226.37
874.95	226.44
875.26	226.25
875.56	226.27
875.87	226.24
876.18	226.24
876.49	226.67
876.80	226.56
877.11	226.51
877.42	226.60
877.73	226.63
878.04	226.62
878.35	226.58
878.66	226.61
878.96	226.62
879.27	226.62
879.58	226.54
879.89	226.57
880.20	226.68
880.51	226.61
880.82	226.60
881.12	226.61
881.43	226.46
881.74	226.40
882.05	226.31
882.36	226.31
882.67	226.31
882.97	225.78
883.28	225.76
883.59	225.68
883.90	225.75
884.21	225.80
884.51	225.73
884.82	225.60
885.13	225.51
885.44	225.54
885.74	225.47
886.05	225.39
886.36	225.38
886.67	225.18
886.98	225.42
887.28	225.47
887.59	225.47
887.90	225.52
888.20	225.47
888.51	225.57
888.82	225.48
889.13	225.47
889.43	225.89
889.74	225.84
890.05	225.82
890.35	225.74
890.66	225.68
890.97	225.61
891.28	225.52
891.58	225.57
891.89	225.62
892.20	225.62
892.50	225.61
892.81	225.49
893.12	225.53
893.42	225.25
893.73	225.27
894.04	225.27
894.34	225.31
894.65	225.40
894.95	225.36
895.26	225.41
895.57	225.60
895.87	225.14
896.18	225.25
896.48	225.28
896.79	225.29
897.10	225.38
897.40	225.47
897.71	225.56
898.01	225.55
898.32	225.58
898.63	225.60
898.93	225.69
899.24	225.74
899.54	225.75
899.85	225.77
900.15	225.73
900.46	225.73
900.76	225.80
901.07	225.72
901.38	225.75
901.68	225.83
901.99	225.67
902.29	225.71
902.60	225.69
902.90	225.68
903.21	225.66
903.51	225.61
903.82	225.67
904.12	225.77
904.43	225.86
904.73	225.88
905.03	225.86
905.34	226.36
905.64	226.41
905.95	226.38
906.25	226.37
906.56	226.42
906.86	226.51
907.17	226.47
907.47	226.60
907.77	226.60
908.08	226.48
908.38	226.54
908.69	226.61
908.99	226.69
909.30	226.80
909.60	226.83
909.90	226.93
910.21	226.85
910.51	226.77
910.81	226.70
911.12	226.73
911.42	226.79
911.73	226.25
912.03	226.27
912.33	226.41
912.64	226.43
912.94	226.34
913.24	226.21
913.55	226.17
913.85	226.13
914.15	226.22
914.46	226.33
914.76	226.24
915.06	226.15
915.37	226.04
915.67	226.03
915.97	226.04
916.27	225.79
916.58	225.85
916.88	225.82
917.18	225.76
917.49	226.04
917.79	225.99
918.09	226.04
918.39	226.14
918.70	226.13
919.00	226.12
919.30	226.37
919.60	226.44
919.91	226.39
920.21	226.43
920.51	226.26
920.81	226.23
921.12	226.35
921.42	226.34
921.72	226.37
922.02	226.32
922.32	226.35
922.63	226.41
922.93	226.55
923.23	226.55
923.53	226.57
923.83	226.30
924.13	226.37
924.44	226.32
924.74	226.35
925.04	226.35
925.34	226.33
925.64	226.12
925.94	226.06
926.24	226.28
926.55	226.19
926.85	226.29
927.15	226.26
927.45	226.15
927.75	226.11
928.05	226.05
928.35	225.98
928.65	226.08
928.95	226.13
929.26	225.95
929.56	226.09
929.86	226.04
930.16	225.95
930.46	225.88
930.76	225.86
931.06	225.64
931.36	225.52
931.66	225.56
931.96	225.61
932.26	225.69
932.56	225.50
932.86	225.51
933.16	225.45
933.46	225.38
933.76	225.32
934.06	225.49
934.36	225.70
934.66	225.78
934.96	225.71
935.26	225.72
935.56	225.80
935.86	225.63
936.16	225.62
936.46	225.58
936.76	225.56
937.06	225.52
937.36	225.59
937.66	225.64
937.96	225.63
938.26	225.57
938.56	225.49
938.86	225.60
939.16	225.75
939.46	225.87
939.76	225.94
940.06	226.00
940.35	225.91
940.65	225.72
940.95	225.80
941.25	225.66
941.55	225.60
941.85	225.59
942.15	225.68
942.45	225.80
942.75	225.84
943.04	225.92
943.34	226.09
943.64	226.02
943.94	225.99
944.24	225.95
944.54	225.97
944.84	225.99
945.13	225.96
945.43	225.88
945.73	225.86
946.03	225.83
946.33	225.83
946.62	225.80
946.92	225.77
947.22	225.72
947.52	225.84
947.82	225.93
948.11	225.85
948.41	225.78
948.71	225.64
949.01	225.65
949.31	225.60
949.60	225.51
949.90	225.65
950.20	225.68
950.50	225.69
950.79	225.64
951.09	225.70
951.39	225.66
951.69	225.62
951.98	225.75
952.28	225.85
952.58	225.79
952.87	225.82
953.17	225.91
953.47	225.88
953.76	225.81
954.06	225.72
954.36	225.71
954.66	225.74
954.95	225.95
955.25	226.05
955.55	226.09
955.84	226.04
956.14	226.05
956.44	226.03
956.73	226.07
957.03	226.19
957.32	226.17
957.62	226.10
957.92	226.25
958.21	226.11
958.51	226.59
958.81	226.69
959.10	226.69
959.40	226.78
959.69	226.81
959.99	226.89
960.29	226.92
960.58	226.88
960.88	227.04
961.17	226.93
961.47	226.86
961.76	226.88
962.06	226.97
962.36	226.90
962.65	226.91
962.95	226.89
963.24	226.83
963.54	226.80
963.83	226.81
964.13	226.70
964.42	226.54
964.72	226.06
965.01	225.96
965.31	225.95
965.60	225.78
965.90	226.14
966.19	225.94
966.49	225.95
966.78	225.94
967.08	225.93
967.37	225.85
967.67	225.83
967.96	225.74
968.26	225.66
968.55	225.73
968.85	225.72
969.14	225.68
969.43	225.63
969.73	225.57
970.02	225.53
970.32	225.52
970.61	225.59
970.91	225.48
971.20	225.48
971.49	225.39
971.79	225.49
972.08	225.07
972.38	225.15
972.67	225.08
972.96	225.10
973.26	224.90
973.55	225.09
973.85	225.05
974.14	225.08
974.43	225.15
974.73	225.02
975.02	224.92
975.31	225.00
975.61	224.91
975.90	224.85
976.19	224.88
976.49	224.87
976.78	224.87
977.07	224.92
977.37	224.90
977.66	224.89
977.95	224.88
978.24	224.89
978.54	225.04
978.83	225.05
979.12	225.18
979.42	225.24
979.71	225.11
980.00	225.07
980.29	225.12
980.59	225.04
980.88	225.22
981.17	225.29
981.46	225.22
981.76	225.30
982.05	225.55
982.34	225.57
982.63	225.66
982.93	225.71
983.22	225.83
983.51	225.91
983.80	226.10
984.09	226.11
984.39	226.12
984.68	226.04
984.97	226.08
985.26	225.92
985.55	225.98
985.85	225.98
986.14	226.03
986.43	226.09
986.72	226.10
987.01	225.96
987.30	225.95
987.59	225.93
987.89	226.00
988.18	225.83
988.47	225.82
988.76	225.70
989.05	225.75
989.34	225.66
989.63	225.85
989.92	225.80
990.22	225.74
990.51	225.76
990.80	225.75
991.09	225.77
991.38	225.85
991.67	225.83
991.96	225.79
992.25	225.83
992.54	225.71
992.83	225.75
993.12	225.70
993.41	225.81
993.70	226.03
993.99	226.13
994.28	226.22
994.58	226.26
994.87	226.22
995.16	226.07
995.45	226.04
995.74	225.83
996.03	225.88
996.32	225.99
996.61	226.10
996.90	226.13
997.19	226.12
997.48	226.14
997.77	226.13
998.06	226.20
998.34	226.18
998.63	226.15
998.92	226.13
999.21	226.24
999.50	226.20
999.79	226.07
1000.08	225.95
1000.37	225.94
1000.66	225.91
1000.95	226.03
1001.24	226.10
1001.53	226.16
1001.82	226.17
1002.11	226.04
1002.40	226.03
1002.68	226.11
1002.97	226.39
1003.26	226.36
1003.55	226.27
1003.84	226.20
1004.13	226.37
1004.42	226.30
1004.71	226.43
1004.99	226.38
1005.28	226.40
1005.57	226.34
1005.86	226.25
1006.15	226.22
1006.44	226.12
1006.72	226.12
1007.01	226.13
1007.30	226.10
1007.59	225.97
1007.88	226.03
1008.17	226.04
1008.45	225.98
1008.74	225.73
1009.03	225.49
1009.32	225.49
1009.60	225.55
1009.89	225.49
1010.18	225.23
1010.47	225.27
1010.76	225.16
1011.04	225.14
1011.33	225.20
1011.62	225.28
1011.91	225.31
1012.19	225.32
1012.48	225.35
1012.77	225.36
1013.05	225.52
1013.34	225.58
1013.63	225.59
1013.92	225.51
1014.20	225.43
1014.49	225.43
1014.78	225.54
1015.06	225.42
1015.35	225.40
1015.64	225.40
1015.92	225.57
1016.21	225.64
1016.50	225.59
1016.78	225.75
1017.07	225.84
1017.36	225.75
1017.64	225.65
1017.93	225.76
1018.22	225.76
1018.50	225.83
1018.79	225.88
1019.08	225.73
1019.36	225.77
1019.65	225.79
1019.93	226.03
1020.22	226.16
1020.51	226.39
1020.79	226.35
1021.08	224.70
1021.36	226.40
1021.65	226.90
1021.94	226.85
1022.22	226.45
1022.51	225.25
1022.79	229.70
1023.08	226.40
1023.36	231.30
1023.65	225.50
>>>>>End Processed Spectral Data<<<<<
