SpectraSuite Data File
++++++++++++++++++++++++++++++++++++
Date: Wed Sep 04 17:52:07 EDT 2013
User: lab3
Dark Spectrum Present: Yes
Reference Spectrum Present: No
Number of Sampled Component Spectra: 1
Spectrometers: USB2E7196
Integration Time (usec): 170000 (USB2E7196)
Spectra Averaged: 20 (USB2E7196)
Boxcar Smoothing: 10 (USB2E7196)
Correct for Electrical Dark: No (USB2E7196)
Strobe/Lamp Enabled: No (USB2E7196)
Correct for Detector Non-linearity: No (USB2E7196)
Correct for Stray Light: No (USB2E7196)
Number of Pixels in Processed Spectrum: 2048
>>>>>Begin Processed Spectral Data<<<<<
339.09	0.00
339.48	213.60
339.86	214.90
340.24	215.05
340.63	217.70
341.01	226.10
341.39	219.40
341.78	221.05
342.16	223.20
342.54	221.75
342.93	212.28
343.31	222.99
343.69	223.52
344.07	223.95
344.46	224.49
344.84	224.91
345.22	224.83
345.60	225.14
345.99	225.43
346.37	225.52
346.75	225.66
347.13	225.64
347.52	225.65
347.90	225.90
348.28	225.93
348.66	225.98
349.05	225.73
349.43	225.80
349.81	225.88
350.19	225.95
350.57	226.08
350.96	226.23
351.34	226.32
351.72	226.37
352.10	226.48
352.48	226.49
352.87	226.45
353.25	226.57
353.63	226.63
354.01	226.61
354.39	226.74
354.77	226.84
355.15	227.08
355.54	227.10
355.92	226.97
356.30	227.09
356.68	227.49
357.06	227.61
357.44	227.60
357.82	227.65
358.20	228.11
358.58	228.12
358.97	228.11
359.35	228.32
359.73	228.52
360.11	228.62
360.49	228.67
360.87	228.73
361.25	228.84
361.63	229.05
362.01	229.05
362.39	229.03
362.77	229.10
363.15	229.08
363.53	229.13
363.91	229.19
364.29	229.15
364.67	228.72
365.05	228.80
365.43	228.92
365.81	228.94
366.19	228.72
366.57	228.96
366.95	229.02
367.33	228.91
367.71	228.88
368.09	228.87
368.47	228.96
368.85	229.00
369.23	229.10
369.61	228.86
369.99	229.08
370.37	229.20
370.75	229.43
371.13	229.33
371.51	229.31
371.89	229.32
372.27	229.33
372.65	229.34
373.03	229.30
373.41	229.22
373.78	229.18
374.16	228.99
374.54	228.79
374.92	228.77
375.30	228.69
375.68	228.59
376.06	228.59
376.44	228.47
376.82	228.44
377.19	228.31
377.57	228.31
377.95	228.12
378.33	228.08
378.71	227.79
379.09	227.80
379.47	227.79
379.84	227.71
380.22	227.58
380.60	227.45
380.98	227.36
381.36	227.23
381.73	227.05
382.11	227.07
382.49	227.05
382.87	226.97
383.25	226.96
383.62	227.51
384.00	227.39
384.38	227.36
384.76	227.51
385.13	227.63
385.51	227.52
385.89	227.38
386.27	227.25
386.64	227.20
387.02	227.07
387.40	226.98
387.78	227.00
388.15	227.00
388.53	227.03
388.91	227.00
389.29	226.99
389.66	227.09
390.04	226.96
390.42	226.98
390.79	226.91
391.17	226.84
391.55	226.27
391.92	226.27
392.30	226.38
392.68	226.22
393.05	226.22
393.43	226.30
393.81	226.35
394.18	226.31
394.56	226.23
394.94	226.41
395.31	226.50
395.69	226.70
396.06	226.78
396.44	226.79
396.82	226.79
397.19	227.10
397.57	227.08
397.95	227.20
398.32	227.14
398.70	227.30
399.07	227.46
399.45	227.52
399.82	227.62
400.20	227.59
400.58	227.67
400.95	227.50
401.33	227.65
401.70	228.08
402.08	228.20
402.45	228.40
402.83	228.60
403.20	228.67
403.58	228.61
403.95	228.89
404.33	229.19
404.71	229.43
405.08	229.84
405.46	230.05
405.83	230.38
406.21	230.58
406.58	230.78
406.96	231.00
407.33	231.32
407.70	231.68
408.08	232.38
408.45	232.78
408.83	233.33
409.20	233.75
409.58	233.90
409.95	234.41
410.33	234.97
410.70	235.39
411.08	236.02
411.45	236.74
411.82	237.30
412.20	238.03
412.57	239.03
412.95	239.34
413.32	240.23
413.69	241.04
414.07	242.00
414.44	243.03
414.82	244.12
415.19	245.28
415.56	246.46
415.94	247.48
416.31	248.96
416.68	250.29
417.06	251.95
417.43	253.61
417.81	255.41
418.18	257.24
418.55	259.16
418.93	261.14
419.30	263.22
419.67	265.39
420.04	267.63
420.42	269.89
420.79	272.91
421.16	275.76
421.54	278.77
421.91	281.73
422.28	284.77
422.66	287.92
423.03	291.36
423.40	294.65
423.77	298.20
424.15	301.74
424.52	305.55
424.89	309.72
425.26	313.65
425.64	317.32
426.01	321.53
426.38	325.93
426.75	330.67
427.13	335.27
427.50	340.08
427.87	344.97
428.24	349.85
428.61	354.28
428.99	359.49
429.36	364.93
429.73	370.57
430.10	376.12
430.47	381.79
430.85	387.32
431.22	393.52
431.59	400.35
431.96	406.61
432.33	413.51
432.70	420.05
433.08	427.80
433.45	435.35
433.82	442.56
434.19	450.73
434.56	458.66
434.93	466.25
435.30	474.02
435.68	482.67
436.05	491.09
436.42	499.44
436.79	507.07
437.16	515.38
437.53	523.98
437.90	532.73
438.27	541.33
438.64	550.35
439.01	558.63
439.38	565.74
439.75	572.85
440.13	580.95
440.50	588.55
440.87	594.65
441.24	600.95
441.61	607.93
441.98	612.99
442.35	618.89
442.72	624.95
443.09	630.78
443.46	634.11
443.83	636.51
444.20	638.45
444.57	641.10
444.94	642.10
445.31	643.29
445.68	644.67
446.05	644.87
446.42	643.46
446.79	642.08
447.16	640.47
447.53	639.14
447.90	635.34
448.27	631.54
448.64	626.67
449.01	622.99
449.37	616.97
449.74	610.89
450.11	603.98
450.48	596.25
450.85	588.10
451.22	581.33
451.59	574.66
451.96	568.50
452.33	560.41
452.70	553.19
453.07	544.48
453.43	535.18
453.80	526.86
454.17	518.91
454.54	511.15
454.91	502.94
455.28	495.00
455.65	487.62
456.02	480.83
456.38	474.53
456.75	466.80
457.12	460.32
457.49	454.04
457.86	447.65
458.23	442.50
458.59	436.87
458.96	430.99
459.33	425.82
459.70	420.63
460.07	416.65
460.43	412.07
460.80	407.82
461.17	404.16
461.54	400.09
461.91	396.26
462.27	392.44
462.64	389.24
463.01	385.72
463.38	382.36
463.74	378.27
464.11	375.28
464.48	372.61
464.85	369.74
465.21	367.58
465.58	365.33
465.95	362.49
466.32	360.35
466.68	358.16
467.05	356.03
467.42	353.91
467.78	351.59
468.15	349.32
468.52	347.76
468.88	345.58
469.25	343.62
469.62	342.22
469.98	340.57
470.35	339.02
470.72	337.51
471.08	335.88
471.45	334.75
471.82	333.54
472.18	332.14
472.55	331.13
472.92	329.83
473.28	328.60
473.65	327.52
474.02	326.39
474.38	325.66
474.75	324.85
475.11	323.92
475.48	323.27
475.85	322.64
476.21	321.96
476.58	321.48
476.94	321.23
477.31	320.69
477.67	320.23
478.04	319.86
478.41	319.65
478.77	319.89
479.14	319.54
479.50	319.35
479.87	319.36
480.23	319.37
480.60	319.30
480.96	319.33
481.33	319.63
481.69	319.86
482.06	319.99
482.42	320.22
482.79	320.65
483.15	321.07
483.52	321.79
483.88	322.26
484.25	322.84
484.61	323.49
484.98	324.18
485.34	325.20
485.71	326.17
486.07	327.07
486.44	327.67
486.80	328.89
487.17	330.06
487.53	331.38
487.90	332.81
488.26	334.56
488.62	336.27
488.99	337.80
489.35	339.62
489.72	341.60
490.08	343.58
490.44	345.59
490.81	347.88
491.17	349.98
491.54	352.42
491.90	355.05
492.26	357.65
492.63	360.40
492.99	363.20
493.36	366.34
493.72	369.76
494.08	373.20
494.45	376.89
494.81	380.80
495.17	384.81
495.54	388.89
495.90	393.00
496.26	397.51
496.63	402.06
496.99	406.80
497.35	411.70
497.72	417.09
498.08	422.75
498.44	428.49
498.80	434.65
499.17	440.81
499.53	447.04
499.89	453.72
500.26	460.59
500.62	467.67
500.98	474.97
501.34	482.44
501.71	490.26
502.07	498.03
502.43	506.13
502.79	514.34
503.16	523.01
503.52	531.91
503.88	541.07
504.24	550.82
504.60	560.83
504.97	571.10
505.33	581.41
505.69	592.31
506.05	603.27
506.41	614.38
506.78	625.98
507.14	638.02
507.50	650.29
507.86	662.93
508.22	675.69
508.59	688.68
508.95	702.33
509.31	716.36
509.67	730.69
510.03	744.87
510.39	759.69
510.75	774.75
511.12	790.15
511.48	805.58
511.84	821.02
512.20	836.92
512.56	853.22
512.92	869.99
513.28	886.61
513.64	903.77
514.00	921.25
514.37	938.79
514.73	956.81
515.09	975.14
515.45	993.25
515.81	1011.61
516.17	1030.32
516.53	1048.64
516.89	1067.30
517.25	1086.43
517.61	1106.77
517.97	1126.92
518.33	1146.82
518.69	1166.75
519.05	1187.42
519.41	1208.05
519.77	1228.83
520.13	1249.34
520.49	1269.61
520.85	1291.75
521.21	1312.62
521.57	1333.67
521.93	1354.31
522.29	1375.15
522.65	1395.49
523.01	1416.20
523.37	1437.04
523.73	1457.98
524.09	1478.74
524.45	1499.10
524.81	1519.92
525.17	1540.22
525.53	1560.50
525.89	1581.25
526.25	1602.23
526.61	1622.37
526.97	1643.67
527.33	1664.81
527.68	1686.56
528.04	1708.13
528.40	1727.91
528.76	1748.93
529.12	1769.28
529.48	1790.28
529.84	1810.45
530.20	1831.66
530.56	1852.54
530.91	1873.17
531.27	1893.53
531.63	1913.83
531.99	1934.35
532.35	1954.13
532.71	1974.37
533.07	1995.07
533.42	2014.98
533.78	2034.58
534.14	2054.48
534.50	2073.08
534.86	2092.17
535.21	2109.42
535.57	2127.73
535.93	2145.39
536.29	2162.71
536.65	2180.92
537.00	2198.27
537.36	2215.61
537.72	2231.88
538.08	2249.05
538.44	2266.16
538.79	2282.39
539.15	2298.93
539.51	2314.93
539.87	2330.14
540.22	2343.67
540.58	2357.98
540.94	2370.97
541.29	2383.72
541.65	2396.25
542.01	2408.66
542.37	2418.98
542.72	2429.95
543.08	2440.30
543.44	2451.76
543.79	2461.62
544.15	2471.22
544.51	2481.09
544.87	2490.56
545.22	2499.12
545.58	2506.71
545.94	2513.32
546.29	2519.89
546.65	2525.92
547.01	2531.32
547.36	2536.67
547.72	2542.49
548.07	2546.04
548.43	2551.28
548.79	2555.74
549.14	2559.50
549.50	2563.29
549.86	2567.28
550.21	2571.00
550.57	2574.38
550.92	2575.50
551.28	2577.32
551.64	2579.43
551.99	2581.22
552.35	2582.59
552.70	2584.60
553.06	2586.00
553.41	2587.20
553.77	2588.55
554.13	2589.97
554.48	2591.96
554.84	2593.08
555.19	2594.10
555.55	2595.89
555.90	2594.80
556.26	2594.00
556.61	2592.32
556.97	2590.14
557.32	2589.56
557.68	2588.57
558.03	2587.08
558.39	2585.63
558.74	2584.63
559.10	2581.57
559.45	2577.95
559.81	2573.69
560.16	2568.65
560.52	2563.60
560.87	2559.15
561.23	2553.87
561.58	2547.98
561.94	2540.51
562.29	2533.08
562.64	2525.74
563.00	2517.32
563.35	2510.81
563.71	2504.28
564.06	2498.28
564.42	2491.87
564.77	2484.67
565.12	2477.05
565.48	2469.33
565.83	2461.36
566.19	2453.07
566.54	2445.00
566.89	2437.02
567.25	2429.58
567.60	2422.47
567.96	2414.97
568.31	2407.05
568.66	2398.41
569.02	2389.40
569.37	2381.32
569.72	2374.16
570.08	2365.37
570.43	2356.10
570.78	2347.36
571.14	2337.77
571.49	2327.27
571.84	2317.53
572.20	2307.10
572.55	2297.08
572.90	2285.70
573.26	2275.54
573.61	2264.72
573.96	2253.75
574.31	2241.91
574.67	2230.09
575.02	2216.99
575.37	2204.54
575.72	2191.18
576.08	2179.25
576.43	2166.83
576.78	2153.76
577.13	2140.12
577.49	2127.49
577.84	2115.31
578.19	2103.10
578.54	2090.37
578.90	2078.82
579.25	2066.50
579.60	2053.98
579.95	2040.68
580.30	2028.25
580.66	2014.59
581.01	2001.08
581.36	1987.13
581.71	1974.39
582.06	1961.29
582.42	1949.10
582.77	1936.55
583.12	1924.79
583.47	1912.37
583.82	1900.69
584.17	1888.88
584.53	1877.21
584.88	1864.00
585.23	1851.24
585.58	1837.22
585.93	1824.33
586.28	1810.84
586.63	1797.12
586.98	1783.03
587.34	1770.15
587.69	1756.96
588.04	1744.71
588.39	1732.86
588.74	1720.77
589.09	1708.79
589.44	1696.18
589.79	1684.00
590.14	1672.05
590.49	1659.95
590.84	1647.83
591.19	1635.67
591.54	1623.45
591.89	1610.98
592.25	1601.08
592.60	1589.79
592.95	1578.37
593.30	1566.45
593.65	1554.63
594.00	1543.01
594.35	1533.18
594.70	1521.52
595.05	1510.03
595.40	1498.09
595.75	1486.16
596.10	1475.05
596.45	1463.80
596.80	1453.32
597.15	1442.21
597.50	1430.69
597.85	1419.48
598.19	1408.17
598.54	1396.68
598.89	1385.49
599.24	1375.04
599.59	1363.60
599.94	1352.76
600.29	1342.65
600.64	1332.47
600.99	1321.95
601.34	1312.28
601.69	1301.06
602.04	1291.21
602.39	1281.66
602.74	1272.56
603.08	1263.13
603.43	1253.86
603.78	1244.02
604.13	1234.08
604.48	1224.38
604.83	1214.69
605.18	1204.76
605.53	1195.15
605.87	1186.05
606.22	1177.86
606.57	1168.54
606.92	1159.10
607.27	1150.15
607.62	1141.30
607.96	1132.73
608.31	1124.97
608.66	1116.72
609.01	1108.39
609.36	1099.95
609.70	1091.45
610.05	1082.84
610.40	1074.45
610.75	1065.93
611.10	1057.85
611.44	1049.55
611.79	1041.44
612.14	1033.61
612.49	1025.87
612.83	1018.50
613.18	1010.88
613.53	1002.86
613.88	995.31
614.22	987.66
614.57	979.89
614.92	972.27
615.27	964.76
615.61	956.78
615.96	949.09
616.31	941.56
616.65	934.49
617.00	927.25
617.35	919.95
617.70	912.87
618.04	905.77
618.39	898.45
618.74	891.96
619.08	885.12
619.43	878.15
619.78	871.16
620.12	864.02
620.47	857.15
620.82	849.98
621.16	843.13
621.51	836.78
621.85	830.47
622.20	823.85
622.55	817.35
622.89	811.08
623.24	804.65
623.59	798.29
623.93	791.98
624.28	785.94
624.62	780.52
624.97	774.80
625.32	769.06
625.66	763.44
626.01	757.45
626.35	752.04
626.70	746.52
627.04	741.32
627.39	735.92
627.73	730.58
628.08	725.47
628.43	720.20
628.77	714.70
629.12	709.54
629.46	704.87
629.81	700.17
630.15	695.45
630.50	690.61
630.84	685.97
631.19	681.37
631.53	676.84
631.88	671.68
632.22	666.80
632.57	662.28
632.91	657.73
633.26	653.34
633.60	648.60
633.95	644.14
634.29	639.46
634.64	634.95
634.98	630.21
635.32	626.05
635.67	622.05
636.01	617.94
636.36	613.59
636.70	609.32
637.05	605.15
637.39	601.12
637.73	597.10
638.08	593.16
638.42	588.93
638.77	584.60
639.11	580.33
639.45	576.06
639.80	571.76
640.14	567.68
640.49	563.87
640.83	560.13
641.17	556.48
641.52	552.83
641.86	549.33
642.20	546.28
642.55	542.61
642.89	538.91
643.23	535.43
643.58	532.27
643.92	528.74
644.26	525.42
644.61	522.25
644.95	518.95
645.29	515.62
645.64	512.56
645.98	509.46
646.32	506.55
646.66	503.57
647.01	500.61
647.35	497.89
647.69	494.78
648.04	491.97
648.38	489.09
648.72	486.34
649.06	483.52
649.41	480.35
649.75	477.36
650.09	474.53
650.43	471.74
650.78	468.79
651.12	465.99
651.46	463.15
651.80	460.32
652.14	457.45
652.49	454.79
652.83	452.15
653.17	449.67
653.51	446.93
653.85	444.47
654.20	442.10
654.54	439.47
654.88	436.90
655.22	434.64
655.56	432.14
655.90	429.66
656.25	427.28
656.59	425.15
656.93	422.95
657.27	420.96
657.61	418.57
657.95	416.37
658.29	414.14
658.64	412.07
658.98	409.71
659.32	407.59
659.66	405.43
660.00	403.20
660.34	401.09
660.68	399.12
661.02	397.09
661.36	395.06
661.70	393.04
662.05	391.13
662.39	389.15
662.73	387.45
663.07	385.94
663.41	384.15
663.75	382.17
664.09	380.39
664.43	378.36
664.77	376.75
665.11	374.99
665.45	373.34
665.79	371.59
666.13	369.93
666.47	368.35
666.81	366.70
667.15	365.03
667.49	363.54
667.83	362.22
668.17	360.80
668.51	359.39
668.85	358.15
669.19	357.07
669.53	355.56
669.87	353.91
670.21	352.31
670.55	350.86
670.89	349.80
671.23	348.45
671.57	347.16
671.91	345.74
672.25	344.51
672.58	343.33
672.92	342.00
673.26	340.84
673.60	339.63
673.94	338.50
674.28	337.55
674.62	336.41
674.96	335.08
675.30	333.82
675.64	332.54
675.97	331.28
676.31	329.85
676.65	328.66
676.99	327.80
677.33	326.65
677.67	325.66
678.01	324.33
678.34	323.30
678.68	322.31
679.02	321.26
679.36	320.21
679.70	319.18
680.04	318.24
680.37	317.17
680.71	316.24
681.05	315.31
681.39	314.33
681.73	313.35
682.06	312.44
682.40	311.60
682.74	310.80
683.08	310.17
683.42	309.29
683.75	308.50
684.09	307.55
684.43	306.79
684.77	305.92
685.10	305.16
685.44	304.32
685.78	303.48
686.12	302.78
686.45	302.06
686.79	301.27
687.13	300.59
687.46	299.91
687.80	299.32
688.14	298.56
688.48	297.79
688.81	297.11
689.15	296.50
689.49	295.78
689.82	295.14
690.16	294.21
690.50	293.59
690.83	292.86
691.17	292.07
691.51	291.41
691.84	290.76
692.18	290.01
692.52	289.33
692.85	288.72
693.19	288.23
693.52	287.56
693.86	286.81
694.20	286.18
694.53	285.49
694.87	284.70
695.21	284.00
695.54	283.44
695.88	282.67
696.21	281.95
696.55	281.30
696.88	280.61
697.22	280.02
697.56	279.45
697.89	278.87
698.23	278.32
698.56	277.68
698.90	277.33
699.23	276.87
699.57	276.40
699.90	275.81
700.24	275.13
700.58	274.60
700.91	274.25
701.25	274.13
701.58	274.08
701.92	273.77
702.25	273.37
702.59	272.85
702.92	272.45
703.26	272.05
703.59	271.68
703.93	271.62
704.26	271.20
704.60	270.83
704.93	270.33
705.26	269.90
705.60	269.54
705.93	268.91
706.27	268.60
706.60	268.34
706.94	268.08
707.27	267.75
707.61	267.46
707.94	267.12
708.27	266.28
708.61	265.47
708.94	264.94
709.28	264.59
709.61	264.23
709.94	263.93
710.28	263.54
710.61	263.18
710.95	262.42
711.28	262.36
711.61	261.96
711.95	261.75
712.28	261.30
712.61	260.96
712.95	260.84
713.28	260.67
713.61	260.22
713.95	259.78
714.28	259.40
714.61	259.04
714.95	258.62
715.28	258.20
715.61	257.90
715.95	257.66
716.28	257.27
716.61	257.04
716.95	256.67
717.28	256.37
717.61	256.07
717.94	255.86
718.28	255.26
718.61	254.97
718.94	254.62
719.27	254.49
719.61	254.25
719.94	253.85
720.27	253.33
720.60	253.03
720.94	252.81
721.27	252.69
721.60	252.41
721.93	252.15
722.27	252.18
722.60	252.06
722.93	251.75
723.26	251.59
723.59	251.24
723.93	251.10
724.26	250.95
724.59	250.68
724.92	250.47
725.25	250.44
725.59	250.18
725.92	250.04
726.25	249.82
726.58	249.60
726.91	249.42
727.24	249.32
727.57	249.17
727.91	248.91
728.24	248.77
728.57	248.60
728.90	248.49
729.23	248.19
729.56	248.27
729.89	248.19
730.22	248.03
730.55	247.95
730.89	247.78
731.22	247.64
731.55	247.52
731.88	247.35
732.21	247.07
732.54	246.94
732.87	246.81
733.20	246.67
733.53	246.52
733.86	246.43
734.19	246.18
734.52	246.08
734.85	246.25
735.18	246.04
735.51	246.09
735.84	245.95
736.17	245.92
736.50	245.46
736.83	245.84
737.16	245.63
737.49	245.53
737.82	245.38
738.15	245.17
738.48	244.98
738.81	244.85
739.14	244.65
739.47	244.49
739.80	244.30
740.13	244.19
740.46	244.01
740.79	243.76
741.12	243.62
741.45	243.35
741.78	242.97
742.11	242.88
742.44	242.58
742.77	242.51
743.10	242.28
743.43	242.09
743.75	241.39
744.08	241.87
744.41	241.61
744.74	241.38
745.07	241.21
745.40	241.22
745.73	241.26
746.06	241.07
746.39	240.99
746.71	240.79
747.04	240.55
747.37	240.43
747.70	240.40
748.03	240.27
748.36	240.26
748.68	240.19
749.01	239.94
749.34	239.75
749.67	239.58
750.00	239.54
750.33	239.85
750.65	239.82
750.98	239.06
751.31	238.98
751.64	238.91
751.97	239.02
752.29	238.88
752.62	238.57
752.95	238.56
753.28	238.34
753.60	238.20
753.93	238.22
754.26	238.08
754.59	237.85
754.91	237.70
755.24	237.56
755.57	237.38
755.90	237.22
756.22	237.08
756.55	236.86
756.88	236.65
757.20	236.20
757.53	235.94
757.86	235.84
758.19	235.79
758.51	235.78
758.84	235.50
759.17	235.32
759.49	235.19
759.82	235.34
760.15	235.37
760.47	235.34
760.80	235.13
761.13	235.21
761.45	235.12
761.78	235.04
762.11	235.03
762.43	234.93
762.76	234.89
763.08	234.91
763.41	234.94
763.74	234.81
764.06	234.68
764.39	234.65
764.71	234.61
765.04	234.47
765.37	234.35
765.69	234.27
766.02	234.17
766.34	234.06
766.67	233.73
767.00	233.68
767.32	233.81
767.65	234.07
767.97	233.94
768.30	233.88
768.62	233.80
768.95	233.63
769.27	233.46
769.60	233.47
769.92	233.31
770.25	233.25
770.57	233.17
770.90	233.16
771.22	233.06
771.55	232.98
771.87	232.96
772.20	232.82
772.52	233.16
772.85	233.72
773.17	233.68
773.50	233.61
773.82	233.53
774.15	233.32
774.47	232.91
774.80	232.80
775.12	232.77
775.45	232.76
775.77	232.77
776.09	232.88
776.42	232.82
776.74	232.98
777.07	232.77
777.39	232.82
777.72	232.71
778.04	232.75
778.36	232.72
778.69	232.74
779.01	232.74
779.33	232.26
779.66	231.69
779.98	231.67
780.31	231.65
780.63	231.82
780.95	231.81
781.28	231.77
781.60	231.62
781.92	231.54
782.25	231.47
782.57	231.43
782.89	231.21
783.22	231.13
783.54	230.94
783.86	231.02
784.19	230.83
784.51	230.92
784.83	230.77
785.16	230.70
785.48	230.56
785.80	230.52
786.12	230.50
786.45	230.41
786.77	230.33
787.09	230.22
787.42	229.89
787.74	229.82
788.06	229.84
788.38	229.81
788.71	229.80
789.03	229.80
789.35	229.75
789.67	229.75
789.99	229.75
790.32	229.62
790.64	229.65
790.96	230.08
791.28	229.95
791.61	229.87
791.93	229.85
792.25	229.80
792.57	230.10
792.89	230.02
793.21	229.99
793.54	229.94
793.86	229.85
794.18	229.87
794.50	229.78
794.82	229.67
795.14	229.77
795.47	229.74
795.79	229.71
796.11	229.64
796.43	229.63
796.75	229.61
797.07	229.63
797.39	229.52
797.71	229.17
798.04	229.12
798.36	229.12
798.68	229.11
799.00	229.13
799.32	228.85
799.64	228.99
799.96	228.98
800.28	229.03
800.60	229.08
800.92	229.11
801.24	229.10
801.56	229.15
801.89	229.09
802.21	229.13
802.53	229.03
802.85	229.10
803.17	229.29
803.49	229.16
803.81	229.20
804.13	229.14
804.45	229.05
804.77	229.09
805.09	229.09
805.41	229.02
805.73	228.93
806.05	228.85
806.37	228.79
806.69	228.76
807.01	228.74
807.33	228.78
807.65	228.60
807.97	228.84
808.28	228.82
808.60	228.78
808.92	228.70
809.24	228.94
809.56	228.89
809.88	228.69
810.20	228.78
810.52	228.80
810.84	228.81
811.16	228.75
811.48	228.76
811.80	228.95
812.12	228.98
812.43	229.11
812.75	229.09
813.07	229.01
813.39	229.06
813.71	229.00
814.03	228.93
814.35	228.95
814.67	228.78
814.98	228.75
815.30	228.76
815.62	228.70
815.94	228.41
816.26	228.61
816.58	228.60
816.89	228.64
817.21	228.53
817.53	228.60
817.85	228.59
818.17	228.50
818.48	228.31
818.80	228.36
819.12	228.15
819.44	228.04
819.76	227.95
820.07	227.87
820.39	227.87
820.71	227.89
821.03	227.94
821.34	227.89
821.66	227.98
821.98	227.92
822.30	227.97
822.61	228.34
822.93	228.08
823.25	228.00
823.57	227.89
823.88	227.94
824.20	227.88
824.52	228.03
824.83	228.03
825.15	228.05
825.47	228.04
825.79	228.12
826.10	228.11
826.42	228.11
826.74	228.16
827.05	228.09
827.37	228.12
827.69	228.01
828.00	227.97
828.32	227.88
828.64	227.88
828.95	228.11
829.27	227.90
829.58	227.87
829.90	227.90
830.22	227.92
830.53	227.80
830.85	227.73
831.17	227.54
831.48	227.49
831.80	227.37
832.11	227.28
832.43	227.20
832.75	227.22
833.06	227.54
833.38	227.39
833.69	227.34
834.01	227.32
834.32	227.30
834.64	227.28
834.96	227.31
835.27	227.29
835.59	227.09
835.90	227.00
836.22	226.99
836.53	226.87
836.85	226.78
837.16	227.23
837.48	227.21
837.79	227.40
838.11	227.41
838.42	227.40
838.74	227.47
839.05	227.48
839.37	227.46
839.68	227.18
840.00	227.17
840.31	227.27
840.63	227.18
840.94	227.12
841.26	227.04
841.57	226.95
841.88	226.94
842.20	226.79
842.51	226.63
842.83	226.61
843.14	227.05
843.46	227.12
843.77	226.91
844.08	226.86
844.40	226.71
844.71	226.73
845.03	226.68
845.34	226.62
845.65	226.61
845.97	226.60
846.28	226.54
846.60	226.60
846.91	226.54
847.22	226.57
847.54	226.66
847.85	226.72
848.16	226.76
848.48	226.76
848.79	226.96
849.10	227.08
849.42	227.11
849.73	226.70
850.04	226.61
850.36	226.41
850.67	226.51
850.98	226.50
851.30	226.48
851.61	226.55
851.92	226.54
852.23	226.70
852.55	226.76
852.86	226.81
853.17	226.85
853.49	227.00
853.80	227.06
854.11	227.16
854.42	227.11
854.74	227.06
855.05	227.01
855.36	226.85
855.67	226.89
855.99	226.86
856.30	227.40
856.61	227.42
856.92	227.42
857.23	227.43
857.55	227.40
857.86	227.39
858.17	227.46
858.48	227.40
858.79	227.29
859.11	227.31
859.42	227.33
859.73	227.19
860.04	227.08
860.35	227.01
860.66	226.83
860.98	226.94
861.29	226.98
861.60	226.97
861.91	227.10
862.22	227.00
862.53	226.95
862.84	226.40
863.16	226.53
863.47	226.48
863.78	226.48
864.09	226.50
864.40	226.57
864.71	226.53
865.02	226.61
865.33	226.60
865.64	226.57
865.95	226.50
866.27	226.96
866.58	226.92
866.89	226.94
867.20	227.04
867.51	226.93
867.82	226.89
868.13	227.03
868.44	226.85
868.75	226.98
869.06	227.03
869.37	227.11
869.68	226.96
869.99	227.08
870.30	227.09
870.61	227.14
870.92	227.05
871.23	227.08
871.54	227.10
871.85	227.21
872.16	227.24
872.47	227.26
872.78	226.95
873.09	227.03
873.40	227.03
873.71	227.06
874.02	227.08
874.33	227.13
874.64	227.06
874.95	227.18
875.26	227.07
875.56	226.98
875.87	226.97
876.18	226.96
876.49	227.44
876.80	227.38
877.11	227.32
877.42	227.37
877.73	227.27
878.04	227.20
878.35	227.16
878.66	227.15
878.96	227.11
879.27	227.05
879.58	227.03
879.89	226.90
880.20	226.97
880.51	226.94
880.82	226.88
881.12	226.91
881.43	226.80
881.74	226.80
882.05	226.84
882.36	226.81
882.67	226.86
882.97	226.30
883.28	226.23
883.59	226.19
883.90	226.19
884.21	226.27
884.51	226.25
884.82	226.15
885.13	226.16
885.44	226.16
885.74	226.16
886.05	226.13
886.36	226.21
886.67	226.06
886.98	226.35
887.28	226.37
887.59	226.40
887.90	226.49
888.20	226.42
888.51	226.53
888.82	226.51
889.13	226.61
889.43	227.05
889.74	227.00
890.05	227.01
890.35	226.89
890.66	226.82
890.97	226.73
891.28	226.72
891.58	226.67
891.89	226.62
892.20	226.58
892.50	226.48
892.81	226.46
893.12	226.41
893.42	226.18
893.73	226.18
894.04	226.11
894.34	226.10
894.65	226.14
894.95	226.03
895.26	225.98
895.57	226.04
895.87	225.58
896.18	225.66
896.48	225.73
896.79	225.82
897.10	225.89
897.40	226.00
897.71	226.06
898.01	226.02
898.32	226.17
898.63	226.16
898.93	226.20
899.24	226.21
899.54	226.29
899.85	226.25
900.15	226.24
900.46	226.24
900.76	226.26
901.07	226.17
901.38	226.24
901.68	226.37
901.99	226.19
902.29	226.18
902.60	226.20
902.90	226.09
903.21	226.10
903.51	226.05
903.82	226.15
904.12	226.15
904.43	226.21
904.73	226.16
905.03	226.20
905.34	226.67
905.64	226.63
905.95	226.52
906.25	226.53
906.56	226.57
906.86	226.52
907.17	226.47
907.47	226.61
907.77	226.56
908.08	226.43
908.38	226.46
908.69	226.58
908.99	226.64
909.30	226.81
909.60	226.79
909.90	226.76
910.21	226.61
910.51	226.58
910.81	226.53
911.12	226.52
911.42	226.50
911.73	226.03
912.03	226.07
912.33	226.20
912.64	226.18
912.94	226.11
913.24	226.09
913.55	226.06
913.85	226.01
914.15	226.11
914.46	226.17
914.76	226.20
915.06	226.13
915.37	226.04
915.67	225.95
915.97	226.08
916.27	226.06
916.58	226.11
916.88	226.06
917.18	226.09
917.49	226.46
917.79	226.39
918.09	226.51
918.39	226.71
918.70	226.61
919.00	226.65
919.30	226.86
919.60	226.84
919.91	226.82
920.21	226.88
920.51	226.75
920.81	226.70
921.12	226.71
921.42	226.71
921.72	226.80
922.02	226.83
922.32	226.79
922.63	226.84
922.93	227.04
923.23	227.12
923.53	227.10
923.83	226.72
924.13	226.86
924.44	226.76
924.74	226.79
925.04	227.00
925.34	226.97
925.64	226.80
925.94	226.78
926.24	227.14
926.55	227.02
926.85	227.07
927.15	227.12
927.45	227.13
927.75	227.16
928.05	227.20
928.35	227.14
928.65	227.22
928.95	227.22
929.26	227.04
929.56	227.11
929.86	227.12
930.16	227.15
930.46	227.10
930.76	227.14
931.06	226.86
931.36	226.68
931.66	226.78
931.96	226.83
932.26	226.89
932.56	226.59
932.86	226.70
933.16	226.77
933.46	226.69
933.76	226.60
934.06	226.70
934.36	226.82
934.66	226.77
934.96	226.68
935.26	226.69
935.56	226.76
935.86	226.58
936.16	226.48
936.46	226.42
936.76	226.40
937.06	226.30
937.36	226.38
937.66	226.41
937.96	226.36
938.26	226.30
938.56	226.26
938.86	226.32
939.16	226.34
939.46	226.32
939.76	226.40
940.06	226.41
940.35	226.27
940.65	226.03
940.95	226.06
941.25	225.95
941.55	225.93
941.85	225.93
942.15	226.08
942.45	226.24
942.75	226.29
943.04	226.22
943.34	226.38
943.64	226.34
943.94	226.30
944.24	226.32
944.54	226.28
944.84	226.30
945.13	226.19
945.43	226.13
945.73	226.09
946.03	226.06
946.33	225.95
946.62	225.86
946.92	225.85
947.22	225.94
947.52	225.96
947.82	225.96
948.11	225.89
948.41	225.75
948.71	225.68
949.01	225.71
949.31	225.72
949.60	225.65
949.90	225.75
950.20	225.75
950.50	225.69
950.79	225.77
951.09	225.83
951.39	225.85
951.69	225.84
951.98	225.98
952.28	226.00
952.58	226.05
952.87	226.14
953.17	226.19
953.47	226.07
953.76	226.13
954.06	226.08
954.36	226.03
954.66	226.06
954.95	226.21
955.25	226.21
955.55	226.30
955.84	226.23
956.14	226.23
956.44	226.25
956.73	226.22
957.03	226.20
957.32	226.23
957.62	226.22
957.92	226.35
958.21	226.31
958.51	226.88
958.81	227.02
959.10	227.09
959.40	227.21
959.69	227.32
959.99	227.44
960.29	227.51
960.58	227.54
960.88	227.74
961.17	227.66
961.47	227.69
961.76	227.67
962.06	227.84
962.36	227.78
962.65	227.84
962.95	227.88
963.24	227.82
963.54	227.88
963.83	227.90
964.13	227.85
964.42	227.73
964.72	227.35
965.01	227.36
965.31	227.30
965.60	227.23
965.90	227.48
966.19	227.30
966.49	227.28
966.78	227.23
967.08	227.16
967.37	227.10
967.67	227.04
967.96	227.10
968.26	227.02
968.55	227.08
968.85	226.98
969.14	226.98
969.43	226.98
969.73	226.88
970.02	226.84
970.32	226.74
970.61	226.66
970.91	226.45
971.20	226.29
971.49	226.21
971.79	226.28
972.08	225.92
972.38	225.89
972.67	225.90
972.96	225.89
973.26	225.72
973.55	225.87
973.85	225.81
974.14	225.66
974.43	225.71
974.73	225.54
975.02	225.47
975.31	225.46
975.61	225.42
975.90	225.36
976.19	225.33
976.49	225.36
976.78	225.44
977.07	225.43
977.37	225.44
977.66	225.38
977.95	225.26
978.24	225.26
978.54	225.36
978.83	225.25
979.12	225.23
979.42	225.27
979.71	225.22
980.00	225.24
980.29	225.33
980.59	225.18
980.88	225.30
981.17	225.27
981.46	225.14
981.76	225.15
982.05	225.24
982.34	225.26
982.63	225.23
982.93	225.18
983.22	225.30
983.51	225.34
983.80	225.49
984.09	225.50
984.39	225.46
984.68	225.38
984.97	225.42
985.26	225.45
985.55	225.45
985.85	225.33
986.14	225.35
986.43	225.36
986.72	225.33
987.01	225.22
987.30	225.30
987.59	225.44
987.89	225.45
988.18	225.24
988.47	225.21
988.76	225.18
989.05	225.14
989.34	225.08
989.63	225.19
989.92	225.10
990.22	225.06
990.51	225.11
990.80	225.12
991.09	225.16
991.38	225.16
991.67	225.14
991.96	225.05
992.25	225.04
992.54	224.97
992.83	225.05
993.12	225.11
993.41	225.16
993.70	225.31
993.99	225.46
994.28	225.65
994.58	225.78
994.87	225.75
995.16	225.77
995.45	225.75
995.74	225.61
996.03	225.68
996.32	225.86
996.61	225.93
996.90	225.99
997.19	226.06
997.48	226.11
997.77	226.15
998.06	226.23
998.34	226.24
998.63	226.26
998.92	226.26
999.21	226.31
999.50	226.36
999.79	226.21
1000.08	226.18
1000.37	226.19
1000.66	226.16
1000.95	226.31
1001.24	226.38
1001.53	226.43
1001.82	226.40
1002.11	226.32
1002.40	226.27
1002.68	226.48
1002.97	226.81
1003.26	226.68
1003.55	226.64
1003.84	226.60
1004.13	226.83
1004.42	226.78
1004.71	226.76
1004.99	226.72
1005.28	226.88
1005.57	226.85
1005.86	226.76
1006.15	226.72
1006.44	226.62
1006.72	226.58
1007.01	226.47
1007.30	226.46
1007.59	226.47
1007.88	226.45
1008.17	226.48
1008.45	226.36
1008.74	226.05
1009.03	225.76
1009.32	225.81
1009.60	225.78
1009.89	225.81
1010.18	225.61
1010.47	225.57
1010.76	225.55
1011.04	225.55
1011.33	225.52
1011.62	225.47
1011.91	225.53
1012.19	225.53
1012.48	225.55
1012.77	225.55
1013.05	225.75
1013.34	225.72
1013.63	225.67
1013.92	225.71
1014.20	225.66
1014.49	225.78
1014.78	225.81
1015.06	225.66
1015.35	225.61
1015.64	225.61
1015.92	225.65
1016.21	225.59
1016.50	225.68
1016.78	225.77
1017.07	225.80
1017.36	225.64
1017.64	225.59
1017.93	225.65
1018.22	225.56
1018.50	225.59
1018.79	225.58
1019.08	225.34
1019.36	225.41
1019.65	225.36
1019.93	225.49
1020.22	225.54
1020.51	225.71
1020.79	225.66
1021.08	224.40
1021.36	225.70
1021.65	225.05
1021.94	224.35
1022.22	226.55
1022.51	225.10
1022.79	227.90
1023.08	225.25
1023.36	231.40
1023.65	224.00
>>>>>End Processed Spectral Data<<<<<
