SpectraSuite Data File
++++++++++++++++++++++++++++++++++++
Date: Wed Sep 04 17:51:53 EDT 2013
User: lab3
Dark Spectrum Present: Yes
Reference Spectrum Present: No
Number of Sampled Component Spectra: 1
Spectrometers: USB2E7196
Integration Time (usec): 170000 (USB2E7196)
Spectra Averaged: 20 (USB2E7196)
Boxcar Smoothing: 10 (USB2E7196)
Correct for Electrical Dark: No (USB2E7196)
Strobe/Lamp Enabled: No (USB2E7196)
Correct for Detector Non-linearity: No (USB2E7196)
Correct for Stray Light: No (USB2E7196)
Number of Pixels in Processed Spectrum: 2048
>>>>>Begin Processed Spectral Data<<<<<
339.09	0.00
339.48	212.05
339.86	213.85
340.24	215.35
340.63	216.55
341.01	226.05
341.39	220.00
341.78	222.70
342.16	223.25
342.54	222.95
342.93	212.16
343.31	222.81
343.69	223.40
344.07	223.93
344.46	224.47
344.84	224.93
345.22	224.91
345.60	225.18
345.99	225.32
346.37	225.45
346.75	225.54
347.13	225.60
347.52	225.75
347.90	225.94
348.28	225.99
348.66	226.20
349.05	226.08
349.43	226.13
349.81	226.23
350.19	226.26
350.57	226.15
350.96	226.28
351.34	226.43
351.72	226.50
352.10	226.60
352.48	226.58
352.87	226.56
353.25	226.57
353.63	226.62
354.01	226.70
354.39	226.78
354.77	226.91
355.15	227.09
355.54	227.07
355.92	226.95
356.30	227.05
356.68	227.39
357.06	227.42
357.44	227.42
357.82	227.47
358.20	228.01
358.58	228.16
358.97	228.17
359.35	228.29
359.73	228.50
360.11	228.54
360.49	228.63
360.87	228.76
361.25	228.89
361.63	229.07
362.01	229.19
362.39	229.23
362.77	229.26
363.15	229.24
363.53	229.35
363.91	229.45
364.29	229.47
364.67	229.07
365.05	229.20
365.43	229.37
365.81	229.50
366.19	229.29
366.57	229.50
366.95	229.59
367.33	229.51
367.71	229.38
368.09	229.50
368.47	229.51
368.85	229.43
369.23	229.54
369.61	229.38
369.99	229.55
370.37	229.57
370.75	229.83
371.13	229.76
371.51	229.67
371.89	229.67
372.27	229.65
372.65	229.63
373.03	229.49
373.41	229.39
373.78	229.28
374.16	229.05
374.54	228.90
374.92	228.73
375.30	228.72
375.68	228.66
376.06	228.61
376.44	228.52
376.82	228.56
377.19	228.45
377.57	228.38
377.95	228.05
378.33	227.93
378.71	227.59
379.09	227.55
379.47	227.55
379.84	227.44
380.22	227.32
380.60	227.12
380.98	227.09
381.36	227.00
381.73	226.87
382.11	226.80
382.49	226.66
382.87	226.62
383.25	226.53
383.62	227.03
384.00	226.80
384.38	226.80
384.76	226.77
385.13	226.97
385.51	226.95
385.89	226.83
386.27	226.77
386.64	226.75
387.02	226.65
387.40	226.49
387.78	226.45
388.15	226.40
388.53	226.42
388.91	226.36
389.29	226.32
389.66	226.34
390.04	226.28
390.42	226.39
390.79	226.35
391.17	226.37
391.55	225.81
391.92	225.81
392.30	225.81
392.68	225.72
393.05	225.60
393.43	225.63
393.81	225.74
394.18	225.70
394.56	225.72
394.94	225.82
395.31	225.84
395.69	226.04
396.06	226.15
396.44	226.20
396.82	226.25
397.19	226.57
397.57	226.61
397.95	226.72
398.32	226.62
398.70	226.74
399.07	226.86
399.45	226.92
399.82	227.07
400.20	227.03
400.58	227.11
400.95	226.99
401.33	227.17
401.70	227.55
402.08	227.75
402.45	227.85
402.83	228.18
403.20	228.31
403.58	228.37
403.95	228.59
404.33	228.80
404.71	228.99
405.08	229.39
405.46	229.63
405.83	229.89
406.21	230.14
406.58	230.47
406.96	230.78
407.33	231.16
407.70	231.51
408.08	232.31
408.45	232.76
408.83	233.31
409.20	233.63
409.58	233.76
409.95	234.32
410.33	234.91
410.70	235.26
411.08	235.93
411.45	236.61
411.82	237.23
412.20	238.01
412.57	239.04
412.95	239.38
413.32	240.23
413.69	241.12
414.07	242.07
414.44	242.97
414.82	244.02
415.19	245.18
415.56	246.32
415.94	247.34
416.31	248.82
416.68	250.25
417.06	251.92
417.43	253.66
417.81	255.35
418.18	257.15
418.55	259.09
418.93	261.10
419.30	263.11
419.67	265.40
420.04	267.68
420.42	269.90
420.79	272.95
421.16	275.74
421.54	278.73
421.91	281.67
422.28	284.68
422.66	287.94
423.03	291.36
423.40	294.77
423.77	298.31
424.15	301.94
424.52	305.65
424.89	309.80
425.26	313.71
425.64	317.56
426.01	321.68
426.38	326.08
426.75	330.59
427.13	335.15
427.50	339.77
427.87	344.70
428.24	349.51
428.61	354.03
428.99	359.35
429.36	364.91
429.73	370.46
430.10	375.93
430.47	381.53
430.85	387.13
431.22	393.20
431.59	399.96
431.96	406.05
432.33	412.95
432.70	419.40
433.08	427.21
433.45	434.53
433.82	441.93
434.19	449.89
434.56	457.96
434.93	465.72
435.30	473.40
435.68	481.85
436.05	490.33
436.42	498.53
436.79	506.13
437.16	514.18
437.53	522.81
437.90	531.65
438.27	540.21
438.64	549.06
439.01	557.38
439.38	564.45
439.75	571.61
440.13	579.58
440.50	587.35
440.87	593.33
441.24	599.70
441.61	606.62
441.98	611.87
442.35	617.80
442.72	623.68
443.09	629.50
443.46	632.90
443.83	635.15
444.20	637.06
444.57	639.68
444.94	640.93
445.31	642.10
445.68	643.50
446.05	643.68
446.42	642.41
446.79	641.06
447.16	639.37
447.53	638.09
447.90	634.47
448.27	630.69
448.64	625.93
449.01	622.23
449.37	616.12
449.74	610.02
450.11	603.04
450.48	595.32
450.85	587.31
451.22	580.58
451.59	574.13
451.96	567.98
452.33	560.00
452.70	552.68
453.07	544.09
453.43	534.93
453.80	526.45
454.17	518.35
454.54	510.63
454.91	502.62
455.28	494.65
455.65	487.29
456.02	480.39
456.38	473.97
456.75	466.27
457.12	459.77
457.49	453.60
457.86	447.30
458.23	442.10
458.59	436.51
458.96	430.72
459.33	425.63
459.70	420.61
460.07	416.49
460.43	411.81
460.80	407.52
461.17	403.73
461.54	399.85
461.91	396.17
462.27	392.34
462.64	389.09
463.01	385.64
463.38	382.29
463.74	378.45
464.11	375.53
464.48	372.85
464.85	369.96
465.21	367.77
465.58	365.44
465.95	362.71
466.32	360.49
466.68	358.26
467.05	355.94
467.42	353.66
467.78	351.27
468.15	349.12
468.52	347.52
468.88	345.31
469.25	343.31
469.62	341.86
469.98	340.21
470.35	338.70
470.72	337.15
471.08	335.48
471.45	334.16
471.82	332.83
472.18	331.45
472.55	330.48
472.92	329.11
473.28	327.98
473.65	326.84
474.02	325.73
474.38	324.79
474.75	324.09
475.11	323.26
475.48	322.79
475.85	322.14
476.21	321.42
476.58	320.99
476.94	320.67
477.31	320.17
477.67	319.78
478.04	319.41
478.41	319.18
478.77	319.46
479.14	319.20
479.50	319.14
479.87	319.23
480.23	319.16
480.60	319.18
480.96	319.27
481.33	319.64
481.69	319.95
482.06	320.15
482.42	320.30
482.79	320.61
483.15	320.99
483.52	321.63
483.88	322.13
484.25	322.70
484.61	323.38
484.98	324.12
485.34	325.05
485.71	326.00
486.07	327.10
486.44	327.65
486.80	328.71
487.17	329.82
487.53	331.10
487.90	332.59
488.26	334.33
488.62	335.97
488.99	337.46
489.35	339.23
489.72	341.19
490.08	343.37
490.44	345.42
490.81	347.64
491.17	349.90
491.54	352.39
491.90	354.97
492.26	357.63
492.63	360.45
492.99	363.25
493.36	366.38
493.72	369.69
494.08	373.09
494.45	376.84
494.81	380.80
495.17	384.72
495.54	388.83
495.90	392.95
496.26	397.38
496.63	402.08
496.99	406.73
497.35	411.77
497.72	416.89
498.08	422.35
498.44	427.90
498.80	433.84
499.17	439.90
499.53	446.10
499.89	452.72
500.26	459.34
500.62	466.42
500.98	473.82
501.34	481.06
501.71	488.84
502.07	496.48
502.43	504.50
502.79	512.78
503.16	521.46
503.52	530.28
503.88	539.39
504.24	549.10
504.60	559.27
504.97	569.48
505.33	579.90
505.69	590.99
506.05	602.21
506.41	613.39
506.78	625.14
507.14	637.32
507.50	649.60
507.86	662.29
508.22	675.11
508.59	688.01
508.95	701.73
509.31	716.12
509.67	730.47
510.03	744.75
510.39	759.38
510.75	774.27
511.12	789.64
511.48	805.32
511.84	821.03
512.20	836.90
512.56	853.34
512.92	870.10
513.28	886.83
513.64	903.86
514.00	921.40
514.37	938.96
514.73	956.90
515.09	975.12
515.45	993.60
515.81	1012.11
516.17	1030.75
516.53	1049.23
516.89	1067.52
517.25	1087.00
517.61	1107.28
517.97	1127.53
518.33	1147.55
518.69	1167.69
519.05	1188.00
519.41	1208.60
519.77	1229.71
520.13	1250.01
520.49	1270.49
520.85	1292.59
521.21	1313.65
521.57	1334.68
521.93	1355.34
522.29	1376.13
522.65	1396.75
523.01	1417.34
523.37	1437.80
523.73	1458.81
524.09	1479.55
524.45	1500.19
524.81	1520.77
525.17	1541.19
525.53	1561.46
525.89	1582.20
526.25	1602.97
526.61	1623.35
526.97	1644.21
527.33	1664.88
527.68	1686.51
528.04	1708.01
528.40	1727.54
528.76	1748.24
529.12	1768.61
529.48	1789.38
529.84	1809.51
530.20	1830.59
530.56	1851.23
530.91	1872.17
531.27	1892.43
531.63	1912.50
531.99	1932.81
532.35	1952.92
532.71	1972.99
533.07	1993.86
533.42	2013.58
533.78	2033.51
534.14	2053.39
534.50	2072.16
534.86	2091.46
535.21	2109.10
535.57	2127.13
535.93	2144.81
536.29	2162.45
536.65	2180.45
537.00	2197.97
537.36	2215.72
537.72	2232.20
538.08	2249.45
538.44	2265.82
538.79	2281.98
539.15	2298.76
539.51	2314.83
539.87	2329.65
540.22	2343.85
540.58	2358.22
540.94	2371.60
541.29	2383.64
541.65	2396.02
542.01	2408.56
542.37	2418.91
542.72	2429.65
543.08	2440.11
543.44	2451.68
543.79	2461.74
544.15	2471.60
544.51	2481.33
544.87	2490.22
545.22	2498.60
545.58	2505.95
545.94	2512.96
546.29	2519.53
546.65	2525.37
547.01	2530.67
547.36	2536.25
547.72	2541.32
548.07	2544.79
548.43	2549.75
548.79	2554.20
549.14	2557.87
549.50	2561.43
549.86	2565.35
550.21	2569.15
550.57	2572.80
550.92	2573.91
551.28	2575.07
551.64	2577.23
551.99	2579.18
552.35	2581.18
552.70	2583.16
553.06	2584.84
553.41	2586.00
553.77	2587.80
554.13	2589.53
554.48	2591.09
554.84	2592.50
555.19	2593.65
555.55	2595.33
555.90	2594.74
556.26	2594.00
556.61	2592.63
556.97	2590.42
557.32	2589.77
557.68	2588.56
558.03	2586.82
558.39	2585.56
558.74	2584.73
559.10	2581.47
559.45	2577.60
559.81	2572.88
560.16	2567.70
560.52	2562.83
560.87	2558.55
561.23	2552.79
561.58	2546.74
561.94	2539.81
562.29	2532.14
562.64	2524.93
563.00	2516.87
563.35	2510.02
563.71	2503.57
564.06	2497.17
564.42	2490.65
564.77	2483.22
565.12	2475.69
565.48	2467.77
565.83	2459.86
566.19	2451.83
566.54	2443.77
566.89	2435.86
567.25	2428.12
567.60	2420.97
567.96	2413.42
568.31	2405.39
568.66	2397.06
569.02	2388.05
569.37	2379.77
569.72	2372.56
570.08	2363.50
570.43	2353.71
570.78	2344.77
571.14	2335.52
571.49	2325.47
571.84	2315.89
572.20	2305.22
572.55	2294.83
572.90	2284.04
573.26	2273.79
573.61	2263.00
573.96	2252.05
574.31	2240.07
574.67	2228.53
575.02	2215.57
575.37	2202.65
575.72	2189.59
576.08	2177.63
576.43	2165.34
576.78	2152.54
577.13	2138.58
577.49	2125.84
577.84	2114.02
578.19	2102.03
578.54	2089.40
578.90	2077.61
579.25	2065.37
579.60	2053.24
579.95	2040.56
580.30	2027.67
580.66	2014.04
581.01	2000.20
581.36	1986.12
581.71	1973.49
582.06	1960.49
582.42	1948.34
582.77	1935.95
583.12	1924.13
583.47	1911.63
583.82	1899.79
584.17	1887.85
584.53	1876.32
584.88	1863.45
585.23	1850.43
585.58	1836.29
585.93	1823.20
586.28	1809.88
586.63	1795.90
586.98	1781.81
587.34	1768.74
587.69	1755.46
588.04	1743.03
588.39	1731.27
588.74	1719.52
589.09	1707.63
589.44	1694.90
589.79	1682.63
590.14	1670.71
590.49	1658.47
590.84	1646.52
591.19	1634.12
591.54	1621.90
591.89	1609.66
592.25	1599.65
592.60	1588.25
592.95	1577.13
593.30	1565.18
593.65	1553.40
594.00	1541.68
594.35	1531.89
594.70	1520.03
595.05	1508.86
595.40	1497.19
595.75	1485.54
596.10	1474.36
596.45	1462.98
596.80	1452.21
597.15	1440.95
597.50	1429.30
597.85	1418.15
598.19	1406.44
598.54	1395.11
598.89	1383.96
599.24	1373.48
599.59	1361.76
599.94	1351.13
600.29	1340.93
600.64	1330.86
600.99	1320.18
601.34	1310.88
601.69	1299.71
602.04	1290.13
602.39	1280.33
602.74	1271.19
603.08	1261.64
603.43	1252.46
603.78	1242.80
604.13	1233.62
604.48	1224.19
604.83	1214.65
605.18	1204.75
605.53	1195.54
605.87	1186.46
606.22	1177.97
606.57	1168.63
606.92	1159.32
607.27	1150.54
607.62	1141.57
607.96	1133.03
608.31	1125.05
608.66	1116.40
609.01	1107.83
609.36	1099.45
609.70	1091.08
610.05	1082.35
610.40	1073.96
610.75	1065.22
611.10	1057.03
611.44	1048.02
611.79	1039.83
612.14	1032.08
612.49	1024.43
612.83	1017.02
613.18	1009.41
613.53	1001.56
613.88	993.91
614.22	986.52
614.57	978.60
614.92	970.80
615.27	963.26
615.61	955.62
615.96	948.14
616.31	940.85
616.65	933.85
617.00	926.75
617.35	919.68
617.70	912.50
618.04	905.31
618.39	898.41
618.74	892.43
619.08	885.80
619.43	878.77
619.78	871.82
620.12	864.64
620.47	857.51
620.82	850.45
621.16	843.59
621.51	837.20
621.85	830.77
622.20	824.29
622.55	817.70
622.89	811.41
623.24	805.10
623.59	798.84
623.93	792.32
624.28	786.12
624.62	780.47
624.97	774.88
625.32	769.18
625.66	763.19
626.01	756.89
626.35	751.21
626.70	745.69
627.04	740.50
627.39	735.05
627.73	729.93
628.08	724.93
628.43	719.67
628.77	714.20
629.12	709.01
629.46	704.20
629.81	699.65
630.15	694.88
630.50	690.19
630.84	685.34
631.19	680.90
631.53	676.33
631.88	671.02
632.22	666.06
632.57	661.66
632.91	657.22
633.26	652.96
633.60	648.32
633.95	643.70
634.29	638.86
634.64	634.49
634.98	629.65
635.32	625.20
635.67	621.14
636.01	616.95
636.36	612.60
636.70	608.55
637.05	604.25
637.39	600.13
637.73	596.13
638.08	592.20
638.42	587.93
638.77	583.62
639.11	579.41
639.45	575.08
639.80	570.70
640.14	566.58
640.49	562.52
640.83	558.88
641.17	555.30
641.52	551.69
641.86	547.97
642.20	545.05
642.55	541.40
642.89	537.70
643.23	534.29
643.58	531.35
643.92	527.84
644.26	524.39
644.61	521.35
644.95	517.94
645.29	514.63
645.64	511.49
645.98	508.44
646.32	505.64
646.66	502.72
647.01	499.87
647.35	497.08
647.69	494.34
648.04	491.48
648.38	488.75
648.72	485.97
649.06	483.02
649.41	479.88
649.75	476.98
650.09	474.23
650.43	471.30
650.78	468.20
651.12	465.29
651.46	462.61
651.80	459.66
652.14	457.00
652.49	454.46
652.83	451.90
653.17	449.26
653.51	446.61
653.85	444.06
654.20	441.66
654.54	439.07
654.88	436.46
655.22	434.15
655.56	431.69
655.90	429.28
656.25	427.12
656.59	425.08
656.93	422.96
657.27	420.90
657.61	418.60
657.95	416.52
658.29	414.36
658.64	412.32
658.98	410.15
659.32	407.99
659.66	405.78
660.00	403.54
660.34	401.45
660.68	399.46
661.02	397.67
661.36	395.79
661.70	393.81
662.05	391.92
662.39	389.99
662.73	388.25
663.07	386.56
663.41	384.74
663.75	382.66
664.09	380.85
664.43	378.92
664.77	377.31
665.11	375.52
665.45	373.91
665.79	372.20
666.13	370.50
666.47	368.76
666.81	367.18
667.15	365.56
667.49	364.13
667.83	362.76
668.17	361.17
668.51	359.55
668.85	358.25
669.19	357.08
669.53	355.53
669.87	353.89
670.21	352.34
670.55	351.01
670.89	349.92
671.23	348.58
671.57	347.20
671.91	345.76
672.25	344.48
672.58	343.28
672.92	341.85
673.26	340.58
673.60	339.53
673.94	338.33
674.28	337.30
674.62	336.12
674.96	334.92
675.30	333.78
675.64	332.67
675.97	331.44
676.31	330.09
676.65	328.88
676.99	328.04
677.33	326.95
677.67	325.81
678.01	324.51
678.34	323.55
678.68	322.59
679.02	321.58
679.36	320.65
679.70	319.54
680.04	318.60
680.37	317.68
680.71	316.62
681.05	315.64
681.39	314.70
681.73	313.77
682.06	312.75
682.40	311.86
682.74	311.01
683.08	310.28
683.42	309.37
683.75	308.61
684.09	307.58
684.43	306.81
684.77	305.91
685.10	305.13
685.44	304.24
685.78	303.38
686.12	302.57
686.45	301.70
686.79	300.85
687.13	300.16
687.46	299.37
687.80	298.71
688.14	297.85
688.48	297.09
688.81	296.32
689.15	295.68
689.49	294.89
689.82	294.18
690.16	293.24
690.50	292.62
690.83	291.84
691.17	291.09
691.51	290.34
691.84	289.77
692.18	289.12
692.52	288.47
692.85	287.84
693.19	287.49
693.52	286.86
693.86	286.20
694.20	285.56
694.53	285.00
694.87	284.36
695.21	283.85
695.54	283.22
695.88	282.59
696.21	281.85
696.55	281.25
696.88	280.63
697.22	280.09
697.56	279.53
697.89	278.91
698.23	278.42
698.56	277.96
698.90	277.52
699.23	276.96
699.57	276.46
699.90	275.90
700.24	275.21
700.58	274.82
700.91	274.53
701.25	274.41
701.58	274.28
701.92	273.92
702.25	273.50
702.59	273.03
702.92	272.60
703.26	272.24
703.59	271.80
703.93	271.83
704.26	271.53
704.60	271.12
704.93	270.83
705.26	270.35
705.60	269.90
705.93	269.31
706.27	269.03
706.60	268.83
706.94	268.63
707.27	268.23
707.61	267.83
707.94	267.39
708.27	266.64
708.61	265.88
708.94	265.44
709.28	265.00
709.61	264.57
709.94	264.31
710.28	263.91
710.61	263.58
710.95	262.73
711.28	262.64
711.61	262.22
711.95	261.96
712.28	261.59
712.61	261.30
712.95	261.18
713.28	261.04
713.61	260.49
713.95	260.01
714.28	259.66
714.61	259.23
714.95	258.85
715.28	258.41
715.61	258.08
715.95	257.75
716.28	257.40
716.61	257.22
716.95	256.81
717.28	256.59
717.61	256.28
717.94	256.00
718.28	255.33
718.61	255.09
718.94	254.71
719.27	254.47
719.61	254.11
719.94	253.77
720.27	253.18
720.60	252.91
720.94	252.72
721.27	252.52
721.60	252.43
721.93	252.25
722.27	252.24
722.60	252.13
722.93	251.75
723.26	251.59
723.59	251.30
723.93	251.11
724.26	250.94
724.59	250.63
724.92	250.40
725.25	250.28
725.59	250.04
725.92	249.84
726.25	249.64
726.58	249.52
726.91	249.31
727.24	249.23
727.57	249.08
727.91	248.75
728.24	248.64
728.57	248.30
728.90	248.18
729.23	247.84
729.56	247.89
729.89	247.76
730.22	247.52
730.55	247.36
730.89	247.20
731.22	246.92
731.55	246.85
731.88	246.70
732.21	246.47
732.54	246.30
732.87	246.22
733.20	246.07
733.53	245.84
733.86	245.70
734.19	245.51
734.52	245.38
734.85	245.64
735.18	245.38
735.51	245.40
735.84	245.23
736.17	245.18
736.50	244.72
736.83	245.22
737.16	245.14
737.49	244.93
737.82	244.74
738.15	244.67
738.48	244.49
738.81	244.34
739.14	244.13
739.47	243.98
739.80	243.76
740.13	243.63
740.46	243.51
740.79	243.29
741.12	243.04
741.45	242.85
741.78	242.38
742.11	242.40
742.44	242.16
742.77	242.09
743.10	241.93
743.43	241.68
743.75	240.94
744.08	241.38
744.41	241.28
744.74	241.12
745.07	240.94
745.40	240.88
745.73	240.97
746.06	241.00
746.39	240.88
746.71	240.67
747.04	240.50
747.37	240.35
747.70	240.25
748.03	240.17
748.36	240.06
748.68	239.91
749.01	239.66
749.34	239.55
749.67	239.48
750.00	239.43
750.33	239.69
750.65	239.66
750.98	238.96
751.31	238.85
751.64	238.80
751.97	238.82
752.29	238.64
752.62	238.35
752.95	238.16
753.28	238.01
753.60	238.02
753.93	238.07
754.26	238.02
754.59	237.84
754.91	237.70
755.24	237.59
755.57	237.54
755.90	237.36
756.22	237.19
756.55	236.89
756.88	236.62
757.20	236.29
757.53	236.05
757.86	235.98
758.19	235.89
758.51	235.78
758.84	235.53
759.17	235.48
759.49	235.39
759.82	235.55
760.15	235.50
760.47	235.29
760.80	235.09
761.13	234.96
761.45	234.91
761.78	234.85
762.11	234.79
762.43	234.62
762.76	234.54
763.08	234.52
763.41	234.58
763.74	234.57
764.06	234.47
764.39	234.47
764.71	234.45
765.04	234.39
765.37	234.25
765.69	234.23
766.02	234.19
766.34	233.98
766.67	233.72
767.00	233.77
767.32	234.02
767.65	234.23
767.97	234.20
768.30	234.17
768.62	234.15
768.95	234.03
769.27	234.07
769.60	234.09
769.92	234.02
770.25	233.81
770.57	233.68
770.90	233.62
771.22	233.43
771.55	233.34
771.87	233.24
772.20	233.20
772.52	233.53
772.85	233.98
773.17	234.00
773.50	233.86
773.82	233.72
774.15	233.44
774.47	233.10
774.80	232.95
775.12	232.84
775.45	232.74
775.77	232.67
776.09	232.60
776.42	232.56
776.74	232.60
777.07	232.59
777.39	232.61
777.72	232.57
778.04	232.70
778.36	232.57
778.69	232.55
779.01	232.49
779.33	232.05
779.66	231.46
779.98	231.42
780.31	231.44
780.63	231.60
780.95	231.63
781.28	231.63
781.60	231.50
781.92	231.50
782.25	231.44
782.57	231.50
782.89	231.40
783.22	231.32
783.54	231.14
783.86	231.13
784.19	230.99
784.51	231.04
784.83	230.84
785.16	230.77
785.48	230.75
785.80	230.78
786.12	230.76
786.45	230.73
786.77	230.68
787.09	230.57
787.42	230.35
787.74	230.26
788.06	230.15
788.38	230.17
788.71	230.14
789.03	230.15
789.35	230.08
789.67	230.00
789.99	230.01
790.32	229.92
790.64	229.87
790.96	230.27
791.28	230.11
791.61	230.06
791.93	230.07
792.25	230.00
792.57	230.29
792.89	230.13
793.21	230.16
793.54	230.14
793.86	230.07
794.18	230.08
794.50	230.05
794.82	230.03
795.14	230.10
795.47	230.10
795.79	230.06
796.11	229.95
796.43	229.95
796.75	229.93
797.07	229.90
797.39	229.90
797.71	229.51
798.04	229.48
798.36	229.45
798.68	229.43
799.00	229.44
799.32	229.07
799.64	229.20
799.96	229.11
800.28	229.17
800.60	229.13
800.92	229.10
801.24	229.00
801.56	229.12
801.89	229.03
802.21	229.00
802.53	228.90
802.85	229.09
803.17	229.31
803.49	229.19
803.81	229.18
804.13	229.02
804.45	228.96
804.77	229.02
805.09	229.02
805.41	228.94
805.73	228.86
806.05	228.80
806.37	228.73
806.69	228.73
807.01	228.67
807.33	228.70
807.65	228.54
807.97	228.81
808.28	228.67
808.60	228.64
808.92	228.57
809.24	228.82
809.56	228.66
809.88	228.40
810.20	228.39
810.52	228.48
810.84	228.52
811.16	228.45
811.48	228.40
811.80	228.68
812.12	228.73
812.43	228.81
812.75	228.86
813.07	228.77
813.39	228.80
813.71	228.72
814.03	228.69
814.35	228.65
814.67	228.46
814.98	228.43
815.30	228.40
815.62	228.34
815.94	228.03
816.26	228.23
816.58	228.19
816.89	228.23
817.21	228.16
817.53	228.15
817.85	228.25
818.17	228.13
818.48	227.89
818.80	227.92
819.12	227.81
819.44	227.68
819.76	227.58
820.07	227.47
820.39	227.43
820.71	227.42
821.03	227.48
821.34	227.31
821.66	227.31
821.98	227.35
822.30	227.26
822.61	227.55
822.93	227.26
823.25	227.25
823.57	227.19
823.88	227.20
824.20	227.17
824.52	227.20
824.83	227.25
825.15	227.15
825.47	227.10
825.79	227.15
826.10	227.18
826.42	227.20
826.74	227.27
827.05	227.27
827.37	227.33
827.69	227.25
828.00	227.28
828.32	227.25
828.64	227.18
828.95	227.44
829.27	227.21
829.58	227.28
829.90	227.33
830.22	227.39
830.53	227.26
830.85	227.12
831.17	226.98
831.48	226.89
831.80	226.91
832.11	226.90
832.43	226.85
832.75	226.80
833.06	227.14
833.38	227.02
833.69	226.97
834.01	226.95
834.32	226.98
834.64	227.01
834.96	227.10
835.27	227.14
835.59	227.01
835.90	227.01
836.22	227.03
836.53	226.92
836.85	226.83
837.16	227.33
837.48	227.45
837.79	227.56
838.11	227.66
838.42	227.62
838.74	227.70
839.05	227.65
839.37	227.64
839.68	227.34
840.00	227.35
840.31	227.50
840.63	227.44
840.94	227.37
841.26	227.34
841.57	227.25
841.88	227.32
842.20	227.20
842.51	227.13
842.83	227.04
843.14	227.44
843.46	227.55
843.77	227.36
844.08	227.41
844.40	227.34
844.71	227.33
845.03	227.37
845.34	227.28
845.65	227.32
845.97	227.35
846.28	227.37
846.60	227.42
846.91	227.39
847.22	227.46
847.54	227.57
847.85	227.60
848.16	227.57
848.48	227.45
848.79	227.68
849.10	227.75
849.42	227.81
849.73	227.37
850.04	227.26
850.36	227.09
850.67	227.10
850.98	227.10
851.30	227.11
851.61	227.09
851.92	227.13
852.23	227.27
852.55	227.29
852.86	227.27
853.17	227.29
853.49	227.35
853.80	227.38
854.11	227.39
854.42	227.44
854.74	227.34
855.05	227.40
855.36	227.14
855.67	227.13
855.99	227.09
856.30	227.75
856.61	227.67
856.92	227.62
857.23	227.50
857.55	227.45
857.86	227.39
858.17	227.46
858.48	227.38
858.79	227.22
859.11	227.30
859.42	227.28
859.73	227.26
860.04	227.14
860.35	227.00
860.66	226.89
860.98	226.95
861.29	227.03
861.60	227.00
861.91	227.15
862.22	227.05
862.53	227.00
862.84	226.40
863.16	226.60
863.47	226.47
863.78	226.53
864.09	226.57
864.40	226.53
864.71	226.51
865.02	226.54
865.33	226.49
865.64	226.34
865.95	226.35
866.27	226.50
866.58	226.51
866.89	226.55
867.20	226.57
867.51	226.42
867.82	226.45
868.13	226.58
868.44	226.44
868.75	226.60
869.06	226.65
869.37	226.65
869.68	226.46
869.99	226.61
870.30	226.62
870.61	226.65
870.92	226.63
871.23	226.64
871.54	226.69
871.85	226.76
872.16	226.85
872.47	226.78
872.78	226.59
873.09	226.58
873.40	226.56
873.71	226.60
874.02	226.59
874.33	226.55
874.64	226.45
874.95	226.48
875.26	226.34
875.56	226.30
875.87	226.35
876.18	226.38
876.49	226.86
876.80	226.79
877.11	226.69
877.42	226.68
877.73	226.64
878.04	226.58
878.35	226.57
878.66	226.59
878.96	226.59
879.27	226.59
879.58	226.63
879.89	226.60
880.20	226.73
880.51	226.73
880.82	226.76
881.12	226.78
881.43	226.74
881.74	226.71
882.05	226.70
882.36	226.70
882.67	226.65
882.97	226.15
883.28	226.08
883.59	226.12
883.90	226.20
884.21	226.25
884.51	226.24
884.82	226.28
885.13	226.23
885.44	226.22
885.74	226.28
886.05	226.22
886.36	226.31
886.67	226.10
886.98	226.41
887.28	226.41
887.59	226.43
887.90	226.41
888.20	226.30
888.51	226.37
888.82	226.34
889.13	226.40
889.43	226.79
889.74	226.84
890.05	226.83
890.35	226.81
890.66	226.80
890.97	226.77
891.28	226.64
891.58	226.64
891.89	226.70
892.20	226.55
892.50	226.52
892.81	226.43
893.12	226.43
893.42	226.16
893.73	226.17
894.04	226.11
894.34	226.20
894.65	226.32
894.95	226.28
895.26	226.21
895.57	226.46
895.87	226.03
896.18	226.10
896.48	226.16
896.79	226.16
897.10	226.15
897.40	226.23
897.71	226.33
898.01	226.28
898.32	226.38
898.63	226.35
898.93	226.43
899.24	226.47
899.54	226.49
899.85	226.46
900.15	226.45
900.46	226.47
900.76	226.50
901.07	226.49
901.38	226.47
901.68	226.59
901.99	226.38
902.29	226.36
902.60	226.32
902.90	226.18
903.21	226.12
903.51	226.08
903.82	226.12
904.12	226.11
904.43	226.11
904.73	225.99
905.03	226.10
905.34	226.57
905.64	226.54
905.95	226.49
906.25	226.51
906.56	226.50
906.86	226.53
907.17	226.43
907.47	226.43
907.77	226.37
908.08	226.28
908.38	226.26
908.69	226.30
908.99	226.41
909.30	226.49
909.60	226.52
909.90	226.58
910.21	226.44
910.51	226.35
910.81	226.40
911.12	226.42
911.42	226.41
911.73	225.81
912.03	225.83
912.33	225.96
912.64	225.95
912.94	225.89
913.24	225.80
913.55	225.83
913.85	225.77
914.15	225.94
914.46	226.01
914.76	225.95
915.06	225.97
915.37	225.91
915.67	225.87
915.97	225.87
916.27	225.78
916.58	225.83
916.88	225.86
917.18	225.83
917.49	226.13
917.79	226.10
918.09	226.22
918.39	226.34
918.70	226.27
919.00	226.28
919.30	226.52
919.60	226.58
919.91	226.57
920.21	226.68
920.51	226.59
920.81	226.55
921.12	226.62
921.42	226.56
921.72	226.56
922.02	226.58
922.32	226.62
922.63	226.63
922.93	226.86
923.23	226.90
923.53	226.82
923.83	226.58
924.13	226.59
924.44	226.58
924.74	226.65
925.04	226.74
925.34	226.71
925.64	226.51
925.94	226.43
926.24	226.65
926.55	226.60
926.85	226.67
927.15	226.64
927.45	226.67
927.75	226.71
928.05	226.71
928.35	226.70
928.65	226.81
928.95	226.82
929.26	226.62
929.56	226.65
929.86	226.77
930.16	226.70
930.46	226.73
930.76	226.72
931.06	226.47
931.36	226.37
931.66	226.40
931.96	226.48
932.26	226.56
932.56	226.32
932.86	226.36
933.16	226.33
933.46	226.25
933.76	226.20
934.06	226.32
934.36	226.46
934.66	226.49
934.96	226.42
935.26	226.42
935.56	226.51
935.86	226.45
936.16	226.38
936.46	226.40
936.76	226.40
937.06	226.35
937.36	226.45
937.66	226.45
937.96	226.46
938.26	226.33
938.56	226.23
938.86	226.28
939.16	226.35
939.46	226.48
939.76	226.53
940.06	226.50
940.35	226.35
940.65	226.14
940.95	226.12
941.25	226.05
941.55	226.05
941.85	226.02
942.15	226.12
942.45	226.25
942.75	226.25
943.04	226.28
943.34	226.36
943.64	226.32
943.94	226.27
944.24	226.28
944.54	226.35
944.84	226.38
945.13	226.32
945.43	226.24
945.73	226.08
946.03	226.13
946.33	226.12
946.62	226.10
946.92	226.08
947.22	226.16
947.52	226.19
947.82	226.21
948.11	226.11
948.41	226.02
948.71	225.86
949.01	225.87
949.31	225.79
949.60	225.75
949.90	225.79
950.20	225.80
950.50	225.84
950.79	225.83
951.09	225.97
951.39	225.97
951.69	225.95
951.98	226.06
952.28	226.03
952.58	226.02
952.87	226.08
953.17	226.19
953.47	226.16
953.76	226.15
954.06	226.13
954.36	226.05
954.66	225.99
954.95	226.21
955.25	226.24
955.55	226.27
955.84	226.18
956.14	226.24
956.44	226.21
956.73	226.08
957.03	226.07
957.32	225.99
957.62	226.01
957.92	226.06
958.21	225.99
958.51	226.56
958.81	226.61
959.10	226.60
959.40	226.63
959.69	226.59
959.99	226.64
960.29	226.66
960.58	226.68
960.88	226.89
961.17	226.77
961.47	226.73
961.76	226.75
962.06	226.87
962.36	226.75
962.65	226.77
962.95	226.83
963.24	226.75
963.54	226.79
963.83	226.84
964.13	226.77
964.42	226.71
964.72	226.37
965.01	226.39
965.31	226.39
965.60	226.30
965.90	226.68
966.19	226.54
966.49	226.56
966.78	226.55
967.08	226.43
967.37	226.47
967.67	226.43
967.96	226.46
968.26	226.46
968.55	226.65
968.85	226.67
969.14	226.69
969.43	226.75
969.73	226.65
970.02	226.57
970.32	226.58
970.61	226.52
970.91	226.32
971.20	226.19
971.49	226.15
971.79	226.18
972.08	225.75
972.38	225.85
972.67	225.73
972.96	225.77
973.26	225.77
973.55	225.86
973.85	225.82
974.14	225.77
974.43	225.77
974.73	225.55
975.02	225.51
975.31	225.47
975.61	225.45
975.90	225.46
976.19	225.46
976.49	225.46
976.78	225.45
977.07	225.50
977.37	225.62
977.66	225.64
977.95	225.59
978.24	225.64
978.54	225.71
978.83	225.71
979.12	225.66
979.42	225.60
979.71	225.46
980.00	225.49
980.29	225.46
980.59	225.34
980.88	225.42
981.17	225.42
981.46	225.37
981.76	225.38
982.05	225.55
982.34	225.55
982.63	225.57
982.93	225.70
983.22	225.80
983.51	225.80
983.80	225.89
984.09	225.95
984.39	225.93
984.68	225.90
984.97	225.95
985.26	225.98
985.55	226.07
985.85	226.03
986.14	226.08
986.43	226.19
986.72	226.18
987.01	226.10
987.30	226.12
987.59	226.15
987.89	226.12
988.18	225.92
988.47	225.93
988.76	225.86
989.05	225.76
989.34	225.58
989.63	225.66
989.92	225.59
990.22	225.53
990.51	225.48
990.80	225.41
991.09	225.48
991.38	225.52
991.67	225.49
991.96	225.45
992.25	225.45
992.54	225.43
992.83	225.43
993.12	225.43
993.41	225.47
993.70	225.64
993.99	225.73
994.28	225.82
994.58	225.91
994.87	225.88
995.16	225.84
995.45	225.88
995.74	225.75
996.03	225.85
996.32	225.93
996.61	226.02
996.90	226.01
997.19	225.95
997.48	225.96
997.77	225.90
998.06	225.90
998.34	225.85
998.63	225.84
998.92	225.93
999.21	226.03
999.50	226.08
999.79	225.90
1000.08	225.87
1000.37	225.89
1000.66	225.77
1000.95	225.97
1001.24	226.01
1001.53	226.07
1001.82	226.04
1002.11	225.97
1002.40	226.03
1002.68	226.15
1002.97	226.53
1003.26	226.48
1003.55	226.39
1003.84	226.43
1004.13	226.56
1004.42	226.58
1004.71	226.54
1004.99	226.59
1005.28	226.63
1005.57	226.59
1005.86	226.58
1006.15	226.57
1006.44	226.46
1006.72	226.51
1007.01	226.37
1007.30	226.45
1007.59	226.40
1007.88	226.40
1008.17	226.41
1008.45	226.26
1008.74	226.01
1009.03	225.77
1009.32	225.77
1009.60	225.86
1009.89	225.75
1010.18	225.54
1010.47	225.50
1010.76	225.51
1011.04	225.39
1011.33	225.37
1011.62	225.37
1011.91	225.46
1012.19	225.45
1012.48	225.54
1012.77	225.47
1013.05	225.76
1013.34	225.65
1013.63	225.59
1013.92	225.57
1014.20	225.49
1014.49	225.55
1014.78	225.63
1015.06	225.45
1015.35	225.45
1015.64	225.45
1015.92	225.59
1016.21	225.73
1016.50	225.71
1016.78	225.79
1017.07	225.81
1017.36	225.75
1017.64	225.68
1017.93	225.69
1018.22	225.63
1018.50	225.52
1018.79	225.54
1019.08	225.25
1019.36	225.31
1019.65	225.30
1019.93	225.43
1020.22	225.49
1020.51	225.69
1020.79	225.57
1021.08	224.60
1021.36	223.40
1021.65	225.15
1021.94	225.05
1022.22	225.40
1022.51	224.30
1022.79	227.55
1023.08	226.20
1023.36	230.55
1023.65	222.80
>>>>>End Processed Spectral Data<<<<<
