SpectraSuite Data File
++++++++++++++++++++++++++++++++++++
Date: Wed Sep 04 17:59:39 EDT 2013
User: lab3
Dark Spectrum Present: Yes
Reference Spectrum Present: No
Number of Sampled Component Spectra: 1
Spectrometers: USB2E7196
Integration Time (usec): 170000 (USB2E7196)
Spectra Averaged: 20 (USB2E7196)
Boxcar Smoothing: 10 (USB2E7196)
Correct for Electrical Dark: No (USB2E7196)
Strobe/Lamp Enabled: No (USB2E7196)
Correct for Detector Non-linearity: No (USB2E7196)
Correct for Stray Light: No (USB2E7196)
Number of Pixels in Processed Spectrum: 2048
>>>>>Begin Processed Spectral Data<<<<<
339.09	0.00
339.48	212.40
339.86	215.00
340.24	216.05
340.63	218.70
341.01	225.60
341.39	221.20
341.78	221.90
342.16	224.35
342.54	223.20
342.93	212.80
343.31	223.49
343.69	224.09
344.07	224.57
344.46	225.08
344.84	225.45
345.22	225.45
345.60	225.70
345.99	225.92
346.37	226.03
346.75	226.17
347.13	226.17
347.52	226.34
347.90	226.50
348.28	226.51
348.66	226.61
349.05	226.41
349.43	226.50
349.81	226.62
350.19	226.65
350.57	226.68
350.96	226.73
351.34	226.86
351.72	226.99
352.10	227.08
352.48	227.10
352.87	227.14
353.25	227.22
353.63	227.28
354.01	227.30
354.39	227.35
354.77	227.40
355.15	227.66
355.54	227.61
355.92	227.59
356.30	227.63
356.68	228.03
357.06	228.25
357.44	228.20
357.82	228.21
358.20	228.62
358.58	228.76
358.97	228.87
359.35	229.05
359.73	229.14
360.11	229.22
360.49	229.26
360.87	229.30
361.25	229.40
361.63	229.52
362.01	229.62
362.39	229.66
362.77	229.75
363.15	229.81
363.53	229.83
363.91	229.78
364.29	229.82
364.67	229.49
365.05	229.47
365.43	229.51
365.81	229.55
366.19	229.47
366.57	229.63
366.95	229.55
367.33	229.45
367.71	229.55
368.09	229.57
368.47	229.55
368.85	229.59
369.23	229.67
369.61	229.57
369.99	229.72
370.37	229.79
370.75	230.00
371.13	229.81
371.51	229.71
371.89	229.75
372.27	229.71
372.65	229.65
373.03	229.53
373.41	229.42
373.78	229.34
374.16	228.97
374.54	228.78
374.92	228.81
375.30	228.73
375.68	228.51
376.06	228.48
376.44	228.42
376.82	228.33
377.19	228.20
377.57	228.11
377.95	227.89
378.33	227.75
378.71	227.37
379.09	227.40
379.47	227.50
379.84	227.43
380.22	227.36
380.60	227.25
380.98	227.25
381.36	227.32
381.73	227.24
382.11	227.29
382.49	227.21
382.87	227.07
383.25	227.00
383.62	227.54
384.00	227.43
384.38	227.46
384.76	227.51
385.13	227.68
385.51	227.65
385.89	227.53
386.27	227.51
386.64	227.61
387.02	227.51
387.40	227.39
387.78	227.35
388.15	227.38
388.53	227.30
388.91	227.24
389.29	227.05
389.66	227.12
390.04	227.05
390.42	227.12
390.79	227.17
391.17	227.18
391.55	226.61
391.92	226.61
392.30	226.68
392.68	226.63
393.05	226.55
393.43	226.58
393.81	226.62
394.18	226.52
394.56	226.52
394.94	226.63
395.31	226.61
395.69	226.78
396.06	226.87
396.44	227.02
396.82	227.00
397.19	227.39
397.57	227.38
397.95	227.52
398.32	227.44
398.70	227.59
399.07	227.79
399.45	227.80
399.82	227.89
400.20	227.86
400.58	228.02
400.95	227.93
401.33	228.11
401.70	228.57
402.08	228.80
402.45	228.95
402.83	229.23
403.20	229.46
403.58	229.51
403.95	229.72
404.33	229.91
404.71	230.20
405.08	230.64
405.46	230.85
405.83	231.17
406.21	231.39
406.58	231.53
406.96	231.72
407.33	232.12
407.70	232.50
408.08	233.28
408.45	233.58
408.83	234.12
409.20	234.45
409.58	234.69
409.95	235.19
410.33	235.71
410.70	236.06
411.08	236.68
411.45	237.29
411.82	237.83
412.20	238.56
412.57	239.49
412.95	239.80
413.32	240.72
413.69	241.46
414.07	242.42
414.44	243.48
414.82	244.48
415.19	245.71
415.56	246.87
415.94	247.81
416.31	249.25
416.68	250.56
417.06	252.20
417.43	253.73
417.81	255.47
418.18	257.25
418.55	259.20
418.93	261.18
419.30	263.28
419.67	265.48
420.04	267.78
420.42	270.07
420.79	273.10
421.16	275.83
421.54	278.85
421.91	281.82
422.28	284.86
422.66	288.20
423.03	291.66
423.40	295.01
423.77	298.58
424.15	302.24
424.52	306.11
424.89	310.26
425.26	314.28
425.64	318.06
426.01	322.25
426.38	326.59
426.75	331.15
427.13	335.78
427.50	340.59
427.87	345.54
428.24	350.45
428.61	355.00
428.99	360.48
429.36	365.91
429.73	371.56
430.10	377.14
430.47	382.80
430.85	388.35
431.22	394.60
431.59	401.49
431.96	407.77
432.33	414.81
432.70	421.55
433.08	429.38
433.45	436.78
433.82	444.23
434.19	452.50
434.56	460.61
434.93	468.33
435.30	476.18
435.68	484.73
436.05	493.38
436.42	501.79
436.79	509.44
437.16	518.02
437.53	526.80
437.90	535.52
438.27	544.25
438.64	553.46
439.01	561.81
439.38	569.07
439.75	576.16
440.13	584.24
440.50	591.66
440.87	597.94
441.24	604.50
441.61	611.72
441.98	616.83
442.35	622.63
442.72	628.83
443.09	634.71
443.46	638.24
443.83	640.54
444.20	642.40
444.57	645.06
444.94	646.00
445.31	647.11
445.68	648.58
446.05	648.77
446.42	647.21
446.79	645.83
447.16	643.99
447.53	642.75
447.90	639.01
448.27	635.42
448.64	630.35
449.01	626.63
449.37	620.30
449.74	614.18
450.11	607.41
450.48	599.43
450.85	591.31
451.22	584.34
451.59	577.61
451.96	571.35
452.33	563.25
452.70	555.91
453.07	547.19
453.43	537.96
453.80	529.52
454.17	521.44
454.54	513.59
454.91	505.47
455.28	497.44
455.65	489.84
456.02	482.83
456.38	476.48
456.75	468.63
457.12	462.06
457.49	455.90
457.86	449.44
458.23	444.32
458.59	438.51
458.96	432.75
459.33	427.64
459.70	422.55
460.07	418.31
460.43	413.63
460.80	409.27
461.17	405.44
461.54	401.33
461.91	397.57
462.27	393.68
462.64	390.41
463.01	386.84
463.38	383.60
463.74	379.58
464.11	376.57
464.48	373.92
464.85	370.98
465.21	368.66
465.58	366.33
465.95	363.44
466.32	361.26
466.68	358.92
467.05	356.70
467.42	354.50
467.78	352.23
468.15	350.10
468.52	348.54
468.88	346.29
469.25	344.34
469.62	342.85
469.98	341.32
470.35	339.84
470.72	338.32
471.08	336.48
471.45	335.41
471.82	334.18
472.18	332.66
472.55	331.72
472.92	330.32
473.28	329.19
473.65	328.04
474.02	326.96
474.38	326.20
474.75	325.38
475.11	324.48
475.48	323.81
475.85	323.14
476.21	322.44
476.58	321.99
476.94	321.63
477.31	321.16
477.67	320.61
478.04	320.18
478.41	320.02
478.77	320.30
479.14	319.90
479.50	319.69
479.87	319.76
480.23	319.66
480.60	319.68
480.96	319.59
481.33	319.96
481.69	320.13
482.06	320.31
482.42	320.63
482.79	320.99
483.15	321.36
483.52	322.00
483.88	322.47
484.25	322.99
484.61	323.68
484.98	324.34
485.34	325.34
485.71	326.26
486.07	327.24
486.44	327.83
486.80	328.91
487.17	330.08
487.53	331.50
487.90	332.97
488.26	334.77
488.62	336.62
488.99	338.14
489.35	339.99
489.72	341.78
490.08	343.73
490.44	345.76
490.81	348.00
491.17	350.22
491.54	352.69
491.90	355.30
492.26	357.91
492.63	360.75
492.99	363.60
493.36	366.65
493.72	369.94
494.08	373.45
494.45	377.23
494.81	381.18
495.17	385.00
495.54	389.24
495.90	393.34
496.26	397.78
496.63	402.53
496.99	407.27
497.35	412.37
497.72	417.65
498.08	423.17
498.44	428.89
498.80	434.91
499.17	441.20
499.53	447.68
499.89	454.36
500.26	461.16
500.62	468.22
500.98	475.75
501.34	483.33
501.71	491.22
502.07	499.02
502.43	507.21
502.79	515.64
503.16	524.27
503.52	533.41
503.88	542.64
504.24	552.35
504.60	562.42
504.97	572.81
505.33	583.33
505.69	594.50
506.05	605.61
506.41	617.01
506.78	628.64
507.14	640.49
507.50	652.96
507.86	665.75
508.22	678.70
508.59	691.75
508.95	705.37
509.31	719.70
509.67	734.05
510.03	748.43
510.39	763.26
510.75	778.40
511.12	793.69
511.48	809.35
511.84	825.24
512.20	841.25
512.56	857.71
512.92	874.47
513.28	891.29
513.64	908.82
514.00	926.26
514.37	944.04
514.73	962.35
515.09	980.42
515.45	998.76
515.81	1017.27
516.17	1036.22
516.53	1055.19
516.89	1073.66
517.25	1093.11
517.61	1113.41
517.97	1133.89
518.33	1153.86
518.69	1174.24
519.05	1194.95
519.41	1215.49
519.77	1236.45
520.13	1257.31
520.49	1277.98
520.85	1300.27
521.21	1321.08
521.57	1342.72
521.93	1363.63
522.29	1384.91
522.65	1406.01
523.01	1427.14
523.37	1448.01
523.73	1469.13
524.09	1489.55
524.45	1510.40
524.81	1531.50
525.17	1552.05
525.53	1572.61
525.89	1593.43
526.25	1614.20
526.61	1634.60
526.97	1655.92
527.33	1677.45
527.68	1699.31
528.04	1720.95
528.40	1740.68
528.76	1762.18
529.12	1782.48
529.48	1803.49
529.84	1823.73
530.20	1844.77
530.56	1865.64
530.91	1886.69
531.27	1907.14
531.63	1928.05
531.99	1948.94
532.35	1969.07
532.71	1989.49
533.07	2010.29
533.42	2030.59
533.78	2050.97
534.14	2071.04
534.50	2090.18
534.86	2109.48
535.21	2127.06
535.57	2145.59
535.93	2163.46
536.29	2181.11
536.65	2199.41
537.00	2217.09
537.36	2234.56
537.72	2251.42
538.08	2268.95
538.44	2285.71
538.79	2302.48
539.15	2318.69
539.51	2334.55
539.87	2349.87
540.22	2364.04
540.58	2378.57
540.94	2391.92
541.29	2404.46
541.65	2417.31
542.01	2430.01
542.37	2440.43
542.72	2451.63
543.08	2462.45
543.44	2474.15
543.79	2484.60
544.15	2494.51
544.51	2504.59
544.87	2514.46
545.22	2523.08
545.58	2530.59
545.94	2538.10
546.29	2544.42
546.65	2551.14
547.01	2556.64
547.36	2562.16
547.72	2567.85
548.07	2571.73
548.43	2577.26
548.79	2582.04
549.14	2586.13
549.50	2590.25
549.86	2594.45
550.21	2598.36
550.57	2601.36
550.92	2603.08
551.28	2604.30
551.64	2606.87
551.99	2609.05
552.35	2611.03
552.70	2613.01
553.06	2614.91
553.41	2615.77
553.77	2617.76
554.13	2619.54
554.48	2621.42
554.84	2623.41
555.19	2624.60
555.55	2626.45
555.90	2625.44
556.26	2624.67
556.61	2623.08
556.97	2620.90
557.32	2620.17
557.68	2618.94
558.03	2617.89
558.39	2616.55
558.74	2615.76
559.10	2612.37
559.45	2608.42
559.81	2603.29
560.16	2598.12
560.52	2592.99
560.87	2588.87
561.23	2583.20
561.58	2576.98
561.94	2570.27
562.29	2562.86
562.64	2555.75
563.00	2547.35
563.35	2541.02
563.71	2534.63
564.06	2528.42
564.42	2521.69
564.77	2514.83
565.12	2507.43
565.48	2499.64
565.83	2491.67
566.19	2483.58
566.54	2475.84
566.89	2467.93
567.25	2460.80
567.60	2453.61
567.96	2446.20
568.31	2438.21
568.66	2429.49
569.02	2420.55
569.37	2412.35
569.72	2404.36
570.08	2394.93
570.43	2385.62
570.78	2376.20
571.14	2366.80
571.49	2356.48
571.84	2347.02
572.20	2336.11
572.55	2325.90
572.90	2315.06
573.26	2304.73
573.61	2293.50
573.96	2282.30
574.31	2270.26
574.67	2258.23
575.02	2245.28
575.37	2232.39
575.72	2218.98
576.08	2207.04
576.43	2194.45
576.78	2181.10
577.13	2167.20
577.49	2154.58
577.84	2142.45
578.19	2130.35
578.54	2117.40
578.90	2105.57
579.25	2093.22
579.60	2080.74
579.95	2067.63
580.30	2054.31
580.66	2040.75
581.01	2027.09
581.36	2012.93
581.71	2000.20
582.06	1987.08
582.42	1974.84
582.77	1962.24
583.12	1950.37
583.47	1937.91
583.82	1926.25
584.17	1914.41
584.53	1902.70
584.88	1889.92
585.23	1876.79
585.58	1862.77
585.93	1849.38
586.28	1835.81
586.63	1821.50
586.98	1807.26
587.34	1793.86
587.69	1780.67
588.04	1768.30
588.39	1756.29
588.74	1744.13
589.09	1732.10
589.44	1719.49
589.79	1707.17
590.14	1695.21
590.49	1682.86
590.84	1670.78
591.19	1658.39
591.54	1645.87
591.89	1633.44
592.25	1623.01
592.60	1611.39
592.95	1600.03
593.30	1587.97
593.65	1576.04
594.00	1564.13
594.35	1554.45
594.70	1542.60
595.05	1530.93
595.40	1518.35
595.75	1506.40
596.10	1495.10
596.45	1483.32
596.80	1472.42
597.15	1461.00
597.50	1448.91
597.85	1437.38
598.19	1425.50
598.54	1413.69
598.89	1402.50
599.24	1392.03
599.59	1380.20
599.94	1369.39
600.29	1358.71
600.64	1348.28
600.99	1337.52
601.34	1327.82
601.69	1316.34
602.04	1306.42
602.39	1296.70
602.74	1287.56
603.08	1278.21
603.43	1268.87
603.78	1259.20
604.13	1249.35
604.48	1239.70
604.83	1230.10
605.18	1220.45
605.53	1211.03
605.87	1201.80
606.22	1192.97
606.57	1183.44
606.92	1173.79
607.27	1164.85
607.62	1155.79
607.96	1147.27
608.31	1139.22
608.66	1130.64
609.01	1121.96
609.36	1113.25
609.70	1104.74
610.05	1095.75
610.40	1087.03
610.75	1078.05
611.10	1069.59
611.44	1061.01
611.79	1052.73
612.14	1044.81
612.49	1036.82
612.83	1029.34
613.18	1021.50
613.53	1013.73
613.88	1005.69
614.22	998.28
614.57	990.28
614.92	982.45
615.27	974.84
615.61	966.99
615.96	959.47
616.31	952.00
616.65	945.05
617.00	937.60
617.35	930.60
617.70	923.34
618.04	916.30
618.39	909.30
618.74	902.95
619.08	895.91
619.43	888.77
619.78	881.72
620.12	874.39
620.47	867.37
620.82	860.14
621.16	853.32
621.51	846.73
621.85	840.21
622.20	833.86
622.55	827.22
622.89	820.78
623.24	814.22
623.59	807.82
623.93	801.45
624.28	795.34
624.62	789.69
624.97	783.75
625.32	778.08
625.66	772.00
626.01	765.68
626.35	760.10
626.70	754.54
627.04	749.35
627.39	743.87
627.73	738.53
628.08	733.36
628.43	728.02
628.77	722.57
629.12	717.27
629.46	712.38
629.81	707.74
630.15	702.77
630.50	697.99
630.84	693.11
631.19	688.15
631.53	683.58
631.88	678.23
632.22	673.50
632.57	668.81
632.91	664.22
633.26	659.81
633.60	655.16
633.95	650.49
634.29	645.43
634.64	640.84
634.98	636.20
635.32	631.73
635.67	627.63
636.01	623.28
636.36	618.84
636.70	614.60
637.05	610.08
637.39	606.02
637.73	601.89
638.08	597.86
638.42	593.63
638.77	589.26
639.11	584.94
639.45	580.55
639.80	576.08
640.14	571.98
640.49	567.83
640.83	564.10
641.17	560.42
641.52	556.83
641.86	553.29
642.20	549.95
642.55	546.30
642.89	542.56
643.23	539.18
643.58	536.08
643.92	532.40
644.26	529.07
644.61	525.76
644.95	522.34
645.29	518.90
645.64	515.71
645.98	512.66
646.32	509.83
646.66	506.74
647.01	503.78
647.35	501.00
647.69	498.09
648.04	495.14
648.38	492.32
648.72	489.45
649.06	486.39
649.41	483.42
649.75	480.47
650.09	477.75
650.43	474.81
650.78	471.82
651.12	469.04
651.46	466.22
651.80	463.42
652.14	460.64
652.49	458.16
652.83	455.60
653.17	452.81
653.51	450.08
653.85	447.71
654.20	445.28
654.54	442.66
654.88	440.07
655.22	437.84
655.56	435.36
655.90	432.82
656.25	430.63
656.59	428.23
656.93	426.07
657.27	423.87
657.61	421.52
657.95	419.07
658.29	416.76
658.64	414.72
658.98	412.50
659.32	410.22
659.66	407.89
660.00	405.67
660.34	403.67
660.68	401.61
661.02	399.50
661.36	397.49
661.70	395.47
662.05	393.55
662.39	391.50
662.73	389.53
663.07	388.00
663.41	386.07
663.75	384.23
664.09	382.27
664.43	380.36
664.77	378.70
665.11	377.14
665.45	375.50
665.79	373.80
666.13	372.14
666.47	370.48
666.81	368.91
667.15	367.20
667.49	365.66
667.83	364.31
668.17	362.81
668.51	361.33
668.85	359.89
669.19	358.73
669.53	357.17
669.87	355.81
670.21	354.17
670.55	352.78
670.89	351.52
671.23	350.18
671.57	348.76
671.91	347.42
672.25	346.09
672.58	345.01
672.92	343.52
673.26	342.14
673.60	340.96
673.94	339.80
674.28	338.72
674.62	337.61
674.96	336.13
675.30	334.95
675.64	333.70
675.97	332.45
676.31	331.00
676.65	329.76
676.99	328.81
677.33	327.71
677.67	326.63
678.01	325.39
678.34	324.30
678.68	323.22
679.02	322.08
679.36	321.00
679.70	319.84
680.04	318.83
680.37	317.86
680.71	316.81
681.05	315.86
681.39	315.00
681.73	313.96
682.06	313.14
682.40	312.24
682.74	311.55
683.08	310.87
683.42	310.04
683.75	309.31
684.09	308.32
684.43	307.45
684.77	306.57
685.10	305.71
685.44	304.96
685.78	304.26
686.12	303.60
686.45	302.79
686.79	301.97
687.13	301.43
687.46	300.79
687.80	300.17
688.14	299.32
688.48	298.59
688.81	297.82
689.15	297.18
689.49	296.42
689.82	295.71
690.16	294.80
690.50	294.09
690.83	293.37
691.17	292.51
691.51	291.86
691.84	291.25
692.18	290.59
692.52	289.91
692.85	289.25
693.19	288.75
693.52	288.15
693.86	287.54
694.20	286.85
694.53	286.24
694.87	285.61
695.21	284.99
695.54	284.30
695.88	283.62
696.21	282.86
696.55	282.31
696.88	281.63
697.22	281.04
697.56	280.51
697.89	279.92
698.23	279.49
698.56	278.89
698.90	278.44
699.23	277.88
699.57	277.41
699.90	276.82
700.24	276.12
700.58	275.70
700.91	275.26
701.25	275.13
701.58	274.98
701.92	274.67
702.25	274.26
702.59	273.80
702.92	273.40
703.26	273.13
703.59	272.64
703.93	272.58
704.26	272.21
704.60	271.85
704.93	271.39
705.26	270.95
705.60	270.59
705.93	270.02
706.27	269.84
706.60	269.53
706.94	269.35
707.27	268.97
707.61	268.61
707.94	268.29
708.27	267.50
708.61	266.69
708.94	266.12
709.28	265.75
709.61	265.37
709.94	265.05
710.28	264.66
710.61	264.32
710.95	263.58
711.28	263.51
711.61	263.11
711.95	262.93
712.28	262.57
712.61	262.25
712.95	262.21
713.28	261.98
713.61	261.55
713.95	261.03
714.28	260.72
714.61	260.34
714.95	259.90
715.28	259.56
715.61	259.29
715.95	259.01
716.28	258.64
716.61	258.44
716.95	258.10
717.28	257.74
717.61	257.44
717.94	257.17
718.28	256.50
718.61	256.21
718.94	255.84
719.27	255.52
719.61	255.29
719.94	254.96
720.27	254.48
720.60	254.29
720.94	254.12
721.27	253.87
721.60	253.68
721.93	253.38
722.27	253.31
722.60	253.15
722.93	252.85
723.26	252.71
723.59	252.36
723.93	252.26
724.26	252.06
724.59	251.84
724.92	251.61
725.25	251.60
725.59	251.43
725.92	251.26
726.25	251.06
726.58	250.84
726.91	250.57
727.24	250.44
727.57	250.21
727.91	249.91
728.24	249.85
728.57	249.56
728.90	249.47
729.23	249.13
729.56	249.16
729.89	249.02
730.22	248.80
730.55	248.64
730.89	248.40
731.22	248.22
731.55	247.98
731.88	247.80
732.21	247.53
732.54	247.27
732.87	247.10
733.20	246.96
733.53	246.75
733.86	246.59
734.19	246.31
734.52	246.13
734.85	246.26
735.18	246.00
735.51	245.97
735.84	245.85
736.17	245.86
736.50	245.45
736.83	245.86
737.16	245.72
737.49	245.67
737.82	245.50
738.15	245.50
738.48	245.38
738.81	245.21
739.14	245.06
739.47	244.89
739.80	244.77
740.13	244.67
740.46	244.51
740.79	244.30
741.12	244.21
741.45	244.01
741.78	243.58
742.11	243.54
742.44	243.32
742.77	243.20
743.10	242.88
743.43	242.66
743.75	242.03
744.08	242.48
744.41	242.19
744.74	242.05
745.07	241.71
745.40	241.67
745.73	241.73
746.06	241.60
746.39	241.59
746.71	241.32
747.04	241.12
747.37	240.96
747.70	240.98
748.03	240.80
748.36	240.80
748.68	240.64
749.01	240.39
749.34	240.30
749.67	240.20
750.00	240.17
750.33	240.47
750.65	240.34
750.98	239.61
751.31	239.60
751.64	239.42
751.97	239.57
752.29	239.38
752.62	239.09
752.95	238.90
753.28	238.67
753.60	238.59
753.93	238.65
754.26	238.68
754.59	238.31
754.91	238.17
755.24	237.98
755.57	237.97
755.90	237.84
756.22	237.60
756.55	237.44
756.88	237.27
757.20	236.78
757.53	236.52
757.86	236.47
758.19	236.33
758.51	236.28
758.84	235.96
759.17	235.90
759.49	235.80
759.82	235.97
760.15	235.92
760.47	235.79
760.80	235.54
761.13	235.40
761.45	235.39
761.78	235.34
762.11	235.22
762.43	235.10
762.76	234.98
763.08	235.02
763.41	234.95
763.74	234.88
764.06	234.83
764.39	234.81
764.71	234.67
765.04	234.58
765.37	234.50
765.69	234.31
766.02	234.20
766.34	234.13
766.67	233.84
767.00	233.84
767.32	234.09
767.65	234.28
767.97	234.18
768.30	234.09
768.62	234.04
768.95	233.92
769.27	233.83
769.60	233.87
769.92	233.75
770.25	233.56
770.57	233.44
770.90	233.40
771.22	233.31
771.55	233.29
771.87	233.26
772.20	233.16
772.52	233.57
772.85	234.10
773.17	234.06
773.50	234.06
773.82	234.01
774.15	233.70
774.47	233.32
774.80	233.30
775.12	233.32
775.45	233.26
775.77	233.33
776.09	233.33
776.42	233.29
776.74	233.37
777.07	233.28
777.39	233.31
777.72	233.17
778.04	233.22
778.36	233.05
778.69	232.97
779.01	232.91
779.33	232.45
779.66	231.82
779.98	231.70
780.31	231.68
780.63	231.76
780.95	231.75
781.28	231.79
781.60	231.67
781.92	231.52
782.25	231.46
782.57	231.40
782.89	231.26
783.22	231.11
783.54	230.95
783.86	231.07
784.19	230.95
784.51	231.03
784.83	230.92
785.16	230.96
785.48	230.96
785.80	230.97
786.12	230.99
786.45	231.02
786.77	231.10
787.09	230.96
787.42	230.73
787.74	230.77
788.06	230.73
788.38	230.73
788.71	230.65
789.03	230.63
789.35	230.62
789.67	230.60
789.99	230.59
790.32	230.54
790.64	230.49
790.96	230.86
791.28	230.71
791.61	230.60
791.93	230.56
792.25	230.47
792.57	230.77
792.89	230.63
793.21	230.57
793.54	230.45
793.86	230.47
794.18	230.53
794.50	230.35
794.82	230.27
795.14	230.22
795.47	230.35
795.79	230.29
796.11	230.19
796.43	230.19
796.75	230.24
797.07	230.20
797.39	230.19
797.71	229.84
798.04	229.92
798.36	229.96
798.68	229.88
799.00	229.93
799.32	229.66
799.64	229.76
799.96	229.74
800.28	229.79
800.60	229.69
800.92	229.66
801.24	229.66
801.56	229.71
801.89	229.71
802.21	229.70
802.53	229.65
802.85	229.70
803.17	229.86
803.49	229.72
803.81	229.69
804.13	229.58
804.45	229.47
804.77	229.48
805.09	229.43
805.41	229.40
805.73	229.31
806.05	229.22
806.37	229.20
806.69	229.16
807.01	229.12
807.33	229.14
807.65	228.99
807.97	229.17
808.28	229.12
808.60	229.05
808.92	228.96
809.24	229.22
809.56	229.12
809.88	228.86
810.20	228.92
810.52	228.97
810.84	228.92
811.16	228.79
811.48	228.71
811.80	228.96
812.12	228.96
812.43	229.05
812.75	229.12
813.07	229.06
813.39	229.15
813.71	229.07
814.03	229.06
814.35	229.05
814.67	228.84
814.98	228.74
815.30	228.74
815.62	228.65
815.94	228.37
816.26	228.59
816.58	228.63
816.89	228.58
817.21	228.46
817.53	228.50
817.85	228.60
818.17	228.55
818.48	228.31
818.80	228.41
819.12	228.26
819.44	228.09
819.76	228.08
820.07	228.03
820.39	228.03
820.71	228.06
821.03	228.07
821.34	228.16
821.66	228.26
821.98	228.25
822.30	228.31
822.61	228.57
822.93	228.30
823.25	228.30
823.57	228.33
823.88	228.46
824.20	228.45
824.52	228.58
824.83	228.54
825.15	228.47
825.47	228.37
825.79	228.43
826.10	228.43
826.42	228.33
826.74	228.30
827.05	228.27
827.37	228.30
827.69	228.33
828.00	228.25
828.32	228.21
828.64	228.17
828.95	228.36
829.27	228.16
829.58	228.17
829.90	228.19
830.22	228.17
830.53	228.01
830.85	227.96
831.17	227.73
831.48	227.70
831.80	227.67
832.11	227.62
832.43	227.53
832.75	227.55
833.06	227.86
833.38	227.74
833.69	227.71
834.01	227.62
834.32	227.52
834.64	227.37
834.96	227.40
835.27	227.43
835.59	227.29
835.90	227.26
836.22	227.19
836.53	227.10
836.85	227.03
837.16	227.50
837.48	227.47
837.79	227.63
838.11	227.70
838.42	227.68
838.74	227.76
839.05	227.78
839.37	227.74
839.68	227.39
840.00	227.32
840.31	227.43
840.63	227.40
840.94	227.31
841.26	227.37
841.57	227.27
841.88	227.26
842.20	227.15
842.51	227.01
842.83	227.07
843.14	227.45
843.46	227.43
843.77	227.16
844.08	227.11
844.40	226.96
844.71	226.89
845.03	226.93
845.34	226.87
845.65	226.81
845.97	226.81
846.28	226.88
846.60	226.96
846.91	226.89
847.22	226.86
847.54	226.95
847.85	227.00
848.16	226.98
848.48	226.90
848.79	227.13
849.10	227.22
849.42	227.26
849.73	226.79
850.04	226.86
850.36	226.67
850.67	226.79
850.98	226.85
851.30	226.97
851.61	226.94
851.92	226.97
852.23	227.11
852.55	227.19
852.86	227.20
853.17	227.29
853.49	227.29
853.80	227.45
854.11	227.50
854.42	227.57
854.74	227.57
855.05	227.63
855.36	227.32
855.67	227.33
855.99	227.30
856.30	227.92
856.61	227.89
856.92	227.99
857.23	228.05
857.55	227.99
857.86	227.90
858.17	227.98
858.48	227.92
858.79	227.84
859.11	227.87
859.42	227.82
859.73	227.78
860.04	227.80
860.35	227.67
860.66	227.61
860.98	227.62
861.29	227.68
861.60	227.64
861.91	227.84
862.22	227.78
862.53	227.70
862.84	227.13
863.16	227.22
863.47	227.07
863.78	227.05
864.09	227.12
864.40	227.20
864.71	227.21
865.02	227.29
865.33	227.35
865.64	227.21
865.95	227.26
866.27	227.49
866.58	227.48
866.89	227.54
867.20	227.50
867.51	227.35
867.82	227.34
868.13	227.50
868.44	227.39
868.75	227.51
869.06	227.46
869.37	227.54
869.68	227.45
869.99	227.58
870.30	227.64
870.61	227.58
870.92	227.50
871.23	227.47
871.54	227.50
871.85	227.56
872.16	227.61
872.47	227.54
872.78	227.24
873.09	227.31
873.40	227.21
873.71	227.30
874.02	227.40
874.33	227.37
874.64	227.22
874.95	227.27
875.26	227.12
875.56	227.25
875.87	227.21
876.18	227.18
876.49	227.66
876.80	227.49
877.11	227.46
877.42	227.42
877.73	227.42
878.04	227.37
878.35	227.35
878.66	227.43
878.96	227.42
879.27	227.47
879.58	227.42
879.89	227.37
880.20	227.43
880.51	227.36
880.82	227.32
881.12	227.38
881.43	227.37
881.74	227.32
882.05	227.31
882.36	227.35
882.67	227.38
882.97	226.81
883.28	226.75
883.59	226.79
883.90	226.91
884.21	226.96
884.51	226.91
884.82	226.85
885.13	226.83
885.44	226.83
885.74	226.80
886.05	226.80
886.36	226.85
886.67	226.67
886.98	226.95
887.28	227.00
887.59	226.99
887.90	226.93
888.20	226.99
888.51	227.05
888.82	226.99
889.13	227.06
889.43	227.45
889.74	227.48
890.05	227.42
890.35	227.34
890.66	227.26
890.97	227.26
891.28	227.20
891.58	227.17
891.89	227.27
892.20	227.25
892.50	227.18
892.81	227.19
893.12	227.20
893.42	226.97
893.73	226.97
894.04	226.95
894.34	227.03
894.65	227.03
894.95	226.94
895.26	226.98
895.57	227.16
895.87	226.80
896.18	226.91
896.48	227.00
896.79	227.01
897.10	227.01
897.40	227.11
897.71	227.19
898.01	227.19
898.32	227.15
898.63	227.13
898.93	227.23
899.24	227.26
899.54	227.29
899.85	227.28
900.15	227.26
900.46	227.25
900.76	227.27
901.07	227.22
901.38	227.21
901.68	227.28
901.99	227.03
902.29	227.08
902.60	227.10
902.90	227.01
903.21	227.00
903.51	227.02
903.82	226.99
904.12	227.00
904.43	227.09
904.73	227.08
905.03	227.15
905.34	227.50
905.64	227.50
905.95	227.52
906.25	227.45
906.56	227.50
906.86	227.58
907.17	227.53
907.47	227.65
907.77	227.67
908.08	227.55
908.38	227.58
908.69	227.56
908.99	227.61
909.30	227.66
909.60	227.67
909.90	227.70
910.21	227.59
910.51	227.49
910.81	227.41
911.12	227.44
911.42	227.37
911.73	226.90
912.03	226.93
912.33	227.01
912.64	227.07
912.94	227.04
913.24	226.92
913.55	226.87
913.85	226.74
914.15	226.79
914.46	226.90
914.76	226.94
915.06	226.90
915.37	226.81
915.67	226.76
915.97	226.75
916.27	226.64
916.58	226.73
916.88	226.71
917.18	226.65
917.49	226.91
917.79	226.95
918.09	227.05
918.39	227.15
918.70	227.08
919.00	227.02
919.30	227.15
919.60	227.10
919.91	226.96
920.21	227.03
920.51	226.87
920.81	226.75
921.12	226.79
921.42	226.73
921.72	226.70
922.02	226.73
922.32	226.78
922.63	226.80
922.93	226.97
923.23	227.00
923.53	226.98
923.83	226.68
924.13	226.69
924.44	226.62
924.74	226.58
925.04	226.65
925.34	226.71
925.64	226.51
925.94	226.57
926.24	226.99
926.55	226.96
926.85	227.09
927.15	227.17
927.45	227.10
927.75	227.19
928.05	227.17
928.35	227.12
928.65	227.20
928.95	227.22
929.26	227.03
929.56	227.16
929.86	227.24
930.16	227.25
930.46	227.22
930.76	227.26
931.06	227.08
931.36	227.02
931.66	227.02
931.96	227.16
932.26	227.16
932.56	226.90
932.86	226.87
933.16	226.85
933.46	226.79
933.76	226.77
934.06	226.88
934.36	227.04
934.66	227.06
934.96	226.97
935.26	227.03
935.56	227.17
935.86	226.99
936.16	226.92
936.46	226.83
936.76	226.84
937.06	226.75
937.36	226.76
937.66	226.78
937.96	226.78
938.26	226.68
938.56	226.65
938.86	226.72
939.16	226.82
939.46	226.76
939.76	226.75
940.06	226.79
940.35	226.65
940.65	226.47
940.95	226.54
941.25	226.45
941.55	226.42
941.85	226.33
942.15	226.50
942.45	226.72
942.75	226.82
943.04	226.83
943.34	226.97
943.64	226.95
943.94	226.88
944.24	226.85
944.54	226.87
944.84	226.88
945.13	226.83
945.43	226.75
945.73	226.85
946.03	226.83
946.33	226.72
946.62	226.68
946.92	226.69
947.22	226.67
947.52	226.72
947.82	226.74
948.11	226.61
948.41	226.45
948.71	226.22
949.01	226.25
949.31	226.21
949.60	226.08
949.90	226.18
950.20	226.17
950.50	226.21
950.79	226.10
951.09	226.17
951.39	226.13
951.69	226.10
951.98	226.15
952.28	226.18
952.58	226.16
952.87	226.19
953.17	226.27
953.47	226.21
953.76	226.20
954.06	226.13
954.36	226.16
954.66	226.15
954.95	226.28
955.25	226.24
955.55	226.31
955.84	226.29
956.14	226.34
956.44	226.37
956.73	226.23
957.03	226.32
957.32	226.29
957.62	226.29
957.92	226.44
958.21	226.40
958.51	226.93
958.81	227.02
959.10	227.08
959.40	227.12
959.69	227.19
959.99	227.25
960.29	227.20
960.58	227.16
960.88	227.40
961.17	227.36
961.47	227.45
961.76	227.36
962.06	227.49
962.36	227.38
962.65	227.45
962.95	227.48
963.24	227.43
963.54	227.43
963.83	227.47
964.13	227.33
964.42	227.24
964.72	226.79
965.01	226.84
965.31	226.77
965.60	226.66
965.90	226.93
966.19	226.84
966.49	226.93
966.78	226.92
967.08	226.79
967.37	226.76
967.67	226.66
967.96	226.80
968.26	226.75
968.55	226.84
968.85	226.80
969.14	226.85
969.43	226.88
969.73	226.85
970.02	226.87
970.32	226.90
970.61	226.88
970.91	226.77
971.20	226.68
971.49	226.67
971.79	226.72
972.08	226.33
972.38	226.38
972.67	226.34
972.96	226.42
973.26	226.34
973.55	226.47
973.85	226.46
974.14	226.36
974.43	226.41
974.73	226.36
975.02	226.32
975.31	226.33
975.61	226.33
975.90	226.26
976.19	226.17
976.49	226.21
976.78	226.21
977.07	226.28
977.37	226.22
977.66	226.25
977.95	226.16
978.24	226.25
978.54	226.30
978.83	226.23
979.12	226.24
979.42	226.27
979.71	226.23
980.00	226.20
980.29	226.26
980.59	226.15
980.88	226.26
981.17	226.19
981.46	226.15
981.76	226.10
982.05	226.26
982.34	226.36
982.63	226.35
982.93	226.36
983.22	226.42
983.51	226.47
983.80	226.52
984.09	226.62
984.39	226.61
984.68	226.57
984.97	226.65
985.26	226.58
985.55	226.60
985.85	226.44
986.14	226.51
986.43	226.56
986.72	226.53
987.01	226.39
987.30	226.45
987.59	226.46
987.89	226.51
988.18	226.35
988.47	226.25
988.76	226.23
989.05	226.16
989.34	226.07
989.63	226.20
989.92	226.07
990.22	225.97
990.51	226.00
990.80	225.95
991.09	225.99
991.38	226.02
991.67	225.97
991.96	225.90
992.25	225.90
992.54	225.79
992.83	225.81
993.12	225.74
993.41	225.74
993.70	225.88
993.99	225.97
994.28	226.05
994.58	226.11
994.87	226.03
995.16	226.08
995.45	226.02
995.74	225.93
996.03	226.10
996.32	226.20
996.61	226.22
996.90	226.23
997.19	226.18
997.48	226.14
997.77	226.08
998.06	226.19
998.34	226.12
998.63	226.05
998.92	226.08
999.21	226.19
999.50	226.25
999.79	226.05
1000.08	225.99
1000.37	225.99
1000.66	225.95
1000.95	226.06
1001.24	226.05
1001.53	226.17
1001.82	226.13
1002.11	225.90
1002.40	226.02
1002.68	226.20
1002.97	226.50
1003.26	226.49
1003.55	226.46
1003.84	226.47
1004.13	226.63
1004.42	226.60
1004.71	226.71
1004.99	226.54
1005.28	226.67
1005.57	226.61
1005.86	226.61
1006.15	226.56
1006.44	226.42
1006.72	226.56
1007.01	226.48
1007.30	226.45
1007.59	226.42
1007.88	226.43
1008.17	226.55
1008.45	226.39
1008.74	226.15
1009.03	225.97
1009.32	225.97
1009.60	225.98
1009.89	226.04
1010.18	225.78
1010.47	225.79
1010.76	225.75
1011.04	225.89
1011.33	225.90
1011.62	225.93
1011.91	225.99
1012.19	226.09
1012.48	226.14
1012.77	226.10
1013.05	226.45
1013.34	226.46
1013.63	226.43
1013.92	226.47
1014.20	226.46
1014.49	226.50
1014.78	226.56
1015.06	226.41
1015.35	226.43
1015.64	226.49
1015.92	226.60
1016.21	226.67
1016.50	226.65
1016.78	226.74
1017.07	226.78
1017.36	226.64
1017.64	226.61
1017.93	226.68
1018.22	226.58
1018.50	226.63
1018.79	226.56
1019.08	226.19
1019.36	226.34
1019.65	226.25
1019.93	226.34
1020.22	226.43
1020.51	226.68
1020.79	226.63
1021.08	225.25
1021.36	225.80
1021.65	225.85
1021.94	224.85
1022.22	227.95
1022.51	224.80
1022.79	228.40
1023.08	227.55
1023.36	233.10
1023.65	225.50
>>>>>End Processed Spectral Data<<<<<
