SpectraSuite Data File
++++++++++++++++++++++++++++++++++++
Date: Wed Sep 04 17:42:18 EDT 2013
User: lab3
Dark Spectrum Present: Yes
Reference Spectrum Present: No
Number of Sampled Component Spectra: 1
Spectrometers: USB2E7196
Integration Time (usec): 170000 (USB2E7196)
Spectra Averaged: 20 (USB2E7196)
Boxcar Smoothing: 10 (USB2E7196)
Correct for Electrical Dark: No (USB2E7196)
Strobe/Lamp Enabled: No (USB2E7196)
Correct for Detector Non-linearity: No (USB2E7196)
Correct for Stray Light: No (USB2E7196)
Number of Pixels in Processed Spectrum: 2048
>>>>>Begin Processed Spectral Data<<<<<
339.09	0.00
339.48	211.95
339.86	213.60
340.24	215.00
340.63	216.25
341.01	226.95
341.39	219.55
341.78	221.95
342.16	224.20
342.54	222.60
342.93	211.89
343.31	222.54
343.69	223.15
344.07	223.64
344.46	224.19
344.84	224.65
345.22	224.56
345.60	224.81
345.99	224.96
346.37	225.05
346.75	225.24
347.13	225.30
347.52	225.30
347.90	225.51
348.28	225.55
348.66	225.70
349.05	225.56
349.43	225.65
349.81	225.72
350.19	225.72
350.57	225.70
350.96	225.88
351.34	226.01
351.72	226.05
352.10	226.18
352.48	226.11
352.87	226.18
353.25	226.25
353.63	226.32
354.01	226.37
354.39	226.40
354.77	226.38
355.15	226.55
355.54	226.62
355.92	226.54
356.30	226.60
356.68	226.95
357.06	227.07
357.44	227.09
357.82	227.06
358.20	227.57
358.58	227.56
358.97	227.60
359.35	227.81
359.73	227.97
360.11	227.97
360.49	228.08
360.87	228.08
361.25	228.13
361.63	228.34
362.01	228.44
362.39	228.44
362.77	228.53
363.15	228.58
363.53	228.54
363.91	228.56
364.29	228.60
364.67	228.21
365.05	228.15
365.43	228.15
365.81	228.30
366.19	228.15
366.57	228.48
366.95	228.49
367.33	228.30
367.71	228.30
368.09	228.41
368.47	228.44
368.85	228.41
369.23	228.52
369.61	228.32
369.99	228.44
370.37	228.51
370.75	228.76
371.13	228.64
371.51	228.64
371.89	228.62
372.27	228.63
372.65	228.66
373.03	228.67
373.41	228.64
373.78	228.58
374.16	228.32
374.54	228.10
374.92	227.99
375.30	227.98
375.68	227.89
376.06	227.88
376.44	227.75
376.82	227.70
377.19	227.60
377.57	227.55
377.95	227.32
378.33	227.28
378.71	226.91
379.09	226.97
379.47	226.93
379.84	226.87
380.22	226.77
380.60	226.60
380.98	226.50
381.36	226.41
381.73	226.32
382.11	226.30
382.49	226.30
382.87	226.16
383.25	226.08
383.62	226.54
384.00	226.32
384.38	226.33
384.76	226.40
385.13	226.55
385.51	226.49
385.89	226.41
386.27	226.39
386.64	226.42
387.02	226.35
387.40	226.26
387.78	226.30
388.15	226.23
388.53	226.19
388.91	226.25
389.29	226.20
389.66	226.21
390.04	226.15
390.42	226.17
390.79	226.24
391.17	226.22
391.55	225.69
391.92	225.78
392.30	225.82
392.68	225.74
393.05	225.66
393.43	225.79
393.81	225.84
394.18	225.68
394.56	225.71
394.94	225.80
395.31	225.83
395.69	225.97
396.06	226.05
396.44	226.11
396.82	226.09
397.19	226.40
397.57	226.42
397.95	226.59
398.32	226.49
398.70	226.57
399.07	226.69
399.45	226.71
399.82	226.71
400.20	226.66
400.58	226.78
400.95	226.66
401.33	226.72
401.70	227.12
402.08	227.33
402.45	227.39
402.83	227.56
403.20	227.69
403.58	227.66
403.95	227.93
404.33	228.14
404.71	228.25
405.08	228.67
405.46	228.88
405.83	229.12
406.21	229.32
406.58	229.53
406.96	229.77
407.33	230.09
407.70	230.41
408.08	231.16
408.45	231.48
408.83	231.95
409.20	232.27
409.58	232.39
409.95	232.87
410.33	233.28
410.70	233.52
411.08	234.04
411.45	234.61
411.82	235.10
412.20	235.71
412.57	236.63
412.95	236.78
413.32	237.49
413.69	238.10
414.07	238.90
414.44	239.71
414.82	240.51
415.19	241.45
415.56	242.42
415.94	243.14
416.31	244.35
416.68	245.50
417.06	246.87
417.43	248.19
417.81	249.56
418.18	251.10
418.55	252.74
418.93	254.37
419.30	256.09
419.67	257.94
420.04	259.92
420.42	261.73
420.79	264.42
421.16	266.70
421.54	269.28
421.91	271.70
422.28	274.24
422.66	277.00
423.03	279.95
423.40	282.69
423.77	285.64
424.15	288.51
424.52	291.70
424.89	295.11
425.26	298.35
425.64	301.48
426.01	304.91
426.38	308.58
426.75	312.43
427.13	316.20
427.50	320.09
427.87	324.10
428.24	328.17
428.61	331.82
428.99	336.30
429.36	340.81
429.73	345.48
430.10	350.06
430.47	354.88
430.85	359.40
431.22	364.63
431.59	370.36
431.96	375.60
432.33	381.36
432.70	386.91
433.08	393.49
433.45	399.68
433.82	405.99
434.19	412.80
434.56	419.46
434.93	425.81
435.30	432.27
435.68	439.39
436.05	446.43
436.42	453.26
436.79	459.49
437.16	466.39
437.53	473.63
437.90	480.93
438.27	488.07
438.64	495.60
439.01	502.36
439.38	508.25
439.75	514.23
440.13	520.98
440.50	527.12
440.87	532.20
441.24	537.61
441.61	543.32
441.98	547.56
442.35	552.36
442.72	557.43
443.09	562.54
443.46	565.45
443.83	567.40
444.20	569.12
444.57	571.50
444.94	572.45
445.31	573.47
445.68	574.83
446.05	574.97
446.42	573.88
446.79	572.89
447.16	571.57
447.53	570.61
447.90	567.65
448.27	564.91
448.64	560.96
449.01	557.85
449.37	552.85
449.74	547.89
450.11	542.42
450.48	536.12
450.85	529.32
451.22	523.69
451.59	518.38
451.96	513.28
452.33	506.56
452.70	500.59
453.07	493.40
453.43	485.86
453.80	478.92
454.17	472.35
454.54	466.05
454.91	459.34
455.28	452.73
455.65	446.43
456.02	440.85
456.38	435.65
456.75	429.34
457.12	423.87
457.49	418.69
457.86	413.38
458.23	409.15
458.59	404.45
458.96	399.63
459.33	395.34
459.70	391.15
460.07	387.84
460.43	383.87
460.80	380.42
461.17	377.16
461.54	373.89
461.91	370.72
462.27	367.50
462.64	364.85
463.01	361.89
463.38	359.24
463.74	355.65
464.11	353.13
464.48	350.90
464.85	348.58
465.21	346.79
465.58	344.83
465.95	342.40
466.32	340.51
466.68	338.71
467.05	336.85
467.42	334.95
467.78	333.00
468.15	331.27
468.52	329.91
468.88	328.07
469.25	326.49
469.62	325.34
469.98	323.94
470.35	322.65
470.72	321.54
471.08	320.11
471.45	319.19
471.82	318.21
472.18	316.99
472.55	316.25
472.92	315.07
473.28	314.22
473.65	313.34
474.02	312.56
474.38	311.88
474.75	311.29
475.11	310.52
475.48	310.04
475.85	309.55
476.21	308.98
476.58	308.72
476.94	308.36
477.31	307.96
477.67	307.63
478.04	307.41
478.41	307.17
478.77	307.49
479.14	307.27
479.50	307.22
479.87	307.37
480.23	307.40
480.60	307.55
480.96	307.65
481.33	308.06
481.69	308.21
482.06	308.49
482.42	308.90
482.79	309.36
483.15	309.82
483.52	310.48
483.88	310.98
484.25	311.49
484.61	312.16
484.98	312.87
485.34	313.89
485.71	314.78
486.07	315.76
486.44	316.40
486.80	317.40
487.17	318.44
487.53	319.70
487.90	321.03
488.26	322.70
488.62	324.22
488.99	325.66
489.35	327.34
489.72	328.98
490.08	330.65
490.44	332.56
490.81	334.68
491.17	336.64
491.54	338.95
491.90	341.35
492.26	343.76
492.63	346.33
492.99	348.90
493.36	351.79
493.72	354.84
494.08	357.87
494.45	361.31
494.81	364.95
495.17	368.39
495.54	372.18
495.90	375.88
496.26	379.97
496.63	384.15
496.99	388.43
497.35	393.00
497.72	397.85
498.08	402.77
498.44	407.81
498.80	413.28
499.17	418.70
499.53	424.16
499.89	430.19
500.26	436.24
500.62	442.45
500.98	448.98
501.34	455.60
501.71	462.42
502.07	469.45
502.43	476.53
502.79	483.97
503.16	491.65
503.52	499.62
503.88	507.70
504.24	516.16
504.60	525.09
504.97	534.13
505.33	543.20
505.69	553.01
506.05	562.48
506.41	572.15
506.78	582.20
507.14	592.68
507.50	603.21
507.86	614.16
508.22	625.40
508.59	636.43
508.95	648.13
509.31	660.39
509.67	672.47
510.03	684.61
510.39	697.17
510.75	710.05
511.12	723.05
511.48	736.19
511.84	749.59
512.20	762.98
512.56	776.67
512.92	790.72
513.28	804.75
513.64	819.30
514.00	833.85
514.37	848.73
514.73	863.80
515.09	878.90
515.45	893.92
515.81	908.87
516.17	924.41
516.53	939.54
516.89	954.74
517.25	970.57
517.61	987.17
517.97	1003.74
518.33	1019.67
518.69	1035.79
519.05	1052.26
519.41	1068.73
519.77	1085.46
520.13	1101.83
520.49	1118.12
520.85	1136.04
521.21	1152.68
521.57	1169.46
521.93	1185.57
522.29	1202.28
522.65	1218.53
523.01	1234.90
523.37	1250.91
523.73	1267.27
524.09	1283.06
524.45	1298.78
524.81	1314.51
525.17	1330.11
525.53	1345.69
525.89	1361.51
526.25	1377.31
526.61	1392.46
526.97	1408.32
527.33	1424.16
527.68	1440.45
528.04	1456.51
528.40	1470.43
528.76	1485.90
529.12	1500.81
529.48	1516.55
529.84	1531.18
530.20	1546.33
530.56	1561.31
530.91	1576.83
531.27	1591.46
531.63	1606.29
531.99	1621.19
532.35	1635.53
532.71	1649.82
533.07	1664.37
533.42	1678.55
533.78	1692.60
534.14	1706.76
534.50	1719.76
534.86	1732.83
535.21	1744.87
535.57	1757.51
535.93	1769.37
536.29	1781.37
536.65	1793.67
537.00	1805.35
537.36	1817.00
537.72	1827.81
538.08	1839.13
538.44	1849.78
538.79	1860.34
539.15	1871.19
539.51	1881.35
539.87	1890.95
540.22	1899.72
540.58	1908.63
540.94	1916.35
541.29	1923.40
541.65	1930.45
542.01	1937.49
542.37	1943.15
542.72	1949.23
543.08	1954.75
543.44	1961.38
543.79	1966.50
544.15	1971.73
544.51	1976.58
544.87	1981.45
545.22	1985.59
545.58	1988.73
545.94	1991.30
546.29	1993.59
546.65	1995.75
547.01	1997.53
547.36	1999.08
547.72	2000.46
548.07	2000.64
548.43	2001.99
548.79	2003.32
549.14	2004.19
549.50	2004.62
549.86	2005.13
550.21	2005.44
550.57	2005.45
550.92	2003.89
551.28	2002.34
551.64	2001.29
551.99	2000.15
552.35	1998.39
552.70	1997.62
553.06	1996.78
553.41	1995.59
553.77	1994.86
554.13	1993.51
554.48	1992.18
554.84	1991.13
555.19	1989.75
555.55	1988.77
555.90	1986.21
556.26	1983.17
556.61	1979.64
556.97	1976.21
557.32	1973.52
557.68	1970.47
558.03	1967.32
558.39	1964.38
558.74	1961.95
559.10	1957.66
559.45	1952.95
559.81	1948.06
560.16	1942.14
560.52	1936.49
560.87	1931.51
561.23	1925.39
561.58	1919.21
561.94	1912.49
562.29	1905.20
562.64	1898.33
563.00	1890.74
563.35	1884.19
563.71	1877.84
564.06	1871.95
564.42	1865.65
564.77	1859.29
565.12	1852.49
565.48	1845.61
565.83	1838.39
566.19	1831.06
566.54	1824.20
566.89	1817.07
567.25	1810.25
567.60	1803.99
567.96	1797.62
568.31	1790.63
568.66	1783.35
569.02	1775.76
569.37	1768.55
569.72	1762.11
570.08	1754.39
570.43	1746.47
570.78	1738.94
571.14	1731.36
571.49	1722.91
571.84	1714.90
572.20	1706.08
572.55	1697.71
572.90	1688.92
573.26	1680.52
573.61	1671.82
573.96	1662.73
574.31	1653.53
574.67	1644.10
575.02	1634.22
575.37	1624.01
575.72	1613.89
576.08	1604.74
576.43	1595.20
576.78	1585.13
577.13	1574.52
577.49	1564.84
577.84	1555.54
578.19	1546.25
578.54	1536.48
578.90	1527.48
579.25	1518.25
579.60	1508.97
579.95	1499.25
580.30	1489.68
580.66	1480.06
581.01	1469.87
581.36	1459.80
581.71	1450.56
582.06	1441.25
582.42	1432.24
582.77	1423.35
583.12	1414.66
583.47	1405.45
583.82	1396.69
584.17	1388.17
584.53	1379.92
584.88	1370.68
585.23	1361.39
585.58	1351.32
585.93	1341.88
586.28	1332.41
586.63	1322.53
586.98	1312.49
587.34	1303.06
587.69	1293.29
588.04	1284.16
588.39	1275.68
588.74	1267.06
589.09	1258.55
589.44	1249.51
589.79	1240.72
590.14	1231.86
590.49	1223.06
590.84	1214.57
591.19	1206.20
591.54	1197.65
591.89	1188.92
592.25	1181.89
592.60	1173.76
592.95	1165.69
593.30	1157.41
593.65	1149.01
594.00	1140.60
594.35	1134.29
594.70	1126.32
595.05	1118.45
595.40	1110.17
595.75	1101.79
596.10	1093.84
596.45	1085.64
596.80	1078.08
597.15	1070.31
597.50	1062.34
597.85	1054.72
598.19	1046.55
598.54	1038.51
598.89	1030.70
599.24	1023.41
599.59	1015.21
599.94	1008.00
600.29	1001.02
600.64	994.05
600.99	986.77
601.34	980.40
601.69	972.10
602.04	965.30
602.39	958.63
602.74	952.41
603.08	946.17
603.43	939.87
603.78	933.30
604.13	926.72
604.48	920.19
604.83	913.63
605.18	906.82
605.53	900.59
605.87	894.40
606.22	888.76
606.57	882.47
606.92	876.12
607.27	870.09
607.62	864.22
607.96	858.45
608.31	853.06
608.66	847.38
609.01	841.69
609.36	835.95
609.70	830.22
610.05	824.50
610.40	818.74
610.75	812.95
611.10	807.42
611.44	801.72
611.79	796.07
612.14	790.83
612.49	785.54
612.83	780.34
613.18	774.93
613.53	769.58
613.88	764.11
614.22	758.93
614.57	753.45
614.92	747.95
615.27	742.75
615.61	737.45
615.96	732.18
616.31	727.25
616.65	722.32
617.00	717.35
617.35	712.36
617.70	707.49
618.04	702.64
618.39	697.95
618.74	693.63
619.08	688.93
619.43	684.25
619.78	679.45
620.12	674.68
620.47	670.13
620.82	665.20
621.16	660.68
621.51	656.50
621.85	652.21
622.20	647.86
622.55	643.30
622.89	639.00
623.24	634.72
623.59	630.27
623.93	626.04
624.28	622.07
624.62	618.39
624.97	614.50
625.32	610.60
625.66	606.45
626.01	602.29
626.35	598.68
626.70	594.73
627.04	591.17
627.39	587.35
627.73	583.68
628.08	580.28
628.43	576.55
628.77	572.63
629.12	569.01
629.46	565.75
629.81	562.57
630.15	559.14
630.50	555.63
630.84	552.33
631.19	549.01
631.53	545.79
631.88	541.88
632.22	538.54
632.57	535.58
632.91	532.56
633.26	529.50
633.60	526.31
633.95	523.26
634.29	519.98
634.64	516.95
634.98	513.78
635.32	510.99
635.67	508.29
636.01	505.54
636.36	502.67
636.70	499.98
637.05	497.12
637.39	494.34
637.73	491.63
638.08	488.96
638.42	486.18
638.77	483.24
639.11	480.43
639.45	477.57
639.80	474.39
640.14	471.52
640.49	468.64
640.83	465.93
641.17	463.40
641.52	460.97
641.86	458.61
642.20	456.50
642.55	453.79
642.89	451.30
643.23	448.76
643.58	446.66
643.92	444.00
644.26	441.59
644.61	439.37
644.95	437.12
645.29	434.81
645.64	432.57
645.98	430.38
646.32	428.44
646.66	426.21
647.01	424.25
647.35	422.35
647.69	420.44
648.04	418.57
648.38	416.66
648.72	414.80
649.06	412.64
649.41	410.43
649.75	408.34
650.09	406.39
650.43	404.59
650.78	402.54
651.12	400.63
651.46	398.78
651.80	396.87
652.14	394.99
652.49	393.28
652.83	391.50
653.17	389.69
653.51	387.77
653.85	386.23
654.20	384.55
654.54	382.84
654.88	381.10
655.22	379.53
655.56	377.85
655.90	376.16
656.25	374.66
656.59	373.04
656.93	371.67
657.27	370.26
657.61	368.56
657.95	366.95
658.29	365.44
658.64	364.02
658.98	362.51
659.32	360.94
659.66	359.46
660.00	358.07
660.34	356.74
660.68	355.41
661.02	353.99
661.36	352.60
661.70	351.20
662.05	349.93
662.39	348.68
662.73	347.35
663.07	346.19
663.41	344.89
663.75	343.67
664.09	342.40
664.43	341.05
664.77	339.94
665.11	338.76
665.45	337.71
665.79	336.62
666.13	335.44
666.47	334.27
666.81	333.07
667.15	331.82
667.49	330.79
667.83	329.82
668.17	328.69
668.51	327.61
668.85	326.69
669.19	325.86
669.53	324.56
669.87	323.52
670.21	322.46
670.55	321.46
670.89	320.72
671.23	319.67
671.57	318.75
671.91	317.75
672.25	316.76
672.58	315.79
672.92	314.71
673.26	313.80
673.60	312.99
673.94	312.17
674.28	311.39
674.62	310.57
674.96	309.61
675.30	308.82
675.64	307.98
675.97	307.08
676.31	306.10
676.65	305.29
676.99	304.66
677.33	303.74
677.67	303.00
678.01	302.04
678.34	301.25
678.68	300.54
679.02	299.83
679.36	299.05
679.70	298.30
680.04	297.60
680.37	296.94
680.71	296.16
681.05	295.44
681.39	294.71
681.73	293.95
682.06	293.29
682.40	292.67
682.74	292.16
683.08	291.72
683.42	291.00
683.75	290.50
684.09	289.70
684.43	289.10
684.77	288.43
685.10	287.80
685.44	287.20
685.78	286.54
686.12	285.98
686.45	285.43
686.79	284.85
687.13	284.39
687.46	283.86
687.80	283.41
688.14	282.80
688.48	282.30
688.81	281.83
689.15	281.48
689.49	280.95
689.82	280.41
690.16	279.60
690.50	279.22
690.83	278.67
691.17	278.16
691.51	277.70
691.84	277.30
692.18	276.79
692.52	276.41
692.85	275.94
693.19	275.65
693.52	275.24
693.86	274.78
694.20	274.28
694.53	273.88
694.87	273.52
695.21	273.13
695.54	272.79
695.88	272.30
696.21	271.63
696.55	271.24
696.88	270.78
697.22	270.44
697.56	270.06
697.89	269.66
698.23	269.35
698.56	268.96
698.90	268.61
699.23	268.24
699.57	267.90
699.90	267.51
700.24	267.00
700.58	266.66
700.91	266.37
701.25	266.43
701.58	266.35
701.92	266.04
702.25	265.70
702.59	265.30
702.92	265.06
703.26	264.79
703.59	264.39
703.93	264.45
704.26	264.18
704.60	263.85
704.93	263.58
705.26	263.19
705.60	262.94
705.93	262.56
706.27	262.41
706.60	262.11
706.94	262.02
707.27	261.64
707.61	261.42
707.94	261.10
708.27	260.44
708.61	259.77
708.94	259.45
709.28	259.20
709.61	258.82
709.94	258.48
710.28	258.13
710.61	257.82
710.95	257.15
711.28	257.17
711.61	256.78
711.95	256.51
712.28	256.16
712.61	255.89
712.95	255.86
713.28	255.75
713.61	255.48
713.95	255.10
714.28	254.91
714.61	254.50
714.95	254.23
715.28	253.81
715.61	253.56
715.95	253.30
716.28	252.92
716.61	252.85
716.95	252.50
717.28	252.31
717.61	252.08
717.94	251.81
718.28	251.15
718.61	250.97
718.94	250.63
719.27	250.47
719.61	250.25
719.94	249.81
720.27	249.36
720.60	249.07
720.94	248.76
721.27	248.51
721.60	248.39
721.93	248.19
722.27	248.24
722.60	248.09
722.93	247.78
723.26	247.70
723.59	247.39
723.93	247.30
724.26	247.10
724.59	246.85
724.92	246.63
725.25	246.64
725.59	246.35
725.92	246.29
726.25	246.13
726.58	245.94
726.91	245.81
727.24	245.65
727.57	245.49
727.91	245.28
728.24	245.18
728.57	244.95
728.90	244.75
729.23	244.40
729.56	244.44
729.89	244.25
730.22	244.05
730.55	243.84
730.89	243.68
731.22	243.53
731.55	243.40
731.88	243.33
732.21	243.07
732.54	242.90
732.87	242.68
733.20	242.52
733.53	242.33
733.86	242.24
734.19	241.99
734.52	241.96
734.85	242.17
735.18	241.94
735.51	241.99
735.84	241.98
736.17	242.08
736.50	241.74
736.83	242.24
737.16	242.13
737.49	241.99
737.82	241.78
738.15	241.70
738.48	241.57
738.81	241.44
739.14	241.29
739.47	241.25
739.80	241.11
740.13	240.98
740.46	240.82
740.79	240.60
741.12	240.48
741.45	240.23
741.78	239.74
742.11	239.80
742.44	239.53
742.77	239.46
743.10	239.21
743.43	239.06
743.75	238.40
744.08	238.95
744.41	238.87
744.74	238.82
745.07	238.62
745.40	238.59
745.73	238.65
746.06	238.52
746.39	238.44
746.71	238.35
747.04	238.25
747.37	238.11
747.70	238.05
748.03	238.01
748.36	238.00
748.68	238.01
749.01	237.75
749.34	237.73
749.67	237.57
750.00	237.54
750.33	237.76
750.65	237.66
750.98	236.93
751.31	236.87
751.64	236.83
751.97	237.05
752.29	236.96
752.62	236.67
752.95	236.62
753.28	236.50
753.60	236.39
753.93	236.41
754.26	236.43
754.59	236.28
754.91	236.15
755.24	235.99
755.57	235.98
755.90	235.86
756.22	235.66
756.55	235.47
756.88	235.39
757.20	235.02
757.53	234.88
757.86	234.83
758.19	234.78
758.51	234.67
758.84	234.35
759.17	234.22
759.49	234.20
759.82	234.35
760.15	234.22
760.47	234.12
760.80	233.92
761.13	233.90
761.45	233.80
761.78	233.76
762.11	233.66
762.43	233.45
762.76	233.44
763.08	233.44
763.41	233.45
763.74	233.25
764.06	233.27
764.39	233.23
764.71	233.15
765.04	233.00
765.37	232.88
765.69	232.79
766.02	232.72
766.34	232.58
766.67	232.30
767.00	232.37
767.32	232.59
767.65	232.83
767.97	232.67
768.30	232.65
768.62	232.60
768.95	232.54
769.27	232.54
769.60	232.55
769.92	232.50
770.25	232.36
770.57	232.35
770.90	232.23
771.22	232.08
771.55	231.99
771.87	231.97
772.20	231.90
772.52	232.25
772.85	232.83
773.17	232.73
773.50	232.65
773.82	232.54
774.15	232.22
774.47	231.88
774.80	231.82
775.12	231.75
775.45	231.64
775.77	231.52
776.09	231.46
776.42	231.39
776.74	231.39
777.07	231.28
777.39	231.21
777.72	231.11
778.04	231.21
778.36	231.18
778.69	231.13
779.01	231.11
779.33	230.68
779.66	230.06
779.98	230.12
780.31	230.12
780.63	230.29
780.95	230.32
781.28	230.25
781.60	230.23
781.92	230.16
782.25	230.16
782.57	230.20
782.89	230.08
783.22	229.95
783.54	229.80
783.86	229.73
784.19	229.65
784.51	229.74
784.83	229.57
785.16	229.54
785.48	229.41
785.80	229.38
786.12	229.35
786.45	229.23
786.77	229.18
787.09	229.15
787.42	228.92
787.74	228.92
788.06	228.97
788.38	228.84
788.71	228.79
789.03	228.78
789.35	228.76
789.67	228.69
789.99	228.66
790.32	228.60
790.64	228.69
790.96	229.08
791.28	228.85
791.61	228.77
791.93	228.75
792.25	228.86
792.57	229.25
792.89	229.13
793.21	229.17
793.54	229.09
793.86	228.99
794.18	228.95
794.50	228.88
794.82	228.83
795.14	228.86
795.47	228.94
795.79	228.98
796.11	228.99
796.43	229.01
796.75	229.02
797.07	229.08
797.39	229.05
797.71	228.65
798.04	228.76
798.36	228.83
798.68	228.82
799.00	228.82
799.32	228.52
799.64	228.63
799.96	228.62
800.28	228.68
800.60	228.68
800.92	228.73
801.24	228.65
801.56	228.71
801.89	228.70
802.21	228.77
802.53	228.62
802.85	228.64
803.17	228.86
803.49	228.81
803.81	228.76
804.13	228.76
804.45	228.76
804.77	228.74
805.09	228.83
805.41	228.75
805.73	228.65
806.05	228.53
806.37	228.46
806.69	228.44
807.01	228.41
807.33	228.43
807.65	228.27
807.97	228.47
808.28	228.35
808.60	228.40
808.92	228.25
809.24	228.53
809.56	228.46
809.88	228.25
810.20	228.25
810.52	228.35
810.84	228.31
811.16	228.19
811.48	228.18
811.80	228.25
812.12	228.27
812.43	228.31
812.75	228.32
813.07	228.32
813.39	228.28
813.71	228.22
814.03	228.12
814.35	228.17
814.67	227.97
814.98	227.87
815.30	227.74
815.62	227.67
815.94	227.39
816.26	227.63
816.58	227.52
816.89	227.57
817.21	227.41
817.53	227.36
817.85	227.38
818.17	227.31
818.48	227.10
818.80	227.17
819.12	227.10
819.44	226.98
819.76	226.88
820.07	226.87
820.39	226.86
820.71	226.90
821.03	226.87
821.34	226.80
821.66	226.89
821.98	226.97
822.30	226.94
822.61	227.10
822.93	226.80
823.25	226.75
823.57	226.65
823.88	226.72
824.20	226.69
824.52	226.78
824.83	226.74
825.15	226.68
825.47	226.61
825.79	226.64
826.10	226.72
826.42	226.70
826.74	226.73
827.05	226.69
827.37	226.72
827.69	226.72
828.00	226.81
828.32	226.78
828.64	226.68
828.95	226.99
829.27	226.93
829.58	226.90
829.90	227.06
830.22	227.12
830.53	227.04
830.85	226.98
831.17	226.73
831.48	226.76
831.80	226.75
832.11	226.62
832.43	226.55
832.75	226.44
833.06	226.76
833.38	226.65
833.69	226.62
834.01	226.66
834.32	226.58
834.64	226.49
834.96	226.52
835.27	226.52
835.59	226.32
835.90	226.20
836.22	226.28
836.53	226.09
836.85	226.08
837.16	226.53
837.48	226.62
837.79	226.91
838.11	226.94
838.42	226.95
838.74	227.11
839.05	227.05
839.37	227.08
839.68	226.77
840.00	226.76
840.31	226.79
840.63	226.62
840.94	226.63
841.26	226.55
841.57	226.48
841.88	226.53
842.20	226.52
842.51	226.49
842.83	226.34
843.14	226.80
843.46	226.80
843.77	226.57
844.08	226.54
844.40	226.35
844.71	226.34
845.03	226.31
845.34	226.26
845.65	226.35
845.97	226.36
846.28	226.40
846.60	226.49
846.91	226.48
847.22	226.57
847.54	226.67
847.85	226.74
848.16	226.71
848.48	226.65
848.79	226.82
849.10	226.92
849.42	227.02
849.73	226.65
850.04	226.62
850.36	226.40
850.67	226.48
850.98	226.50
851.30	226.51
851.61	226.50
851.92	226.49
852.23	226.66
852.55	226.70
852.86	226.70
853.17	226.67
853.49	226.77
853.80	226.82
854.11	226.83
854.42	226.97
854.74	227.01
855.05	227.00
855.36	226.79
855.67	226.80
855.99	226.72
856.30	227.25
856.61	227.32
856.92	227.36
857.23	227.35
857.55	227.33
857.86	227.29
858.17	227.41
858.48	227.32
858.79	227.12
859.11	227.14
859.42	227.10
859.73	226.97
860.04	226.98
860.35	226.84
860.66	226.70
860.98	226.62
861.29	226.60
861.60	226.50
861.91	226.57
862.22	226.47
862.53	226.50
862.84	225.97
863.16	226.00
863.47	225.85
863.78	225.81
864.09	225.80
864.40	225.81
864.71	225.75
865.02	225.77
865.33	225.72
865.64	225.64
865.95	225.63
866.27	225.94
866.58	225.80
866.89	225.93
867.20	225.86
867.51	225.73
867.82	225.75
868.13	225.97
868.44	225.84
868.75	225.91
869.06	225.90
869.37	225.79
869.68	225.66
869.99	225.80
870.30	225.83
870.61	225.92
870.92	225.82
871.23	225.84
871.54	225.90
871.85	226.02
872.16	226.04
872.47	226.01
872.78	225.72
873.09	225.72
873.40	225.62
873.71	225.77
874.02	225.83
874.33	225.81
874.64	225.74
874.95	225.85
875.26	225.78
875.56	225.77
875.87	225.85
876.18	225.80
876.49	226.28
876.80	226.20
877.11	226.14
877.42	226.16
877.73	226.22
878.04	226.20
878.35	226.23
878.66	226.32
878.96	226.33
879.27	226.40
879.58	226.41
879.89	226.41
880.20	226.52
880.51	226.55
880.82	226.48
881.12	226.47
881.43	226.40
881.74	226.34
882.05	226.37
882.36	226.50
882.67	226.59
882.97	226.09
883.28	226.14
883.59	226.10
883.90	226.20
884.21	226.21
884.51	226.15
884.82	226.07
885.13	225.99
885.44	225.97
885.74	226.02
886.05	226.11
886.36	226.09
886.67	225.87
886.98	226.10
887.28	226.17
887.59	226.15
887.90	226.16
888.20	226.20
888.51	226.28
888.82	226.10
889.13	226.14
889.43	226.49
889.74	226.48
890.05	226.55
890.35	226.49
890.66	226.41
890.97	226.38
891.28	226.35
891.58	226.37
891.89	226.44
892.20	226.38
892.50	226.27
892.81	226.34
893.12	226.40
893.42	226.18
893.73	226.25
894.04	226.36
894.34	226.36
894.65	226.31
894.95	226.29
895.26	226.34
895.57	226.52
895.87	226.11
896.18	226.15
896.48	226.17
896.79	226.15
897.10	226.20
897.40	226.28
897.71	226.32
898.01	226.32
898.32	226.36
898.63	226.34
898.93	226.39
899.24	226.32
899.54	226.30
899.85	226.25
900.15	226.26
900.46	226.19
900.76	226.24
901.07	226.26
901.38	226.23
901.68	226.33
901.99	226.13
902.29	226.17
902.60	226.11
902.90	226.08
903.21	226.12
903.51	226.11
903.82	226.14
904.12	226.16
904.43	226.12
904.73	226.10
905.03	226.13
905.34	226.60
905.64	226.67
905.95	226.66
906.25	226.70
906.56	226.64
906.86	226.65
907.17	226.65
907.47	226.71
907.77	226.69
908.08	226.55
908.38	226.50
908.69	226.52
908.99	226.56
909.30	226.56
909.60	226.51
909.90	226.53
910.21	226.41
910.51	226.36
910.81	226.36
911.12	226.37
911.42	226.36
911.73	225.87
912.03	225.80
912.33	225.85
912.64	225.85
912.94	225.80
913.24	225.70
913.55	225.55
913.85	225.50
914.15	225.54
914.46	225.60
914.76	225.61
915.06	225.63
915.37	225.57
915.67	225.59
915.97	225.60
916.27	225.48
916.58	225.46
916.88	225.47
917.18	225.40
917.49	225.73
917.79	225.70
918.09	225.72
918.39	225.84
918.70	225.81
919.00	225.83
919.30	226.09
919.60	226.08
919.91	226.12
920.21	226.09
920.51	226.03
920.81	226.02
921.12	226.05
921.42	226.01
921.72	226.13
922.02	226.07
922.32	226.20
922.63	226.27
922.93	226.51
923.23	226.48
923.53	226.58
923.83	226.30
924.13	226.35
924.44	226.38
924.74	226.48
925.04	226.66
925.34	226.63
925.64	226.36
925.94	226.37
926.24	226.65
926.55	226.69
926.85	226.69
927.15	226.68
927.45	226.70
927.75	226.70
928.05	226.64
928.35	226.59
928.65	226.64
928.95	226.74
929.26	226.66
929.56	226.81
929.86	226.83
930.16	226.73
930.46	226.69
930.76	226.69
931.06	226.53
931.36	226.31
931.66	226.38
931.96	226.42
932.26	226.46
932.56	226.22
932.86	226.24
933.16	226.31
933.46	226.30
933.76	226.28
934.06	226.38
934.36	226.56
934.66	226.61
934.96	226.51
935.26	226.47
935.56	226.54
935.86	226.31
936.16	226.29
936.46	226.24
936.76	226.28
937.06	226.19
937.36	226.11
937.66	226.14
937.96	226.11
938.26	226.10
938.56	226.06
938.86	226.10
939.16	226.18
939.46	226.19
939.76	226.21
940.06	226.15
940.35	226.04
940.65	225.78
940.95	225.81
941.25	225.72
941.55	225.65
941.85	225.59
942.15	225.76
942.45	225.83
942.75	225.89
943.04	225.90
943.34	226.00
943.64	226.04
943.94	225.97
944.24	225.94
944.54	225.91
944.84	225.98
945.13	225.91
945.43	225.87
945.73	225.86
946.03	225.83
946.33	225.81
946.62	225.77
946.92	225.79
947.22	225.85
947.52	225.91
947.82	226.08
948.11	226.01
948.41	225.90
948.71	225.76
949.01	225.78
949.31	225.75
949.60	225.79
949.90	225.78
950.20	225.83
950.50	225.87
950.79	225.85
951.09	225.84
951.39	225.86
951.69	225.80
951.98	225.82
952.28	225.80
952.58	225.80
952.87	225.83
953.17	225.93
953.47	225.84
953.76	225.76
954.06	225.52
954.36	225.41
954.66	225.40
954.95	225.54
955.25	225.50
955.55	225.50
955.84	225.40
956.14	225.45
956.44	225.47
956.73	225.36
957.03	225.34
957.32	225.39
957.62	225.36
957.92	225.47
958.21	225.43
958.51	225.90
958.81	225.97
959.10	225.97
959.40	226.00
959.69	226.01
959.99	226.07
960.29	226.17
960.58	226.19
960.88	226.35
961.17	226.35
961.47	226.38
961.76	226.35
962.06	226.45
962.36	226.41
962.65	226.38
962.95	226.38
963.24	226.37
963.54	226.38
963.83	226.37
964.13	226.27
964.42	226.22
964.72	225.91
965.01	225.85
965.31	225.83
965.60	225.74
965.90	226.01
966.19	225.88
966.49	225.82
966.78	225.83
967.08	225.75
967.37	225.74
967.67	225.67
967.96	225.78
968.26	225.69
968.55	225.75
968.85	225.75
969.14	225.80
969.43	225.84
969.73	225.76
970.02	225.79
970.32	225.78
970.61	225.79
970.91	225.62
971.20	225.57
971.49	225.56
971.79	225.59
972.08	225.30
972.38	225.40
972.67	225.45
972.96	225.45
973.26	225.36
973.55	225.46
973.85	225.45
974.14	225.40
974.43	225.46
974.73	225.35
975.02	225.28
975.31	225.33
975.61	225.35
975.90	225.36
976.19	225.32
976.49	225.37
976.78	225.35
977.07	225.37
977.37	225.41
977.66	225.47
977.95	225.45
978.24	225.51
978.54	225.59
978.83	225.57
979.12	225.67
979.42	225.71
979.71	225.63
980.00	225.63
980.29	225.63
980.59	225.54
980.88	225.79
981.17	225.82
981.46	225.82
981.76	225.82
982.05	225.89
982.34	225.92
982.63	225.89
982.93	225.89
983.22	226.07
983.51	226.14
983.80	226.15
984.09	226.15
984.39	226.15
984.68	226.13
984.97	226.09
985.26	225.97
985.55	226.03
985.85	225.95
986.14	226.06
986.43	226.07
986.72	226.07
987.01	225.91
987.30	225.96
987.59	225.92
987.89	225.88
988.18	225.79
988.47	225.72
988.76	225.69
989.05	225.67
989.34	225.50
989.63	225.62
989.92	225.57
990.22	225.57
990.51	225.47
990.80	225.40
991.09	225.45
991.38	225.50
991.67	225.44
991.96	225.38
992.25	225.30
992.54	225.19
992.83	225.18
993.12	225.10
993.41	225.12
993.70	225.30
993.99	225.45
994.28	225.53
994.58	225.65
994.87	225.53
995.16	225.53
995.45	225.51
995.74	225.30
996.03	225.40
996.32	225.42
996.61	225.51
996.90	225.55
997.19	225.57
997.48	225.53
997.77	225.45
998.06	225.45
998.34	225.53
998.63	225.56
998.92	225.59
999.21	225.65
999.50	225.66
999.79	225.49
1000.08	225.42
1000.37	225.40
1000.66	225.27
1000.95	225.52
1001.24	225.55
1001.53	225.64
1001.82	225.68
1002.11	225.53
1002.40	225.63
1002.68	225.79
1002.97	226.08
1003.26	225.96
1003.55	225.96
1003.84	226.06
1004.13	226.18
1004.42	226.15
1004.71	226.14
1004.99	226.06
1005.28	226.14
1005.57	226.15
1005.86	226.09
1006.15	226.07
1006.44	226.05
1006.72	226.13
1007.01	226.00
1007.30	226.09
1007.59	226.04
1007.88	226.01
1008.17	226.11
1008.45	225.99
1008.74	225.80
1009.03	225.64
1009.32	225.74
1009.60	225.69
1009.89	225.61
1010.18	225.50
1010.47	225.41
1010.76	225.41
1011.04	225.40
1011.33	225.43
1011.62	225.45
1011.91	225.46
1012.19	225.43
1012.48	225.44
1012.77	225.50
1013.05	225.74
1013.34	225.70
1013.63	225.65
1013.92	225.74
1014.20	225.68
1014.49	225.67
1014.78	225.72
1015.06	225.53
1015.35	225.52
1015.64	225.60
1015.92	225.75
1016.21	225.78
1016.50	225.86
1016.78	225.95
1017.07	226.08
1017.36	225.99
1017.64	225.90
1017.93	226.01
1018.22	226.03
1018.50	225.99
1018.79	225.97
1019.08	225.75
1019.36	225.80
1019.65	225.74
1019.93	225.89
1020.22	225.96
1020.51	226.23
1020.79	226.15
1021.08	225.30
1021.36	225.05
1021.65	226.50
1021.94	225.85
1022.22	226.60
1022.51	223.90
1022.79	229.20
1023.08	226.75
1023.36	231.40
1023.65	224.45
>>>>>End Processed Spectral Data<<<<<
