SpectraSuite Data File
++++++++++++++++++++++++++++++++++++
Date: Wed Sep 04 18:01:10 EDT 2013
User: lab3
Dark Spectrum Present: Yes
Reference Spectrum Present: No
Number of Sampled Component Spectra: 1
Spectrometers: USB2E7196
Integration Time (usec): 170000 (USB2E7196)
Spectra Averaged: 20 (USB2E7196)
Boxcar Smoothing: 10 (USB2E7196)
Correct for Electrical Dark: No (USB2E7196)
Strobe/Lamp Enabled: No (USB2E7196)
Correct for Detector Non-linearity: No (USB2E7196)
Correct for Stray Light: No (USB2E7196)
Number of Pixels in Processed Spectrum: 2048
>>>>>Begin Processed Spectral Data<<<<<
339.09	0.00
339.48	213.45
339.86	214.40
340.24	216.35
340.63	218.20
341.01	225.60
341.39	220.95
341.78	222.35
342.16	223.85
342.54	223.45
342.93	212.83
343.31	223.57
343.69	224.11
344.07	224.62
344.46	225.14
344.84	225.52
345.22	225.50
345.60	225.79
345.99	226.01
346.37	226.13
346.75	226.27
347.13	226.35
347.52	226.40
347.90	226.61
348.28	226.68
348.66	226.80
349.05	226.57
349.43	226.68
349.81	226.68
350.19	226.78
350.57	226.83
350.96	226.87
351.34	226.88
351.72	227.01
352.10	227.10
352.48	227.06
352.87	227.13
353.25	227.20
353.63	227.17
354.01	227.18
354.39	227.30
354.77	227.35
355.15	227.56
355.54	227.57
355.92	227.45
356.30	227.55
356.68	227.90
357.06	228.00
357.44	227.95
357.82	228.00
358.20	228.45
358.58	228.50
358.97	228.56
359.35	228.83
359.73	228.92
360.11	228.96
360.49	229.09
360.87	229.10
361.25	229.25
361.63	229.51
362.01	229.57
362.39	229.58
362.77	229.64
363.15	229.61
363.53	229.67
363.91	229.70
364.29	229.67
364.67	229.27
365.05	229.30
365.43	229.43
365.81	229.55
366.19	229.31
366.57	229.53
366.95	229.52
367.33	229.34
367.71	229.34
368.09	229.48
368.47	229.47
368.85	229.48
369.23	229.59
369.61	229.43
369.99	229.57
370.37	229.52
370.75	229.79
371.13	229.70
371.51	229.67
371.89	229.80
372.27	229.80
372.65	229.82
373.03	229.83
373.41	229.78
373.78	229.70
374.16	229.47
374.54	229.24
374.92	229.20
375.30	229.24
375.68	229.13
376.06	229.06
376.44	228.99
376.82	229.04
377.19	228.84
377.57	228.83
377.95	228.61
378.33	228.60
378.71	228.23
379.09	228.22
379.47	228.15
379.84	228.00
380.22	227.94
380.60	227.75
380.98	227.68
381.36	227.54
381.73	227.36
382.11	227.39
382.49	227.43
382.87	227.28
383.25	227.25
383.62	227.73
384.00	227.54
384.38	227.50
384.76	227.45
385.13	227.60
385.51	227.43
385.89	227.33
386.27	227.23
386.64	227.27
387.02	227.19
387.40	227.15
387.78	227.09
388.15	227.05
388.53	227.07
388.91	227.01
389.29	226.95
389.66	227.09
390.04	226.98
390.42	226.96
390.79	226.99
391.17	226.89
391.55	226.31
391.92	226.37
392.30	226.40
392.68	226.24
393.05	226.22
393.43	226.27
393.81	226.37
394.18	226.40
394.56	226.38
394.94	226.47
395.31	226.41
395.69	226.57
396.06	226.72
396.44	226.77
396.82	226.81
397.19	227.16
397.57	227.12
397.95	227.30
398.32	227.22
398.70	227.38
399.07	227.58
399.45	227.65
399.82	227.80
400.20	227.80
400.58	227.90
400.95	227.83
401.33	228.09
401.70	228.51
402.08	228.60
402.45	228.70
402.83	228.97
403.20	229.21
403.58	229.33
403.95	229.47
404.33	229.70
404.71	229.88
405.08	230.26
405.46	230.53
405.83	230.76
406.21	231.05
406.58	231.32
406.96	231.60
407.33	231.97
407.70	232.27
408.08	233.04
408.45	233.52
408.83	234.04
409.20	234.37
409.58	234.58
409.95	235.15
410.33	235.75
410.70	236.15
411.08	236.80
411.45	237.36
411.82	238.04
412.20	238.85
412.57	239.93
412.95	240.35
413.32	241.16
413.69	242.01
414.07	242.93
414.44	243.91
414.82	244.98
415.19	246.16
415.56	247.31
415.94	248.35
416.31	249.79
416.68	251.21
417.06	252.89
417.43	254.46
417.81	256.23
418.18	258.05
418.55	259.97
418.93	261.95
419.30	264.11
419.67	266.31
420.04	268.48
420.42	270.77
420.79	273.75
421.16	276.50
421.54	279.51
421.91	282.55
422.28	285.65
422.66	288.89
423.03	292.44
423.40	295.88
423.77	299.39
424.15	303.05
424.52	306.86
424.89	311.08
425.26	315.11
425.64	318.92
426.01	323.09
426.38	327.49
426.75	332.04
427.13	336.57
427.50	341.35
427.87	346.36
428.24	351.30
428.61	355.82
428.99	361.23
429.36	366.77
429.73	372.34
430.10	377.74
430.47	383.50
430.85	389.03
431.22	395.30
431.59	402.20
431.96	408.57
432.33	415.45
432.70	422.00
433.08	429.95
433.45	437.40
433.82	444.77
434.19	452.93
434.56	461.12
434.93	468.93
435.30	476.86
435.68	485.51
436.05	493.91
436.42	502.38
436.79	510.23
437.16	518.63
437.53	527.52
437.90	536.38
438.27	544.97
438.64	553.99
439.01	562.23
439.38	569.54
439.75	576.60
440.13	584.95
440.50	592.69
440.87	598.82
441.24	605.31
441.61	612.31
441.98	617.64
442.35	623.45
442.72	629.38
443.09	635.07
443.46	638.53
443.83	640.88
444.20	642.75
444.57	645.48
444.94	646.61
445.31	647.62
445.68	648.95
446.05	649.06
446.42	647.75
446.79	646.48
447.16	644.71
447.53	643.37
447.90	639.52
448.27	635.67
448.64	630.68
449.01	626.81
449.37	620.69
449.74	614.37
450.11	607.49
450.48	599.75
450.85	591.76
451.22	584.75
451.59	578.15
451.96	571.90
452.33	563.64
452.70	556.18
453.07	547.45
453.43	538.35
453.80	529.91
454.17	521.92
454.54	514.05
454.91	505.84
455.28	497.85
455.65	490.27
456.02	483.29
456.38	476.93
456.75	469.23
457.12	462.72
457.49	456.39
457.86	449.92
458.23	444.81
458.59	439.02
458.96	433.19
459.33	428.03
459.70	422.88
460.07	418.72
460.43	414.00
460.80	409.70
461.17	405.85
461.54	401.82
461.91	397.88
462.27	393.88
462.64	390.61
463.01	386.99
463.38	383.60
463.74	379.57
464.11	376.47
464.48	373.79
464.85	370.93
465.21	368.97
465.58	366.70
465.95	363.79
466.32	361.49
466.68	359.28
467.05	357.09
467.42	354.83
467.78	352.52
468.15	350.44
468.52	348.72
468.88	346.59
469.25	344.65
469.62	343.15
469.98	341.61
470.35	339.98
470.72	338.56
471.08	336.94
471.45	335.82
471.82	334.53
472.18	333.09
472.55	331.96
472.92	330.46
473.28	329.24
473.65	328.17
474.02	327.14
474.38	326.25
474.75	325.38
475.11	324.51
475.48	323.90
475.85	323.29
476.21	322.65
476.58	322.16
476.94	321.89
477.31	321.40
477.67	320.91
478.04	320.64
478.41	320.48
478.77	320.74
479.14	320.38
479.50	320.28
479.87	320.38
480.23	320.36
480.60	320.42
480.96	320.50
481.33	320.85
481.69	321.06
482.06	321.28
482.42	321.52
482.79	321.93
483.15	322.34
483.52	322.93
483.88	323.41
484.25	323.94
484.61	324.50
484.98	325.21
485.34	326.29
485.71	327.19
486.07	328.11
486.44	328.72
486.80	329.88
487.17	331.11
487.53	332.47
487.90	333.96
488.26	335.60
488.62	337.20
488.99	338.76
489.35	340.53
489.72	342.52
490.08	344.38
490.44	346.36
490.81	348.61
491.17	350.77
491.54	353.46
491.90	356.08
492.26	358.85
492.63	361.62
492.99	364.36
493.36	367.46
493.72	370.90
494.08	374.30
494.45	378.09
494.81	381.96
495.17	385.79
495.54	390.00
495.90	394.38
496.26	398.98
496.63	403.52
496.99	408.47
497.35	413.42
497.72	418.88
498.08	424.44
498.44	430.04
498.80	436.12
499.17	442.10
499.53	448.42
499.89	455.08
500.26	462.02
500.62	469.05
500.98	476.55
501.34	483.92
501.71	491.76
502.07	499.48
502.43	507.71
502.79	516.20
503.16	524.92
503.52	533.79
503.88	542.93
504.24	552.84
504.60	562.74
504.97	573.10
505.33	583.63
505.69	594.88
506.05	606.00
506.41	617.15
506.78	628.84
507.14	640.86
507.50	653.26
507.86	665.92
508.22	678.90
508.59	691.98
508.95	705.69
509.31	719.67
509.67	734.17
510.03	748.29
510.39	763.14
510.75	778.22
511.12	793.50
511.48	809.37
511.84	824.88
512.20	840.90
512.56	857.09
512.92	874.01
513.28	890.60
513.64	907.88
514.00	925.64
514.37	943.36
514.73	961.52
515.09	979.71
515.45	998.07
515.81	1016.48
516.17	1035.19
516.53	1053.85
516.89	1072.69
517.25	1091.94
517.61	1112.47
517.97	1132.81
518.33	1152.95
518.69	1173.56
519.05	1194.18
519.41	1214.97
519.77	1236.09
520.13	1256.95
520.49	1277.53
520.85	1300.12
521.21	1321.51
521.57	1342.86
521.93	1363.80
522.29	1385.10
522.65	1405.86
523.01	1426.75
523.37	1447.81
523.73	1468.92
524.09	1489.52
524.45	1510.52
524.81	1531.58
525.17	1552.10
525.53	1572.44
525.89	1593.31
526.25	1613.99
526.61	1634.49
526.97	1655.69
527.33	1677.16
527.68	1699.30
528.04	1720.60
528.40	1740.20
528.76	1761.05
529.12	1781.45
529.48	1802.45
529.84	1822.53
530.20	1843.74
530.56	1864.84
530.91	1885.94
531.27	1906.59
531.63	1927.35
531.99	1948.06
532.35	1968.10
532.71	1988.48
533.07	2008.98
533.42	2029.00
533.78	2049.17
534.14	2069.00
534.50	2088.26
534.86	2107.35
535.21	2125.07
535.57	2143.71
535.93	2161.66
536.29	2179.24
536.65	2197.65
537.00	2215.12
537.36	2232.81
537.72	2249.65
538.08	2266.99
538.44	2283.78
538.79	2300.39
539.15	2317.19
539.51	2333.02
539.87	2348.32
540.22	2362.54
540.58	2377.20
540.94	2390.43
541.29	2402.94
541.65	2415.59
542.01	2428.43
542.37	2439.07
542.72	2450.16
543.08	2461.21
543.44	2473.18
543.79	2483.65
544.15	2493.47
544.51	2503.99
544.87	2513.81
545.22	2522.37
545.58	2529.99
545.94	2537.20
546.29	2543.81
546.65	2550.15
547.01	2556.02
547.36	2561.89
547.72	2567.49
548.07	2571.74
548.43	2577.38
548.79	2581.94
549.14	2586.42
549.50	2589.77
549.86	2594.17
550.21	2598.05
550.57	2601.31
550.92	2602.35
551.28	2603.87
551.64	2606.27
551.99	2608.15
552.35	2609.79
552.70	2611.92
553.06	2613.77
553.41	2615.12
553.77	2616.88
554.13	2618.72
554.48	2620.45
554.84	2622.08
555.19	2623.23
555.55	2625.09
555.90	2624.40
556.26	2623.98
556.61	2622.17
556.97	2620.44
557.32	2619.78
557.68	2618.45
558.03	2616.98
558.39	2616.12
558.74	2615.32
559.10	2612.18
559.45	2608.47
559.81	2604.00
560.16	2598.99
560.52	2594.04
560.87	2589.87
561.23	2584.35
561.58	2578.47
561.94	2571.37
562.29	2564.04
562.64	2556.98
563.00	2548.59
563.35	2542.11
563.71	2535.68
564.06	2529.64
564.42	2523.11
564.77	2516.05
565.12	2508.56
565.48	2500.98
565.83	2492.79
566.19	2484.75
566.54	2476.90
566.89	2468.89
567.25	2461.33
567.60	2454.14
567.96	2446.62
568.31	2438.20
568.66	2429.62
569.02	2420.13
569.37	2412.48
569.72	2404.43
570.08	2395.10
570.43	2385.80
570.78	2376.85
571.14	2367.30
571.49	2357.08
571.84	2347.47
572.20	2336.31
572.55	2326.02
572.90	2314.98
573.26	2304.75
573.61	2293.60
573.96	2282.29
574.31	2270.47
574.67	2258.68
575.02	2245.83
575.37	2233.10
575.72	2220.08
576.08	2208.05
576.43	2195.56
576.78	2181.70
577.13	2168.28
577.49	2155.89
577.84	2143.86
578.19	2131.51
578.54	2118.85
578.90	2106.87
579.25	2094.60
579.60	2082.39
579.95	2069.55
580.30	2056.37
580.66	2042.82
581.01	2029.10
581.36	2015.21
581.71	2002.46
582.06	1989.38
582.42	1976.77
582.77	1964.15
583.12	1952.20
583.47	1939.66
583.82	1927.99
584.17	1916.21
584.53	1903.90
584.88	1890.54
585.23	1877.38
585.58	1863.01
585.93	1849.64
586.28	1836.16
586.63	1821.92
586.98	1807.57
587.34	1794.42
587.69	1781.21
588.04	1768.61
588.39	1756.69
588.74	1744.40
589.09	1732.18
589.44	1719.40
589.79	1707.23
590.14	1695.14
590.49	1682.71
590.84	1670.64
591.19	1658.52
591.54	1646.21
591.89	1634.25
592.25	1624.11
592.60	1612.45
592.95	1601.04
593.30	1589.20
593.65	1577.35
594.00	1565.23
594.35	1555.54
594.70	1543.52
595.05	1532.04
595.40	1519.95
595.75	1507.59
596.10	1496.24
596.45	1484.64
596.80	1473.56
597.15	1462.33
597.50	1450.48
597.85	1438.98
598.19	1427.17
598.54	1415.38
598.89	1403.98
599.24	1393.23
599.59	1381.45
599.94	1370.54
600.29	1359.91
600.64	1349.46
600.99	1338.38
601.34	1329.08
601.69	1317.75
602.04	1307.84
602.39	1298.16
602.74	1288.89
603.08	1279.65
603.43	1270.31
603.78	1260.61
604.13	1250.88
604.48	1240.83
604.83	1231.21
605.18	1221.35
605.53	1211.71
605.87	1202.39
606.22	1193.85
606.57	1184.50
606.92	1175.17
607.27	1166.27
607.62	1157.75
607.96	1149.06
608.31	1141.19
608.66	1132.33
609.01	1123.65
609.36	1114.87
609.70	1106.10
610.05	1097.35
610.40	1088.71
610.75	1079.99
611.10	1071.30
611.44	1062.75
611.79	1054.60
612.14	1046.62
612.49	1038.80
612.83	1031.32
613.18	1023.50
613.53	1015.62
613.88	1007.49
614.22	999.67
614.57	991.53
614.92	983.51
615.27	975.94
615.61	968.15
615.96	960.65
616.31	953.07
616.65	946.21
617.00	938.96
617.35	931.62
617.70	924.55
618.04	917.45
618.39	910.57
618.74	904.11
619.08	897.26
619.43	890.16
619.78	882.94
620.12	875.67
620.47	868.59
620.82	861.26
621.16	854.58
621.51	848.04
621.85	841.67
622.20	834.90
622.55	828.23
622.89	821.73
623.24	815.38
623.59	808.95
623.93	802.52
624.28	796.23
624.62	790.57
624.97	784.73
625.32	778.72
625.66	772.68
626.01	766.56
626.35	760.88
626.70	755.27
627.04	750.30
627.39	744.84
627.73	739.52
628.08	734.34
628.43	728.94
628.77	723.39
629.12	718.10
629.46	713.33
629.81	708.52
630.15	703.61
630.50	698.60
630.84	693.67
631.19	688.86
631.53	684.18
631.88	678.85
632.22	673.89
632.57	669.50
632.91	664.92
633.26	660.41
633.60	655.79
633.95	651.05
634.29	645.93
634.64	641.41
634.98	636.72
635.32	632.31
635.67	628.12
636.01	623.97
636.36	619.59
636.70	615.43
637.05	611.07
637.39	607.05
637.73	603.02
638.08	599.00
638.42	594.59
638.77	590.34
639.11	586.01
639.45	581.75
639.80	577.29
640.14	573.12
640.49	569.18
640.83	565.28
641.17	561.63
641.52	558.03
641.86	554.32
642.20	551.01
642.55	547.23
642.89	543.60
643.23	540.11
643.58	536.99
643.92	533.29
644.26	529.99
644.61	526.56
644.95	523.08
645.29	519.65
645.64	516.52
645.98	513.40
646.32	510.35
646.66	507.33
647.01	504.41
647.35	501.63
647.69	498.53
648.04	495.55
648.38	492.70
648.72	489.68
649.06	486.64
649.41	483.55
649.75	480.62
650.09	477.79
650.43	474.88
650.78	471.86
651.12	469.01
651.46	466.13
651.80	463.28
652.14	460.52
652.49	457.95
652.83	455.23
653.17	452.55
653.51	449.89
653.85	447.35
654.20	444.79
654.54	442.08
654.88	439.56
655.22	437.52
655.56	434.99
655.90	432.69
656.25	430.50
656.59	428.25
656.93	426.08
657.27	424.01
657.61	421.64
657.95	419.42
658.29	417.21
658.64	415.12
658.98	412.93
659.32	410.67
659.66	408.47
660.00	406.47
660.34	404.35
660.68	402.31
661.02	400.15
661.36	398.24
661.70	396.32
662.05	394.30
662.39	392.22
662.73	390.48
663.07	388.75
663.41	386.84
663.75	384.88
664.09	383.04
664.43	380.95
664.77	379.26
665.11	377.40
665.45	375.74
665.79	374.16
666.13	372.40
666.47	370.69
666.81	369.07
667.15	367.36
667.49	365.91
667.83	364.57
668.17	363.10
668.51	361.61
668.85	360.28
669.19	359.21
669.53	357.62
669.87	356.15
670.21	354.67
670.55	353.32
670.89	352.18
671.23	350.92
671.57	349.62
671.91	348.26
672.25	346.91
672.58	345.71
672.92	344.08
673.26	342.91
673.60	341.76
673.94	340.54
674.28	339.49
674.62	338.25
674.96	336.90
675.30	335.78
675.64	334.51
675.97	333.13
676.31	331.69
676.65	330.44
676.99	329.39
677.33	328.23
677.67	327.17
678.01	325.79
678.34	324.64
678.68	323.68
679.02	322.62
679.36	321.66
679.70	320.56
680.04	319.71
680.37	318.65
680.71	317.65
681.05	316.80
681.39	315.78
681.73	314.83
682.06	313.90
682.40	312.96
682.74	312.18
683.08	311.52
683.42	310.63
683.75	309.90
684.09	308.96
684.43	308.06
684.77	307.17
685.10	306.43
685.44	305.62
685.78	304.80
686.12	304.05
686.45	303.16
686.79	302.35
687.13	301.67
687.46	300.91
687.80	300.22
688.14	299.32
688.48	298.50
688.81	297.76
689.15	297.19
689.49	296.43
689.82	295.64
690.16	294.76
690.50	294.10
690.83	293.32
691.17	292.52
691.51	291.87
691.84	291.32
692.18	290.67
692.52	290.01
692.85	289.37
693.19	288.93
693.52	288.32
693.86	287.71
694.20	287.02
694.53	286.45
694.87	285.80
695.21	285.22
695.54	284.67
695.88	283.95
696.21	283.16
696.55	282.55
696.88	281.96
697.22	281.37
697.56	280.90
697.89	280.32
698.23	279.81
698.56	279.22
698.90	278.69
699.23	278.18
699.57	277.66
699.90	277.08
700.24	276.31
700.58	275.85
700.91	275.37
701.25	275.25
701.58	275.17
701.92	274.77
702.25	274.35
702.59	273.89
702.92	273.56
703.26	273.19
703.59	272.72
703.93	272.75
704.26	272.40
704.60	271.93
704.93	271.49
705.26	271.04
705.60	270.76
705.93	270.21
706.27	269.96
706.60	269.69
706.94	269.52
707.27	269.20
707.61	268.85
707.94	268.54
708.27	267.72
708.61	266.87
708.94	266.50
709.28	266.09
709.61	265.66
709.94	265.28
710.28	264.89
710.61	264.57
710.95	263.74
711.28	263.67
711.61	263.27
711.95	263.05
712.28	262.70
712.61	262.24
712.95	262.18
713.28	261.91
713.61	261.47
713.95	260.96
714.28	260.64
714.61	260.29
714.95	259.88
715.28	259.58
715.61	259.29
715.95	258.99
716.28	258.59
716.61	258.37
716.95	257.98
717.28	257.73
717.61	257.40
717.94	257.11
718.28	256.42
718.61	256.15
718.94	255.75
719.27	255.40
719.61	255.19
719.94	254.79
720.27	254.25
720.60	253.97
720.94	253.74
721.27	253.50
721.60	253.30
721.93	253.11
722.27	253.00
722.60	252.88
722.93	252.53
723.26	252.41
723.59	252.07
723.93	251.99
724.26	251.74
724.59	251.55
724.92	251.34
725.25	251.30
725.59	251.02
725.92	250.85
726.25	250.70
726.58	250.54
726.91	250.32
727.24	250.30
727.57	250.10
727.91	249.84
728.24	249.70
728.57	249.51
728.90	249.34
729.23	248.99
729.56	248.91
729.89	248.75
730.22	248.52
730.55	248.32
730.89	248.03
731.22	247.87
731.55	247.77
731.88	247.56
732.21	247.17
732.54	246.97
732.87	246.89
733.20	246.69
733.53	246.52
733.86	246.37
734.19	246.07
734.52	245.93
734.85	246.12
735.18	245.85
735.51	245.82
735.84	245.64
736.17	245.61
736.50	245.25
736.83	245.68
737.16	245.51
737.49	245.41
737.82	245.24
738.15	245.15
738.48	244.95
738.81	244.84
739.14	244.71
739.47	244.55
739.80	244.25
740.13	244.24
740.46	244.03
740.79	243.80
741.12	243.68
741.45	243.47
741.78	243.00
742.11	242.98
742.44	242.67
742.77	242.64
743.10	242.41
743.43	242.26
743.75	241.62
744.08	242.19
744.41	241.97
744.74	241.86
745.07	241.63
745.40	241.56
745.73	241.61
746.06	241.58
746.39	241.62
746.71	241.51
747.04	241.34
747.37	241.18
747.70	241.16
748.03	241.08
748.36	241.05
748.68	240.99
749.01	240.76
749.34	240.65
749.67	240.51
750.00	240.36
750.33	240.62
750.65	240.59
750.98	239.87
751.31	239.80
751.64	239.74
751.97	239.85
752.29	239.70
752.62	239.43
752.95	239.29
753.28	239.17
753.60	239.03
753.93	239.07
754.26	239.01
754.59	238.75
754.91	238.56
755.24	238.40
755.57	238.25
755.90	238.13
756.22	238.02
756.55	237.82
756.88	237.70
757.20	237.25
757.53	236.93
757.86	236.80
758.19	236.77
758.51	236.60
758.84	236.29
759.17	236.10
759.49	235.97
759.82	236.09
760.15	235.90
760.47	235.83
760.80	235.57
761.13	235.54
761.45	235.44
761.78	235.39
762.11	235.36
762.43	235.23
762.76	235.13
763.08	235.09
763.41	235.11
763.74	235.08
764.06	234.98
764.39	234.92
764.71	234.82
765.04	234.65
765.37	234.53
765.69	234.44
766.02	234.35
766.34	234.25
766.67	233.94
767.00	233.94
767.32	234.08
767.65	234.30
767.97	234.17
768.30	234.11
768.62	234.04
768.95	233.85
769.27	233.79
769.60	233.79
769.92	233.65
770.25	233.41
770.57	233.27
770.90	233.21
771.22	233.11
771.55	233.00
771.87	232.98
772.20	232.89
772.52	233.25
772.85	233.78
773.17	233.80
773.50	233.84
773.82	233.75
774.15	233.48
774.47	233.12
774.80	233.12
775.12	233.13
775.45	233.10
775.77	233.14
776.09	233.17
776.42	233.00
776.74	233.09
777.07	233.04
777.39	233.03
777.72	233.01
778.04	233.10
778.36	233.04
778.69	233.00
779.01	233.05
779.33	232.61
779.66	232.07
779.98	231.93
780.31	231.84
780.63	231.98
780.95	232.04
781.28	231.97
781.60	231.82
781.92	231.73
782.25	231.63
782.57	231.55
782.89	231.46
783.22	231.55
783.54	231.40
783.86	231.38
784.19	231.30
784.51	231.37
784.83	231.19
785.16	231.19
785.48	231.17
785.80	231.10
786.12	231.12
786.45	231.12
786.77	231.20
787.09	231.14
787.42	230.95
787.74	230.95
788.06	230.95
788.38	230.86
788.71	230.72
789.03	230.67
789.35	230.65
789.67	230.63
789.99	230.51
790.32	230.54
790.64	230.64
790.96	231.01
791.28	230.88
791.61	230.85
791.93	230.86
792.25	230.85
792.57	231.17
792.89	231.04
793.21	230.99
793.54	230.95
793.86	230.84
794.18	230.81
794.50	230.68
794.82	230.69
795.14	230.78
795.47	230.99
795.79	230.99
796.11	230.97
796.43	230.81
796.75	230.83
797.07	230.77
797.39	230.69
797.71	230.43
798.04	230.42
798.36	230.48
798.68	230.44
799.00	230.35
799.32	230.01
799.64	230.09
799.96	230.04
800.28	230.12
800.60	230.11
800.92	230.18
801.24	230.04
801.56	230.03
801.89	230.04
802.21	229.96
802.53	229.84
802.85	229.91
803.17	230.22
803.49	230.04
803.81	229.97
804.13	229.88
804.45	229.69
804.77	229.72
805.09	229.65
805.41	229.55
805.73	229.47
806.05	229.42
806.37	229.35
806.69	229.29
807.01	229.13
807.33	229.16
807.65	228.93
807.97	229.20
808.28	229.08
808.60	229.05
808.92	229.02
809.24	229.32
809.56	229.15
809.88	228.94
810.20	228.99
810.52	229.08
810.84	228.95
811.16	228.92
811.48	228.88
811.80	229.09
812.12	229.12
812.43	229.25
812.75	229.25
813.07	229.21
813.39	229.24
813.71	229.10
814.03	229.07
814.35	229.06
814.67	228.83
814.98	228.84
815.30	228.75
815.62	228.63
815.94	228.28
816.26	228.52
816.58	228.43
816.89	228.49
817.21	228.43
817.53	228.53
817.85	228.51
818.17	228.41
818.48	228.16
818.80	228.25
819.12	228.14
819.44	228.07
819.76	228.00
820.07	227.96
820.39	227.93
820.71	227.87
821.03	227.91
821.34	227.87
821.66	227.87
821.98	227.93
822.30	227.93
822.61	228.24
822.93	228.00
823.25	228.00
823.57	227.95
823.88	227.94
824.20	227.87
824.52	227.94
824.83	227.91
825.15	227.84
825.47	227.76
825.79	227.85
826.10	227.84
826.42	227.78
826.74	227.88
827.05	228.00
827.37	228.11
827.69	228.07
828.00	228.18
828.32	228.18
828.64	228.14
828.95	228.40
829.27	228.28
829.58	228.30
829.90	228.33
830.22	228.29
830.53	228.23
830.85	228.28
831.17	228.17
831.48	228.23
831.80	228.30
832.11	228.28
832.43	228.19
832.75	228.14
833.06	228.49
833.38	228.32
833.69	228.23
834.01	228.18
834.32	228.15
834.64	228.07
834.96	228.03
835.27	227.94
835.59	227.79
835.90	227.76
836.22	227.75
836.53	227.65
836.85	227.65
837.16	228.11
837.48	228.07
837.79	228.26
838.11	228.22
838.42	228.20
838.74	228.20
839.05	228.20
839.37	228.25
839.68	227.95
840.00	228.01
840.31	228.11
840.63	228.03
840.94	228.05
841.26	227.92
841.57	227.94
841.88	228.07
842.20	227.98
842.51	227.83
842.83	227.79
843.14	228.25
843.46	228.23
843.77	227.97
844.08	227.94
844.40	227.79
844.71	227.75
845.03	227.70
845.34	227.73
845.65	227.64
845.97	227.59
846.28	227.57
846.60	227.56
846.91	227.49
847.22	227.59
847.54	227.64
847.85	227.73
848.16	227.68
848.48	227.62
848.79	227.75
849.10	227.83
849.42	227.85
849.73	227.39
850.04	227.37
850.36	227.21
850.67	227.34
850.98	227.35
851.30	227.47
851.61	227.47
851.92	227.45
852.23	227.61
852.55	227.68
852.86	227.70
853.17	227.69
853.49	227.77
853.80	227.79
854.11	227.85
854.42	227.88
854.74	227.79
855.05	227.74
855.36	227.55
855.67	227.61
855.99	227.58
856.30	228.10
856.61	228.13
856.92	228.12
857.23	228.07
857.55	227.99
857.86	227.86
858.17	227.94
858.48	227.87
858.79	227.80
859.11	227.83
859.42	227.78
859.73	227.71
860.04	227.68
860.35	227.52
860.66	227.32
860.98	227.36
861.29	227.51
861.60	227.46
861.91	227.58
862.22	227.45
862.53	227.49
862.84	226.95
863.16	227.08
863.47	227.01
863.78	226.98
864.09	227.03
864.40	227.07
864.71	227.14
865.02	227.16
865.33	227.08
865.64	227.00
865.95	227.05
866.27	227.40
866.58	227.34
866.89	227.47
867.20	227.54
867.51	227.45
867.82	227.36
868.13	227.52
868.44	227.38
868.75	227.44
869.06	227.40
869.37	227.48
869.68	227.34
869.99	227.41
870.30	227.45
870.61	227.52
870.92	227.50
871.23	227.39
871.54	227.46
871.85	227.61
872.16	227.68
872.47	227.63
872.78	227.36
873.09	227.43
873.40	227.34
873.71	227.44
874.02	227.45
874.33	227.52
874.64	227.42
874.95	227.56
875.26	227.54
875.56	227.51
875.87	227.47
876.18	227.44
876.49	227.92
876.80	227.86
877.11	227.79
877.42	227.77
877.73	227.80
878.04	227.69
878.35	227.69
878.66	227.65
878.96	227.65
879.27	227.55
879.58	227.54
879.89	227.56
880.20	227.58
880.51	227.62
880.82	227.54
881.12	227.56
881.43	227.41
881.74	227.33
882.05	227.31
882.36	227.35
882.67	227.40
882.97	226.88
883.28	226.81
883.59	226.80
883.90	226.83
884.21	226.92
884.51	226.94
884.82	226.94
885.13	226.92
885.44	226.95
885.74	227.02
886.05	227.00
886.36	226.97
886.67	226.86
886.98	227.00
887.28	227.05
887.59	227.12
887.90	227.20
888.20	227.17
888.51	227.34
888.82	227.30
889.13	227.25
889.43	227.58
889.74	227.61
890.05	227.52
890.35	227.41
890.66	227.36
890.97	227.29
891.28	227.14
891.58	227.25
891.89	227.24
892.20	227.14
892.50	227.11
892.81	227.05
893.12	226.94
893.42	226.77
893.73	226.78
894.04	226.69
894.34	226.68
894.65	226.70
894.95	226.54
895.26	226.53
895.57	226.76
895.87	226.28
896.18	226.36
896.48	226.48
896.79	226.53
897.10	226.55
897.40	226.60
897.71	226.63
898.01	226.57
898.32	226.55
898.63	226.55
898.93	226.58
899.24	226.60
899.54	226.66
899.85	226.60
900.15	226.57
900.46	226.56
900.76	226.59
901.07	226.54
901.38	226.50
901.68	226.57
901.99	226.35
902.29	226.45
902.60	226.39
902.90	226.39
903.21	226.40
903.51	226.33
903.82	226.43
904.12	226.44
904.43	226.42
904.73	226.44
905.03	226.54
905.34	226.96
905.64	226.98
905.95	227.02
906.25	227.02
906.56	227.05
906.86	227.07
907.17	227.02
907.47	227.10
907.77	227.11
908.08	227.06
908.38	227.07
908.69	227.18
908.99	227.27
909.30	227.25
909.60	227.26
909.90	227.33
910.21	227.20
910.51	227.17
910.81	227.21
911.12	227.29
911.42	227.27
911.73	226.80
912.03	226.83
912.33	226.89
912.64	226.85
912.94	226.74
913.24	226.68
913.55	226.60
913.85	226.55
914.15	226.66
914.46	226.67
914.76	226.61
915.06	226.49
915.37	226.32
915.67	226.32
915.97	226.30
916.27	226.13
916.58	226.19
916.88	226.19
917.18	226.12
917.49	226.40
917.79	226.39
918.09	226.47
918.39	226.60
918.70	226.55
919.00	226.64
919.30	226.91
919.60	226.88
919.91	226.93
920.21	226.96
920.51	226.83
920.81	226.87
921.12	227.03
921.42	227.07
921.72	227.21
922.02	227.21
922.32	227.27
922.63	227.33
922.93	227.55
923.23	227.58
923.53	227.50
923.83	227.21
924.13	227.22
924.44	227.23
924.74	227.24
925.04	227.41
925.34	227.45
925.64	227.21
925.94	227.19
926.24	227.42
926.55	227.39
926.85	227.50
927.15	227.39
927.45	227.37
927.75	227.38
928.05	227.35
928.35	227.36
928.65	227.46
928.95	227.49
929.26	227.30
929.56	227.39
929.86	227.45
930.16	227.41
930.46	227.37
930.76	227.40
931.06	227.21
931.36	227.01
931.66	227.05
931.96	227.15
932.26	227.25
932.56	227.05
932.86	227.10
933.16	227.02
933.46	227.00
933.76	226.89
934.06	226.99
934.36	227.15
934.66	227.07
934.96	227.05
935.26	227.07
935.56	227.06
935.86	226.99
936.16	226.97
936.46	226.89
936.76	226.87
937.06	226.77
937.36	226.78
937.66	226.81
937.96	226.76
938.26	226.62
938.56	226.52
938.86	226.53
939.16	226.66
939.46	226.74
939.76	226.81
940.06	226.86
940.35	226.71
940.65	226.46
940.95	226.52
941.25	226.28
941.55	226.20
941.85	226.20
942.15	226.27
942.45	226.42
942.75	226.43
943.04	226.44
943.34	226.45
943.64	226.45
943.94	226.42
944.24	226.48
944.54	226.50
944.84	226.53
945.13	226.47
945.43	226.35
945.73	226.30
946.03	226.27
946.33	226.25
946.62	226.23
946.92	226.34
947.22	226.35
947.52	226.49
947.82	226.51
948.11	226.48
948.41	226.38
948.71	226.20
949.01	226.25
949.31	226.30
949.60	226.30
949.90	226.32
950.20	226.27
950.50	226.24
950.79	226.30
951.09	226.34
951.39	226.35
951.69	226.35
951.98	226.50
952.28	226.53
952.58	226.45
952.87	226.47
953.17	226.49
953.47	226.52
953.76	226.48
954.06	226.50
954.36	226.41
954.66	226.41
954.95	226.59
955.25	226.57
955.55	226.53
955.84	226.51
956.14	226.60
956.44	226.64
956.73	226.57
957.03	226.60
957.32	226.60
957.62	226.60
957.92	226.66
958.21	226.63
958.51	227.07
958.81	227.19
959.10	227.25
959.40	227.30
959.69	227.28
959.99	227.37
960.29	227.34
960.58	227.30
960.88	227.48
961.17	227.35
961.47	227.42
961.76	227.46
962.06	227.48
962.36	227.45
962.65	227.50
962.95	227.50
963.24	227.42
963.54	227.37
963.83	227.39
964.13	227.37
964.42	227.13
964.72	226.75
965.01	226.79
965.31	226.73
965.60	226.58
965.90	226.95
966.19	226.84
966.49	226.86
966.78	226.87
967.08	226.79
967.37	226.81
967.67	226.68
967.96	226.67
968.26	226.64
968.55	226.70
968.85	226.62
969.14	226.60
969.43	226.62
969.73	226.61
970.02	226.62
970.32	226.61
970.61	226.75
970.91	226.67
971.20	226.55
971.49	226.50
971.79	226.60
972.08	226.16
972.38	226.19
972.67	226.11
972.96	226.22
973.26	226.09
973.55	226.22
973.85	226.23
974.14	226.17
974.43	226.24
974.73	226.07
975.02	226.08
975.31	226.14
975.61	226.08
975.90	226.03
976.19	225.91
976.49	225.85
976.78	225.78
977.07	225.76
977.37	225.75
977.66	225.83
977.95	225.70
978.24	225.76
978.54	225.84
978.83	225.81
979.12	225.73
979.42	225.76
979.71	225.74
980.00	225.80
980.29	225.87
980.59	225.80
980.88	225.97
981.17	225.94
981.46	225.90
981.76	225.93
982.05	226.16
982.34	226.30
982.63	226.33
982.93	226.33
983.22	226.45
983.51	226.51
983.80	226.54
984.09	226.70
984.39	226.72
984.68	226.70
984.97	226.71
985.26	226.70
985.55	226.75
985.85	226.62
986.14	226.62
986.43	226.73
986.72	226.78
987.01	226.64
987.30	226.65
987.59	226.67
987.89	226.70
988.18	226.54
988.47	226.50
988.76	226.50
989.05	226.53
989.34	226.49
989.63	226.60
989.92	226.58
990.22	226.48
990.51	226.39
990.80	226.38
991.09	226.51
991.38	226.64
991.67	226.59
991.96	226.54
992.25	226.65
992.54	226.54
992.83	226.48
993.12	226.52
993.41	226.62
993.70	226.81
993.99	226.87
994.28	227.00
994.58	227.05
994.87	227.01
995.16	226.96
995.45	226.90
995.74	226.76
996.03	226.81
996.32	226.91
996.61	226.97
996.90	226.98
997.19	227.00
997.48	226.96
997.77	227.01
998.06	227.05
998.34	226.95
998.63	226.95
998.92	227.00
999.21	227.00
999.50	226.94
999.79	226.76
1000.08	226.74
1000.37	226.69
1000.66	226.58
1000.95	226.71
1001.24	226.78
1001.53	226.85
1001.82	226.80
1002.11	226.72
1002.40	226.73
1002.68	226.99
1002.97	227.28
1003.26	227.15
1003.55	227.03
1003.84	226.97
1004.13	227.19
1004.42	227.18
1004.71	227.19
1004.99	227.16
1005.28	227.36
1005.57	227.35
1005.86	227.33
1006.15	227.29
1006.44	227.17
1006.72	227.26
1007.01	227.21
1007.30	227.14
1007.59	227.14
1007.88	227.13
1008.17	227.12
1008.45	227.00
1008.74	226.73
1009.03	226.48
1009.32	226.54
1009.60	226.51
1009.89	226.48
1010.18	226.21
1010.47	226.12
1010.76	226.09
1011.04	226.05
1011.33	225.98
1011.62	226.01
1011.91	226.04
1012.19	226.07
1012.48	226.05
1012.77	226.05
1013.05	226.24
1013.34	226.32
1013.63	226.27
1013.92	226.38
1014.20	226.38
1014.49	226.44
1014.78	226.47
1015.06	226.33
1015.35	226.27
1015.64	226.35
1015.92	226.46
1016.21	226.57
1016.50	226.64
1016.78	226.65
1017.07	226.72
1017.36	226.64
1017.64	226.60
1017.93	226.60
1018.22	226.58
1018.50	226.64
1018.79	226.58
1019.08	226.35
1019.36	226.32
1019.65	226.28
1019.93	226.41
1020.22	226.48
1020.51	226.74
1020.79	226.67
1021.08	226.00
1021.36	225.85
1021.65	225.85
1021.94	226.30
1022.22	226.55
1022.51	225.50
1022.79	229.70
1023.08	227.45
1023.36	232.60
1023.65	224.75
>>>>>End Processed Spectral Data<<<<<
