SpectraSuite Data File
++++++++++++++++++++++++++++++++++++
Date: Wed Sep 04 17:53:51 EDT 2013
User: lab3
Dark Spectrum Present: Yes
Reference Spectrum Present: No
Number of Sampled Component Spectra: 1
Spectrometers: USB2E7196
Integration Time (usec): 170000 (USB2E7196)
Spectra Averaged: 20 (USB2E7196)
Boxcar Smoothing: 10 (USB2E7196)
Correct for Electrical Dark: No (USB2E7196)
Strobe/Lamp Enabled: No (USB2E7196)
Correct for Detector Non-linearity: No (USB2E7196)
Correct for Stray Light: No (USB2E7196)
Number of Pixels in Processed Spectrum: 2048
>>>>>Begin Processed Spectral Data<<<<<
339.09	0.00
339.48	213.25
339.86	214.35
340.24	216.50
340.63	217.50
341.01	225.90
341.39	220.60
341.78	222.20
342.16	224.10
342.54	223.60
342.93	212.60
343.31	223.29
343.69	223.84
344.07	224.26
344.46	224.81
344.84	225.24
345.22	225.18
345.60	225.43
345.99	225.65
346.37	225.75
346.75	225.83
347.13	225.84
347.52	225.94
347.90	226.09
348.28	226.18
348.66	226.25
349.05	226.12
349.43	226.21
349.81	226.23
350.19	226.21
350.57	226.28
350.96	226.44
351.34	226.57
351.72	226.67
352.10	226.80
352.48	226.72
352.87	226.74
353.25	226.85
353.63	226.92
354.01	226.89
354.39	226.98
354.77	227.04
355.15	227.24
355.54	227.24
355.92	227.20
356.30	227.27
356.68	227.60
357.06	227.76
357.44	227.70
357.82	227.74
358.20	228.24
358.58	228.18
358.97	228.24
359.35	228.41
359.73	228.62
360.11	228.73
360.49	228.75
360.87	228.68
361.25	228.79
361.63	228.99
362.01	229.07
362.39	229.08
362.77	229.18
363.15	229.18
363.53	229.21
363.91	229.27
364.29	229.27
364.67	228.89
365.05	228.93
365.43	229.05
365.81	229.12
366.19	228.96
366.57	229.31
366.95	229.28
367.33	229.15
367.71	229.05
368.09	229.11
368.47	229.18
368.85	229.26
369.23	229.34
369.61	229.16
369.99	229.26
370.37	229.32
370.75	229.53
371.13	229.45
371.51	229.33
371.89	229.36
372.27	229.41
372.65	229.40
373.03	229.33
373.41	229.20
373.78	229.15
374.16	228.86
374.54	228.61
374.92	228.57
375.30	228.52
375.68	228.41
376.06	228.34
376.44	228.30
376.82	228.33
377.19	228.17
377.57	228.10
377.95	227.93
378.33	227.78
378.71	227.38
379.09	227.39
379.47	227.42
379.84	227.28
380.22	227.20
380.60	227.10
380.98	226.99
381.36	227.00
381.73	226.89
382.11	226.96
382.49	226.91
382.87	226.80
383.25	226.71
383.62	227.16
384.00	227.00
384.38	226.89
384.76	226.88
385.13	227.07
385.51	227.01
385.89	226.98
386.27	226.95
386.64	227.06
387.02	227.00
387.40	226.92
387.78	226.93
388.15	226.88
388.53	226.75
388.91	226.70
389.29	226.59
389.66	226.69
390.04	226.54
390.42	226.69
390.79	226.66
391.17	226.68
391.55	226.15
391.92	226.20
392.30	226.29
392.68	226.21
393.05	226.20
393.43	226.23
393.81	226.21
394.18	226.16
394.56	226.16
394.94	226.24
395.31	226.20
395.69	226.27
396.06	226.40
396.44	226.53
396.82	226.54
397.19	226.83
397.57	226.79
397.95	227.01
398.32	226.90
398.70	227.00
399.07	227.21
399.45	227.30
399.82	227.42
400.20	227.45
400.58	227.56
400.95	227.46
401.33	227.69
401.70	228.14
402.08	228.30
402.45	228.44
402.83	228.64
403.20	228.83
403.58	228.97
403.95	229.12
404.33	229.39
404.71	229.62
405.08	230.06
405.46	230.32
405.83	230.47
406.21	230.77
406.58	231.12
406.96	231.36
407.33	231.71
407.70	232.09
408.08	232.86
408.45	233.27
408.83	233.86
409.20	234.12
409.58	234.28
409.95	234.90
410.33	235.44
410.70	235.83
411.08	236.50
411.45	237.13
411.82	237.78
412.20	238.51
412.57	239.55
412.95	239.92
413.32	240.83
413.69	241.80
414.07	242.70
414.44	243.68
414.82	244.76
415.19	245.95
415.56	247.05
415.94	248.03
416.31	249.44
416.68	250.79
417.06	252.45
417.43	254.17
417.81	255.85
418.18	257.67
418.55	259.64
418.93	261.63
419.30	263.79
419.67	265.97
420.04	268.29
420.42	270.60
420.79	273.65
421.16	276.39
421.54	279.30
421.91	282.21
422.28	285.31
422.66	288.51
423.03	291.97
423.40	295.34
423.77	298.90
424.15	302.53
424.52	306.21
424.89	310.45
425.26	314.46
425.64	318.34
426.01	322.51
426.38	326.86
426.75	331.41
427.13	335.97
427.50	340.70
427.87	345.51
428.24	350.34
428.61	354.89
428.99	360.22
429.36	365.72
429.73	371.27
430.10	376.72
430.47	382.50
430.85	388.05
431.22	394.20
431.59	400.89
431.96	407.03
432.33	413.89
432.70	420.42
433.08	428.05
433.45	435.27
433.82	442.42
434.19	450.61
434.56	458.49
434.93	466.13
435.30	473.90
435.68	482.47
436.05	490.97
436.42	499.18
436.79	506.76
437.16	515.01
437.53	523.79
437.90	532.46
438.27	540.95
438.64	549.83
439.01	558.07
439.38	565.29
439.75	572.59
440.13	580.62
440.50	588.27
440.87	594.52
441.24	601.07
441.61	608.16
441.98	613.17
442.35	619.17
442.72	625.13
443.09	630.90
443.46	634.40
443.83	636.56
444.20	638.55
444.57	641.28
444.94	642.33
445.31	643.40
445.68	644.77
446.05	644.79
446.42	643.52
446.79	642.06
447.16	640.42
447.53	639.05
447.90	635.52
448.27	631.71
448.64	626.70
449.01	622.79
449.37	616.63
449.74	610.64
450.11	603.79
450.48	596.02
450.85	587.92
451.22	581.08
451.59	574.65
451.96	568.44
452.33	560.33
452.70	553.02
453.07	544.37
453.43	535.26
453.80	527.01
454.17	518.85
454.54	511.22
454.91	503.06
455.28	495.11
455.65	487.56
456.02	480.85
456.38	474.56
456.75	467.01
457.12	460.56
457.49	454.32
457.86	447.95
458.23	442.87
458.59	437.29
458.96	431.51
459.33	426.36
459.70	421.22
460.07	417.21
460.43	412.53
460.80	408.36
461.17	404.73
461.54	400.72
461.91	397.15
462.27	393.35
462.64	390.03
463.01	386.42
463.38	383.21
463.74	379.17
464.11	376.15
464.48	373.50
464.85	370.54
465.21	368.36
465.58	366.02
465.95	363.13
466.32	360.85
466.68	358.49
467.05	356.27
467.42	354.10
467.78	351.79
468.15	349.65
468.52	347.94
468.88	345.62
469.25	343.77
469.62	342.26
469.98	340.64
470.35	339.15
470.72	337.73
471.08	335.98
471.45	334.75
471.82	333.45
472.18	332.00
472.55	331.10
472.92	329.74
473.28	328.65
473.65	327.61
474.02	326.61
474.38	325.79
474.75	325.05
475.11	324.09
475.48	323.38
475.85	322.82
476.21	322.18
476.58	321.83
476.94	321.42
477.31	320.90
477.67	320.50
478.04	320.22
478.41	319.97
478.77	320.28
479.14	320.01
479.50	319.90
479.87	320.06
480.23	320.03
480.60	320.10
480.96	320.10
481.33	320.55
481.69	320.82
482.06	321.01
482.42	321.31
482.79	321.74
483.15	322.18
483.52	322.85
483.88	323.32
484.25	323.76
484.61	324.33
484.98	325.08
485.34	326.08
485.71	326.92
486.07	327.86
486.44	328.47
486.80	329.47
487.17	330.63
487.53	331.82
487.90	333.27
488.26	334.90
488.62	336.57
488.99	337.96
489.35	339.69
489.72	341.66
490.08	343.62
490.44	345.64
490.81	347.77
491.17	349.86
491.54	352.32
491.90	354.88
492.26	357.62
492.63	360.37
492.99	363.19
493.36	366.38
493.72	369.64
494.08	373.00
494.45	376.81
494.81	380.67
495.17	384.56
495.54	388.82
495.90	392.97
496.26	397.48
496.63	402.22
496.99	406.96
497.35	411.97
497.72	417.18
498.08	422.50
498.44	428.26
498.80	434.35
499.17	440.39
499.53	446.62
499.89	453.35
500.26	460.09
500.62	466.92
500.98	474.30
501.34	481.86
501.71	489.71
502.07	497.47
502.43	505.52
502.79	513.84
503.16	522.37
503.52	531.41
503.88	540.63
504.24	550.20
504.60	560.38
504.97	570.67
505.33	580.93
505.69	592.13
506.05	603.19
506.41	614.41
506.78	626.09
507.14	638.02
507.50	650.18
507.86	662.99
508.22	676.08
508.59	689.02
508.95	702.57
509.31	716.77
509.67	731.06
510.03	745.22
510.39	760.05
510.75	775.03
511.12	790.21
511.48	805.75
511.84	821.38
512.20	837.03
512.56	853.32
512.92	870.25
513.28	886.95
513.64	904.08
514.00	921.59
514.37	939.21
514.73	957.56
515.09	976.01
515.45	994.14
515.81	1012.23
516.17	1031.04
516.53	1049.65
516.89	1068.09
517.25	1087.36
517.61	1107.79
517.97	1127.80
518.33	1147.85
518.69	1168.11
519.05	1188.63
519.41	1209.32
519.77	1230.25
520.13	1250.82
520.49	1271.48
520.85	1293.59
521.21	1314.57
521.57	1335.84
521.93	1356.72
522.29	1377.64
522.65	1398.02
523.01	1418.73
523.37	1439.57
523.73	1460.53
524.09	1481.15
524.45	1501.75
524.81	1522.63
525.17	1542.99
525.53	1563.64
525.89	1584.10
526.25	1604.82
526.61	1625.15
526.97	1646.33
527.33	1667.82
527.68	1689.56
528.04	1710.89
528.40	1730.49
528.76	1751.70
529.12	1772.07
529.48	1793.08
529.84	1813.16
530.20	1834.24
530.56	1855.08
530.91	1876.20
531.27	1896.53
531.63	1917.12
531.99	1937.58
532.35	1957.39
532.71	1977.63
533.07	1998.30
533.42	2018.39
533.78	2038.16
534.14	2057.92
534.50	2076.41
534.86	2095.34
535.21	2112.63
535.57	2131.03
535.93	2148.79
536.29	2166.25
536.65	2184.58
537.00	2202.18
537.36	2219.94
537.72	2236.41
538.08	2253.41
538.44	2269.87
538.79	2286.34
539.15	2302.89
539.51	2319.00
539.87	2334.00
540.22	2347.90
540.58	2362.20
540.94	2375.61
541.29	2388.32
541.65	2400.92
542.01	2413.90
542.37	2424.32
542.72	2435.45
543.08	2445.99
543.44	2457.78
543.79	2467.74
544.15	2477.25
544.51	2486.89
544.87	2496.24
545.22	2504.88
545.58	2512.67
545.94	2519.58
546.29	2526.20
546.65	2532.20
547.01	2537.71
547.36	2543.35
547.72	2548.93
548.07	2552.54
548.43	2557.77
548.79	2562.33
549.14	2566.60
549.50	2570.33
549.86	2574.47
550.21	2578.23
550.57	2581.70
550.92	2582.82
551.28	2584.30
551.64	2586.52
551.99	2588.34
552.35	2589.85
552.70	2592.08
553.06	2593.87
553.41	2595.10
553.77	2596.45
554.13	2598.11
554.48	2599.72
554.84	2601.10
555.19	2602.39
555.55	2604.40
555.90	2603.77
556.26	2602.83
556.61	2600.88
556.97	2598.41
557.32	2597.58
557.68	2596.32
558.03	2594.60
558.39	2593.31
558.74	2592.53
559.10	2589.47
559.45	2585.66
559.81	2581.05
560.16	2575.64
560.52	2570.26
560.87	2566.36
561.23	2560.90
561.58	2554.66
561.94	2547.71
562.29	2540.56
562.64	2533.50
563.00	2524.82
563.35	2517.91
563.71	2511.20
564.06	2505.10
564.42	2498.90
564.77	2491.86
565.12	2484.51
565.48	2476.90
565.83	2468.86
566.19	2460.69
566.54	2452.44
566.89	2444.60
567.25	2436.92
567.60	2429.82
567.96	2422.64
568.31	2413.97
568.66	2405.64
569.02	2397.00
569.37	2388.76
569.72	2380.93
570.08	2371.67
570.43	2362.61
570.78	2353.56
571.14	2344.34
571.49	2334.07
571.84	2324.54
572.20	2313.98
572.55	2303.89
572.90	2292.92
573.26	2282.59
573.61	2271.43
573.96	2260.38
574.31	2248.46
574.67	2236.80
575.02	2224.10
575.37	2211.27
575.72	2198.36
576.08	2186.16
576.43	2173.85
576.78	2160.83
577.13	2147.25
577.49	2134.60
577.84	2122.64
578.19	2110.65
578.54	2098.10
578.90	2086.10
579.25	2073.31
579.60	2060.75
579.95	2047.57
580.30	2034.62
580.66	2021.41
581.01	2008.12
581.36	1994.44
581.71	1981.86
582.06	1968.75
582.42	1956.51
582.77	1944.04
583.12	1932.32
583.47	1919.87
583.82	1907.74
584.17	1895.72
584.53	1884.28
584.88	1871.28
585.23	1857.86
585.58	1843.87
585.93	1830.71
586.28	1817.46
586.63	1803.96
586.98	1789.81
587.34	1776.69
587.69	1763.29
588.04	1750.59
588.39	1738.39
588.74	1726.08
589.09	1713.91
589.44	1701.43
589.79	1689.10
590.14	1677.38
590.49	1664.85
590.84	1653.00
591.19	1641.09
591.54	1628.69
591.89	1616.30
592.25	1606.13
592.60	1594.86
592.95	1583.29
593.30	1571.43
593.65	1559.56
594.00	1547.40
594.35	1537.62
594.70	1525.67
595.05	1514.42
595.40	1502.34
595.75	1490.50
596.10	1479.20
596.45	1467.83
596.80	1457.07
597.15	1445.71
597.50	1433.57
597.85	1422.44
598.19	1410.82
598.54	1398.98
598.89	1387.94
599.24	1377.30
599.59	1365.53
599.94	1354.78
600.29	1344.35
600.64	1334.25
600.99	1323.78
601.34	1314.50
601.69	1303.26
602.04	1293.84
602.39	1284.15
602.74	1275.19
603.08	1266.07
603.43	1257.04
603.78	1247.33
604.13	1237.65
604.48	1227.92
604.83	1218.53
605.18	1208.78
605.53	1199.45
605.87	1190.33
606.22	1181.92
606.57	1172.68
606.92	1163.26
607.27	1154.54
607.62	1146.10
607.96	1137.33
608.31	1129.33
608.66	1120.90
609.01	1112.59
609.36	1104.07
609.70	1095.44
610.05	1086.79
610.40	1078.07
610.75	1069.28
611.10	1061.09
611.44	1052.50
611.79	1044.44
612.14	1036.68
612.49	1029.03
612.83	1021.23
613.18	1013.58
613.53	1005.69
613.88	997.93
614.22	990.57
614.57	982.39
614.92	974.34
615.27	966.84
615.61	958.95
615.96	951.28
616.31	943.69
616.65	936.49
617.00	929.44
617.35	922.17
617.70	915.15
618.04	908.13
618.39	900.96
618.74	894.64
619.08	887.84
619.43	880.72
619.78	873.54
620.12	866.59
620.47	859.70
620.82	852.61
621.16	845.65
621.51	839.25
621.85	833.05
622.20	826.66
622.55	819.89
622.89	813.62
623.24	807.29
623.59	801.02
623.93	794.70
624.28	788.47
624.62	783.06
624.97	777.29
625.32	771.58
625.66	765.63
626.01	759.56
626.35	753.95
626.70	748.43
627.04	743.29
627.39	737.85
627.73	732.41
628.08	727.38
628.43	722.11
628.77	716.56
629.12	711.40
629.46	706.60
629.81	702.00
630.15	697.26
630.50	692.43
630.84	687.52
631.19	682.81
631.53	678.27
631.88	672.85
632.22	667.91
632.57	663.31
632.91	658.94
633.26	654.65
633.60	649.99
633.95	645.42
634.29	640.72
634.64	636.18
634.98	631.48
635.32	627.01
635.67	622.97
636.01	618.95
636.36	614.77
636.70	610.53
637.05	606.47
637.39	602.41
637.73	598.40
638.08	594.56
638.42	590.42
638.77	586.22
639.11	581.97
639.45	577.63
639.80	573.33
640.14	569.19
640.49	565.18
640.83	561.48
641.17	557.90
641.52	554.27
641.86	550.68
642.20	547.68
642.55	544.03
642.89	540.22
643.23	536.52
643.58	533.25
643.92	529.55
644.26	526.06
644.61	522.75
644.95	519.30
645.29	515.85
645.64	512.70
645.98	509.56
646.32	506.63
646.66	503.66
647.01	500.83
647.35	498.08
647.69	494.95
648.04	492.12
648.38	489.22
648.72	486.25
649.06	483.35
649.41	480.16
649.75	477.23
650.09	474.54
650.43	471.79
650.78	468.85
651.12	466.22
651.46	463.37
651.80	460.50
652.14	457.83
652.49	455.31
652.83	452.77
653.17	450.17
653.51	447.56
653.85	445.19
654.20	442.64
654.54	439.96
654.88	437.57
655.22	435.23
655.56	432.85
655.90	430.55
656.25	428.26
656.59	426.05
656.93	423.81
657.27	421.73
657.61	419.44
657.95	417.15
658.29	415.01
658.64	412.99
658.98	410.82
659.32	408.52
659.66	406.31
660.00	404.20
660.34	402.00
660.68	400.07
661.02	397.99
661.36	396.00
661.70	394.13
662.05	392.28
662.39	390.30
662.73	388.50
663.07	386.85
663.41	385.04
663.75	383.19
664.09	381.51
664.43	379.51
664.77	377.78
665.11	376.08
665.45	374.30
665.79	372.65
666.13	370.92
666.47	369.27
666.81	367.67
667.15	365.87
667.49	364.41
667.83	362.97
668.17	361.47
668.51	360.08
668.85	358.64
669.19	357.48
669.53	355.94
669.87	354.39
670.21	352.86
670.55	351.51
670.89	350.34
671.23	348.90
671.57	347.61
671.91	346.28
672.25	345.02
672.58	343.90
672.92	342.45
673.26	341.19
673.60	340.07
673.94	338.84
674.28	337.89
674.62	336.80
674.96	335.47
675.30	334.34
675.64	333.09
675.97	331.85
676.31	330.37
676.65	329.26
676.99	328.40
677.33	327.16
677.67	326.13
678.01	324.86
678.34	323.84
678.68	322.92
679.02	321.85
679.36	320.83
679.70	319.72
680.04	318.81
680.37	317.90
680.71	316.95
681.05	316.04
681.39	315.09
681.73	314.12
682.06	313.28
682.40	312.43
682.74	311.63
683.08	311.03
683.42	310.16
683.75	309.39
684.09	308.30
684.43	307.63
684.77	306.77
685.10	305.92
685.44	305.20
685.78	304.23
686.12	303.46
686.45	302.62
686.79	301.90
687.13	301.17
687.46	300.50
687.80	299.80
688.14	298.98
688.48	298.18
688.81	297.42
689.15	296.78
689.49	295.97
689.82	295.26
690.16	294.35
690.50	293.69
690.83	292.89
691.17	292.18
691.51	291.44
691.84	290.77
692.18	290.10
692.52	289.40
692.85	288.89
693.19	288.48
693.52	287.95
693.86	287.25
694.20	286.60
694.53	285.94
694.87	285.28
695.21	284.68
695.54	284.13
695.88	283.47
696.21	282.67
696.55	282.09
696.88	281.49
697.22	280.81
697.56	280.24
697.89	279.61
698.23	279.14
698.56	278.59
698.90	278.06
699.23	277.55
699.57	277.07
699.90	276.47
700.24	275.75
700.58	275.20
700.91	274.81
701.25	274.67
701.58	274.44
701.92	274.09
702.25	273.66
702.59	273.09
702.92	272.62
703.26	272.25
703.59	271.85
703.93	271.84
704.26	271.54
704.60	271.12
704.93	270.74
705.26	270.24
705.60	269.86
705.93	269.37
706.27	269.04
706.60	268.67
706.94	268.53
707.27	268.19
707.61	267.80
707.94	267.34
708.27	266.56
708.61	265.91
708.94	265.44
709.28	265.07
709.61	264.72
709.94	264.40
710.28	264.18
710.61	263.75
710.95	262.90
711.28	262.85
711.61	262.46
711.95	262.22
712.28	261.87
712.61	261.53
712.95	261.41
713.28	261.25
713.61	260.84
713.95	260.27
714.28	259.98
714.61	259.56
714.95	259.21
715.28	258.83
715.61	258.45
715.95	258.20
716.28	257.81
716.61	257.56
716.95	257.19
717.28	256.75
717.61	256.46
717.94	256.11
718.28	255.46
718.61	255.20
718.94	254.85
719.27	254.55
719.61	254.31
719.94	253.90
720.27	253.42
720.60	253.09
720.94	252.92
721.27	252.70
721.60	252.60
721.93	252.35
722.27	252.44
722.60	252.31
722.93	252.00
723.26	251.81
723.59	251.55
723.93	251.44
724.26	251.32
724.59	251.04
724.92	250.97
725.25	250.91
725.59	250.72
725.92	250.61
726.25	250.43
726.58	250.27
726.91	250.11
727.24	249.97
727.57	249.78
727.91	249.50
728.24	249.29
728.57	249.02
728.90	249.00
729.23	248.60
729.56	248.65
729.89	248.44
730.22	248.29
730.55	248.09
730.89	247.85
731.22	247.59
731.55	247.51
731.88	247.36
732.21	247.10
732.54	246.89
732.87	246.64
733.20	246.50
733.53	246.25
733.86	246.15
734.19	245.97
734.52	245.88
734.85	246.03
735.18	245.75
735.51	245.72
735.84	245.52
736.17	245.51
736.50	245.03
736.83	245.49
737.16	245.35
737.49	245.24
737.82	245.11
738.15	245.06
738.48	244.93
738.81	244.70
739.14	244.52
739.47	244.30
739.80	244.13
740.13	244.03
740.46	243.90
740.79	243.63
741.12	243.43
741.45	243.24
741.78	242.87
742.11	242.92
742.44	242.76
742.77	242.63
743.10	242.39
743.43	242.30
743.75	241.61
744.08	242.05
744.41	241.88
744.74	241.65
745.07	241.40
745.40	241.31
745.73	241.45
746.06	241.32
746.39	241.27
746.71	241.14
747.04	240.88
747.37	240.69
747.70	240.67
748.03	240.60
748.36	240.58
748.68	240.40
749.01	240.11
749.34	239.93
749.67	239.81
750.00	239.81
750.33	240.01
750.65	239.97
750.98	239.25
751.31	239.11
751.64	239.10
751.97	239.29
752.29	239.08
752.62	238.70
752.95	238.60
753.28	238.41
753.60	238.34
753.93	238.44
754.26	238.44
754.59	238.15
754.91	237.97
755.24	237.82
755.57	237.79
755.90	237.69
756.22	237.59
756.55	237.48
756.88	237.15
757.20	236.78
757.53	236.56
757.86	236.48
758.19	236.46
758.51	236.25
758.84	235.90
759.17	235.85
759.49	235.85
759.82	235.95
760.15	236.00
760.47	235.85
760.80	235.58
761.13	235.56
761.45	235.47
761.78	235.48
762.11	235.45
762.43	235.25
762.76	235.19
763.08	235.10
763.41	235.04
763.74	235.10
764.06	234.97
764.39	234.94
764.71	234.87
765.04	234.67
765.37	234.63
765.69	234.55
766.02	234.43
766.34	234.20
766.67	233.97
767.00	233.87
767.32	234.07
767.65	234.31
767.97	234.18
768.30	234.15
768.62	234.10
768.95	233.95
769.27	233.86
769.60	233.86
769.92	233.76
770.25	233.58
770.57	233.38
770.90	233.26
771.22	233.12
771.55	233.07
771.87	233.15
772.20	233.10
772.52	233.41
772.85	233.92
773.17	233.90
773.50	233.87
773.82	233.75
774.15	233.41
774.47	233.05
774.80	232.99
775.12	232.85
775.45	232.73
775.77	232.70
776.09	232.76
776.42	232.75
776.74	232.75
777.07	232.71
777.39	232.64
777.72	232.62
778.04	232.66
778.36	232.54
778.69	232.44
779.01	232.40
779.33	232.01
779.66	231.40
779.98	231.33
780.31	231.25
780.63	231.50
780.95	231.54
781.28	231.42
781.60	231.28
781.92	231.34
782.25	231.25
782.57	231.20
782.89	231.05
783.22	230.95
783.54	230.89
783.86	230.87
784.19	230.80
784.51	230.90
784.83	230.75
785.16	230.65
785.48	230.58
785.80	230.51
786.12	230.40
786.45	230.35
786.77	230.39
787.09	230.30
787.42	229.95
787.74	229.94
788.06	230.02
788.38	229.90
788.71	229.77
789.03	229.82
789.35	229.80
789.67	229.71
789.99	229.68
790.32	229.52
790.64	229.53
790.96	229.95
791.28	229.69
791.61	229.67
791.93	229.69
792.25	229.63
792.57	229.99
792.89	229.95
793.21	229.93
793.54	229.82
793.86	229.79
794.18	229.88
794.50	229.75
794.82	229.70
795.14	229.81
795.47	229.88
795.79	229.76
796.11	229.61
796.43	229.62
796.75	229.53
797.07	229.56
797.39	229.45
797.71	229.09
798.04	229.14
798.36	229.16
798.68	229.17
799.00	229.23
799.32	228.97
799.64	229.00
799.96	229.03
800.28	229.06
800.60	229.04
800.92	229.08
801.24	229.07
801.56	229.09
801.89	229.07
802.21	229.10
802.53	229.04
802.85	229.17
803.17	229.41
803.49	229.41
803.81	229.38
804.13	229.42
804.45	229.37
804.77	229.46
805.09	229.39
805.41	229.40
805.73	229.33
806.05	229.18
806.37	229.18
806.69	229.15
807.01	229.20
807.33	229.20
807.65	229.00
807.97	229.21
808.28	229.15
808.60	229.13
808.92	229.11
809.24	229.44
809.56	229.36
809.88	229.13
810.20	229.16
810.52	229.26
810.84	229.21
811.16	229.14
811.48	229.10
811.80	229.35
812.12	229.26
812.43	229.31
812.75	229.35
813.07	229.30
813.39	229.32
813.71	229.21
814.03	229.18
814.35	229.20
814.67	229.00
814.98	229.01
815.30	228.98
815.62	228.87
815.94	228.46
816.26	228.64
816.58	228.56
816.89	228.54
817.21	228.48
817.53	228.49
817.85	228.48
818.17	228.36
818.48	228.17
818.80	228.31
819.12	228.23
819.44	228.11
819.76	228.10
820.07	228.01
820.39	228.01
820.71	228.07
821.03	228.06
821.34	228.04
821.66	228.06
821.98	228.09
822.30	228.04
822.61	228.37
822.93	228.19
823.25	228.23
823.57	228.17
823.88	228.23
824.20	228.23
824.52	228.33
824.83	228.37
825.15	228.28
825.47	228.23
825.79	228.22
826.10	228.22
826.42	228.14
826.74	228.20
827.05	228.19
827.37	228.16
827.69	228.11
828.00	228.05
828.32	227.98
828.64	227.94
828.95	228.21
829.27	228.09
829.58	228.02
829.90	228.06
830.22	228.15
830.53	227.97
830.85	227.90
831.17	227.71
831.48	227.78
831.80	227.75
832.11	227.67
832.43	227.66
832.75	227.61
833.06	227.86
833.38	227.68
833.69	227.65
834.01	227.62
834.32	227.55
834.64	227.50
834.96	227.45
835.27	227.32
835.59	227.17
835.90	227.05
836.22	226.99
836.53	226.91
836.85	226.79
837.16	227.24
837.48	227.27
837.79	227.47
838.11	227.37
838.42	227.36
838.74	227.42
839.05	227.40
839.37	227.45
839.68	227.23
840.00	227.29
840.31	227.34
840.63	227.27
840.94	227.26
841.26	227.23
841.57	227.27
841.88	227.39
842.20	227.32
842.51	227.25
842.83	227.25
843.14	227.59
843.46	227.60
843.77	227.47
844.08	227.39
844.40	227.25
844.71	227.29
845.03	227.34
845.34	227.25
845.65	227.28
845.97	227.21
846.28	227.16
846.60	227.19
846.91	227.10
847.22	227.10
847.54	227.22
847.85	227.27
848.16	227.20
848.48	227.10
848.79	227.23
849.10	227.36
849.42	227.41
849.73	227.06
850.04	227.09
850.36	226.82
850.67	226.91
850.98	226.91
851.30	226.84
851.61	226.80
851.92	226.84
852.23	226.90
852.55	226.97
852.86	227.07
853.17	227.13
853.49	227.23
853.80	227.39
854.11	227.44
854.42	227.50
854.74	227.49
855.05	227.53
855.36	227.36
855.67	227.29
855.99	227.36
856.30	227.95
856.61	227.97
856.92	227.99
857.23	228.06
857.55	228.04
857.86	228.08
858.17	228.16
858.48	228.06
858.79	227.96
859.11	227.98
859.42	227.93
859.73	227.80
860.04	227.78
860.35	227.57
860.66	227.38
860.98	227.39
861.29	227.49
861.60	227.46
861.91	227.52
862.22	227.52
862.53	227.48
862.84	226.85
863.16	226.89
863.47	226.78
863.78	226.58
864.09	226.63
864.40	226.63
864.71	226.63
865.02	226.78
865.33	226.76
865.64	226.69
865.95	226.62
866.27	226.92
866.58	226.84
866.89	226.94
867.20	226.91
867.51	226.73
867.82	226.62
868.13	226.67
868.44	226.54
868.75	226.55
869.06	226.47
869.37	226.55
869.68	226.40
869.99	226.51
870.30	226.56
870.61	226.55
870.92	226.52
871.23	226.36
871.54	226.34
871.85	226.40
872.16	226.39
872.47	226.38
872.78	226.08
873.09	226.16
873.40	226.07
873.71	226.10
874.02	226.17
874.33	226.15
874.64	226.06
874.95	226.16
875.26	226.07
875.56	226.03
875.87	225.98
876.18	225.92
876.49	226.33
876.80	226.32
877.11	226.23
877.42	226.19
877.73	226.21
878.04	226.14
878.35	226.10
878.66	226.13
878.96	226.15
879.27	226.17
879.58	226.13
879.89	226.10
880.20	226.28
880.51	226.31
880.82	226.36
881.12	226.43
881.43	226.39
881.74	226.35
882.05	226.33
882.36	226.37
882.67	226.49
882.97	226.06
883.28	226.09
883.59	226.03
883.90	226.07
884.21	226.23
884.51	226.23
884.82	226.22
885.13	226.28
885.44	226.31
885.74	226.30
886.05	226.30
886.36	226.34
886.67	226.12
886.98	226.33
887.28	226.32
887.59	226.33
887.90	226.35
888.20	226.37
888.51	226.48
888.82	226.41
889.13	226.45
889.43	226.85
889.74	226.85
890.05	226.97
890.35	226.99
890.66	226.87
890.97	226.85
891.28	226.80
891.58	226.77
891.89	226.76
892.20	226.72
892.50	226.63
892.81	226.65
893.12	226.72
893.42	226.51
893.73	226.60
894.04	226.65
894.34	226.70
894.65	226.69
894.95	226.63
895.26	226.62
895.57	226.85
895.87	226.39
896.18	226.45
896.48	226.43
896.79	226.38
897.10	226.44
897.40	226.45
897.71	226.53
898.01	226.55
898.32	226.64
898.63	226.67
898.93	226.81
899.24	226.81
899.54	226.76
899.85	226.75
900.15	226.68
900.46	226.63
900.76	226.70
901.07	226.68
901.38	226.71
901.68	226.83
901.99	226.55
902.29	226.60
902.60	226.59
902.90	226.58
903.21	226.56
903.51	226.60
903.82	226.75
904.12	226.76
904.43	226.78
904.73	226.72
905.03	226.77
905.34	227.19
905.64	227.17
905.95	227.17
906.25	227.18
906.56	227.13
906.86	227.13
907.17	227.00
907.47	227.07
907.77	227.00
908.08	226.82
908.38	226.83
908.69	226.84
908.99	226.88
909.30	226.89
909.60	226.89
909.90	226.82
910.21	226.66
910.51	226.52
910.81	226.45
911.12	226.45
911.42	226.49
911.73	225.97
912.03	225.95
912.33	226.02
912.64	225.96
912.94	225.95
913.24	225.90
913.55	225.84
913.85	225.78
914.15	225.91
914.46	225.99
914.76	225.94
915.06	225.87
915.37	225.80
915.67	225.76
915.97	225.81
916.27	225.72
916.58	225.76
916.88	225.84
917.18	225.79
917.49	226.06
917.79	226.06
918.09	226.13
918.39	226.27
918.70	226.20
919.00	226.24
919.30	226.52
919.60	226.50
919.91	226.49
920.21	226.47
920.51	226.37
920.81	226.35
921.12	226.45
921.42	226.48
921.72	226.50
922.02	226.58
922.32	226.60
922.63	226.60
922.93	226.79
923.23	226.76
923.53	226.71
923.83	226.44
924.13	226.45
924.44	226.48
924.74	226.56
925.04	226.76
925.34	226.81
925.64	226.55
925.94	226.60
926.24	226.90
926.55	226.90
926.85	226.98
927.15	227.00
927.45	226.99
927.75	227.00
928.05	227.00
928.35	226.89
928.65	226.93
928.95	227.00
929.26	226.84
929.56	226.96
929.86	227.11
930.16	227.06
930.46	226.99
930.76	227.01
931.06	226.81
931.36	226.76
931.66	226.75
931.96	226.82
932.26	226.85
932.56	226.64
932.86	226.67
933.16	226.66
933.46	226.66
933.76	226.61
934.06	226.72
934.36	226.92
934.66	226.94
934.96	226.87
935.26	226.88
935.56	226.94
935.86	226.82
936.16	226.73
936.46	226.69
936.76	226.65
937.06	226.50
937.36	226.55
937.66	226.52
937.96	226.53
938.26	226.44
938.56	226.39
938.86	226.44
939.16	226.61
939.46	226.66
939.76	226.66
940.06	226.65
940.35	226.47
940.65	226.19
940.95	226.27
941.25	226.25
941.55	226.20
941.85	226.13
942.15	226.30
942.45	226.42
942.75	226.44
943.04	226.51
943.34	226.65
943.64	226.57
943.94	226.54
944.24	226.56
944.54	226.58
944.84	226.53
945.13	226.43
945.43	226.21
945.73	226.18
946.03	226.13
946.33	226.11
946.62	226.16
946.92	226.14
947.22	226.10
947.52	226.09
947.82	226.12
948.11	226.01
948.41	225.81
948.71	225.63
949.01	225.65
949.31	225.60
949.60	225.55
949.90	225.65
950.20	225.53
950.50	225.47
950.79	225.48
951.09	225.56
951.39	225.63
951.69	225.62
951.98	225.69
952.28	225.72
952.58	225.63
952.87	225.57
953.17	225.67
953.47	225.62
953.76	225.62
954.06	225.55
954.36	225.55
954.66	225.58
954.95	225.65
955.25	225.67
955.55	225.67
955.84	225.63
956.14	225.67
956.44	225.68
956.73	225.55
957.03	225.55
957.32	225.58
957.62	225.55
957.92	225.71
958.21	225.61
958.51	226.14
958.81	226.25
959.10	226.35
959.40	226.42
959.69	226.46
959.99	226.50
960.29	226.59
960.58	226.62
960.88	226.82
961.17	226.82
961.47	226.94
961.76	226.84
962.06	226.91
962.36	226.88
962.65	227.00
962.95	227.16
963.24	227.11
963.54	227.10
963.83	227.10
964.13	227.00
964.42	226.95
964.72	226.63
965.01	226.64
965.31	226.63
965.60	226.49
965.90	226.85
966.19	226.81
966.49	226.86
966.78	226.88
967.08	226.83
967.37	226.89
967.67	226.72
967.96	226.88
968.26	226.83
968.55	226.89
968.85	226.75
969.14	226.74
969.43	226.74
969.73	226.65
970.02	226.61
970.32	226.62
970.61	226.59
970.91	226.43
971.20	226.41
971.49	226.33
971.79	226.46
972.08	226.06
972.38	226.09
972.67	226.03
972.96	226.11
973.26	226.02
973.55	226.22
973.85	226.25
974.14	226.22
974.43	226.30
974.73	226.20
975.02	226.27
975.31	226.25
975.61	226.32
975.90	226.30
976.19	226.28
976.49	226.29
976.78	226.35
977.07	226.26
977.37	226.27
977.66	226.35
977.95	226.30
978.24	226.38
978.54	226.47
978.83	226.43
979.12	226.36
979.42	226.34
979.71	226.18
980.00	226.14
980.29	226.22
980.59	226.16
980.88	226.29
981.17	226.25
981.46	226.26
981.76	226.25
982.05	226.44
982.34	226.52
982.63	226.54
982.93	226.59
983.22	226.83
983.51	226.81
983.80	226.83
984.09	226.87
984.39	226.78
984.68	226.64
984.97	226.65
985.26	226.58
985.55	226.65
985.85	226.59
986.14	226.65
986.43	226.65
986.72	226.61
987.01	226.46
987.30	226.45
987.59	226.46
987.89	226.46
988.18	226.27
988.47	226.19
988.76	226.15
989.05	226.05
989.34	225.95
989.63	226.08
989.92	225.99
990.22	225.90
990.51	225.91
990.80	225.98
991.09	226.02
991.38	226.11
991.67	226.09
991.96	226.05
992.25	226.03
992.54	225.98
992.83	225.99
993.12	225.93
993.41	226.03
993.70	226.20
993.99	226.27
994.28	226.36
994.58	226.44
994.87	226.38
995.16	226.40
995.45	226.35
995.74	226.20
996.03	226.33
996.32	226.33
996.61	226.44
996.90	226.41
997.19	226.34
997.48	226.36
997.77	226.30
998.06	226.31
998.34	226.30
998.63	226.19
998.92	226.17
999.21	226.25
999.50	226.19
999.79	225.99
1000.08	225.97
1000.37	225.97
1000.66	225.91
1000.95	226.03
1001.24	226.06
1001.53	226.11
1001.82	226.10
1002.11	225.99
1002.40	226.07
1002.68	226.19
1002.97	226.54
1003.26	226.53
1003.55	226.45
1003.84	226.47
1004.13	226.70
1004.42	226.70
1004.71	226.76
1004.99	226.73
1005.28	226.86
1005.57	226.98
1005.86	226.94
1006.15	226.92
1006.44	226.85
1006.72	226.88
1007.01	226.77
1007.30	226.75
1007.59	226.65
1007.88	226.64
1008.17	226.65
1008.45	226.57
1008.74	226.30
1009.03	226.12
1009.32	226.15
1009.60	226.12
1009.89	226.07
1010.18	225.80
1010.47	225.77
1010.76	225.80
1011.04	225.79
1011.33	225.85
1011.62	225.78
1011.91	225.87
1012.19	225.85
1012.48	225.82
1012.77	225.84
1013.05	226.14
1013.34	226.11
1013.63	226.14
1013.92	226.19
1014.20	226.25
1014.49	226.25
1014.78	226.31
1015.06	226.10
1015.35	226.06
1015.64	226.16
1015.92	226.28
1016.21	226.31
1016.50	226.31
1016.78	226.37
1017.07	226.39
1017.36	226.22
1017.64	226.13
1017.93	226.13
1018.22	226.09
1018.50	226.13
1018.79	226.13
1019.08	225.83
1019.36	225.87
1019.65	225.82
1019.93	225.94
1020.22	225.90
1020.51	226.17
1020.79	226.14
1021.08	224.60
1021.36	225.35
1021.65	226.50
1021.94	224.75
1022.22	226.15
1022.51	225.25
1022.79	228.20
1023.08	226.10
1023.36	231.55
1023.65	224.75
>>>>>End Processed Spectral Data<<<<<
