SpectraSuite Data File
++++++++++++++++++++++++++++++++++++
Date: Wed Sep 04 17:51:18 EDT 2013
User: lab3
Dark Spectrum Present: Yes
Reference Spectrum Present: No
Number of Sampled Component Spectra: 1
Spectrometers: USB2E7196
Integration Time (usec): 170000 (USB2E7196)
Spectra Averaged: 20 (USB2E7196)
Boxcar Smoothing: 10 (USB2E7196)
Correct for Electrical Dark: No (USB2E7196)
Strobe/Lamp Enabled: No (USB2E7196)
Correct for Detector Non-linearity: No (USB2E7196)
Correct for Stray Light: No (USB2E7196)
Number of Pixels in Processed Spectrum: 2048
>>>>>Begin Processed Spectral Data<<<<<
339.09	0.00
339.48	212.10
339.86	213.95
340.24	215.65
340.63	216.60
341.01	225.15
341.39	219.80
341.78	221.85
342.16	224.50
342.54	223.20
342.93	211.95
343.31	222.61
343.69	223.16
344.07	223.65
344.46	224.16
344.84	224.59
345.22	224.65
345.60	224.92
345.99	225.10
346.37	225.14
346.75	225.23
347.13	225.30
347.52	225.40
347.90	225.50
348.28	225.54
348.66	225.68
349.05	225.64
349.43	225.76
349.81	225.90
350.19	226.01
350.57	226.10
350.96	226.19
351.34	226.33
351.72	226.48
352.10	226.55
352.48	226.58
352.87	226.65
353.25	226.64
353.63	226.70
354.01	226.78
354.39	226.90
354.77	226.99
355.15	227.17
355.54	227.21
355.92	227.15
356.30	227.18
356.68	227.54
357.06	227.59
357.44	227.57
357.82	227.63
358.20	228.12
358.58	228.16
358.97	228.28
359.35	228.41
359.73	228.57
360.11	228.66
360.49	228.69
360.87	228.69
361.25	228.75
361.63	228.91
362.01	229.02
362.39	228.96
362.77	229.05
363.15	229.09
363.53	229.04
363.91	229.22
364.29	229.24
364.67	228.81
365.05	228.85
365.43	228.90
365.81	228.95
366.19	228.74
366.57	228.93
366.95	228.89
367.33	228.77
367.71	228.80
368.09	228.87
368.47	228.86
368.85	228.88
369.23	229.00
369.61	228.86
369.99	228.95
370.37	229.09
370.75	229.27
371.13	229.11
371.51	229.06
371.89	228.98
372.27	228.98
372.65	228.94
373.03	228.96
373.41	228.88
373.78	228.83
374.16	228.60
374.54	228.39
374.92	228.36
375.30	228.38
375.68	228.22
376.06	228.20
376.44	228.18
376.82	228.22
377.19	228.21
377.57	228.15
377.95	227.90
378.33	227.73
378.71	227.45
379.09	227.48
379.47	227.49
379.84	227.40
380.22	227.31
380.60	227.20
380.98	227.01
381.36	227.02
381.73	226.84
382.11	226.86
382.49	226.84
382.87	226.75
383.25	226.68
383.62	227.12
384.00	226.95
384.38	226.85
384.76	226.80
385.13	226.87
385.51	226.85
385.89	226.76
386.27	226.76
386.64	226.72
387.02	226.59
387.40	226.47
387.78	226.41
388.15	226.34
388.53	226.32
388.91	226.29
389.29	226.19
389.66	226.29
390.04	226.16
390.42	226.14
390.79	226.15
391.17	226.07
391.55	225.52
391.92	225.50
392.30	225.61
392.68	225.49
393.05	225.44
393.43	225.38
393.81	225.43
394.18	225.36
394.56	225.36
394.94	225.49
395.31	225.46
395.69	225.65
396.06	225.80
396.44	225.90
396.82	225.90
397.19	226.21
397.57	226.18
397.95	226.36
398.32	226.36
398.70	226.42
399.07	226.64
399.45	226.74
399.82	226.85
400.20	226.85
400.58	226.95
400.95	226.84
401.33	227.05
401.70	227.50
402.08	227.74
402.45	227.94
402.83	228.15
403.20	228.34
403.58	228.46
403.95	228.64
404.33	228.82
404.71	229.05
405.08	229.45
405.46	229.68
405.83	229.91
406.21	230.16
406.58	230.44
406.96	230.68
407.33	231.00
407.70	231.40
408.08	232.05
408.45	232.51
408.83	233.02
409.20	233.43
409.58	233.59
409.95	234.13
410.33	234.70
410.70	235.06
411.08	235.76
411.45	236.40
411.82	237.07
412.20	237.85
412.57	238.89
412.95	239.30
413.32	240.21
413.69	241.07
414.07	241.99
414.44	242.97
414.82	243.98
415.19	245.17
415.56	246.37
415.94	247.48
416.31	248.95
416.68	250.29
417.06	251.94
417.43	253.58
417.81	255.27
418.18	257.00
418.55	258.95
418.93	260.93
419.30	262.98
419.67	265.14
420.04	267.35
420.42	269.68
420.79	272.78
421.16	275.55
421.54	278.57
421.91	281.53
422.28	284.54
422.66	287.84
423.03	291.29
423.40	294.59
423.77	298.06
424.15	301.56
424.52	305.35
424.89	309.42
425.26	313.37
425.64	317.16
426.01	321.30
426.38	325.66
426.75	330.16
427.13	334.72
427.50	339.38
427.87	344.24
428.24	349.03
428.61	353.39
428.99	358.58
429.36	363.94
429.73	369.41
430.10	374.95
430.47	380.56
430.85	386.03
431.22	392.05
431.59	398.85
431.96	405.08
432.33	411.88
432.70	418.50
433.08	426.19
433.45	433.55
433.82	440.95
434.19	449.04
434.56	457.19
434.93	464.83
435.30	472.64
435.68	481.04
436.05	489.45
436.42	497.75
436.79	505.53
437.16	513.87
437.53	522.60
437.90	531.24
438.27	539.91
438.64	548.76
439.01	557.21
439.38	564.15
439.75	571.30
440.13	579.40
440.50	586.91
440.87	593.17
441.24	599.45
441.61	606.38
441.98	611.62
442.35	617.29
442.72	623.07
443.09	628.89
443.46	632.38
443.83	634.68
444.20	636.62
444.57	639.31
444.94	640.38
445.31	641.45
445.68	642.75
446.05	642.73
446.42	641.52
446.79	640.06
447.16	638.69
447.53	637.47
447.90	633.85
448.27	630.03
448.64	625.02
449.01	621.40
449.37	615.36
449.74	609.22
450.11	602.39
450.48	594.89
450.85	586.94
451.22	580.17
451.59	573.60
451.96	567.37
452.33	559.28
452.70	551.92
453.07	543.35
453.43	534.31
453.80	526.06
454.17	517.99
454.54	510.30
454.91	502.11
455.28	494.12
455.65	486.54
456.02	479.95
456.38	473.60
456.75	465.84
457.12	459.32
457.49	453.08
457.86	446.76
458.23	441.59
458.59	435.86
458.96	430.14
459.33	425.03
459.70	419.89
460.07	415.73
460.43	411.13
460.80	406.97
461.17	403.36
461.54	399.34
461.91	395.65
462.27	391.80
462.64	388.53
463.01	384.90
463.38	381.75
463.74	377.79
464.11	374.81
464.48	372.29
464.85	369.41
465.21	367.24
465.58	365.02
465.95	362.23
466.32	359.98
466.68	357.78
467.05	355.70
467.42	353.63
467.78	351.39
468.15	349.22
468.52	347.63
468.88	345.33
469.25	343.42
469.62	341.97
469.98	340.44
470.35	338.98
470.72	337.60
471.08	335.97
471.45	334.72
471.82	333.59
472.18	332.06
472.55	331.03
472.92	329.77
473.28	328.56
473.65	327.52
474.02	326.48
474.38	325.62
474.75	324.77
475.11	323.89
475.48	323.28
475.85	322.66
476.21	321.90
476.58	321.55
476.94	321.15
477.31	320.65
477.67	320.26
478.04	319.93
478.41	319.74
478.77	320.02
479.14	319.64
479.50	319.38
479.87	319.47
480.23	319.47
480.60	319.50
480.96	319.55
481.33	319.90
481.69	320.09
482.06	320.30
482.42	320.62
482.79	320.89
483.15	321.37
483.52	321.98
483.88	322.48
484.25	322.94
484.61	323.60
484.98	324.26
485.34	325.02
485.71	325.96
486.07	326.80
486.44	327.34
486.80	328.48
487.17	329.62
487.53	331.00
487.90	332.43
488.26	334.11
488.62	335.74
488.99	337.18
489.35	339.01
489.72	340.88
490.08	342.89
490.44	344.93
490.81	347.11
491.17	349.28
491.54	351.73
491.90	354.24
492.26	357.01
492.63	359.81
492.99	362.72
493.36	365.70
493.72	369.17
494.08	372.64
494.45	376.30
494.81	380.26
495.17	384.04
495.54	388.11
495.90	392.18
496.26	396.57
496.63	401.30
496.99	406.03
497.35	411.12
497.72	416.38
498.08	421.76
498.44	427.42
498.80	433.49
499.17	439.55
499.53	445.94
499.89	452.54
500.26	459.35
500.62	466.18
500.98	473.63
501.34	480.94
501.71	488.56
502.07	496.48
502.43	504.57
502.79	512.92
503.16	521.63
503.52	530.56
503.88	539.89
504.24	549.53
504.60	559.71
504.97	569.87
505.33	580.06
505.69	591.16
506.05	602.02
506.41	613.05
506.78	624.68
507.14	636.67
507.50	648.94
507.86	661.53
508.22	674.57
508.59	687.48
508.95	701.10
509.31	715.31
509.67	729.40
510.03	743.78
510.39	758.37
510.75	773.32
511.12	788.63
511.48	804.22
511.84	819.91
512.20	835.66
512.56	851.95
512.92	868.87
513.28	885.69
513.64	903.04
514.00	920.80
514.37	938.42
514.73	956.60
515.09	974.75
515.45	992.99
515.81	1011.53
516.17	1030.39
516.53	1048.87
516.89	1067.37
517.25	1086.73
517.61	1106.63
517.97	1126.81
518.33	1146.66
518.69	1166.86
519.05	1187.24
519.41	1207.84
519.77	1228.63
520.13	1249.36
520.49	1269.91
520.85	1291.98
521.21	1312.87
521.57	1334.02
521.93	1354.76
522.29	1375.75
522.65	1396.39
523.01	1417.34
523.37	1437.79
523.73	1458.68
524.09	1479.18
524.45	1499.74
524.81	1520.45
525.17	1541.10
525.53	1561.63
525.89	1582.60
526.25	1603.23
526.61	1623.34
526.97	1644.00
527.33	1665.11
527.68	1686.77
528.04	1707.94
528.40	1727.55
528.76	1748.78
529.12	1768.92
529.48	1789.83
529.84	1809.70
530.20	1830.71
530.56	1851.29
530.91	1872.23
531.27	1892.35
531.63	1913.01
531.99	1933.45
532.35	1953.20
532.71	1973.20
533.07	1993.89
533.42	2013.57
533.78	2033.31
534.14	2053.16
534.50	2072.32
534.86	2091.35
535.21	2108.74
535.57	2126.68
535.93	2144.14
536.29	2161.45
536.65	2179.74
537.00	2196.84
537.36	2214.58
537.72	2230.87
538.08	2247.64
538.44	2264.12
538.79	2280.33
539.15	2296.60
539.51	2312.57
539.87	2327.79
540.22	2341.50
540.58	2355.55
540.94	2368.80
541.29	2381.23
541.65	2393.40
542.01	2405.32
542.37	2415.28
542.72	2426.01
543.08	2436.54
543.44	2448.30
543.79	2457.99
544.15	2467.60
544.51	2477.68
544.87	2486.76
545.22	2495.30
545.58	2502.94
545.94	2510.03
546.29	2516.56
546.65	2522.88
547.01	2528.67
547.36	2534.30
547.72	2539.97
548.07	2543.46
548.43	2548.50
548.79	2553.06
549.14	2557.23
549.50	2561.52
549.86	2565.85
550.21	2569.54
550.57	2573.19
550.92	2574.21
551.28	2575.61
551.64	2577.85
551.99	2579.24
552.35	2580.66
552.70	2582.61
553.06	2584.52
553.41	2585.76
553.77	2587.63
554.13	2588.98
554.48	2589.95
554.84	2590.95
555.19	2591.89
555.55	2593.66
555.90	2592.91
556.26	2592.10
556.61	2590.44
556.97	2587.57
557.32	2587.01
557.68	2585.63
558.03	2583.88
558.39	2582.16
558.74	2581.06
559.10	2577.59
559.45	2573.97
559.81	2569.46
560.16	2564.02
560.52	2558.69
560.87	2554.21
561.23	2548.56
561.58	2542.49
561.94	2535.92
562.29	2528.58
562.64	2521.56
563.00	2513.38
563.35	2506.49
563.71	2499.97
564.06	2493.90
564.42	2487.74
564.77	2480.55
565.12	2473.29
565.48	2465.50
565.83	2457.60
566.19	2449.89
566.54	2441.83
566.89	2434.18
567.25	2426.62
567.60	2419.63
567.96	2412.14
568.31	2403.92
568.66	2395.38
569.02	2386.48
569.37	2378.16
569.72	2370.72
570.08	2361.48
570.43	2352.22
570.78	2343.28
571.14	2333.93
571.49	2323.38
571.84	2314.24
572.20	2303.47
572.55	2292.94
572.90	2282.02
573.26	2271.81
573.61	2260.78
573.96	2249.70
574.31	2237.53
574.67	2225.63
575.02	2213.19
575.37	2200.76
575.72	2187.51
576.08	2175.45
576.43	2162.88
576.78	2149.76
577.13	2135.87
577.49	2123.32
577.84	2111.48
578.19	2099.70
578.54	2087.09
578.90	2075.42
579.25	2062.71
579.60	2050.35
579.95	2037.84
580.30	2024.95
580.66	2011.93
581.01	1998.34
581.36	1984.56
581.71	1972.07
582.06	1959.19
582.42	1946.55
582.77	1934.00
583.12	1922.38
583.47	1910.18
583.82	1898.27
584.17	1886.23
584.53	1874.76
584.88	1861.96
585.23	1848.74
585.58	1834.60
585.93	1821.26
586.28	1808.16
586.63	1794.31
586.98	1780.15
587.34	1766.94
587.69	1753.97
588.04	1741.22
588.39	1729.12
588.74	1717.20
589.09	1705.29
589.44	1692.83
589.79	1680.97
590.14	1669.12
590.49	1656.77
590.84	1645.05
591.19	1633.21
591.54	1621.02
591.89	1608.52
592.25	1598.25
592.60	1586.80
592.95	1575.38
593.30	1563.59
593.65	1551.60
594.00	1539.73
594.35	1530.06
594.70	1518.45
595.05	1507.12
595.40	1495.35
595.75	1483.96
596.10	1472.93
596.45	1461.54
596.80	1450.70
597.15	1439.39
597.50	1427.50
597.85	1416.32
598.19	1404.36
598.54	1392.83
598.89	1381.71
599.24	1371.62
599.59	1360.21
599.94	1349.41
600.29	1339.10
600.64	1329.12
600.99	1318.52
601.34	1309.33
601.69	1298.30
602.04	1288.59
602.39	1279.13
602.74	1270.26
603.08	1260.70
603.43	1251.30
603.78	1241.79
604.13	1232.57
604.48	1222.91
604.83	1213.41
605.18	1203.68
605.53	1194.41
605.87	1185.33
606.22	1176.95
606.57	1167.65
606.92	1158.12
607.27	1149.33
607.62	1140.82
607.96	1132.16
608.31	1124.46
608.66	1115.78
609.01	1107.35
609.36	1098.69
609.70	1090.00
610.05	1081.27
610.40	1072.80
610.75	1064.16
611.10	1055.66
611.44	1046.88
611.79	1038.67
612.14	1031.02
612.49	1023.62
612.83	1016.10
613.18	1008.43
613.53	1000.79
613.88	992.96
614.22	985.58
614.57	977.84
614.92	970.02
615.27	962.61
615.61	955.00
615.96	947.49
616.31	940.20
616.65	933.36
617.00	926.25
617.35	919.08
617.70	912.07
618.04	905.17
618.39	898.51
618.74	892.40
619.08	885.70
619.43	878.70
619.78	871.30
620.12	864.10
620.47	857.36
620.82	850.23
621.16	843.43
621.51	837.00
621.85	830.82
622.20	824.20
622.55	817.55
622.89	811.14
623.24	804.83
623.59	798.50
623.93	792.00
624.28	785.86
624.62	780.35
624.97	774.74
625.32	768.93
625.66	762.87
626.01	756.44
626.35	750.96
626.70	745.52
627.04	740.35
627.39	734.95
627.73	729.59
628.08	724.48
628.43	719.17
628.77	713.73
629.12	708.30
629.46	703.57
629.81	699.01
630.15	694.30
630.50	689.43
630.84	684.41
631.19	679.76
631.53	675.16
631.88	669.76
632.22	664.74
632.57	660.22
632.91	655.62
633.26	651.45
633.60	646.74
633.95	642.03
634.29	637.44
634.64	632.96
634.98	628.30
635.32	624.09
635.67	620.15
636.01	616.11
636.36	612.01
636.70	607.98
637.05	603.67
637.39	599.45
637.73	595.42
638.08	591.54
638.42	587.43
638.77	583.31
639.11	579.12
639.45	574.81
639.80	570.49
640.14	566.45
640.49	562.44
640.83	558.79
641.17	555.18
641.52	551.55
641.86	548.10
642.20	544.94
642.55	541.11
642.89	537.37
643.23	533.85
643.58	530.63
643.92	527.04
644.26	523.65
644.61	520.59
644.95	517.48
645.29	514.05
645.64	510.90
645.98	507.75
646.32	504.92
646.66	502.05
647.01	499.20
647.35	496.58
647.69	493.74
648.04	490.84
648.38	488.00
648.72	485.20
649.06	482.26
649.41	479.15
649.75	476.32
650.09	473.45
650.43	470.60
650.78	467.79
651.12	464.92
651.46	462.25
651.80	459.32
652.14	456.58
652.49	454.24
652.83	451.74
653.17	449.19
653.51	446.53
653.85	444.01
654.20	441.54
654.54	438.78
654.88	436.28
655.22	434.13
655.56	431.84
655.90	429.56
656.25	427.35
656.59	425.26
656.93	423.04
657.27	421.12
657.61	418.83
657.95	416.55
658.29	414.44
658.64	412.36
658.98	410.12
659.32	407.85
659.66	405.61
660.00	403.57
660.34	401.56
660.68	399.55
661.02	397.56
661.36	395.62
661.70	393.73
662.05	391.83
662.39	389.83
662.73	387.98
663.07	386.27
663.41	384.33
663.75	382.41
664.09	380.63
664.43	378.68
664.77	377.09
665.11	375.32
665.45	373.66
665.79	372.15
666.13	370.59
666.47	368.92
666.81	367.29
667.15	365.61
667.49	364.13
667.83	362.85
668.17	361.41
668.51	359.97
668.85	358.70
669.19	357.48
669.53	355.92
669.87	354.37
670.21	352.77
670.55	351.40
670.89	350.26
671.23	349.02
671.57	347.54
671.91	346.15
672.25	344.92
672.58	343.76
672.92	342.30
673.26	341.03
673.60	339.84
673.94	338.66
674.28	337.56
674.62	336.35
674.96	334.96
675.30	333.86
675.64	332.61
675.97	331.34
676.31	330.02
676.65	328.73
676.99	327.86
677.33	326.67
677.67	325.65
678.01	324.37
678.34	323.23
678.68	322.43
679.02	321.35
679.36	320.30
679.70	319.19
680.04	318.23
680.37	317.24
680.71	316.31
681.05	315.44
681.39	314.46
681.73	313.51
682.06	312.60
682.40	311.68
682.74	310.86
683.08	310.13
683.42	309.18
683.75	308.49
684.09	307.51
684.43	306.74
684.77	305.91
685.10	305.09
685.44	304.24
685.78	303.33
686.12	302.59
686.45	301.77
686.79	300.95
687.13	300.22
687.46	299.46
687.80	298.86
688.14	298.02
688.48	297.26
688.81	296.49
689.15	295.87
689.49	295.10
689.82	294.39
690.16	293.59
690.50	293.06
690.83	292.28
691.17	291.55
691.51	290.96
691.84	290.28
692.18	289.54
692.52	288.87
692.85	288.29
693.19	287.86
693.52	287.29
693.86	286.66
694.20	286.05
694.53	285.52
694.87	284.74
695.21	284.11
695.54	283.55
695.88	282.89
696.21	282.16
696.55	281.55
696.88	280.99
697.22	280.33
697.56	279.67
697.89	279.16
698.23	278.74
698.56	278.16
698.90	277.69
699.23	277.18
699.57	276.68
699.90	276.09
700.24	275.38
700.58	274.84
700.91	274.46
701.25	274.26
701.58	274.08
701.92	273.78
702.25	273.35
702.59	272.90
702.92	272.60
703.26	272.30
703.59	271.90
703.93	271.88
704.26	271.56
704.60	271.14
704.93	270.69
705.26	270.09
705.60	269.79
705.93	269.25
706.27	269.02
706.60	268.72
706.94	268.59
707.27	268.26
707.61	267.95
707.94	267.50
708.27	266.77
708.61	266.00
708.94	265.59
709.28	265.28
709.61	264.77
709.94	264.37
710.28	263.96
710.61	263.59
710.95	262.80
711.28	262.67
711.61	262.35
711.95	262.15
712.28	261.82
712.61	261.36
712.95	261.30
713.28	261.16
713.61	260.81
713.95	260.31
714.28	260.00
714.61	259.65
714.95	259.22
715.28	258.88
715.61	258.55
715.95	258.20
716.28	257.85
716.61	257.74
716.95	257.41
717.28	257.01
717.61	256.74
717.94	256.41
718.28	255.74
718.61	255.42
718.94	255.04
719.27	254.78
719.61	254.52
719.94	254.09
720.27	253.57
720.60	253.23
720.94	252.95
721.27	252.73
721.60	252.59
721.93	252.37
722.27	252.31
722.60	252.08
722.93	251.86
723.26	251.67
723.59	251.37
723.93	251.17
724.26	251.07
724.59	250.74
724.92	250.55
725.25	250.57
725.59	250.33
725.92	250.15
726.25	249.95
726.58	249.77
726.91	249.57
727.24	249.52
727.57	249.30
727.91	249.08
728.24	248.88
728.57	248.64
728.90	248.59
729.23	248.28
729.56	248.33
729.89	248.10
730.22	247.91
730.55	247.64
730.89	247.43
731.22	247.23
731.55	247.16
731.88	247.01
732.21	246.79
732.54	246.60
732.87	246.48
733.20	246.35
733.53	246.19
733.86	246.01
734.19	245.68
734.52	245.65
734.85	245.84
735.18	245.58
735.51	245.53
735.84	245.33
736.17	245.25
736.50	244.88
736.83	245.34
737.16	245.13
737.49	245.05
737.82	244.91
738.15	244.82
738.48	244.72
738.81	244.58
739.14	244.32
739.47	244.27
739.80	244.07
740.13	243.96
740.46	243.84
740.79	243.65
741.12	243.55
741.45	243.34
741.78	242.91
742.11	242.95
742.44	242.69
742.77	242.57
743.10	242.36
743.43	242.27
743.75	241.61
744.08	242.14
744.41	241.94
744.74	241.82
745.07	241.55
745.40	241.41
745.73	241.49
746.06	241.37
746.39	241.26
746.71	241.08
747.04	240.80
747.37	240.52
747.70	240.49
748.03	240.38
748.36	240.31
748.68	240.14
749.01	239.85
749.34	239.68
749.67	239.65
750.00	239.61
750.33	239.86
750.65	239.68
750.98	238.92
751.31	238.84
751.64	238.68
751.97	238.80
752.29	238.62
752.62	238.28
752.95	238.12
753.28	237.86
753.60	237.80
753.93	237.85
754.26	237.85
754.59	237.57
754.91	237.36
755.24	237.22
755.57	237.09
755.90	236.97
756.22	236.89
756.55	236.68
756.88	236.44
757.20	235.94
757.53	235.82
757.86	235.75
758.19	235.66
758.51	235.58
758.84	235.28
759.17	235.10
759.49	235.05
759.82	235.24
760.15	235.25
760.47	235.10
760.80	234.88
761.13	234.84
761.45	234.79
761.78	234.79
762.11	234.68
762.43	234.64
762.76	234.52
763.08	234.46
763.41	234.37
763.74	234.28
764.06	234.20
764.39	234.11
764.71	234.04
765.04	233.93
765.37	233.83
765.69	233.68
766.02	233.60
766.34	233.43
766.67	233.20
767.00	233.14
767.32	233.37
767.65	233.64
767.97	233.50
768.30	233.46
768.62	233.35
768.95	233.29
769.27	233.23
769.60	233.28
769.92	233.18
770.25	233.08
770.57	232.95
770.90	232.90
771.22	232.80
771.55	232.67
771.87	232.62
772.20	232.48
772.52	232.97
772.85	233.58
773.17	233.56
773.50	233.40
773.82	233.26
774.15	232.90
774.47	232.63
774.80	232.59
775.12	232.55
775.45	232.52
775.77	232.48
776.09	232.42
776.42	232.34
776.74	232.46
777.07	232.38
777.39	232.43
777.72	232.31
778.04	232.38
778.36	232.40
778.69	232.39
779.01	232.45
779.33	231.92
779.66	231.28
779.98	231.17
780.31	231.20
780.63	231.39
780.95	231.56
781.28	231.42
781.60	231.32
781.92	231.27
782.25	231.23
782.57	231.16
782.89	231.12
783.22	231.00
783.54	230.82
783.86	230.89
784.19	230.82
784.51	230.99
784.83	230.89
785.16	230.77
785.48	230.73
785.80	230.69
786.12	230.69
786.45	230.64
786.77	230.70
787.09	230.64
787.42	230.40
787.74	230.22
788.06	230.25
788.38	230.19
788.71	230.06
789.03	230.07
789.35	230.10
789.67	229.94
789.99	230.00
790.32	229.91
790.64	229.83
790.96	230.16
791.28	229.89
791.61	229.79
791.93	229.80
792.25	229.73
792.57	230.02
792.89	229.97
793.21	229.98
793.54	229.89
793.86	229.82
794.18	229.86
794.50	229.78
794.82	229.71
795.14	229.77
795.47	229.87
795.79	229.77
796.11	229.66
796.43	229.61
796.75	229.60
797.07	229.64
797.39	229.63
797.71	229.23
798.04	229.30
798.36	229.34
798.68	229.31
799.00	229.36
799.32	229.17
799.64	229.25
799.96	229.22
800.28	229.31
800.60	229.25
800.92	229.28
801.24	229.20
801.56	229.27
801.89	229.18
802.21	229.15
802.53	229.14
802.85	229.20
803.17	229.51
803.49	229.42
803.81	229.39
804.13	229.33
804.45	229.30
804.77	229.30
805.09	229.27
805.41	229.26
805.73	229.12
806.05	228.92
806.37	228.80
806.69	228.81
807.01	228.80
807.33	228.80
807.65	228.63
807.97	228.88
808.28	228.79
808.60	228.84
808.92	228.83
809.24	229.09
809.56	228.98
809.88	228.81
810.20	228.73
810.52	228.81
810.84	228.75
811.16	228.68
811.48	228.61
811.80	228.83
812.12	228.75
812.43	228.90
812.75	228.95
813.07	228.91
813.39	228.91
813.71	228.74
814.03	228.73
814.35	228.78
814.67	228.61
814.98	228.59
815.30	228.58
815.62	228.45
815.94	228.10
816.26	228.30
816.58	228.12
816.89	228.23
817.21	228.04
817.53	228.01
817.85	228.08
818.17	228.05
818.48	227.83
818.80	227.94
819.12	227.83
819.44	227.68
819.76	227.61
820.07	227.56
820.39	227.60
820.71	227.64
821.03	227.61
821.34	227.59
821.66	227.63
821.98	227.63
822.30	227.66
822.61	227.94
822.93	227.62
823.25	227.66
823.57	227.63
823.88	227.78
824.20	227.80
824.52	227.83
824.83	227.89
825.15	227.80
825.47	227.76
825.79	227.78
826.10	227.75
826.42	227.74
826.74	227.83
827.05	227.76
827.37	227.79
827.69	227.72
828.00	227.70
828.32	227.66
828.64	227.59
828.95	227.80
829.27	227.68
829.58	227.76
829.90	227.83
830.22	227.78
830.53	227.64
830.85	227.62
831.17	227.48
831.48	227.42
831.80	227.48
832.11	227.49
832.43	227.42
832.75	227.48
833.06	227.80
833.38	227.68
833.69	227.69
834.01	227.70
834.32	227.68
834.64	227.61
834.96	227.58
835.27	227.56
835.59	227.41
835.90	227.35
836.22	227.30
836.53	227.24
836.85	227.23
837.16	227.65
837.48	227.76
837.79	227.97
838.11	228.00
838.42	227.97
838.74	227.99
839.05	227.98
839.37	227.96
839.68	227.67
840.00	227.63
840.31	227.67
840.63	227.61
840.94	227.64
841.26	227.54
841.57	227.55
841.88	227.59
842.20	227.47
842.51	227.39
842.83	227.41
843.14	227.80
843.46	227.76
843.77	227.50
844.08	227.40
844.40	227.26
844.71	227.22
845.03	227.11
845.34	227.06
845.65	227.10
845.97	227.12
846.28	227.10
846.60	227.07
846.91	226.98
847.22	226.97
847.54	227.03
847.85	227.12
848.16	227.11
848.48	227.06
848.79	227.29
849.10	227.41
849.42	227.47
849.73	227.04
850.04	227.05
850.36	226.89
850.67	226.94
850.98	226.90
851.30	226.92
851.61	226.95
851.92	226.88
852.23	226.98
852.55	226.99
852.86	227.00
853.17	227.03
853.49	227.14
853.80	227.14
854.11	227.11
854.42	227.17
854.74	227.07
855.05	227.04
855.36	226.79
855.67	226.74
855.99	226.67
856.30	227.24
856.61	227.14
856.92	227.13
857.23	227.14
857.55	227.00
857.86	226.94
858.17	227.01
858.48	227.01
858.79	226.87
859.11	226.86
859.42	226.85
859.73	226.75
860.04	226.73
860.35	226.62
860.66	226.48
860.98	226.50
861.29	226.59
861.60	226.53
861.91	226.61
862.22	226.47
862.53	226.38
862.84	225.84
863.16	226.04
863.47	225.89
863.78	225.81
864.09	225.89
864.40	225.94
864.71	225.97
865.02	225.98
865.33	225.91
865.64	225.81
865.95	225.76
866.27	226.10
866.58	226.12
866.89	226.20
867.20	226.18
867.51	226.05
867.82	226.00
868.13	226.16
868.44	226.07
868.75	226.19
869.06	226.26
869.37	226.26
869.68	226.13
869.99	226.25
870.30	226.27
870.61	226.32
870.92	226.20
871.23	226.11
871.54	226.15
871.85	226.24
872.16	226.32
872.47	226.35
872.78	226.11
873.09	226.08
873.40	225.97
873.71	226.09
874.02	226.11
874.33	226.03
874.64	225.97
874.95	226.05
875.26	226.00
875.56	225.96
875.87	225.94
876.18	225.95
876.49	226.46
876.80	226.42
877.11	226.25
877.42	226.34
877.73	226.36
878.04	226.35
878.35	226.45
878.66	226.41
878.96	226.35
879.27	226.34
879.58	226.33
879.89	226.38
880.20	226.47
880.51	226.48
880.82	226.55
881.12	226.56
881.43	226.49
881.74	226.37
882.05	226.37
882.36	226.43
882.67	226.39
882.97	225.81
883.28	225.79
883.59	225.92
883.90	225.94
884.21	225.99
884.51	225.92
884.82	225.74
885.13	225.82
885.44	225.89
885.74	225.90
886.05	225.93
886.36	225.96
886.67	225.88
886.98	226.20
887.28	226.26
887.59	226.26
887.90	226.32
888.20	226.33
888.51	226.46
888.82	226.40
889.13	226.49
889.43	226.95
889.74	226.97
890.05	226.93
890.35	226.92
890.66	226.83
890.97	226.81
891.28	226.84
891.58	226.83
891.89	226.82
892.20	226.74
892.50	226.70
892.81	226.70
893.12	226.63
893.42	226.33
893.73	226.33
894.04	226.31
894.34	226.28
894.65	226.33
894.95	226.18
895.26	226.15
895.57	226.36
895.87	225.94
896.18	226.05
896.48	226.03
896.79	226.04
897.10	226.12
897.40	226.20
897.71	226.24
898.01	226.20
898.32	226.26
898.63	226.23
898.93	226.18
899.24	226.17
899.54	226.15
899.85	226.14
900.15	226.11
900.46	226.11
900.76	226.23
901.07	226.19
901.38	226.22
901.68	226.32
901.99	226.07
902.29	226.05
902.60	226.02
902.90	226.01
903.21	226.03
903.51	225.98
903.82	226.06
904.12	226.01
904.43	225.99
904.73	225.95
905.03	225.98
905.34	226.45
905.64	226.42
905.95	226.44
906.25	226.46
906.56	226.50
906.86	226.45
907.17	226.34
907.47	226.34
907.77	226.28
908.08	226.20
908.38	226.23
908.69	226.29
908.99	226.29
909.30	226.30
909.60	226.26
909.90	226.31
910.21	226.17
910.51	226.15
910.81	226.05
911.12	226.13
911.42	226.15
911.73	225.61
912.03	225.65
912.33	225.68
912.64	225.57
912.94	225.54
913.24	225.50
913.55	225.42
913.85	225.41
914.15	225.56
914.46	225.59
914.76	225.46
915.06	225.47
915.37	225.45
915.67	225.42
915.97	225.40
916.27	225.27
916.58	225.32
916.88	225.32
917.18	225.38
917.49	225.65
917.79	225.67
918.09	225.80
918.39	225.96
918.70	226.00
919.00	226.07
919.30	226.24
919.60	226.27
919.91	226.29
920.21	226.34
920.51	226.25
920.81	226.30
921.12	226.45
921.42	226.51
921.72	226.56
922.02	226.65
922.32	226.81
922.63	226.85
922.93	227.04
923.23	227.05
923.53	227.09
923.83	226.77
924.13	226.75
924.44	226.80
924.74	226.83
925.04	226.90
925.34	226.90
925.64	226.70
925.94	226.76
926.24	227.03
926.55	227.02
926.85	227.12
927.15	227.07
927.45	227.04
927.75	226.94
928.05	226.93
928.35	226.87
928.65	226.88
928.95	226.96
929.26	226.78
929.56	226.94
929.86	226.95
930.16	226.95
930.46	227.02
930.76	226.96
931.06	226.71
931.36	226.62
931.66	226.68
931.96	226.72
932.26	226.63
932.56	226.38
932.86	226.42
933.16	226.39
933.46	226.32
933.76	226.23
934.06	226.43
934.36	226.61
934.66	226.58
934.96	226.48
935.26	226.49
935.56	226.55
935.86	226.38
936.16	226.31
936.46	226.21
936.76	226.11
937.06	226.10
937.36	226.13
937.66	226.15
937.96	226.15
938.26	226.09
938.56	226.08
938.86	226.11
939.16	226.15
939.46	226.17
939.76	226.24
940.06	226.22
940.35	225.94
940.65	225.62
940.95	225.72
941.25	225.65
941.55	225.58
941.85	225.58
942.15	225.67
942.45	225.85
942.75	225.88
943.04	225.89
943.34	225.95
943.64	225.96
943.94	225.93
944.24	225.89
944.54	225.88
944.84	225.89
945.13	225.86
945.43	225.83
945.73	225.81
946.03	225.82
946.33	225.83
946.62	225.84
946.92	225.87
947.22	225.89
947.52	225.97
947.82	226.10
948.11	226.02
948.41	225.95
948.71	225.81
949.01	225.85
949.31	225.80
949.60	225.73
949.90	225.81
950.20	225.78
950.50	225.84
950.79	225.82
951.09	225.91
951.39	225.90
951.69	225.80
951.98	225.98
952.28	225.99
952.58	225.98
952.87	225.95
953.17	226.02
953.47	225.92
953.76	225.90
954.06	225.75
954.36	225.71
954.66	225.69
954.95	225.86
955.25	225.89
955.55	225.95
955.84	225.93
956.14	226.01
956.44	226.02
956.73	225.86
957.03	225.90
957.32	225.90
957.62	225.95
957.92	226.07
958.21	225.87
958.51	226.33
958.81	226.50
959.10	226.60
959.40	226.74
959.69	226.79
959.99	226.82
960.29	226.92
960.58	226.92
960.88	227.17
961.17	227.07
961.47	227.10
961.76	227.12
962.06	227.21
962.36	227.14
962.65	227.18
962.95	227.26
963.24	227.25
963.54	227.26
963.83	227.27
964.13	227.28
964.42	227.23
964.72	226.93
965.01	226.87
965.31	226.89
965.60	226.67
965.90	226.94
966.19	226.84
966.49	226.83
966.78	226.81
967.08	226.73
967.37	226.75
967.67	226.70
967.96	226.76
968.26	226.70
968.55	226.72
968.85	226.66
969.14	226.60
969.43	226.55
969.73	226.47
970.02	226.42
970.32	226.35
970.61	226.25
970.91	225.99
971.20	225.85
971.49	225.75
971.79	225.84
972.08	225.53
972.38	225.65
972.67	225.53
972.96	225.60
973.26	225.46
973.55	225.53
973.85	225.45
974.14	225.40
974.43	225.46
974.73	225.29
975.02	225.32
975.31	225.37
975.61	225.35
975.90	225.33
976.19	225.29
976.49	225.39
976.78	225.45
977.07	225.53
977.37	225.62
977.66	225.70
977.95	225.62
978.24	225.62
978.54	225.71
978.83	225.73
979.12	225.67
979.42	225.68
979.71	225.62
980.00	225.56
980.29	225.54
980.59	225.46
980.88	225.61
981.17	225.50
981.46	225.46
981.76	225.53
982.05	225.69
982.34	225.80
982.63	225.76
982.93	225.83
983.22	225.98
983.51	225.99
983.80	226.12
984.09	226.21
984.39	226.22
984.68	226.09
984.97	226.13
985.26	226.10
985.55	226.14
985.85	226.01
986.14	226.14
986.43	226.22
986.72	226.21
987.01	226.18
987.30	226.22
987.59	226.19
987.89	226.20
988.18	226.10
988.47	226.03
988.76	225.98
989.05	225.95
989.34	225.86
989.63	225.92
989.92	225.81
990.22	225.71
990.51	225.73
990.80	225.67
991.09	225.70
991.38	225.75
991.67	225.73
991.96	225.70
992.25	225.80
992.54	225.68
992.83	225.68
993.12	225.72
993.41	225.81
993.70	225.98
993.99	226.07
994.28	226.11
994.58	226.17
994.87	226.15
995.16	226.16
995.45	226.13
995.74	225.98
996.03	226.08
996.32	226.17
996.61	226.23
996.90	226.22
997.19	226.18
997.48	226.22
997.77	226.18
998.06	226.27
998.34	226.14
998.63	226.20
998.92	226.23
999.21	226.20
999.50	226.20
999.79	226.09
1000.08	225.97
1000.37	225.90
1000.66	225.87
1000.95	226.00
1001.24	226.03
1001.53	226.08
1001.82	226.09
1002.11	225.95
1002.40	226.05
1002.68	226.18
1002.97	226.53
1003.26	226.54
1003.55	226.42
1003.84	226.40
1004.13	226.54
1004.42	226.50
1004.71	226.45
1004.99	226.37
1005.28	226.47
1005.57	226.44
1005.86	226.40
1006.15	226.40
1006.44	226.40
1006.72	226.42
1007.01	226.25
1007.30	226.19
1007.59	226.15
1007.88	226.11
1008.17	226.10
1008.45	225.95
1008.74	225.75
1009.03	225.55
1009.32	225.52
1009.60	225.54
1009.89	225.57
1010.18	225.39
1010.47	225.43
1010.76	225.44
1011.04	225.44
1011.33	225.42
1011.62	225.53
1011.91	225.55
1012.19	225.61
1012.48	225.60
1012.77	225.51
1013.05	225.79
1013.34	225.80
1013.63	225.75
1013.92	225.90
1014.20	225.87
1014.49	225.88
1014.78	225.86
1015.06	225.71
1015.35	225.67
1015.64	225.79
1015.92	225.84
1016.21	225.82
1016.50	225.79
1016.78	225.91
1017.07	225.93
1017.36	225.82
1017.64	225.66
1017.93	225.68
1018.22	225.69
1018.50	225.72
1018.79	225.89
1019.08	225.65
1019.36	225.69
1019.65	225.64
1019.93	225.66
1020.22	225.75
1020.51	226.00
1020.79	226.00
1021.08	226.50
1021.36	225.40
1021.65	227.90
1021.94	225.60
1022.22	225.85
1022.51	224.65
1022.79	226.95
1023.08	226.55
1023.36	231.55
1023.65	224.85
>>>>>End Processed Spectral Data<<<<<
