SpectraSuite Data File
++++++++++++++++++++++++++++++++++++
Date: Wed Sep 04 17:55:39 EDT 2013
User: lab3
Dark Spectrum Present: Yes
Reference Spectrum Present: No
Number of Sampled Component Spectra: 1
Spectrometers: USB2E7196
Integration Time (usec): 170000 (USB2E7196)
Spectra Averaged: 20 (USB2E7196)
Boxcar Smoothing: 10 (USB2E7196)
Correct for Electrical Dark: No (USB2E7196)
Strobe/Lamp Enabled: No (USB2E7196)
Correct for Detector Non-linearity: No (USB2E7196)
Correct for Stray Light: No (USB2E7196)
Number of Pixels in Processed Spectrum: 2048
>>>>>Begin Processed Spectral Data<<<<<
339.09	0.00
339.48	213.35
339.86	214.65
340.24	214.60
340.63	215.75
341.01	225.20
341.39	219.95
341.78	221.95
342.16	225.25
342.54	223.55
342.93	212.36
343.31	223.06
343.69	223.64
344.07	224.09
344.46	224.68
344.84	225.18
345.22	225.19
345.60	225.50
345.99	225.71
346.37	225.69
346.75	225.83
347.13	225.87
347.52	225.87
347.90	226.06
348.28	226.09
348.66	226.17
349.05	226.05
349.43	226.08
349.81	226.17
350.19	226.28
350.57	226.35
350.96	226.43
351.34	226.49
351.72	226.48
352.10	226.55
352.48	226.50
352.87	226.51
353.25	226.63
353.63	226.66
354.01	226.75
354.39	226.90
354.77	226.92
355.15	227.12
355.54	227.18
355.92	227.09
356.30	227.14
356.68	227.54
357.06	227.59
357.44	227.60
357.82	227.69
358.20	228.04
358.58	228.19
358.97	228.31
359.35	228.54
359.73	228.76
360.11	228.80
360.49	228.90
360.87	228.95
361.25	229.00
361.63	229.22
362.01	229.22
362.39	229.27
362.77	229.39
363.15	229.36
363.53	229.41
363.91	229.44
364.29	229.52
364.67	229.10
365.05	229.17
365.43	229.27
365.81	229.26
366.19	229.19
366.57	229.31
366.95	229.30
367.33	229.19
367.71	229.20
368.09	229.39
368.47	229.41
368.85	229.38
369.23	229.48
369.61	229.32
369.99	229.51
370.37	229.50
370.75	229.61
371.13	229.52
371.51	229.41
371.89	229.46
372.27	229.40
372.65	229.40
373.03	229.43
373.41	229.32
373.78	229.30
374.16	228.96
374.54	228.76
374.92	228.64
375.30	228.57
375.68	228.39
376.06	228.30
376.44	228.18
376.82	228.18
377.19	228.03
377.57	227.89
377.95	227.67
378.33	227.53
378.71	227.24
379.09	227.21
379.47	227.17
379.84	226.99
380.22	226.88
380.60	226.73
380.98	226.55
381.36	226.46
381.73	226.32
382.11	226.34
382.49	226.26
382.87	226.28
383.25	226.32
383.62	226.73
384.00	226.58
384.38	226.57
384.76	226.59
385.13	226.76
385.51	226.75
385.89	226.64
386.27	226.69
386.64	226.72
387.02	226.70
387.40	226.61
387.78	226.64
388.15	226.67
388.53	226.58
388.91	226.57
389.29	226.52
389.66	226.58
390.04	226.45
390.42	226.50
390.79	226.43
391.17	226.32
391.55	225.81
391.92	225.80
392.30	225.93
392.68	225.90
393.05	225.83
393.43	225.78
393.81	225.77
394.18	225.65
394.56	225.64
394.94	225.72
395.31	225.78
395.69	226.05
396.06	226.15
396.44	226.28
396.82	226.34
397.19	226.65
397.57	226.62
397.95	226.83
398.32	226.80
398.70	226.96
399.07	227.15
399.45	227.21
399.82	227.29
400.20	227.28
400.58	227.35
400.95	227.27
401.33	227.49
401.70	227.97
402.08	228.15
402.45	228.31
402.83	228.60
403.20	228.80
403.58	228.87
403.95	229.10
404.33	229.41
404.71	229.63
405.08	230.08
405.46	230.32
405.83	230.56
406.21	230.82
406.58	231.06
406.96	231.32
407.33	231.76
407.70	232.18
408.08	232.86
408.45	233.28
408.83	233.77
409.20	234.21
409.58	234.38
409.95	234.97
410.33	235.52
410.70	235.87
411.08	236.49
411.45	237.06
411.82	237.63
412.20	238.34
412.57	239.31
412.95	239.65
413.32	240.64
413.69	241.48
414.07	242.37
414.44	243.38
414.82	244.40
415.19	245.56
415.56	246.73
415.94	247.80
416.31	249.24
416.68	250.71
417.06	252.44
417.43	254.09
417.81	255.85
418.18	257.70
418.55	259.61
418.93	261.60
419.30	263.66
419.67	265.90
420.04	268.07
420.42	270.33
420.79	273.49
421.16	276.15
421.54	279.22
421.91	282.25
422.28	285.33
422.66	288.61
423.03	292.15
423.40	295.58
423.77	299.01
424.15	302.62
424.52	306.33
424.89	310.47
425.26	314.51
425.64	318.27
426.01	322.46
426.38	326.84
426.75	331.39
427.13	336.01
427.50	340.75
427.87	345.79
428.24	350.79
428.61	355.28
428.99	360.59
429.36	365.97
429.73	371.55
430.10	377.07
430.47	382.65
430.85	388.14
431.22	394.31
431.59	401.16
431.96	407.45
432.33	414.41
432.70	420.98
433.08	428.73
433.45	436.14
433.82	443.41
434.19	451.68
434.56	459.78
434.93	467.47
435.30	475.20
435.68	483.85
436.05	492.33
436.42	500.65
436.79	508.27
437.16	516.70
437.53	525.38
437.90	534.04
438.27	542.84
438.64	551.84
439.01	560.06
439.38	567.29
439.75	574.38
440.13	582.48
440.50	590.20
440.87	596.39
441.24	602.81
441.61	609.76
441.98	614.80
442.35	620.72
442.72	626.80
443.09	632.68
443.46	636.03
443.83	638.18
444.20	640.04
444.57	642.90
444.94	643.95
445.31	645.02
445.68	646.49
446.05	646.64
446.42	645.22
446.79	643.89
447.16	642.32
447.53	641.05
447.90	637.37
448.27	633.40
448.64	628.48
449.01	624.80
449.37	618.71
449.74	612.69
450.11	605.68
450.48	597.88
450.85	589.82
451.22	583.07
451.59	576.62
451.96	570.32
452.33	562.09
452.70	554.72
453.07	546.14
453.43	536.94
453.80	528.45
454.17	520.45
454.54	512.66
454.91	504.38
455.28	496.41
455.65	488.81
456.02	481.89
456.38	475.60
456.75	467.76
457.12	461.26
457.49	454.94
457.86	448.55
458.23	443.37
458.59	437.69
458.96	431.77
459.33	426.48
459.70	421.41
460.07	417.33
460.43	412.69
460.80	408.42
461.17	404.73
461.54	400.77
461.91	396.90
462.27	393.00
462.64	389.70
463.01	386.16
463.38	382.95
463.74	379.00
464.11	375.89
464.48	373.35
464.85	370.41
465.21	368.27
465.58	365.98
465.95	363.14
466.32	360.95
466.68	358.71
467.05	356.64
467.42	354.40
467.78	352.05
468.15	349.84
468.52	348.22
468.88	345.95
469.25	343.92
469.62	342.56
469.98	340.87
470.35	339.49
470.72	337.97
471.08	336.24
471.45	335.04
471.82	333.84
472.18	332.32
472.55	331.42
472.92	330.08
473.28	329.01
473.65	327.92
474.02	326.83
474.38	325.92
474.75	325.19
475.11	324.38
475.48	323.75
475.85	323.25
476.21	322.61
476.58	322.19
476.94	321.83
477.31	321.31
477.67	321.03
478.04	320.60
478.41	320.38
478.77	320.75
479.14	320.57
479.50	320.43
479.87	320.42
480.23	320.43
480.60	320.45
480.96	320.43
481.33	320.81
481.69	321.00
482.06	321.19
482.42	321.40
482.79	321.78
483.15	322.30
483.52	322.84
483.88	323.21
484.25	323.75
484.61	324.47
484.98	325.18
485.34	326.09
485.71	327.05
486.07	328.11
486.44	328.63
486.80	329.62
487.17	330.74
487.53	332.16
487.90	333.58
488.26	335.20
488.62	336.89
488.99	338.37
489.35	340.10
489.72	342.05
490.08	343.95
490.44	345.92
490.81	348.10
491.17	350.30
491.54	352.82
491.90	355.40
492.26	358.00
492.63	360.80
492.99	363.65
493.36	366.73
493.72	369.99
494.08	373.34
494.45	377.07
494.81	380.90
495.17	384.73
495.54	388.89
495.90	393.08
496.26	397.48
496.63	402.17
496.99	407.08
497.35	412.25
497.72	417.49
498.08	423.01
498.44	428.67
498.80	434.68
499.17	440.74
499.53	446.84
499.89	453.56
500.26	460.35
500.62	467.28
500.98	474.62
501.34	482.08
501.71	489.86
502.07	497.80
502.43	505.98
502.79	514.34
503.16	523.00
503.52	532.04
503.88	541.48
504.24	551.13
504.60	561.01
504.97	571.12
505.33	581.67
505.69	592.88
506.05	603.74
506.41	615.03
506.78	626.72
507.14	638.89
507.50	651.31
507.86	663.93
508.22	676.90
508.59	689.84
508.95	703.54
509.31	717.73
509.67	731.96
510.03	746.28
510.39	761.09
510.75	776.04
511.12	791.23
511.48	806.77
511.84	822.58
512.20	838.60
512.56	855.00
512.92	871.72
513.28	888.29
513.64	905.83
514.00	923.31
514.37	941.05
514.73	959.01
515.09	976.97
515.45	995.52
515.81	1014.01
516.17	1032.90
516.53	1051.51
516.89	1069.99
517.25	1089.41
517.61	1109.58
517.97	1129.77
518.33	1149.96
518.69	1170.09
519.05	1190.39
519.41	1210.97
519.77	1232.00
520.13	1252.72
520.49	1273.45
520.85	1295.76
521.21	1316.93
521.57	1338.50
521.93	1359.35
522.29	1380.64
522.65	1401.38
523.01	1422.04
523.37	1442.75
523.73	1463.91
524.09	1484.40
524.45	1505.34
524.81	1526.15
525.17	1546.66
525.53	1567.35
525.89	1588.06
526.25	1609.02
526.61	1629.64
526.97	1650.63
527.33	1671.56
527.68	1693.49
528.04	1714.65
528.40	1734.28
528.76	1755.06
529.12	1775.05
529.48	1796.01
529.84	1816.32
530.20	1837.79
530.56	1858.98
530.91	1879.88
531.27	1900.17
531.63	1920.79
531.99	1941.44
532.35	1961.49
532.71	1981.84
533.07	2002.28
533.42	2021.96
533.78	2041.80
534.14	2061.44
534.50	2080.24
534.86	2099.56
535.21	2117.19
535.57	2135.85
535.93	2153.76
536.29	2171.60
536.65	2189.80
537.00	2207.27
537.36	2224.55
537.72	2240.90
538.08	2258.03
538.44	2274.64
538.79	2291.16
539.15	2308.00
539.51	2323.59
539.87	2338.76
540.22	2352.95
540.58	2367.31
540.94	2381.09
541.29	2393.94
541.65	2406.75
542.01	2419.55
542.37	2430.31
542.72	2441.08
543.08	2451.51
543.44	2463.24
543.79	2473.06
544.15	2482.72
544.51	2493.00
544.87	2502.72
545.22	2511.42
545.58	2519.06
545.94	2526.30
546.29	2532.68
546.65	2538.66
547.01	2544.64
547.36	2550.13
547.72	2555.38
548.07	2559.15
548.43	2564.12
548.79	2568.71
549.14	2572.46
549.50	2576.21
549.86	2580.11
550.21	2583.70
550.57	2586.94
550.92	2588.19
551.28	2589.69
551.64	2592.25
551.99	2593.92
552.35	2595.71
552.70	2597.57
553.06	2599.13
553.41	2600.21
553.77	2601.98
554.13	2603.84
554.48	2605.25
554.84	2606.80
555.19	2607.93
555.55	2609.82
555.90	2609.27
556.26	2608.37
556.61	2606.82
556.97	2604.68
557.32	2604.19
557.68	2603.42
558.03	2602.13
558.39	2600.91
558.74	2600.07
559.10	2596.75
559.45	2592.96
559.81	2588.28
560.16	2583.15
560.52	2578.19
560.87	2573.78
561.23	2568.31
561.58	2562.15
561.94	2555.50
562.29	2547.91
562.64	2541.04
563.00	2532.81
563.35	2526.41
563.71	2519.68
564.06	2513.86
564.42	2507.65
564.77	2500.50
565.12	2492.45
565.48	2484.87
565.83	2476.92
566.19	2469.01
566.54	2461.55
566.89	2453.65
567.25	2446.08
567.60	2439.07
567.96	2431.45
568.31	2423.56
568.66	2414.94
569.02	2405.88
569.37	2397.40
569.72	2389.56
570.08	2380.27
570.43	2370.89
570.78	2361.48
571.14	2352.11
571.49	2341.81
571.84	2332.10
572.20	2321.33
572.55	2311.64
572.90	2300.54
573.26	2290.14
573.61	2278.98
573.96	2267.86
574.31	2255.91
574.67	2243.83
575.02	2230.83
575.37	2217.98
575.72	2204.80
576.08	2193.00
576.43	2180.59
576.78	2167.60
577.13	2154.01
577.49	2141.29
577.84	2128.98
578.19	2116.93
578.54	2104.50
578.90	2092.39
579.25	2079.83
579.60	2067.41
579.95	2054.26
580.30	2041.36
580.66	2028.07
581.01	2014.38
581.36	2000.06
581.71	1987.32
582.06	1974.47
582.42	1962.28
582.77	1949.70
583.12	1937.91
583.47	1925.42
583.82	1913.49
584.17	1901.44
584.53	1889.75
584.88	1876.79
585.23	1864.04
585.58	1849.82
585.93	1836.63
586.28	1823.41
586.63	1809.52
586.98	1794.86
587.34	1781.65
587.69	1768.22
588.04	1755.50
588.39	1743.81
588.74	1731.74
589.09	1719.52
589.44	1706.95
589.79	1694.83
590.14	1683.20
590.49	1671.03
590.84	1658.84
591.19	1646.56
591.54	1634.22
591.89	1622.06
592.25	1612.07
592.60	1600.70
592.95	1589.37
593.30	1577.24
593.65	1565.27
594.00	1553.32
594.35	1543.67
594.70	1532.02
595.05	1520.83
595.40	1508.78
595.75	1496.48
596.10	1485.44
596.45	1473.90
596.80	1462.93
597.15	1451.27
597.50	1439.23
597.85	1427.60
598.19	1415.91
598.54	1404.40
598.89	1393.40
599.24	1382.73
599.59	1370.64
599.94	1359.64
600.29	1349.43
600.64	1339.26
600.99	1328.67
601.34	1319.40
601.69	1308.46
602.04	1298.51
602.39	1288.75
602.74	1279.69
603.08	1270.38
603.43	1260.82
603.78	1251.41
604.13	1241.97
604.48	1232.34
604.83	1222.91
605.18	1213.27
605.53	1203.87
605.87	1194.98
606.22	1186.41
606.57	1177.16
606.92	1167.94
607.27	1159.02
607.62	1150.18
607.96	1141.66
608.31	1133.61
608.66	1124.84
609.01	1116.26
609.36	1107.59
609.70	1098.96
610.05	1090.29
610.40	1081.88
610.75	1073.42
611.10	1064.95
611.44	1056.25
611.79	1048.13
612.14	1040.14
612.49	1032.43
612.83	1024.89
613.18	1016.91
613.53	1009.09
613.88	1001.29
614.22	993.75
614.57	985.92
614.92	977.95
615.27	970.44
615.61	962.85
615.96	955.47
616.31	947.91
616.65	940.98
617.00	933.68
617.35	926.40
617.70	919.29
618.04	912.05
618.39	905.09
618.74	898.62
619.08	891.89
619.43	884.82
619.78	877.59
620.12	870.46
620.47	863.55
620.82	856.55
621.16	849.81
621.51	843.43
621.85	837.09
622.20	830.50
622.55	823.68
622.89	817.06
623.24	810.68
623.59	804.34
623.93	797.91
624.28	791.81
624.62	786.19
624.97	780.36
625.32	774.38
625.66	768.45
626.01	762.21
626.35	756.69
626.70	751.16
627.04	746.07
627.39	740.47
627.73	735.05
628.08	729.88
628.43	724.37
628.77	718.85
629.12	713.59
629.46	708.79
629.81	703.91
630.15	699.17
630.50	694.04
630.84	689.23
631.19	684.46
631.53	679.83
631.88	674.46
632.22	669.43
632.57	665.06
632.91	660.37
633.26	656.19
633.60	651.41
633.95	646.77
634.29	641.90
634.64	637.59
634.98	632.89
635.32	628.35
635.67	624.26
636.01	620.15
636.36	615.70
636.70	611.40
637.05	607.39
637.39	603.19
637.73	599.13
638.08	595.15
638.42	590.85
638.77	586.38
639.11	582.01
639.45	577.80
639.80	573.39
640.14	569.37
640.49	565.38
640.83	561.49
641.17	557.88
641.52	554.16
641.86	550.66
642.20	547.45
642.55	543.72
642.89	540.06
643.23	536.55
643.58	533.50
643.92	529.97
644.26	526.52
644.61	523.32
644.95	520.02
645.29	516.59
645.64	513.58
645.98	510.71
646.32	507.88
646.66	504.77
647.01	501.76
647.35	499.08
647.69	495.93
648.04	493.12
648.38	490.15
648.72	487.31
649.06	484.05
649.41	480.90
649.75	477.98
650.09	475.17
650.43	472.23
650.78	469.20
651.12	466.42
651.46	463.58
651.80	460.85
652.14	458.25
652.49	455.82
652.83	453.27
653.17	450.59
653.51	447.78
653.85	445.41
654.20	442.92
654.54	440.20
654.88	437.76
655.22	435.51
655.56	433.17
655.90	430.79
656.25	428.64
656.59	426.56
656.93	424.40
657.27	422.33
657.61	419.96
657.95	417.76
658.29	415.60
658.64	413.60
658.98	411.29
659.32	408.91
659.66	406.69
660.00	404.64
660.34	402.60
660.68	400.75
661.02	398.80
661.36	396.90
661.70	394.99
662.05	393.08
662.39	391.05
662.73	389.22
663.07	387.68
663.41	385.74
663.75	383.81
664.09	381.97
664.43	379.98
664.77	378.30
665.11	376.56
665.45	374.82
665.79	373.22
666.13	371.59
666.47	370.05
666.81	368.32
667.15	366.49
667.49	365.03
667.83	363.58
668.17	361.99
668.51	360.59
668.85	359.14
669.19	357.97
669.53	356.44
669.87	354.90
670.21	353.33
670.55	351.98
670.89	350.90
671.23	349.54
671.57	348.20
671.91	346.91
672.25	345.54
672.58	344.49
672.92	342.94
673.26	341.62
673.60	340.44
673.94	339.30
674.28	338.26
674.62	337.04
674.96	335.79
675.30	334.62
675.64	333.33
675.97	332.17
676.31	330.81
676.65	329.58
676.99	328.64
677.33	327.35
677.67	326.33
678.01	325.00
678.34	323.91
678.68	322.92
679.02	321.80
679.36	320.80
679.70	319.61
680.04	318.75
680.37	317.87
680.71	316.76
681.05	315.88
681.39	314.93
681.73	314.04
682.06	313.08
682.40	312.22
682.74	311.53
683.08	310.84
683.42	309.91
683.75	309.16
684.09	308.19
684.43	307.38
684.77	306.46
685.10	305.60
685.44	304.82
685.78	304.01
686.12	303.26
686.45	302.49
686.79	301.75
687.13	301.13
687.46	300.28
687.80	299.75
688.14	298.86
688.48	298.11
688.81	297.32
689.15	296.80
689.49	296.03
689.82	295.19
690.16	294.34
690.50	293.67
690.83	292.95
691.17	292.22
691.51	291.57
691.84	291.04
692.18	290.32
692.52	289.57
692.85	288.97
693.19	288.55
693.52	287.88
693.86	287.22
694.20	286.42
694.53	285.81
694.87	285.04
695.21	284.41
695.54	283.71
695.88	283.04
696.21	282.15
696.55	281.56
696.88	280.90
697.22	280.18
697.56	279.71
697.89	279.11
698.23	278.59
698.56	278.04
698.90	277.50
699.23	276.97
699.57	276.54
699.90	275.88
700.24	275.16
700.58	274.64
700.91	274.24
701.25	274.17
701.58	274.01
701.92	273.69
702.25	273.24
702.59	272.80
702.92	272.35
703.26	272.07
703.59	271.62
703.93	271.73
704.26	271.42
704.60	270.94
704.93	270.54
705.26	270.00
705.60	269.72
705.93	269.14
706.27	268.86
706.60	268.53
706.94	268.38
707.27	267.97
707.61	267.70
707.94	267.31
708.27	266.50
708.61	265.76
708.94	265.25
709.28	264.93
709.61	264.50
709.94	264.19
710.28	263.78
710.61	263.44
710.95	262.56
711.28	262.48
711.61	262.05
711.95	261.80
712.28	261.38
712.61	261.02
712.95	261.02
713.28	260.95
713.61	260.55
713.95	260.15
714.28	259.92
714.61	259.49
714.95	259.12
715.28	258.78
715.61	258.47
715.95	258.22
716.28	257.85
716.61	257.70
716.95	257.34
717.28	256.99
717.61	256.70
717.94	256.41
718.28	255.84
718.61	255.56
718.94	255.16
719.27	255.03
719.61	254.73
719.94	254.28
720.27	253.72
720.60	253.45
720.94	253.10
721.27	252.84
721.60	252.69
721.93	252.36
722.27	252.32
722.60	252.20
722.93	251.88
723.26	251.71
723.59	251.44
723.93	251.26
724.26	251.15
724.59	250.91
724.92	250.79
725.25	250.70
725.59	250.60
725.92	250.48
726.25	250.29
726.58	250.13
726.91	249.96
727.24	249.88
727.57	249.68
727.91	249.53
728.24	249.42
728.57	249.16
728.90	249.14
729.23	248.75
729.56	248.81
729.89	248.74
730.22	248.55
730.55	248.37
730.89	248.21
731.22	247.95
731.55	247.78
731.88	247.59
732.21	247.29
732.54	247.02
732.87	246.90
733.20	246.71
733.53	246.51
733.86	246.35
734.19	246.08
734.52	245.95
734.85	246.10
735.18	245.84
735.51	245.85
735.84	245.71
736.17	245.70
736.50	245.22
736.83	245.60
737.16	245.50
737.49	245.26
737.82	245.08
738.15	245.06
738.48	244.97
738.81	244.79
739.14	244.63
739.47	244.44
739.80	244.23
740.13	244.18
740.46	243.94
740.79	243.72
741.12	243.59
741.45	243.40
741.78	243.05
742.11	243.01
742.44	242.78
742.77	242.65
743.10	242.42
743.43	242.28
743.75	241.57
744.08	242.02
744.41	241.98
744.74	241.80
745.07	241.53
745.40	241.40
745.73	241.50
746.06	241.40
746.39	241.43
746.71	241.24
747.04	241.00
747.37	240.90
747.70	240.81
748.03	240.73
748.36	240.66
748.68	240.52
749.01	240.31
749.34	240.14
749.67	239.98
750.00	240.00
750.33	240.28
750.65	240.22
750.98	239.55
751.31	239.38
751.64	239.33
751.97	239.43
752.29	239.35
752.62	239.02
752.95	238.89
753.28	238.61
753.60	238.51
753.93	238.57
754.26	238.48
754.59	238.30
754.91	238.08
755.24	238.00
755.57	237.84
755.90	237.67
756.22	237.56
756.55	237.41
756.88	237.17
757.20	236.74
757.53	236.52
757.86	236.37
758.19	236.35
758.51	236.26
758.84	235.96
759.17	235.74
759.49	235.64
759.82	235.75
760.15	235.71
760.47	235.61
760.80	235.41
761.13	235.45
761.45	235.37
761.78	235.32
762.11	235.19
762.43	235.06
762.76	235.01
763.08	234.94
763.41	234.91
763.74	234.83
764.06	234.80
764.39	234.72
764.71	234.60
765.04	234.40
765.37	234.31
765.69	234.22
766.02	234.13
766.34	234.04
766.67	233.76
767.00	233.77
767.32	233.95
767.65	234.11
767.97	233.93
768.30	233.80
768.62	233.73
768.95	233.59
769.27	233.54
769.60	233.61
769.92	233.47
770.25	233.26
770.57	233.14
770.90	232.92
771.22	232.85
771.55	232.80
771.87	232.84
772.20	232.74
772.52	233.09
772.85	233.68
773.17	233.64
773.50	233.58
773.82	233.51
774.15	233.18
774.47	232.92
774.80	232.80
775.12	232.85
775.45	232.76
775.77	232.78
776.09	232.67
776.42	232.58
776.74	232.67
777.07	232.65
777.39	232.57
777.72	232.57
778.04	232.55
778.36	232.48
778.69	232.39
779.01	232.36
779.33	231.90
779.66	231.25
779.98	231.20
780.31	231.20
780.63	231.35
780.95	231.46
781.28	231.41
781.60	231.35
781.92	231.30
782.25	231.30
782.57	231.27
782.89	231.23
783.22	231.06
783.54	230.96
783.86	230.98
784.19	231.00
784.51	231.13
784.83	231.10
785.16	231.04
785.48	230.99
785.80	231.00
786.12	230.95
786.45	230.92
786.77	230.92
787.09	230.88
787.42	230.60
787.74	230.58
788.06	230.52
788.38	230.54
788.71	230.45
789.03	230.40
789.35	230.39
789.67	230.36
789.99	230.40
790.32	230.32
790.64	230.34
790.96	230.62
791.28	230.43
791.61	230.37
791.93	230.39
792.25	230.41
792.57	230.67
792.89	230.61
793.21	230.65
793.54	230.54
793.86	230.43
794.18	230.43
794.50	230.30
794.82	230.30
795.14	230.31
795.47	230.34
795.79	230.40
796.11	230.33
796.43	230.30
796.75	230.30
797.07	230.30
797.39	230.31
797.71	230.02
798.04	230.03
798.36	230.01
798.68	229.98
799.00	229.92
799.32	229.69
799.64	229.77
799.96	229.72
800.28	229.84
800.60	229.88
800.92	229.89
801.24	229.86
801.56	229.86
801.89	229.83
802.21	229.87
802.53	229.73
802.85	229.79
803.17	229.96
803.49	229.81
803.81	229.79
804.13	229.72
804.45	229.62
804.77	229.61
805.09	229.67
805.41	229.62
805.73	229.50
806.05	229.34
806.37	229.27
806.69	229.22
807.01	229.10
807.33	229.04
807.65	228.83
807.97	229.04
808.28	228.94
808.60	228.85
808.92	228.80
809.24	229.06
809.56	228.86
809.88	228.69
810.20	228.79
810.52	228.80
810.84	228.68
811.16	228.62
811.48	228.56
811.80	228.68
812.12	228.65
812.43	228.74
812.75	228.78
813.07	228.72
813.39	228.71
813.71	228.61
814.03	228.57
814.35	228.58
814.67	228.46
814.98	228.37
815.30	228.34
815.62	228.26
815.94	227.88
816.26	228.21
816.58	228.08
816.89	228.04
817.21	227.89
817.53	227.89
817.85	227.88
818.17	227.87
818.48	227.64
818.80	227.71
819.12	227.66
819.44	227.55
819.76	227.48
820.07	227.52
820.39	227.52
820.71	227.55
821.03	227.56
821.34	227.40
821.66	227.48
821.98	227.58
822.30	227.50
822.61	227.83
822.93	227.49
823.25	227.52
823.57	227.51
823.88	227.70
824.20	227.67
824.52	227.78
824.83	227.77
825.15	227.77
825.47	227.69
825.79	227.67
826.10	227.56
826.42	227.55
826.74	227.55
827.05	227.63
827.37	227.58
827.69	227.59
828.00	227.61
828.32	227.60
828.64	227.49
828.95	227.74
829.27	227.65
829.58	227.62
829.90	227.67
830.22	227.62
830.53	227.42
830.85	227.45
831.17	227.33
831.48	227.25
831.80	227.17
832.11	227.18
832.43	227.12
832.75	227.23
833.06	227.53
833.38	227.40
833.69	227.31
834.01	227.33
834.32	227.29
834.64	227.28
834.96	227.23
835.27	227.17
835.59	227.03
835.90	226.95
836.22	227.03
836.53	226.97
836.85	226.96
837.16	227.47
837.48	227.42
837.79	227.52
838.11	227.56
838.42	227.62
838.74	227.60
839.05	227.61
839.37	227.57
839.68	227.24
840.00	227.20
840.31	227.30
840.63	227.26
840.94	227.33
841.26	227.25
841.57	227.20
841.88	227.26
842.20	227.17
842.51	227.05
842.83	227.00
843.14	227.40
843.46	227.53
843.77	227.29
844.08	227.36
844.40	227.27
844.71	227.28
845.03	227.23
845.34	227.28
845.65	227.28
845.97	227.27
846.28	227.30
846.60	227.39
846.91	227.30
847.22	227.26
847.54	227.28
847.85	227.41
848.16	227.46
848.48	227.44
848.79	227.70
849.10	227.82
849.42	227.89
849.73	227.44
850.04	227.40
850.36	227.26
850.67	227.25
850.98	227.34
851.30	227.37
851.61	227.31
851.92	227.28
852.23	227.44
852.55	227.54
852.86	227.60
853.17	227.62
853.49	227.73
853.80	227.85
854.11	227.94
854.42	227.92
854.74	227.86
855.05	227.88
855.36	227.59
855.67	227.56
855.99	227.51
856.30	228.13
856.61	227.97
856.92	227.93
857.23	227.89
857.55	227.72
857.86	227.68
858.17	227.82
858.48	227.75
858.79	227.60
859.11	227.57
859.42	227.55
859.73	227.50
860.04	227.38
860.35	227.23
860.66	227.05
860.98	227.02
861.29	227.07
861.60	227.04
861.91	227.15
862.22	227.05
862.53	226.99
862.84	226.37
863.16	226.53
863.47	226.39
863.78	226.43
864.09	226.52
864.40	226.58
864.71	226.50
865.02	226.52
865.33	226.52
865.64	226.42
865.95	226.35
866.27	226.60
866.58	226.65
866.89	226.63
867.20	226.64
867.51	226.57
867.82	226.55
868.13	226.67
868.44	226.54
868.75	226.63
869.06	226.67
869.37	226.70
869.68	226.62
869.99	226.82
870.30	226.89
870.61	226.88
870.92	226.80
871.23	226.72
871.54	226.77
871.85	226.89
872.16	226.93
872.47	226.95
872.78	226.70
873.09	226.74
873.40	226.75
873.71	226.76
874.02	226.72
874.33	226.75
874.64	226.60
874.95	226.69
875.26	226.59
875.56	226.53
875.87	226.53
876.18	226.45
876.49	226.83
876.80	226.66
877.11	226.64
877.42	226.67
877.73	226.71
878.04	226.70
878.35	226.64
878.66	226.72
878.96	226.74
879.27	226.70
879.58	226.67
879.89	226.70
880.20	226.83
880.51	226.88
880.82	226.85
881.12	226.99
881.43	226.89
881.74	226.87
882.05	226.96
882.36	227.00
882.67	227.04
882.97	226.56
883.28	226.64
883.59	226.61
883.90	226.63
884.21	226.73
884.51	226.71
884.82	226.65
885.13	226.64
885.44	226.64
885.74	226.63
886.05	226.56
886.36	226.55
886.67	226.45
886.98	226.72
887.28	226.73
887.59	226.67
887.90	226.80
888.20	226.81
888.51	226.83
888.82	226.78
889.13	226.93
889.43	227.33
889.74	227.26
890.05	227.33
890.35	227.30
890.66	227.23
890.97	227.15
891.28	227.18
891.58	227.14
891.89	227.12
892.20	227.10
892.50	227.12
892.81	227.09
893.12	227.06
893.42	226.85
893.73	226.87
894.04	226.86
894.34	226.90
894.65	226.90
894.95	226.81
895.26	226.82
895.57	226.93
895.87	226.48
896.18	226.59
896.48	226.61
896.79	226.62
897.10	226.72
897.40	226.76
897.71	226.78
898.01	226.78
898.32	226.83
898.63	226.86
898.93	226.94
899.24	226.96
899.54	226.96
899.85	226.95
900.15	226.93
900.46	226.91
900.76	226.86
901.07	226.79
901.38	226.85
901.68	226.92
901.99	226.74
902.29	226.74
902.60	226.66
902.90	226.48
903.21	226.41
903.51	226.26
903.82	226.33
904.12	226.36
904.43	226.36
904.73	226.33
905.03	226.30
905.34	226.68
905.64	226.63
905.95	226.66
906.25	226.56
906.56	226.62
906.86	226.56
907.17	226.52
907.47	226.61
907.77	226.54
908.08	226.38
908.38	226.32
908.69	226.35
908.99	226.39
909.30	226.56
909.60	226.56
909.90	226.60
910.21	226.51
910.51	226.36
910.81	226.36
911.12	226.36
911.42	226.38
911.73	225.92
912.03	226.02
912.33	226.04
912.64	226.09
912.94	226.04
913.24	226.04
913.55	225.99
913.85	225.92
914.15	226.06
914.46	226.14
914.76	226.11
915.06	226.04
915.37	226.04
915.67	225.98
915.97	226.02
916.27	226.02
916.58	226.05
916.88	226.11
917.18	226.13
917.49	226.46
917.79	226.47
918.09	226.53
918.39	226.60
918.70	226.59
919.00	226.59
919.30	226.75
919.60	226.77
919.91	226.69
920.21	226.69
920.51	226.59
920.81	226.64
921.12	226.75
921.42	226.78
921.72	226.78
922.02	226.77
922.32	226.90
922.63	226.88
922.93	227.17
923.23	227.20
923.53	227.12
923.83	226.78
924.13	226.79
924.44	226.82
924.74	226.90
925.04	226.99
925.34	227.01
925.64	226.89
925.94	226.86
926.24	227.18
926.55	227.18
926.85	227.19
927.15	227.17
927.45	227.13
927.75	227.17
928.05	227.11
928.35	227.07
928.65	227.08
928.95	227.20
929.26	226.98
929.56	227.16
929.86	227.23
930.16	227.27
930.46	227.21
930.76	227.22
931.06	227.07
931.36	226.95
931.66	227.05
931.96	227.00
932.26	227.05
932.56	226.85
932.86	226.94
933.16	226.99
933.46	226.86
933.76	226.79
934.06	226.93
934.36	227.12
934.66	227.17
934.96	227.20
935.26	227.14
935.56	227.20
935.86	226.99
936.16	226.90
936.46	226.85
936.76	226.87
937.06	226.81
937.36	226.83
937.66	226.82
937.96	226.80
938.26	226.71
938.56	226.69
938.86	226.76
939.16	226.80
939.46	226.80
939.76	226.88
940.06	226.91
940.35	226.78
940.65	226.52
940.95	226.50
941.25	226.29
941.55	226.22
941.85	226.12
942.15	226.20
942.45	226.35
942.75	226.35
943.04	226.38
943.34	226.43
943.64	226.33
943.94	226.27
944.24	226.16
944.54	226.24
944.84	226.23
945.13	226.14
945.43	226.05
945.73	226.00
946.03	225.94
946.33	225.85
946.62	225.81
946.92	225.86
947.22	225.87
947.52	225.93
947.82	225.97
948.11	226.00
948.41	225.91
948.71	225.74
949.01	225.76
949.31	225.73
949.60	225.72
949.90	225.83
950.20	225.78
950.50	225.73
950.79	225.67
951.09	225.72
951.39	225.71
951.69	225.65
951.98	225.79
952.28	225.82
952.58	225.79
952.87	225.79
953.17	225.83
953.47	225.75
953.76	225.81
954.06	225.70
954.36	225.59
954.66	225.55
954.95	225.74
955.25	225.74
955.55	225.82
955.84	225.73
956.14	225.74
956.44	225.80
956.73	225.81
957.03	225.84
957.32	225.81
957.62	225.80
957.92	225.95
958.21	225.90
958.51	226.48
958.81	226.67
959.10	226.72
959.40	226.84
959.69	227.00
959.99	226.98
960.29	227.05
960.58	227.06
960.88	227.33
961.17	227.27
961.47	227.37
961.76	227.33
962.06	227.38
962.36	227.32
962.65	227.35
962.95	227.44
963.24	227.40
963.54	227.47
963.83	227.48
964.13	227.42
964.42	227.31
964.72	226.85
965.01	226.81
965.31	226.76
965.60	226.63
965.90	226.88
966.19	226.85
966.49	226.85
966.78	226.81
967.08	226.70
967.37	226.69
967.67	226.57
967.96	226.58
968.26	226.62
968.55	226.71
968.85	226.69
969.14	226.64
969.43	226.66
969.73	226.57
970.02	226.58
970.32	226.56
970.61	226.58
970.91	226.41
971.20	226.35
971.49	226.36
971.79	226.49
972.08	226.14
972.38	226.16
972.67	226.13
972.96	226.23
973.26	226.15
973.55	226.27
973.85	226.20
974.14	226.24
974.43	226.23
974.73	226.14
975.02	226.18
975.31	226.19
975.61	226.18
975.90	226.15
976.19	226.10
976.49	226.18
976.78	226.14
977.07	226.18
977.37	226.16
977.66	226.22
977.95	226.15
978.24	226.20
978.54	226.24
978.83	226.23
979.12	226.14
979.42	226.11
979.71	226.00
980.00	226.10
980.29	226.05
980.59	225.98
980.88	226.11
981.17	226.09
981.46	226.05
981.76	226.10
982.05	226.23
982.34	226.25
982.63	226.12
982.93	226.16
983.22	226.29
983.51	226.34
983.80	226.36
984.09	226.36
984.39	226.33
984.68	226.22
984.97	226.23
985.26	226.23
985.55	226.27
985.85	226.21
986.14	226.17
986.43	226.19
986.72	226.15
987.01	225.96
987.30	225.98
987.59	225.99
987.89	225.91
988.18	225.76
988.47	225.68
988.76	225.68
989.05	225.63
989.34	225.56
989.63	225.68
989.92	225.62
990.22	225.59
990.51	225.50
990.80	225.48
991.09	225.52
991.38	225.61
991.67	225.55
991.96	225.55
992.25	225.59
992.54	225.55
992.83	225.57
993.12	225.59
993.41	225.61
993.70	225.80
993.99	225.87
994.28	225.95
994.58	226.04
994.87	225.99
995.16	226.00
995.45	226.00
995.74	225.79
996.03	225.80
996.32	225.90
996.61	226.05
996.90	226.13
997.19	226.09
997.48	226.14
997.77	226.08
998.06	226.08
998.34	226.08
998.63	225.96
998.92	226.06
999.21	226.14
999.50	226.17
999.79	226.00
1000.08	226.02
1000.37	226.04
1000.66	226.07
1000.95	226.25
1001.24	226.26
1001.53	226.33
1001.82	226.35
1002.11	226.34
1002.40	226.34
1002.68	226.48
1002.97	226.80
1003.26	226.75
1003.55	226.62
1003.84	226.73
1004.13	226.90
1004.42	226.82
1004.71	226.95
1004.99	226.83
1005.28	226.90
1005.57	226.79
1005.86	226.78
1006.15	226.78
1006.44	226.69
1006.72	226.74
1007.01	226.57
1007.30	226.58
1007.59	226.43
1007.88	226.45
1008.17	226.47
1008.45	226.35
1008.74	226.10
1009.03	225.86
1009.32	225.92
1009.60	225.87
1009.89	225.87
1010.18	225.66
1010.47	225.70
1010.76	225.65
1011.04	225.66
1011.33	225.69
1011.62	225.74
1011.91	225.76
1012.19	225.80
1012.48	225.82
1012.77	225.78
1013.05	226.08
1013.34	226.05
1013.63	226.08
1013.92	226.06
1014.20	226.03
1014.49	226.01
1014.78	226.11
1015.06	225.96
1015.35	225.94
1015.64	226.10
1015.92	226.13
1016.21	226.22
1016.50	226.22
1016.78	226.31
1017.07	226.35
1017.36	226.27
1017.64	226.27
1017.93	226.30
1018.22	226.17
1018.50	226.23
1018.79	226.17
1019.08	225.93
1019.36	226.02
1019.65	225.96
1019.93	226.14
1020.22	226.16
1020.51	226.45
1020.79	226.35
1021.08	224.95
1021.36	225.75
1021.65	225.50
1021.94	225.55
1022.22	226.30
1022.51	224.35
1022.79	228.85
1023.08	226.25
1023.36	232.00
1023.65	224.25
>>>>>End Processed Spectral Data<<<<<
