SpectraSuite Data File
++++++++++++++++++++++++++++++++++++
Date: Wed Sep 04 18:03:18 EDT 2013
User: lab3
Dark Spectrum Present: Yes
Reference Spectrum Present: No
Number of Sampled Component Spectra: 1
Spectrometers: USB2E7196
Integration Time (usec): 170000 (USB2E7196)
Spectra Averaged: 20 (USB2E7196)
Boxcar Smoothing: 10 (USB2E7196)
Correct for Electrical Dark: No (USB2E7196)
Strobe/Lamp Enabled: No (USB2E7196)
Correct for Detector Non-linearity: No (USB2E7196)
Correct for Stray Light: No (USB2E7196)
Number of Pixels in Processed Spectrum: 2048
>>>>>Begin Processed Spectral Data<<<<<
339.09	0.00
339.48	213.80
339.86	214.90
340.24	215.50
340.63	217.50
341.01	226.20
341.39	219.95
341.78	222.05
342.16	224.25
342.54	223.85
342.93	212.52
343.31	223.23
343.69	223.72
344.07	224.16
344.46	224.66
344.84	225.09
345.22	225.03
345.60	225.30
345.99	225.46
346.37	225.56
346.75	225.61
347.13	225.74
347.52	225.86
347.90	226.14
348.28	226.09
348.66	226.26
349.05	226.10
349.43	226.17
349.81	226.30
350.19	226.39
350.57	226.49
350.96	226.57
351.34	226.69
351.72	226.78
352.10	226.93
352.48	226.99
352.87	227.04
353.25	227.07
353.63	227.14
354.01	227.16
354.39	227.28
354.77	227.35
355.15	227.49
355.54	227.43
355.92	227.31
356.30	227.31
356.68	227.69
357.06	227.78
357.44	227.80
357.82	227.80
358.20	228.20
358.58	228.20
358.97	228.26
359.35	228.40
359.73	228.55
360.11	228.60
360.49	228.67
360.87	228.77
361.25	228.96
361.63	229.23
362.01	229.44
362.39	229.45
362.77	229.52
363.15	229.64
363.53	229.70
363.91	229.82
364.29	229.88
364.67	229.40
365.05	229.42
365.43	229.38
365.81	229.53
366.19	229.47
366.57	229.73
366.95	229.77
367.33	229.67
367.71	229.73
368.09	229.87
368.47	229.84
368.85	229.77
369.23	229.84
369.61	229.54
369.99	229.64
370.37	229.64
370.75	229.91
371.13	229.70
371.51	229.65
371.89	229.59
372.27	229.64
372.65	229.67
373.03	229.69
373.41	229.71
373.78	229.64
374.16	229.30
374.54	229.13
374.92	229.00
375.30	228.95
375.68	228.74
376.06	228.66
376.44	228.60
376.82	228.55
377.19	228.44
377.57	228.47
377.95	228.21
378.33	228.18
378.71	227.90
379.09	227.97
379.47	227.99
379.84	227.89
380.22	227.85
380.60	227.73
380.98	227.62
381.36	227.58
381.73	227.45
382.11	227.49
382.49	227.45
382.87	227.30
383.25	227.29
383.62	227.85
384.00	227.75
384.38	227.75
384.76	227.84
385.13	228.03
385.51	227.99
385.89	227.92
386.27	227.84
386.64	227.79
387.02	227.68
387.40	227.59
387.78	227.60
388.15	227.55
388.53	227.52
388.91	227.45
389.29	227.38
389.66	227.37
390.04	227.28
390.42	227.28
390.79	227.37
391.17	227.32
391.55	226.75
391.92	226.75
392.30	226.77
392.68	226.68
393.05	226.63
393.43	226.63
393.81	226.67
394.18	226.60
394.56	226.62
394.94	226.73
395.31	226.73
395.69	226.89
396.06	226.96
396.44	227.07
396.82	227.17
397.19	227.48
397.57	227.55
397.95	227.66
398.32	227.66
398.70	227.79
399.07	227.99
399.45	228.09
399.82	228.10
400.20	228.16
400.58	228.27
400.95	228.09
401.33	228.27
401.70	228.74
402.08	228.93
402.45	229.06
402.83	229.29
403.20	229.51
403.58	229.60
403.95	229.87
404.33	230.09
404.71	230.26
405.08	230.72
405.46	230.92
405.83	231.18
406.21	231.39
406.58	231.70
406.96	231.95
407.33	232.36
407.70	232.80
408.08	233.56
408.45	233.99
408.83	234.64
409.20	235.01
409.58	235.14
409.95	235.66
410.33	236.20
410.70	236.63
411.08	237.27
411.45	237.83
411.82	238.34
412.20	239.12
412.57	240.12
412.95	240.47
413.32	241.33
413.69	242.23
414.07	243.20
414.44	244.14
414.82	245.19
415.19	246.27
415.56	247.39
415.94	248.32
416.31	249.70
416.68	250.99
417.06	252.71
417.43	254.43
417.81	256.22
418.18	258.08
418.55	260.01
418.93	262.05
419.30	264.26
419.67	266.50
420.04	268.74
420.42	271.07
420.79	274.15
421.16	276.99
421.54	279.94
421.91	282.87
422.28	285.94
422.66	289.27
423.03	292.80
423.40	296.16
423.77	299.74
424.15	303.47
424.52	307.26
424.89	311.46
425.26	315.29
425.64	319.07
426.01	323.19
426.38	327.50
426.75	331.99
427.13	336.54
427.50	341.46
427.87	346.39
428.24	351.26
428.61	355.77
428.99	361.09
429.36	366.70
429.73	372.35
430.10	377.97
430.47	383.54
430.85	389.15
431.22	395.41
431.59	402.25
431.96	408.41
432.33	415.35
432.70	421.97
433.08	429.99
433.45	437.41
433.82	444.95
434.19	453.18
434.56	461.35
434.93	469.05
435.30	476.80
435.68	485.44
436.05	494.00
436.42	502.41
436.79	510.31
437.16	518.69
437.53	527.48
437.90	536.15
438.27	544.82
438.64	553.76
439.01	562.12
439.38	569.36
439.75	576.57
440.13	584.81
440.50	592.25
440.87	598.29
441.24	605.04
441.61	611.95
441.98	617.10
442.35	622.92
442.72	628.98
443.09	634.90
443.46	638.30
443.83	640.57
444.20	642.39
444.57	644.85
444.94	645.93
445.31	647.02
445.68	648.38
446.05	648.53
446.42	647.32
446.79	645.79
447.16	644.27
447.53	643.01
447.90	639.13
448.27	635.57
448.64	630.72
449.01	626.71
449.37	620.59
449.74	614.58
450.11	607.69
450.48	599.95
450.85	591.67
451.22	584.82
451.59	578.22
451.96	572.06
452.33	564.04
452.70	556.68
453.07	548.04
453.43	538.83
453.80	530.49
454.17	522.31
454.54	514.55
454.91	506.23
455.28	498.15
455.65	490.62
456.02	483.64
456.38	477.16
456.75	469.48
457.12	462.97
457.49	456.53
457.86	450.15
458.23	444.94
458.59	439.37
458.96	433.59
459.33	428.48
459.70	423.27
460.07	419.14
460.43	414.42
460.80	409.96
461.17	406.31
461.54	402.24
461.91	398.50
462.27	394.61
462.64	391.30
463.01	387.77
463.38	384.55
463.74	380.54
464.11	377.61
464.48	374.83
464.85	371.95
465.21	369.84
465.58	367.53
465.95	364.55
466.32	362.27
466.68	359.98
467.05	357.77
467.42	355.50
467.78	353.05
468.15	350.88
468.52	349.39
468.88	347.21
469.25	345.27
469.62	343.75
469.98	342.24
470.35	340.75
470.72	339.23
471.08	337.52
471.45	336.38
471.82	335.06
472.18	333.56
472.55	332.50
472.92	331.24
473.28	330.10
473.65	329.04
474.02	327.91
474.38	327.06
474.75	326.14
475.11	325.31
475.48	324.74
475.85	324.06
476.21	323.30
476.58	322.80
476.94	322.35
477.31	321.81
477.67	321.40
478.04	321.04
478.41	320.90
478.77	321.19
479.14	320.77
479.50	320.69
479.87	320.62
480.23	320.60
480.60	320.59
480.96	320.54
481.33	320.97
481.69	321.18
482.06	321.43
482.42	321.77
482.79	322.17
483.15	322.60
483.52	323.25
483.88	323.84
484.25	324.41
484.61	325.14
484.98	325.89
485.34	326.79
485.71	327.74
486.07	328.69
486.44	329.27
486.80	330.41
487.17	331.59
487.53	333.10
487.90	334.51
488.26	336.11
488.62	337.89
488.99	339.39
489.35	341.23
489.72	343.16
490.08	345.12
490.44	347.10
490.81	349.31
491.17	351.50
491.54	353.89
491.90	356.44
492.26	359.04
492.63	361.80
492.99	364.66
493.36	367.76
493.72	371.02
494.08	374.47
494.45	378.23
494.81	382.05
495.17	385.99
495.54	390.25
495.90	394.48
496.26	398.87
496.63	403.55
496.99	408.32
497.35	413.36
497.72	418.71
498.08	424.19
498.44	429.78
498.80	435.85
499.17	441.94
499.53	448.15
499.89	454.85
500.26	461.66
500.62	468.55
500.98	475.90
501.34	483.33
501.71	491.08
502.07	498.97
502.43	507.16
502.79	515.54
503.16	524.17
503.52	533.15
503.88	542.29
504.24	552.13
504.60	562.28
504.97	572.65
505.33	583.00
505.69	594.12
506.05	605.41
506.41	616.62
506.78	628.31
507.14	640.42
507.50	652.86
507.86	665.47
508.22	678.70
508.59	691.76
508.95	705.59
509.31	719.70
509.67	733.93
510.03	748.22
510.39	762.93
510.75	778.03
511.12	793.15
511.48	809.00
511.84	824.54
512.20	840.40
512.56	856.57
512.92	873.57
513.28	890.49
513.64	907.70
514.00	925.49
514.37	943.40
514.73	961.63
515.09	979.82
515.45	998.40
515.81	1016.72
516.17	1035.56
516.53	1054.29
516.89	1073.06
517.25	1092.71
517.61	1112.91
517.97	1133.21
518.33	1153.34
518.69	1174.02
519.05	1194.54
519.41	1215.35
519.77	1236.48
520.13	1257.35
520.49	1278.04
520.85	1300.19
521.21	1321.42
521.57	1342.81
521.93	1363.56
522.29	1384.88
522.65	1405.86
523.01	1426.83
523.37	1447.72
523.73	1468.91
524.09	1489.40
524.45	1510.21
524.81	1531.01
525.17	1551.79
525.53	1572.46
525.89	1593.27
526.25	1614.03
526.61	1634.76
526.97	1656.01
527.33	1677.60
527.68	1699.81
528.04	1721.30
528.40	1741.07
528.76	1762.07
529.12	1782.21
529.48	1803.10
529.84	1823.20
530.20	1844.49
530.56	1865.51
530.91	1886.47
531.27	1907.10
531.63	1928.02
531.99	1948.85
532.35	1969.05
532.71	1989.63
533.07	2010.11
533.42	2030.22
533.78	2050.35
534.14	2070.16
534.50	2089.23
534.86	2108.21
535.21	2125.65
535.57	2144.57
535.93	2162.62
536.29	2180.66
536.65	2199.14
537.00	2216.87
537.36	2234.26
537.72	2250.74
538.08	2268.26
538.44	2285.27
538.79	2301.60
539.15	2318.35
539.51	2334.36
539.87	2349.66
540.22	2363.62
540.58	2378.34
540.94	2391.86
541.29	2404.65
541.65	2417.73
542.01	2430.32
542.37	2440.97
542.72	2452.15
543.08	2462.73
543.44	2474.43
543.79	2484.80
544.15	2494.68
544.51	2504.87
544.87	2515.01
545.22	2523.81
545.58	2531.23
545.94	2538.36
546.29	2545.25
546.65	2551.32
547.01	2557.03
547.36	2562.58
547.72	2568.18
548.07	2572.53
548.43	2577.81
548.79	2582.36
549.14	2586.22
549.50	2590.30
549.86	2594.87
550.21	2598.75
550.57	2601.72
550.92	2603.35
551.28	2604.47
551.64	2606.79
551.99	2608.85
552.35	2610.63
552.70	2612.61
553.06	2614.47
553.41	2615.89
553.77	2618.00
554.13	2619.94
554.48	2621.81
554.84	2623.48
555.19	2624.79
555.55	2626.58
555.90	2626.18
556.26	2625.83
556.61	2624.36
556.97	2622.30
557.32	2621.58
557.68	2620.40
558.03	2619.22
558.39	2617.94
558.74	2617.27
559.10	2614.13
559.45	2610.88
559.81	2606.40
560.16	2601.50
560.52	2596.72
560.87	2592.51
561.23	2586.62
561.58	2580.29
561.94	2573.17
562.29	2565.65
562.64	2558.38
563.00	2550.05
563.35	2543.57
563.71	2536.96
564.06	2530.86
564.42	2524.09
564.77	2516.86
565.12	2509.10
565.48	2501.37
565.83	2493.65
566.19	2485.52
566.54	2477.73
566.89	2469.44
567.25	2461.68
567.60	2454.45
567.96	2446.97
568.31	2438.71
568.66	2430.17
569.02	2421.41
569.37	2413.50
569.72	2406.09
570.08	2397.24
570.43	2387.86
570.78	2378.30
571.14	2368.74
571.49	2358.65
571.84	2349.27
572.20	2338.06
572.55	2327.96
572.90	2317.04
573.26	2306.60
573.61	2295.44
573.96	2284.47
574.31	2272.40
574.67	2260.46
575.02	2247.67
575.37	2234.71
575.72	2221.69
576.08	2209.45
576.43	2197.03
576.78	2183.86
577.13	2170.08
577.49	2156.98
577.84	2144.75
578.19	2132.99
578.54	2120.39
578.90	2108.25
579.25	2096.01
579.60	2083.89
579.95	2071.13
580.30	2057.95
580.66	2044.43
581.01	2031.00
581.36	2017.03
581.71	2004.66
582.06	1991.73
582.42	1979.36
582.77	1966.59
583.12	1954.27
583.47	1941.85
583.82	1929.55
584.17	1917.34
584.53	1905.41
584.88	1892.75
585.23	1879.42
585.58	1864.84
585.93	1851.50
586.28	1837.86
586.63	1823.52
586.98	1809.27
587.34	1795.87
587.69	1782.83
588.04	1770.10
588.39	1757.84
588.74	1745.58
589.09	1733.44
589.44	1720.62
589.79	1708.30
590.14	1696.45
590.49	1684.47
590.84	1672.38
591.19	1660.35
591.54	1647.86
591.89	1635.46
592.25	1625.00
592.60	1613.80
592.95	1602.54
593.30	1590.72
593.65	1578.79
594.00	1566.77
594.35	1556.64
594.70	1544.81
595.05	1533.34
595.40	1521.05
595.75	1509.05
596.10	1497.70
596.45	1485.80
596.80	1474.93
597.15	1463.36
597.50	1451.42
597.85	1439.95
598.19	1428.22
598.54	1416.43
598.89	1405.01
599.24	1394.50
599.59	1382.75
599.94	1371.77
600.29	1361.06
600.64	1350.12
600.99	1339.21
601.34	1329.75
601.69	1318.58
602.04	1308.59
602.39	1298.54
602.74	1289.46
603.08	1279.90
603.43	1270.61
603.78	1260.73
604.13	1251.07
604.48	1241.34
604.83	1231.94
605.18	1222.05
605.53	1212.45
605.87	1203.48
606.22	1195.16
606.57	1185.74
606.92	1176.36
607.27	1167.22
607.62	1158.33
607.96	1149.84
608.31	1141.93
608.66	1133.39
609.01	1124.76
609.36	1116.07
609.70	1107.40
610.05	1098.53
610.40	1090.22
610.75	1081.23
611.10	1072.78
611.44	1064.05
611.79	1055.77
612.14	1047.60
612.49	1039.70
612.83	1032.25
613.18	1024.27
613.53	1016.36
613.88	1008.18
614.22	1000.50
614.57	992.55
614.92	984.77
615.27	977.17
615.61	969.31
615.96	961.63
616.31	954.12
616.65	947.23
617.00	940.09
617.35	932.72
617.70	925.29
618.04	918.27
618.39	911.42
618.74	904.92
619.08	897.99
619.43	890.83
619.78	883.63
620.12	876.39
620.47	869.39
620.82	862.14
621.16	855.50
621.51	848.89
621.85	842.50
622.20	835.81
622.55	829.00
622.89	822.55
623.24	816.04
623.59	809.58
623.93	803.06
624.28	796.71
624.62	791.02
624.97	785.12
625.32	779.20
625.66	773.07
626.01	766.80
626.35	761.16
626.70	755.53
627.04	750.18
627.39	744.52
627.73	739.26
628.08	734.07
628.43	728.53
628.77	722.88
629.12	717.49
629.46	712.49
629.81	707.77
630.15	702.96
630.50	698.06
630.84	693.38
631.19	688.58
631.53	683.96
631.88	678.70
632.22	673.74
632.57	669.10
632.91	664.44
633.26	659.95
633.60	655.32
633.95	650.65
634.29	645.86
634.64	641.45
634.98	636.61
635.32	632.07
635.67	628.01
636.01	623.84
636.36	619.49
636.70	615.52
637.05	611.29
637.39	607.14
637.73	603.01
638.08	598.71
638.42	594.39
638.77	589.98
639.11	585.57
639.45	581.33
639.80	576.87
640.14	572.70
640.49	568.80
640.83	565.00
641.17	561.22
641.52	557.38
641.86	553.74
642.20	550.51
642.55	546.88
642.89	543.35
643.23	539.87
643.58	536.69
643.92	533.09
644.26	529.65
644.61	526.29
644.95	522.85
645.29	519.56
645.64	516.52
645.98	513.39
646.32	510.54
646.66	507.49
647.01	504.59
647.35	501.88
647.69	498.88
648.04	495.96
648.38	493.07
648.72	490.21
649.06	487.14
649.41	483.97
649.75	480.86
650.09	477.87
650.43	474.86
650.78	471.87
651.12	468.87
651.46	466.05
651.80	463.29
652.14	460.69
652.49	458.10
652.83	455.41
653.17	452.82
653.51	450.03
653.85	447.58
654.20	445.05
654.54	442.29
654.88	439.76
655.22	437.50
655.56	435.09
655.90	432.82
656.25	430.55
656.59	428.26
656.93	426.17
657.27	424.20
657.61	421.98
657.95	419.78
658.29	417.70
658.64	415.58
658.98	413.25
659.32	410.88
659.66	408.66
660.00	406.51
660.34	404.53
660.68	402.61
661.02	400.50
661.36	398.54
661.70	396.61
662.05	394.62
662.39	392.57
662.73	390.79
663.07	389.10
663.41	387.32
663.75	385.51
664.09	383.76
664.43	381.66
664.77	379.99
665.11	378.27
665.45	376.61
665.79	375.04
666.13	373.36
666.47	371.75
666.81	370.15
667.15	368.33
667.49	366.79
667.83	365.41
668.17	363.87
668.51	362.33
668.85	360.95
669.19	359.80
669.53	358.19
669.87	356.61
670.21	355.07
670.55	353.67
670.89	352.53
671.23	351.07
671.57	349.65
671.91	348.23
672.25	346.91
672.58	345.71
672.92	344.19
673.26	342.86
673.60	341.62
673.94	340.43
674.28	339.40
674.62	338.15
674.96	336.86
675.30	335.75
675.64	334.66
675.97	333.49
676.31	332.05
676.65	330.85
676.99	329.91
677.33	328.62
677.67	327.55
678.01	326.18
678.34	325.09
678.68	324.09
679.02	323.00
679.36	321.86
679.70	320.82
680.04	319.84
680.37	318.97
680.71	317.96
681.05	317.02
681.39	316.05
681.73	315.06
682.06	314.08
682.40	313.16
682.74	312.23
683.08	311.41
683.42	310.55
683.75	309.73
684.09	308.73
684.43	307.95
684.77	306.96
685.10	306.12
685.44	305.40
685.78	304.62
686.12	303.98
686.45	303.24
686.79	302.26
687.13	301.66
687.46	300.84
687.80	300.25
688.14	299.43
688.48	298.62
688.81	297.84
689.15	297.19
689.49	296.39
689.82	295.67
690.16	294.76
690.50	294.02
690.83	293.34
691.17	292.54
691.51	291.88
691.84	291.26
692.18	290.61
692.52	289.83
692.85	289.24
693.19	288.78
693.52	288.17
693.86	287.59
694.20	286.86
694.53	286.30
694.87	285.62
695.21	284.99
695.54	284.45
695.88	283.81
696.21	283.07
696.55	282.54
696.88	281.91
697.22	281.30
697.56	280.86
697.89	280.27
698.23	279.82
698.56	279.25
698.90	278.78
699.23	278.22
699.57	277.75
699.90	277.12
700.24	276.39
700.58	275.89
700.91	275.52
701.25	275.44
701.58	275.26
701.92	274.94
702.25	274.56
702.59	274.07
702.92	273.70
703.26	273.29
703.59	272.90
703.93	272.88
704.26	272.57
704.60	272.15
704.93	271.80
705.26	271.40
705.60	271.01
705.93	270.51
706.27	270.25
706.60	270.00
706.94	269.83
707.27	269.49
707.61	269.14
707.94	268.73
708.27	267.89
708.61	267.17
708.94	266.65
709.28	266.20
709.61	265.80
709.94	265.40
710.28	265.06
710.61	264.66
710.95	263.93
711.28	263.91
711.61	263.52
711.95	263.23
712.28	262.76
712.61	262.48
712.95	262.38
713.28	262.19
713.61	261.77
713.95	261.17
714.28	260.88
714.61	260.41
714.95	259.95
715.28	259.65
715.61	259.31
715.95	258.97
716.28	258.55
716.61	258.28
716.95	258.03
717.28	257.80
717.61	257.44
717.94	257.08
718.28	256.38
718.61	256.05
718.94	255.61
719.27	255.41
719.61	255.16
719.94	254.77
720.27	254.30
720.60	253.99
720.94	253.81
721.27	253.51
721.60	253.41
721.93	253.28
722.27	253.19
722.60	253.02
722.93	252.79
723.26	252.66
723.59	252.44
723.93	252.22
724.26	251.93
724.59	251.73
724.92	251.58
725.25	251.63
725.59	251.43
725.92	251.32
726.25	251.07
726.58	250.81
726.91	250.63
727.24	250.45
727.57	250.21
727.91	249.93
728.24	249.77
728.57	249.46
728.90	249.34
729.23	249.00
729.56	249.09
729.89	248.91
730.22	248.78
730.55	248.54
730.89	248.32
731.22	248.15
731.55	247.92
731.88	247.82
732.21	247.48
732.54	247.23
732.87	247.08
733.20	247.00
733.53	246.91
733.86	246.80
734.19	246.55
734.52	246.52
734.85	246.69
735.18	246.44
735.51	246.40
735.84	246.25
736.17	246.23
736.50	245.75
736.83	246.09
737.16	245.93
737.49	245.83
737.82	245.69
738.15	245.59
738.48	245.45
738.81	245.23
739.14	245.04
739.47	244.97
739.80	244.79
740.13	244.62
740.46	244.35
740.79	244.08
741.12	243.99
741.45	243.73
741.78	243.34
742.11	243.34
742.44	243.15
742.77	243.09
743.10	242.86
743.43	242.73
743.75	242.12
744.08	242.49
744.41	242.30
744.74	242.10
745.07	241.88
745.40	241.89
745.73	242.00
746.06	241.96
746.39	241.86
746.71	241.69
747.04	241.48
747.37	241.34
747.70	241.29
748.03	241.11
748.36	241.05
748.68	240.89
749.01	240.66
749.34	240.55
749.67	240.32
750.00	240.26
750.33	240.50
750.65	240.48
750.98	239.84
751.31	239.74
751.64	239.68
751.97	239.79
752.29	239.62
752.62	239.23
752.95	239.03
753.28	238.87
753.60	238.77
753.93	238.84
754.26	238.85
754.59	238.65
754.91	238.57
755.24	238.40
755.57	238.32
755.90	238.27
756.22	238.09
756.55	238.00
756.88	237.80
757.20	237.35
757.53	237.10
757.86	236.99
758.19	236.92
758.51	236.89
758.84	236.63
759.17	236.55
759.49	236.55
759.82	236.70
760.15	236.61
760.47	236.50
760.80	236.28
761.13	236.15
761.45	236.01
761.78	235.95
762.11	235.92
762.43	235.79
762.76	235.62
763.08	235.58
763.41	235.51
763.74	235.42
764.06	235.38
764.39	235.32
764.71	235.24
765.04	235.12
765.37	234.93
765.69	234.85
766.02	234.69
766.34	234.50
766.67	234.23
767.00	234.26
767.32	234.39
767.65	234.63
767.97	234.56
768.30	234.50
768.62	234.40
768.95	234.21
769.27	234.13
769.60	234.11
769.92	233.91
770.25	233.66
770.57	233.57
770.90	233.43
771.22	233.28
771.55	233.19
771.87	233.14
772.20	233.01
772.52	233.37
772.85	233.87
773.17	233.81
773.50	233.75
773.82	233.58
774.15	233.34
774.47	232.96
774.80	232.85
775.12	232.75
775.45	232.71
775.77	232.70
776.09	232.65
776.42	232.63
776.74	232.73
777.07	232.72
777.39	232.63
777.72	232.56
778.04	232.55
778.36	232.48
778.69	232.44
779.01	232.48
779.33	231.96
779.66	231.41
779.98	231.30
780.31	231.28
780.63	231.45
780.95	231.43
781.28	231.37
781.60	231.25
781.92	231.26
782.25	231.18
782.57	231.17
782.89	231.05
783.22	230.99
783.54	230.91
783.86	230.92
784.19	230.88
784.51	231.00
784.83	230.97
785.16	230.94
785.48	230.90
785.80	230.85
786.12	230.89
786.45	230.77
786.77	230.76
787.09	230.76
787.42	230.53
787.74	230.52
788.06	230.49
788.38	230.52
788.71	230.48
789.03	230.45
789.35	230.47
789.67	230.49
789.99	230.54
790.32	230.53
790.64	230.53
790.96	230.92
791.28	230.73
791.61	230.62
791.93	230.56
792.25	230.50
792.57	230.85
792.89	230.73
793.21	230.81
793.54	230.75
793.86	230.61
794.18	230.67
794.50	230.65
794.82	230.67
795.14	230.67
795.47	230.73
795.79	230.78
796.11	230.66
796.43	230.64
796.75	230.58
797.07	230.50
797.39	230.51
797.71	230.16
798.04	230.22
798.36	230.29
798.68	230.33
799.00	230.31
799.32	230.05
799.64	230.10
799.96	230.01
800.28	230.15
800.60	230.11
800.92	230.03
801.24	229.96
801.56	229.98
801.89	229.89
802.21	229.91
802.53	229.81
802.85	229.88
803.17	230.09
803.49	229.99
803.81	229.92
804.13	229.81
804.45	229.71
804.77	229.62
805.09	229.58
805.41	229.50
805.73	229.42
806.05	229.27
806.37	229.25
806.69	229.29
807.01	229.18
807.33	229.26
807.65	229.06
807.97	229.16
808.28	229.06
808.60	229.12
808.92	229.06
809.24	229.31
809.56	229.23
809.88	229.05
810.20	229.03
810.52	229.14
810.84	229.12
811.16	229.09
811.48	229.13
811.80	229.35
812.12	229.38
812.43	229.42
812.75	229.45
813.07	229.32
813.39	229.31
813.71	229.26
814.03	229.17
814.35	229.25
814.67	229.11
814.98	229.10
815.30	229.07
815.62	228.96
815.94	228.61
816.26	228.77
816.58	228.65
816.89	228.72
817.21	228.58
817.53	228.60
817.85	228.70
818.17	228.62
818.48	228.41
818.80	228.43
819.12	228.44
819.44	228.34
819.76	228.35
820.07	228.28
820.39	228.28
820.71	228.27
821.03	228.27
821.34	228.25
821.66	228.26
821.98	228.23
822.30	228.25
822.61	228.59
822.93	228.43
823.25	228.43
823.57	228.34
823.88	228.44
824.20	228.38
824.52	228.42
824.83	228.43
825.15	228.37
825.47	228.29
825.79	228.31
826.10	228.29
826.42	228.31
826.74	228.44
827.05	228.46
827.37	228.52
827.69	228.55
828.00	228.54
828.32	228.59
828.64	228.56
828.95	228.75
829.27	228.58
829.58	228.55
829.90	228.67
830.22	228.74
830.53	228.60
830.85	228.64
831.17	228.48
831.48	228.48
831.80	228.45
832.11	228.45
832.43	228.41
832.75	228.48
833.06	228.69
833.38	228.51
833.69	228.41
834.01	228.40
834.32	228.35
834.64	228.34
834.96	228.30
835.27	228.29
835.59	228.14
835.90	228.06
836.22	228.00
836.53	227.84
836.85	227.81
837.16	228.31
837.48	228.27
837.79	228.35
838.11	228.39
838.42	228.41
838.74	228.48
839.05	228.43
839.37	228.35
839.68	228.05
840.00	228.06
840.31	228.16
840.63	228.09
840.94	228.02
841.26	227.96
841.57	227.98
841.88	228.02
842.20	227.96
842.51	227.87
842.83	227.85
843.14	228.37
843.46	228.28
843.77	227.96
844.08	227.99
844.40	227.93
844.71	227.90
845.03	227.85
845.34	227.78
845.65	227.75
845.97	227.74
846.28	227.74
846.60	227.81
846.91	227.68
847.22	227.68
847.54	227.78
847.85	227.85
848.16	227.76
848.48	227.64
848.79	227.83
849.10	227.97
849.42	228.00
849.73	227.45
850.04	227.46
850.36	227.28
850.67	227.35
850.98	227.34
851.30	227.39
851.61	227.37
851.92	227.36
852.23	227.48
852.55	227.53
852.86	227.53
853.17	227.60
853.49	227.72
853.80	227.85
854.11	227.94
854.42	227.96
854.74	227.94
855.05	228.00
855.36	227.72
855.67	227.72
855.99	227.73
856.30	228.36
856.61	228.39
856.92	228.47
857.23	228.39
857.55	228.30
857.86	228.28
858.17	228.33
858.48	228.29
858.79	228.19
859.11	228.22
859.42	228.25
859.73	228.05
860.04	228.06
860.35	227.88
860.66	227.71
860.98	227.67
861.29	227.74
861.60	227.67
861.91	227.82
862.22	227.70
862.53	227.64
862.84	227.03
863.16	227.06
863.47	226.91
863.78	226.92
864.09	227.01
864.40	226.97
864.71	227.00
865.02	227.05
865.33	227.01
865.64	226.88
865.95	226.88
866.27	227.25
866.58	227.07
866.89	227.11
867.20	227.12
867.51	226.97
867.82	226.93
868.13	227.11
868.44	226.98
868.75	227.04
869.06	227.08
869.37	227.15
869.68	227.01
869.99	227.15
870.30	227.13
870.61	227.19
870.92	227.15
871.23	227.02
871.54	227.06
871.85	227.15
872.16	227.25
872.47	227.22
872.78	226.92
873.09	227.07
873.40	227.07
873.71	227.05
874.02	227.14
874.33	227.12
874.64	227.00
874.95	227.03
875.26	226.95
875.56	226.89
875.87	226.90
876.18	226.91
876.49	227.40
876.80	227.34
877.11	227.18
877.42	227.23
877.73	227.28
878.04	227.16
878.35	227.14
878.66	227.15
878.96	227.10
879.27	227.02
879.58	226.94
879.89	226.85
880.20	226.99
880.51	226.97
880.82	226.95
881.12	226.95
881.43	226.92
881.74	226.90
882.05	226.90
882.36	226.90
882.67	226.91
882.97	226.38
883.28	226.36
883.59	226.41
883.90	226.46
884.21	226.53
884.51	226.56
884.82	226.46
885.13	226.46
885.44	226.50
885.74	226.56
886.05	226.58
886.36	226.65
886.67	226.51
886.98	226.79
887.28	226.85
887.59	226.88
887.90	226.89
888.20	226.92
888.51	226.97
888.82	226.90
889.13	226.92
889.43	227.30
889.74	227.27
890.05	227.25
890.35	227.16
890.66	227.11
890.97	227.06
891.28	227.04
891.58	227.02
891.89	227.03
892.20	226.97
892.50	226.86
892.81	226.88
893.12	226.90
893.42	226.63
893.73	226.65
894.04	226.61
894.34	226.54
894.65	226.46
894.95	226.44
895.26	226.49
895.57	226.77
895.87	226.29
896.18	226.40
896.48	226.44
896.79	226.41
897.10	226.45
897.40	226.54
897.71	226.58
898.01	226.56
898.32	226.60
898.63	226.63
898.93	226.76
899.24	226.63
899.54	226.58
899.85	226.61
900.15	226.59
900.46	226.64
900.76	226.77
901.07	226.80
901.38	226.81
901.68	226.83
901.99	226.57
902.29	226.62
902.60	226.54
902.90	226.48
903.21	226.52
903.51	226.43
903.82	226.52
904.12	226.59
904.43	226.70
904.73	226.68
905.03	226.73
905.34	227.10
905.64	227.15
905.95	227.25
906.25	227.19
906.56	227.14
906.86	227.11
907.17	227.04
907.47	227.12
907.77	227.09
908.08	227.01
908.38	227.07
908.69	227.15
908.99	227.20
909.30	227.26
909.60	227.33
909.90	227.42
910.21	227.29
910.51	227.25
910.81	227.22
911.12	227.20
911.42	227.15
911.73	226.74
912.03	226.80
912.33	226.89
912.64	226.91
912.94	226.86
913.24	226.80
913.55	226.83
913.85	226.73
914.15	226.82
914.46	226.84
914.76	226.80
915.06	226.72
915.37	226.70
915.67	226.70
915.97	226.60
916.27	226.49
916.58	226.50
916.88	226.40
917.18	226.30
917.49	226.67
917.79	226.64
918.09	226.76
918.39	226.85
918.70	226.70
919.00	226.72
919.30	226.97
919.60	226.92
919.91	226.86
920.21	226.93
920.51	226.82
920.81	226.89
921.12	226.96
921.42	226.99
921.72	227.03
922.02	227.02
922.32	227.11
922.63	227.17
922.93	227.36
923.23	227.48
923.53	227.45
923.83	227.10
924.13	227.18
924.44	227.18
924.74	227.29
925.04	227.43
925.34	227.43
925.64	227.26
925.94	227.28
926.24	227.57
926.55	227.59
926.85	227.61
927.15	227.58
927.45	227.62
927.75	227.61
928.05	227.62
928.35	227.55
928.65	227.62
928.95	227.69
929.26	227.50
929.56	227.50
929.86	227.68
930.16	227.75
930.46	227.72
930.76	227.73
931.06	227.46
931.36	227.38
931.66	227.45
931.96	227.53
932.26	227.54
932.56	227.28
932.86	227.24
933.16	227.29
933.46	227.24
933.76	227.10
934.06	227.23
934.36	227.43
934.66	227.45
934.96	227.39
935.26	227.38
935.56	227.51
935.86	227.44
936.16	227.32
936.46	227.20
936.76	227.13
937.06	227.08
937.36	227.13
937.66	227.12
937.96	227.07
938.26	226.96
938.56	226.93
938.86	227.06
939.16	227.12
939.46	227.16
939.76	227.16
940.06	227.18
940.35	227.11
940.65	226.81
940.95	226.88
941.25	226.76
941.55	226.66
941.85	226.63
942.15	226.72
942.45	226.79
942.75	226.79
943.04	226.85
943.34	226.91
943.64	226.85
943.94	226.74
944.24	226.71
944.54	226.72
944.84	226.71
945.13	226.60
945.43	226.54
945.73	226.50
946.03	226.52
946.33	226.44
946.62	226.30
946.92	226.29
947.22	226.30
947.52	226.31
947.82	226.35
948.11	226.26
948.41	226.18
948.71	226.04
949.01	226.03
949.31	225.96
949.60	225.84
949.90	225.95
950.20	225.98
950.50	225.93
950.79	225.95
951.09	226.02
951.39	225.95
951.69	225.96
951.98	226.00
952.28	226.02
952.58	225.96
952.87	226.01
953.17	226.10
953.47	226.04
953.76	226.03
954.06	226.01
954.36	225.91
954.66	225.86
954.95	225.95
955.25	226.01
955.55	226.05
955.84	226.02
956.14	226.06
956.44	226.06
956.73	226.04
957.03	225.97
957.32	226.01
957.62	225.99
957.92	226.03
958.21	226.00
958.51	226.45
958.81	226.61
959.10	226.61
959.40	226.73
959.69	226.75
959.99	226.82
960.29	226.85
960.58	226.87
960.88	227.04
961.17	227.06
961.47	227.07
961.76	227.04
962.06	227.19
962.36	227.09
962.65	227.12
962.95	227.19
963.24	227.18
963.54	227.17
963.83	227.22
964.13	227.24
964.42	227.11
964.72	226.78
965.01	226.77
965.31	226.80
965.60	226.66
965.90	226.95
966.19	226.94
966.49	226.94
966.78	226.99
967.08	226.91
967.37	226.86
967.67	226.90
967.96	227.04
968.26	226.99
968.55	227.08
968.85	227.12
969.14	227.11
969.43	227.17
969.73	227.15
970.02	227.21
970.32	227.20
970.61	227.28
970.91	227.08
971.20	227.02
971.49	227.03
971.79	227.09
972.08	226.76
972.38	226.82
972.67	226.82
972.96	226.90
973.26	226.88
973.55	227.05
973.85	226.95
974.14	226.80
974.43	226.81
974.73	226.77
975.02	226.70
975.31	226.76
975.61	226.71
975.90	226.65
976.19	226.58
976.49	226.57
976.78	226.53
977.07	226.61
977.37	226.73
977.66	226.72
977.95	226.65
978.24	226.66
978.54	226.69
978.83	226.60
979.12	226.51
979.42	226.47
979.71	226.36
980.00	226.37
980.29	226.45
980.59	226.37
980.88	226.41
981.17	226.42
981.46	226.37
981.76	226.36
982.05	226.53
982.34	226.56
982.63	226.57
982.93	226.62
983.22	226.72
983.51	226.69
983.80	226.76
984.09	226.84
984.39	226.82
984.68	226.74
984.97	226.85
985.26	226.79
985.55	226.89
985.85	226.84
986.14	226.88
986.43	226.89
986.72	226.82
987.01	226.68
987.30	226.65
987.59	226.53
987.89	226.56
988.18	226.37
988.47	226.33
988.76	226.30
989.05	226.28
989.34	226.14
989.63	226.22
989.92	226.13
990.22	226.04
990.51	226.05
990.80	226.01
991.09	226.01
991.38	226.06
991.67	225.93
991.96	225.85
992.25	225.90
992.54	225.84
992.83	225.95
993.12	225.97
993.41	226.05
993.70	226.35
993.99	226.41
994.28	226.50
994.58	226.55
994.87	226.50
995.16	226.42
995.45	226.42
995.74	226.22
996.03	226.31
996.32	226.39
996.61	226.48
996.90	226.43
997.19	226.43
997.48	226.46
997.77	226.51
998.06	226.54
998.34	226.45
998.63	226.39
998.92	226.36
999.21	226.41
999.50	226.43
999.79	226.23
1000.08	226.21
1000.37	226.19
1000.66	226.12
1000.95	226.26
1001.24	226.32
1001.53	226.38
1001.82	226.49
1002.11	226.31
1002.40	226.35
1002.68	226.47
1002.97	226.92
1003.26	226.81
1003.55	226.78
1003.84	226.79
1004.13	226.99
1004.42	227.04
1004.71	227.10
1004.99	227.08
1005.28	227.24
1005.57	227.15
1005.86	227.09
1006.15	227.04
1006.44	226.97
1006.72	227.12
1007.01	227.09
1007.30	227.13
1007.59	227.15
1007.88	227.04
1008.17	227.13
1008.45	227.01
1008.74	226.80
1009.03	226.51
1009.32	226.57
1009.60	226.55
1009.89	226.43
1010.18	226.16
1010.47	226.12
1010.76	226.12
1011.04	226.14
1011.33	226.07
1011.62	226.12
1011.91	226.21
1012.19	226.22
1012.48	226.28
1012.77	226.15
1013.05	226.32
1013.34	226.36
1013.63	226.27
1013.92	226.32
1014.20	226.29
1014.49	226.33
1014.78	226.41
1015.06	226.28
1015.35	226.26
1015.64	226.41
1015.92	226.57
1016.21	226.70
1016.50	226.70
1016.78	226.71
1017.07	226.74
1017.36	226.64
1017.64	226.61
1017.93	226.62
1018.22	226.61
1018.50	226.53
1018.79	226.53
1019.08	226.27
1019.36	226.27
1019.65	226.20
1019.93	226.33
1020.22	226.43
1020.51	226.66
1020.79	226.55
1021.08	225.90
1021.36	224.70
1021.65	225.55
1021.94	225.65
1022.22	227.15
1022.51	224.70
1022.79	228.60
1023.08	227.55
1023.36	231.60
1023.65	225.00
>>>>>End Processed Spectral Data<<<<<
