SpectraSuite Data File
++++++++++++++++++++++++++++++++++++
Date: Wed Sep 04 17:52:48 EDT 2013
User: lab3
Dark Spectrum Present: Yes
Reference Spectrum Present: No
Number of Sampled Component Spectra: 1
Spectrometers: USB2E7196
Integration Time (usec): 170000 (USB2E7196)
Spectra Averaged: 20 (USB2E7196)
Boxcar Smoothing: 10 (USB2E7196)
Correct for Electrical Dark: No (USB2E7196)
Strobe/Lamp Enabled: No (USB2E7196)
Correct for Detector Non-linearity: No (USB2E7196)
Correct for Stray Light: No (USB2E7196)
Number of Pixels in Processed Spectrum: 2048
>>>>>Begin Processed Spectral Data<<<<<
339.09	0.00
339.48	213.50
339.86	214.85
340.24	214.70
340.63	217.50
341.01	226.30
341.39	220.30
341.78	221.80
342.16	223.00
342.54	223.25
342.93	212.24
343.31	222.91
343.69	223.42
344.07	223.88
344.46	224.38
344.84	224.75
345.22	224.72
345.60	225.02
345.99	225.25
346.37	225.38
346.75	225.49
347.13	225.65
347.52	225.75
347.90	226.00
348.28	225.94
348.66	226.03
349.05	225.87
349.43	225.95
349.81	226.05
350.19	226.08
350.57	226.15
350.96	226.30
351.34	226.43
351.72	226.50
352.10	226.64
352.48	226.67
352.87	226.74
353.25	226.75
353.63	226.69
354.01	226.71
354.39	226.72
354.77	226.81
355.15	226.94
355.54	226.93
355.92	226.80
356.30	226.87
356.68	227.25
357.06	227.33
357.44	227.31
357.82	227.28
358.20	227.74
358.58	227.78
358.97	227.74
359.35	227.88
359.73	228.10
360.11	228.06
360.49	228.19
360.87	228.26
361.25	228.41
361.63	228.75
362.01	228.84
362.39	228.92
362.77	229.00
363.15	229.02
363.53	229.00
363.91	229.09
364.29	229.16
364.67	228.72
365.05	228.77
365.43	228.90
365.81	229.00
366.19	228.72
366.57	229.01
366.95	229.08
367.33	229.00
367.71	228.91
368.09	229.10
368.47	229.11
368.85	229.09
369.23	229.20
369.61	228.94
369.99	229.07
370.37	229.11
370.75	229.33
371.13	229.29
371.51	229.27
371.89	229.29
372.27	229.29
372.65	229.34
373.03	229.34
373.41	229.25
373.78	229.24
374.16	229.07
374.54	228.81
374.92	228.72
375.30	228.72
375.68	228.54
376.06	228.40
376.44	228.31
376.82	228.32
377.19	228.20
377.57	228.12
377.95	227.90
378.33	227.81
378.71	227.45
379.09	227.44
379.47	227.44
379.84	227.38
380.22	227.30
380.60	227.14
380.98	227.09
381.36	227.01
381.73	226.89
382.11	226.94
382.49	226.88
382.87	226.70
383.25	226.60
383.62	227.20
384.00	227.10
384.38	227.03
384.76	227.01
385.13	227.15
385.51	227.09
385.89	226.94
386.27	226.93
386.64	226.94
387.02	226.79
387.40	226.67
387.78	226.62
388.15	226.62
388.53	226.57
388.91	226.55
389.29	226.49
389.66	226.54
390.04	226.38
390.42	226.44
390.79	226.61
391.17	226.54
391.55	225.97
391.92	226.02
392.30	226.07
392.68	226.00
393.05	225.95
393.43	226.07
393.81	226.15
394.18	226.08
394.56	226.11
394.94	226.34
395.31	226.35
395.69	226.49
396.06	226.54
396.44	226.63
396.82	226.65
397.19	226.95
397.57	226.95
397.95	227.16
398.32	227.04
398.70	227.05
399.07	227.29
399.45	227.45
399.82	227.48
400.20	227.47
400.58	227.61
400.95	227.45
401.33	227.61
401.70	228.04
402.08	228.17
402.45	228.30
402.83	228.45
403.20	228.60
403.58	228.66
403.95	228.93
404.33	229.17
404.71	229.36
405.08	229.76
405.46	229.90
405.83	230.11
406.21	230.41
406.58	230.67
406.96	230.91
407.33	231.20
407.70	231.59
408.08	232.32
408.45	232.72
408.83	233.31
409.20	233.61
409.58	233.75
409.95	234.35
410.33	234.87
410.70	235.30
411.08	236.01
411.45	236.65
411.82	237.14
412.20	237.81
412.57	238.75
412.95	239.04
413.32	239.97
413.69	240.81
414.07	241.73
414.44	242.67
414.82	243.64
415.19	244.78
415.56	245.90
415.94	246.94
416.31	248.38
416.68	249.75
417.06	251.47
417.43	253.12
417.81	254.85
418.18	256.68
418.55	258.55
418.93	260.49
419.30	262.59
419.67	264.92
420.04	267.23
420.42	269.55
420.79	272.72
421.16	275.53
421.54	278.55
421.91	281.49
422.28	284.60
422.66	287.98
423.03	291.49
423.40	294.88
423.77	298.49
424.15	302.04
424.52	305.83
424.89	309.86
425.26	313.72
425.64	317.53
426.01	321.66
426.38	326.03
426.75	330.53
427.13	335.16
427.50	339.88
427.87	344.71
428.24	349.61
428.61	354.09
428.99	359.40
429.36	364.92
429.73	370.41
430.10	375.93
430.47	381.52
430.85	387.04
431.22	393.26
431.59	399.99
431.96	406.14
432.33	412.82
432.70	419.59
433.08	427.40
433.45	434.80
433.82	442.28
434.19	450.48
434.56	458.67
434.93	466.23
435.30	473.93
435.68	482.50
436.05	490.95
436.42	499.15
436.79	506.72
437.16	514.98
437.53	523.70
437.90	532.36
438.27	540.89
438.64	549.82
439.01	557.89
439.38	565.01
439.75	572.17
440.13	580.35
440.50	587.64
440.87	593.82
441.24	600.10
441.61	606.92
441.98	611.98
442.35	617.70
442.72	623.65
443.09	629.50
443.46	632.97
443.83	635.24
444.20	637.22
444.57	639.97
444.94	640.95
445.31	642.09
445.68	643.43
446.05	643.61
446.42	642.30
446.79	641.10
447.16	639.45
447.53	638.22
447.90	634.55
448.27	631.00
448.64	626.21
449.01	622.49
449.37	616.48
449.74	610.52
450.11	603.66
450.48	595.97
450.85	587.81
451.22	581.03
451.59	574.43
451.96	568.18
452.33	560.06
452.70	552.83
453.07	544.17
453.43	535.14
453.80	526.80
454.17	518.73
454.54	511.01
454.91	502.95
455.28	494.97
455.65	487.54
456.02	480.85
456.38	474.43
456.75	466.76
457.12	460.17
457.49	453.81
457.86	447.55
458.23	442.47
458.59	436.82
458.96	430.95
459.33	425.84
459.70	420.77
460.07	416.79
460.43	412.08
460.80	407.83
461.17	404.08
461.54	400.10
461.91	396.34
462.27	392.49
462.64	389.17
463.01	385.66
463.38	382.36
463.74	378.27
464.11	375.23
464.48	372.67
464.85	369.85
465.21	367.83
465.58	365.46
465.95	362.60
466.32	360.50
466.68	358.34
467.05	356.14
467.42	353.97
467.78	351.64
468.15	349.60
468.52	348.08
468.88	345.91
469.25	343.96
469.62	342.55
469.98	341.00
470.35	339.47
470.72	337.95
471.08	336.35
471.45	335.09
471.82	333.91
472.18	332.43
472.55	331.39
472.92	329.99
473.28	328.88
473.65	327.86
474.02	326.74
474.38	325.87
474.75	325.16
475.11	324.21
475.48	323.49
475.85	322.73
476.21	321.98
476.58	321.49
476.94	321.24
477.31	320.71
477.67	320.18
478.04	319.86
478.41	319.75
478.77	320.00
479.14	319.64
479.50	319.44
479.87	319.47
480.23	319.43
480.60	319.33
480.96	319.32
481.33	319.66
481.69	319.96
482.06	320.19
482.42	320.40
482.79	320.82
483.15	321.22
483.52	321.82
483.88	322.38
484.25	322.82
484.61	323.32
484.98	324.05
485.34	324.98
485.71	325.89
486.07	326.88
486.44	327.48
486.80	328.65
487.17	329.79
487.53	331.15
487.90	332.54
488.26	334.29
488.62	336.01
488.99	337.53
489.35	339.22
489.72	341.08
490.08	343.03
490.44	345.02
490.81	347.27
491.17	349.57
491.54	352.10
491.90	354.70
492.26	357.36
492.63	360.21
492.99	363.17
493.36	366.26
493.72	369.53
494.08	372.96
494.45	376.68
494.81	380.59
495.17	384.41
495.54	388.62
495.90	392.80
496.26	397.23
496.63	401.90
496.99	406.72
497.35	411.82
497.72	417.03
498.08	422.55
498.44	428.28
498.80	434.31
499.17	440.35
499.53	446.73
499.89	453.38
500.26	460.13
500.62	467.04
500.98	474.52
501.34	482.08
501.71	489.81
502.07	497.55
502.43	505.72
502.79	514.27
503.16	522.92
503.52	531.91
503.88	541.14
504.24	550.82
504.60	560.85
504.97	570.99
505.33	581.35
505.69	592.23
506.05	603.23
506.41	614.51
506.78	626.09
507.14	638.11
507.50	650.43
507.86	662.91
508.22	675.82
508.59	688.72
508.95	702.40
509.31	716.48
509.67	730.87
510.03	745.00
510.39	759.51
510.75	774.69
511.12	789.93
511.48	805.48
511.84	821.10
512.20	836.84
512.56	853.18
512.92	870.14
513.28	887.13
513.64	904.17
514.00	921.51
514.37	939.10
514.73	957.10
515.09	975.37
515.45	993.62
515.81	1012.11
516.17	1030.91
516.53	1049.24
516.89	1067.92
517.25	1087.06
517.61	1107.45
517.97	1127.90
518.33	1147.65
518.69	1167.91
519.05	1188.42
519.41	1208.77
519.77	1229.70
520.13	1250.37
520.49	1271.01
520.85	1293.31
521.21	1314.31
521.57	1335.58
521.93	1356.50
522.29	1377.82
522.65	1398.10
523.01	1419.01
523.37	1439.54
523.73	1460.63
524.09	1481.11
524.45	1501.62
524.81	1522.38
525.17	1542.89
525.53	1563.07
525.89	1584.11
526.25	1604.83
526.61	1625.06
526.97	1646.20
527.33	1667.40
527.68	1688.87
528.04	1709.94
528.40	1729.27
528.76	1750.38
529.12	1770.73
529.48	1791.41
529.84	1811.15
530.20	1832.32
530.56	1852.92
530.91	1873.95
531.27	1894.22
531.63	1914.73
531.99	1935.19
532.35	1954.89
532.71	1974.93
533.07	1995.66
533.42	2015.15
533.78	2034.84
534.14	2054.53
534.50	2073.93
534.86	2093.03
535.21	2110.71
535.57	2129.18
535.93	2146.82
536.29	2164.43
536.65	2182.43
537.00	2200.04
537.36	2217.54
537.72	2234.08
538.08	2251.29
538.44	2267.57
538.79	2283.73
539.15	2300.33
539.51	2316.56
539.87	2332.15
540.22	2346.05
540.58	2360.24
540.94	2373.76
541.29	2386.37
541.65	2399.02
542.01	2411.10
542.37	2421.67
542.72	2432.37
543.08	2442.78
543.44	2454.35
543.79	2464.23
544.15	2474.25
544.51	2484.00
544.87	2493.44
545.22	2502.32
545.58	2509.86
545.94	2517.21
546.29	2523.63
546.65	2529.43
547.01	2534.80
547.36	2540.21
547.72	2545.48
548.07	2549.17
548.43	2554.00
548.79	2558.93
549.14	2562.74
549.50	2566.21
549.86	2570.13
550.21	2573.97
550.57	2577.25
550.92	2578.55
551.28	2579.89
551.64	2581.89
551.99	2583.67
552.35	2585.07
552.70	2586.89
553.06	2588.51
553.41	2589.48
553.77	2591.37
554.13	2593.26
554.48	2594.84
554.84	2596.03
555.19	2597.31
555.55	2599.12
555.90	2598.43
556.26	2597.12
556.61	2595.81
556.97	2593.69
557.32	2593.28
557.68	2592.28
558.03	2591.07
558.39	2589.57
558.74	2588.53
559.10	2585.13
559.45	2581.45
559.81	2577.27
560.16	2571.89
560.52	2567.09
560.87	2562.80
561.23	2557.39
561.58	2551.80
561.94	2544.84
562.29	2537.82
562.64	2531.05
563.00	2522.45
563.35	2516.10
563.71	2509.45
564.06	2503.12
564.42	2497.04
564.77	2489.77
565.12	2482.29
565.48	2474.32
565.83	2466.45
566.19	2458.42
566.54	2450.59
566.89	2442.59
567.25	2434.84
567.60	2427.88
567.96	2420.39
568.31	2412.57
568.66	2403.91
569.02	2394.62
569.37	2386.33
569.72	2378.48
570.08	2368.73
570.43	2359.61
570.78	2350.29
571.14	2340.96
571.49	2330.68
571.84	2321.06
572.20	2310.03
572.55	2299.58
572.90	2288.84
573.26	2278.80
573.61	2268.03
573.96	2257.09
574.31	2245.11
574.67	2233.28
575.02	2220.35
575.37	2207.72
575.72	2194.30
576.08	2182.20
576.43	2169.50
576.78	2156.46
577.13	2142.81
577.49	2130.33
577.84	2118.35
578.19	2106.46
578.54	2094.00
578.90	2082.16
579.25	2069.89
579.60	2057.55
579.95	2044.70
580.30	2031.55
580.66	2017.89
581.01	2004.31
581.36	1990.23
581.71	1977.87
582.06	1964.95
582.42	1952.83
582.77	1940.23
583.12	1928.35
583.47	1916.04
583.82	1904.10
584.17	1892.32
584.53	1880.72
584.88	1867.77
585.23	1854.48
585.58	1840.27
585.93	1826.98
586.28	1813.82
586.63	1799.90
586.98	1785.59
587.34	1772.41
587.69	1759.20
588.04	1746.71
588.39	1734.80
588.74	1722.83
589.09	1710.66
589.44	1698.30
589.79	1685.91
590.14	1673.84
590.49	1661.68
590.84	1649.48
591.19	1637.51
591.54	1625.16
591.89	1612.84
592.25	1602.69
592.60	1591.67
592.95	1580.24
593.30	1568.45
593.65	1556.43
594.00	1544.37
594.35	1535.01
594.70	1523.32
595.05	1512.07
595.40	1499.99
595.75	1487.82
596.10	1476.60
596.45	1465.20
596.80	1454.28
597.15	1443.00
597.50	1431.51
597.85	1420.48
598.19	1409.02
598.54	1397.55
598.89	1386.32
599.24	1375.63
599.59	1364.25
599.94	1353.31
600.29	1343.24
600.64	1333.08
600.99	1322.65
601.34	1313.14
601.69	1301.94
602.04	1292.26
602.39	1282.41
602.74	1273.40
603.08	1264.45
603.43	1255.14
603.78	1245.45
604.13	1235.81
604.48	1226.25
604.83	1216.39
605.18	1206.51
605.53	1196.90
605.87	1187.64
606.22	1179.08
606.57	1170.02
606.92	1160.73
607.27	1151.80
607.62	1143.08
607.96	1134.54
608.31	1126.39
608.66	1118.00
609.01	1109.59
609.36	1101.06
609.70	1092.76
610.05	1084.11
610.40	1075.64
610.75	1067.20
611.10	1058.91
611.44	1050.48
611.79	1042.35
612.14	1034.65
612.49	1026.71
612.83	1019.40
613.18	1011.68
613.53	1003.90
613.88	995.98
614.22	988.08
614.57	980.16
614.92	972.20
615.27	964.64
615.61	956.85
615.96	949.31
616.31	941.64
616.65	934.60
617.00	927.21
617.35	920.11
617.70	912.71
618.04	905.54
618.39	898.71
618.74	892.27
619.08	885.37
619.43	878.42
619.78	871.36
620.12	864.27
620.47	857.52
620.82	850.42
621.16	843.63
621.51	837.46
621.85	831.36
622.20	824.94
622.55	818.25
622.89	811.88
623.24	805.32
623.59	799.12
623.93	792.74
624.28	786.76
624.62	781.25
624.97	775.60
625.32	769.90
625.66	763.92
626.01	757.76
626.35	752.34
626.70	746.83
627.04	741.72
627.39	736.17
627.73	730.85
628.08	725.74
628.43	720.42
628.77	714.97
629.12	709.74
629.46	704.94
629.81	700.38
630.15	695.75
630.50	691.34
630.84	686.51
631.19	681.74
631.53	677.12
631.88	671.92
632.22	667.11
632.57	662.67
632.91	658.03
633.26	653.69
633.60	648.98
633.95	644.33
634.29	639.53
634.64	635.30
634.98	630.67
635.32	626.39
635.67	622.48
636.01	618.37
636.36	614.05
636.70	609.99
637.05	605.69
637.39	601.59
637.73	597.31
638.08	593.35
638.42	589.27
638.77	585.02
639.11	580.82
639.45	576.44
639.80	572.09
640.14	568.04
640.49	563.95
640.83	560.30
641.17	556.60
641.52	553.00
641.86	549.28
642.20	546.17
642.55	542.51
642.89	538.78
643.23	535.23
643.58	532.09
643.92	528.48
644.26	525.18
644.61	521.98
644.95	518.65
645.29	515.21
645.64	512.16
645.98	509.18
646.32	506.25
646.66	503.35
647.01	500.44
647.35	497.80
647.69	494.97
648.04	492.14
648.38	489.41
648.72	486.53
649.06	483.56
649.41	480.31
649.75	477.40
650.09	474.68
650.43	471.97
650.78	468.95
651.12	466.18
651.46	463.33
651.80	460.54
652.14	457.72
652.49	455.34
652.83	452.77
653.17	450.14
653.51	447.35
653.85	445.00
654.20	442.39
654.54	439.64
654.88	437.09
655.22	434.81
655.56	432.39
655.90	430.20
656.25	427.94
656.59	425.87
656.93	423.64
657.27	421.55
657.61	419.01
657.95	416.94
658.29	414.78
658.64	412.70
658.98	410.46
659.32	408.39
659.66	406.18
660.00	404.06
660.34	401.94
660.68	400.06
661.02	398.04
661.36	396.20
661.70	394.31
662.05	392.44
662.39	390.36
662.73	388.60
663.07	386.96
663.41	385.14
663.75	383.21
664.09	381.43
664.43	379.38
664.77	377.83
665.11	376.02
665.45	374.38
665.79	372.78
666.13	371.05
666.47	369.52
666.81	367.85
667.15	366.16
667.49	364.72
667.83	363.42
668.17	361.91
668.51	360.44
668.85	359.11
669.19	357.90
669.53	356.44
669.87	354.91
670.21	353.29
670.55	351.94
670.89	350.86
671.23	349.64
671.57	348.30
671.91	346.97
672.25	345.56
672.58	344.28
672.92	342.85
673.26	341.63
673.60	340.26
673.94	339.13
674.28	337.95
674.62	336.75
674.96	335.31
675.30	334.08
675.64	332.84
675.97	331.58
676.31	330.23
676.65	329.01
676.99	328.03
677.33	326.80
677.67	325.69
678.01	324.40
678.34	323.23
678.68	322.21
679.02	321.12
679.36	320.21
679.70	319.10
680.04	318.18
680.37	317.21
680.71	316.31
681.05	315.31
681.39	314.37
681.73	313.36
682.06	312.38
682.40	311.43
682.74	310.58
683.08	309.86
683.42	308.99
683.75	308.19
684.09	307.27
684.43	306.49
684.77	305.62
685.10	304.87
685.44	304.01
685.78	303.21
686.12	302.43
686.45	301.60
686.79	300.80
687.13	300.15
687.46	299.34
687.80	298.70
688.14	297.90
688.48	297.16
688.81	296.47
689.15	295.90
689.49	295.24
689.82	294.57
690.16	293.71
690.50	293.06
690.83	292.42
691.17	291.62
691.51	290.95
691.84	290.33
692.18	289.58
692.52	288.99
692.85	288.39
693.19	287.95
693.52	287.34
693.86	286.72
694.20	286.00
694.53	285.53
694.87	284.81
695.21	284.22
695.54	283.64
695.88	282.93
696.21	282.28
696.55	281.64
696.88	281.05
697.22	280.35
697.56	279.80
697.89	279.17
698.23	278.71
698.56	278.19
698.90	277.70
699.23	277.15
699.57	276.67
699.90	276.18
700.24	275.60
700.58	275.16
700.91	274.70
701.25	274.57
701.58	274.35
701.92	274.04
702.25	273.56
702.59	273.08
702.92	272.74
703.26	272.36
703.59	272.00
703.93	271.96
704.26	271.65
704.60	271.28
704.93	270.90
705.26	270.39
705.60	270.01
705.93	269.55
706.27	269.32
706.60	269.02
706.94	268.75
707.27	268.27
707.61	267.90
707.94	267.63
708.27	266.88
708.61	266.14
708.94	265.68
709.28	265.37
709.61	264.91
709.94	264.52
710.28	264.07
710.61	263.70
710.95	262.89
711.28	262.86
711.61	262.38
711.95	262.09
712.28	261.73
712.61	261.39
712.95	261.27
713.28	260.99
713.61	260.59
713.95	260.05
714.28	259.74
714.61	259.29
714.95	258.83
715.28	258.44
715.61	258.16
715.95	257.88
716.28	257.48
716.61	257.25
716.95	256.88
717.28	256.59
717.61	256.18
717.94	255.91
718.28	255.27
718.61	255.00
718.94	254.63
719.27	254.39
719.61	254.15
719.94	253.73
720.27	253.22
720.60	252.88
720.94	252.62
721.27	252.40
721.60	252.27
721.93	252.07
722.27	251.99
722.60	251.67
722.93	251.32
723.26	251.18
723.59	250.86
723.93	250.74
724.26	250.52
724.59	250.35
724.92	250.13
725.25	250.09
725.59	249.87
725.92	249.72
726.25	249.44
726.58	249.24
726.91	249.04
727.24	248.90
727.57	248.75
727.91	248.56
728.24	248.39
728.57	248.08
728.90	247.92
729.23	247.65
729.56	247.81
729.89	247.65
730.22	247.44
730.55	247.31
730.89	247.10
731.22	246.90
731.55	246.69
731.88	246.59
732.21	246.26
732.54	246.10
732.87	245.93
733.20	245.79
733.53	245.64
733.86	245.56
734.19	245.44
734.52	245.37
734.85	245.56
735.18	245.33
735.51	245.40
735.84	245.21
736.17	245.22
736.50	244.77
736.83	245.22
737.16	245.10
737.49	244.99
737.82	244.86
738.15	244.78
738.48	244.70
738.81	244.51
739.14	244.33
739.47	244.20
739.80	244.03
740.13	243.97
740.46	243.73
740.79	243.49
741.12	243.30
741.45	243.01
741.78	242.62
742.11	242.66
742.44	242.39
742.77	242.43
743.10	242.19
743.43	242.01
743.75	241.34
744.08	241.81
744.41	241.64
744.74	241.50
745.07	241.31
745.40	241.26
745.73	241.35
746.06	241.38
746.39	241.24
746.71	241.05
747.04	240.84
747.37	240.81
747.70	240.71
748.03	240.66
748.36	240.72
748.68	240.55
749.01	240.18
749.34	240.16
749.67	240.01
750.00	240.05
750.33	240.36
750.65	240.24
750.98	239.58
751.31	239.50
751.64	239.46
751.97	239.56
752.29	239.38
752.62	239.04
752.95	238.83
753.28	238.78
753.60	238.73
753.93	238.74
754.26	238.62
754.59	238.44
754.91	238.25
755.24	238.00
755.57	237.94
755.90	237.84
756.22	237.62
756.55	237.51
756.88	237.22
757.20	236.81
757.53	236.60
757.86	236.45
758.19	236.39
758.51	236.20
758.84	235.93
759.17	235.83
759.49	235.80
759.82	235.97
760.15	235.85
760.47	235.68
760.80	235.51
761.13	235.43
761.45	235.30
761.78	235.24
762.11	235.24
762.43	235.14
762.76	235.10
763.08	235.08
763.41	234.90
763.74	234.77
764.06	234.61
764.39	234.60
764.71	234.54
765.04	234.39
765.37	234.31
765.69	234.25
766.02	234.11
766.34	233.98
766.67	233.64
767.00	233.70
767.32	233.94
767.65	234.07
767.97	234.05
768.30	234.00
768.62	233.86
768.95	233.70
769.27	233.68
769.60	233.75
769.92	233.50
770.25	233.35
770.57	233.30
770.90	233.23
771.22	233.12
771.55	233.04
771.87	233.02
772.20	232.90
772.52	233.19
772.85	233.76
773.17	233.67
773.50	233.62
773.82	233.47
774.15	233.19
774.47	232.89
774.80	232.72
775.12	232.66
775.45	232.60
775.77	232.66
776.09	232.58
776.42	232.43
776.74	232.58
777.07	232.54
777.39	232.54
777.72	232.42
778.04	232.44
778.36	232.36
778.69	232.34
779.01	232.41
779.33	231.97
779.66	231.37
779.98	231.29
780.31	231.31
780.63	231.43
780.95	231.45
781.28	231.41
781.60	231.40
781.92	231.39
782.25	231.40
782.57	231.25
782.89	231.19
783.22	231.10
783.54	231.07
783.86	231.12
784.19	230.99
784.51	231.14
784.83	230.98
785.16	230.93
785.48	230.87
785.80	230.82
786.12	230.87
786.45	230.87
786.77	230.95
787.09	230.91
787.42	230.72
787.74	230.76
788.06	230.81
788.38	230.74
788.71	230.66
789.03	230.59
789.35	230.70
789.67	230.64
789.99	230.72
790.32	230.60
790.64	230.60
790.96	231.02
791.28	230.78
791.61	230.79
791.93	230.82
792.25	230.80
792.57	231.08
792.89	230.92
793.21	230.89
793.54	230.84
793.86	230.75
794.18	230.76
794.50	230.61
794.82	230.54
795.14	230.59
795.47	230.68
795.79	230.72
796.11	230.63
796.43	230.56
796.75	230.50
797.07	230.48
797.39	230.44
797.71	230.03
798.04	230.11
798.36	230.10
798.68	230.04
799.00	230.05
799.32	229.75
799.64	229.85
799.96	229.85
800.28	229.77
800.60	229.70
800.92	229.69
801.24	229.64
801.56	229.66
801.89	229.58
802.21	229.55
802.53	229.48
802.85	229.52
803.17	229.70
803.49	229.61
803.81	229.63
804.13	229.44
804.45	229.36
804.77	229.35
805.09	229.30
805.41	229.23
805.73	229.13
806.05	228.98
806.37	228.84
806.69	228.74
807.01	228.74
807.33	228.72
807.65	228.44
807.97	228.64
808.28	228.58
808.60	228.55
808.92	228.42
809.24	228.59
809.56	228.46
809.88	228.31
810.20	228.30
810.52	228.31
810.84	228.34
811.16	228.26
811.48	228.24
811.80	228.41
812.12	228.37
812.43	228.40
812.75	228.47
813.07	228.43
813.39	228.36
813.71	228.24
814.03	228.14
814.35	228.14
814.67	227.89
814.98	227.77
815.30	227.75
815.62	227.64
815.94	227.39
816.26	227.55
816.58	227.44
816.89	227.37
817.21	227.19
817.53	227.15
817.85	227.24
818.17	227.12
818.48	226.85
818.80	226.94
819.12	226.88
819.44	226.74
819.76	226.70
820.07	226.71
820.39	226.74
820.71	226.81
821.03	226.86
821.34	226.88
821.66	226.97
821.98	227.10
822.30	227.12
822.61	227.31
822.93	227.13
823.25	227.10
823.57	227.07
823.88	227.16
824.20	227.22
824.52	227.25
824.83	227.33
825.15	227.39
825.47	227.35
825.79	227.34
826.10	227.37
826.42	227.38
826.74	227.49
827.05	227.49
827.37	227.52
827.69	227.53
828.00	227.53
828.32	227.51
828.64	227.36
828.95	227.65
829.27	227.54
829.58	227.51
829.90	227.58
830.22	227.68
830.53	227.57
830.85	227.50
831.17	227.37
831.48	227.39
831.80	227.35
832.11	227.26
832.43	227.26
832.75	227.24
833.06	227.60
833.38	227.48
833.69	227.43
834.01	227.46
834.32	227.46
834.64	227.40
834.96	227.50
835.27	227.50
835.59	227.30
835.90	227.20
836.22	227.19
836.53	227.13
836.85	227.04
837.16	227.59
837.48	227.66
837.79	227.90
838.11	227.87
838.42	227.89
838.74	228.02
839.05	227.99
839.37	228.06
839.68	227.68
840.00	227.70
840.31	227.79
840.63	227.71
840.94	227.66
841.26	227.63
841.57	227.57
841.88	227.57
842.20	227.53
842.51	227.54
842.83	227.54
843.14	227.98
843.46	228.00
843.77	227.72
844.08	227.62
844.40	227.41
844.71	227.37
845.03	227.27
845.34	227.20
845.65	227.17
845.97	227.02
846.28	227.07
846.60	227.06
846.91	226.95
847.22	226.92
847.54	227.02
847.85	227.13
848.16	227.03
848.48	226.97
848.79	227.23
849.10	227.32
849.42	227.34
849.73	226.95
850.04	226.95
850.36	226.72
850.67	226.88
850.98	226.94
851.30	227.01
851.61	227.07
851.92	227.03
852.23	227.18
852.55	227.34
852.86	227.32
853.17	227.23
853.49	227.37
853.80	227.48
854.11	227.45
854.42	227.41
854.74	227.38
855.05	227.33
855.36	226.97
855.67	226.93
855.99	226.95
856.30	227.40
856.61	227.37
856.92	227.43
857.23	227.37
857.55	227.18
857.86	227.16
858.17	227.25
858.48	227.16
858.79	227.02
859.11	227.02
859.42	227.05
859.73	227.04
860.04	226.98
860.35	226.80
860.66	226.68
860.98	226.64
861.29	226.78
861.60	226.80
861.91	226.91
862.22	226.86
862.53	226.78
862.84	226.28
863.16	226.34
863.47	226.16
863.78	226.15
864.09	226.31
864.40	226.29
864.71	226.23
865.02	226.38
865.33	226.33
865.64	226.28
865.95	226.23
866.27	226.55
866.58	226.52
866.89	226.68
867.20	226.75
867.51	226.67
867.82	226.57
868.13	226.73
868.44	226.60
868.75	226.69
869.06	226.71
869.37	226.72
869.68	226.62
869.99	226.83
870.30	226.78
870.61	226.87
870.92	226.85
871.23	226.89
871.54	226.93
871.85	227.07
872.16	227.04
872.47	227.04
872.78	226.79
873.09	226.81
873.40	226.69
873.71	226.66
874.02	226.79
874.33	226.77
874.64	226.64
874.95	226.82
875.26	226.67
875.56	226.65
875.87	226.69
876.18	226.65
876.49	227.05
876.80	227.04
877.11	226.86
877.42	226.91
877.73	226.92
878.04	226.80
878.35	226.77
878.66	226.78
878.96	226.75
879.27	226.72
879.58	226.65
879.89	226.66
880.20	226.84
880.51	226.82
880.82	226.80
881.12	226.87
881.43	226.77
881.74	226.78
882.05	226.80
882.36	226.81
882.67	226.90
882.97	226.41
883.28	226.44
883.59	226.46
883.90	226.44
884.21	226.43
884.51	226.47
884.82	226.45
885.13	226.51
885.44	226.53
885.74	226.54
886.05	226.61
886.36	226.62
886.67	226.38
886.98	226.64
887.28	226.76
887.59	226.70
887.90	226.70
888.20	226.68
888.51	226.69
888.82	226.57
889.13	226.63
889.43	226.95
889.74	226.82
890.05	226.84
890.35	226.81
890.66	226.73
890.97	226.61
891.28	226.55
891.58	226.50
891.89	226.44
892.20	226.43
892.50	226.37
892.81	226.31
893.12	226.35
893.42	226.09
893.73	226.04
894.04	226.07
894.34	226.03
894.65	226.01
894.95	225.97
895.26	226.04
895.57	226.24
895.87	225.77
896.18	225.87
896.48	225.85
896.79	225.81
897.10	225.92
897.40	225.96
897.71	225.94
898.01	225.96
898.32	226.08
898.63	226.02
898.93	226.09
899.24	226.15
899.54	226.12
899.85	226.02
900.15	225.97
900.46	226.00
900.76	226.13
901.07	226.16
901.38	226.16
901.68	226.16
901.99	225.92
902.29	226.04
902.60	226.06
902.90	226.04
903.21	226.01
903.51	225.96
903.82	226.12
904.12	226.21
904.43	226.20
904.73	226.22
905.03	226.25
905.34	226.69
905.64	226.67
905.95	226.68
906.25	226.72
906.56	226.75
906.86	226.68
907.17	226.61
907.47	226.69
907.77	226.66
908.08	226.63
908.38	226.66
908.69	226.66
908.99	226.75
909.30	226.81
909.60	226.84
909.90	226.88
910.21	226.72
910.51	226.60
910.81	226.60
911.12	226.59
911.42	226.56
911.73	226.05
912.03	226.09
912.33	226.24
912.64	226.23
912.94	226.24
913.24	226.24
913.55	226.21
913.85	226.15
914.15	226.22
914.46	226.26
914.76	226.20
915.06	226.25
915.37	226.13
915.67	226.00
915.97	226.04
916.27	225.91
916.58	225.94
916.88	226.00
917.18	225.94
917.49	226.19
917.79	226.22
918.09	226.32
918.39	226.48
918.70	226.42
919.00	226.43
919.30	226.60
919.60	226.55
919.91	226.46
920.21	226.50
920.51	226.45
920.81	226.38
921.12	226.47
921.42	226.40
921.72	226.39
922.02	226.47
922.32	226.52
922.63	226.60
922.93	226.79
923.23	226.76
923.53	226.74
923.83	226.48
924.13	226.53
924.44	226.47
924.74	226.48
925.04	226.57
925.34	226.51
925.64	226.28
925.94	226.29
926.24	226.65
926.55	226.58
926.85	226.66
927.15	226.60
927.45	226.55
927.75	226.57
928.05	226.58
928.35	226.67
928.65	226.77
928.95	226.76
929.26	226.59
929.56	226.69
929.86	226.81
930.16	226.74
930.46	226.70
930.76	226.74
931.06	226.52
931.36	226.43
931.66	226.56
931.96	226.65
932.26	226.69
932.56	226.44
932.86	226.50
933.16	226.49
933.46	226.49
933.76	226.46
934.06	226.58
934.36	226.76
934.66	226.68
934.96	226.59
935.26	226.64
935.56	226.75
935.86	226.57
936.16	226.41
936.46	226.34
936.76	226.30
937.06	226.24
937.36	226.29
937.66	226.30
937.96	226.19
938.26	226.08
938.56	226.03
938.86	226.00
939.16	226.05
939.46	226.09
939.76	226.13
940.06	226.07
940.35	225.99
940.65	225.77
940.95	225.81
941.25	225.70
941.55	225.66
941.85	225.64
942.15	225.79
942.45	226.02
942.75	226.06
943.04	226.04
943.34	226.14
943.64	226.07
943.94	226.01
944.24	226.07
944.54	226.12
944.84	226.16
945.13	226.13
945.43	226.11
945.73	226.08
946.03	226.11
946.33	226.07
946.62	226.01
946.92	225.94
947.22	225.95
947.52	226.00
947.82	226.05
948.11	225.95
948.41	225.90
948.71	225.77
949.01	225.83
949.31	225.80
949.60	225.76
949.90	225.84
950.20	225.85
950.50	225.87
950.79	225.90
951.09	225.97
951.39	226.02
951.69	225.91
951.98	226.01
952.28	226.05
952.58	226.12
952.87	226.17
953.17	226.36
953.47	226.35
953.76	226.30
954.06	226.24
954.36	226.20
954.66	226.18
954.95	226.24
955.25	226.27
955.55	226.39
955.84	226.33
956.14	226.35
956.44	226.34
956.73	226.28
957.03	226.31
957.32	226.30
957.62	226.26
957.92	226.42
958.21	226.36
958.51	226.88
958.81	226.90
959.10	226.89
959.40	226.93
959.69	226.95
959.99	227.09
960.29	227.06
960.58	227.01
960.88	227.15
961.17	227.13
961.47	227.16
961.76	227.05
962.06	227.09
962.36	227.09
962.65	227.11
962.95	227.13
963.24	227.07
963.54	227.00
963.83	227.02
964.13	226.91
964.42	226.75
964.72	226.34
965.01	226.31
965.31	226.32
965.60	226.20
965.90	226.44
966.19	226.27
966.49	226.30
966.78	226.31
967.08	226.31
967.37	226.29
967.67	226.24
967.96	226.32
968.26	226.35
968.55	226.36
968.85	226.36
969.14	226.35
969.43	226.29
969.73	226.31
970.02	226.28
970.32	226.25
970.61	226.22
970.91	226.06
971.20	226.05
971.49	225.94
971.79	225.95
972.08	225.65
972.38	225.66
972.67	225.61
972.96	225.69
973.26	225.56
973.55	225.71
973.85	225.67
974.14	225.57
974.43	225.58
974.73	225.53
975.02	225.48
975.31	225.47
975.61	225.53
975.90	225.48
976.19	225.46
976.49	225.55
976.78	225.62
977.07	225.67
977.37	225.67
977.66	225.77
977.95	225.74
978.24	225.77
978.54	225.89
978.83	225.87
979.12	225.85
979.42	225.84
979.71	225.74
980.00	225.75
980.29	225.85
980.59	225.79
980.88	225.89
981.17	225.91
981.46	225.87
981.76	225.92
982.05	226.04
982.34	226.15
982.63	226.18
982.93	226.24
983.22	226.35
983.51	226.40
983.80	226.45
984.09	226.50
984.39	226.49
984.68	226.47
984.97	226.47
985.26	226.48
985.55	226.55
985.85	226.49
986.14	226.64
986.43	226.76
986.72	226.71
987.01	226.65
987.30	226.66
987.59	226.71
987.89	226.67
988.18	226.54
988.47	226.44
988.76	226.36
989.05	226.29
989.34	226.28
989.63	226.37
989.92	226.32
990.22	226.42
990.51	226.46
990.80	226.42
991.09	226.50
991.38	226.57
991.67	226.51
991.96	226.54
992.25	226.50
992.54	226.32
992.83	226.38
993.12	226.32
993.41	226.39
993.70	226.58
993.99	226.70
994.28	226.78
994.58	226.84
994.87	226.77
995.16	226.81
995.45	226.72
995.74	226.54
996.03	226.59
996.32	226.56
996.61	226.62
996.90	226.64
997.19	226.54
997.48	226.46
997.77	226.46
998.06	226.43
998.34	226.45
998.63	226.46
998.92	226.45
999.21	226.55
999.50	226.50
999.79	226.36
1000.08	226.33
1000.37	226.35
1000.66	226.41
1000.95	226.60
1001.24	226.59
1001.53	226.71
1001.82	226.74
1002.11	226.64
1002.40	226.72
1002.68	226.81
1002.97	227.10
1003.26	227.04
1003.55	227.00
1003.84	227.05
1004.13	227.15
1004.42	227.08
1004.71	227.10
1004.99	227.06
1005.28	227.08
1005.57	227.07
1005.86	226.95
1006.15	226.82
1006.44	226.69
1006.72	226.66
1007.01	226.54
1007.30	226.54
1007.59	226.40
1007.88	226.42
1008.17	226.47
1008.45	226.32
1008.74	226.09
1009.03	225.83
1009.32	225.93
1009.60	226.00
1009.89	225.89
1010.18	225.73
1010.47	225.69
1010.76	225.67
1011.04	225.59
1011.33	225.67
1011.62	225.69
1011.91	225.73
1012.19	225.89
1012.48	225.98
1012.77	225.93
1013.05	226.10
1013.34	226.05
1013.63	226.07
1013.92	226.08
1014.20	225.98
1014.49	225.98
1014.78	225.96
1015.06	225.86
1015.35	225.88
1015.64	225.85
1015.92	225.92
1016.21	225.96
1016.50	225.96
1016.78	226.03
1017.07	226.02
1017.36	225.92
1017.64	225.90
1017.93	225.95
1018.22	225.82
1018.50	225.69
1018.79	225.75
1019.08	225.49
1019.36	225.54
1019.65	225.45
1019.93	225.61
1020.22	225.76
1020.51	226.00
1020.79	225.97
1021.08	225.15
1021.36	223.45
1021.65	226.55
1021.94	224.25
1022.22	225.80
1022.51	224.55
1022.79	229.00
1023.08	227.85
1023.36	231.25
1023.65	224.00
>>>>>End Processed Spectral Data<<<<<
