SpectraSuite Data File
++++++++++++++++++++++++++++++++++++
Date: Wed Sep 04 17:59:32 EDT 2013
User: lab3
Dark Spectrum Present: Yes
Reference Spectrum Present: No
Number of Sampled Component Spectra: 1
Spectrometers: USB2E7196
Integration Time (usec): 170000 (USB2E7196)
Spectra Averaged: 20 (USB2E7196)
Boxcar Smoothing: 10 (USB2E7196)
Correct for Electrical Dark: No (USB2E7196)
Strobe/Lamp Enabled: No (USB2E7196)
Correct for Detector Non-linearity: No (USB2E7196)
Correct for Stray Light: No (USB2E7196)
Number of Pixels in Processed Spectrum: 2048
>>>>>Begin Processed Spectral Data<<<<<
339.09	0.00
339.48	215.30
339.86	214.95
340.24	215.40
340.63	216.90
341.01	225.75
341.39	219.90
341.78	222.65
342.16	223.35
342.54	223.70
342.93	212.57
343.31	223.27
343.69	223.74
344.07	224.20
344.46	224.68
344.84	225.15
345.22	225.14
345.60	225.43
345.99	225.56
346.37	225.65
346.75	225.79
347.13	225.84
347.52	225.88
347.90	226.07
348.28	226.09
348.66	226.22
349.05	226.01
349.43	226.02
349.81	226.13
350.19	226.15
350.57	226.20
350.96	226.31
351.34	226.46
351.72	226.45
352.10	226.55
352.48	226.64
352.87	226.64
353.25	226.69
353.63	226.72
354.01	226.81
354.39	226.95
354.77	226.96
355.15	227.15
355.54	227.19
355.92	227.07
356.30	227.23
356.68	227.63
357.06	227.82
357.44	227.85
357.82	227.88
358.20	228.28
358.58	228.42
358.97	228.52
359.35	228.63
359.73	228.85
360.11	228.91
360.49	228.98
360.87	229.02
361.25	229.15
361.63	229.39
362.01	229.53
362.39	229.53
362.77	229.65
363.15	229.67
363.53	229.70
363.91	229.85
364.29	229.83
364.67	229.41
365.05	229.40
365.43	229.58
365.81	229.66
366.19	229.57
366.57	229.70
366.95	229.68
367.33	229.60
367.71	229.62
368.09	229.72
368.47	229.77
368.85	229.76
369.23	229.85
369.61	229.67
369.99	229.77
370.37	229.85
370.75	230.03
371.13	229.92
371.51	229.89
371.89	229.83
372.27	229.88
372.65	229.78
373.03	229.84
373.41	229.69
373.78	229.55
374.16	229.24
374.54	229.09
374.92	229.01
375.30	228.93
375.68	228.70
376.06	228.64
376.44	228.50
376.82	228.52
377.19	228.40
377.57	228.32
377.95	228.08
378.33	227.91
378.71	227.55
379.09	227.55
379.47	227.50
379.84	227.43
380.22	227.32
380.60	227.28
380.98	227.13
381.36	227.01
381.73	226.93
382.11	227.01
382.49	226.96
382.87	226.81
383.25	226.72
383.62	227.32
384.00	227.11
384.38	227.09
384.76	227.11
385.13	227.24
385.51	227.15
385.89	227.01
386.27	226.99
386.64	227.06
387.02	226.95
387.40	226.88
387.78	226.86
388.15	226.82
388.53	226.72
388.91	226.66
389.29	226.61
389.66	226.62
390.04	226.50
390.42	226.53
390.79	226.55
391.17	226.58
391.55	226.00
391.92	226.10
392.30	226.12
392.68	225.99
393.05	225.87
393.43	225.96
393.81	225.97
394.18	225.98
394.56	225.95
394.94	226.09
395.31	226.05
395.69	226.25
396.06	226.35
396.44	226.45
396.82	226.49
397.19	226.80
397.57	226.84
397.95	226.94
398.32	226.85
398.70	227.05
399.07	227.23
399.45	227.31
399.82	227.39
400.20	227.44
400.58	227.52
400.95	227.51
401.33	227.60
401.70	228.11
402.08	228.31
402.45	228.48
402.83	228.71
403.20	228.93
403.58	229.02
403.95	229.20
404.33	229.48
404.71	229.68
405.08	230.20
405.46	230.45
405.83	230.72
406.21	230.99
406.58	231.23
406.96	231.40
407.33	231.77
407.70	232.09
408.08	232.78
408.45	233.26
408.83	233.82
409.20	234.25
409.58	234.43
409.95	234.97
410.33	235.48
410.70	235.89
411.08	236.53
411.45	237.14
411.82	237.69
412.20	238.45
412.57	239.40
412.95	239.69
413.32	240.56
413.69	241.43
414.07	242.42
414.44	243.45
414.82	244.60
415.19	245.78
415.56	247.04
415.94	248.16
416.31	249.60
416.68	250.99
417.06	252.64
417.43	254.32
417.81	256.07
418.18	257.96
418.55	259.92
418.93	261.98
419.30	264.09
419.67	266.37
420.04	268.68
420.42	271.04
420.79	274.11
421.16	276.95
421.54	279.95
421.91	282.95
422.28	286.04
422.66	289.29
423.03	292.79
423.40	296.17
423.77	299.67
424.15	303.19
424.52	307.05
424.89	311.34
425.26	315.33
425.64	319.07
426.01	323.21
426.38	327.61
426.75	332.17
427.13	336.72
427.50	341.49
427.87	346.31
428.24	351.33
428.61	355.87
428.99	361.18
429.36	366.70
429.73	372.18
430.10	377.75
430.47	383.45
430.85	389.05
431.22	395.25
431.59	402.19
431.96	408.47
432.33	415.39
432.70	422.03
433.08	429.93
433.45	437.33
433.82	444.74
434.19	452.92
434.56	461.08
434.93	468.84
435.30	476.67
435.68	485.45
436.05	493.93
436.42	502.31
436.79	510.00
437.16	518.44
437.53	527.34
437.90	536.06
438.27	544.67
438.64	553.69
439.01	562.05
439.38	569.27
439.75	576.50
440.13	584.54
440.50	592.18
440.87	598.18
441.24	604.69
441.61	611.82
441.98	616.92
442.35	622.65
442.72	628.85
443.09	634.72
443.46	638.08
443.83	640.45
444.20	642.40
444.57	645.05
444.94	646.13
445.31	647.15
445.68	648.53
446.05	648.72
446.42	647.37
446.79	645.79
447.16	644.06
447.53	642.74
447.90	638.96
448.27	635.07
448.64	630.20
449.01	626.56
449.37	620.27
449.74	614.10
450.11	607.24
450.48	599.26
450.85	591.05
451.22	584.01
451.59	577.31
451.96	570.95
452.33	562.75
452.70	555.30
453.07	546.56
453.43	537.36
453.80	528.90
454.17	520.78
454.54	513.15
454.91	504.95
455.28	496.97
455.65	489.41
456.02	482.57
456.38	476.17
456.75	468.34
457.12	461.77
457.49	455.59
457.86	449.15
458.23	443.93
458.59	438.26
458.96	432.62
459.33	427.53
459.70	422.48
460.07	418.49
460.43	413.82
460.80	409.61
461.17	405.79
461.54	401.82
461.91	398.06
462.27	394.11
462.64	390.77
463.01	387.13
463.38	383.88
463.74	379.88
464.11	376.96
464.48	374.30
464.85	371.41
465.21	369.14
465.58	366.87
465.95	364.05
466.32	361.85
466.68	359.52
467.05	357.23
467.42	354.88
467.78	352.54
468.15	350.44
468.52	348.76
468.88	346.56
469.25	344.59
469.62	343.11
469.98	341.46
470.35	339.91
470.72	338.44
471.08	336.71
471.45	335.46
471.82	334.06
472.18	332.51
472.55	331.58
472.92	330.30
473.28	329.11
473.65	328.04
474.02	326.89
474.38	325.97
474.75	325.17
475.11	324.40
475.48	323.73
475.85	323.07
476.21	322.44
476.58	322.02
476.94	321.55
477.31	321.03
477.67	320.68
478.04	320.42
478.41	320.32
478.77	320.69
479.14	320.37
479.50	320.26
479.87	320.37
480.23	320.30
480.60	320.26
480.96	320.37
481.33	320.73
481.69	320.99
482.06	321.31
482.42	321.57
482.79	321.81
483.15	322.26
483.52	322.94
483.88	323.45
484.25	323.91
484.61	324.62
484.98	325.26
485.34	326.28
485.71	327.18
486.07	328.15
486.44	328.80
486.80	329.86
487.17	331.04
487.53	332.29
487.90	333.70
488.26	335.39
488.62	337.07
488.99	338.57
489.35	340.29
489.72	342.19
490.08	344.20
490.44	346.24
490.81	348.43
491.17	350.50
491.54	352.97
491.90	355.59
492.26	358.31
492.63	361.13
492.99	363.89
493.36	367.00
493.72	370.42
494.08	373.75
494.45	377.58
494.81	381.44
495.17	385.39
495.54	389.59
495.90	393.85
496.26	398.32
496.63	403.02
496.99	407.87
497.35	412.83
497.72	418.10
498.08	423.63
498.44	429.32
498.80	435.36
499.17	441.53
499.53	447.80
499.89	454.43
500.26	461.34
500.62	468.40
500.98	475.74
501.34	483.13
501.71	490.94
502.07	498.73
502.43	506.92
502.79	515.44
503.16	524.09
503.52	533.12
503.88	542.25
504.24	552.00
504.60	562.13
504.97	572.45
505.33	582.87
505.69	594.16
506.05	605.33
506.41	616.52
506.78	628.10
507.14	640.35
507.50	652.65
507.86	665.22
508.22	678.33
508.59	691.42
508.95	705.15
509.31	719.31
509.67	733.68
510.03	748.05
510.39	762.85
510.75	778.02
511.12	793.43
511.48	809.32
511.84	825.19
512.20	841.00
512.56	857.16
512.92	874.09
513.28	890.73
513.64	907.90
514.00	925.54
514.37	943.25
514.73	961.30
515.09	979.70
515.45	998.16
515.81	1016.35
516.17	1035.35
516.53	1054.13
516.89	1072.80
517.25	1092.14
517.61	1112.37
517.97	1132.61
518.33	1152.79
518.69	1173.05
519.05	1193.52
519.41	1214.21
519.77	1235.53
520.13	1256.50
520.49	1277.49
520.85	1300.06
521.21	1321.35
521.57	1342.79
521.93	1363.81
522.29	1385.17
522.65	1405.91
523.01	1427.05
523.37	1447.96
523.73	1468.93
524.09	1489.57
524.45	1510.51
524.81	1531.64
525.17	1552.25
525.53	1573.03
525.89	1593.61
526.25	1614.42
526.61	1635.14
526.97	1656.23
527.33	1677.58
527.68	1699.78
528.04	1720.79
528.40	1740.50
528.76	1761.43
529.12	1781.95
529.48	1802.95
529.84	1823.01
530.20	1844.26
530.56	1864.99
530.91	1886.02
531.27	1906.51
531.63	1927.10
531.99	1947.69
532.35	1967.70
532.71	1988.35
533.07	2009.16
533.42	2029.11
533.78	2049.32
534.14	2068.94
534.50	2088.15
534.86	2107.28
535.21	2124.87
535.57	2143.79
535.93	2161.38
536.29	2179.47
536.65	2197.91
537.00	2215.54
537.36	2233.43
537.72	2250.21
538.08	2267.48
538.44	2284.29
538.79	2300.85
539.15	2317.55
539.51	2333.50
539.87	2348.86
540.22	2362.78
540.58	2377.03
540.94	2390.58
541.29	2403.22
541.65	2416.03
542.01	2428.92
542.37	2439.82
542.72	2450.85
543.08	2461.50
543.44	2473.71
543.79	2484.05
544.15	2493.83
544.51	2503.88
544.87	2513.67
545.22	2522.34
545.58	2529.93
545.94	2537.14
546.29	2543.84
546.65	2550.08
547.01	2555.82
547.36	2561.83
547.72	2567.72
548.07	2571.71
548.43	2577.17
548.79	2581.97
549.14	2586.25
549.50	2589.88
549.86	2593.91
550.21	2597.54
550.57	2600.90
550.92	2602.05
551.28	2603.06
551.64	2605.54
551.99	2607.60
552.35	2609.30
552.70	2611.30
553.06	2613.44
553.41	2615.00
553.77	2616.84
554.13	2618.81
554.48	2620.66
554.84	2621.73
555.19	2622.73
555.55	2624.59
555.90	2624.03
556.26	2623.28
556.61	2621.54
556.97	2619.66
557.32	2619.10
557.68	2618.27
558.03	2616.38
558.39	2615.13
558.74	2614.60
559.10	2611.26
559.45	2607.69
559.81	2602.99
560.16	2597.88
560.52	2593.00
560.87	2588.53
561.23	2583.16
561.58	2576.91
561.94	2570.15
562.29	2562.71
562.64	2555.70
563.00	2547.15
563.35	2540.64
563.71	2533.95
564.06	2527.90
564.42	2521.21
564.77	2514.08
565.12	2506.38
565.48	2499.20
565.83	2491.44
566.19	2483.36
566.54	2475.58
566.89	2467.53
567.25	2460.00
567.60	2453.06
567.96	2445.46
568.31	2437.55
568.66	2428.74
569.02	2419.73
569.37	2411.46
569.72	2403.90
570.08	2394.42
570.43	2385.58
570.78	2376.44
571.14	2367.06
571.49	2356.77
571.84	2346.85
572.20	2335.92
572.55	2325.78
572.90	2314.85
573.26	2304.31
573.61	2293.12
573.96	2281.98
574.31	2270.11
574.67	2258.00
575.02	2245.18
575.37	2231.98
575.72	2218.65
576.08	2206.61
576.43	2194.04
576.78	2180.55
577.13	2166.83
577.49	2154.21
577.84	2141.76
578.19	2129.54
578.54	2117.02
578.90	2105.17
579.25	2093.07
579.60	2080.64
579.95	2067.80
580.30	2054.69
580.66	2041.27
581.01	2027.68
581.36	2013.55
581.71	2000.74
582.06	1987.50
582.42	1974.88
582.77	1962.61
583.12	1950.34
583.47	1937.96
583.82	1926.06
584.17	1914.35
584.53	1902.49
584.88	1889.59
585.23	1876.55
585.58	1862.43
585.93	1848.85
586.28	1835.46
586.63	1821.43
586.98	1807.14
587.34	1793.65
587.69	1780.05
588.04	1767.32
588.39	1755.14
588.74	1743.20
589.09	1730.97
589.44	1718.45
589.79	1706.44
590.14	1694.45
590.49	1682.33
590.84	1670.27
591.19	1658.01
591.54	1645.55
591.89	1633.15
592.25	1623.11
592.60	1611.55
592.95	1600.15
593.30	1588.36
593.65	1576.48
594.00	1564.19
594.35	1554.45
594.70	1542.43
595.05	1531.45
595.40	1519.29
595.75	1507.29
596.10	1495.68
596.45	1484.05
596.80	1473.34
597.15	1461.79
597.50	1449.81
597.85	1438.43
598.19	1426.46
598.54	1414.94
598.89	1403.61
599.24	1393.15
599.59	1381.12
599.94	1370.22
600.29	1359.54
600.64	1349.22
600.99	1338.16
601.34	1328.61
601.69	1317.04
602.04	1307.27
602.39	1296.99
602.74	1287.91
603.08	1278.42
603.43	1269.04
603.78	1259.26
604.13	1249.48
604.48	1239.48
604.83	1229.83
605.18	1220.05
605.53	1210.58
605.87	1201.41
606.22	1192.84
606.57	1183.38
606.92	1173.95
607.27	1164.80
607.62	1155.92
607.96	1146.97
608.31	1138.84
608.66	1130.50
609.01	1121.98
609.36	1113.26
609.70	1104.91
610.05	1096.08
610.40	1087.66
610.75	1079.02
611.10	1070.47
611.44	1061.84
611.79	1053.84
612.14	1045.92
612.49	1037.85
612.83	1030.28
613.18	1022.41
613.53	1014.48
613.88	1006.55
614.22	998.71
614.57	990.81
614.92	982.83
615.27	975.40
615.61	967.68
615.96	959.95
616.31	952.44
616.65	945.61
617.00	938.06
617.35	930.81
617.70	923.40
618.04	916.12
618.39	909.24
618.74	902.72
619.08	895.77
619.43	888.65
619.78	881.77
620.12	874.53
620.47	867.43
620.82	860.15
621.16	853.28
621.51	847.03
621.85	840.71
622.20	834.24
622.55	827.45
622.89	821.03
623.24	814.59
623.59	808.04
623.93	801.46
624.28	795.32
624.62	789.56
624.97	783.83
625.32	778.06
625.66	772.18
626.01	765.87
626.35	760.08
626.70	754.39
627.04	748.90
627.39	743.47
627.73	738.16
628.08	733.14
628.43	727.52
628.77	721.90
629.12	716.55
629.46	711.68
629.81	707.09
630.15	702.14
630.50	697.22
630.84	692.48
631.19	687.69
631.53	683.18
631.88	677.77
632.22	672.86
632.57	668.35
632.91	663.66
633.26	659.35
633.60	654.70
633.95	650.12
634.29	645.38
634.64	640.81
634.98	635.94
635.32	631.28
635.67	627.39
636.01	623.17
636.36	618.77
636.70	614.66
637.05	610.29
637.39	606.28
637.73	602.18
638.08	598.16
638.42	594.01
638.77	589.59
639.11	585.33
639.45	581.03
639.80	576.51
640.14	572.35
640.49	568.34
640.83	564.52
641.17	560.87
641.52	557.13
641.86	553.52
642.20	550.40
642.55	546.78
642.89	543.24
643.23	539.66
643.58	536.52
643.92	532.74
644.26	529.30
644.61	526.03
644.95	522.55
645.29	519.09
645.64	515.87
645.98	512.70
646.32	509.87
646.66	506.82
647.01	503.89
647.35	501.15
647.69	498.21
648.04	495.39
648.38	492.47
648.72	489.60
649.06	486.51
649.41	483.37
649.75	480.50
650.09	477.59
650.43	474.83
650.78	471.89
651.12	469.08
651.46	466.30
651.80	463.40
652.14	460.73
652.49	458.18
652.83	455.54
653.17	452.95
653.51	450.21
653.85	447.71
654.20	445.25
654.54	442.52
654.88	439.93
655.22	437.53
655.56	435.05
655.90	432.68
656.25	430.42
656.59	428.18
656.93	425.90
657.27	423.76
657.61	421.31
657.95	419.01
658.29	416.79
658.64	414.69
658.98	412.50
659.32	410.30
659.66	408.10
660.00	405.89
660.34	403.90
660.68	401.75
661.02	399.64
661.36	397.67
661.70	395.74
662.05	393.77
662.39	391.84
662.73	390.13
663.07	388.59
663.41	386.80
663.75	384.85
664.09	382.98
664.43	381.05
664.77	379.32
665.11	377.57
665.45	375.95
665.79	374.24
666.13	372.50
666.47	370.78
666.81	369.16
667.15	367.50
667.49	365.95
667.83	364.66
668.17	363.27
668.51	361.72
668.85	360.35
669.19	359.12
669.53	357.59
669.87	355.90
670.21	354.22
670.55	352.87
670.89	351.78
671.23	350.44
671.57	348.95
671.91	347.73
672.25	346.39
672.58	345.26
672.92	343.75
673.26	342.40
673.60	341.23
673.94	339.99
674.28	338.89
674.62	337.72
674.96	336.38
675.30	335.16
675.64	334.03
675.97	332.70
676.31	331.32
676.65	330.02
676.99	329.11
677.33	327.88
677.67	326.67
678.01	325.40
678.34	324.29
678.68	323.34
679.02	322.19
679.36	321.18
679.70	320.05
680.04	319.21
680.37	318.31
680.71	317.35
681.05	316.33
681.39	315.36
681.73	314.36
682.06	313.40
682.40	312.45
682.74	311.55
683.08	310.80
683.42	309.99
683.75	309.26
684.09	308.32
684.43	307.52
684.77	306.72
685.10	305.93
685.44	305.15
685.78	304.37
686.12	303.55
686.45	302.71
686.79	301.86
687.13	301.18
687.46	300.44
687.80	299.73
688.14	299.07
688.48	298.38
688.81	297.61
689.15	297.05
689.49	296.31
689.82	295.60
690.16	294.76
690.50	294.00
690.83	293.25
691.17	292.44
691.51	291.84
691.84	291.26
692.18	290.57
692.52	289.82
692.85	289.13
693.19	288.74
693.52	288.13
693.86	287.43
694.20	286.77
694.53	286.12
694.87	285.44
695.21	284.76
695.54	284.09
695.88	283.46
696.21	282.75
696.55	282.26
696.88	281.68
697.22	281.16
697.56	280.65
697.89	280.11
698.23	279.61
698.56	279.06
698.90	278.60
699.23	278.02
699.57	277.60
699.90	277.05
700.24	276.37
700.58	275.97
700.91	275.70
701.25	275.55
701.58	275.44
701.92	275.11
702.25	274.70
702.59	274.26
702.92	273.88
703.26	273.45
703.59	273.02
703.93	273.00
704.26	272.50
704.60	272.14
704.93	271.74
705.26	271.35
705.60	270.99
705.93	270.38
706.27	270.13
706.60	269.95
706.94	269.72
707.27	269.34
707.61	268.93
707.94	268.49
708.27	267.76
708.61	267.02
708.94	266.56
709.28	266.26
709.61	265.88
709.94	265.52
710.28	265.16
710.61	264.72
710.95	263.94
711.28	264.00
711.61	263.61
711.95	263.30
712.28	262.89
712.61	262.51
712.95	262.45
713.28	262.23
713.61	261.74
713.95	261.27
714.28	260.88
714.61	260.48
714.95	260.08
715.28	259.63
715.61	259.25
715.95	258.88
716.28	258.39
716.61	258.11
716.95	257.73
717.28	257.41
717.61	257.12
717.94	256.76
718.28	256.10
718.61	255.75
718.94	255.37
719.27	255.15
719.61	254.88
719.94	254.44
720.27	253.95
720.60	253.59
720.94	253.30
721.27	253.15
721.60	252.96
721.93	252.74
722.27	252.71
722.60	252.61
722.93	252.36
723.26	252.23
723.59	252.02
723.93	251.88
724.26	251.75
724.59	251.59
724.92	251.43
725.25	251.31
725.59	251.17
725.92	251.02
726.25	250.78
726.58	250.60
726.91	250.44
727.24	250.34
727.57	250.21
727.91	249.99
728.24	249.84
728.57	249.57
728.90	249.40
729.23	249.09
729.56	249.15
729.89	248.98
730.22	248.74
730.55	248.43
730.89	248.10
731.22	247.77
731.55	247.59
731.88	247.45
732.21	247.21
732.54	246.84
732.87	246.67
733.20	246.52
733.53	246.30
733.86	246.12
734.19	245.87
734.52	245.73
734.85	245.90
735.18	245.56
735.51	245.60
735.84	245.50
736.17	245.37
736.50	244.87
736.83	245.28
737.16	245.17
737.49	245.04
737.82	244.90
738.15	244.87
738.48	244.72
738.81	244.57
739.14	244.39
739.47	244.27
739.80	244.14
740.13	244.01
740.46	243.81
740.79	243.56
741.12	243.43
741.45	243.27
741.78	242.84
742.11	242.84
742.44	242.51
742.77	242.39
743.10	242.25
743.43	242.07
743.75	241.38
744.08	241.88
744.41	241.73
744.74	241.63
745.07	241.39
745.40	241.32
745.73	241.34
746.06	241.31
746.39	241.32
746.71	241.15
747.04	241.03
747.37	240.93
747.70	240.96
748.03	240.81
748.36	240.69
748.68	240.63
749.01	240.44
749.34	240.31
749.67	240.20
750.00	240.20
750.33	240.54
750.65	240.50
750.98	239.75
751.31	239.64
751.64	239.63
751.97	239.80
752.29	239.60
752.62	239.28
752.95	239.10
753.28	238.92
753.60	238.76
753.93	238.75
754.26	238.63
754.59	238.40
754.91	238.28
755.24	238.16
755.57	238.02
755.90	237.88
756.22	237.77
756.55	237.55
756.88	237.27
757.20	236.88
757.53	236.64
757.86	236.58
758.19	236.59
758.51	236.38
758.84	235.97
759.17	235.83
759.49	235.72
759.82	235.86
760.15	235.83
760.47	235.67
760.80	235.44
761.13	235.50
761.45	235.39
761.78	235.27
762.11	235.17
762.43	235.00
762.76	234.93
763.08	234.89
763.41	234.93
763.74	234.92
764.06	234.79
764.39	234.76
764.71	234.64
765.04	234.45
765.37	234.34
765.69	234.33
766.02	234.22
766.34	234.19
766.67	233.92
767.00	233.94
767.32	234.17
767.65	234.39
767.97	234.21
768.30	234.25
768.62	234.24
768.95	234.15
769.27	234.12
769.60	234.16
769.92	234.06
770.25	233.90
770.57	233.74
770.90	233.73
771.22	233.68
771.55	233.68
771.87	233.62
772.20	233.56
772.52	233.88
772.85	234.37
773.17	234.30
773.50	234.28
773.82	234.07
774.15	233.83
774.47	233.51
774.80	233.43
775.12	233.31
775.45	233.26
775.77	233.27
776.09	233.25
776.42	233.22
776.74	233.31
777.07	233.23
777.39	233.22
777.72	233.06
778.04	233.05
778.36	232.95
778.69	232.97
779.01	233.01
779.33	232.56
779.66	232.05
779.98	231.99
780.31	231.93
780.63	232.14
780.95	232.23
781.28	232.15
781.60	232.12
781.92	232.05
782.25	231.95
782.57	231.92
782.89	231.83
783.22	231.73
783.54	231.57
783.86	231.51
784.19	231.48
784.51	231.66
784.83	231.52
785.16	231.45
785.48	231.48
785.80	231.42
786.12	231.44
786.45	231.40
786.77	231.43
787.09	231.36
787.42	231.18
787.74	231.14
788.06	231.16
788.38	231.06
788.71	231.02
789.03	230.99
789.35	230.99
789.67	230.93
789.99	230.91
790.32	230.86
790.64	230.88
790.96	231.19
791.28	230.90
791.61	230.88
791.93	230.88
792.25	230.75
792.57	231.04
792.89	230.92
793.21	230.96
793.54	230.87
793.86	230.80
794.18	230.73
794.50	230.53
794.82	230.49
795.14	230.60
795.47	230.61
795.79	230.64
796.11	230.45
796.43	230.38
796.75	230.30
797.07	230.30
797.39	230.26
797.71	229.89
798.04	229.91
798.36	229.89
798.68	229.84
799.00	229.79
799.32	229.52
799.64	229.59
799.96	229.45
800.28	229.45
800.60	229.41
800.92	229.42
801.24	229.39
801.56	229.34
801.89	229.17
802.21	229.18
802.53	229.08
802.85	229.13
803.17	229.31
803.49	229.28
803.81	229.14
804.13	229.14
804.45	229.10
804.77	229.09
805.09	229.04
805.41	229.00
805.73	228.95
806.05	228.82
806.37	228.79
806.69	228.73
807.01	228.68
807.33	228.62
807.65	228.44
807.97	228.66
808.28	228.59
808.60	228.57
808.92	228.47
809.24	228.75
809.56	228.71
809.88	228.47
810.20	228.38
810.52	228.59
810.84	228.56
811.16	228.46
811.48	228.38
811.80	228.57
812.12	228.57
812.43	228.61
812.75	228.59
813.07	228.51
813.39	228.54
813.71	228.42
814.03	228.32
814.35	228.34
814.67	228.08
814.98	228.10
815.30	228.12
815.62	228.03
815.94	227.65
816.26	227.93
816.58	227.88
816.89	227.99
817.21	227.81
817.53	227.79
817.85	227.80
818.17	227.83
818.48	227.63
818.80	227.68
819.12	227.65
819.44	227.61
819.76	227.56
820.07	227.56
820.39	227.67
820.71	227.85
821.03	227.83
821.34	227.83
821.66	227.88
821.98	227.92
822.30	227.95
822.61	228.31
822.93	228.01
823.25	228.05
823.57	227.96
823.88	228.05
824.20	228.03
824.52	228.19
824.83	228.20
825.15	228.21
825.47	228.16
825.79	228.21
826.10	228.20
826.42	228.14
826.74	228.18
827.05	228.09
827.37	228.10
827.69	228.06
828.00	228.12
828.32	228.08
828.64	228.04
828.95	228.32
829.27	228.17
829.58	228.17
829.90	228.30
830.22	228.35
830.53	228.25
830.85	228.21
831.17	227.99
831.48	228.02
831.80	228.02
832.11	227.98
832.43	227.85
832.75	227.88
833.06	228.18
833.38	228.10
833.69	228.08
834.01	228.09
834.32	228.07
834.64	227.95
834.96	227.92
835.27	227.87
835.59	227.71
835.90	227.58
836.22	227.54
836.53	227.42
836.85	227.36
837.16	227.82
837.48	227.85
837.79	228.05
838.11	228.05
838.42	228.05
838.74	228.12
839.05	228.21
839.37	228.10
839.68	227.82
840.00	227.80
840.31	227.84
840.63	227.73
840.94	227.70
841.26	227.68
841.57	227.73
841.88	227.79
842.20	227.71
842.51	227.62
842.83	227.64
843.14	228.02
843.46	228.01
843.77	227.71
844.08	227.66
844.40	227.54
844.71	227.44
845.03	227.40
845.34	227.34
845.65	227.26
845.97	227.30
846.28	227.28
846.60	227.31
846.91	227.26
847.22	227.22
847.54	227.37
847.85	227.47
848.16	227.39
848.48	227.19
848.79	227.32
849.10	227.43
849.42	227.43
849.73	227.02
850.04	227.05
850.36	226.95
850.67	227.01
850.98	226.99
851.30	227.06
851.61	227.02
851.92	227.01
852.23	227.16
852.55	227.17
852.86	227.27
853.17	227.25
853.49	227.40
853.80	227.56
854.11	227.65
854.42	227.60
854.74	227.48
855.05	227.55
855.36	227.40
855.67	227.41
855.99	227.46
856.30	227.94
856.61	227.92
856.92	227.96
857.23	227.87
857.55	227.91
857.86	227.90
858.17	227.97
858.48	227.93
858.79	227.82
859.11	227.92
859.42	227.88
859.73	227.89
860.04	227.83
860.35	227.65
860.66	227.43
860.98	227.54
861.29	227.65
861.60	227.72
861.91	227.75
862.22	227.57
862.53	227.55
862.84	226.98
863.16	227.13
863.47	227.04
863.78	227.11
864.09	227.09
864.40	227.12
864.71	227.10
865.02	227.13
865.33	227.12
865.64	227.00
865.95	226.98
866.27	227.30
866.58	227.22
866.89	227.34
867.20	227.30
867.51	227.14
867.82	227.11
868.13	227.26
868.44	227.21
868.75	227.42
869.06	227.44
869.37	227.51
869.68	227.32
869.99	227.33
870.30	227.34
870.61	227.38
870.92	227.32
871.23	227.29
871.54	227.42
871.85	227.54
872.16	227.59
872.47	227.53
872.78	227.17
873.09	227.22
873.40	227.15
873.71	227.26
874.02	227.33
874.33	227.30
874.64	227.10
874.95	227.11
875.26	227.00
875.56	226.94
875.87	226.94
876.18	226.92
876.49	227.39
876.80	227.30
877.11	227.15
877.42	227.14
877.73	227.14
878.04	227.05
878.35	227.01
878.66	226.99
878.96	227.05
879.27	227.05
879.58	226.99
879.89	227.03
880.20	227.12
880.51	227.07
880.82	227.05
881.12	227.12
881.43	227.01
881.74	226.99
882.05	227.06
882.36	227.10
882.67	227.14
882.97	226.61
883.28	226.59
883.59	226.61
883.90	226.69
884.21	226.79
884.51	226.70
884.82	226.60
885.13	226.62
885.44	226.56
885.74	226.66
886.05	226.70
886.36	226.64
886.67	226.49
886.98	226.72
887.28	226.78
887.59	226.82
887.90	226.91
888.20	226.91
888.51	226.90
888.82	226.85
889.13	226.88
889.43	227.29
889.74	227.29
890.05	227.31
890.35	227.24
890.66	227.17
890.97	227.10
891.28	227.16
891.58	227.17
891.89	227.15
892.20	227.09
892.50	226.97
892.81	226.97
893.12	226.98
893.42	226.79
893.73	226.81
894.04	226.77
894.34	226.75
894.65	226.68
894.95	226.62
895.26	226.58
895.57	226.76
895.87	226.29
896.18	226.36
896.48	226.36
896.79	226.33
897.10	226.38
897.40	226.47
897.71	226.48
898.01	226.46
898.32	226.58
898.63	226.52
898.93	226.56
899.24	226.55
899.54	226.53
899.85	226.50
900.15	226.51
900.46	226.57
900.76	226.60
901.07	226.64
901.38	226.67
901.68	226.76
901.99	226.51
902.29	226.55
902.60	226.51
902.90	226.46
903.21	226.47
903.51	226.43
903.82	226.51
904.12	226.50
904.43	226.53
904.73	226.50
905.03	226.56
905.34	226.95
905.64	226.97
905.95	226.93
906.25	226.89
906.56	226.84
906.86	226.77
907.17	226.76
907.47	226.79
907.77	226.70
908.08	226.61
908.38	226.75
908.69	226.81
908.99	226.93
909.30	226.99
909.60	227.07
909.90	227.08
910.21	226.94
910.51	226.85
910.81	226.82
911.12	226.83
911.42	226.84
911.73	226.45
912.03	226.45
912.33	226.60
912.64	226.65
912.94	226.61
913.24	226.61
913.55	226.60
913.85	226.55
914.15	226.71
914.46	226.80
914.76	226.69
915.06	226.65
915.37	226.55
915.67	226.52
915.97	226.48
916.27	226.41
916.58	226.48
916.88	226.50
917.18	226.47
917.49	226.75
917.79	226.70
918.09	226.81
918.39	226.95
918.70	226.83
919.00	226.80
919.30	227.03
919.60	226.99
919.91	226.87
920.21	226.94
920.51	226.83
920.81	226.76
921.12	226.80
921.42	226.86
921.72	226.92
922.02	226.95
922.32	227.05
922.63	227.02
922.93	227.25
923.23	227.24
923.53	227.21
923.83	226.96
924.13	227.03
924.44	227.02
924.74	227.05
925.04	227.31
925.34	227.42
925.64	227.27
925.94	227.29
926.24	227.66
926.55	227.62
926.85	227.69
927.15	227.72
927.45	227.73
927.75	227.68
928.05	227.67
928.35	227.66
928.65	227.76
928.95	227.82
929.26	227.54
929.56	227.63
929.86	227.66
930.16	227.63
930.46	227.60
930.76	227.58
931.06	227.40
931.36	227.26
931.66	227.29
931.96	227.32
932.26	227.29
932.56	227.10
932.86	227.06
933.16	227.05
933.46	227.04
933.76	227.02
934.06	227.17
934.36	227.27
934.66	227.31
934.96	227.20
935.26	227.21
935.56	227.40
935.86	227.22
936.16	227.19
936.46	227.13
936.76	227.06
937.06	227.00
937.36	227.03
937.66	226.97
937.96	226.92
938.26	226.84
938.56	226.80
938.86	226.77
939.16	226.90
939.46	226.92
939.76	226.97
940.06	227.01
940.35	226.83
940.65	226.57
940.95	226.57
941.25	226.45
941.55	226.40
941.85	226.32
942.15	226.50
942.45	226.64
942.75	226.63
943.04	226.62
943.34	226.79
943.64	226.75
943.94	226.65
944.24	226.60
944.54	226.56
944.84	226.57
945.13	226.52
945.43	226.51
945.73	226.55
946.03	226.43
946.33	226.36
946.62	226.34
946.92	226.38
947.22	226.39
947.52	226.35
947.82	226.38
948.11	226.38
948.41	226.19
948.71	226.05
949.01	226.08
949.31	226.15
949.60	226.04
949.90	226.08
950.20	226.16
950.50	226.20
950.79	226.24
951.09	226.34
951.39	226.29
951.69	226.19
951.98	226.17
952.28	226.22
952.58	226.22
952.87	226.24
953.17	226.36
953.47	226.27
953.76	226.29
954.06	226.22
954.36	226.12
954.66	226.22
954.95	226.37
955.25	226.32
955.55	226.31
955.84	226.24
956.14	226.26
956.44	226.24
956.73	226.22
957.03	226.27
957.32	226.27
957.62	226.20
957.92	226.27
958.21	226.26
958.51	226.75
958.81	226.80
959.10	226.85
959.40	226.94
959.69	227.00
959.99	227.07
960.29	227.08
960.58	227.02
960.88	227.19
961.17	227.10
961.47	227.24
961.76	227.18
962.06	227.26
962.36	227.24
962.65	227.18
962.95	227.22
963.24	227.11
963.54	227.07
963.83	227.15
964.13	227.19
964.42	227.03
964.72	226.68
965.01	226.64
965.31	226.64
965.60	226.48
965.90	226.80
966.19	226.76
966.49	226.80
966.78	226.84
967.08	226.72
967.37	226.73
967.67	226.59
967.96	226.71
968.26	226.74
968.55	226.78
968.85	226.84
969.14	226.68
969.43	226.71
969.73	226.73
970.02	226.73
970.32	226.70
970.61	226.75
970.91	226.59
971.20	226.60
971.49	226.52
971.79	226.57
972.08	226.22
972.38	226.25
972.67	226.29
972.96	226.39
973.26	226.40
973.55	226.54
973.85	226.58
974.14	226.48
974.43	226.53
974.73	226.42
975.02	226.40
975.31	226.49
975.61	226.51
975.90	226.43
976.19	226.35
976.49	226.35
976.78	226.37
977.07	226.36
977.37	226.34
977.66	226.39
977.95	226.31
978.24	226.30
978.54	226.39
978.83	226.27
979.12	226.16
979.42	226.12
979.71	226.06
980.00	226.00
980.29	226.10
980.59	225.93
980.88	226.12
981.17	226.12
981.46	226.14
981.76	226.14
982.05	226.31
982.34	226.44
982.63	226.43
982.93	226.42
983.22	226.58
983.51	226.60
983.80	226.65
984.09	226.77
984.39	226.78
984.68	226.71
984.97	226.78
985.26	226.81
985.55	226.87
985.85	226.78
986.14	226.87
986.43	226.88
986.72	226.87
987.01	226.65
987.30	226.68
987.59	226.66
987.89	226.62
988.18	226.44
988.47	226.32
988.76	226.28
989.05	226.25
989.34	226.14
989.63	226.29
989.92	226.22
990.22	226.18
990.51	226.23
990.80	226.12
991.09	226.17
991.38	226.24
991.67	226.23
991.96	226.20
992.25	226.19
992.54	226.10
992.83	226.14
993.12	226.20
993.41	226.24
993.70	226.45
993.99	226.56
994.28	226.65
994.58	226.82
994.87	226.80
995.16	226.78
995.45	226.74
995.74	226.50
996.03	226.55
996.32	226.56
996.61	226.65
996.90	226.69
997.19	226.65
997.48	226.74
997.77	226.63
998.06	226.64
998.34	226.62
998.63	226.66
998.92	226.64
999.21	226.68
999.50	226.70
999.79	226.52
1000.08	226.50
1000.37	226.51
1000.66	226.33
1000.95	226.45
1001.24	226.51
1001.53	226.49
1001.82	226.55
1002.11	226.47
1002.40	226.54
1002.68	226.67
1002.97	226.97
1003.26	226.88
1003.55	226.71
1003.84	226.75
1004.13	226.89
1004.42	226.83
1004.71	226.80
1004.99	226.76
1005.28	226.83
1005.57	226.75
1005.86	226.64
1006.15	226.60
1006.44	226.52
1006.72	226.61
1007.01	226.49
1007.30	226.46
1007.59	226.57
1007.88	226.56
1008.17	226.60
1008.45	226.46
1008.74	226.19
1009.03	225.99
1009.32	226.00
1009.60	225.95
1009.89	225.99
1010.18	225.75
1010.47	225.78
1010.76	225.75
1011.04	225.80
1011.33	225.79
1011.62	225.84
1011.91	225.88
1012.19	225.85
1012.48	225.85
1012.77	225.83
1013.05	226.04
1013.34	226.09
1013.63	225.97
1013.92	225.98
1014.20	225.84
1014.49	225.86
1014.78	225.89
1015.06	225.76
1015.35	225.84
1015.64	225.90
1015.92	225.86
1016.21	225.85
1016.50	225.82
1016.78	225.89
1017.07	225.86
1017.36	225.84
1017.64	225.66
1017.93	225.74
1018.22	225.73
1018.50	225.71
1018.79	225.69
1019.08	225.51
1019.36	225.46
1019.65	225.45
1019.93	225.59
1020.22	225.75
1020.51	225.97
1020.79	225.88
1021.08	225.10
1021.36	224.90
1021.65	225.55
1021.94	226.15
1022.22	225.45
1022.51	224.75
1022.79	228.55
1023.08	226.90
1023.36	230.85
1023.65	224.30
>>>>>End Processed Spectral Data<<<<<
