SpectraSuite Data File
++++++++++++++++++++++++++++++++++++
Date: Wed Sep 04 17:55:18 EDT 2013
User: lab3
Dark Spectrum Present: Yes
Reference Spectrum Present: No
Number of Sampled Component Spectra: 1
Spectrometers: USB2E7196
Integration Time (usec): 170000 (USB2E7196)
Spectra Averaged: 20 (USB2E7196)
Boxcar Smoothing: 10 (USB2E7196)
Correct for Electrical Dark: No (USB2E7196)
Strobe/Lamp Enabled: No (USB2E7196)
Correct for Detector Non-linearity: No (USB2E7196)
Correct for Stray Light: No (USB2E7196)
Number of Pixels in Processed Spectrum: 2048
>>>>>Begin Processed Spectral Data<<<<<
339.09	0.00
339.48	214.50
339.86	215.05
340.24	216.35
340.63	217.35
341.01	225.40
341.39	220.45
341.78	222.80
342.16	224.00
342.54	223.10
342.93	212.51
343.31	223.25
343.69	223.68
344.07	224.15
344.46	224.62
344.84	225.04
345.22	225.06
345.60	225.30
345.99	225.51
346.37	225.65
346.75	225.73
347.13	225.77
347.52	225.88
347.90	226.15
348.28	226.10
348.66	226.24
349.05	226.22
349.43	226.29
349.81	226.40
350.19	226.44
350.57	226.51
350.96	226.61
351.34	226.70
351.72	226.87
352.10	226.95
352.48	227.00
352.87	227.06
353.25	227.14
353.63	227.26
354.01	227.24
354.39	227.31
354.77	227.42
355.15	227.58
355.54	227.56
355.92	227.39
356.30	227.56
356.68	227.92
357.06	227.91
357.44	227.87
357.82	227.90
358.20	228.42
358.58	228.50
358.97	228.54
359.35	228.69
359.73	228.83
360.11	228.88
360.49	228.94
360.87	228.94
361.25	229.03
361.63	229.23
362.01	229.37
362.39	229.35
362.77	229.42
363.15	229.48
363.53	229.60
363.91	229.67
364.29	229.64
364.67	229.23
365.05	229.25
365.43	229.35
365.81	229.37
366.19	229.18
366.57	229.39
366.95	229.40
367.33	229.35
367.71	229.35
368.09	229.47
368.47	229.44
368.85	229.48
369.23	229.55
369.61	229.35
369.99	229.46
370.37	229.55
370.75	229.80
371.13	229.69
371.51	229.61
371.89	229.67
372.27	229.76
372.65	229.80
373.03	229.86
373.41	229.76
373.78	229.73
374.16	229.43
374.54	229.23
374.92	229.18
375.30	229.10
375.68	228.96
376.06	228.90
376.44	228.93
376.82	228.90
377.19	228.87
377.57	228.76
377.95	228.54
378.33	228.41
378.71	228.06
379.09	228.08
379.47	228.09
379.84	227.99
380.22	227.83
380.60	227.60
380.98	227.53
381.36	227.56
381.73	227.47
382.11	227.55
382.49	227.54
382.87	227.45
383.25	227.39
383.62	227.91
384.00	227.73
384.38	227.62
384.76	227.68
385.13	227.73
385.51	227.75
385.89	227.68
386.27	227.70
386.64	227.75
387.02	227.65
387.40	227.55
387.78	227.52
388.15	227.54
388.53	227.62
388.91	227.59
389.29	227.46
389.66	227.46
390.04	227.41
390.42	227.48
390.79	227.51
391.17	227.49
391.55	226.93
391.92	227.01
392.30	227.00
392.68	226.90
393.05	226.91
393.43	226.92
393.81	226.96
394.18	226.90
394.56	226.81
394.94	226.90
395.31	226.86
395.69	227.03
396.06	227.11
396.44	227.16
396.82	227.22
397.19	227.55
397.57	227.55
397.95	227.63
398.32	227.47
398.70	227.53
399.07	227.69
399.45	227.76
399.82	227.80
400.20	227.94
400.58	228.06
400.95	228.01
401.33	228.09
401.70	228.53
402.08	228.67
402.45	228.89
402.83	229.11
403.20	229.25
403.58	229.37
403.95	229.61
404.33	229.90
404.71	229.97
405.08	230.40
405.46	230.66
405.83	230.94
406.21	231.24
406.58	231.55
406.96	231.84
407.33	232.20
407.70	232.54
408.08	233.21
408.45	233.62
408.83	234.10
409.20	234.55
409.58	234.65
409.95	235.21
410.33	235.75
410.70	236.22
411.08	236.87
411.45	237.36
411.82	237.90
412.20	238.61
412.57	239.70
412.95	240.02
413.32	240.94
413.69	241.74
414.07	242.65
414.44	243.62
414.82	244.62
415.19	245.79
415.56	246.99
415.94	248.00
416.31	249.47
416.68	250.75
417.06	252.36
417.43	254.02
417.81	255.75
418.18	257.53
418.55	259.38
418.93	261.36
419.30	263.52
419.67	265.76
420.04	268.02
420.42	270.25
420.79	273.27
421.16	276.03
421.54	279.08
421.91	282.06
422.28	285.13
422.66	288.34
423.03	291.77
423.40	295.20
423.77	298.72
424.15	302.27
424.52	306.15
424.89	310.35
425.26	314.30
425.64	317.98
426.01	322.11
426.38	326.51
426.75	331.16
427.13	335.71
427.50	340.45
427.87	345.26
428.24	350.11
428.61	354.63
428.99	359.87
429.36	365.30
429.73	370.73
430.10	376.24
430.47	382.00
430.85	387.60
431.22	393.65
431.59	400.39
431.96	406.51
432.33	413.41
432.70	419.99
433.08	427.93
433.45	435.38
433.82	442.83
434.19	450.92
434.56	458.91
434.93	466.60
435.30	474.38
435.68	483.07
436.05	491.50
436.42	499.82
436.79	507.42
437.16	515.77
437.53	524.73
437.90	533.51
438.27	542.05
438.64	550.93
439.01	559.28
439.38	566.58
439.75	573.72
440.13	581.82
440.50	589.41
440.87	595.37
441.24	601.87
441.61	608.87
441.98	614.13
442.35	620.00
442.72	625.86
443.09	631.58
443.46	634.86
443.83	637.29
444.20	639.36
444.57	642.09
444.94	643.25
445.31	644.23
445.68	645.59
446.05	645.70
446.42	644.34
446.79	642.95
447.16	641.29
447.53	640.01
447.90	636.29
448.27	632.53
448.64	627.78
449.01	624.00
449.37	617.66
449.74	611.61
450.11	604.73
450.48	597.19
450.85	589.29
451.22	582.54
451.59	575.86
451.96	569.52
452.33	561.54
452.70	554.09
453.07	545.49
453.43	536.27
453.80	527.97
454.17	520.00
454.54	512.27
454.91	504.12
455.28	496.19
455.65	488.70
456.02	481.89
456.38	475.43
456.75	467.76
457.12	461.37
457.49	455.02
457.86	448.54
458.23	443.25
458.59	437.56
458.96	431.77
459.33	426.68
459.70	421.56
460.07	417.46
460.43	412.81
460.80	408.48
461.17	404.80
461.54	400.81
461.91	397.04
462.27	393.25
462.64	389.90
463.01	386.42
463.38	383.17
463.74	379.11
464.11	376.10
464.48	373.42
464.85	370.57
465.21	368.47
465.58	366.20
465.95	363.53
466.32	361.17
466.68	358.87
467.05	356.65
467.42	354.32
467.78	351.93
468.15	349.79
468.52	348.18
468.88	346.04
469.25	344.05
469.62	342.57
469.98	340.83
470.35	339.26
470.72	337.83
471.08	336.08
471.45	334.87
471.82	333.64
472.18	332.18
472.55	331.11
472.92	329.70
473.28	328.55
473.65	327.35
474.02	326.36
474.38	325.65
474.75	324.91
475.11	324.08
475.48	323.45
475.85	322.82
476.21	322.20
476.58	321.71
476.94	321.36
477.31	320.88
477.67	320.55
478.04	320.27
478.41	320.08
478.77	320.36
479.14	320.10
479.50	319.88
479.87	319.98
480.23	320.11
480.60	320.10
480.96	320.22
481.33	320.65
481.69	320.84
482.06	320.97
482.42	321.24
482.79	321.71
483.15	322.26
483.52	322.93
483.88	323.33
484.25	323.84
484.61	324.44
484.98	325.07
485.34	325.97
485.71	326.94
486.07	327.79
486.44	328.40
486.80	329.54
487.17	330.82
487.53	332.20
487.90	333.61
488.26	335.37
488.62	337.12
488.99	338.65
489.35	340.52
489.72	342.40
490.08	344.43
490.44	346.38
490.81	348.56
491.17	350.69
491.54	353.30
491.90	355.80
492.26	358.55
492.63	361.42
492.99	364.35
493.36	367.44
493.72	370.82
494.08	374.20
494.45	377.78
494.81	381.57
495.17	385.38
495.54	389.36
495.90	393.57
496.26	397.91
496.63	402.52
496.99	407.32
497.35	412.41
497.72	417.69
498.08	423.24
498.44	428.76
498.80	434.96
499.17	441.01
499.53	447.28
499.89	453.92
500.26	460.81
500.62	467.75
500.98	475.22
501.34	482.57
501.71	490.39
502.07	498.34
502.43	506.35
502.79	514.68
503.16	523.44
503.52	532.50
503.88	541.75
504.24	551.37
504.60	561.43
504.97	571.69
505.33	581.97
505.69	593.00
506.05	604.15
506.41	615.10
506.78	626.79
507.14	638.88
507.50	651.11
507.86	663.53
508.22	676.26
508.59	689.08
508.95	702.85
509.31	716.98
509.67	731.32
510.03	745.83
510.39	760.70
510.75	775.62
511.12	790.75
511.48	806.35
511.84	822.12
512.20	837.86
512.56	854.16
512.92	870.94
513.28	887.85
513.64	904.95
514.00	922.56
514.37	940.09
514.73	958.06
515.09	976.46
515.45	995.03
515.81	1013.58
516.17	1032.54
516.53	1051.10
516.89	1069.73
517.25	1088.93
517.61	1109.01
517.97	1129.05
518.33	1149.30
518.69	1169.33
519.05	1189.84
519.41	1210.38
519.77	1231.51
520.13	1252.37
520.49	1272.96
520.85	1295.17
521.21	1316.42
521.57	1337.65
521.93	1358.42
522.29	1379.66
522.65	1400.00
523.01	1420.87
523.37	1441.92
523.73	1462.92
524.09	1483.59
524.45	1504.20
524.81	1525.04
525.17	1545.80
525.53	1566.55
525.89	1587.51
526.25	1608.42
526.61	1628.76
526.97	1650.04
527.33	1671.29
527.68	1692.95
528.04	1714.25
528.40	1733.95
528.76	1755.06
529.12	1775.40
529.48	1796.28
529.84	1816.09
530.20	1837.36
530.56	1857.91
530.91	1878.59
531.27	1898.92
531.63	1919.53
531.99	1940.02
532.35	1959.77
532.71	1979.83
533.07	2000.32
533.42	2020.16
533.78	2039.86
534.14	2059.79
534.50	2078.67
534.86	2097.61
535.21	2115.20
535.57	2133.80
535.93	2151.45
536.29	2169.15
536.65	2187.41
537.00	2205.02
537.36	2222.78
537.72	2239.40
538.08	2256.72
538.44	2273.19
538.79	2289.70
539.15	2306.28
539.51	2322.54
539.87	2337.95
540.22	2351.99
540.58	2366.20
540.94	2379.33
541.29	2391.97
541.65	2404.53
542.01	2417.18
542.37	2427.74
542.72	2438.62
543.08	2449.30
543.44	2461.07
543.79	2471.00
544.15	2480.59
544.51	2490.87
544.87	2500.70
545.22	2509.37
545.58	2516.80
545.94	2524.30
546.29	2530.84
546.65	2536.74
547.01	2542.38
547.36	2547.95
547.72	2553.37
548.07	2557.46
548.43	2562.57
548.79	2567.54
549.14	2571.73
549.50	2575.20
549.86	2579.14
550.21	2582.86
550.57	2586.25
550.92	2587.52
551.28	2588.74
551.64	2591.10
551.99	2592.51
552.35	2594.12
552.70	2596.27
553.06	2598.15
553.41	2599.34
553.77	2600.96
554.13	2602.93
554.48	2604.10
554.84	2605.53
555.19	2606.88
555.55	2608.83
555.90	2608.10
556.26	2607.11
556.61	2605.30
556.97	2603.39
557.32	2602.78
557.68	2601.70
558.03	2600.22
558.39	2598.65
558.74	2598.06
559.10	2594.82
559.45	2591.78
559.81	2586.87
560.16	2581.52
560.52	2576.70
560.87	2572.10
561.23	2566.68
561.58	2560.47
561.94	2553.45
562.29	2545.93
562.64	2538.65
563.00	2529.89
563.35	2523.32
563.71	2517.03
564.06	2510.75
564.42	2504.26
564.77	2497.46
565.12	2489.72
565.48	2482.01
565.83	2474.22
566.19	2466.25
566.54	2458.25
566.89	2449.93
567.25	2442.68
567.60	2435.51
567.96	2427.86
568.31	2419.85
568.66	2411.51
569.02	2402.65
569.37	2394.84
569.72	2387.69
570.08	2378.59
570.43	2369.17
570.78	2360.19
571.14	2350.52
571.49	2340.42
571.84	2330.90
572.20	2320.18
572.55	2310.26
572.90	2299.03
573.26	2288.66
573.61	2277.35
573.96	2266.41
574.31	2254.61
574.67	2242.55
575.02	2230.14
575.37	2217.54
575.72	2204.27
576.08	2191.90
576.43	2179.58
576.78	2166.51
577.13	2152.44
577.49	2139.73
577.84	2128.49
578.19	2116.62
578.54	2104.19
578.90	2092.25
579.25	2079.73
579.60	2067.12
579.95	2054.23
580.30	2041.32
580.66	2027.90
581.01	2014.38
581.36	2000.55
581.71	1987.70
582.06	1975.20
582.42	1962.57
582.77	1949.90
583.12	1938.06
583.47	1925.76
583.82	1913.41
584.17	1901.39
584.53	1889.96
584.88	1877.15
585.23	1863.56
585.58	1849.38
585.93	1836.14
586.28	1822.93
586.63	1809.07
586.98	1794.95
587.34	1781.60
587.69	1768.40
588.04	1755.88
588.39	1743.85
588.74	1731.90
589.09	1719.92
589.44	1706.82
589.79	1694.47
590.14	1682.69
590.49	1670.55
590.84	1658.43
591.19	1646.71
591.54	1634.46
591.89	1622.13
592.25	1611.77
592.60	1600.35
592.95	1588.74
593.30	1576.81
593.65	1564.91
594.00	1552.83
594.35	1543.01
594.70	1531.23
595.05	1519.70
595.40	1507.57
595.75	1495.43
596.10	1484.04
596.45	1472.47
596.80	1461.57
597.15	1450.23
597.50	1438.26
597.85	1426.86
598.19	1415.31
598.54	1403.60
598.89	1392.21
599.24	1381.54
599.59	1369.98
599.94	1359.04
600.29	1348.99
600.64	1338.50
600.99	1327.76
601.34	1318.45
601.69	1307.00
602.04	1297.14
602.39	1287.50
602.74	1278.38
603.08	1269.05
603.43	1259.70
603.78	1249.93
604.13	1240.44
604.48	1231.03
604.83	1221.46
605.18	1211.58
605.53	1202.22
605.87	1193.01
606.22	1184.65
606.57	1175.33
606.92	1165.88
607.27	1157.28
607.62	1148.33
607.96	1140.05
608.31	1132.07
608.66	1123.47
609.01	1115.04
609.36	1106.58
609.70	1098.14
610.05	1089.54
610.40	1081.31
610.75	1072.63
611.10	1064.56
611.44	1055.91
611.79	1047.51
612.14	1039.69
612.49	1031.99
612.83	1024.29
613.18	1016.36
613.53	1008.46
613.88	1000.54
614.22	992.81
614.57	984.55
614.92	976.68
615.27	968.81
615.61	961.15
615.96	953.59
616.31	946.15
616.65	939.03
617.00	931.70
617.35	924.49
617.70	917.43
618.04	910.21
618.39	903.01
618.74	896.73
619.08	889.91
619.43	882.75
619.78	875.80
620.12	868.72
620.47	861.83
620.82	854.69
621.16	847.84
621.51	841.49
621.85	835.24
622.20	828.59
622.55	821.97
622.89	815.48
623.24	809.18
623.59	802.95
623.93	796.69
624.28	790.65
624.62	784.92
624.97	778.95
625.32	773.15
625.66	767.19
626.01	761.08
626.35	755.30
626.70	749.75
627.04	744.47
627.39	738.85
627.73	733.75
628.08	728.65
628.43	723.25
628.77	717.74
629.12	712.42
629.46	707.64
629.81	703.11
630.15	698.28
630.50	693.25
630.84	688.36
631.19	683.57
631.53	678.93
631.88	673.83
632.22	668.70
632.57	664.30
632.91	659.73
633.26	655.32
633.60	650.86
633.95	646.48
634.29	641.73
634.64	637.40
634.98	632.55
635.32	628.10
635.67	624.12
636.01	620.09
636.36	615.85
636.70	611.80
637.05	607.50
637.39	603.37
637.73	599.40
638.08	595.32
638.42	591.14
638.77	586.78
639.11	582.39
639.45	578.40
639.80	574.15
640.14	570.04
640.49	566.07
640.83	562.31
641.17	558.62
641.52	554.90
641.86	551.26
642.20	548.17
642.55	544.50
642.89	540.92
643.23	537.33
643.58	534.24
643.92	530.45
644.26	527.05
644.61	523.90
644.95	520.52
645.29	517.15
645.64	513.96
645.98	510.95
646.32	508.15
646.66	504.95
647.01	501.99
647.35	499.31
647.69	496.36
648.04	493.55
648.38	490.59
648.72	487.65
649.06	484.59
649.41	481.49
649.75	478.57
650.09	475.71
650.43	472.87
650.78	469.91
651.12	467.05
651.46	464.22
651.80	461.42
652.14	458.79
652.49	456.29
652.83	453.72
653.17	450.99
653.51	448.12
653.85	445.80
654.20	443.32
654.54	440.71
654.88	438.11
655.22	435.76
655.56	433.29
655.90	430.96
656.25	428.79
656.59	426.57
656.93	424.35
657.27	422.31
657.61	419.94
657.95	417.61
658.29	415.54
658.64	413.49
658.98	411.25
659.32	408.83
659.66	406.61
660.00	404.50
660.34	402.50
660.68	400.58
661.02	398.53
661.36	396.48
661.70	394.45
662.05	392.57
662.39	390.62
662.73	388.77
663.07	387.22
663.41	385.24
663.75	383.15
664.09	381.34
664.43	379.33
664.77	377.69
665.11	376.01
665.45	374.39
665.79	372.80
666.13	371.09
666.47	369.53
666.81	367.93
667.15	366.23
667.49	364.68
667.83	363.35
668.17	361.91
668.51	360.54
668.85	359.32
669.19	358.14
669.53	356.58
669.87	355.12
670.21	353.62
670.55	352.35
670.89	351.43
671.23	350.07
671.57	348.70
671.91	347.35
672.25	346.08
672.58	344.84
672.92	343.34
673.26	342.14
673.60	341.06
673.94	339.85
674.28	338.71
674.62	337.61
674.96	336.33
675.30	335.19
675.64	333.97
675.97	332.59
676.31	331.25
676.65	330.01
676.99	329.09
677.33	327.85
677.67	326.70
678.01	325.32
678.34	324.32
678.68	323.40
679.02	322.35
679.36	321.26
679.70	320.28
680.04	319.35
680.37	318.35
680.71	317.35
681.05	316.43
681.39	315.61
681.73	314.55
682.06	313.69
682.40	312.70
682.74	311.83
683.08	311.19
683.42	310.31
683.75	309.60
684.09	308.60
684.43	307.79
684.77	307.01
685.10	306.23
685.44	305.44
685.78	304.57
686.12	303.82
686.45	303.04
686.79	302.16
687.13	301.55
687.46	300.77
687.80	300.13
688.14	299.26
688.48	298.46
688.81	297.70
689.15	297.06
689.49	296.40
689.82	295.71
690.16	294.76
690.50	294.08
690.83	293.32
691.17	292.51
691.51	291.83
691.84	291.16
692.18	290.42
692.52	289.71
692.85	289.12
693.19	288.59
693.52	287.98
693.86	287.33
694.20	286.58
694.53	285.99
694.87	285.18
695.21	284.59
695.54	283.96
695.88	283.43
696.21	282.58
696.55	281.92
696.88	281.27
697.22	280.67
697.56	280.10
697.89	279.47
698.23	279.06
698.56	278.46
698.90	277.92
699.23	277.41
699.57	276.95
699.90	276.22
700.24	275.70
700.58	275.16
700.91	274.74
701.25	274.67
701.58	274.45
701.92	274.16
702.25	273.75
702.59	273.24
702.92	272.75
703.26	272.40
703.59	271.94
703.93	271.89
704.26	271.56
704.60	271.11
704.93	270.78
705.26	270.32
705.60	270.03
705.93	269.59
706.27	269.29
706.60	268.95
706.94	268.88
707.27	268.32
707.61	268.03
707.94	267.69
708.27	266.91
708.61	266.21
708.94	265.74
709.28	265.40
709.61	265.04
709.94	264.73
710.28	264.37
710.61	264.09
710.95	263.26
711.28	263.20
711.61	262.85
711.95	262.59
712.28	262.12
712.61	261.71
712.95	261.60
713.28	261.49
713.61	260.98
713.95	260.55
714.28	260.32
714.61	260.00
714.95	259.53
715.28	259.26
715.61	258.95
715.95	258.63
716.28	258.18
716.61	257.87
716.95	257.55
717.28	257.23
717.61	256.90
717.94	256.65
718.28	256.01
718.61	255.74
718.94	255.37
719.27	255.11
719.61	254.89
719.94	254.52
720.27	254.02
720.60	253.93
720.94	253.60
721.27	253.30
721.60	253.05
721.93	252.86
722.27	252.70
722.60	252.48
722.93	252.25
723.26	252.21
723.59	251.93
723.93	251.78
724.26	251.63
724.59	251.37
724.92	251.23
725.25	251.13
725.59	250.89
725.92	250.73
726.25	250.58
726.58	250.37
726.91	250.16
727.24	249.96
727.57	249.67
727.91	249.45
728.24	249.38
728.57	249.12
728.90	249.00
729.23	248.63
729.56	248.73
729.89	248.54
730.22	248.23
730.55	248.15
730.89	247.98
731.22	247.72
731.55	247.55
731.88	247.35
732.21	247.09
732.54	246.86
732.87	246.65
733.20	246.46
733.53	246.20
733.86	246.03
734.19	245.86
734.52	245.75
734.85	245.90
735.18	245.66
735.51	245.64
735.84	245.46
736.17	245.50
736.50	245.09
736.83	245.53
737.16	245.35
737.49	245.19
737.82	244.93
738.15	244.91
738.48	244.75
738.81	244.62
739.14	244.43
739.47	244.26
739.80	244.10
740.13	244.05
740.46	243.89
740.79	243.58
741.12	243.45
741.45	243.30
741.78	242.86
742.11	242.76
742.44	242.56
742.77	242.50
743.10	242.25
743.43	242.09
743.75	241.39
744.08	241.98
744.41	241.81
744.74	241.66
745.07	241.38
745.40	241.35
745.73	241.40
746.06	241.29
746.39	241.24
746.71	241.05
747.04	240.84
747.37	240.72
747.70	240.73
748.03	240.57
748.36	240.45
748.68	240.43
749.01	240.21
749.34	240.06
749.67	239.96
750.00	239.86
750.33	240.08
750.65	240.02
750.98	239.27
751.31	239.14
751.64	239.09
751.97	239.34
752.29	239.14
752.62	238.75
752.95	238.59
753.28	238.47
753.60	238.37
753.93	238.34
754.26	238.30
754.59	238.03
754.91	237.91
755.24	237.78
755.57	237.72
755.90	237.65
756.22	237.47
756.55	237.26
756.88	237.13
757.20	236.67
757.53	236.47
757.86	236.38
758.19	236.31
758.51	236.25
758.84	235.82
759.17	235.74
759.49	235.76
759.82	236.03
760.15	235.92
760.47	235.82
760.80	235.65
761.13	235.69
761.45	235.67
761.78	235.60
762.11	235.52
762.43	235.24
762.76	235.14
763.08	235.06
763.41	235.00
763.74	234.94
764.06	234.89
764.39	234.81
764.71	234.70
765.04	234.57
765.37	234.43
765.69	234.33
766.02	234.23
766.34	234.11
766.67	233.77
767.00	233.87
767.32	234.06
767.65	234.29
767.97	234.11
768.30	234.04
768.62	233.95
768.95	233.87
769.27	233.85
769.60	233.88
769.92	233.89
770.25	233.77
770.57	233.70
770.90	233.67
771.22	233.62
771.55	233.59
771.87	233.60
772.20	233.59
772.52	233.97
772.85	234.48
773.17	234.38
773.50	234.28
773.82	234.09
774.15	233.80
774.47	233.43
774.80	233.38
775.12	233.37
775.45	233.34
775.77	233.31
776.09	233.26
776.42	233.12
776.74	233.15
777.07	233.13
777.39	233.01
777.72	232.91
778.04	232.93
778.36	232.82
778.69	232.77
779.01	232.71
779.33	232.17
779.66	231.55
779.98	231.50
780.31	231.46
780.63	231.66
780.95	231.67
781.28	231.63
781.60	231.44
781.92	231.31
782.25	231.22
782.57	231.16
782.89	231.10
783.22	231.09
783.54	230.92
783.86	230.84
784.19	230.79
784.51	230.86
784.83	230.69
785.16	230.67
785.48	230.64
785.80	230.62
786.12	230.67
786.45	230.72
786.77	230.71
787.09	230.65
787.42	230.36
787.74	230.34
788.06	230.29
788.38	230.28
788.71	230.30
789.03	230.32
789.35	230.33
789.67	230.26
789.99	230.29
790.32	230.19
790.64	230.23
790.96	230.61
791.28	230.37
791.61	230.36
791.93	230.35
792.25	230.19
792.57	230.46
792.89	230.35
793.21	230.34
793.54	230.34
793.86	230.28
794.18	230.27
794.50	230.18
794.82	230.20
795.14	230.28
795.47	230.36
795.79	230.35
796.11	230.22
796.43	230.22
796.75	230.16
797.07	230.20
797.39	230.13
797.71	229.73
798.04	229.78
798.36	229.71
798.68	229.68
799.00	229.81
799.32	229.55
799.64	229.64
799.96	229.60
800.28	229.63
800.60	229.56
800.92	229.60
801.24	229.63
801.56	229.69
801.89	229.57
802.21	229.59
802.53	229.44
802.85	229.45
803.17	229.70
803.49	229.63
803.81	229.55
804.13	229.52
804.45	229.44
804.77	229.38
805.09	229.38
805.41	229.35
805.73	229.22
806.05	229.03
806.37	228.93
806.69	228.87
807.01	228.82
807.33	228.90
807.65	228.76
807.97	228.90
808.28	228.76
808.60	228.76
808.92	228.62
809.24	228.93
809.56	228.89
809.88	228.68
810.20	228.65
810.52	228.76
810.84	228.70
811.16	228.67
811.48	228.65
811.80	228.82
812.12	228.77
812.43	228.87
812.75	228.96
813.07	228.89
813.39	228.90
813.71	228.82
814.03	228.75
814.35	228.74
814.67	228.50
814.98	228.54
815.30	228.56
815.62	228.46
815.94	228.16
816.26	228.36
816.58	228.21
816.89	228.16
817.21	228.00
817.53	228.10
817.85	228.10
818.17	228.14
818.48	227.99
818.80	228.08
819.12	227.99
819.44	227.91
819.76	227.88
820.07	227.86
820.39	227.85
820.71	227.84
821.03	227.83
821.34	227.75
821.66	227.77
821.98	227.74
822.30	227.77
822.61	228.10
822.93	227.87
823.25	227.87
823.57	227.91
823.88	228.03
824.20	227.97
824.52	228.10
824.83	228.09
825.15	228.06
825.47	227.99
825.79	228.00
826.10	227.96
826.42	227.99
826.74	227.98
827.05	227.97
827.37	228.03
827.69	228.01
828.00	228.11
828.32	228.15
828.64	228.09
828.95	228.30
829.27	228.13
829.58	228.13
829.90	228.25
830.22	228.24
830.53	228.11
830.85	228.02
831.17	227.87
831.48	227.93
831.80	227.91
832.11	227.90
832.43	227.84
832.75	227.82
833.06	228.11
833.38	227.99
833.69	227.92
834.01	227.93
834.32	227.99
834.64	227.87
834.96	227.87
835.27	227.90
835.59	227.73
835.90	227.68
836.22	227.69
836.53	227.58
836.85	227.58
837.16	228.13
837.48	228.19
837.79	228.35
838.11	228.30
838.42	228.33
838.74	228.41
839.05	228.35
839.37	228.35
839.68	228.13
840.00	228.10
840.31	228.25
840.63	228.17
840.94	228.11
841.26	228.11
841.57	228.10
841.88	228.11
842.20	228.12
842.51	228.00
842.83	227.97
843.14	228.46
843.46	228.47
843.77	228.10
844.08	228.01
844.40	227.87
844.71	227.82
845.03	227.80
845.34	227.67
845.65	227.66
845.97	227.64
846.28	227.61
846.60	227.64
846.91	227.53
847.22	227.55
847.54	227.57
847.85	227.63
848.16	227.51
848.48	227.45
848.79	227.60
849.10	227.69
849.42	227.68
849.73	227.18
850.04	227.08
850.36	226.92
850.67	227.02
850.98	226.99
851.30	227.12
851.61	227.02
851.92	227.08
852.23	227.24
852.55	227.28
852.86	227.25
853.17	227.28
853.49	227.28
853.80	227.37
854.11	227.41
854.42	227.41
854.74	227.34
855.05	227.38
855.36	227.13
855.67	227.09
855.99	227.11
856.30	227.74
856.61	227.75
856.92	227.83
857.23	227.83
857.55	227.80
857.86	227.65
858.17	227.77
858.48	227.66
858.79	227.59
859.11	227.65
859.42	227.66
859.73	227.58
860.04	227.68
860.35	227.51
860.66	227.32
860.98	227.33
861.29	227.37
861.60	227.31
861.91	227.41
862.22	227.30
862.53	227.25
862.84	226.65
863.16	226.80
863.47	226.67
863.78	226.67
864.09	226.70
864.40	226.77
864.71	226.73
865.02	226.77
865.33	226.69
865.64	226.64
865.95	226.64
866.27	226.98
866.58	226.85
866.89	226.93
867.20	226.98
867.51	226.92
867.82	226.94
868.13	227.14
868.44	227.04
868.75	227.19
869.06	227.30
869.37	227.35
869.68	227.21
869.99	227.30
870.30	227.30
870.61	227.41
870.92	227.29
871.23	227.29
871.54	227.40
871.85	227.58
872.16	227.57
872.47	227.53
872.78	227.29
873.09	227.39
873.40	227.33
873.71	227.44
874.02	227.47
874.33	227.40
874.64	227.25
874.95	227.34
875.26	227.21
875.56	227.13
875.87	227.09
876.18	227.06
876.49	227.52
876.80	227.43
877.11	227.32
877.42	227.44
877.73	227.45
878.04	227.38
878.35	227.32
878.66	227.28
878.96	227.22
879.27	227.14
879.58	227.07
879.89	227.11
880.20	227.25
880.51	227.18
880.82	227.13
881.12	227.23
881.43	227.05
881.74	227.06
882.05	227.05
882.36	227.09
882.67	227.16
882.97	226.67
883.28	226.64
883.59	226.68
883.90	226.67
884.21	226.71
884.51	226.65
884.82	226.60
885.13	226.64
885.44	226.62
885.74	226.66
886.05	226.67
886.36	226.65
886.67	226.40
886.98	226.71
887.28	226.82
887.59	226.77
887.90	226.83
888.20	226.79
888.51	226.90
888.82	226.79
889.13	226.75
889.43	227.14
889.74	227.15
890.05	227.06
890.35	227.01
890.66	226.89
890.97	226.81
891.28	226.73
891.58	226.78
891.89	226.79
892.20	226.79
892.50	226.73
892.81	226.68
893.12	226.64
893.42	226.35
893.73	226.30
894.04	226.25
894.34	226.31
894.65	226.25
894.95	226.18
895.26	226.23
895.57	226.47
895.87	225.95
896.18	226.06
896.48	226.13
896.79	226.12
897.10	226.28
897.40	226.34
897.71	226.46
898.01	226.38
898.32	226.47
898.63	226.48
898.93	226.52
899.24	226.49
899.54	226.43
899.85	226.41
900.15	226.39
900.46	226.37
900.76	226.41
901.07	226.51
901.38	226.41
901.68	226.43
901.99	226.18
902.29	226.27
902.60	226.14
902.90	226.06
903.21	225.98
903.51	225.91
903.82	225.99
904.12	225.98
904.43	226.01
904.73	225.97
905.03	225.98
905.34	226.46
905.64	226.48
905.95	226.54
906.25	226.54
906.56	226.61
906.86	226.62
907.17	226.60
907.47	226.56
907.77	226.62
908.08	226.52
908.38	226.62
908.69	226.66
908.99	226.78
909.30	226.82
909.60	226.93
909.90	226.94
910.21	226.86
910.51	226.76
910.81	226.78
911.12	226.85
911.42	226.88
911.73	226.32
912.03	226.41
912.33	226.58
912.64	226.58
912.94	226.53
913.24	226.53
913.55	226.49
913.85	226.46
914.15	226.51
914.46	226.64
914.76	226.59
915.06	226.58
915.37	226.48
915.67	226.39
915.97	226.38
916.27	226.30
916.58	226.32
916.88	226.32
917.18	226.30
917.49	226.58
917.79	226.57
918.09	226.70
918.39	226.80
918.70	226.71
919.00	226.72
919.30	226.96
919.60	226.85
919.91	226.83
920.21	226.91
920.51	226.80
920.81	226.71
921.12	226.84
921.42	226.84
921.72	226.98
922.02	227.12
922.32	227.22
922.63	227.27
922.93	227.45
923.23	227.51
923.53	227.48
923.83	227.14
924.13	227.17
924.44	227.17
924.74	227.24
925.04	227.35
925.34	227.40
925.64	227.14
925.94	227.15
926.24	227.38
926.55	227.35
926.85	227.38
927.15	227.41
927.45	227.29
927.75	227.26
928.05	227.16
928.35	227.07
928.65	227.09
928.95	227.10
929.26	227.00
929.56	226.99
929.86	227.04
930.16	227.05
930.46	227.01
930.76	227.01
931.06	226.71
931.36	226.55
931.66	226.62
931.96	226.74
932.26	226.86
932.56	226.70
932.86	226.70
933.16	226.75
933.46	226.70
933.76	226.64
934.06	226.73
934.36	226.97
934.66	226.97
934.96	226.95
935.26	227.02
935.56	227.08
935.86	227.02
936.16	226.91
936.46	226.87
936.76	226.82
937.06	226.74
937.36	226.74
937.66	226.84
937.96	226.73
938.26	226.58
938.56	226.52
938.86	226.53
939.16	226.61
939.46	226.60
939.76	226.65
940.06	226.63
940.35	226.47
940.65	226.20
940.95	226.22
941.25	226.00
941.55	225.87
941.85	225.88
942.15	225.98
942.45	226.16
942.75	226.12
943.04	226.15
943.34	226.25
943.64	226.31
943.94	226.18
944.24	226.23
944.54	226.24
944.84	226.21
945.13	226.16
945.43	226.12
945.73	226.12
946.03	226.15
946.33	226.11
946.62	226.14
946.92	226.13
947.22	226.17
947.52	226.28
947.82	226.38
948.11	226.24
948.41	226.13
948.71	225.93
949.01	226.01
949.31	226.00
949.60	225.96
949.90	225.96
950.20	225.95
950.50	226.02
950.79	226.01
951.09	226.12
951.39	226.15
951.69	226.08
951.98	226.16
952.28	226.17
952.58	226.17
952.87	226.19
953.17	226.27
953.47	226.24
953.76	226.21
954.06	226.07
954.36	225.96
954.66	225.96
954.95	226.10
955.25	226.13
955.55	226.19
955.84	226.12
956.14	226.22
956.44	226.28
956.73	226.15
957.03	226.26
957.32	226.17
957.62	226.10
957.92	226.21
958.21	226.15
958.51	226.65
958.81	226.77
959.10	226.76
959.40	226.87
959.69	226.92
959.99	226.98
960.29	227.06
960.58	227.12
960.88	227.42
961.17	227.40
961.47	227.42
961.76	227.37
962.06	227.51
962.36	227.46
962.65	227.44
962.95	227.48
963.24	227.44
963.54	227.49
963.83	227.51
964.13	227.41
964.42	227.29
964.72	226.92
965.01	226.92
965.31	226.93
965.60	226.74
965.90	227.02
966.19	226.95
966.49	227.00
966.78	227.05
967.08	226.91
967.37	226.87
967.67	226.80
967.96	226.83
968.26	226.71
968.55	226.75
968.85	226.76
969.14	226.76
969.43	226.69
969.73	226.67
970.02	226.69
970.32	226.65
970.61	226.66
970.91	226.51
971.20	226.40
971.49	226.31
971.79	226.44
972.08	226.07
972.38	226.11
972.67	226.00
972.96	225.98
973.26	225.92
973.55	226.01
973.85	225.93
974.14	225.92
974.43	226.00
974.73	225.91
975.02	225.84
975.31	225.91
975.61	225.90
975.90	225.83
976.19	225.75
976.49	225.85
976.78	225.92
977.07	225.89
977.37	225.90
977.66	226.01
977.95	225.88
978.24	225.95
978.54	226.06
978.83	226.08
979.12	226.07
979.42	226.00
979.71	225.98
980.00	226.03
980.29	226.03
980.59	225.94
980.88	226.05
981.17	226.11
981.46	225.99
981.76	226.02
982.05	226.20
982.34	226.28
982.63	226.23
982.93	226.12
983.22	226.29
983.51	226.39
983.80	226.42
984.09	226.50
984.39	226.44
984.68	226.35
984.97	226.37
985.26	226.31
985.55	226.40
985.85	226.24
986.14	226.30
986.43	226.33
986.72	226.28
987.01	226.15
987.30	226.16
987.59	226.12
987.89	226.14
988.18	225.91
988.47	225.78
988.76	225.75
989.05	225.77
989.34	225.67
989.63	225.78
989.92	225.75
990.22	225.73
990.51	225.76
990.80	225.77
991.09	225.82
991.38	225.90
991.67	225.84
991.96	225.89
992.25	225.87
992.54	225.78
992.83	225.83
993.12	225.79
993.41	225.81
993.70	226.09
993.99	226.18
994.28	226.27
994.58	226.46
994.87	226.41
995.16	226.41
995.45	226.40
995.74	226.14
996.03	226.21
996.32	226.23
996.61	226.29
996.90	226.22
997.19	226.17
997.48	226.18
997.77	226.16
998.06	226.14
998.34	226.11
998.63	226.18
998.92	226.20
999.21	226.32
999.50	226.34
999.79	226.13
1000.08	226.11
1000.37	226.14
1000.66	226.14
1000.95	226.27
1001.24	226.27
1001.53	226.31
1001.82	226.37
1002.11	226.25
1002.40	226.32
1002.68	226.45
1002.97	226.78
1003.26	226.77
1003.55	226.67
1003.84	226.72
1004.13	226.91
1004.42	226.94
1004.71	226.93
1004.99	226.90
1005.28	226.99
1005.57	226.90
1005.86	226.83
1006.15	226.86
1006.44	226.84
1006.72	226.85
1007.01	226.81
1007.30	226.80
1007.59	226.75
1007.88	226.73
1008.17	226.69
1008.45	226.60
1008.74	226.37
1009.03	226.15
1009.32	226.21
1009.60	226.23
1009.89	226.19
1010.18	226.05
1010.47	226.04
1010.76	226.01
1011.04	226.00
1011.33	226.03
1011.62	226.11
1011.91	226.19
1012.19	226.17
1012.48	226.17
1012.77	226.13
1013.05	226.30
1013.34	226.34
1013.63	226.30
1013.92	226.33
1014.20	226.33
1014.49	226.40
1014.78	226.47
1015.06	226.35
1015.35	226.21
1015.64	226.30
1015.92	226.33
1016.21	226.28
1016.50	226.27
1016.78	226.29
1017.07	226.30
1017.36	226.21
1017.64	226.14
1017.93	226.20
1018.22	226.09
1018.50	226.07
1018.79	226.04
1019.08	225.81
1019.36	225.83
1019.65	225.82
1019.93	225.91
1020.22	226.02
1020.51	226.24
1020.79	226.17
1021.08	224.65
1021.36	225.40
1021.65	226.00
1021.94	225.35
1022.22	226.00
1022.51	225.15
1022.79	227.45
1023.08	227.05
1023.36	232.45
1023.65	224.95
>>>>>End Processed Spectral Data<<<<<
