SpectraSuite Data File
++++++++++++++++++++++++++++++++++++
Date: Wed Sep 04 17:40:48 EDT 2013
User: lab3
Dark Spectrum Present: Yes
Reference Spectrum Present: No
Number of Sampled Component Spectra: 1
Spectrometers: USB2E7196
Integration Time (usec): 170000 (USB2E7196)
Spectra Averaged: 20 (USB2E7196)
Boxcar Smoothing: 10 (USB2E7196)
Correct for Electrical Dark: No (USB2E7196)
Strobe/Lamp Enabled: No (USB2E7196)
Correct for Detector Non-linearity: No (USB2E7196)
Correct for Stray Light: No (USB2E7196)
Number of Pixels in Processed Spectrum: 2048
>>>>>Begin Processed Spectral Data<<<<<
339.09	0.00
339.48	211.80
339.86	214.75
340.24	215.85
340.63	216.75
341.01	225.05
341.39	218.25
341.78	222.10
342.16	224.10
342.54	222.20
342.93	211.79
343.31	222.43
343.69	223.02
344.07	223.44
344.46	223.91
344.84	224.33
345.22	224.38
345.60	224.75
345.99	224.90
346.37	224.97
346.75	225.12
347.13	225.17
347.52	225.28
347.90	225.48
348.28	225.54
348.66	225.73
349.05	225.64
349.43	225.68
349.81	225.74
350.19	225.80
350.57	225.81
350.96	225.90
351.34	226.06
351.72	226.07
352.10	226.19
352.48	226.20
352.87	226.27
353.25	226.23
353.63	226.20
354.01	226.21
354.39	226.23
354.77	226.30
355.15	226.50
355.54	226.40
355.92	226.29
356.30	226.29
356.68	226.68
357.06	226.73
357.44	226.71
357.82	226.66
358.20	227.14
358.58	227.17
358.97	227.27
359.35	227.40
359.73	227.62
360.11	227.62
360.49	227.69
360.87	227.73
361.25	227.89
361.63	228.15
362.01	228.25
362.39	228.34
362.77	228.34
363.15	228.42
363.53	228.58
363.91	228.66
364.29	228.80
364.67	228.35
365.05	228.36
365.43	228.52
365.81	228.69
366.19	228.53
366.57	228.76
366.95	228.69
367.33	228.52
367.71	228.48
368.09	228.65
368.47	228.63
368.85	228.62
369.23	228.67
369.61	228.43
369.99	228.58
370.37	228.63
370.75	228.90
371.13	228.73
371.51	228.63
371.89	228.61
372.27	228.55
372.65	228.58
373.03	228.58
373.41	228.52
373.78	228.37
374.16	228.09
374.54	227.93
374.92	227.91
375.30	227.93
375.68	227.81
376.06	227.79
376.44	227.62
376.82	227.48
377.19	227.37
377.57	227.32
377.95	227.12
378.33	227.00
378.71	226.67
379.09	226.61
379.47	226.59
379.84	226.54
380.22	226.48
380.60	226.29
380.98	226.24
381.36	226.16
381.73	226.06
382.11	226.08
382.49	225.96
382.87	225.79
383.25	225.75
383.62	226.27
384.00	226.07
384.38	226.08
384.76	226.22
385.13	226.34
385.51	226.29
385.89	226.21
386.27	226.13
386.64	226.15
387.02	226.10
387.40	225.99
387.78	225.95
388.15	225.87
388.53	225.79
388.91	225.69
389.29	225.58
389.66	225.66
390.04	225.54
390.42	225.66
390.79	225.70
391.17	225.63
391.55	225.02
391.92	224.95
392.30	225.01
392.68	224.86
393.05	224.85
393.43	224.87
393.81	224.87
394.18	224.84
394.56	224.78
394.94	224.88
395.31	224.80
395.69	224.94
396.06	225.08
396.44	225.16
396.82	225.26
397.19	225.57
397.57	225.49
397.95	225.65
398.32	225.54
398.70	225.69
399.07	225.88
399.45	225.93
399.82	226.05
400.20	226.12
400.58	226.23
400.95	226.10
401.33	226.31
401.70	226.75
402.08	226.87
402.45	227.03
402.83	227.22
403.20	227.46
403.58	227.57
403.95	227.75
404.33	227.97
404.71	228.12
405.08	228.51
405.46	228.75
405.83	229.00
406.21	229.19
406.58	229.43
406.96	229.62
407.33	229.99
407.70	230.34
408.08	230.96
408.45	231.38
408.83	231.86
409.20	232.18
409.58	232.28
409.95	232.78
410.33	233.25
410.70	233.55
411.08	234.16
411.45	234.62
411.82	235.09
412.20	235.80
412.57	236.61
412.95	236.85
413.32	237.67
413.69	238.31
414.07	239.10
414.44	239.88
414.82	240.71
415.19	241.73
415.56	242.71
415.94	243.49
416.31	244.64
416.68	245.72
417.06	247.07
417.43	248.48
417.81	249.95
418.18	251.45
418.55	253.05
418.93	254.63
419.30	256.36
419.67	258.27
420.04	260.08
420.42	262.04
420.79	264.72
421.16	266.91
421.54	269.57
421.91	272.07
422.28	274.69
422.66	277.49
423.03	280.40
423.40	283.20
423.77	286.19
424.15	289.06
424.52	292.25
424.89	295.68
425.26	298.84
425.64	302.01
426.01	305.47
426.38	309.21
426.75	313.09
427.13	316.90
427.50	320.83
427.87	324.99
428.24	329.00
428.61	332.61
428.99	337.04
429.36	341.46
429.73	345.90
430.10	350.47
430.47	355.19
430.85	359.65
431.22	364.84
431.59	370.62
431.96	375.91
432.33	381.68
432.70	387.20
433.08	393.87
433.45	400.10
433.82	406.22
434.19	412.94
434.56	419.55
434.93	425.86
435.30	432.30
435.68	439.40
436.05	446.40
436.42	453.31
436.79	459.65
437.16	466.68
437.53	474.13
437.90	481.20
438.27	488.25
438.64	495.70
439.01	502.59
439.38	508.45
439.75	514.57
440.13	521.24
440.50	527.57
440.87	532.60
441.24	537.79
441.61	543.64
441.98	548.00
442.35	552.95
442.72	558.15
443.09	563.12
443.46	565.95
443.83	567.93
444.20	569.69
444.57	572.05
444.94	572.98
445.31	573.94
445.68	575.52
446.05	575.75
446.42	574.85
446.79	573.70
447.16	572.42
447.53	571.46
447.90	568.55
448.27	565.52
448.64	561.51
449.01	558.58
449.37	553.50
449.74	548.49
450.11	542.93
450.48	536.45
450.85	529.77
451.22	524.15
451.59	518.68
451.96	513.47
452.33	506.84
452.70	500.67
453.07	493.49
453.43	485.70
453.80	478.78
454.17	472.09
454.54	465.74
454.91	458.92
455.28	452.06
455.65	445.84
456.02	440.33
456.38	435.09
456.75	428.65
457.12	423.32
457.49	418.19
457.86	412.82
458.23	408.65
458.59	404.02
458.96	399.32
459.33	395.10
459.70	390.83
460.07	387.50
460.43	383.67
460.80	380.17
461.17	377.17
461.54	373.92
461.91	370.79
462.27	367.50
462.64	364.84
463.01	361.95
463.38	359.28
463.74	355.91
464.11	353.36
464.48	351.27
464.85	348.88
465.21	347.14
465.58	345.30
465.95	342.88
466.32	341.00
466.68	339.06
467.05	337.31
467.42	335.57
467.78	333.57
468.15	331.72
468.52	330.41
468.88	328.54
469.25	326.94
469.62	325.74
469.98	324.55
470.35	323.32
470.72	322.19
471.08	320.70
471.45	319.56
471.82	318.59
472.18	317.26
472.55	316.59
472.92	315.38
473.28	314.48
473.65	313.67
474.02	312.80
474.38	312.14
474.75	311.59
475.11	310.87
475.48	310.36
475.85	310.03
476.21	309.52
476.58	309.19
476.94	309.02
477.31	308.57
477.67	308.22
478.04	308.05
478.41	307.90
478.77	308.29
479.14	308.10
479.50	308.16
479.87	308.30
480.23	308.23
480.60	308.25
480.96	308.30
481.33	308.64
481.69	308.90
482.06	309.18
482.42	309.42
482.79	309.87
483.15	310.39
483.52	310.97
483.88	311.49
484.25	312.06
484.61	312.59
484.98	313.34
485.34	314.29
485.71	315.16
486.07	316.01
486.44	316.58
486.80	317.65
487.17	318.64
487.53	319.94
487.90	321.18
488.26	322.76
488.62	324.38
488.99	325.74
489.35	327.35
489.72	329.06
490.08	330.85
490.44	332.64
490.81	334.69
491.17	336.71
491.54	339.03
491.90	341.32
492.26	343.76
492.63	346.43
492.99	348.98
493.36	351.78
493.72	354.85
494.08	357.95
494.45	361.30
494.81	364.89
495.17	368.40
495.54	372.34
495.90	376.17
496.26	380.10
496.63	384.21
496.99	388.53
497.35	393.05
497.72	397.86
498.08	402.72
498.44	407.82
498.80	413.19
499.17	418.56
499.53	424.14
499.89	430.06
500.26	436.15
500.62	442.36
500.98	448.95
501.34	455.67
501.71	462.63
502.07	469.62
502.43	476.75
502.79	484.18
503.16	491.90
503.52	499.84
503.88	508.02
504.24	516.51
504.60	525.43
504.97	534.51
505.33	543.61
505.69	553.44
506.05	563.05
506.41	572.79
506.78	582.93
507.14	593.17
507.50	603.93
507.86	614.87
508.22	626.21
508.59	637.28
508.95	648.82
509.31	661.03
509.67	673.15
510.03	685.38
510.39	697.90
510.75	710.61
511.12	723.41
511.48	736.63
511.84	750.10
512.20	763.24
512.56	776.68
512.92	790.60
513.28	804.55
513.64	818.76
514.00	833.45
514.37	848.14
514.73	863.25
515.09	878.27
515.45	893.46
515.81	908.56
516.17	924.10
516.53	939.50
516.89	954.47
517.25	970.29
517.61	986.58
517.97	1002.97
518.33	1019.05
518.69	1035.53
519.05	1052.02
519.41	1068.57
519.77	1085.78
520.13	1102.70
520.49	1119.24
520.85	1137.26
521.21	1154.01
521.57	1170.55
521.93	1186.92
522.29	1203.58
522.65	1219.54
523.01	1235.80
523.37	1251.80
523.73	1268.08
524.09	1284.27
524.45	1300.18
524.81	1316.21
525.17	1332.08
525.53	1347.67
525.89	1363.62
526.25	1379.24
526.61	1394.69
526.97	1410.62
527.33	1426.26
527.68	1442.50
528.04	1458.46
528.40	1472.41
528.76	1488.38
529.12	1503.66
529.48	1518.98
529.84	1533.62
530.20	1549.30
530.56	1564.28
530.91	1579.42
531.27	1593.94
531.63	1608.30
531.99	1623.28
532.35	1637.36
532.71	1651.41
533.07	1666.18
533.42	1679.85
533.78	1693.65
534.14	1707.69
534.50	1720.77
534.86	1734.04
535.21	1746.03
535.57	1758.43
535.93	1770.42
536.29	1782.07
536.65	1794.27
537.00	1805.90
537.36	1817.43
537.72	1828.04
538.08	1839.06
538.44	1849.95
538.79	1860.76
539.15	1871.17
539.51	1880.90
539.87	1890.45
540.22	1898.96
540.58	1907.40
540.94	1915.54
541.29	1923.23
541.65	1930.38
542.01	1937.52
542.37	1942.98
542.72	1948.71
543.08	1954.41
543.44	1961.11
543.79	1966.15
544.15	1971.00
544.51	1976.30
544.87	1981.40
545.22	1985.30
545.58	1988.77
545.94	1991.32
546.29	1993.44
546.65	1995.85
547.01	1997.74
547.36	1999.53
547.72	2001.31
548.07	2001.91
548.43	2003.05
548.79	2003.62
549.14	2003.76
549.50	2004.15
549.86	2004.85
550.21	2005.20
550.57	2005.26
550.92	2003.58
551.28	2002.01
551.64	2001.56
551.99	2000.19
552.35	1998.55
552.70	1997.93
553.06	1996.67
553.41	1995.62
553.77	1994.80
554.13	1993.93
554.48	1992.66
554.84	1991.18
555.19	1989.70
555.55	1988.64
555.90	1986.06
556.26	1983.77
556.61	1980.51
556.97	1976.83
557.32	1973.95
557.68	1970.99
558.03	1967.94
558.39	1964.99
558.74	1962.38
559.10	1957.92
559.45	1953.57
559.81	1948.47
560.16	1942.86
560.52	1937.24
560.87	1932.21
561.23	1926.28
561.58	1920.05
561.94	1913.34
562.29	1906.24
562.64	1899.74
563.00	1891.98
563.35	1885.41
563.71	1878.54
564.06	1872.33
564.42	1865.91
564.77	1859.53
565.12	1852.36
565.48	1845.53
565.83	1838.21
566.19	1830.88
566.54	1823.78
566.89	1816.65
567.25	1809.97
567.60	1803.38
567.96	1796.92
568.31	1789.69
568.66	1782.31
569.02	1774.57
569.37	1767.59
569.72	1761.05
570.08	1753.22
570.43	1745.40
570.78	1738.05
571.14	1730.51
571.49	1722.35
571.84	1714.82
572.20	1705.96
572.55	1697.92
572.90	1688.88
573.26	1680.64
573.61	1672.04
573.96	1663.08
574.31	1653.46
574.67	1644.16
575.02	1634.19
575.37	1624.21
575.72	1614.13
576.08	1604.95
576.43	1595.55
576.78	1585.61
577.13	1575.25
577.49	1565.51
577.84	1556.65
578.19	1547.65
578.54	1538.09
578.90	1529.29
579.25	1519.82
579.60	1510.53
579.95	1500.74
580.30	1491.02
580.66	1481.03
581.01	1471.06
581.36	1460.89
581.71	1451.28
582.06	1441.94
582.42	1432.90
582.77	1423.79
583.12	1415.12
583.47	1405.94
583.82	1397.14
584.17	1388.34
584.53	1379.98
584.88	1370.41
585.23	1360.85
585.58	1350.51
585.93	1340.99
586.28	1331.18
586.63	1321.30
586.98	1311.12
587.34	1301.71
587.69	1292.32
588.04	1283.57
588.39	1274.85
588.74	1266.10
589.09	1258.09
589.44	1248.88
589.79	1240.07
590.14	1231.55
590.49	1222.75
590.84	1213.99
591.19	1205.32
591.54	1196.55
591.89	1187.68
592.25	1180.81
592.60	1172.65
592.95	1164.61
593.30	1156.30
593.65	1148.13
594.00	1139.72
594.35	1133.38
594.70	1125.39
595.05	1117.13
595.40	1108.66
595.75	1100.53
596.10	1092.86
596.45	1084.68
596.80	1077.15
597.15	1069.38
597.50	1061.26
597.85	1053.60
598.19	1045.72
598.54	1037.66
598.89	1029.94
599.24	1022.84
599.59	1014.76
599.94	1007.35
600.29	1000.22
600.64	993.16
600.99	985.95
601.34	979.23
601.69	971.05
602.04	964.34
602.39	957.97
602.74	951.73
603.08	945.21
603.43	938.86
603.78	932.21
604.13	925.75
604.48	919.21
604.83	912.76
605.18	906.07
605.53	899.64
605.87	893.54
606.22	888.12
606.57	881.89
606.92	875.64
607.27	869.74
607.62	863.82
607.96	858.31
608.31	852.83
608.66	847.18
609.01	841.61
609.36	835.84
609.70	830.12
610.05	824.29
610.40	818.61
610.75	812.83
611.10	807.33
611.44	801.51
611.79	796.08
612.14	790.77
612.49	785.37
612.83	780.45
613.18	775.20
613.53	769.75
613.88	764.48
614.22	759.23
614.57	753.87
614.92	748.58
615.27	743.49
615.61	738.13
615.96	733.00
616.31	727.88
616.65	723.15
617.00	718.09
617.35	713.16
617.70	708.30
618.04	703.33
618.39	698.55
618.74	694.13
619.08	689.33
619.43	684.70
619.78	679.94
620.12	674.96
620.47	670.30
620.82	665.39
621.16	660.72
621.51	656.35
621.85	652.09
622.20	647.70
622.55	642.95
622.89	638.62
623.24	634.38
623.59	630.01
623.93	625.65
624.28	621.64
624.62	617.95
624.97	614.05
625.32	610.25
625.66	606.24
626.01	602.06
626.35	598.38
626.70	594.49
627.04	591.18
627.39	587.55
627.73	583.98
628.08	580.45
628.43	576.65
628.77	572.96
629.12	569.21
629.46	566.00
629.81	562.92
630.15	559.70
630.50	556.37
630.84	553.11
631.19	549.82
631.53	546.44
631.88	542.89
632.22	539.61
632.57	536.45
632.91	533.40
633.26	530.45
633.60	527.33
633.95	524.13
634.29	520.72
634.64	517.73
634.98	514.49
635.32	511.58
635.67	508.91
636.01	506.07
636.36	503.25
636.70	500.40
637.05	497.43
637.39	494.68
637.73	491.90
638.08	489.30
638.42	486.48
638.77	483.81
639.11	480.83
639.45	477.96
639.80	475.13
640.14	472.31
640.49	469.56
640.83	467.05
641.17	464.65
641.52	462.17
641.86	459.69
642.20	457.55
642.55	455.02
642.89	452.49
643.23	450.03
643.58	447.88
643.92	445.25
644.26	442.79
644.61	440.42
644.95	438.11
645.29	435.70
645.64	433.55
645.98	431.27
646.32	429.27
646.66	426.95
647.01	424.76
647.35	422.78
647.69	420.84
648.04	418.83
648.38	416.75
648.72	414.86
649.06	412.67
649.41	410.55
649.75	408.40
650.09	406.45
650.43	404.49
650.78	402.33
651.12	400.46
651.46	398.60
651.80	396.77
652.14	394.76
652.49	393.06
652.83	391.26
653.17	389.46
653.51	387.54
653.85	385.99
654.20	384.18
654.54	382.44
654.88	380.62
655.22	379.14
655.56	377.50
655.90	375.74
656.25	374.20
656.59	372.59
656.93	371.30
657.27	369.90
657.61	368.21
657.95	366.77
658.29	365.27
658.64	363.84
658.98	362.28
659.32	360.82
659.66	359.34
660.00	357.90
660.34	356.55
660.68	355.21
661.02	353.77
661.36	352.55
661.70	351.09
662.05	349.83
662.39	348.40
662.73	347.21
663.07	346.20
663.41	345.06
663.75	343.76
664.09	342.31
664.43	340.81
664.77	339.81
665.11	338.48
665.45	337.33
665.79	336.23
666.13	335.05
666.47	333.90
666.81	332.66
667.15	331.39
667.49	330.40
667.83	329.46
668.17	328.46
668.51	327.39
668.85	326.60
669.19	325.82
669.53	324.67
669.87	323.49
670.21	322.25
670.55	321.22
670.89	320.43
671.23	319.52
671.57	318.60
671.91	317.66
672.25	316.75
672.58	315.95
672.92	314.82
673.26	313.91
673.60	313.05
673.94	312.22
674.28	311.46
674.62	310.60
674.96	309.61
675.30	308.77
675.64	307.87
675.97	306.80
676.31	305.69
676.65	304.82
676.99	304.15
677.33	303.33
677.67	302.58
678.01	301.51
678.34	300.76
678.68	300.14
679.02	299.34
679.36	298.59
679.70	297.74
680.04	297.09
680.37	296.46
680.71	295.76
681.05	295.15
681.39	294.44
681.73	293.68
682.06	293.00
682.40	292.39
682.74	291.88
683.08	291.56
683.42	291.01
683.75	290.49
684.09	289.93
684.43	289.40
684.77	288.75
685.10	288.33
685.44	287.84
685.78	287.18
686.12	286.59
686.45	286.13
686.79	285.63
687.13	285.15
687.46	284.55
687.80	284.01
688.14	283.41
688.48	282.96
688.81	282.52
689.15	282.18
689.49	281.63
689.82	281.08
690.16	280.32
690.50	279.77
690.83	279.23
691.17	278.62
691.51	278.13
691.84	277.69
692.18	277.12
692.52	276.47
692.85	276.06
693.19	275.81
693.52	275.24
693.86	274.67
694.20	274.18
694.53	273.78
694.87	273.39
695.21	272.89
695.54	272.45
695.88	271.85
696.21	271.17
696.55	270.73
696.88	270.27
697.22	269.82
697.56	269.44
697.89	269.06
698.23	268.71
698.56	268.24
698.90	267.95
699.23	267.54
699.57	267.24
699.90	266.72
700.24	266.18
700.58	265.85
700.91	265.64
701.25	265.70
701.58	265.60
701.92	265.27
702.25	264.97
702.59	264.55
702.92	264.35
703.26	264.15
703.59	263.82
703.93	263.85
704.26	263.66
704.60	263.39
704.93	262.97
705.26	262.57
705.60	262.32
705.93	261.88
706.27	261.73
706.60	261.53
706.94	261.45
707.27	261.11
707.61	260.82
707.94	260.49
708.27	259.85
708.61	259.25
708.94	258.99
709.28	258.63
709.61	258.29
709.94	257.99
710.28	257.68
710.61	257.34
710.95	256.62
711.28	256.59
711.61	256.20
711.95	256.07
712.28	255.72
712.61	255.44
712.95	255.38
713.28	255.24
713.61	254.93
713.95	254.54
714.28	254.34
714.61	254.07
714.95	253.76
715.28	253.40
715.61	253.17
715.95	252.83
716.28	252.56
716.61	252.41
716.95	252.08
717.28	251.78
717.61	251.57
717.94	251.41
718.28	250.83
718.61	250.62
718.94	250.26
719.27	250.09
719.61	249.84
719.94	249.47
720.27	248.96
720.60	248.72
720.94	248.51
721.27	248.30
721.60	248.15
721.93	247.96
722.27	247.97
722.60	247.80
722.93	247.62
723.26	247.47
723.59	247.23
723.93	247.08
724.26	246.97
724.59	246.76
724.92	246.60
725.25	246.56
725.59	246.39
725.92	246.25
726.25	246.01
726.58	245.92
726.91	245.77
727.24	245.69
727.57	245.46
727.91	245.18
728.24	245.05
728.57	244.90
728.90	244.80
729.23	244.45
729.56	244.47
729.89	244.32
730.22	244.10
730.55	244.04
730.89	243.94
731.22	243.75
731.55	243.56
731.88	243.40
732.21	243.13
732.54	242.87
732.87	242.78
733.20	242.73
733.53	242.55
733.86	242.49
734.19	242.27
734.52	242.20
734.85	242.45
735.18	242.19
735.51	242.13
735.84	242.04
736.17	242.07
736.50	241.70
736.83	242.13
737.16	242.04
737.49	241.84
737.82	241.60
738.15	241.49
738.48	241.40
738.81	241.30
739.14	241.10
739.47	241.00
739.80	240.85
740.13	240.71
740.46	240.52
740.79	240.30
741.12	240.18
741.45	239.99
741.78	239.60
742.11	239.67
742.44	239.46
742.77	239.37
743.10	239.18
743.43	239.10
743.75	238.40
744.08	238.94
744.41	238.80
744.74	238.68
745.07	238.57
745.40	238.60
745.73	238.72
746.06	238.71
746.39	238.73
746.71	238.55
747.04	238.44
747.37	238.40
747.70	238.46
748.03	238.44
748.36	238.45
748.68	238.31
749.01	237.99
749.34	237.90
749.67	237.82
750.00	237.78
750.33	237.98
750.65	237.99
750.98	237.26
751.31	237.23
751.64	237.18
751.97	237.30
752.29	237.11
752.62	236.77
752.95	236.59
753.28	236.42
753.60	236.36
753.93	236.41
754.26	236.32
754.59	235.95
754.91	235.83
755.24	235.69
755.57	235.61
755.90	235.60
756.22	235.42
756.55	235.22
756.88	235.02
757.20	234.73
757.53	234.55
757.86	234.44
758.19	234.35
758.51	234.34
758.84	234.07
759.17	233.91
759.49	233.89
759.82	234.09
760.15	234.03
760.47	233.96
760.80	233.70
761.13	233.69
761.45	233.73
761.78	233.63
762.11	233.57
762.43	233.52
762.76	233.45
763.08	233.45
763.41	233.45
763.74	233.49
764.06	233.33
764.39	233.25
764.71	233.25
765.04	233.13
765.37	233.01
765.69	232.88
766.02	232.87
766.34	232.72
766.67	232.45
767.00	232.47
767.32	232.72
767.65	232.97
767.97	232.83
768.30	232.70
768.62	232.70
768.95	232.60
769.27	232.54
769.60	232.49
769.92	232.39
770.25	232.25
770.57	232.07
770.90	232.00
771.22	231.88
771.55	231.78
771.87	231.82
772.20	231.74
772.52	232.12
772.85	232.62
773.17	232.64
773.50	232.54
773.82	232.44
774.15	232.10
774.47	231.77
774.80	231.69
775.12	231.69
775.45	231.59
775.77	231.57
776.09	231.58
776.42	231.62
776.74	231.71
777.07	231.66
777.39	231.62
777.72	231.55
778.04	231.57
778.36	231.45
778.69	231.45
779.01	231.45
779.33	231.02
779.66	230.39
779.98	230.33
780.31	230.33
780.63	230.46
780.95	230.51
781.28	230.44
781.60	230.32
781.92	230.29
782.25	230.21
782.57	230.13
782.89	229.99
783.22	229.91
783.54	229.72
783.86	229.69
784.19	229.64
784.51	229.77
784.83	229.70
785.16	229.69
785.48	229.58
785.80	229.56
786.12	229.56
786.45	229.54
786.77	229.51
787.09	229.56
787.42	229.31
787.74	229.29
788.06	229.27
788.38	229.33
788.71	229.23
789.03	229.33
789.35	229.30
789.67	229.23
789.99	229.18
790.32	229.19
790.64	229.23
790.96	229.64
791.28	229.45
791.61	229.39
791.93	229.40
792.25	229.30
792.57	229.60
792.89	229.50
793.21	229.52
793.54	229.45
793.86	229.30
794.18	229.35
794.50	229.23
794.82	229.25
795.14	229.25
795.47	229.31
795.79	229.23
796.11	229.21
796.43	229.11
796.75	229.15
797.07	229.10
797.39	229.03
797.71	228.59
798.04	228.64
798.36	228.71
798.68	228.70
799.00	228.74
799.32	228.47
799.64	228.52
799.96	228.52
800.28	228.57
800.60	228.60
800.92	228.60
801.24	228.60
801.56	228.56
801.89	228.49
802.21	228.47
802.53	228.39
802.85	228.47
803.17	228.76
803.49	228.60
803.81	228.53
804.13	228.47
804.45	228.45
804.77	228.51
805.09	228.55
805.41	228.46
805.73	228.38
806.05	228.30
806.37	228.31
806.69	228.30
807.01	228.23
807.33	228.18
807.65	228.03
807.97	228.20
808.28	228.14
808.60	228.19
808.92	228.13
809.24	228.42
809.56	228.38
809.88	228.22
810.20	228.28
810.52	228.40
810.84	228.35
811.16	228.32
811.48	228.20
811.80	228.16
812.12	228.19
812.43	228.30
812.75	228.20
813.07	228.04
813.39	228.04
813.71	227.97
814.03	227.97
814.35	227.97
814.67	227.79
814.98	227.74
815.30	227.74
815.62	227.72
815.94	227.40
816.26	227.59
816.58	227.46
816.89	227.50
817.21	227.38
817.53	227.42
817.85	227.40
818.17	227.36
818.48	227.26
818.80	227.32
819.12	227.19
819.44	227.25
819.76	227.19
820.07	227.11
820.39	227.18
820.71	227.19
821.03	227.19
821.34	227.12
821.66	227.19
821.98	227.17
822.30	227.05
822.61	227.27
822.93	226.95
823.25	226.99
823.57	226.93
823.88	226.94
824.20	226.90
824.52	226.96
824.83	226.93
825.15	226.89
825.47	226.84
825.79	226.89
826.10	226.83
826.42	226.81
826.74	226.88
827.05	226.80
827.37	226.79
827.69	226.78
828.00	226.83
828.32	226.83
828.64	226.77
828.95	227.07
829.27	226.95
829.58	226.94
829.90	227.02
830.22	227.01
830.53	227.00
830.85	227.00
831.17	226.80
831.48	226.79
831.80	226.82
832.11	226.83
832.43	226.79
832.75	226.73
833.06	227.02
833.38	226.90
833.69	226.90
834.01	227.03
834.32	226.99
834.64	226.99
834.96	226.93
835.27	226.93
835.59	226.79
835.90	226.70
836.22	226.67
836.53	226.65
836.85	226.65
837.16	227.05
837.48	227.03
837.79	227.25
838.11	227.31
838.42	227.32
838.74	227.32
839.05	227.22
839.37	227.25
839.68	227.03
840.00	226.99
840.31	227.02
840.63	226.84
840.94	226.82
841.26	226.69
841.57	226.72
841.88	226.77
842.20	226.70
842.51	226.68
842.83	226.76
843.14	227.07
843.46	227.09
843.77	226.89
844.08	226.89
844.40	226.75
844.71	226.67
845.03	226.58
845.34	226.55
845.65	226.57
845.97	226.57
846.28	226.55
846.60	226.59
846.91	226.52
847.22	226.51
847.54	226.62
847.85	226.71
848.16	226.66
848.48	226.56
848.79	226.75
849.10	226.78
849.42	226.77
849.73	226.33
850.04	226.23
850.36	226.05
850.67	226.11
850.98	226.15
851.30	226.17
851.61	226.21
851.92	226.23
852.23	226.40
852.55	226.45
852.86	226.45
853.17	226.45
853.49	226.54
853.80	226.70
854.11	226.71
854.42	226.72
854.74	226.70
855.05	226.71
855.36	226.50
855.67	226.45
855.99	226.46
856.30	227.06
856.61	227.06
856.92	227.02
857.23	227.05
857.55	226.99
857.86	227.01
858.17	227.06
858.48	226.94
858.79	226.85
859.11	226.87
859.42	226.80
859.73	226.70
860.04	226.65
860.35	226.49
860.66	226.40
860.98	226.34
861.29	226.46
861.60	226.41
861.91	226.48
862.22	226.46
862.53	226.36
862.84	225.81
863.16	225.94
863.47	225.92
863.78	225.84
864.09	225.90
864.40	225.91
864.71	225.90
865.02	226.03
865.33	225.99
865.64	225.89
865.95	225.94
866.27	226.32
866.58	226.35
866.89	226.36
867.20	226.31
867.51	226.28
867.82	226.16
868.13	226.35
868.44	226.19
868.75	226.32
869.06	226.34
869.37	226.34
869.68	226.15
869.99	226.21
870.30	226.24
870.61	226.25
870.92	226.21
871.23	226.18
871.54	226.27
871.85	226.36
872.16	226.41
872.47	226.40
872.78	226.14
873.09	226.11
873.40	226.14
873.71	226.15
874.02	226.20
874.33	226.20
874.64	226.04
874.95	226.17
875.26	226.12
875.56	226.12
875.87	226.11
876.18	226.19
876.49	226.69
876.80	226.58
877.11	226.50
877.42	226.53
877.73	226.59
878.04	226.46
878.35	226.40
878.66	226.37
878.96	226.32
879.27	226.28
879.58	226.29
879.89	226.26
880.20	226.40
880.51	226.43
880.82	226.38
881.12	226.45
881.43	226.39
881.74	226.25
882.05	226.25
882.36	226.24
882.67	226.29
882.97	225.75
883.28	225.76
883.59	225.81
883.90	225.82
884.21	225.87
884.51	225.90
884.82	225.89
885.13	225.93
885.44	225.95
885.74	225.91
886.05	225.88
886.36	225.87
886.67	225.71
886.98	225.89
887.28	226.05
887.59	226.01
887.90	226.05
888.20	226.06
888.51	226.12
888.82	226.09
889.13	226.09
889.43	226.52
889.74	226.51
890.05	226.46
890.35	226.35
890.66	226.26
890.97	226.18
891.28	226.13
891.58	226.10
891.89	226.12
892.20	226.17
892.50	226.13
892.81	226.09
893.12	226.11
893.42	225.89
893.73	225.86
894.04	225.91
894.34	225.93
894.65	225.97
894.95	225.92
895.26	225.93
895.57	226.15
895.87	225.70
896.18	225.79
896.48	225.85
896.79	225.93
897.10	225.95
897.40	225.99
897.71	226.04
898.01	226.04
898.32	226.09
898.63	226.09
898.93	226.24
899.24	226.29
899.54	226.30
899.85	226.30
900.15	226.29
900.46	226.26
900.76	226.30
901.07	226.23
901.38	226.25
901.68	226.36
901.99	226.10
902.29	226.14
902.60	226.16
902.90	226.07
903.21	226.11
903.51	226.10
903.82	226.20
904.12	226.20
904.43	226.23
904.73	226.27
905.03	226.29
905.34	226.61
905.64	226.54
905.95	226.51
906.25	226.47
906.56	226.35
906.86	226.35
907.17	226.26
907.47	226.35
907.77	226.27
908.08	226.23
908.38	226.23
908.69	226.21
908.99	226.29
909.30	226.39
909.60	226.36
909.90	226.37
910.21	226.22
910.51	226.15
910.81	226.12
911.12	226.11
911.42	226.08
911.73	225.62
912.03	225.70
912.33	225.80
912.64	225.82
912.94	225.85
913.24	225.77
913.55	225.78
913.85	225.70
914.15	225.81
914.46	225.81
914.76	225.79
915.06	225.77
915.37	225.64
915.67	225.56
915.97	225.53
916.27	225.52
916.58	225.56
916.88	225.54
917.18	225.47
917.49	225.81
917.79	225.83
918.09	225.88
918.39	226.01
918.70	225.93
919.00	225.96
919.30	226.24
919.60	226.24
919.91	226.20
920.21	226.31
920.51	226.19
920.81	226.10
921.12	226.21
921.42	226.18
921.72	226.24
922.02	226.33
922.32	226.45
922.63	226.39
922.93	226.60
923.23	226.63
923.53	226.64
923.83	226.28
924.13	226.24
924.44	226.24
924.74	226.30
925.04	226.51
925.34	226.45
925.64	226.24
925.94	226.24
926.24	226.54
926.55	226.49
926.85	226.59
927.15	226.63
927.45	226.61
927.75	226.66
928.05	226.61
928.35	226.53
928.65	226.63
928.95	226.60
929.26	226.42
929.56	226.55
929.86	226.68
930.16	226.66
930.46	226.68
930.76	226.75
931.06	226.45
931.36	226.25
931.66	226.42
931.96	226.42
932.26	226.50
932.56	226.30
932.86	226.29
933.16	226.25
933.46	226.14
933.76	226.12
934.06	226.22
934.36	226.42
934.66	226.45
934.96	226.31
935.26	226.36
935.56	226.47
935.86	226.28
936.16	226.20
936.46	226.17
936.76	226.17
937.06	226.09
937.36	226.18
937.66	226.27
937.96	226.20
938.26	226.11
938.56	226.00
938.86	226.04
939.16	226.11
939.46	226.15
939.76	226.30
940.06	226.23
940.35	226.08
940.65	225.84
940.95	225.75
941.25	225.63
941.55	225.60
941.85	225.54
942.15	225.66
942.45	225.75
942.75	225.81
943.04	225.82
943.34	225.95
943.64	225.85
943.94	225.71
944.24	225.70
944.54	225.74
944.84	225.79
945.13	225.68
945.43	225.62
945.73	225.65
946.03	225.60
946.33	225.58
946.62	225.56
946.92	225.52
947.22	225.62
947.52	225.66
947.82	225.69
948.11	225.68
948.41	225.58
948.71	225.46
949.01	225.41
949.31	225.33
949.60	225.24
949.90	225.34
950.20	225.37
950.50	225.43
950.79	225.35
951.09	225.45
951.39	225.46
951.69	225.46
951.98	225.60
952.28	225.61
952.58	225.59
952.87	225.58
953.17	225.68
953.47	225.63
953.76	225.62
954.06	225.54
954.36	225.39
954.66	225.45
954.95	225.50
955.25	225.55
955.55	225.60
955.84	225.47
956.14	225.48
956.44	225.47
956.73	225.30
957.03	225.37
957.32	225.35
957.62	225.31
957.92	225.39
958.21	225.30
958.51	225.79
958.81	225.87
959.10	225.94
959.40	226.04
959.69	226.06
959.99	226.13
960.29	226.19
960.58	226.16
960.88	226.29
961.17	226.28
961.47	226.26
961.76	226.27
962.06	226.35
962.36	226.36
962.65	226.39
962.95	226.42
963.24	226.34
963.54	226.33
963.83	226.35
964.13	226.34
964.42	226.19
964.72	225.82
965.01	225.82
965.31	225.85
965.60	225.69
965.90	226.02
966.19	225.91
966.49	225.97
966.78	225.95
967.08	225.83
967.37	225.83
967.67	225.81
967.96	225.90
968.26	225.94
968.55	225.93
968.85	225.92
969.14	225.96
969.43	226.01
969.73	225.98
970.02	225.95
970.32	225.88
970.61	225.91
970.91	225.75
971.20	225.62
971.49	225.55
971.79	225.59
972.08	225.20
972.38	225.24
972.67	225.22
972.96	225.39
973.26	225.35
973.55	225.57
973.85	225.52
974.14	225.42
974.43	225.47
974.73	225.40
975.02	225.35
975.31	225.34
975.61	225.32
975.90	225.25
976.19	225.22
976.49	225.33
976.78	225.40
977.07	225.37
977.37	225.46
977.66	225.55
977.95	225.51
978.24	225.55
978.54	225.67
978.83	225.56
979.12	225.51
979.42	225.51
979.71	225.32
980.00	225.34
980.29	225.37
980.59	225.28
980.88	225.43
981.17	225.43
981.46	225.40
981.76	225.33
982.05	225.55
982.34	225.62
982.63	225.59
982.93	225.54
983.22	225.67
983.51	225.66
983.80	225.67
984.09	225.75
984.39	225.75
984.68	225.70
984.97	225.81
985.26	225.76
985.55	225.82
985.85	225.69
986.14	225.71
986.43	225.76
986.72	225.68
987.01	225.51
987.30	225.55
987.59	225.52
987.89	225.56
988.18	225.35
988.47	225.25
988.76	225.11
989.05	225.03
989.34	224.93
989.63	225.05
989.92	224.97
990.22	224.90
990.51	224.86
990.80	224.81
991.09	224.85
991.38	224.87
991.67	224.82
991.96	224.84
992.25	224.86
992.54	224.79
992.83	224.84
993.12	224.85
993.41	224.86
993.70	225.04
993.99	225.22
994.28	225.29
994.58	225.39
994.87	225.34
995.16	225.34
995.45	225.33
995.74	225.09
996.03	225.17
996.32	225.20
996.61	225.31
996.90	225.27
997.19	225.24
997.48	225.33
997.77	225.30
998.06	225.32
998.34	225.35
998.63	225.35
998.92	225.32
999.21	225.38
999.50	225.43
999.79	225.31
1000.08	225.27
1000.37	225.30
1000.66	225.25
1000.95	225.39
1001.24	225.49
1001.53	225.60
1001.82	225.62
1002.11	225.63
1002.40	225.66
1002.68	225.84
1002.97	226.18
1003.26	226.13
1003.55	225.97
1003.84	226.05
1004.13	226.24
1004.42	226.16
1004.71	226.15
1004.99	226.18
1005.28	226.33
1005.57	226.26
1005.86	226.19
1006.15	226.15
1006.44	226.01
1006.72	226.06
1007.01	226.06
1007.30	225.99
1007.59	225.93
1007.88	225.96
1008.17	225.95
1008.45	225.88
1008.74	225.70
1009.03	225.50
1009.32	225.55
1009.60	225.57
1009.89	225.53
1010.18	225.37
1010.47	225.33
1010.76	225.30
1011.04	225.32
1011.33	225.28
1011.62	225.33
1011.91	225.39
1012.19	225.35
1012.48	225.43
1012.77	225.55
1013.05	225.72
1013.34	225.72
1013.63	225.77
1013.92	225.81
1014.20	225.70
1014.49	225.73
1014.78	225.73
1015.06	225.55
1015.35	225.54
1015.64	225.57
1015.92	225.63
1016.21	225.63
1016.50	225.63
1016.78	225.78
1017.07	225.77
1017.36	225.64
1017.64	225.65
1017.93	225.65
1018.22	225.59
1018.50	225.50
1018.79	225.40
1019.08	225.18
1019.36	225.21
1019.65	225.09
1019.93	225.20
1020.22	225.34
1020.51	225.61
1020.79	225.55
1021.08	223.70
1021.36	223.80
1021.65	225.55
1021.94	225.20
1022.22	225.20
1022.51	224.55
1022.79	227.15
1023.08	227.05
1023.36	231.55
1023.65	224.55
>>>>>End Processed Spectral Data<<<<<
