SpectraSuite Data File
++++++++++++++++++++++++++++++++++++
Date: Wed Sep 04 17:56:52 EDT 2013
User: lab3
Dark Spectrum Present: Yes
Reference Spectrum Present: No
Number of Sampled Component Spectra: 1
Spectrometers: USB2E7196
Integration Time (usec): 170000 (USB2E7196)
Spectra Averaged: 20 (USB2E7196)
Boxcar Smoothing: 10 (USB2E7196)
Correct for Electrical Dark: No (USB2E7196)
Strobe/Lamp Enabled: No (USB2E7196)
Correct for Detector Non-linearity: No (USB2E7196)
Correct for Stray Light: No (USB2E7196)
Number of Pixels in Processed Spectrum: 2048
>>>>>Begin Processed Spectral Data<<<<<
339.09	0.00
339.48	213.15
339.86	214.05
340.24	215.70
340.63	216.95
341.01	225.70
341.39	220.50
341.78	222.10
342.16	223.95
342.54	222.05
342.93	212.30
343.31	223.00
343.69	223.54
344.07	224.08
344.46	224.55
344.84	225.03
345.22	225.03
345.60	225.31
345.99	225.45
346.37	225.52
346.75	225.70
347.13	225.69
347.52	225.79
347.90	226.04
348.28	226.08
348.66	226.22
349.05	226.16
349.43	226.30
349.81	226.44
350.19	226.45
350.57	226.57
350.96	226.67
351.34	226.73
351.72	226.85
352.10	226.90
352.48	226.95
352.87	226.96
353.25	227.03
353.63	227.01
354.01	227.12
354.39	227.24
354.77	227.24
355.15	227.50
355.54	227.43
355.92	227.30
356.30	227.29
356.68	227.64
357.06	227.65
357.44	227.58
357.82	227.51
358.20	228.01
358.58	228.07
358.97	228.12
359.35	228.34
359.73	228.47
360.11	228.51
360.49	228.58
360.87	228.62
361.25	228.71
361.63	228.98
362.01	228.99
362.39	229.00
362.77	229.16
363.15	229.12
363.53	229.20
363.91	229.25
364.29	229.36
364.67	228.89
365.05	228.99
365.43	229.13
365.81	229.20
366.19	229.06
366.57	229.25
366.95	229.28
367.33	229.13
367.71	229.08
368.09	229.22
368.47	229.31
368.85	229.31
369.23	229.38
369.61	229.16
369.99	229.43
370.37	229.51
370.75	229.70
371.13	229.62
371.51	229.52
371.89	229.59
372.27	229.48
372.65	229.55
373.03	229.46
373.41	229.38
373.78	229.30
374.16	229.00
374.54	228.82
374.92	228.79
375.30	228.79
375.68	228.74
376.06	228.72
376.44	228.54
376.82	228.48
377.19	228.38
377.57	228.38
377.95	228.05
378.33	227.89
378.71	227.50
379.09	227.50
379.47	227.52
379.84	227.35
380.22	227.33
380.60	227.14
380.98	227.07
381.36	226.93
381.73	226.83
382.11	226.86
382.49	226.84
382.87	226.67
383.25	226.65
383.62	227.07
384.00	226.85
384.38	226.79
384.76	226.85
385.13	226.97
385.51	226.92
385.89	226.84
386.27	226.88
386.64	226.92
387.02	226.84
387.40	226.74
387.78	226.74
388.15	226.72
388.53	226.70
388.91	226.70
389.29	226.65
389.66	226.73
390.04	226.66
390.42	226.74
390.79	226.81
391.17	226.73
391.55	226.20
391.92	226.26
392.30	226.32
392.68	226.20
393.05	226.16
393.43	226.13
393.81	226.16
394.18	226.05
394.56	226.09
394.94	226.18
395.31	226.18
395.69	226.38
396.06	226.46
396.44	226.57
396.82	226.53
397.19	226.85
397.57	226.90
397.95	226.96
398.32	226.86
398.70	226.95
399.07	227.12
399.45	227.12
399.82	227.17
400.20	227.30
400.58	227.40
400.95	227.32
401.33	227.45
401.70	227.94
402.08	228.12
402.45	228.19
402.83	228.43
403.20	228.62
403.58	228.66
403.95	228.99
404.33	229.21
404.71	229.45
405.08	229.84
405.46	229.98
405.83	230.21
406.21	230.56
406.58	230.85
406.96	231.15
407.33	231.53
407.70	231.90
408.08	232.59
408.45	233.09
408.83	233.64
409.20	234.06
409.58	234.24
409.95	234.75
410.33	235.37
410.70	235.78
411.08	236.47
411.45	237.12
411.82	237.59
412.20	238.42
412.57	239.38
412.95	239.73
413.32	240.68
413.69	241.60
414.07	242.47
414.44	243.46
414.82	244.43
415.19	245.66
415.56	246.78
415.94	247.78
416.31	249.20
416.68	250.55
417.06	252.18
417.43	253.88
417.81	255.64
418.18	257.42
418.55	259.37
418.93	261.37
419.30	263.40
419.67	265.61
420.04	267.78
420.42	270.14
420.79	273.21
421.16	275.90
421.54	278.82
421.91	281.77
422.28	284.80
422.66	288.10
423.03	291.57
423.40	294.99
423.77	298.48
424.15	302.14
424.52	305.95
424.89	310.13
425.26	314.04
425.64	317.90
426.01	322.05
426.38	326.37
426.75	330.86
427.13	335.57
427.50	340.36
427.87	345.34
428.24	350.35
428.61	354.94
428.99	360.36
429.36	365.97
429.73	371.50
430.10	377.03
430.47	382.70
430.85	388.40
431.22	394.70
431.59	401.53
431.96	407.70
432.33	414.67
432.70	421.34
433.08	429.22
433.45	436.65
433.82	444.06
434.19	452.41
434.56	460.50
434.93	468.09
435.30	475.96
435.68	484.53
436.05	492.98
436.42	501.31
436.79	508.97
437.16	517.37
437.53	526.16
437.90	534.98
438.27	543.61
438.64	552.52
439.01	560.70
439.38	567.84
439.75	574.97
440.13	582.95
440.50	590.55
440.87	596.73
441.24	603.09
441.61	610.17
441.98	615.25
442.35	621.02
442.72	627.23
443.09	632.98
443.46	636.42
443.83	638.65
444.20	640.58
444.57	643.29
444.94	644.35
445.31	645.56
445.68	646.81
446.05	647.06
446.42	645.77
446.79	644.47
447.16	642.94
447.53	641.62
447.90	637.94
448.27	634.22
448.64	629.28
449.01	625.63
449.37	619.37
449.74	613.31
450.11	606.51
450.48	598.54
450.85	590.53
451.22	583.62
451.59	576.97
451.96	570.64
452.33	562.48
452.70	555.10
453.07	546.37
453.43	537.26
453.80	528.74
454.17	520.59
454.54	512.78
454.91	504.57
455.28	496.66
455.65	489.14
456.02	482.36
456.38	475.99
456.75	468.13
457.12	461.60
457.49	455.19
457.86	448.85
458.23	443.65
458.59	437.93
458.96	432.20
459.33	427.20
459.70	422.11
460.07	418.00
460.43	413.19
460.80	408.94
461.17	405.29
461.54	401.26
461.91	397.55
462.27	393.76
462.64	390.41
463.01	386.85
463.38	383.65
463.74	379.55
464.11	376.51
464.48	373.91
464.85	371.09
465.21	369.10
465.58	366.67
465.95	363.89
466.32	361.64
466.68	359.39
467.05	357.12
467.42	354.93
467.78	352.63
468.15	350.54
468.52	348.84
468.88	346.53
469.25	344.63
469.62	343.16
469.98	341.44
470.35	339.94
470.72	338.45
471.08	336.73
471.45	335.54
471.82	334.26
472.18	332.83
472.55	331.88
472.92	330.51
473.28	329.46
473.65	328.50
474.02	327.50
474.38	326.61
474.75	325.90
475.11	325.02
475.48	324.31
475.85	323.67
476.21	323.00
476.58	322.52
476.94	322.23
477.31	321.70
477.67	321.31
478.04	321.00
478.41	320.84
478.77	321.11
479.14	320.75
479.50	320.58
479.87	320.62
480.23	320.54
480.60	320.49
480.96	320.57
481.33	320.90
481.69	321.03
482.06	321.35
482.42	321.57
482.79	321.96
483.15	322.48
483.52	323.16
483.88	323.75
484.25	324.30
484.61	324.84
484.98	325.54
485.34	326.48
485.71	327.51
486.07	328.43
486.44	329.08
486.80	330.22
487.17	331.41
487.53	332.75
487.90	334.23
488.26	335.76
488.62	337.30
488.99	338.68
489.35	340.37
489.72	342.21
490.08	344.11
490.44	346.00
490.81	348.12
491.17	350.28
491.54	352.65
491.90	355.29
492.26	357.88
492.63	360.71
492.99	363.37
493.36	366.42
493.72	369.70
494.08	373.06
494.45	376.71
494.81	380.50
495.17	384.32
495.54	388.37
495.90	392.73
496.26	397.31
496.63	402.07
496.99	406.87
497.35	411.91
497.72	417.29
498.08	422.75
498.44	428.48
498.80	434.56
499.17	440.68
499.53	446.92
499.89	453.65
500.26	460.43
500.62	467.57
500.98	474.92
501.34	482.38
501.71	490.15
502.07	497.98
502.43	506.14
502.79	514.48
503.16	523.24
503.52	532.22
503.88	541.45
504.24	551.13
504.60	561.30
504.97	571.58
505.33	582.00
505.69	593.24
506.05	604.24
506.41	615.44
506.78	627.07
507.14	639.21
507.50	651.61
507.86	664.23
508.22	677.24
508.59	690.21
508.95	703.85
509.31	717.85
509.67	732.21
510.03	746.52
510.39	761.42
510.75	776.45
511.12	791.57
511.48	807.12
511.84	822.91
512.20	838.88
512.56	855.07
512.92	871.88
513.28	888.69
513.64	905.94
514.00	923.32
514.37	941.29
514.73	959.32
515.09	977.51
515.45	995.84
515.81	1014.36
516.17	1033.39
516.53	1052.10
516.89	1071.08
517.25	1090.49
517.61	1110.84
517.97	1131.13
518.33	1151.22
518.69	1171.65
519.05	1192.25
519.41	1212.76
519.77	1233.75
520.13	1254.61
520.49	1275.35
520.85	1297.67
521.21	1318.84
521.57	1340.30
521.93	1361.16
522.29	1382.50
522.65	1403.51
523.01	1424.52
523.37	1445.12
523.73	1465.94
524.09	1486.54
524.45	1507.28
524.81	1527.93
525.17	1548.64
525.53	1569.10
525.89	1590.10
526.25	1610.60
526.61	1630.90
526.97	1652.10
527.33	1673.35
527.68	1695.02
528.04	1716.57
528.40	1736.04
528.76	1757.35
529.12	1777.61
529.48	1798.57
529.84	1818.41
530.20	1839.29
530.56	1860.15
530.91	1881.31
531.27	1901.71
531.63	1922.58
531.99	1943.04
532.35	1963.21
532.71	1983.29
533.07	2004.19
533.42	2023.90
533.78	2044.34
534.14	2064.48
534.50	2083.55
534.86	2102.84
535.21	2120.62
535.57	2138.81
535.93	2156.64
536.29	2174.22
536.65	2192.83
537.00	2210.42
537.36	2227.96
537.72	2244.73
538.08	2261.95
538.44	2278.49
538.79	2295.37
539.15	2311.63
539.51	2327.53
539.87	2342.90
540.22	2357.04
540.58	2371.20
540.94	2384.70
541.29	2397.39
541.65	2409.89
542.01	2422.68
542.37	2433.18
542.72	2444.32
543.08	2455.09
543.44	2466.80
543.79	2477.01
544.15	2486.61
544.51	2496.62
544.87	2506.23
545.22	2514.85
545.58	2522.59
545.94	2529.88
546.29	2536.35
546.65	2542.74
547.01	2548.65
547.36	2554.27
547.72	2559.96
548.07	2563.72
548.43	2568.96
548.79	2573.36
549.14	2577.43
549.50	2581.13
549.86	2585.37
550.21	2588.89
550.57	2592.24
550.92	2593.65
551.28	2595.01
551.64	2597.77
551.99	2599.38
552.35	2601.36
552.70	2603.70
553.06	2605.39
553.41	2606.53
553.77	2608.15
554.13	2610.05
554.48	2611.31
554.84	2612.82
555.19	2613.74
555.55	2615.40
555.90	2614.59
556.26	2613.94
556.61	2612.48
556.97	2610.09
557.32	2609.34
557.68	2608.30
558.03	2606.93
558.39	2605.89
558.74	2604.90
559.10	2601.45
559.45	2598.15
559.81	2593.66
560.16	2588.26
560.52	2583.51
560.87	2579.38
561.23	2574.02
561.58	2567.57
561.94	2560.64
562.29	2553.04
562.64	2546.41
563.00	2538.50
563.35	2532.01
563.71	2525.46
564.06	2519.30
564.42	2513.04
564.77	2505.87
565.12	2498.05
565.48	2490.20
565.83	2481.80
566.19	2473.94
566.54	2466.26
566.89	2458.15
567.25	2450.44
567.60	2443.45
567.96	2435.79
568.31	2427.65
568.66	2419.11
569.02	2410.35
569.37	2402.44
569.72	2395.04
570.08	2385.72
570.43	2376.11
570.78	2367.07
571.14	2357.69
571.49	2347.64
571.84	2338.00
572.20	2326.93
572.55	2317.24
572.90	2306.29
573.26	2296.20
573.61	2284.84
573.96	2273.46
574.31	2261.20
574.67	2249.40
575.02	2235.90
575.37	2223.11
575.72	2210.00
576.08	2197.61
576.43	2185.11
576.78	2171.49
577.13	2157.79
577.49	2144.93
577.84	2133.10
578.19	2121.07
578.54	2108.21
578.90	2096.15
579.25	2083.53
579.60	2071.47
579.95	2058.46
580.30	2045.49
580.66	2032.13
581.01	2018.83
581.36	2004.83
581.71	1992.38
582.06	1979.40
582.42	1967.46
582.77	1954.94
583.12	1942.94
583.47	1930.63
583.82	1918.62
584.17	1906.84
584.53	1894.80
584.88	1881.80
585.23	1868.76
585.58	1854.30
585.93	1841.35
586.28	1828.00
586.63	1814.23
586.98	1799.96
587.34	1786.67
587.69	1773.25
588.04	1760.67
588.39	1748.50
588.74	1736.22
589.09	1724.05
589.44	1711.22
589.79	1699.13
590.14	1687.17
590.49	1674.83
590.84	1662.65
591.19	1650.57
591.54	1638.29
591.89	1626.23
592.25	1615.86
592.60	1604.25
592.95	1592.90
593.30	1580.73
593.65	1568.70
594.00	1556.61
594.35	1546.78
594.70	1534.97
595.05	1523.52
595.40	1511.26
595.75	1499.22
596.10	1488.20
596.45	1476.56
596.80	1465.76
597.15	1454.01
597.50	1442.12
597.85	1430.83
598.19	1419.09
598.54	1407.46
598.89	1396.37
599.24	1385.72
599.59	1373.99
599.94	1363.11
600.29	1352.65
600.64	1342.42
600.99	1331.45
601.34	1322.03
601.69	1310.83
602.04	1300.80
602.39	1291.30
602.74	1282.23
603.08	1272.82
603.43	1263.31
603.78	1253.59
604.13	1243.72
604.48	1234.08
604.83	1224.40
605.18	1214.76
605.53	1205.42
605.87	1196.20
606.22	1187.53
606.57	1178.08
606.92	1168.78
607.27	1159.94
607.62	1151.15
607.96	1142.46
608.31	1134.62
608.66	1126.23
609.01	1117.60
609.36	1109.17
609.70	1100.31
610.05	1091.49
610.40	1083.06
610.75	1074.29
611.10	1065.98
611.44	1057.55
611.79	1049.59
612.14	1041.67
612.49	1033.55
612.83	1026.16
613.18	1018.43
613.53	1010.91
613.88	1002.95
614.22	995.22
614.57	987.20
614.92	979.37
615.27	971.71
615.61	964.06
615.96	956.37
616.31	948.66
616.65	941.75
617.00	934.45
617.35	927.35
617.70	920.13
618.04	913.11
618.39	906.34
618.74	899.85
619.08	892.73
619.43	885.64
619.78	878.58
620.12	871.27
620.47	864.40
620.82	857.13
621.16	850.40
621.51	844.17
621.85	837.86
622.20	831.28
622.55	824.63
622.89	818.15
623.24	811.60
623.59	805.50
623.93	799.06
624.28	793.10
624.62	787.34
624.97	781.54
625.32	775.68
625.66	769.47
626.01	763.40
626.35	757.91
626.70	752.33
627.04	747.13
627.39	741.76
627.73	736.38
628.08	730.99
628.43	725.56
628.77	720.01
629.12	714.64
629.46	709.87
629.81	705.24
630.15	700.45
630.50	695.73
630.84	690.70
631.19	685.86
631.53	681.14
631.88	675.91
632.22	670.94
632.57	666.49
632.91	661.86
633.26	657.56
633.60	652.90
633.95	648.22
634.29	643.31
634.64	638.70
634.98	633.85
635.32	629.59
635.67	625.55
636.01	621.43
636.36	616.99
636.70	612.92
637.05	608.62
637.39	604.47
637.73	600.26
638.08	596.36
638.42	592.03
638.77	587.75
639.11	583.49
639.45	579.22
639.80	574.76
640.14	570.65
640.49	566.55
640.83	562.63
641.17	558.97
641.52	555.29
641.86	551.74
642.20	548.59
642.55	544.84
642.89	541.19
643.23	537.58
643.58	534.57
643.92	530.80
644.26	527.44
644.61	524.24
644.95	520.88
645.29	517.49
645.64	514.37
645.98	511.29
646.32	508.34
646.66	505.29
647.01	502.30
647.35	499.42
647.69	496.40
648.04	493.62
648.38	490.77
648.72	487.85
649.06	484.77
649.41	481.59
649.75	478.66
650.09	475.69
650.43	472.76
650.78	469.64
651.12	466.91
651.46	464.08
651.80	461.13
652.14	458.42
652.49	455.88
652.83	453.36
653.17	450.66
653.51	447.96
653.85	445.58
654.20	443.16
654.54	440.76
654.88	438.25
655.22	436.00
655.56	433.54
655.90	431.22
656.25	428.97
656.59	426.84
656.93	424.72
657.27	422.78
657.61	420.43
657.95	418.33
658.29	416.13
658.64	414.06
658.98	411.85
659.32	409.70
659.66	407.50
660.00	405.32
660.34	403.29
660.68	401.17
661.02	399.08
661.36	397.13
661.70	395.01
662.05	393.14
662.39	391.15
662.73	389.31
663.07	387.75
663.41	385.96
663.75	384.01
664.09	382.09
664.43	380.02
664.77	378.36
665.11	376.61
665.45	374.96
665.79	373.23
666.13	371.61
666.47	369.86
666.81	368.14
667.15	366.36
667.49	365.02
667.83	363.83
668.17	362.31
668.51	360.76
668.85	359.46
669.19	358.25
669.53	356.66
669.87	355.20
670.21	353.68
670.55	352.25
670.89	351.08
671.23	349.75
671.57	348.38
671.91	347.04
672.25	345.72
672.58	344.45
672.92	342.96
673.26	341.64
673.60	340.49
673.94	339.35
674.28	338.34
674.62	337.03
674.96	335.58
675.30	334.42
675.64	333.26
675.97	331.99
676.31	330.59
676.65	329.43
676.99	328.45
677.33	327.16
677.67	326.10
678.01	324.92
678.34	323.85
678.68	322.96
679.02	321.83
679.36	320.81
679.70	319.74
680.04	318.94
680.37	317.90
680.71	316.90
681.05	315.96
681.39	314.98
681.73	314.00
682.06	313.08
682.40	312.21
682.74	311.33
683.08	310.64
683.42	309.69
683.75	308.94
684.09	307.91
684.43	307.18
684.77	306.28
685.10	305.41
685.44	304.67
685.78	303.87
686.12	303.06
686.45	302.24
686.79	301.35
687.13	300.65
687.46	299.98
687.80	299.37
688.14	298.58
688.48	297.80
688.81	297.00
689.15	296.44
689.49	295.69
689.82	295.03
690.16	294.16
690.50	293.56
690.83	292.76
691.17	292.03
691.51	291.36
691.84	290.68
692.18	289.96
692.52	289.20
692.85	288.60
693.19	288.23
693.52	287.63
693.86	287.07
694.20	286.36
694.53	285.80
694.87	285.07
695.21	284.49
695.54	283.90
695.88	283.32
696.21	282.54
696.55	281.91
696.88	281.30
697.22	280.68
697.56	280.10
697.89	279.60
698.23	279.13
698.56	278.57
698.90	278.17
699.23	277.63
699.57	277.19
699.90	276.53
700.24	275.88
700.58	275.43
700.91	275.02
701.25	274.98
701.58	274.78
701.92	274.45
702.25	273.95
702.59	273.43
702.92	273.00
703.26	272.68
703.59	272.32
703.93	272.36
704.26	272.06
704.60	271.69
704.93	271.16
705.26	270.65
705.60	270.31
705.93	269.82
706.27	269.65
706.60	269.36
706.94	269.25
707.27	268.81
707.61	268.49
707.94	268.09
708.27	267.32
708.61	266.64
708.94	266.22
709.28	265.89
709.61	265.57
709.94	265.26
710.28	264.85
710.61	264.48
710.95	263.61
711.28	263.55
711.61	263.23
711.95	263.05
712.28	262.76
712.61	262.42
712.95	262.43
713.28	262.12
713.61	261.64
713.95	261.15
714.28	260.93
714.61	260.49
714.95	260.11
715.28	259.70
715.61	259.32
715.95	259.06
716.28	258.73
716.61	258.50
716.95	258.14
717.28	257.84
717.61	257.46
717.94	257.20
718.28	256.52
718.61	256.16
718.94	255.79
719.27	255.54
719.61	255.27
719.94	254.81
720.27	254.40
720.60	254.18
720.94	253.94
721.27	253.69
721.60	253.64
721.93	253.42
722.27	253.40
722.60	253.26
722.93	252.94
723.26	252.78
723.59	252.48
723.93	252.28
724.26	252.10
724.59	251.91
724.92	251.72
725.25	251.64
725.59	251.41
725.92	251.27
726.25	251.04
726.58	250.86
726.91	250.54
727.24	250.37
727.57	250.19
727.91	249.89
728.24	249.75
728.57	249.48
728.90	249.34
729.23	249.00
729.56	249.05
729.89	248.82
730.22	248.54
730.55	248.33
730.89	248.16
731.22	247.98
731.55	247.77
731.88	247.57
732.21	247.29
732.54	247.07
732.87	246.86
733.20	246.68
733.53	246.58
733.86	246.54
734.19	246.30
734.52	246.22
734.85	246.40
735.18	246.09
735.51	245.96
735.84	245.86
736.17	245.84
736.50	245.41
736.83	245.79
737.16	245.65
737.49	245.51
737.82	245.40
738.15	245.26
738.48	245.16
738.81	244.98
739.14	244.85
739.47	244.66
739.80	244.52
740.13	244.41
740.46	244.06
740.79	243.75
741.12	243.56
741.45	243.38
741.78	242.91
742.11	242.98
742.44	242.77
742.77	242.64
743.10	242.33
743.43	242.14
743.75	241.49
744.08	242.00
744.41	241.87
744.74	241.64
745.07	241.39
745.40	241.34
745.73	241.39
746.06	241.26
746.39	241.23
746.71	241.04
747.04	240.91
747.37	240.79
747.70	240.76
748.03	240.72
748.36	240.60
748.68	240.51
749.01	240.21
749.34	240.05
749.67	239.88
750.00	239.91
750.33	240.12
750.65	240.05
750.98	239.28
751.31	239.15
751.64	239.06
751.97	239.27
752.29	239.07
752.62	238.79
752.95	238.65
753.28	238.49
753.60	238.42
753.93	238.36
754.26	238.39
754.59	238.14
754.91	237.96
755.24	237.82
755.57	237.75
755.90	237.60
756.22	237.48
756.55	237.30
756.88	237.04
757.20	236.65
757.53	236.36
757.86	236.29
758.19	236.19
758.51	236.08
758.84	235.73
759.17	235.66
759.49	235.52
759.82	235.72
760.15	235.72
760.47	235.61
760.80	235.40
761.13	235.33
761.45	235.21
761.78	235.18
762.11	235.09
762.43	234.97
762.76	234.92
763.08	234.86
763.41	234.83
763.74	234.79
764.06	234.73
764.39	234.81
764.71	234.80
765.04	234.74
765.37	234.70
765.69	234.65
766.02	234.53
766.34	234.43
766.67	234.08
767.00	234.04
767.32	234.19
767.65	234.48
767.97	234.35
768.30	234.40
768.62	234.30
768.95	234.16
769.27	234.05
769.60	234.00
769.92	233.81
770.25	233.69
770.57	233.52
770.90	233.43
771.22	233.28
771.55	233.18
771.87	233.14
772.20	233.02
772.52	233.36
772.85	233.92
773.17	233.86
773.50	233.81
773.82	233.69
774.15	233.40
774.47	233.03
774.80	232.92
775.12	232.80
775.45	232.72
775.77	232.71
776.09	232.70
776.42	232.69
776.74	232.90
777.07	232.81
777.39	232.82
777.72	232.77
778.04	232.81
778.36	232.73
778.69	232.67
779.01	232.67
779.33	232.21
779.66	231.54
779.98	231.49
780.31	231.44
780.63	231.57
780.95	231.59
781.28	231.54
781.60	231.46
781.92	231.47
782.25	231.42
782.57	231.36
782.89	231.29
783.22	231.27
783.54	231.10
783.86	231.17
784.19	231.06
784.51	231.11
784.83	230.97
785.16	230.91
785.48	230.87
785.80	230.84
786.12	230.86
786.45	230.85
786.77	230.88
787.09	230.82
787.42	230.60
787.74	230.63
788.06	230.67
788.38	230.66
788.71	230.54
789.03	230.52
789.35	230.51
789.67	230.36
789.99	230.35
790.32	230.25
790.64	230.23
790.96	230.59
791.28	230.43
791.61	230.44
791.93	230.42
792.25	230.36
792.57	230.70
792.89	230.56
793.21	230.54
793.54	230.47
793.86	230.40
794.18	230.44
794.50	230.35
794.82	230.30
795.14	230.34
795.47	230.45
795.79	230.47
796.11	230.40
796.43	230.43
796.75	230.34
797.07	230.34
797.39	230.29
797.71	230.00
798.04	229.98
798.36	229.90
798.68	229.85
799.00	229.94
799.32	229.69
799.64	229.81
799.96	229.79
800.28	229.88
800.60	229.87
800.92	229.87
801.24	229.77
801.56	229.73
801.89	229.71
802.21	229.66
802.53	229.57
802.85	229.64
803.17	229.85
803.49	229.77
803.81	229.70
804.13	229.65
804.45	229.62
804.77	229.57
805.09	229.63
805.41	229.58
805.73	229.32
806.05	229.06
806.37	228.93
806.69	228.89
807.01	228.74
807.33	228.75
807.65	228.58
807.97	228.81
808.28	228.77
808.60	228.74
808.92	228.65
809.24	228.91
809.56	228.83
809.88	228.64
810.20	228.69
810.52	228.82
810.84	228.81
811.16	228.70
811.48	228.75
811.80	228.84
812.12	228.95
812.43	229.12
812.75	229.25
813.07	229.17
813.39	229.18
813.71	229.18
814.03	229.15
814.35	229.13
814.67	228.91
814.98	228.84
815.30	228.79
815.62	228.75
815.94	228.42
816.26	228.59
816.58	228.45
816.89	228.43
817.21	228.33
817.53	228.24
817.85	228.25
818.17	228.21
818.48	227.95
818.80	227.97
819.12	227.87
819.44	227.75
819.76	227.79
820.07	227.84
820.39	227.84
820.71	227.87
821.03	227.90
821.34	227.85
821.66	227.94
821.98	227.97
822.30	227.92
822.61	228.27
822.93	228.04
823.25	228.13
823.57	228.15
823.88	228.18
824.20	228.24
824.52	228.36
824.83	228.35
825.15	228.37
825.47	228.28
825.79	228.34
826.10	228.25
826.42	228.21
826.74	228.17
827.05	228.21
827.37	228.20
827.69	228.21
828.00	228.21
828.32	228.14
828.64	228.06
828.95	228.44
829.27	228.18
829.58	228.18
829.90	228.25
830.22	228.19
830.53	228.08
830.85	228.06
831.17	227.91
831.48	227.91
831.80	227.93
832.11	227.94
832.43	227.85
832.75	227.93
833.06	228.15
833.38	228.01
833.69	227.98
834.01	227.94
834.32	227.92
834.64	227.84
834.96	227.96
835.27	227.94
835.59	227.68
835.90	227.66
836.22	227.65
836.53	227.51
836.85	227.44
837.16	227.90
837.48	227.88
837.79	227.95
838.11	228.04
838.42	228.05
838.74	228.10
839.05	228.11
839.37	228.10
839.68	227.83
840.00	227.90
840.31	227.91
840.63	227.93
840.94	227.80
841.26	227.81
841.57	227.70
841.88	227.76
842.20	227.61
842.51	227.55
842.83	227.55
843.14	227.93
843.46	228.02
843.77	227.71
844.08	227.69
844.40	227.63
844.71	227.55
845.03	227.47
845.34	227.41
845.65	227.43
845.97	227.41
846.28	227.46
846.60	227.51
846.91	227.53
847.22	227.48
847.54	227.64
847.85	227.65
848.16	227.63
848.48	227.56
848.79	227.80
849.10	227.86
849.42	227.81
849.73	227.39
850.04	227.32
850.36	227.20
850.67	227.30
850.98	227.30
851.30	227.34
851.61	227.36
851.92	227.28
852.23	227.33
852.55	227.37
852.86	227.47
853.17	227.44
853.49	227.39
853.80	227.47
854.11	227.45
854.42	227.50
854.74	227.49
855.05	227.42
855.36	227.15
855.67	227.09
855.99	227.16
856.30	227.80
856.61	227.81
856.92	227.82
857.23	227.76
857.55	227.71
857.86	227.63
858.17	227.72
858.48	227.70
858.79	227.60
859.11	227.62
859.42	227.50
859.73	227.43
860.04	227.40
860.35	227.29
860.66	227.15
860.98	227.15
861.29	227.23
861.60	227.31
861.91	227.48
862.22	227.45
862.53	227.35
862.84	226.79
863.16	226.91
863.47	226.77
863.78	226.75
864.09	226.79
864.40	226.88
864.71	226.78
865.02	226.86
865.33	226.87
865.64	226.81
865.95	226.78
866.27	227.09
866.58	227.08
866.89	227.08
867.20	227.07
867.51	226.97
867.82	226.89
868.13	226.94
868.44	226.81
868.75	226.94
869.06	227.04
869.37	227.02
869.68	226.82
869.99	226.94
870.30	226.90
870.61	226.89
870.92	226.80
871.23	226.85
871.54	226.90
871.85	227.02
872.16	227.02
872.47	226.99
872.78	226.70
873.09	226.70
873.40	226.69
873.71	226.81
874.02	226.87
874.33	226.83
874.64	226.81
874.95	226.91
875.26	226.76
875.56	226.69
875.87	226.68
876.18	226.76
876.49	227.23
876.80	227.22
877.11	227.17
877.42	227.15
877.73	227.18
878.04	227.10
878.35	227.00
878.66	227.04
878.96	226.99
879.27	226.95
879.58	226.97
879.89	226.93
880.20	226.98
880.51	226.91
880.82	226.89
881.12	226.83
881.43	226.71
881.74	226.67
882.05	226.64
882.36	226.70
882.67	226.70
882.97	226.17
883.28	226.17
883.59	226.15
883.90	226.21
884.21	226.23
884.51	226.16
884.82	226.15
885.13	226.07
885.44	226.13
885.74	226.07
886.05	225.99
886.36	225.96
886.67	225.81
886.98	226.03
887.28	226.15
887.59	226.07
887.90	226.11
888.20	226.12
888.51	226.21
888.82	226.10
889.13	226.12
889.43	226.46
889.74	226.39
890.05	226.34
890.35	226.25
890.66	226.15
890.97	226.21
891.28	226.17
891.58	226.23
891.89	226.23
892.20	226.24
892.50	226.22
892.81	226.27
893.12	226.33
893.42	226.10
893.73	226.01
894.04	226.06
894.34	226.09
894.65	226.05
894.95	225.93
895.26	225.97
895.57	226.17
895.87	225.81
896.18	225.92
896.48	226.04
896.79	226.08
897.10	226.15
897.40	226.14
897.71	226.15
898.01	226.11
898.32	226.21
898.63	226.21
898.93	226.33
899.24	226.30
899.54	226.27
899.85	226.29
900.15	226.36
900.46	226.36
900.76	226.41
901.07	226.46
901.38	226.52
901.68	226.59
901.99	226.39
902.29	226.43
902.60	226.40
902.90	226.37
903.21	226.36
903.51	226.37
903.82	226.45
904.12	226.51
904.43	226.53
904.73	226.47
905.03	226.54
905.34	226.94
905.64	226.95
905.95	226.93
906.25	226.92
906.56	226.85
906.86	226.93
907.17	226.93
907.47	226.97
907.77	226.94
908.08	226.85
908.38	226.84
908.69	226.86
908.99	226.96
909.30	227.02
909.60	227.04
909.90	227.06
910.21	226.92
910.51	226.83
910.81	226.86
911.12	226.93
911.42	226.94
911.73	226.48
912.03	226.58
912.33	226.74
912.64	226.77
912.94	226.77
913.24	226.66
913.55	226.61
913.85	226.56
914.15	226.63
914.46	226.76
914.76	226.74
915.06	226.66
915.37	226.53
915.67	226.49
915.97	226.54
916.27	226.47
916.58	226.54
916.88	226.58
917.18	226.54
917.49	226.86
917.79	226.83
918.09	226.90
918.39	226.94
918.70	226.86
919.00	226.85
919.30	227.09
919.60	227.07
919.91	227.02
920.21	227.07
920.51	226.95
920.81	226.80
921.12	226.90
921.42	226.97
921.72	227.00
922.02	226.97
922.32	226.98
922.63	227.08
922.93	227.30
923.23	227.33
923.53	227.22
923.83	226.87
924.13	226.92
924.44	226.86
924.74	226.92
925.04	227.01
925.34	226.97
925.64	226.72
925.94	226.73
926.24	226.93
926.55	226.85
926.85	226.96
927.15	227.01
927.45	227.02
927.75	226.98
928.05	226.96
928.35	226.89
928.65	226.97
928.95	226.87
929.26	226.69
929.56	226.74
929.86	226.85
930.16	226.77
930.46	226.71
930.76	226.69
931.06	226.43
931.36	226.25
931.66	226.32
931.96	226.40
932.26	226.41
932.56	226.17
932.86	226.26
933.16	226.28
933.46	226.21
933.76	226.08
934.06	226.17
934.36	226.29
934.66	226.37
934.96	226.26
935.26	226.31
935.56	226.34
935.86	226.23
936.16	226.18
936.46	226.19
936.76	226.18
937.06	226.18
937.36	226.27
937.66	226.31
937.96	226.38
938.26	226.31
938.56	226.28
938.86	226.37
939.16	226.40
939.46	226.41
939.76	226.47
940.06	226.46
940.35	226.33
940.65	226.20
940.95	226.18
941.25	226.20
941.55	226.15
941.85	226.13
942.15	226.21
942.45	226.27
942.75	226.25
943.04	226.29
943.34	226.36
943.64	226.31
943.94	226.26
944.24	226.23
944.54	226.26
944.84	226.27
945.13	226.27
945.43	226.25
945.73	226.20
946.03	226.17
946.33	226.14
946.62	226.10
946.92	226.01
947.22	226.04
947.52	226.01
947.82	226.09
948.11	226.05
948.41	225.99
948.71	225.90
949.01	225.94
949.31	225.92
949.60	225.95
949.90	226.10
950.20	226.15
950.50	226.15
950.79	226.09
951.09	226.25
951.39	226.25
951.69	226.22
951.98	226.31
952.28	226.35
952.58	226.40
952.87	226.45
953.17	226.65
953.47	226.60
953.76	226.55
954.06	226.42
954.36	226.32
954.66	226.31
954.95	226.45
955.25	226.58
955.55	226.66
955.84	226.58
956.14	226.49
956.44	226.49
956.73	226.31
957.03	226.39
957.32	226.33
957.62	226.29
957.92	226.35
958.21	226.35
958.51	226.85
958.81	226.91
959.10	226.96
959.40	226.96
959.69	227.05
959.99	227.13
960.29	227.15
960.58	227.15
960.88	227.35
961.17	227.28
961.47	227.23
961.76	227.14
962.06	227.19
962.36	227.19
962.65	227.14
962.95	227.26
963.24	227.20
963.54	227.17
963.83	227.22
964.13	227.22
964.42	227.04
964.72	226.63
965.01	226.57
965.31	226.56
965.60	226.48
965.90	226.68
966.19	226.58
966.49	226.57
966.78	226.55
967.08	226.45
967.37	226.46
967.67	226.37
967.96	226.42
968.26	226.33
968.55	226.37
968.85	226.43
969.14	226.42
969.43	226.41
969.73	226.35
970.02	226.29
970.32	226.30
970.61	226.26
970.91	226.13
971.20	226.02
971.49	225.91
971.79	225.96
972.08	225.70
972.38	225.69
972.67	225.68
972.96	225.68
973.26	225.59
973.55	225.71
973.85	225.71
974.14	225.67
974.43	225.78
974.73	225.74
975.02	225.67
975.31	225.65
975.61	225.62
975.90	225.67
976.19	225.63
976.49	225.63
976.78	225.72
977.07	225.69
977.37	225.82
977.66	225.90
977.95	225.84
978.24	225.80
978.54	225.86
978.83	225.83
979.12	225.88
979.42	225.89
979.71	225.79
980.00	225.76
980.29	225.80
980.59	225.64
980.88	225.70
981.17	225.77
981.46	225.78
981.76	225.78
982.05	225.91
982.34	225.93
982.63	225.88
982.93	225.90
983.22	226.05
983.51	226.06
983.80	226.15
984.09	226.20
984.39	226.22
984.68	226.19
984.97	226.26
985.26	226.23
985.55	226.29
985.85	226.24
986.14	226.36
986.43	226.34
986.72	226.35
987.01	226.25
987.30	226.20
987.59	226.21
987.89	226.27
988.18	226.12
988.47	226.12
988.76	226.04
989.05	226.00
989.34	225.96
989.63	226.10
989.92	226.01
990.22	225.95
990.51	225.96
990.80	226.04
991.09	226.01
991.38	226.04
991.67	225.93
991.96	225.90
992.25	225.94
992.54	225.85
992.83	225.90
993.12	225.93
993.41	226.05
993.70	226.26
993.99	226.35
994.28	226.44
994.58	226.50
994.87	226.50
995.16	226.49
995.45	226.51
995.74	226.32
996.03	226.38
996.32	226.51
996.61	226.59
996.90	226.58
997.19	226.59
997.48	226.65
997.77	226.64
998.06	226.70
998.34	226.62
998.63	226.71
998.92	226.69
999.21	226.66
999.50	226.65
999.79	226.46
1000.08	226.44
1000.37	226.44
1000.66	226.35
1000.95	226.53
1001.24	226.57
1001.53	226.55
1001.82	226.53
1002.11	226.47
1002.40	226.46
1002.68	226.60
1002.97	226.89
1003.26	226.93
1003.55	226.84
1003.84	226.92
1004.13	227.05
1004.42	227.03
1004.71	226.94
1004.99	227.00
1005.28	227.16
1005.57	227.06
1005.86	226.99
1006.15	226.89
1006.44	226.80
1006.72	226.92
1007.01	226.82
1007.30	226.82
1007.59	226.79
1007.88	226.80
1008.17	226.85
1008.45	226.73
1008.74	226.51
1009.03	226.32
1009.32	226.27
1009.60	226.25
1009.89	226.12
1010.18	225.92
1010.47	225.90
1010.76	225.90
1011.04	225.89
1011.33	225.89
1011.62	225.93
1011.91	225.95
1012.19	226.05
1012.48	226.05
1012.77	225.97
1013.05	226.18
1013.34	226.20
1013.63	226.16
1013.92	226.16
1014.20	226.16
1014.49	226.16
1014.78	226.22
1015.06	226.06
1015.35	226.03
1015.64	226.15
1015.92	226.31
1016.21	226.36
1016.50	226.40
1016.78	226.52
1017.07	226.49
1017.36	226.42
1017.64	226.45
1017.93	226.50
1018.22	226.40
1018.50	226.35
1018.79	226.27
1019.08	226.05
1019.36	226.08
1019.65	226.08
1019.93	226.20
1020.22	226.25
1020.51	226.48
1020.79	226.43
1021.08	225.00
1021.36	224.40
1021.65	224.30
1021.94	225.90
1022.22	226.90
1022.51	225.85
1022.79	228.15
1023.08	227.05
1023.36	230.95
1023.65	225.60
>>>>>End Processed Spectral Data<<<<<
