SpectraSuite Data File
++++++++++++++++++++++++++++++++++++
Date: Wed Sep 04 17:59:56 EDT 2013
User: lab3
Dark Spectrum Present: Yes
Reference Spectrum Present: No
Number of Sampled Component Spectra: 1
Spectrometers: USB2E7196
Integration Time (usec): 170000 (USB2E7196)
Spectra Averaged: 20 (USB2E7196)
Boxcar Smoothing: 10 (USB2E7196)
Correct for Electrical Dark: No (USB2E7196)
Strobe/Lamp Enabled: No (USB2E7196)
Correct for Detector Non-linearity: No (USB2E7196)
Correct for Stray Light: No (USB2E7196)
Number of Pixels in Processed Spectrum: 2048
>>>>>Begin Processed Spectral Data<<<<<
339.09	0.00
339.48	213.80
339.86	215.30
340.24	216.45
340.63	216.90
341.01	225.10
341.39	220.15
341.78	222.40
342.16	225.50
342.54	224.65
342.93	212.65
343.31	223.38
343.69	223.88
344.07	224.33
344.46	224.83
344.84	225.28
345.22	225.25
345.60	225.55
345.99	225.73
346.37	225.73
346.75	225.77
347.13	225.87
347.52	225.94
347.90	226.10
348.28	226.16
348.66	226.29
349.05	226.22
349.43	226.34
349.81	226.42
350.19	226.55
350.57	226.65
350.96	226.77
351.34	226.83
351.72	226.97
352.10	227.10
352.48	227.06
352.87	227.09
353.25	227.15
353.63	227.18
354.01	227.17
354.39	227.22
354.77	227.31
355.15	227.45
355.54	227.41
355.92	227.41
356.30	227.49
356.68	227.80
357.06	227.84
357.44	227.82
357.82	227.81
358.20	228.15
358.58	228.15
358.97	228.23
359.35	228.44
359.73	228.53
360.11	228.50
360.49	228.57
360.87	228.58
361.25	228.77
361.63	228.98
362.01	229.12
362.39	229.13
362.77	229.29
363.15	229.33
363.53	229.40
363.91	229.51
364.29	229.49
364.67	229.12
365.05	229.15
365.43	229.27
365.81	229.45
366.19	229.34
366.57	229.56
366.95	229.53
367.33	229.38
367.71	229.39
368.09	229.55
368.47	229.64
368.85	229.62
369.23	229.72
369.61	229.52
369.99	229.62
370.37	229.70
370.75	229.89
371.13	229.75
371.51	229.65
371.89	229.57
372.27	229.60
372.65	229.66
373.03	229.66
373.41	229.55
373.78	229.45
374.16	229.19
374.54	229.01
374.92	228.99
375.30	228.94
375.68	228.85
376.06	228.81
376.44	228.64
376.82	228.70
377.19	228.58
377.57	228.50
377.95	228.35
378.33	228.22
378.71	227.87
379.09	227.95
379.47	227.92
379.84	227.82
380.22	227.77
380.60	227.55
380.98	227.54
381.36	227.46
381.73	227.36
382.11	227.32
382.49	227.32
382.87	227.15
383.25	227.11
383.62	227.69
384.00	227.55
384.38	227.48
384.76	227.48
385.13	227.64
385.51	227.66
385.89	227.50
386.27	227.57
386.64	227.55
387.02	227.41
387.40	227.37
387.78	227.40
388.15	227.35
388.53	227.26
388.91	227.18
389.29	227.10
389.66	227.13
390.04	227.07
390.42	227.09
390.79	227.14
391.17	227.10
391.55	226.47
391.92	226.47
392.30	226.58
392.68	226.52
393.05	226.41
393.43	226.43
393.81	226.51
394.18	226.40
394.56	226.45
394.94	226.61
395.31	226.58
395.69	226.72
396.06	226.78
396.44	226.92
396.82	226.98
397.19	227.35
397.57	227.42
397.95	227.62
398.32	227.51
398.70	227.61
399.07	227.84
399.45	227.94
399.82	227.96
400.20	228.04
400.58	228.15
400.95	228.04
401.33	228.25
401.70	228.72
402.08	228.90
402.45	229.01
402.83	229.23
403.20	229.43
403.58	229.49
403.95	229.74
404.33	230.00
404.71	230.28
405.08	230.65
405.46	230.83
405.83	231.02
406.21	231.27
406.58	231.57
406.96	231.81
407.33	232.20
407.70	232.68
408.08	233.44
408.45	233.84
408.83	234.45
409.20	234.83
409.58	234.98
409.95	235.50
410.33	236.07
410.70	236.41
411.08	237.06
411.45	237.75
411.82	238.32
412.20	239.09
412.57	239.94
412.95	240.35
413.32	241.18
413.69	241.96
414.07	243.00
414.44	243.97
414.82	245.05
415.19	246.19
415.56	247.34
415.94	248.31
416.31	249.73
416.68	251.13
417.06	252.68
417.43	254.30
417.81	256.11
418.18	257.90
418.55	259.86
418.93	261.91
419.30	264.01
419.67	266.24
420.04	268.37
420.42	270.74
420.79	273.85
421.16	276.69
421.54	279.82
421.91	282.81
422.28	285.88
422.66	289.12
423.03	292.57
423.40	295.94
423.77	299.56
424.15	303.25
424.52	307.08
424.89	311.32
425.26	315.31
425.64	319.09
426.01	323.38
426.38	327.81
426.75	332.21
427.13	336.82
427.50	341.61
427.87	346.62
428.24	351.53
428.61	356.08
428.99	361.42
429.36	366.92
429.73	372.35
430.10	377.91
430.47	383.61
430.85	389.23
431.22	395.50
431.59	402.31
431.96	408.53
432.33	415.49
432.70	422.13
433.08	430.05
433.45	437.56
433.82	444.71
434.19	452.97
434.56	461.39
434.93	469.16
435.30	476.96
435.68	485.66
436.05	494.21
436.42	502.58
436.79	510.30
437.16	518.81
437.53	527.86
437.90	536.66
438.27	545.32
438.64	554.40
439.01	562.80
439.38	569.95
439.75	577.24
440.13	585.28
440.50	592.96
440.87	599.17
441.24	605.62
441.61	613.00
441.98	618.08
442.35	623.74
442.72	629.83
443.09	635.90
443.46	639.38
443.83	641.71
444.20	643.59
444.57	646.27
444.94	647.11
445.31	648.12
445.68	649.46
446.05	649.77
446.42	648.44
446.79	646.76
447.16	645.01
447.53	643.60
447.90	639.87
448.27	636.13
448.64	631.14
449.01	627.35
449.37	620.97
449.74	614.90
450.11	608.08
450.48	600.17
450.85	591.81
451.22	584.80
451.59	578.06
451.96	571.64
452.33	563.50
452.70	556.19
453.07	547.44
453.43	538.31
453.80	529.72
454.17	521.55
454.54	513.95
454.91	505.80
455.28	497.75
455.65	490.19
456.02	483.40
456.38	476.94
456.75	469.07
457.12	462.58
457.49	456.19
457.86	449.75
458.23	444.48
458.59	438.85
458.96	433.08
459.33	427.94
459.70	422.91
460.07	418.79
460.43	414.00
460.80	409.63
461.17	405.80
461.54	401.75
461.91	397.92
462.27	393.94
462.64	390.65
463.01	387.15
463.38	383.94
463.74	379.83
464.11	376.85
464.48	374.28
464.85	371.37
465.21	369.20
465.58	366.78
465.95	364.10
466.32	361.86
466.68	359.56
467.05	357.33
467.42	355.16
467.78	352.78
468.15	350.67
468.52	349.13
468.88	346.82
469.25	344.84
469.62	343.35
469.98	341.79
470.35	340.34
470.72	338.82
471.08	337.01
471.45	335.73
471.82	334.37
472.18	332.85
472.55	331.78
472.92	330.39
473.28	329.36
473.65	328.21
474.02	327.07
474.38	326.28
474.75	325.51
475.11	324.59
475.48	323.95
475.85	323.38
476.21	322.63
476.58	322.33
476.94	322.04
477.31	321.54
477.67	321.11
478.04	320.70
478.41	320.48
478.77	320.85
479.14	320.54
479.50	320.52
479.87	320.55
480.23	320.60
480.60	320.61
480.96	320.53
481.33	320.87
481.69	321.11
482.06	321.29
482.42	321.52
482.79	321.96
483.15	322.47
483.52	323.16
483.88	323.73
484.25	324.23
484.61	324.82
484.98	325.46
485.34	326.42
485.71	327.49
486.07	328.47
486.44	329.01
486.80	330.09
487.17	331.18
487.53	332.64
487.90	334.08
488.26	335.85
488.62	337.61
488.99	339.12
489.35	341.02
489.72	342.89
490.08	344.96
490.44	346.86
490.81	349.05
491.17	351.13
491.54	353.71
491.90	356.16
492.26	358.91
492.63	361.75
492.99	364.62
493.36	367.63
493.72	371.07
494.08	374.49
494.45	378.23
494.81	382.14
495.17	386.07
495.54	390.25
495.90	394.38
496.26	398.87
496.63	403.45
496.99	408.14
497.35	413.22
497.72	418.41
498.08	424.04
498.44	429.66
498.80	435.70
499.17	441.68
499.53	448.17
499.89	454.74
500.26	461.66
500.62	468.64
500.98	476.09
501.34	483.51
501.71	491.27
502.07	499.15
502.43	507.30
502.79	515.52
503.16	524.29
503.52	533.37
503.88	542.65
504.24	552.68
504.60	562.90
504.97	573.15
505.33	583.68
505.69	594.63
506.05	605.82
506.41	617.28
506.78	629.04
507.14	641.07
507.50	653.42
507.86	666.04
508.22	679.14
508.59	692.09
508.95	705.65
509.31	719.86
509.67	734.20
510.03	748.42
510.39	763.32
510.75	778.19
511.12	793.42
511.48	808.96
511.84	824.44
512.20	840.03
512.56	856.56
512.92	873.40
513.28	890.24
513.64	907.55
514.00	924.97
514.37	942.66
514.73	960.58
515.09	979.15
515.45	997.73
515.81	1016.14
516.17	1035.07
516.53	1053.85
516.89	1072.69
517.25	1092.20
517.61	1112.76
517.97	1133.28
518.33	1153.35
518.69	1173.82
519.05	1194.40
519.41	1215.20
519.77	1236.43
520.13	1257.10
520.49	1277.95
520.85	1300.35
521.21	1321.70
521.57	1343.10
521.93	1363.97
522.29	1385.60
522.65	1406.26
523.01	1427.15
523.37	1447.72
523.73	1468.91
524.09	1489.53
524.45	1510.25
524.81	1531.06
525.17	1551.91
525.53	1572.39
525.89	1593.23
526.25	1614.21
526.61	1634.87
526.97	1656.12
527.33	1677.60
527.68	1699.70
528.04	1721.00
528.40	1740.64
528.76	1761.49
529.12	1782.12
529.48	1803.30
529.84	1823.05
530.20	1844.16
530.56	1865.17
530.91	1886.72
531.27	1907.31
531.63	1928.06
531.99	1948.65
532.35	1968.65
532.71	1988.90
533.07	2009.75
533.42	2029.93
533.78	2049.71
534.14	2070.11
534.50	2089.20
534.86	2108.43
535.21	2125.85
535.57	2144.66
535.93	2162.72
536.29	2180.82
536.65	2199.23
537.00	2216.82
537.36	2235.06
537.72	2251.78
538.08	2268.94
538.44	2285.54
538.79	2301.85
539.15	2318.83
539.51	2335.06
539.87	2350.71
540.22	2364.55
540.58	2378.67
540.94	2392.40
541.29	2405.44
541.65	2417.91
542.01	2430.63
542.37	2441.33
542.72	2452.86
543.08	2463.19
543.44	2475.24
543.79	2485.15
544.15	2494.82
544.51	2505.05
544.87	2514.79
545.22	2523.55
545.58	2531.57
545.94	2538.74
546.29	2545.57
546.65	2551.81
547.01	2557.73
547.36	2563.14
547.72	2568.86
548.07	2572.91
548.43	2578.09
548.79	2582.99
549.14	2586.99
549.50	2590.86
549.86	2594.91
550.21	2598.68
550.57	2602.42
550.92	2603.63
551.28	2605.29
551.64	2607.88
551.99	2609.80
552.35	2611.57
552.70	2613.76
553.06	2615.40
553.41	2616.81
553.77	2618.44
554.13	2619.88
554.48	2621.29
554.84	2622.85
555.19	2624.30
555.55	2626.13
555.90	2625.65
556.26	2624.46
556.61	2623.01
556.97	2620.84
557.32	2620.52
557.68	2618.91
558.03	2617.23
558.39	2615.73
558.74	2614.84
559.10	2611.27
559.45	2607.59
559.81	2602.90
560.16	2597.81
560.52	2593.05
560.87	2588.62
561.23	2583.35
561.58	2577.62
561.94	2570.85
562.29	2563.50
562.64	2556.15
563.00	2547.90
563.35	2541.07
563.71	2534.65
564.06	2528.27
564.42	2521.65
564.77	2514.63
565.12	2507.43
565.48	2499.83
565.83	2491.91
566.19	2483.56
566.54	2476.06
566.89	2468.02
567.25	2460.55
567.60	2453.37
567.96	2445.46
568.31	2437.19
568.66	2428.62
569.02	2419.09
569.37	2410.68
569.72	2403.37
570.08	2394.04
570.43	2384.61
570.78	2375.54
571.14	2366.04
571.49	2356.10
571.84	2346.49
572.20	2335.41
572.55	2325.23
572.90	2314.15
573.26	2303.98
573.61	2293.30
573.96	2281.90
574.31	2269.95
574.67	2257.96
575.02	2245.12
575.37	2232.78
575.72	2220.01
576.08	2207.96
576.43	2195.67
576.78	2182.59
577.13	2168.37
577.49	2155.70
577.84	2143.89
578.19	2131.83
578.54	2119.06
578.90	2106.85
579.25	2094.70
579.60	2082.17
579.95	2069.15
580.30	2056.19
580.66	2042.67
581.01	2028.88
581.36	2014.61
581.71	2002.04
582.06	1988.73
582.42	1976.18
582.77	1963.25
583.12	1950.85
583.47	1938.41
583.82	1926.62
584.17	1914.73
584.53	1903.07
584.88	1890.14
585.23	1876.62
585.58	1862.26
585.93	1849.12
586.28	1835.77
586.63	1821.46
586.98	1807.20
587.34	1793.80
587.69	1780.59
588.04	1767.82
588.39	1755.78
588.74	1743.90
589.09	1731.71
589.44	1718.72
589.79	1706.71
590.14	1694.60
590.49	1682.31
590.84	1670.00
591.19	1657.75
591.54	1645.37
591.89	1633.05
592.25	1622.78
592.60	1611.35
592.95	1599.97
593.30	1588.10
593.65	1576.23
594.00	1564.34
594.35	1554.44
594.70	1542.63
595.05	1531.32
595.40	1519.27
595.75	1507.21
596.10	1495.80
596.45	1483.95
596.80	1473.26
597.15	1461.47
597.50	1449.59
597.85	1438.40
598.19	1426.65
598.54	1414.99
598.89	1403.60
599.24	1393.25
599.59	1381.46
599.94	1370.55
600.29	1360.03
600.64	1349.57
600.99	1338.66
601.34	1329.12
601.69	1317.85
602.04	1308.00
602.39	1297.97
602.74	1288.81
603.08	1279.21
603.43	1269.92
603.78	1260.32
604.13	1250.57
604.48	1240.70
604.83	1231.12
605.18	1221.40
605.53	1211.96
605.87	1202.64
606.22	1193.97
606.57	1184.14
606.92	1174.56
607.27	1165.62
607.62	1156.84
607.96	1148.20
608.31	1140.27
608.66	1131.68
609.01	1123.01
609.36	1114.14
609.70	1105.59
610.05	1096.76
610.40	1088.10
610.75	1079.16
611.10	1070.65
611.44	1062.28
611.79	1054.31
612.14	1046.34
612.49	1038.36
612.83	1030.74
613.18	1022.86
613.53	1014.96
613.88	1006.96
614.22	999.38
614.57	991.11
614.92	983.35
615.27	975.56
615.61	967.56
615.96	959.71
616.31	952.34
616.65	945.50
617.00	938.24
617.35	930.86
617.70	923.84
618.04	916.58
618.39	909.55
618.74	902.84
619.08	895.76
619.43	888.54
619.78	881.34
620.12	874.03
620.47	867.09
620.82	859.99
621.16	853.19
621.51	846.74
621.85	840.54
622.20	833.71
622.55	827.10
622.89	820.70
623.24	814.47
623.59	807.95
623.93	801.39
624.28	794.91
624.62	789.42
624.97	783.72
625.32	778.18
625.66	772.06
626.01	765.91
626.35	760.37
626.70	754.82
627.04	749.62
627.39	744.06
627.73	738.66
628.08	733.41
628.43	728.00
628.77	722.49
629.12	717.30
629.46	712.46
629.81	707.76
630.15	702.77
630.50	697.82
630.84	692.90
631.19	688.12
631.53	683.60
631.88	678.20
632.22	673.09
632.57	668.40
632.91	663.93
633.26	659.50
633.60	654.88
633.95	650.29
634.29	645.31
634.64	640.82
634.98	636.12
635.32	631.76
635.67	627.80
636.01	623.66
636.36	619.31
636.70	615.07
637.05	610.75
637.39	606.76
637.73	602.70
638.08	598.76
638.42	594.58
638.77	590.15
639.11	585.80
639.45	581.43
639.80	577.04
640.14	572.92
640.49	568.92
640.83	564.90
641.17	561.15
641.52	557.47
641.86	554.01
642.20	550.82
642.55	547.11
642.89	543.39
643.23	539.88
643.58	536.74
643.92	533.08
644.26	529.72
644.61	526.29
644.95	522.78
645.29	519.28
645.64	515.88
645.98	512.84
646.32	509.99
646.66	507.03
647.01	504.16
647.35	501.32
647.69	498.32
648.04	495.49
648.38	492.63
648.72	489.78
649.06	486.56
649.41	483.45
649.75	480.34
650.09	477.58
650.43	474.63
650.78	471.54
651.12	468.75
651.46	465.83
651.80	463.08
652.14	460.34
652.49	457.84
652.83	455.34
653.17	452.74
653.51	449.97
653.85	447.55
654.20	445.06
654.54	442.42
654.88	439.85
655.22	437.66
655.56	435.17
655.90	432.70
656.25	430.49
656.59	428.19
656.93	426.12
657.27	423.87
657.61	421.35
657.95	419.14
658.29	416.99
658.64	414.90
658.98	412.61
659.32	410.36
659.66	408.07
660.00	406.01
660.34	403.89
660.68	401.82
661.02	399.71
661.36	397.71
661.70	395.67
662.05	393.72
662.39	391.71
662.73	390.05
663.07	388.44
663.41	386.56
663.75	384.64
664.09	382.71
664.43	380.67
664.77	379.14
665.11	377.37
665.45	375.65
665.79	373.88
666.13	372.17
666.47	370.54
666.81	368.92
667.15	367.15
667.49	365.66
667.83	364.44
668.17	362.95
668.51	361.48
668.85	360.16
669.19	358.97
669.53	357.39
669.87	355.78
670.21	354.25
670.55	352.92
670.89	351.89
671.23	350.51
671.57	349.16
671.91	347.79
672.25	346.43
672.58	345.24
672.92	343.89
673.26	342.65
673.60	341.51
673.94	340.47
674.28	339.35
674.62	338.17
674.96	336.74
675.30	335.52
675.64	334.34
675.97	333.05
676.31	331.69
676.65	330.46
676.99	329.47
677.33	328.29
677.67	327.18
678.01	325.70
678.34	324.65
678.68	323.80
679.02	322.70
679.36	321.74
679.70	320.63
680.04	319.70
680.37	318.71
680.71	317.66
681.05	316.59
681.39	315.65
681.73	314.67
682.06	313.75
682.40	312.92
682.74	312.02
683.08	311.33
683.42	310.46
683.75	309.65
684.09	308.73
684.43	307.89
684.77	307.00
685.10	306.29
685.44	305.51
685.78	304.57
686.12	303.77
686.45	302.93
686.79	302.15
687.13	301.47
687.46	300.73
687.80	300.10
688.14	299.30
688.48	298.57
688.81	297.82
689.15	297.23
689.49	296.33
689.82	295.64
690.16	294.75
690.50	294.03
690.83	293.33
691.17	292.57
691.51	291.91
691.84	291.30
692.18	290.62
692.52	289.84
692.85	289.24
693.19	288.79
693.52	288.21
693.86	287.56
694.20	286.89
694.53	286.27
694.87	285.54
695.21	284.88
695.54	284.27
695.88	283.55
696.21	282.75
696.55	282.20
696.88	281.55
697.22	281.00
697.56	280.49
697.89	279.84
698.23	279.24
698.56	278.63
698.90	278.15
699.23	277.52
699.57	277.07
699.90	276.52
700.24	275.90
700.58	275.40
700.91	274.93
701.25	274.77
701.58	274.61
701.92	274.34
702.25	273.90
702.59	273.48
702.92	273.05
703.26	272.66
703.59	272.29
703.93	272.22
704.26	271.76
704.60	271.33
704.93	270.92
705.26	270.49
705.60	270.15
705.93	269.58
706.27	269.46
706.60	269.12
706.94	269.03
707.27	268.56
707.61	268.26
707.94	267.88
708.27	267.15
708.61	266.43
708.94	265.94
709.28	265.56
709.61	265.15
709.94	264.85
710.28	264.46
710.61	264.09
710.95	263.35
711.28	263.32
711.61	262.93
711.95	262.69
712.28	262.33
712.61	262.02
712.95	261.95
713.28	261.69
713.61	261.25
713.95	260.72
714.28	260.46
714.61	259.98
714.95	259.63
715.28	259.23
715.61	258.86
715.95	258.60
716.28	258.20
716.61	257.90
716.95	257.59
717.28	257.34
717.61	256.97
717.94	256.67
718.28	256.11
718.61	255.81
718.94	255.44
719.27	255.20
719.61	254.95
719.94	254.55
720.27	254.10
720.60	253.93
720.94	253.60
721.27	253.39
721.60	253.18
721.93	252.98
722.27	252.93
722.60	252.79
722.93	252.48
723.26	252.35
723.59	252.08
723.93	251.89
724.26	251.65
724.59	251.43
724.92	251.25
725.25	251.15
725.59	250.90
725.92	250.78
726.25	250.58
726.58	250.35
726.91	250.15
727.24	250.03
727.57	249.76
727.91	249.47
728.24	249.32
728.57	249.16
728.90	249.00
729.23	248.73
729.56	248.80
729.89	248.53
730.22	248.27
730.55	248.03
730.89	247.86
731.22	247.71
731.55	247.58
731.88	247.39
732.21	247.08
732.54	246.95
732.87	246.78
733.20	246.63
733.53	246.39
733.86	246.26
734.19	245.98
734.52	245.94
734.85	246.14
735.18	245.87
735.51	245.84
735.84	245.71
736.17	245.63
736.50	245.22
736.83	245.75
737.16	245.61
737.49	245.56
737.82	245.34
738.15	245.27
738.48	245.07
738.81	244.88
739.14	244.66
739.47	244.54
739.80	244.41
740.13	244.27
740.46	244.10
740.79	243.77
741.12	243.65
741.45	243.40
741.78	243.07
742.11	243.05
742.44	242.84
742.77	242.79
743.10	242.60
743.43	242.46
743.75	241.77
744.08	242.33
744.41	242.09
744.74	241.96
745.07	241.72
745.40	241.67
745.73	241.78
746.06	241.69
746.39	241.54
746.71	241.35
747.04	241.14
747.37	241.02
747.70	241.00
748.03	240.89
748.36	240.74
748.68	240.55
749.01	240.31
749.34	240.18
749.67	239.98
750.00	239.85
750.33	240.00
750.65	239.93
750.98	239.07
751.31	239.07
751.64	238.94
751.97	239.05
752.29	238.89
752.62	238.60
752.95	238.53
753.28	238.36
753.60	238.16
753.93	238.21
754.26	238.15
754.59	237.92
754.91	237.77
755.24	237.68
755.57	237.58
755.90	237.40
756.22	237.20
756.55	237.00
756.88	236.88
757.20	236.51
757.53	236.31
757.86	236.31
758.19	236.25
758.51	236.18
758.84	235.86
759.17	235.73
759.49	235.65
759.82	235.78
760.15	235.77
760.47	235.75
760.80	235.50
761.13	235.49
761.45	235.40
761.78	235.32
762.11	235.27
762.43	235.12
762.76	235.09
763.08	235.10
763.41	235.04
763.74	234.96
764.06	234.86
764.39	234.79
764.71	234.64
765.04	234.47
765.37	234.34
765.69	234.28
766.02	234.22
766.34	234.01
766.67	233.73
767.00	233.66
767.32	233.83
767.65	234.15
767.97	233.94
768.30	233.91
768.62	233.81
768.95	233.72
769.27	233.61
769.60	233.69
769.92	233.45
770.25	233.33
770.57	233.20
770.90	233.15
771.22	233.05
771.55	233.06
771.87	233.05
772.20	232.97
772.52	233.29
772.85	233.78
773.17	233.82
773.50	233.78
773.82	233.67
774.15	233.44
774.47	233.05
774.80	232.97
775.12	232.93
775.45	232.87
775.77	232.85
776.09	232.89
776.42	232.74
776.74	232.93
777.07	232.85
777.39	232.78
777.72	232.63
778.04	232.62
778.36	232.44
778.69	232.39
779.01	232.36
779.33	231.86
779.66	231.28
779.98	231.20
780.31	231.08
780.63	231.19
780.95	231.15
781.28	231.04
781.60	231.00
781.92	231.05
782.25	231.00
782.57	230.88
782.89	230.82
783.22	230.73
783.54	230.52
783.86	230.51
784.19	230.44
784.51	230.52
784.83	230.41
785.16	230.46
785.48	230.35
785.80	230.33
786.12	230.37
786.45	230.39
786.77	230.33
787.09	230.34
787.42	230.13
787.74	230.17
788.06	230.18
788.38	230.11
788.71	229.89
789.03	229.91
789.35	229.97
789.67	229.81
789.99	229.83
790.32	229.77
790.64	229.87
790.96	230.26
791.28	230.07
791.61	229.95
791.93	229.94
792.25	229.94
792.57	230.26
792.89	230.21
793.21	230.19
793.54	230.15
793.86	230.06
794.18	230.12
794.50	229.92
794.82	229.92
795.14	229.99
795.47	230.14
795.79	230.13
796.11	230.01
796.43	230.02
796.75	229.98
797.07	230.03
797.39	229.94
797.71	229.56
798.04	229.63
798.36	229.68
798.68	229.70
799.00	229.68
799.32	229.39
799.64	229.48
799.96	229.37
800.28	229.48
800.60	229.49
800.92	229.50
801.24	229.47
801.56	229.50
801.89	229.47
802.21	229.47
802.53	229.39
802.85	229.47
803.17	229.74
803.49	229.68
803.81	229.65
804.13	229.60
804.45	229.53
804.77	229.58
805.09	229.60
805.41	229.45
805.73	229.31
806.05	229.26
806.37	229.17
806.69	229.23
807.01	229.17
807.33	229.15
807.65	229.01
807.97	229.28
808.28	229.21
808.60	229.23
808.92	229.20
809.24	229.48
809.56	229.36
809.88	229.16
810.20	229.21
810.52	229.24
810.84	229.19
811.16	229.18
811.48	229.10
811.80	229.29
812.12	229.34
812.43	229.45
812.75	229.47
813.07	229.41
813.39	229.38
813.71	229.27
814.03	229.18
814.35	229.18
814.67	228.98
814.98	228.95
815.30	228.89
815.62	228.74
815.94	228.43
816.26	228.65
816.58	228.48
816.89	228.49
817.21	228.37
817.53	228.42
817.85	228.46
818.17	228.43
818.48	228.19
818.80	228.31
819.12	228.21
819.44	228.11
819.76	228.03
820.07	228.00
820.39	228.02
820.71	228.10
821.03	228.12
821.34	228.08
821.66	228.13
821.98	228.15
822.30	228.09
822.61	228.33
822.93	228.09
823.25	228.11
823.57	228.06
823.88	228.15
824.20	228.03
824.52	228.06
824.83	228.12
825.15	228.10
825.47	227.96
825.79	228.02
826.10	227.98
826.42	227.95
826.74	228.01
827.05	227.97
827.37	227.93
827.69	227.86
828.00	227.81
828.32	227.76
828.64	227.69
828.95	227.95
829.27	227.84
829.58	227.82
829.90	227.94
830.22	227.98
830.53	227.85
830.85	227.92
831.17	227.82
831.48	227.76
831.80	227.75
832.11	227.70
832.43	227.60
832.75	227.65
833.06	227.91
833.38	227.76
833.69	227.71
834.01	227.80
834.32	227.84
834.64	227.80
834.96	227.75
835.27	227.75
835.59	227.62
835.90	227.55
836.22	227.55
836.53	227.42
836.85	227.32
837.16	227.77
837.48	227.65
837.79	227.82
838.11	227.86
838.42	227.86
838.74	227.95
839.05	227.99
839.37	227.87
839.68	227.63
840.00	227.65
840.31	227.84
840.63	227.75
840.94	227.66
841.26	227.61
841.57	227.62
841.88	227.62
842.20	227.54
842.51	227.45
842.83	227.42
843.14	227.88
843.46	227.94
843.77	227.77
844.08	227.85
844.40	227.67
844.71	227.57
845.03	227.56
845.34	227.48
845.65	227.46
845.97	227.48
846.28	227.57
846.60	227.60
846.91	227.45
847.22	227.45
847.54	227.54
847.85	227.63
848.16	227.58
848.48	227.55
848.79	227.81
849.10	227.88
849.42	227.93
849.73	227.45
850.04	227.40
850.36	227.20
850.67	227.31
850.98	227.32
851.30	227.41
851.61	227.46
851.92	227.51
852.23	227.69
852.55	227.71
852.86	227.65
853.17	227.70
853.49	227.82
853.80	227.87
854.11	227.94
854.42	227.97
854.74	227.98
855.05	228.08
855.36	227.79
855.67	227.83
855.99	227.90
856.30	228.55
856.61	228.54
856.92	228.55
857.23	228.45
857.55	228.45
857.86	228.43
858.17	228.48
858.48	228.41
858.79	228.37
859.11	228.49
859.42	228.51
859.73	228.45
860.04	228.37
860.35	228.30
860.66	228.15
860.98	228.16
861.29	228.23
861.60	228.09
861.91	228.22
862.22	228.06
862.53	227.89
862.84	227.24
863.16	227.35
863.47	227.30
863.78	227.31
864.09	227.30
864.40	227.28
864.71	227.19
865.02	227.22
865.33	227.13
865.64	227.01
865.95	226.94
866.27	227.15
866.58	227.18
866.89	227.13
867.20	227.11
867.51	227.04
867.82	226.94
868.13	227.08
868.44	226.97
868.75	227.14
869.06	227.21
869.37	227.30
869.68	227.16
869.99	227.25
870.30	227.27
870.61	227.25
870.92	227.20
871.23	227.24
871.54	227.28
871.85	227.32
872.16	227.34
872.47	227.39
872.78	227.19
873.09	227.20
873.40	227.19
873.71	227.20
874.02	227.17
874.33	227.17
874.64	227.09
874.95	227.15
875.26	227.07
875.56	227.02
875.87	226.99
876.18	226.94
876.49	227.39
876.80	227.32
877.11	227.31
877.42	227.30
877.73	227.25
878.04	227.19
878.35	227.19
878.66	227.22
878.96	227.20
879.27	227.13
879.58	227.07
879.89	227.10
880.20	227.21
880.51	227.21
880.82	227.20
881.12	227.24
881.43	227.07
881.74	226.92
882.05	226.91
882.36	226.90
882.67	226.95
882.97	226.40
883.28	226.29
883.59	226.17
883.90	226.22
884.21	226.26
884.51	226.26
884.82	226.23
885.13	226.18
885.44	226.13
885.74	226.10
886.05	226.16
886.36	226.04
886.67	225.87
886.98	226.04
887.28	226.11
887.59	226.05
887.90	226.13
888.20	226.20
888.51	226.24
888.82	226.24
889.13	226.27
889.43	226.67
889.74	226.70
890.05	226.75
890.35	226.69
890.66	226.63
890.97	226.60
891.28	226.50
891.58	226.53
891.89	226.58
892.20	226.56
892.50	226.48
892.81	226.51
893.12	226.56
893.42	226.36
893.73	226.38
894.04	226.47
894.34	226.52
894.65	226.48
894.95	226.51
895.26	226.55
895.57	226.80
895.87	226.39
896.18	226.44
896.48	226.51
896.79	226.58
897.10	226.66
897.40	226.67
897.71	226.74
898.01	226.69
898.32	226.71
898.63	226.70
898.93	226.78
899.24	226.84
899.54	226.83
899.85	226.83
900.15	226.78
900.46	226.73
900.76	226.78
901.07	226.86
901.38	226.85
901.68	226.85
901.99	226.61
902.29	226.64
902.60	226.66
902.90	226.57
903.21	226.57
903.51	226.55
903.82	226.63
904.12	226.63
904.43	226.73
904.73	226.70
905.03	226.75
905.34	227.15
905.64	227.16
905.95	227.13
906.25	227.12
906.56	227.10
906.86	227.07
907.17	227.08
907.47	227.04
907.77	226.99
908.08	226.89
908.38	226.88
908.69	226.96
908.99	227.04
909.30	227.11
909.60	227.08
909.90	227.07
910.21	226.96
910.51	226.87
910.81	226.81
911.12	226.86
911.42	226.82
911.73	226.34
912.03	226.35
912.33	226.45
912.64	226.45
912.94	226.34
913.24	226.25
913.55	226.25
913.85	226.17
914.15	226.28
914.46	226.36
914.76	226.33
915.06	226.23
915.37	226.13
915.67	226.12
915.97	226.14
916.27	226.05
916.58	226.08
916.88	226.12
917.18	226.14
917.49	226.43
917.79	226.39
918.09	226.51
918.39	226.60
918.70	226.54
919.00	226.56
919.30	226.86
919.60	226.83
919.91	226.69
920.21	226.75
920.51	226.57
920.81	226.51
921.12	226.56
921.42	226.49
921.72	226.60
922.02	226.60
922.32	226.65
922.63	226.70
922.93	226.94
923.23	226.92
923.53	226.87
923.83	226.59
924.13	226.71
924.44	226.68
924.74	226.71
925.04	226.85
925.34	226.84
925.64	226.67
925.94	226.74
926.24	227.05
926.55	227.07
926.85	227.19
927.15	227.21
927.45	227.27
927.75	227.35
928.05	227.27
928.35	227.27
928.65	227.36
928.95	227.42
929.26	227.22
929.56	227.35
929.86	227.38
930.16	227.35
930.46	227.29
930.76	227.30
931.06	227.10
931.36	226.96
931.66	227.03
931.96	227.12
932.26	227.08
932.56	226.86
932.86	226.83
933.16	226.78
933.46	226.78
933.76	226.67
934.06	226.72
934.36	226.90
934.66	226.87
934.96	226.82
935.26	226.83
935.56	226.93
935.86	226.78
936.16	226.75
936.46	226.72
936.76	226.70
937.06	226.69
937.36	226.81
937.66	226.81
937.96	226.83
938.26	226.69
938.56	226.71
938.86	226.75
939.16	226.81
939.46	226.98
939.76	226.98
940.06	226.98
940.35	226.85
940.65	226.60
940.95	226.56
941.25	226.41
941.55	226.32
941.85	226.25
942.15	226.32
942.45	226.39
942.75	226.35
943.04	226.34
943.34	226.36
943.64	226.31
943.94	226.22
944.24	226.21
944.54	226.29
944.84	226.25
945.13	226.11
945.43	226.02
945.73	225.93
946.03	225.93
946.33	225.88
946.62	225.85
946.92	225.84
947.22	225.96
947.52	225.95
947.82	226.01
948.11	226.00
948.41	225.93
948.71	225.83
949.01	225.89
949.31	225.85
949.60	225.77
949.90	225.77
950.20	225.79
950.50	225.78
950.79	225.69
951.09	225.83
951.39	225.86
951.69	225.92
951.98	225.97
952.28	225.96
952.58	225.99
952.87	226.05
953.17	226.13
953.47	226.02
953.76	226.07
954.06	225.95
954.36	225.87
954.66	225.87
954.95	226.00
955.25	226.01
955.55	226.07
955.84	226.02
956.14	226.09
956.44	226.20
956.73	226.13
957.03	226.15
957.32	226.05
957.62	226.02
957.92	226.06
958.21	225.95
958.51	226.50
958.81	226.51
959.10	226.53
959.40	226.73
959.69	226.81
959.99	226.95
960.29	227.01
960.58	227.03
960.88	227.17
961.17	227.17
961.47	227.26
961.76	227.21
962.06	227.32
962.36	227.29
962.65	227.33
962.95	227.35
963.24	227.29
963.54	227.38
963.83	227.45
964.13	227.42
964.42	227.38
964.72	227.00
965.01	227.08
965.31	227.07
965.60	226.85
965.90	227.18
966.19	226.99
966.49	226.96
966.78	226.90
967.08	226.88
967.37	226.88
967.67	226.78
967.96	226.91
968.26	226.92
968.55	226.95
968.85	226.91
969.14	226.92
969.43	226.98
969.73	226.91
970.02	226.85
970.32	226.81
970.61	226.87
970.91	226.73
971.20	226.65
971.49	226.58
971.79	226.65
972.08	226.24
972.38	226.27
972.67	226.31
972.96	226.39
973.26	226.35
973.55	226.44
973.85	226.45
974.14	226.40
974.43	226.41
974.73	226.37
975.02	226.31
975.31	226.33
975.61	226.40
975.90	226.38
976.19	226.36
976.49	226.45
976.78	226.50
977.07	226.47
977.37	226.47
977.66	226.58
977.95	226.47
978.24	226.57
978.54	226.70
978.83	226.64
979.12	226.68
979.42	226.71
979.71	226.60
980.00	226.54
980.29	226.56
980.59	226.53
980.88	226.66
981.17	226.64
981.46	226.58
981.76	226.48
982.05	226.60
982.34	226.65
982.63	226.57
982.93	226.50
983.22	226.66
983.51	226.71
983.80	226.81
984.09	226.93
984.39	226.83
984.68	226.75
984.97	226.80
985.26	226.71
985.55	226.65
985.85	226.53
986.14	226.60
986.43	226.68
986.72	226.55
987.01	226.32
987.30	226.35
987.59	226.37
987.89	226.44
988.18	226.40
988.47	226.35
988.76	226.35
989.05	226.34
989.34	226.32
989.63	226.39
989.92	226.24
990.22	226.14
990.51	226.19
990.80	226.15
991.09	226.23
991.38	226.28
991.67	226.21
991.96	226.20
992.25	226.22
992.54	226.11
992.83	226.19
993.12	226.23
993.41	226.28
993.70	226.51
993.99	226.63
994.28	226.67
994.58	226.82
994.87	226.78
995.16	226.81
995.45	226.69
995.74	226.63
996.03	226.76
996.32	226.91
996.61	227.02
996.90	227.02
997.19	226.93
997.48	226.96
997.77	227.01
998.06	227.06
998.34	226.98
998.63	227.03
998.92	227.00
999.21	227.06
999.50	227.09
999.79	226.92
1000.08	226.84
1000.37	226.76
1000.66	226.67
1000.95	226.68
1001.24	226.75
1001.53	226.87
1001.82	226.84
1002.11	226.80
1002.40	226.73
1002.68	226.88
1002.97	227.23
1003.26	227.26
1003.55	227.18
1003.84	227.22
1004.13	227.34
1004.42	227.40
1004.71	227.31
1004.99	227.30
1005.28	227.45
1005.57	227.38
1005.86	227.31
1006.15	227.27
1006.44	227.21
1006.72	227.32
1007.01	227.41
1007.30	227.35
1007.59	227.32
1007.88	227.24
1008.17	227.27
1008.45	227.25
1008.74	227.05
1009.03	226.82
1009.32	226.77
1009.60	226.79
1009.89	226.77
1010.18	226.56
1010.47	226.53
1010.76	226.56
1011.04	226.56
1011.33	226.50
1011.62	226.55
1011.91	226.57
1012.19	226.52
1012.48	226.58
1012.77	226.52
1013.05	226.66
1013.34	226.67
1013.63	226.58
1013.92	226.65
1014.20	226.50
1014.49	226.51
1014.78	226.50
1015.06	226.31
1015.35	226.30
1015.64	226.38
1015.92	226.41
1016.21	226.52
1016.50	226.52
1016.78	226.55
1017.07	226.63
1017.36	226.45
1017.64	226.34
1017.93	226.38
1018.22	226.35
1018.50	226.30
1018.79	226.29
1019.08	226.06
1019.36	226.05
1019.65	226.07
1019.93	226.19
1020.22	226.20
1020.51	226.42
1020.79	226.33
1021.08	225.10
1021.36	225.00
1021.65	227.00
1021.94	225.50
1022.22	226.55
1022.51	226.70
1022.79	228.55
1023.08	225.20
1023.36	231.85
1023.65	224.85
>>>>>End Processed Spectral Data<<<<<
