SpectraSuite Data File
++++++++++++++++++++++++++++++++++++
Date: Wed Sep 04 17:56:42 EDT 2013
User: lab3
Dark Spectrum Present: Yes
Reference Spectrum Present: No
Number of Sampled Component Spectra: 1
Spectrometers: USB2E7196
Integration Time (usec): 170000 (USB2E7196)
Spectra Averaged: 20 (USB2E7196)
Boxcar Smoothing: 10 (USB2E7196)
Correct for Electrical Dark: No (USB2E7196)
Strobe/Lamp Enabled: No (USB2E7196)
Correct for Detector Non-linearity: No (USB2E7196)
Correct for Stray Light: No (USB2E7196)
Number of Pixels in Processed Spectrum: 2048
>>>>>Begin Processed Spectral Data<<<<<
339.09	0.00
339.48	212.60
339.86	214.70
340.24	216.60
340.63	217.25
341.01	226.60
341.39	219.05
341.78	222.15
342.16	223.25
342.54	222.60
342.93	212.13
343.31	222.80
343.69	223.41
344.07	223.90
344.46	224.35
344.84	224.78
345.22	224.72
345.60	225.11
345.99	225.25
346.37	225.44
346.75	225.56
347.13	225.65
347.52	225.65
347.90	225.86
348.28	225.92
348.66	226.11
349.05	226.06
349.43	226.15
349.81	226.30
350.19	226.32
350.57	226.43
350.96	226.59
351.34	226.70
351.72	226.77
352.10	226.80
352.48	226.76
352.87	226.75
353.25	226.83
353.63	226.81
354.01	226.86
354.39	226.88
354.77	226.96
355.15	227.12
355.54	227.16
355.92	227.07
356.30	227.19
356.68	227.55
357.06	227.60
357.44	227.56
357.82	227.59
358.20	228.04
358.58	228.07
358.97	228.11
359.35	228.30
359.73	228.48
360.11	228.56
360.49	228.70
360.87	228.79
361.25	228.87
361.63	229.12
362.01	229.27
362.39	229.26
362.77	229.29
363.15	229.32
363.53	229.39
363.91	229.47
364.29	229.48
364.67	229.05
365.05	229.19
365.43	229.30
365.81	229.41
366.19	229.32
366.57	229.59
366.95	229.56
367.33	229.40
367.71	229.31
368.09	229.41
368.47	229.43
368.85	229.45
369.23	229.58
369.61	229.40
369.99	229.54
370.37	229.64
370.75	229.93
371.13	229.85
371.51	229.80
371.89	229.78
372.27	229.76
372.65	229.80
373.03	229.69
373.41	229.70
373.78	229.59
374.16	229.23
374.54	229.02
374.92	228.96
375.30	228.97
375.68	228.90
376.06	228.91
376.44	228.85
376.82	228.80
377.19	228.70
377.57	228.60
377.95	228.35
378.33	228.22
378.71	227.89
379.09	227.84
379.47	227.81
379.84	227.69
380.22	227.64
380.60	227.40
380.98	227.31
381.36	227.25
381.73	227.15
382.11	227.22
382.49	227.16
382.87	227.05
383.25	227.03
383.62	227.49
384.00	227.27
384.38	227.20
384.76	227.22
385.13	227.31
385.51	227.27
385.89	227.18
386.27	227.13
386.64	227.09
387.02	226.97
387.40	226.85
387.78	226.87
388.15	226.82
388.53	226.88
388.91	226.79
389.29	226.67
389.66	226.69
390.04	226.61
390.42	226.64
390.79	226.70
391.17	226.64
391.55	226.04
391.92	226.01
392.30	226.05
392.68	225.99
393.05	225.96
393.43	225.97
393.81	226.01
394.18	226.02
394.56	226.03
394.94	226.20
395.31	226.24
395.69	226.41
396.06	226.49
396.44	226.46
396.82	226.55
397.19	226.83
397.57	226.96
397.95	227.11
398.32	227.10
398.70	227.20
399.07	227.34
399.45	227.50
399.82	227.60
400.20	227.65
400.58	227.72
400.95	227.61
401.33	227.81
401.70	228.24
402.08	228.36
402.45	228.57
402.83	228.79
403.20	229.00
403.58	229.05
403.95	229.29
404.33	229.60
404.71	229.78
405.08	230.26
405.46	230.41
405.83	230.57
406.21	230.88
406.58	231.19
406.96	231.47
407.33	231.78
407.70	232.24
408.08	233.04
408.45	233.50
408.83	234.05
409.20	234.37
409.58	234.56
409.95	235.14
410.33	235.65
410.70	236.07
411.08	236.69
411.45	237.34
411.82	237.93
412.20	238.67
412.57	239.68
412.95	240.03
413.32	240.93
413.69	241.79
414.07	242.68
414.44	243.62
414.82	244.64
415.19	245.79
415.56	246.91
415.94	247.92
416.31	249.38
416.68	250.78
417.06	252.47
417.43	254.13
417.81	255.87
418.18	257.73
418.55	259.67
418.93	261.65
419.30	263.75
419.67	265.98
420.04	268.33
420.42	270.60
420.79	273.65
421.16	276.33
421.54	279.39
421.91	282.45
422.28	285.49
422.66	288.77
423.03	292.25
423.40	295.61
423.77	299.15
424.15	302.73
424.52	306.53
424.89	310.69
425.26	314.65
425.64	318.45
426.01	322.67
426.38	327.04
426.75	331.70
427.13	336.24
427.50	340.94
427.87	345.78
428.24	350.77
428.61	355.25
428.99	360.68
429.36	366.31
429.73	371.79
430.10	377.30
430.47	383.02
430.85	388.78
431.22	395.05
431.59	401.82
431.96	408.09
432.33	415.07
432.70	421.76
433.08	429.69
433.45	437.12
433.82	444.60
434.19	452.83
434.56	460.85
434.93	468.51
435.30	476.29
435.68	484.99
436.05	493.51
436.42	501.90
436.79	509.49
437.16	517.78
437.53	526.69
437.90	535.45
438.27	544.08
438.64	553.01
439.01	561.27
439.38	568.55
439.75	575.73
440.13	583.70
440.50	591.21
440.87	597.17
441.24	603.59
441.61	610.46
441.98	615.54
442.35	621.26
442.72	627.23
443.09	633.12
443.46	636.48
443.83	638.71
444.20	640.81
444.57	643.61
444.94	644.74
445.31	645.79
445.68	647.09
446.05	647.22
446.42	645.84
446.79	644.44
447.16	642.65
447.53	641.41
447.90	637.83
448.27	634.06
448.64	629.31
449.01	625.54
449.37	619.28
449.74	613.18
450.11	606.30
450.48	598.61
450.85	590.54
451.22	583.66
451.59	577.00
451.96	570.53
452.33	562.36
452.70	554.92
453.07	546.20
453.43	537.05
453.80	528.56
454.17	520.46
454.54	512.76
454.91	504.71
455.28	496.71
455.65	489.07
456.02	482.25
456.38	475.72
456.75	468.03
457.12	461.64
457.49	455.35
457.86	449.09
458.23	443.93
458.59	438.20
458.96	432.39
459.33	427.34
459.70	422.22
460.07	418.08
460.43	413.30
460.80	408.95
461.17	405.27
461.54	401.32
461.91	397.50
462.27	393.53
462.64	390.17
463.01	386.60
463.38	383.39
463.74	379.43
464.11	376.50
464.48	373.82
464.85	370.99
465.21	368.89
465.58	366.56
465.95	363.66
466.32	361.46
466.68	359.10
467.05	356.86
467.42	354.75
467.78	352.46
468.15	350.37
468.52	348.80
468.88	346.67
469.25	344.77
469.62	343.33
469.98	341.73
470.35	340.20
470.72	338.61
471.08	336.82
471.45	335.60
471.82	334.41
472.18	332.93
472.55	331.76
472.92	330.33
473.28	329.18
473.65	328.23
474.02	327.12
474.38	326.41
474.75	325.57
475.11	324.64
475.48	323.98
475.85	323.30
476.21	322.61
476.58	322.08
476.94	321.65
477.31	321.11
477.67	320.70
478.04	320.36
478.41	320.13
478.77	320.37
479.14	320.08
479.50	319.89
479.87	319.88
480.23	319.96
480.60	320.00
480.96	320.00
481.33	320.31
481.69	320.59
482.06	320.77
482.42	321.09
482.79	321.47
483.15	321.90
483.52	322.56
483.88	322.96
484.25	323.55
484.61	324.22
484.98	324.96
485.34	326.02
485.71	326.98
486.07	327.85
486.44	328.49
486.80	329.48
487.17	330.56
487.53	332.00
487.90	333.38
488.26	335.09
488.62	336.76
488.99	338.22
489.35	339.99
489.72	341.90
490.08	343.88
490.44	345.86
490.81	348.11
491.17	350.38
491.54	352.90
491.90	355.55
492.26	358.22
492.63	360.90
492.99	363.66
493.36	366.76
493.72	370.21
494.08	373.64
494.45	377.29
494.81	381.18
495.17	385.01
495.54	389.14
495.90	393.28
496.26	397.60
496.63	402.29
496.99	407.09
497.35	412.12
497.72	417.31
498.08	422.71
498.44	428.49
498.80	434.54
499.17	440.71
499.53	446.78
499.89	453.52
500.26	460.52
500.62	467.38
500.98	474.82
501.34	482.30
501.71	490.04
502.07	497.92
502.43	506.09
502.79	514.58
503.16	523.31
503.52	532.36
503.88	541.64
504.24	551.37
504.60	561.24
504.97	571.51
505.33	581.96
505.69	593.25
506.05	604.16
506.41	615.34
506.78	626.96
507.14	639.00
507.50	651.28
507.86	663.85
508.22	676.93
508.59	689.90
508.95	703.59
509.31	717.68
509.67	732.03
510.03	746.26
510.39	760.86
510.75	775.71
511.12	790.97
511.48	806.80
511.84	822.65
512.20	838.68
512.56	854.96
512.92	871.90
513.28	888.57
513.64	905.90
514.00	923.35
514.37	941.16
514.73	959.50
515.09	977.68
515.45	996.02
515.81	1014.60
516.17	1033.40
516.53	1052.17
516.89	1071.03
517.25	1090.52
517.61	1110.92
517.97	1131.49
518.33	1151.59
518.69	1171.90
519.05	1192.35
519.41	1213.02
519.77	1234.15
520.13	1254.87
520.49	1275.35
520.85	1297.66
521.21	1318.63
521.57	1339.97
521.93	1360.79
522.29	1381.95
522.65	1402.68
523.01	1423.63
523.37	1444.21
523.73	1465.19
524.09	1485.92
524.45	1506.86
524.81	1527.69
525.17	1548.32
525.53	1568.60
525.89	1589.62
526.25	1610.46
526.61	1631.06
526.97	1651.95
527.33	1673.20
527.68	1695.24
528.04	1716.67
528.40	1736.15
528.76	1757.23
529.12	1777.65
529.48	1798.42
529.84	1818.43
530.20	1839.55
530.56	1860.45
530.91	1881.18
531.27	1901.76
531.63	1921.84
531.99	1942.20
532.35	1962.31
532.71	1982.28
533.07	2003.06
533.42	2022.81
533.78	2042.80
534.14	2062.48
534.50	2081.45
534.86	2100.77
535.21	2118.15
535.57	2136.71
535.93	2154.73
536.29	2172.86
536.65	2191.01
537.00	2208.73
537.36	2226.50
537.72	2243.15
538.08	2260.36
538.44	2277.59
538.79	2294.05
539.15	2310.95
539.51	2326.61
539.87	2341.53
540.22	2355.72
540.58	2369.88
540.94	2383.51
541.29	2396.28
541.65	2408.89
542.01	2421.87
542.37	2432.24
542.72	2443.63
543.08	2454.30
543.44	2465.97
543.79	2475.72
544.15	2485.72
544.51	2495.76
544.87	2505.28
545.22	2514.05
545.58	2522.03
545.94	2529.07
546.29	2535.83
546.65	2542.55
547.01	2548.40
547.36	2554.36
547.72	2560.17
548.07	2564.09
548.43	2569.53
548.79	2574.15
549.14	2578.41
549.50	2582.32
549.86	2586.46
550.21	2589.86
550.57	2593.26
550.92	2594.85
551.28	2596.35
551.64	2598.63
551.99	2600.55
552.35	2602.05
552.70	2603.92
553.06	2605.23
553.41	2606.55
553.77	2608.01
554.13	2609.33
554.48	2610.96
554.84	2612.13
555.19	2612.88
555.55	2615.01
555.90	2614.03
556.26	2612.83
556.61	2611.14
556.97	2608.62
557.32	2607.86
557.68	2606.93
558.03	2605.48
558.39	2603.70
558.74	2602.94
559.10	2599.57
559.45	2596.06
559.81	2591.77
560.16	2586.90
560.52	2582.17
560.87	2577.61
561.23	2571.95
561.58	2565.83
561.94	2558.79
562.29	2551.22
562.64	2544.43
563.00	2535.88
563.35	2529.63
563.71	2523.50
564.06	2517.47
564.42	2510.91
564.77	2504.06
565.12	2496.41
565.48	2488.42
565.83	2480.76
566.19	2472.50
566.54	2465.00
566.89	2456.76
567.25	2449.00
567.60	2441.77
567.96	2434.18
568.31	2426.15
568.66	2417.92
569.02	2408.94
569.37	2401.18
569.72	2393.80
570.08	2384.57
570.43	2375.15
570.78	2365.88
571.14	2356.21
571.49	2345.93
571.84	2336.34
572.20	2325.34
572.55	2315.32
572.90	2304.60
573.26	2294.05
573.61	2283.01
573.96	2271.67
574.31	2259.95
574.67	2248.49
575.02	2235.57
575.37	2223.00
575.72	2209.57
576.08	2197.46
576.43	2185.01
576.78	2171.62
577.13	2158.13
577.49	2145.33
577.84	2133.54
578.19	2121.32
578.54	2108.63
578.90	2096.64
579.25	2084.39
579.60	2071.98
579.95	2058.95
580.30	2046.10
580.66	2033.16
581.01	2019.58
581.36	2005.74
581.71	1993.11
582.06	1979.90
582.42	1967.55
582.77	1954.79
583.12	1943.07
583.47	1930.44
583.82	1918.38
584.17	1906.63
584.53	1894.63
584.88	1881.99
585.23	1868.76
585.58	1854.43
585.93	1841.27
586.28	1827.70
586.63	1813.88
586.98	1799.84
587.34	1786.56
587.69	1772.90
588.04	1760.09
588.39	1748.15
588.74	1735.79
589.09	1723.48
589.44	1710.59
589.79	1698.45
590.14	1686.34
590.49	1674.03
590.84	1662.09
591.19	1650.10
591.54	1637.70
591.89	1625.49
592.25	1614.95
592.60	1603.43
592.95	1592.11
593.30	1580.08
593.65	1568.28
594.00	1556.16
594.35	1546.10
594.70	1534.16
595.05	1522.83
595.40	1510.61
595.75	1498.51
596.10	1487.38
596.45	1475.85
596.80	1465.11
597.15	1453.37
597.50	1441.53
597.85	1430.21
598.19	1418.66
598.54	1406.88
598.89	1395.55
599.24	1384.99
599.59	1373.43
599.94	1362.57
600.29	1352.19
600.64	1341.96
600.99	1331.38
601.34	1321.85
601.69	1310.60
602.04	1300.81
602.39	1291.09
602.74	1282.07
603.08	1272.87
603.43	1263.54
603.78	1253.90
604.13	1244.17
604.48	1234.64
604.83	1225.21
605.18	1215.42
605.53	1205.88
605.87	1196.78
606.22	1188.15
606.57	1178.86
606.92	1169.22
607.27	1160.25
607.62	1151.38
607.96	1142.85
608.31	1134.88
608.66	1126.36
609.01	1117.93
609.36	1109.36
609.70	1100.99
610.05	1092.21
610.40	1083.48
610.75	1074.71
611.10	1066.06
611.44	1057.63
611.79	1049.43
612.14	1041.35
612.49	1033.57
612.83	1026.07
613.18	1018.28
613.53	1010.67
613.88	1002.66
614.22	995.17
614.57	987.40
614.92	979.52
615.27	971.94
615.61	964.17
615.96	956.58
616.31	949.08
616.65	942.12
617.00	934.75
617.35	927.39
617.70	920.49
618.04	913.14
618.39	906.32
618.74	899.84
619.08	893.21
619.43	886.23
619.78	879.21
620.12	872.02
620.47	865.01
620.82	857.68
621.16	850.94
621.51	844.48
621.85	838.03
622.20	831.36
622.55	824.61
622.89	818.00
623.24	811.54
623.59	805.22
623.93	798.80
624.28	792.40
624.62	786.92
624.97	780.91
625.32	775.45
625.66	769.47
626.01	763.36
626.35	757.59
626.70	751.90
627.04	746.51
627.39	740.85
627.73	735.56
628.08	730.45
628.43	724.92
628.77	719.38
629.12	714.08
629.46	709.39
629.81	704.58
630.15	699.75
630.50	694.73
630.84	689.74
631.19	685.00
631.53	680.58
631.88	675.18
632.22	670.28
632.57	665.56
632.91	660.87
633.26	656.45
633.60	651.72
633.95	647.07
634.29	642.38
634.64	637.92
634.98	633.02
635.32	628.60
635.67	624.80
636.01	620.72
636.36	616.43
636.70	612.41
637.05	608.30
637.39	604.27
637.73	600.33
638.08	596.46
638.42	592.22
638.77	587.78
639.11	583.58
639.45	579.25
639.80	574.97
640.14	570.86
640.49	566.70
640.83	562.99
641.17	559.51
641.52	555.72
641.86	552.18
642.20	549.16
642.55	545.43
642.89	541.47
643.23	538.00
643.58	534.86
643.92	531.08
644.26	527.71
644.61	524.48
644.95	521.07
645.29	517.70
645.64	514.43
645.98	511.45
646.32	508.54
646.66	505.57
647.01	502.59
647.35	499.90
647.69	497.03
648.04	494.09
648.38	491.26
648.72	488.43
649.06	485.45
649.41	482.37
649.75	479.42
650.09	476.77
650.43	473.79
650.78	470.87
651.12	468.24
651.46	465.47
651.80	462.60
652.14	459.98
652.49	457.35
652.83	454.84
653.17	452.13
653.51	449.47
653.85	447.02
654.20	444.59
654.54	441.90
654.88	439.34
655.22	437.15
655.56	434.60
655.90	432.29
656.25	430.08
656.59	427.74
656.93	425.70
657.27	423.55
657.61	421.17
657.95	418.77
658.29	416.45
658.64	414.39
658.98	412.18
659.32	409.87
659.66	407.73
660.00	405.48
660.34	403.37
660.68	401.24
661.02	399.22
661.36	397.23
661.70	395.33
662.05	393.32
662.39	391.28
662.73	389.50
663.07	387.84
663.41	385.90
663.75	384.04
664.09	382.08
664.43	380.07
664.77	378.45
665.11	376.79
665.45	375.10
665.79	373.35
666.13	371.55
666.47	369.88
666.81	368.16
667.15	366.50
667.49	365.06
667.83	363.71
668.17	362.08
668.51	360.52
668.85	359.09
669.19	358.03
669.53	356.46
669.87	354.92
670.21	353.31
670.55	351.91
670.89	350.79
671.23	349.38
671.57	347.95
671.91	346.61
672.25	345.24
672.58	344.02
672.92	342.54
673.26	341.38
673.60	340.23
673.94	339.07
674.28	338.01
674.62	336.78
674.96	335.52
675.30	334.42
675.64	333.29
675.97	332.16
676.31	330.69
676.65	329.57
676.99	328.58
677.33	327.44
677.67	326.36
678.01	325.00
678.34	324.03
678.68	323.19
679.02	322.17
679.36	321.17
679.70	320.22
680.04	319.32
680.37	318.39
680.71	317.34
681.05	316.39
681.39	315.41
681.73	314.47
682.06	313.50
682.40	312.63
682.74	311.77
683.08	310.95
683.42	310.05
683.75	309.25
684.09	308.30
684.43	307.47
684.77	306.59
685.10	305.90
685.44	305.10
685.78	304.20
686.12	303.42
686.45	302.64
686.79	301.70
687.13	300.99
687.46	300.19
687.80	299.57
688.14	298.74
688.48	298.04
688.81	297.25
689.15	296.65
689.49	295.90
689.82	295.22
690.16	294.34
690.50	293.70
690.83	292.91
691.17	292.15
691.51	291.47
691.84	290.82
692.18	290.03
692.52	289.32
692.85	288.75
693.19	288.27
693.52	287.63
693.86	287.05
694.20	286.42
694.53	285.86
694.87	285.19
695.21	284.59
695.54	283.92
695.88	283.30
696.21	282.54
696.55	281.97
696.88	281.32
697.22	280.67
697.56	280.17
697.89	279.61
698.23	279.20
698.56	278.65
698.90	278.19
699.23	277.68
699.57	277.15
699.90	276.58
700.24	275.95
700.58	275.51
700.91	275.06
701.25	274.95
701.58	274.78
701.92	274.44
702.25	274.00
702.59	273.55
702.92	273.16
703.26	272.83
703.59	272.36
703.93	272.32
704.26	272.01
704.60	271.59
704.93	271.14
705.26	270.61
705.60	270.27
705.93	269.76
706.27	269.42
706.60	269.20
706.94	268.96
707.27	268.50
707.61	268.12
707.94	267.69
708.27	266.93
708.61	266.13
708.94	265.63
709.28	265.32
709.61	264.95
709.94	264.63
710.28	264.20
710.61	263.86
710.95	263.02
711.28	263.02
711.61	262.58
711.95	262.30
712.28	261.85
712.61	261.36
712.95	261.24
713.28	261.12
713.61	260.61
713.95	260.12
714.28	259.80
714.61	259.46
714.95	259.10
715.28	258.70
715.61	258.41
715.95	258.16
716.28	257.70
716.61	257.47
716.95	256.95
717.28	256.66
717.61	256.26
717.94	256.00
718.28	255.32
718.61	255.08
718.94	254.69
719.27	254.45
719.61	254.37
719.94	254.02
720.27	253.50
720.60	253.21
720.94	252.95
721.27	252.74
721.60	252.55
721.93	252.27
722.27	252.16
722.60	252.00
722.93	251.68
723.26	251.56
723.59	251.21
723.93	251.18
724.26	250.99
724.59	250.87
724.92	250.70
725.25	250.65
725.59	250.30
725.92	250.22
726.25	250.06
726.58	249.82
726.91	249.56
727.24	249.49
727.57	249.40
727.91	249.13
728.24	249.03
728.57	248.76
728.90	248.67
729.23	248.35
729.56	248.38
729.89	248.23
730.22	248.02
730.55	247.93
730.89	247.75
731.22	247.59
731.55	247.37
731.88	247.29
732.21	246.93
732.54	246.82
732.87	246.65
733.20	246.54
733.53	246.37
733.86	246.31
734.19	246.06
734.52	245.89
734.85	246.15
735.18	245.86
735.51	245.91
735.84	245.80
736.17	245.81
736.50	245.38
736.83	245.77
737.16	245.66
737.49	245.50
737.82	245.37
738.15	245.30
738.48	245.18
738.81	245.07
739.14	245.00
739.47	244.86
739.80	244.67
740.13	244.55
740.46	244.34
740.79	244.15
741.12	243.99
741.45	243.81
741.78	243.36
742.11	243.39
742.44	243.12
742.77	243.08
743.10	242.90
743.43	242.82
743.75	242.16
744.08	242.62
744.41	242.44
744.74	242.29
745.07	242.04
745.40	242.00
745.73	241.97
746.06	241.86
746.39	241.86
746.71	241.73
747.04	241.55
747.37	241.39
747.70	241.31
748.03	241.15
748.36	241.10
748.68	240.97
749.01	240.69
749.34	240.54
749.67	240.34
750.00	240.22
750.33	240.44
750.65	240.41
750.98	239.67
751.31	239.56
751.64	239.46
751.97	239.55
752.29	239.38
752.62	239.02
752.95	238.88
753.28	238.65
753.60	238.54
753.93	238.41
754.26	238.41
754.59	238.18
754.91	238.09
755.24	237.93
755.57	237.86
755.90	237.74
756.22	237.60
756.55	237.38
756.88	237.21
757.20	236.74
757.53	236.46
757.86	236.35
758.19	236.34
758.51	236.20
758.84	235.91
759.17	235.77
759.49	235.67
759.82	235.79
760.15	235.77
760.47	235.67
760.80	235.46
761.13	235.38
761.45	235.30
761.78	235.24
762.11	235.20
762.43	235.07
762.76	234.97
763.08	234.93
763.41	234.92
763.74	234.87
764.06	234.81
764.39	234.76
764.71	234.73
765.04	234.57
765.37	234.43
765.69	234.35
766.02	234.20
766.34	234.08
766.67	233.78
767.00	233.69
767.32	233.89
767.65	234.19
767.97	234.12
768.30	234.08
768.62	233.97
768.95	233.83
769.27	233.67
769.60	233.75
769.92	233.59
770.25	233.42
770.57	233.18
770.90	233.05
771.22	232.97
771.55	232.87
771.87	232.86
772.20	232.85
772.52	233.21
772.85	233.71
773.17	233.74
773.50	233.69
773.82	233.61
774.15	233.26
774.47	232.96
774.80	232.84
775.12	232.77
775.45	232.70
775.77	232.69
776.09	232.67
776.42	232.58
776.74	232.67
777.07	232.62
777.39	232.67
777.72	232.60
778.04	232.60
778.36	232.59
778.69	232.59
779.01	232.55
779.33	232.08
779.66	231.49
779.98	231.36
780.31	231.36
780.63	231.56
780.95	231.59
781.28	231.50
781.60	231.44
781.92	231.28
782.25	231.26
782.57	231.16
782.89	231.13
783.22	231.00
783.54	230.87
783.86	230.90
784.19	230.90
784.51	231.06
784.83	230.93
785.16	230.82
785.48	230.69
785.80	230.75
786.12	230.81
786.45	230.85
786.77	230.94
787.09	230.81
787.42	230.58
787.74	230.60
788.06	230.59
788.38	230.55
788.71	230.51
789.03	230.46
789.35	230.52
789.67	230.47
789.99	230.47
790.32	230.44
790.64	230.36
790.96	230.65
791.28	230.44
791.61	230.46
791.93	230.53
792.25	230.48
792.57	230.71
792.89	230.52
793.21	230.51
793.54	230.45
793.86	230.47
794.18	230.44
794.50	230.31
794.82	230.24
795.14	230.31
795.47	230.40
795.79	230.40
796.11	230.30
796.43	230.30
796.75	230.25
797.07	230.21
797.39	230.20
797.71	229.92
798.04	229.89
798.36	229.83
798.68	229.75
799.00	229.71
799.32	229.43
799.64	229.51
799.96	229.42
800.28	229.45
800.60	229.40
800.92	229.44
801.24	229.40
801.56	229.45
801.89	229.40
802.21	229.45
802.53	229.35
802.85	229.38
803.17	229.59
803.49	229.51
803.81	229.47
804.13	229.44
804.45	229.36
804.77	229.43
805.09	229.41
805.41	229.37
805.73	229.27
806.05	229.18
806.37	229.14
806.69	229.10
807.01	229.07
807.33	229.05
807.65	228.86
807.97	229.06
808.28	228.96
808.60	228.93
808.92	228.85
809.24	229.17
809.56	229.14
809.88	228.90
810.20	228.93
810.52	229.03
810.84	228.97
811.16	228.90
811.48	228.91
811.80	229.10
812.12	229.01
812.43	229.12
812.75	229.08
813.07	229.04
813.39	229.14
813.71	229.07
814.03	229.01
814.35	229.03
814.67	228.85
814.98	228.81
815.30	228.77
815.62	228.66
815.94	228.34
816.26	228.48
816.58	228.40
816.89	228.37
817.21	228.21
817.53	228.19
817.85	228.16
818.17	228.10
818.48	227.99
818.80	228.18
819.12	228.17
819.44	228.10
819.76	228.02
820.07	227.87
820.39	227.79
820.71	227.88
821.03	227.93
821.34	227.86
821.66	227.94
821.98	228.04
822.30	227.98
822.61	228.25
822.93	228.03
823.25	228.02
823.57	228.05
823.88	228.19
824.20	228.18
824.52	228.26
824.83	228.23
825.15	228.08
825.47	228.08
825.79	228.10
826.10	228.08
826.42	228.08
826.74	228.14
827.05	228.19
827.37	228.14
827.69	228.09
828.00	228.13
828.32	228.18
828.64	228.06
828.95	228.37
829.27	228.22
829.58	228.22
829.90	228.32
830.22	228.36
830.53	228.25
830.85	228.27
831.17	228.20
831.48	228.18
831.80	228.27
832.11	228.16
832.43	228.09
832.75	228.13
833.06	228.43
833.38	228.34
833.69	228.24
834.01	228.28
834.32	228.34
834.64	228.30
834.96	228.21
835.27	228.22
835.59	228.06
835.90	228.01
836.22	227.98
836.53	227.87
836.85	227.84
837.16	228.31
837.48	228.34
837.79	228.44
838.11	228.49
838.42	228.48
838.74	228.53
839.05	228.45
839.37	228.43
839.68	228.10
840.00	228.12
840.31	228.25
840.63	228.21
840.94	228.10
841.26	227.99
841.57	228.01
841.88	228.07
842.20	227.98
842.51	227.95
842.83	227.97
843.14	228.42
843.46	228.42
843.77	228.13
844.08	228.08
844.40	227.96
844.71	227.87
845.03	227.79
845.34	227.72
845.65	227.73
845.97	227.73
846.28	227.74
846.60	227.76
846.91	227.60
847.22	227.54
847.54	227.63
847.85	227.66
848.16	227.60
848.48	227.46
848.79	227.65
849.10	227.68
849.42	227.73
849.73	227.23
850.04	227.17
850.36	226.99
850.67	227.09
850.98	227.07
851.30	227.10
851.61	227.15
851.92	227.16
852.23	227.31
852.55	227.38
852.86	227.47
853.17	227.53
853.49	227.74
853.80	227.88
854.11	227.97
854.42	228.08
854.74	228.06
855.05	228.15
855.36	227.84
855.67	227.80
855.99	227.76
856.30	228.34
856.61	228.30
856.92	228.29
857.23	228.30
857.55	228.25
857.86	228.21
858.17	228.22
858.48	228.13
858.79	228.02
859.11	227.98
859.42	227.90
859.73	227.84
860.04	227.73
860.35	227.52
860.66	227.30
860.98	227.27
861.29	227.32
861.60	227.24
861.91	227.39
862.22	227.30
862.53	227.24
862.84	226.67
863.16	226.80
863.47	226.77
863.78	226.68
864.09	226.71
864.40	226.78
864.71	226.77
865.02	226.80
865.33	226.75
865.64	226.65
865.95	226.67
866.27	226.98
866.58	226.99
866.89	227.08
867.20	227.09
867.51	227.02
867.82	227.05
868.13	227.19
868.44	227.08
868.75	227.20
869.06	227.24
869.37	227.29
869.68	227.15
869.99	227.15
870.30	227.22
870.61	227.28
870.92	227.15
871.23	227.18
871.54	227.25
871.85	227.33
872.16	227.41
872.47	227.38
872.78	227.06
873.09	227.13
873.40	227.12
873.71	227.14
874.02	227.16
874.33	227.13
874.64	227.00
874.95	227.10
875.26	226.98
875.56	226.96
875.87	226.94
876.18	226.85
876.49	227.38
876.80	227.34
877.11	227.24
877.42	227.34
877.73	227.29
878.04	227.16
878.35	227.19
878.66	227.28
878.96	227.26
879.27	227.25
879.58	227.15
879.89	227.09
880.20	227.21
880.51	227.12
880.82	227.11
881.12	227.17
881.43	227.06
881.74	227.09
882.05	227.05
882.36	227.07
882.67	227.18
882.97	226.62
883.28	226.56
883.59	226.55
883.90	226.52
884.21	226.66
884.51	226.64
884.82	226.58
885.13	226.54
885.44	226.48
885.74	226.44
886.05	226.45
886.36	226.44
886.67	226.24
886.98	226.53
887.28	226.49
887.59	226.50
887.90	226.55
888.20	226.44
888.51	226.50
888.82	226.42
889.13	226.41
889.43	226.85
889.74	226.85
890.05	226.81
890.35	226.74
890.66	226.59
890.97	226.55
891.28	226.51
891.58	226.50
891.89	226.53
892.20	226.57
892.50	226.56
892.81	226.54
893.12	226.59
893.42	226.28
893.73	226.32
894.04	226.30
894.34	226.33
894.65	226.38
894.95	226.34
895.26	226.35
895.57	226.65
895.87	226.17
896.18	226.23
896.48	226.26
896.79	226.34
897.10	226.39
897.40	226.48
897.71	226.52
898.01	226.45
898.32	226.47
898.63	226.45
898.93	226.43
899.24	226.47
899.54	226.44
899.85	226.46
900.15	226.36
900.46	226.25
900.76	226.28
901.07	226.27
901.38	226.21
901.68	226.30
901.99	226.02
902.29	226.06
902.60	225.97
902.90	226.01
903.21	225.95
903.51	226.06
903.82	226.11
904.12	226.12
904.43	226.18
904.73	226.20
905.03	226.25
905.34	226.69
905.64	226.64
905.95	226.68
906.25	226.73
906.56	226.79
906.86	226.89
907.17	226.85
907.47	226.88
907.77	226.93
908.08	226.84
908.38	226.88
908.69	226.95
908.99	227.05
909.30	227.09
909.60	227.05
909.90	227.00
910.21	226.86
910.51	226.79
910.81	226.82
911.12	226.81
911.42	226.75
911.73	226.30
912.03	226.42
912.33	226.43
912.64	226.50
912.94	226.40
913.24	226.27
913.55	226.26
913.85	226.27
914.15	226.35
914.46	226.42
914.76	226.34
915.06	226.29
915.37	226.20
915.67	226.18
915.97	226.26
916.27	226.14
916.58	226.20
916.88	226.18
917.18	226.14
917.49	226.47
917.79	226.46
918.09	226.54
918.39	226.60
918.70	226.56
919.00	226.51
919.30	226.73
919.60	226.71
919.91	226.63
920.21	226.55
920.51	226.45
920.81	226.40
921.12	226.51
921.42	226.48
921.72	226.48
922.02	226.49
922.32	226.52
922.63	226.59
922.93	226.76
923.23	226.78
923.53	226.71
923.83	226.39
924.13	226.45
924.44	226.44
924.74	226.51
925.04	226.63
925.34	226.58
925.64	226.46
925.94	226.57
926.24	226.84
926.55	226.90
926.85	226.96
927.15	226.93
927.45	226.89
927.75	226.93
928.05	226.89
928.35	226.76
928.65	226.75
928.95	226.73
929.26	226.59
929.56	226.66
929.86	226.71
930.16	226.66
930.46	226.59
930.76	226.58
931.06	226.40
931.36	226.30
931.66	226.37
931.96	226.39
932.26	226.35
932.56	226.25
932.86	226.31
933.16	226.34
933.46	226.31
933.76	226.29
934.06	226.40
934.36	226.64
934.66	226.61
934.96	226.66
935.26	226.66
935.56	226.76
935.86	226.66
936.16	226.61
936.46	226.60
936.76	226.64
937.06	226.53
937.36	226.52
937.66	226.52
937.96	226.50
938.26	226.46
938.56	226.45
938.86	226.41
939.16	226.45
939.46	226.44
939.76	226.50
940.06	226.48
940.35	226.37
940.65	226.13
940.95	226.29
941.25	226.12
941.55	226.11
941.85	226.08
942.15	226.15
942.45	226.29
942.75	226.29
943.04	226.27
943.34	226.49
943.64	226.51
943.94	226.46
944.24	226.51
944.54	226.50
944.84	226.52
945.13	226.43
945.43	226.38
945.73	226.44
946.03	226.37
946.33	226.35
946.62	226.30
946.92	226.33
947.22	226.38
947.52	226.46
947.82	226.55
948.11	226.42
948.41	226.40
948.71	226.26
949.01	226.29
949.31	226.23
949.60	226.15
949.90	226.14
950.20	226.10
950.50	226.06
950.79	226.03
951.09	226.09
951.39	226.08
951.69	225.95
951.98	225.97
952.28	226.04
952.58	226.04
952.87	226.02
953.17	226.08
953.47	225.99
953.76	225.94
954.06	225.84
954.36	225.81
954.66	225.80
954.95	225.89
955.25	225.94
955.55	226.03
955.84	225.89
956.14	225.94
956.44	225.98
956.73	225.86
957.03	225.90
957.32	225.92
957.62	225.94
957.92	226.13
958.21	226.08
958.51	226.62
958.81	226.67
959.10	226.73
959.40	226.79
959.69	226.82
959.99	226.90
960.29	226.90
960.58	226.94
960.88	227.07
961.17	227.02
961.47	227.04
961.76	227.00
962.06	227.15
962.36	227.08
962.65	227.12
962.95	227.26
963.24	227.16
963.54	227.08
963.83	227.11
964.13	226.98
964.42	226.89
964.72	226.45
965.01	226.38
965.31	226.30
965.60	226.22
965.90	226.47
966.19	226.28
966.49	226.32
966.78	226.30
967.08	226.26
967.37	226.27
967.67	226.13
967.96	226.17
968.26	226.13
968.55	226.15
968.85	226.14
969.14	226.05
969.43	226.15
969.73	226.12
970.02	226.09
970.32	226.09
970.61	226.01
970.91	225.93
971.20	225.98
971.49	225.96
971.79	226.00
972.08	225.66
972.38	225.84
972.67	225.80
972.96	225.80
973.26	225.68
973.55	225.88
973.85	225.95
974.14	226.00
974.43	226.01
974.73	225.95
975.02	225.87
975.31	225.95
975.61	225.90
975.90	225.90
976.19	225.96
976.49	226.05
976.78	226.12
977.07	226.11
977.37	226.14
977.66	226.25
977.95	226.18
978.24	226.26
978.54	226.35
978.83	226.33
979.12	226.35
979.42	226.47
979.71	226.39
980.00	226.42
980.29	226.35
980.59	226.32
980.88	226.46
981.17	226.42
981.46	226.37
981.76	226.36
982.05	226.53
982.34	226.53
982.63	226.50
982.93	226.54
983.22	226.68
983.51	226.70
983.80	226.77
984.09	226.84
984.39	226.72
984.68	226.65
984.97	226.62
985.26	226.57
985.55	226.60
985.85	226.45
986.14	226.45
986.43	226.50
986.72	226.42
987.01	226.29
987.30	226.42
987.59	226.45
987.89	226.51
988.18	226.30
988.47	226.16
988.76	226.10
989.05	226.00
989.34	225.92
989.63	225.97
989.92	225.87
990.22	225.79
990.51	225.85
990.80	225.80
991.09	225.93
991.38	226.01
991.67	225.97
991.96	225.94
992.25	225.95
992.54	225.92
992.83	225.96
993.12	225.95
993.41	225.99
993.70	226.11
993.99	226.22
994.28	226.39
994.58	226.53
994.87	226.54
995.16	226.62
995.45	226.59
995.74	226.44
996.03	226.51
996.32	226.59
996.61	226.70
996.90	226.69
997.19	226.62
997.48	226.61
997.77	226.47
998.06	226.51
998.34	226.57
998.63	226.58
998.92	226.64
999.21	226.68
999.50	226.73
999.79	226.57
1000.08	226.51
1000.37	226.47
1000.66	226.43
1000.95	226.47
1001.24	226.48
1001.53	226.47
1001.82	226.48
1002.11	226.34
1002.40	226.40
1002.68	226.48
1002.97	226.81
1003.26	226.73
1003.55	226.63
1003.84	226.69
1004.13	226.89
1004.42	226.78
1004.71	226.71
1004.99	226.66
1005.28	226.84
1005.57	226.78
1005.86	226.77
1006.15	226.70
1006.44	226.64
1006.72	226.66
1007.01	226.60
1007.30	226.58
1007.59	226.57
1007.88	226.50
1008.17	226.60
1008.45	226.48
1008.74	226.32
1009.03	226.14
1009.32	226.21
1009.60	226.19
1009.89	226.17
1010.18	225.98
1010.47	226.03
1010.76	226.05
1011.04	226.02
1011.33	225.97
1011.62	226.01
1011.91	226.01
1012.19	226.06
1012.48	226.15
1012.77	226.15
1013.05	226.39
1013.34	226.45
1013.63	226.45
1013.92	226.53
1014.20	226.45
1014.49	226.50
1014.78	226.56
1015.06	226.38
1015.35	226.36
1015.64	226.52
1015.92	226.56
1016.21	226.63
1016.50	226.63
1016.78	226.70
1017.07	226.81
1017.36	226.72
1017.64	226.62
1017.93	226.71
1018.22	226.70
1018.50	226.66
1018.79	226.63
1019.08	226.47
1019.36	226.47
1019.65	226.38
1019.93	226.54
1020.22	226.60
1020.51	226.86
1020.79	226.77
1021.08	226.35
1021.36	226.20
1021.65	225.75
1021.94	227.50
1022.22	226.85
1022.51	224.90
1022.79	228.45
1023.08	226.25
1023.36	232.25
1023.65	225.35
>>>>>End Processed Spectral Data<<<<<
