SpectraSuite Data File
++++++++++++++++++++++++++++++++++++
Date: Wed Sep 04 17:49:05 EDT 2013
User: lab3
Dark Spectrum Present: Yes
Reference Spectrum Present: No
Number of Sampled Component Spectra: 1
Spectrometers: USB2E7196
Integration Time (usec): 170000 (USB2E7196)
Spectra Averaged: 20 (USB2E7196)
Boxcar Smoothing: 10 (USB2E7196)
Correct for Electrical Dark: No (USB2E7196)
Strobe/Lamp Enabled: No (USB2E7196)
Correct for Detector Non-linearity: No (USB2E7196)
Correct for Stray Light: No (USB2E7196)
Number of Pixels in Processed Spectrum: 2048
>>>>>Begin Processed Spectral Data<<<<<
339.09	0.00
339.48	213.80
339.86	213.85
340.24	215.15
340.63	217.10
341.01	225.90
341.39	219.80
341.78	221.30
342.16	223.50
342.54	222.85
342.93	211.93
343.31	222.59
343.69	223.07
344.07	223.61
344.46	224.19
344.84	224.62
345.22	224.61
345.60	224.92
345.99	225.15
346.37	225.28
346.75	225.36
347.13	225.50
347.52	225.59
347.90	225.85
348.28	225.87
348.66	226.12
349.05	225.95
349.43	226.02
349.81	226.03
350.19	226.00
350.57	226.06
350.96	226.14
351.34	226.30
351.72	226.42
352.10	226.50
352.48	226.39
352.87	226.40
353.25	226.41
353.63	226.44
354.01	226.51
354.39	226.56
354.77	226.60
355.15	226.72
355.54	226.75
355.92	226.55
356.30	226.66
356.68	226.95
357.06	227.08
357.44	227.10
357.82	227.22
358.20	227.74
358.58	227.69
358.97	227.75
359.35	227.85
359.73	228.00
360.11	228.00
360.49	228.12
360.87	228.15
361.25	228.26
361.63	228.45
362.01	228.43
362.39	228.42
362.77	228.54
363.15	228.55
363.53	228.55
363.91	228.68
364.29	228.68
364.67	228.24
365.05	228.31
365.43	228.44
365.81	228.57
366.19	228.42
366.57	228.71
366.95	228.77
367.33	228.72
367.71	228.72
368.09	228.90
368.47	228.98
368.85	229.04
369.23	229.17
369.61	229.00
369.99	229.17
370.37	229.26
370.75	229.49
371.13	229.43
371.51	229.43
371.89	229.45
372.27	229.47
372.65	229.47
373.03	229.44
373.41	229.38
373.78	229.29
374.16	229.06
374.54	228.80
374.92	228.64
375.30	228.53
375.68	228.38
376.06	228.30
376.44	228.17
376.82	228.13
377.19	228.00
377.57	227.96
377.95	227.74
378.33	227.65
378.71	227.32
379.09	227.25
379.47	227.23
379.84	227.15
380.22	226.98
380.60	226.88
380.98	226.74
381.36	226.65
381.73	226.45
382.11	226.42
382.49	226.42
382.87	226.32
383.25	226.33
383.62	226.85
384.00	226.62
384.38	226.56
384.76	226.59
385.13	226.75
385.51	226.67
385.89	226.53
386.27	226.46
386.64	226.47
387.02	226.43
387.40	226.32
387.78	226.33
388.15	226.42
388.53	226.38
388.91	226.37
389.29	226.26
389.66	226.37
390.04	226.31
390.42	226.36
390.79	226.42
391.17	226.39
391.55	225.82
391.92	225.86
392.30	225.96
392.68	225.83
393.05	225.75
393.43	225.84
393.81	225.92
394.18	225.90
394.56	225.91
394.94	226.07
395.31	226.06
395.69	226.24
396.06	226.28
396.44	226.38
396.82	226.35
397.19	226.72
397.57	226.70
397.95	226.76
398.32	226.65
398.70	226.80
399.07	226.97
399.45	227.01
399.82	227.13
400.20	227.15
400.58	227.25
400.95	227.16
401.33	227.32
401.70	227.77
402.08	227.94
402.45	228.02
402.83	228.17
403.20	228.38
403.58	228.43
403.95	228.74
404.33	228.89
404.71	229.20
405.08	229.59
405.46	229.84
405.83	230.16
406.21	230.51
406.58	230.74
406.96	231.00
407.33	231.36
407.70	231.68
408.08	232.40
408.45	232.84
408.83	233.35
409.20	233.70
409.58	233.87
409.95	234.45
410.33	235.00
410.70	235.41
411.08	236.09
411.45	236.66
411.82	237.16
412.20	237.92
412.57	238.85
412.95	239.25
413.32	240.06
413.69	240.90
414.07	241.77
414.44	242.72
414.82	243.77
415.19	244.98
415.56	246.19
415.94	247.16
416.31	248.57
416.68	249.99
417.06	251.53
417.43	253.17
417.81	254.81
418.18	256.63
418.55	258.56
418.93	260.54
419.30	262.73
419.67	264.95
420.04	267.22
420.42	269.52
420.79	272.49
421.16	275.28
421.54	278.30
421.91	281.29
422.28	284.35
422.66	287.52
423.03	290.91
423.40	294.24
423.77	297.76
424.15	301.27
424.52	304.98
424.89	309.21
425.26	313.10
425.64	316.87
426.01	321.02
426.38	325.40
426.75	329.83
427.13	334.29
427.50	338.92
427.87	343.82
428.24	348.63
428.61	353.20
428.99	358.52
429.36	363.80
429.73	369.23
430.10	374.76
430.47	380.36
430.85	386.00
431.22	392.16
431.59	398.86
431.96	405.06
432.33	411.92
432.70	418.48
433.08	426.33
433.45	433.68
433.82	441.07
434.19	449.17
434.56	457.15
434.93	464.64
435.30	472.43
435.68	480.93
436.05	489.42
436.42	497.65
436.79	505.32
437.16	513.68
437.53	522.36
437.90	531.02
438.27	539.53
438.64	548.31
439.01	556.52
439.38	563.69
439.75	570.65
440.13	578.61
440.50	586.00
440.87	591.82
441.24	598.23
441.61	605.05
441.98	610.06
442.35	615.88
442.72	622.08
443.09	627.84
443.46	631.28
443.83	633.50
444.20	635.46
444.57	638.13
444.94	639.30
445.31	640.46
445.68	641.72
446.05	641.86
446.42	640.65
446.79	639.22
447.16	637.64
447.53	636.55
447.90	632.90
448.27	629.33
448.64	624.73
449.01	621.14
449.37	614.98
449.74	609.01
450.11	602.19
450.48	594.33
450.85	586.30
451.22	579.46
451.59	572.95
451.96	566.70
452.33	558.63
452.70	551.31
453.07	542.62
453.43	533.67
453.80	525.42
454.17	517.40
454.54	509.80
454.91	501.64
455.28	493.65
455.65	486.19
456.02	479.37
456.38	472.93
456.75	465.02
457.12	458.59
457.49	452.23
457.86	445.94
458.23	440.98
458.59	435.45
458.96	429.76
459.33	424.68
459.70	419.53
460.07	415.32
460.43	410.68
460.80	406.54
461.17	402.78
461.54	398.81
461.91	394.95
462.27	391.00
462.64	387.78
463.01	384.27
463.38	381.09
463.74	377.14
464.11	374.28
464.48	371.78
464.85	369.02
465.21	367.08
465.58	364.77
465.95	361.76
466.32	359.53
466.68	357.19
467.05	354.99
467.42	352.92
467.78	350.70
468.15	348.51
468.52	347.00
468.88	344.78
469.25	342.82
469.62	341.47
469.98	339.91
470.35	338.44
470.72	336.95
471.08	335.27
471.45	334.07
471.82	332.86
472.18	331.45
472.55	330.47
472.92	329.14
473.28	328.11
473.65	327.15
474.02	326.05
474.38	325.32
474.75	324.55
475.11	323.58
475.48	322.95
475.85	322.39
476.21	321.67
476.58	321.25
476.94	320.93
477.31	320.54
477.67	320.16
478.04	319.89
478.41	319.76
478.77	319.99
479.14	319.67
479.50	319.54
479.87	319.64
480.23	319.61
480.60	319.54
480.96	319.48
481.33	319.88
481.69	320.14
482.06	320.33
482.42	320.50
482.79	320.84
483.15	321.28
483.52	321.97
483.88	322.37
484.25	322.93
484.61	323.60
484.98	324.14
485.34	325.12
485.71	325.96
486.07	326.83
486.44	327.41
486.80	328.53
487.17	329.55
487.53	330.84
487.90	332.23
488.26	333.93
488.62	335.69
488.99	337.20
489.35	338.89
489.72	340.77
490.08	342.78
490.44	344.87
490.81	347.10
491.17	349.16
491.54	351.71
491.90	354.26
492.26	356.92
492.63	359.70
492.99	362.46
493.36	365.58
493.72	369.00
494.08	372.39
494.45	376.10
494.81	380.08
495.17	383.88
495.54	388.02
495.90	392.16
496.26	396.45
496.63	401.06
496.99	405.93
497.35	410.95
497.72	416.12
498.08	421.48
498.44	427.15
498.80	433.12
499.17	439.01
499.53	445.16
499.89	451.80
500.26	458.60
500.62	465.43
500.98	472.69
501.34	480.00
501.71	487.74
502.07	495.63
502.43	503.59
502.79	511.97
503.16	520.59
503.52	529.54
503.88	538.93
504.24	548.50
504.60	558.38
504.97	568.60
505.33	579.06
505.69	590.19
506.05	601.08
506.41	612.26
506.78	623.95
507.14	636.01
507.50	648.18
507.86	660.77
508.22	673.96
508.59	687.03
508.95	700.79
509.31	714.83
509.67	729.00
510.03	743.15
510.39	757.72
510.75	772.72
511.12	787.74
511.48	803.33
511.84	818.99
512.20	834.81
512.56	850.96
512.92	867.75
513.28	884.43
513.64	901.54
514.00	918.89
514.37	936.51
514.73	954.34
515.09	972.62
515.45	990.92
515.81	1009.14
516.17	1027.72
516.53	1046.14
516.89	1064.87
517.25	1084.03
517.61	1104.35
517.97	1124.66
518.33	1144.54
518.69	1164.53
519.05	1184.80
519.41	1205.44
519.77	1226.72
520.13	1247.29
520.49	1267.60
520.85	1289.66
521.21	1310.69
521.57	1331.91
521.93	1352.52
522.29	1373.70
522.65	1393.94
523.01	1414.81
523.37	1435.26
523.73	1456.02
524.09	1476.44
524.45	1496.82
524.81	1517.33
525.17	1537.45
525.53	1557.57
525.89	1578.21
526.25	1599.24
526.61	1619.17
526.97	1639.58
527.33	1659.94
527.68	1681.45
528.04	1702.42
528.40	1721.63
528.76	1742.43
529.12	1762.77
529.48	1783.29
529.84	1803.17
530.20	1824.25
530.56	1844.50
530.91	1865.45
531.27	1885.86
531.63	1906.27
531.99	1926.58
532.35	1946.52
532.71	1966.50
533.07	1986.95
533.42	2006.61
533.78	2026.27
534.14	2046.12
534.50	2065.02
534.86	2084.07
535.21	2101.65
535.57	2120.10
535.93	2137.67
536.29	2155.23
536.65	2173.11
537.00	2190.74
537.36	2208.09
537.72	2224.38
538.08	2241.46
538.44	2257.76
538.79	2273.80
539.15	2290.13
539.51	2305.88
539.87	2320.66
540.22	2334.54
540.58	2348.47
540.94	2361.41
541.29	2373.78
541.65	2386.25
542.01	2398.57
542.37	2408.87
542.72	2419.54
543.08	2429.66
543.44	2441.22
543.79	2450.96
544.15	2460.32
544.51	2470.00
544.87	2479.35
545.22	2487.67
545.58	2494.89
545.94	2501.57
546.29	2507.70
546.65	2513.64
547.01	2519.04
547.36	2524.68
547.72	2529.93
548.07	2533.74
548.43	2538.59
548.79	2542.91
549.14	2546.42
549.50	2549.93
549.86	2553.82
550.21	2557.08
550.57	2560.33
550.92	2561.54
551.28	2562.70
551.64	2564.58
551.99	2566.11
552.35	2567.31
552.70	2569.38
553.06	2571.10
553.41	2571.99
553.77	2573.64
554.13	2575.34
554.48	2576.34
554.84	2577.36
555.19	2578.33
555.55	2579.98
555.90	2579.28
556.26	2578.06
556.61	2576.61
556.97	2574.78
557.32	2573.90
557.68	2572.80
558.03	2571.13
558.39	2569.50
558.74	2568.38
559.10	2565.00
559.45	2561.35
559.81	2556.94
560.16	2551.45
560.52	2546.63
560.87	2542.46
561.23	2536.84
561.58	2530.55
561.94	2523.74
562.29	2516.30
562.64	2509.33
563.00	2501.03
563.35	2494.57
563.71	2488.20
564.06	2482.00
564.42	2475.09
564.77	2468.23
565.12	2460.41
565.48	2452.88
565.83	2444.93
566.19	2436.85
566.54	2429.37
566.89	2421.60
567.25	2413.88
567.60	2406.84
567.96	2399.03
568.31	2390.87
568.66	2382.54
569.02	2373.60
569.37	2365.47
569.72	2358.10
570.08	2348.84
570.43	2339.26
570.78	2330.25
571.14	2320.79
571.49	2310.39
571.84	2300.94
572.20	2290.15
572.55	2280.45
572.90	2269.44
573.26	2259.23
573.61	2248.37
573.96	2237.31
574.31	2225.00
574.67	2213.35
575.02	2200.55
575.37	2187.89
575.72	2175.03
576.08	2163.04
576.43	2150.67
576.78	2137.94
577.13	2124.37
577.49	2111.88
577.84	2100.01
578.19	2088.13
578.54	2075.72
578.90	2064.01
579.25	2051.74
579.60	2039.14
579.95	2026.02
580.30	2013.24
580.66	2000.00
581.01	1986.49
581.36	1972.53
581.71	1960.20
582.06	1947.48
582.42	1935.26
582.77	1922.91
583.12	1910.95
583.47	1898.62
583.82	1886.87
584.17	1874.66
584.53	1862.68
584.88	1849.93
585.23	1837.04
585.58	1822.85
585.93	1809.63
586.28	1796.27
586.63	1782.43
586.98	1768.60
587.34	1755.55
587.69	1742.55
588.04	1730.29
588.39	1718.49
588.74	1706.65
589.09	1694.60
589.44	1681.83
589.79	1669.97
590.14	1658.30
590.49	1646.34
590.84	1634.53
591.19	1622.57
591.54	1610.73
591.89	1598.82
592.25	1588.71
592.60	1577.43
592.95	1566.08
593.30	1554.32
593.65	1542.79
594.00	1531.07
594.35	1521.56
594.70	1509.99
595.05	1498.91
595.40	1486.81
595.75	1475.03
596.10	1463.82
596.45	1452.61
596.80	1441.98
597.15	1430.52
597.50	1418.62
597.85	1407.45
598.19	1396.00
598.54	1384.71
598.89	1373.55
599.24	1363.16
599.59	1351.74
599.94	1341.23
600.29	1331.25
600.64	1321.15
600.99	1310.34
601.34	1300.98
601.69	1289.91
602.04	1280.52
602.39	1270.84
602.74	1262.01
603.08	1252.66
603.43	1243.88
603.78	1234.32
604.13	1224.82
604.48	1215.43
604.83	1205.95
605.18	1196.28
605.53	1186.77
605.87	1177.53
606.22	1169.28
606.57	1159.96
606.92	1150.58
607.27	1141.72
607.62	1133.17
607.96	1124.92
608.31	1117.38
608.66	1109.21
609.01	1100.62
609.36	1092.02
609.70	1083.57
610.05	1074.98
610.40	1066.66
610.75	1057.85
611.10	1049.68
611.44	1041.32
611.79	1033.26
612.14	1025.67
612.49	1018.06
612.83	1010.80
613.18	1003.08
613.53	995.32
613.88	987.64
614.22	980.14
614.57	972.49
614.92	964.55
615.27	957.02
615.61	949.34
615.96	941.80
616.31	934.51
616.65	927.57
617.00	920.35
617.35	913.31
617.70	906.31
618.04	899.31
618.39	892.57
618.74	886.51
619.08	879.74
619.43	872.72
619.78	865.80
620.12	858.73
620.47	851.99
620.82	845.05
621.16	838.42
621.51	832.21
621.85	825.94
622.20	819.59
622.55	813.16
622.89	806.90
623.24	800.68
623.59	794.46
623.93	788.24
624.28	782.26
624.62	776.62
624.97	771.00
625.32	765.32
625.66	759.51
626.01	753.19
626.35	747.64
626.70	742.38
627.04	737.08
627.39	731.72
627.73	726.56
628.08	721.53
628.43	716.13
628.77	710.72
629.12	705.51
629.46	700.62
629.81	695.98
630.15	691.21
630.50	686.36
630.84	681.57
631.19	676.99
631.53	672.45
631.88	667.33
632.22	662.49
632.57	658.18
632.91	653.60
633.26	649.24
633.60	644.76
633.95	640.15
634.29	635.63
634.64	631.19
634.98	626.61
635.32	622.29
635.67	618.38
636.01	614.24
636.36	609.88
636.70	605.91
637.05	601.66
637.39	597.69
637.73	593.63
638.08	589.75
638.42	585.55
638.77	581.36
639.11	577.13
639.45	573.00
639.80	568.60
640.14	564.45
640.49	560.61
640.83	556.96
641.17	553.33
641.52	549.53
641.86	545.99
642.20	542.76
642.55	539.06
642.89	535.53
643.23	532.14
643.58	529.06
643.92	525.44
644.26	522.20
644.61	519.06
644.95	515.77
645.29	512.61
645.64	509.51
645.98	506.35
646.32	503.52
646.66	500.35
647.01	497.47
647.35	494.81
647.69	491.98
648.04	489.10
648.38	486.24
648.72	483.49
649.06	480.39
649.41	477.32
649.75	474.32
650.09	471.63
650.43	468.78
650.78	465.92
651.12	463.24
651.46	460.44
651.80	457.55
652.14	454.88
652.49	452.27
652.83	449.78
653.17	447.27
653.51	444.60
653.85	442.32
654.20	439.78
654.54	437.18
654.88	434.59
655.22	432.42
655.56	430.16
655.90	427.92
656.25	425.90
656.59	423.68
656.93	421.80
657.27	419.65
657.61	417.29
657.95	415.02
658.29	412.81
658.64	410.76
658.98	408.59
659.32	406.48
659.66	404.31
660.00	402.17
660.34	400.16
660.68	398.14
661.02	396.29
661.36	394.46
661.70	392.47
662.05	390.61
662.39	388.61
662.73	386.81
663.07	385.22
663.41	383.31
663.75	381.52
664.09	379.59
664.43	377.57
664.77	376.00
665.11	374.43
665.45	372.82
665.79	371.29
666.13	369.59
666.47	367.96
666.81	366.31
667.15	364.71
667.49	363.21
667.83	362.01
668.17	360.28
668.51	358.86
668.85	357.59
669.19	356.49
669.53	354.99
669.87	353.51
670.21	351.91
670.55	350.63
670.89	349.59
671.23	348.40
671.57	347.12
671.91	345.79
672.25	344.46
672.58	343.24
672.92	341.64
673.26	340.42
673.60	339.26
673.94	338.14
674.28	337.00
674.62	335.94
674.96	334.50
675.30	333.54
675.64	332.35
675.97	331.15
676.31	329.73
676.65	328.55
676.99	327.50
677.33	326.30
677.67	325.14
678.01	323.70
678.34	322.59
678.68	321.68
679.02	320.61
679.36	319.59
679.70	318.51
680.04	317.70
680.37	316.80
680.71	315.75
681.05	314.92
681.39	313.96
681.73	312.95
682.06	312.10
682.40	311.20
682.74	310.32
683.08	309.61
683.42	308.76
683.75	307.95
684.09	307.01
684.43	306.30
684.77	305.49
685.10	304.76
685.44	303.87
685.78	303.00
686.12	302.24
686.45	301.42
686.79	300.68
687.13	300.03
687.46	299.30
687.80	298.70
688.14	297.80
688.48	297.15
688.81	296.37
689.15	295.79
689.49	295.05
689.82	294.32
690.16	293.42
690.50	292.71
690.83	292.00
691.17	291.29
691.51	290.57
691.84	289.93
692.18	289.18
692.52	288.57
692.85	287.95
693.19	287.56
693.52	286.97
693.86	286.30
694.20	285.61
694.53	284.95
694.87	284.23
695.21	283.59
695.54	282.92
695.88	282.29
696.21	281.47
696.55	280.85
696.88	280.25
697.22	279.65
697.56	279.15
697.89	278.60
698.23	278.19
698.56	277.58
698.90	277.11
699.23	276.62
699.57	276.10
699.90	275.56
700.24	274.85
700.58	274.45
700.91	274.08
701.25	273.91
701.58	273.76
701.92	273.44
702.25	273.01
702.59	272.49
702.92	272.07
703.26	271.72
703.59	271.36
703.93	271.40
704.26	271.02
704.60	270.62
704.93	270.15
705.26	269.57
705.60	269.29
705.93	268.82
706.27	268.57
706.60	268.26
706.94	268.12
707.27	267.70
707.61	267.29
707.94	266.91
708.27	266.15
708.61	265.50
708.94	265.03
709.28	264.67
709.61	264.20
709.94	263.89
710.28	263.46
710.61	263.04
710.95	262.17
711.28	262.20
711.61	261.81
711.95	261.64
712.28	261.29
712.61	260.95
712.95	260.85
713.28	260.67
713.61	260.24
713.95	259.72
714.28	259.47
714.61	259.14
714.95	258.77
715.28	258.44
715.61	258.09
715.95	257.81
716.28	257.42
716.61	257.34
716.95	256.98
717.28	256.69
717.61	256.43
717.94	256.23
718.28	255.52
718.61	255.23
718.94	254.86
719.27	254.55
719.61	254.25
719.94	253.88
720.27	253.37
720.60	253.09
720.94	252.82
721.27	252.65
721.60	252.37
721.93	252.13
722.27	252.10
722.60	251.96
722.93	251.70
723.26	251.55
723.59	251.20
723.93	250.98
724.26	250.85
724.59	250.60
724.92	250.39
725.25	250.30
725.59	250.09
725.92	249.88
726.25	249.79
726.58	249.69
726.91	249.49
727.24	249.37
727.57	249.19
727.91	248.91
728.24	248.71
728.57	248.55
728.90	248.41
729.23	248.02
729.56	248.04
729.89	247.93
730.22	247.70
730.55	247.52
730.89	247.40
731.22	247.20
731.55	246.99
731.88	246.88
732.21	246.58
732.54	246.37
732.87	246.19
733.20	245.92
733.53	245.74
733.86	245.53
734.19	245.35
734.52	245.22
734.85	245.38
735.18	245.13
735.51	245.08
735.84	244.89
736.17	244.89
736.50	244.45
736.83	244.85
737.16	244.73
737.49	244.56
737.82	244.36
738.15	244.24
738.48	244.11
738.81	243.84
739.14	243.69
739.47	243.50
739.80	243.31
740.13	243.23
740.46	242.92
740.79	242.72
741.12	242.52
741.45	242.27
741.78	241.93
742.11	241.89
742.44	241.66
742.77	241.59
743.10	241.27
743.43	241.07
743.75	240.35
744.08	240.85
744.41	240.70
744.74	240.55
745.07	240.31
745.40	240.37
745.73	240.48
746.06	240.44
746.39	240.43
746.71	240.27
747.04	240.12
747.37	240.07
747.70	240.00
748.03	239.89
748.36	239.92
748.68	239.74
749.01	239.46
749.34	239.36
749.67	239.24
750.00	239.23
750.33	239.54
750.65	239.53
750.98	238.81
751.31	238.77
751.64	238.70
751.97	238.93
752.29	238.66
752.62	238.32
752.95	238.20
753.28	238.05
753.60	238.02
753.93	238.09
754.26	238.05
754.59	237.87
754.91	237.78
755.24	237.71
755.57	237.73
755.90	237.67
756.22	237.52
756.55	237.31
756.88	237.13
757.20	236.69
757.53	236.46
757.86	236.38
758.19	236.35
758.51	236.30
758.84	235.96
759.17	235.85
759.49	235.85
759.82	235.94
760.15	235.88
760.47	235.79
760.80	235.52
761.13	235.42
761.45	235.33
761.78	235.22
762.11	235.06
762.43	234.80
762.76	234.75
763.08	234.70
763.41	234.77
763.74	234.74
764.06	234.65
764.39	234.53
764.71	234.45
765.04	234.25
765.37	234.13
765.69	233.97
766.02	233.96
766.34	233.80
766.67	233.51
767.00	233.51
767.32	233.69
767.65	233.85
767.97	233.80
768.30	233.78
768.62	233.70
768.95	233.60
769.27	233.54
769.60	233.55
769.92	233.44
770.25	233.21
770.57	233.00
770.90	232.93
771.22	232.88
771.55	232.80
771.87	232.78
772.20	232.68
772.52	233.00
772.85	233.44
773.17	233.35
773.50	233.26
773.82	233.12
774.15	232.73
774.47	232.41
774.80	232.26
775.12	232.17
775.45	232.20
775.77	232.17
776.09	232.22
776.42	232.19
776.74	232.35
777.07	232.31
777.39	232.35
777.72	232.25
778.04	232.21
778.36	232.11
778.69	232.09
779.01	232.15
779.33	231.75
779.66	231.19
779.98	231.13
780.31	231.21
780.63	231.34
780.95	231.46
781.28	231.39
781.60	231.32
781.92	231.26
782.25	231.18
782.57	231.12
782.89	231.01
783.22	230.85
783.54	230.56
783.86	230.54
784.19	230.50
784.51	230.63
784.83	230.55
785.16	230.47
785.48	230.45
785.80	230.35
786.12	230.34
786.45	230.30
786.77	230.33
787.09	230.19
787.42	229.94
787.74	229.91
788.06	229.96
788.38	229.95
788.71	229.98
789.03	229.92
789.35	229.90
789.67	229.81
789.99	229.82
790.32	229.70
790.64	229.76
790.96	230.09
791.28	229.88
791.61	229.84
791.93	229.87
792.25	229.82
792.57	230.17
792.89	230.08
793.21	230.07
793.54	230.01
793.86	229.96
794.18	229.97
794.50	229.82
794.82	229.75
795.14	229.74
795.47	229.78
795.79	229.82
796.11	229.76
796.43	229.76
796.75	229.73
797.07	229.79
797.39	229.68
797.71	229.39
798.04	229.40
798.36	229.37
798.68	229.32
799.00	229.28
799.32	228.97
799.64	229.03
799.96	228.97
800.28	229.02
800.60	229.02
800.92	229.06
801.24	229.01
801.56	229.07
801.89	229.09
802.21	229.01
802.53	228.84
802.85	228.92
803.17	229.13
803.49	229.00
803.81	229.02
804.13	228.95
804.45	228.82
804.77	228.78
805.09	228.75
805.41	228.75
805.73	228.71
806.05	228.60
806.37	228.49
806.69	228.45
807.01	228.40
807.33	228.46
807.65	228.31
807.97	228.50
808.28	228.43
808.60	228.36
808.92	228.26
809.24	228.64
809.56	228.53
809.88	228.33
810.20	228.42
810.52	228.50
810.84	228.48
811.16	228.44
811.48	228.45
811.80	228.64
812.12	228.59
812.43	228.62
812.75	228.64
813.07	228.70
813.39	228.69
813.71	228.62
814.03	228.57
814.35	228.52
814.67	228.39
814.98	228.40
815.30	228.36
815.62	228.27
815.94	227.95
816.26	228.11
816.58	227.97
816.89	227.94
817.21	227.73
817.53	227.79
817.85	227.77
818.17	227.79
818.48	227.63
818.80	227.71
819.12	227.65
819.44	227.56
819.76	227.48
820.07	227.55
820.39	227.55
820.71	227.56
821.03	227.62
821.34	227.51
821.66	227.53
821.98	227.60
822.30	227.62
822.61	227.85
822.93	227.67
823.25	227.71
823.57	227.68
823.88	227.82
824.20	227.84
824.52	227.92
824.83	227.90
825.15	227.87
825.47	227.85
825.79	227.90
826.10	227.87
826.42	227.82
826.74	227.82
827.05	227.83
827.37	227.84
827.69	227.78
828.00	227.84
828.32	227.78
828.64	227.69
828.95	227.94
829.27	227.83
829.58	227.82
829.90	227.92
830.22	227.91
830.53	227.78
830.85	227.67
831.17	227.63
831.48	227.60
831.80	227.60
832.11	227.53
832.43	227.45
832.75	227.48
833.06	227.86
833.38	227.68
833.69	227.65
834.01	227.62
834.32	227.67
834.64	227.62
834.96	227.64
835.27	227.62
835.59	227.46
835.90	227.38
836.22	227.39
836.53	227.26
836.85	227.24
837.16	227.68
837.48	227.70
837.79	227.76
838.11	227.79
838.42	227.72
838.74	227.77
839.05	227.72
839.37	227.70
839.68	227.33
840.00	227.37
840.31	227.40
840.63	227.41
840.94	227.36
841.26	227.35
841.57	227.38
841.88	227.42
842.20	227.39
842.51	227.37
842.83	227.32
843.14	227.73
843.46	227.77
843.77	227.54
844.08	227.50
844.40	227.38
844.71	227.28
845.03	227.33
845.34	227.35
845.65	227.34
845.97	227.34
846.28	227.41
846.60	227.37
846.91	227.31
847.22	227.29
847.54	227.36
847.85	227.37
848.16	227.31
848.48	227.27
848.79	227.48
849.10	227.49
849.42	227.55
849.73	227.11
850.04	227.10
850.36	226.92
850.67	227.06
850.98	226.98
851.30	227.05
851.61	226.99
851.92	226.91
852.23	227.00
852.55	226.99
852.86	226.97
853.17	227.08
853.49	227.11
853.80	227.25
854.11	227.31
854.42	227.39
854.74	227.33
855.05	227.33
855.36	227.09
855.67	227.12
855.99	227.06
856.30	227.63
856.61	227.65
856.92	227.69
857.23	227.71
857.55	227.75
857.86	227.66
858.17	227.75
858.48	227.66
858.79	227.62
859.11	227.72
859.42	227.69
859.73	227.57
860.04	227.61
860.35	227.33
860.66	227.22
860.98	227.14
861.29	227.22
861.60	227.15
861.91	227.24
862.22	227.12
862.53	227.05
862.84	226.46
863.16	226.49
863.47	226.38
863.78	226.27
864.09	226.32
864.40	226.44
864.71	226.35
865.02	226.43
865.33	226.45
865.64	226.28
865.95	226.25
866.27	226.60
866.58	226.51
866.89	226.68
867.20	226.56
867.51	226.50
867.82	226.40
868.13	226.54
868.44	226.42
868.75	226.51
869.06	226.57
869.37	226.59
869.68	226.44
869.99	226.52
870.30	226.49
870.61	226.55
870.92	226.43
871.23	226.44
871.54	226.59
871.85	226.62
872.16	226.69
872.47	226.67
872.78	226.37
873.09	226.42
873.40	226.37
873.71	226.45
874.02	226.43
874.33	226.43
874.64	226.32
874.95	226.35
875.26	226.25
875.56	226.21
875.87	226.20
876.18	226.13
876.49	226.59
876.80	226.50
877.11	226.40
877.42	226.40
877.73	226.47
878.04	226.31
878.35	226.35
878.66	226.41
878.96	226.41
879.27	226.38
879.58	226.40
879.89	226.33
880.20	226.44
880.51	226.44
880.82	226.41
881.12	226.43
881.43	226.34
881.74	226.30
882.05	226.26
882.36	226.26
882.67	226.38
882.97	225.83
883.28	225.83
883.59	225.86
883.90	225.96
884.21	226.03
884.51	225.99
884.82	225.91
885.13	225.88
885.44	225.86
885.74	225.82
886.05	225.77
886.36	225.74
886.67	225.57
886.98	225.75
887.28	225.82
887.59	225.87
887.90	225.98
888.20	225.92
888.51	226.02
888.82	226.05
889.13	226.11
889.43	226.57
889.74	226.63
890.05	226.61
890.35	226.55
890.66	226.44
890.97	226.42
891.28	226.28
891.58	226.29
891.89	226.29
892.20	226.28
892.50	226.25
892.81	226.26
893.12	226.28
893.42	226.14
893.73	226.16
894.04	226.15
894.34	226.13
894.65	226.23
894.95	226.18
895.26	226.15
895.57	226.32
895.87	225.87
896.18	225.95
896.48	225.96
896.79	225.95
897.10	226.10
897.40	226.15
897.71	226.25
898.01	226.17
898.32	226.23
898.63	226.25
898.93	226.28
899.24	226.38
899.54	226.34
899.85	226.37
900.15	226.38
900.46	226.35
900.76	226.44
901.07	226.38
901.38	226.45
901.68	226.55
901.99	226.30
902.29	226.36
902.60	226.29
902.90	226.28
903.21	226.25
903.51	226.19
903.82	226.33
904.12	226.40
904.43	226.44
904.73	226.44
905.03	226.49
905.34	226.97
905.64	226.88
905.95	226.85
906.25	226.84
906.56	226.82
906.86	226.87
907.17	226.78
907.47	226.78
907.77	226.69
908.08	226.61
908.38	226.65
908.69	226.65
908.99	226.76
909.30	226.80
909.60	226.75
909.90	226.77
910.21	226.56
910.51	226.51
910.81	226.53
911.12	226.57
911.42	226.52
911.73	225.98
912.03	226.04
912.33	226.16
912.64	226.11
912.94	226.02
913.24	225.91
913.55	225.87
913.85	225.88
914.15	225.94
914.46	226.02
914.76	226.03
915.06	226.04
915.37	225.94
915.67	225.90
915.97	225.98
916.27	225.80
916.58	225.88
916.88	225.83
917.18	225.79
917.49	226.14
917.79	226.18
918.09	226.28
918.39	226.43
918.70	226.44
919.00	226.47
919.30	226.75
919.60	226.76
919.91	226.71
920.21	226.75
920.51	226.71
920.81	226.66
921.12	226.73
921.42	226.65
921.72	226.72
922.02	226.69
922.32	226.71
922.63	226.85
922.93	227.11
923.23	227.09
923.53	227.02
923.83	226.66
924.13	226.66
924.44	226.62
924.74	226.65
925.04	226.73
925.34	226.67
925.64	226.49
925.94	226.55
926.24	226.89
926.55	226.84
926.85	226.95
927.15	226.87
927.45	226.87
927.75	226.86
928.05	226.82
928.35	226.79
928.65	226.89
928.95	226.86
929.26	226.66
929.56	226.74
929.86	226.82
930.16	226.76
930.46	226.79
930.76	226.85
931.06	226.60
931.36	226.54
931.66	226.63
931.96	226.64
932.26	226.63
932.56	226.36
932.86	226.41
933.16	226.35
933.46	226.40
933.76	226.31
934.06	226.45
934.36	226.61
934.66	226.65
934.96	226.62
935.26	226.63
935.56	226.65
935.86	226.58
936.16	226.55
936.46	226.58
936.76	226.54
937.06	226.50
937.36	226.55
937.66	226.54
937.96	226.47
938.26	226.39
938.56	226.38
938.86	226.41
939.16	226.53
939.46	226.61
939.76	226.60
940.06	226.62
940.35	226.48
940.65	226.25
940.95	226.25
941.25	226.05
941.55	225.95
941.85	225.95
942.15	226.10
942.45	226.20
942.75	226.17
943.04	226.15
943.34	226.16
943.64	226.10
943.94	225.97
944.24	226.04
944.54	226.07
944.84	226.06
945.13	226.01
945.43	225.91
945.73	225.85
946.03	225.79
946.33	225.67
946.62	225.69
946.92	225.75
947.22	225.91
947.52	226.02
947.82	226.15
948.11	226.09
948.41	225.98
948.71	225.86
949.01	225.84
949.31	225.93
949.60	225.95
949.90	226.06
950.20	226.05
950.50	226.05
950.79	226.09
951.09	226.19
951.39	226.20
951.69	226.13
951.98	226.12
952.28	226.18
952.58	226.19
952.87	226.22
953.17	226.25
953.47	226.05
953.76	226.05
954.06	225.97
954.36	225.93
954.66	225.89
954.95	226.08
955.25	226.10
955.55	226.03
955.84	225.95
956.14	225.92
956.44	226.01
956.73	225.92
957.03	225.88
957.32	225.80
957.62	225.81
957.92	225.88
958.21	225.96
958.51	226.51
958.81	226.57
959.10	226.58
959.40	226.70
959.69	226.75
959.99	226.74
960.29	226.78
960.58	226.75
960.88	226.91
961.17	226.73
961.47	226.75
961.76	226.71
962.06	226.77
962.36	226.75
962.65	226.75
962.95	226.74
963.24	226.70
963.54	226.64
963.83	226.59
964.13	226.57
964.42	226.37
964.72	226.03
965.01	226.03
965.31	225.94
965.60	225.71
965.90	226.06
966.19	226.01
966.49	225.93
966.78	225.94
967.08	225.91
967.37	225.93
967.67	225.85
967.96	225.90
968.26	225.91
968.55	226.00
968.85	225.85
969.14	225.84
969.43	225.85
969.73	225.86
970.02	225.89
970.32	225.93
970.61	225.91
970.91	225.72
971.20	225.69
971.49	225.70
971.79	225.82
972.08	225.40
972.38	225.42
972.67	225.37
972.96	225.38
973.26	225.25
973.55	225.40
973.85	225.40
974.14	225.41
974.43	225.41
974.73	225.28
975.02	225.32
975.31	225.38
975.61	225.38
975.90	225.41
976.19	225.31
976.49	225.28
976.78	225.38
977.07	225.37
977.37	225.40
977.66	225.53
977.95	225.44
978.24	225.53
978.54	225.67
978.83	225.61
979.12	225.65
979.42	225.68
979.71	225.60
980.00	225.63
980.29	225.67
980.59	225.66
980.88	225.82
981.17	225.82
981.46	225.82
981.76	225.76
982.05	225.82
982.34	225.91
982.63	225.97
982.93	225.89
983.22	226.01
983.51	226.02
983.80	226.03
984.09	226.20
984.39	226.18
984.68	226.11
984.97	226.27
985.26	226.16
985.55	226.25
985.85	226.19
986.14	226.33
986.43	226.33
986.72	226.22
987.01	226.04
987.30	226.18
987.59	226.07
987.89	226.15
988.18	226.09
988.47	226.08
988.76	226.00
989.05	226.00
989.34	225.92
989.63	226.10
989.92	226.00
990.22	225.82
990.51	225.75
990.80	225.68
991.09	225.66
991.38	225.74
991.67	225.68
991.96	225.61
992.25	225.49
992.54	225.45
992.83	225.44
993.12	225.47
993.41	225.41
993.70	225.66
993.99	225.73
994.28	225.74
994.58	225.84
994.87	225.82
995.16	225.87
995.45	225.88
995.74	225.60
996.03	225.70
996.32	225.84
996.61	225.98
996.90	225.96
997.19	225.97
997.48	225.96
997.77	225.88
998.06	225.91
998.34	225.86
998.63	225.85
998.92	225.94
999.21	225.99
999.50	226.04
999.79	225.85
1000.08	225.82
1000.37	225.84
1000.66	225.73
1000.95	225.83
1001.24	225.85
1001.53	225.88
1001.82	225.89
1002.11	225.75
1002.40	225.74
1002.68	225.83
1002.97	226.18
1003.26	226.14
1003.55	226.08
1003.84	226.07
1004.13	226.22
1004.42	226.29
1004.71	226.30
1004.99	226.18
1005.28	226.28
1005.57	226.20
1005.86	226.14
1006.15	226.08
1006.44	225.98
1006.72	226.09
1007.01	226.00
1007.30	225.93
1007.59	225.88
1007.88	225.86
1008.17	225.95
1008.45	225.82
1008.74	225.67
1009.03	225.43
1009.32	225.38
1009.60	225.40
1009.89	225.47
1010.18	225.26
1010.47	225.15
1010.76	225.11
1011.04	225.16
1011.33	225.20
1011.62	225.29
1011.91	225.35
1012.19	225.41
1012.48	225.46
1012.77	225.44
1013.05	225.65
1013.34	225.75
1013.63	225.70
1013.92	225.73
1014.20	225.67
1014.49	225.75
1014.78	225.67
1015.06	225.50
1015.35	225.48
1015.64	225.60
1015.92	225.63
1016.21	225.72
1016.50	225.71
1016.78	225.84
1017.07	225.83
1017.36	225.62
1017.64	225.53
1017.93	225.64
1018.22	225.53
1018.50	225.50
1018.79	225.48
1019.08	225.23
1019.36	225.22
1019.65	225.23
1019.93	225.38
1020.22	225.45
1020.51	225.68
1020.79	225.72
1021.08	224.05
1021.36	224.75
1021.65	226.10
1021.94	224.65
1022.22	226.30
1022.51	225.40
1022.79	227.50
1023.08	226.40
1023.36	231.20
1023.65	225.15
>>>>>End Processed Spectral Data<<<<<
