SpectraSuite Data File
++++++++++++++++++++++++++++++++++++
Date: Wed Sep 04 18:04:59 EDT 2013
User: lab3
Dark Spectrum Present: Yes
Reference Spectrum Present: No
Number of Sampled Component Spectra: 1
Spectrometers: USB2E7196
Integration Time (usec): 170000 (USB2E7196)
Spectra Averaged: 20 (USB2E7196)
Boxcar Smoothing: 10 (USB2E7196)
Correct for Electrical Dark: No (USB2E7196)
Strobe/Lamp Enabled: No (USB2E7196)
Correct for Detector Non-linearity: No (USB2E7196)
Correct for Stray Light: No (USB2E7196)
Number of Pixels in Processed Spectrum: 2048
>>>>>Begin Processed Spectral Data<<<<<
339.09	0.00
339.48	212.80
339.86	214.90
340.24	216.55
340.63	217.50
341.01	227.25
341.39	221.60
341.78	222.45
342.16	225.70
342.54	223.45
342.93	212.80
343.31	223.48
343.69	224.05
344.07	224.59
344.46	225.08
344.84	225.47
345.22	225.41
345.60	225.70
345.99	225.90
346.37	225.95
346.75	226.06
347.13	226.17
347.52	226.21
347.90	226.41
348.28	226.42
348.66	226.55
349.05	226.49
349.43	226.58
349.81	226.65
350.19	226.76
350.57	226.84
350.96	226.92
351.34	227.09
351.72	227.22
352.10	227.20
352.48	227.24
352.87	227.33
353.25	227.42
353.63	227.42
354.01	227.46
354.39	227.58
354.77	227.71
355.15	227.91
355.54	227.85
355.92	227.78
356.30	227.87
356.68	228.28
357.06	228.33
357.44	228.35
357.82	228.43
358.20	228.90
358.58	229.02
358.97	229.14
359.35	229.30
359.73	229.42
360.11	229.52
360.49	229.58
360.87	229.60
361.25	229.72
361.63	229.90
362.01	230.04
362.39	230.05
362.77	230.09
363.15	230.03
363.53	230.15
363.91	230.24
364.29	230.25
364.67	229.80
365.05	229.90
365.43	229.95
365.81	230.06
366.19	229.83
366.57	229.95
366.95	229.95
367.33	229.87
367.71	229.80
368.09	229.87
368.47	229.88
368.85	229.86
369.23	229.91
369.61	229.79
369.99	229.88
370.37	229.89
370.75	230.11
371.13	230.13
371.51	230.02
371.89	229.98
372.27	229.93
372.65	229.87
373.03	229.77
373.41	229.77
373.78	229.65
374.16	229.43
374.54	229.23
374.92	229.13
375.30	229.07
375.68	228.98
376.06	229.01
376.44	228.91
376.82	228.92
377.19	228.80
377.57	228.65
377.95	228.39
378.33	228.28
378.71	227.88
379.09	227.81
379.47	227.79
379.84	227.73
380.22	227.61
380.60	227.52
380.98	227.49
381.36	227.40
381.73	227.30
382.11	227.27
382.49	227.27
382.87	227.20
383.25	227.08
383.62	227.60
384.00	227.35
384.38	227.28
384.76	227.27
385.13	227.41
385.51	227.36
385.89	227.28
386.27	227.22
386.64	227.34
387.02	227.21
387.40	227.15
387.78	227.08
388.15	227.10
388.53	227.07
388.91	226.97
389.29	226.83
389.66	226.85
390.04	226.81
390.42	226.86
390.79	226.86
391.17	226.90
391.55	226.27
391.92	226.31
392.30	226.38
392.68	226.32
393.05	226.25
393.43	226.29
393.81	226.35
394.18	226.33
394.56	226.31
394.94	226.45
395.31	226.43
395.69	226.66
396.06	226.80
396.44	226.78
396.82	226.90
397.19	227.20
397.57	227.20
397.95	227.39
398.32	227.29
398.70	227.40
399.07	227.60
399.45	227.74
399.82	227.83
400.20	227.92
400.58	227.96
400.95	227.84
401.33	228.05
401.70	228.49
402.08	228.61
402.45	228.76
402.83	228.96
403.20	229.17
403.58	229.20
403.95	229.42
404.33	229.76
404.71	229.90
405.08	230.40
405.46	230.62
405.83	230.86
406.21	231.13
406.58	231.41
406.96	231.69
407.33	232.07
407.70	232.49
408.08	233.13
408.45	233.64
408.83	234.23
409.20	234.60
409.58	234.77
409.95	235.39
410.33	235.95
410.70	236.33
411.08	237.00
411.45	237.66
411.82	238.21
412.20	238.95
412.57	239.95
412.95	240.33
413.32	241.30
413.69	242.05
414.07	242.97
414.44	243.90
414.82	244.86
415.19	246.01
415.56	247.10
415.94	248.25
416.31	249.67
416.68	251.07
417.06	252.76
417.43	254.39
417.81	256.16
418.18	257.96
418.55	259.99
418.93	262.01
419.30	264.12
419.67	266.39
420.04	268.64
420.42	270.93
420.79	273.94
421.16	276.68
421.54	279.76
421.91	282.76
422.28	285.89
422.66	289.16
423.03	292.64
423.40	296.09
423.77	299.65
424.15	303.24
424.52	307.02
424.89	311.25
425.26	315.24
425.64	318.99
426.01	323.15
426.38	327.42
426.75	331.86
427.13	336.50
427.50	341.22
427.87	346.11
428.24	351.12
428.61	355.77
428.99	361.11
429.36	366.67
429.73	372.27
430.10	377.94
430.47	383.63
430.85	389.33
431.22	395.64
431.59	402.47
431.96	408.86
432.33	415.83
432.70	422.46
433.08	430.36
433.45	437.85
433.82	445.34
434.19	453.72
434.56	461.92
434.93	469.65
435.30	477.48
435.68	486.25
436.05	494.78
436.42	503.18
436.79	510.87
437.16	519.24
437.53	528.05
437.90	536.76
438.27	545.45
438.64	554.39
439.01	562.67
439.38	569.73
439.75	576.94
440.13	584.97
440.50	592.56
440.87	598.65
441.24	605.12
441.61	612.08
441.98	617.14
442.35	623.08
442.72	629.08
443.09	635.03
443.46	638.53
443.83	640.82
444.20	642.77
444.57	645.61
444.94	646.73
445.31	647.88
445.68	648.99
446.05	649.19
446.42	647.94
446.79	646.64
447.16	645.06
447.53	643.61
447.90	639.86
448.27	636.16
448.64	631.24
449.01	627.49
449.37	621.25
449.74	615.19
450.11	608.20
450.48	600.44
450.85	592.20
451.22	585.17
451.59	578.58
451.96	572.25
452.33	564.03
452.70	556.65
453.07	547.88
453.43	538.89
453.80	530.40
454.17	522.27
454.54	514.37
454.91	506.05
455.28	498.21
455.65	490.80
456.02	483.89
456.38	477.60
456.75	469.69
457.12	463.17
457.49	456.87
457.86	450.49
458.23	445.31
458.59	439.58
458.96	433.91
459.33	428.65
459.70	423.44
460.07	419.30
460.43	414.52
460.80	410.35
461.17	406.55
461.54	402.51
461.91	398.66
462.27	394.77
462.64	391.59
463.01	387.89
463.38	384.53
463.74	380.47
464.11	377.42
464.48	374.85
464.85	371.98
465.21	369.91
465.58	367.56
465.95	364.65
466.32	362.49
466.68	360.25
467.05	358.06
467.42	355.75
467.78	353.36
468.15	351.23
468.52	349.43
468.88	347.31
469.25	345.35
469.62	343.90
469.98	342.27
470.35	340.68
470.72	339.18
471.08	337.47
471.45	336.31
471.82	335.07
472.18	333.55
472.55	332.52
472.92	331.04
473.28	329.92
473.65	328.88
474.02	327.84
474.38	326.82
474.75	326.09
475.11	325.24
475.48	324.60
475.85	323.91
476.21	323.33
476.58	322.78
476.94	322.35
477.31	321.78
477.67	321.32
478.04	321.04
478.41	320.86
478.77	321.22
479.14	320.82
479.50	320.70
479.87	320.85
480.23	320.88
480.60	320.91
480.96	320.86
481.33	321.17
481.69	321.33
482.06	321.52
482.42	321.74
482.79	322.14
483.15	322.55
483.52	323.23
483.88	323.70
484.25	324.31
484.61	324.91
484.98	325.60
485.34	326.59
485.71	327.52
486.07	328.45
486.44	328.93
486.80	330.02
487.17	331.21
487.53	332.51
487.90	333.85
488.26	335.43
488.62	337.14
488.99	338.75
489.35	340.55
489.72	342.50
490.08	344.45
490.44	346.40
490.81	348.65
491.17	350.78
491.54	353.34
491.90	355.87
492.26	358.69
492.63	361.55
492.99	364.31
493.36	367.43
493.72	370.75
494.08	374.17
494.45	377.92
494.81	381.64
495.17	385.47
495.54	389.80
495.90	394.14
496.26	398.64
496.63	403.26
496.99	408.01
497.35	413.02
497.72	418.40
498.08	423.99
498.44	429.73
498.80	435.91
499.17	441.87
499.53	448.11
499.89	454.87
500.26	461.78
500.62	468.86
500.98	476.20
501.34	483.92
501.71	491.75
502.07	499.56
502.43	507.78
502.79	516.17
503.16	524.73
503.52	533.68
503.88	542.92
504.24	552.58
504.60	562.63
504.97	572.96
505.33	583.28
505.69	594.42
506.05	605.53
506.41	616.69
506.78	628.47
507.14	640.59
507.50	652.80
507.86	665.32
508.22	678.19
508.59	691.35
508.95	704.76
509.31	719.04
509.67	733.45
510.03	747.65
510.39	762.48
510.75	777.76
511.12	793.29
511.48	808.96
511.84	824.73
512.20	840.70
512.56	857.06
512.92	874.11
513.28	890.84
513.64	908.14
514.00	925.85
514.37	943.54
514.73	961.72
515.09	980.04
515.45	998.64
515.81	1017.29
516.17	1036.08
516.53	1054.86
516.89	1073.53
517.25	1092.90
517.61	1113.46
517.97	1133.80
518.33	1153.82
518.69	1173.86
519.05	1194.54
519.41	1215.40
519.77	1236.61
520.13	1257.53
520.49	1278.19
520.85	1300.65
521.21	1321.87
521.57	1343.10
521.93	1363.97
522.29	1385.33
522.65	1406.15
523.01	1427.30
523.37	1448.14
523.73	1469.10
524.09	1489.61
524.45	1510.59
524.81	1531.75
525.17	1552.27
525.53	1572.98
525.89	1594.03
526.25	1615.15
526.61	1635.64
526.97	1656.93
527.33	1678.35
527.68	1700.14
528.04	1721.68
528.40	1741.19
528.76	1762.26
529.12	1782.84
529.48	1803.94
529.84	1824.02
530.20	1845.28
530.56	1866.09
530.91	1887.13
531.27	1907.98
531.63	1928.96
531.99	1949.66
532.35	1969.55
532.71	1989.99
533.07	2010.93
533.42	2030.60
533.78	2050.71
534.14	2070.54
534.50	2089.69
534.86	2108.82
535.21	2126.52
535.57	2145.08
535.93	2163.06
536.29	2181.00
536.65	2199.32
537.00	2216.83
537.36	2234.78
537.72	2251.72
538.08	2268.66
538.44	2285.48
538.79	2301.86
539.15	2318.45
539.51	2334.21
539.87	2349.80
540.22	2364.19
540.58	2378.46
540.94	2392.05
541.29	2404.65
541.65	2417.64
542.01	2430.14
542.37	2441.10
542.72	2452.30
543.08	2463.15
543.44	2475.33
543.79	2485.52
544.15	2495.44
544.51	2505.68
544.87	2515.22
545.22	2523.71
545.58	2531.66
545.94	2539.08
546.29	2545.86
546.65	2552.10
547.01	2558.20
547.36	2564.02
547.72	2569.37
548.07	2573.42
548.43	2579.18
548.79	2584.18
549.14	2588.17
549.50	2592.25
549.86	2596.39
550.21	2600.08
550.57	2603.41
550.92	2604.66
551.28	2606.10
551.64	2608.54
551.99	2610.82
552.35	2612.85
552.70	2614.99
553.06	2616.88
553.41	2617.92
553.77	2620.36
554.13	2622.47
554.48	2623.90
554.84	2625.55
555.19	2627.11
555.55	2629.15
555.90	2628.34
556.26	2627.44
556.61	2625.99
556.97	2623.93
557.32	2623.38
557.68	2622.45
558.03	2621.15
558.39	2620.37
558.74	2619.49
559.10	2616.44
559.45	2613.30
559.81	2608.96
560.16	2604.03
560.52	2599.79
560.87	2595.86
561.23	2589.68
561.58	2583.50
561.94	2576.70
562.29	2568.77
562.64	2561.65
563.00	2553.11
563.35	2546.58
563.71	2540.23
564.06	2534.18
564.42	2527.88
564.77	2520.94
565.12	2513.52
565.48	2505.69
565.83	2497.53
566.19	2489.98
566.54	2482.14
566.89	2473.66
567.25	2465.66
567.60	2458.22
567.96	2450.29
568.31	2442.31
568.66	2433.76
569.02	2425.09
569.37	2417.12
569.72	2409.99
570.08	2400.64
570.43	2391.22
570.78	2382.05
571.14	2372.67
571.49	2362.53
571.84	2352.74
572.20	2341.47
572.55	2331.35
572.90	2320.56
573.26	2310.08
573.61	2298.47
573.96	2287.45
574.31	2275.31
574.67	2263.50
575.02	2250.91
575.37	2238.20
575.72	2224.73
576.08	2212.94
576.43	2200.22
576.78	2186.88
577.13	2172.48
577.49	2159.71
577.84	2147.98
578.19	2135.72
578.54	2122.78
578.90	2110.69
579.25	2098.13
579.60	2086.07
579.95	2072.82
580.30	2059.67
580.66	2046.37
581.01	2033.06
581.36	2018.95
581.71	2006.55
582.06	1993.71
582.42	1981.31
582.77	1968.20
583.12	1956.33
583.47	1943.46
583.82	1931.53
584.17	1919.68
584.53	1908.32
584.88	1895.52
585.23	1882.08
585.58	1868.02
585.93	1854.77
586.28	1841.33
586.63	1827.15
586.98	1812.57
587.34	1799.49
587.69	1785.99
588.04	1772.97
588.39	1760.45
588.74	1748.18
589.09	1735.83
589.44	1722.95
589.79	1710.58
590.14	1698.92
590.49	1686.77
590.84	1674.74
591.19	1662.32
591.54	1649.57
591.89	1637.10
592.25	1626.82
592.60	1615.20
592.95	1603.73
593.30	1591.89
593.65	1579.81
594.00	1567.83
594.35	1557.78
594.70	1545.75
595.05	1534.40
595.40	1522.31
595.75	1510.35
596.10	1499.12
596.45	1487.36
596.80	1476.46
597.15	1464.92
597.50	1452.90
597.85	1441.10
598.19	1429.39
598.54	1417.73
598.89	1406.52
599.24	1395.86
599.59	1383.78
599.94	1372.91
600.29	1362.31
600.64	1351.60
600.99	1340.69
601.34	1331.07
601.69	1320.05
602.04	1310.10
602.39	1300.31
602.74	1291.05
603.08	1281.55
603.43	1271.85
603.78	1262.16
604.13	1252.20
604.48	1242.48
604.83	1232.75
605.18	1222.90
605.53	1213.36
605.87	1203.91
606.22	1195.39
606.57	1185.96
606.92	1176.48
607.27	1167.42
607.62	1158.55
607.96	1149.87
608.31	1141.91
608.66	1133.48
609.01	1124.72
609.36	1116.15
609.70	1107.28
610.05	1098.48
610.40	1089.90
610.75	1081.10
611.10	1072.68
611.44	1063.98
611.79	1055.62
612.14	1047.61
612.49	1039.77
612.83	1032.12
613.18	1024.43
613.53	1016.68
613.88	1008.38
614.22	1000.64
614.57	992.74
614.92	984.70
615.27	977.02
615.61	969.30
615.96	961.38
616.31	953.83
616.65	946.62
617.00	939.36
617.35	931.98
617.70	924.87
618.04	917.81
618.39	910.75
618.74	904.38
619.08	897.39
619.43	890.38
619.78	883.16
620.12	876.06
620.47	869.09
620.82	861.74
621.16	855.15
621.51	848.87
621.85	842.47
622.20	835.96
622.55	829.38
622.89	822.81
623.24	816.60
623.59	810.32
623.93	803.95
624.28	797.82
624.62	792.24
624.97	786.48
625.32	780.61
625.66	774.60
626.01	768.32
626.35	762.89
626.70	757.16
627.04	751.99
627.39	746.35
627.73	741.11
628.08	735.84
628.43	730.51
628.77	724.90
629.12	719.47
629.46	714.51
629.81	709.79
630.15	704.94
630.50	700.00
630.84	695.16
631.19	690.40
631.53	685.69
631.88	680.24
632.22	675.13
632.57	670.52
632.91	665.72
633.26	661.24
633.60	656.38
633.95	651.67
634.29	646.59
634.64	642.10
634.98	637.09
635.32	632.66
635.67	628.55
636.01	624.38
636.36	620.00
636.70	615.89
637.05	611.69
637.39	607.42
637.73	603.25
638.08	598.98
638.42	594.61
638.77	590.23
639.11	585.89
639.45	581.70
639.80	577.31
640.14	573.17
640.49	569.16
640.83	565.31
641.17	561.53
641.52	557.92
641.86	554.28
642.20	551.08
642.55	547.23
642.89	543.48
643.23	539.87
643.58	536.69
643.92	532.98
644.26	529.29
644.61	526.15
644.95	522.71
645.29	519.15
645.64	515.97
645.98	512.86
646.32	510.01
646.66	506.80
647.01	503.81
647.35	501.05
647.69	498.10
648.04	495.27
648.38	492.48
648.72	489.45
649.06	486.26
649.41	483.13
649.75	480.36
650.09	477.52
650.43	474.60
650.78	471.64
651.12	468.84
651.46	466.02
651.80	463.05
652.14	460.23
652.49	457.82
652.83	455.11
653.17	452.44
653.51	449.66
653.85	447.34
654.20	444.73
654.54	442.08
654.88	439.45
655.22	437.16
655.56	434.71
655.90	432.38
656.25	430.16
656.59	428.01
656.93	425.72
657.27	423.62
657.61	421.26
657.95	419.00
658.29	416.73
658.64	414.72
658.98	412.53
659.32	410.39
659.66	408.12
660.00	406.05
660.34	403.97
660.68	402.00
661.02	399.85
661.36	397.94
661.70	395.95
662.05	393.98
662.39	391.86
662.73	390.02
663.07	388.50
663.41	386.74
663.75	384.69
664.09	382.80
664.43	380.78
664.77	379.01
665.11	377.27
665.45	375.65
665.79	374.02
666.13	372.34
666.47	370.65
666.81	369.07
667.15	367.36
667.49	365.92
667.83	364.61
668.17	363.16
668.51	361.66
668.85	360.29
669.19	359.27
669.53	357.86
669.87	356.32
670.21	354.71
670.55	353.31
670.89	352.27
671.23	350.91
671.57	349.59
671.91	348.37
672.25	347.00
672.58	345.88
672.92	344.33
673.26	342.97
673.60	341.75
673.94	340.51
674.28	339.42
674.62	338.19
674.96	336.84
675.30	335.53
675.64	334.37
675.97	333.18
676.31	331.75
676.65	330.50
676.99	329.53
677.33	328.28
677.67	327.23
678.01	325.90
678.34	324.81
678.68	323.81
679.02	322.71
679.36	321.76
679.70	320.64
680.04	319.77
680.37	318.88
680.71	317.93
681.05	317.02
681.39	316.16
681.73	315.12
682.06	314.21
682.40	313.38
682.74	312.60
683.08	311.85
683.42	310.90
683.75	310.08
684.09	309.13
684.43	308.35
684.77	307.38
685.10	306.54
685.44	305.75
685.78	304.85
686.12	304.05
686.45	303.16
686.79	302.22
687.13	301.56
687.46	300.77
687.80	300.07
688.14	299.23
688.48	298.38
688.81	297.69
689.15	297.06
689.49	296.26
689.82	295.46
690.16	294.52
690.50	293.84
690.83	293.09
691.17	292.28
691.51	291.65
691.84	291.01
692.18	290.31
692.52	289.68
692.85	289.22
693.19	288.70
693.52	288.13
693.86	287.54
694.20	286.84
694.53	286.26
694.87	285.52
695.21	284.88
695.54	284.32
695.88	283.70
696.21	282.92
696.55	282.42
696.88	281.82
697.22	281.24
697.56	280.63
697.89	280.06
698.23	279.58
698.56	278.97
698.90	278.61
699.23	278.11
699.57	277.57
699.90	276.81
700.24	276.11
700.58	275.61
700.91	275.26
701.25	275.11
701.58	274.97
701.92	274.65
702.25	274.28
702.59	273.75
702.92	273.33
703.26	272.92
703.59	272.48
703.93	272.45
704.26	272.13
704.60	271.87
704.93	271.39
705.26	270.98
705.60	270.57
705.93	270.04
706.27	269.74
706.60	269.46
706.94	269.40
707.27	269.06
707.61	268.72
707.94	268.30
708.27	267.49
708.61	266.83
708.94	266.34
709.28	265.95
709.61	265.57
709.94	265.25
710.28	264.96
710.61	264.56
710.95	263.79
711.28	263.78
711.61	263.35
711.95	263.21
712.28	262.80
712.61	262.47
712.95	262.34
713.28	262.18
713.61	261.81
713.95	261.27
714.28	261.00
714.61	260.60
714.95	260.24
715.28	259.92
715.61	259.56
715.95	259.36
716.28	259.02
716.61	258.74
716.95	258.35
717.28	257.98
717.61	257.66
717.94	257.42
718.28	256.66
718.61	256.32
718.94	255.92
719.27	255.66
719.61	255.44
719.94	255.05
720.27	254.54
720.60	254.21
720.94	254.00
721.27	253.74
721.60	253.65
721.93	253.34
722.27	253.22
722.60	253.05
722.93	252.72
723.26	252.48
723.59	252.31
723.93	252.10
724.26	251.87
724.59	251.59
724.92	251.43
725.25	251.40
725.59	251.18
725.92	251.07
726.25	250.83
726.58	250.65
726.91	250.43
727.24	250.35
727.57	250.13
727.91	249.80
728.24	249.69
728.57	249.41
728.90	249.40
729.23	249.06
729.56	249.05
729.89	248.80
730.22	248.61
730.55	248.40
730.89	248.23
731.22	248.03
731.55	247.94
731.88	247.70
732.21	247.48
732.54	247.35
732.87	247.11
733.20	246.99
733.53	246.79
733.86	246.68
734.19	246.41
734.52	246.34
734.85	246.53
735.18	246.25
735.51	246.26
735.84	246.05
736.17	245.98
736.50	245.55
736.83	246.07
737.16	245.94
737.49	245.84
737.82	245.70
738.15	245.66
738.48	245.47
738.81	245.29
739.14	245.11
739.47	244.91
739.80	244.78
740.13	244.65
740.46	244.44
740.79	244.18
741.12	244.04
741.45	243.80
741.78	243.42
742.11	243.41
742.44	243.18
742.77	243.08
743.10	242.95
743.43	242.79
743.75	242.08
744.08	242.58
744.41	242.37
744.74	242.17
745.07	241.92
745.40	241.87
745.73	241.90
746.06	241.74
746.39	241.61
746.71	241.43
747.04	241.23
747.37	241.15
747.70	241.14
748.03	241.00
748.36	240.98
748.68	240.86
749.01	240.55
749.34	240.42
749.67	240.29
750.00	240.22
750.33	240.59
750.65	240.53
750.98	239.82
751.31	239.77
751.64	239.63
751.97	239.76
752.29	239.67
752.62	239.40
752.95	239.29
753.28	239.17
753.60	239.06
753.93	239.20
754.26	239.14
754.59	238.92
754.91	238.78
755.24	238.64
755.57	238.47
755.90	238.38
756.22	238.18
756.55	238.01
756.88	237.81
757.20	237.36
757.53	237.13
757.86	237.04
758.19	236.88
758.51	236.88
758.84	236.60
759.17	236.46
759.49	236.42
759.82	236.58
760.15	236.54
760.47	236.39
760.80	236.07
761.13	236.02
761.45	235.88
761.78	235.87
762.11	235.78
762.43	235.70
762.76	235.62
763.08	235.70
763.41	235.68
763.74	235.66
764.06	235.52
764.39	235.45
764.71	235.34
765.04	235.28
765.37	235.13
765.69	235.04
766.02	234.89
766.34	234.73
766.67	234.44
767.00	234.46
767.32	234.70
767.65	234.93
767.97	234.82
768.30	234.84
768.62	234.76
768.95	234.62
769.27	234.51
769.60	234.59
769.92	234.40
770.25	234.16
770.57	233.96
770.90	233.89
771.22	233.85
771.55	233.71
771.87	233.68
772.20	233.68
772.52	233.99
772.85	234.58
773.17	234.54
773.50	234.49
773.82	234.34
774.15	234.01
774.47	233.72
774.80	233.58
775.12	233.45
775.45	233.31
775.77	233.31
776.09	233.34
776.42	233.21
776.74	233.25
777.07	233.26
777.39	233.33
777.72	233.29
778.04	233.25
778.36	233.18
778.69	233.16
779.01	233.09
779.33	232.65
779.66	232.08
779.98	232.08
780.31	232.07
780.63	232.18
780.95	232.26
781.28	232.19
781.60	232.08
781.92	232.07
782.25	232.13
782.57	232.03
782.89	231.97
783.22	231.96
783.54	231.86
783.86	231.85
784.19	231.73
784.51	231.80
784.83	231.69
785.16	231.70
785.48	231.61
785.80	231.58
786.12	231.62
786.45	231.51
786.77	231.46
787.09	231.39
787.42	231.22
787.74	231.19
788.06	231.16
788.38	231.18
788.71	231.11
789.03	231.08
789.35	231.16
789.67	231.02
789.99	230.95
790.32	230.84
790.64	230.80
790.96	231.15
791.28	230.99
791.61	230.98
791.93	231.01
792.25	230.99
792.57	231.30
792.89	231.13
793.21	231.13
793.54	231.04
793.86	230.95
794.18	230.96
794.50	230.79
794.82	230.79
795.14	230.81
795.47	230.88
795.79	230.82
796.11	230.70
796.43	230.69
796.75	230.72
797.07	230.77
797.39	230.75
797.71	230.40
798.04	230.34
798.36	230.39
798.68	230.33
799.00	230.34
799.32	230.10
799.64	230.22
799.96	230.13
800.28	230.21
800.60	230.18
800.92	230.14
801.24	230.17
801.56	230.17
801.89	230.09
802.21	230.10
802.53	229.95
802.85	230.01
803.17	230.27
803.49	230.14
803.81	230.04
804.13	229.99
804.45	229.90
804.77	229.90
805.09	229.80
805.41	229.73
805.73	229.62
806.05	229.37
806.37	229.31
806.69	229.26
807.01	229.19
807.33	229.25
807.65	229.05
807.97	229.18
808.28	229.12
808.60	229.21
808.92	229.09
809.24	229.42
809.56	229.32
809.88	229.10
810.20	229.09
810.52	229.20
810.84	229.10
811.16	229.02
811.48	229.00
811.80	229.19
812.12	229.19
812.43	229.21
812.75	229.33
813.07	229.24
813.39	229.38
813.71	229.35
814.03	229.24
814.35	229.32
814.67	229.16
814.98	229.10
815.30	229.02
815.62	228.96
815.94	228.68
816.26	228.86
816.58	228.74
816.89	228.78
817.21	228.66
817.53	228.73
817.85	228.79
818.17	228.77
818.48	228.54
818.80	228.64
819.12	228.62
819.44	228.50
819.76	228.44
820.07	228.34
820.39	228.26
820.71	228.34
821.03	228.32
821.34	228.34
821.66	228.40
821.98	228.51
822.30	228.43
822.61	228.75
822.93	228.48
823.25	228.46
823.57	228.38
823.88	228.40
824.20	228.34
824.52	228.35
824.83	228.32
825.15	228.23
825.47	228.16
825.79	228.15
826.10	228.09
826.42	228.07
826.74	228.13
827.05	228.15
827.37	228.16
827.69	228.13
828.00	228.10
828.32	228.12
828.64	227.96
828.95	228.26
829.27	228.08
829.58	228.12
829.90	228.20
830.22	228.20
830.53	228.11
830.85	228.09
831.17	227.99
831.48	228.00
831.80	228.08
832.11	228.02
832.43	228.04
832.75	228.00
833.06	228.34
833.38	228.16
833.69	228.09
834.01	228.01
834.32	227.98
834.64	227.89
834.96	227.83
835.27	227.80
835.59	227.65
835.90	227.56
836.22	227.55
836.53	227.50
836.85	227.49
837.16	228.02
837.48	228.10
837.79	228.28
838.11	228.35
838.42	228.38
838.74	228.46
839.05	228.41
839.37	228.48
839.68	228.11
840.00	228.15
840.31	228.24
840.63	228.26
840.94	228.25
841.26	228.26
841.57	228.22
841.88	228.25
842.20	228.13
842.51	228.02
842.83	227.95
843.14	228.33
843.46	228.35
843.77	228.03
844.08	227.97
844.40	227.83
844.71	227.71
845.03	227.64
845.34	227.58
845.65	227.52
845.97	227.47
846.28	227.54
846.60	227.54
846.91	227.50
847.22	227.46
847.54	227.52
847.85	227.55
848.16	227.54
848.48	227.50
848.79	227.69
849.10	227.79
849.42	227.81
849.73	227.37
850.04	227.31
850.36	227.17
850.67	227.22
850.98	227.23
851.30	227.32
851.61	227.28
851.92	227.28
852.23	227.45
852.55	227.49
852.86	227.51
853.17	227.55
853.49	227.61
853.80	227.67
854.11	227.72
854.42	227.71
854.74	227.65
855.05	227.62
855.36	227.39
855.67	227.37
855.99	227.40
856.30	227.92
856.61	227.94
856.92	227.93
857.23	227.92
857.55	227.85
857.86	227.81
858.17	227.93
858.48	227.81
858.79	227.73
859.11	227.82
859.42	227.73
859.73	227.67
860.04	227.65
860.35	227.44
860.66	227.27
860.98	227.24
861.29	227.25
861.60	227.30
861.91	227.39
862.22	227.27
862.53	227.15
862.84	226.61
863.16	226.73
863.47	226.64
863.78	226.61
864.09	226.59
864.40	226.54
864.71	226.48
865.02	226.57
865.33	226.54
865.64	226.41
865.95	226.41
866.27	226.75
866.58	226.66
866.89	226.83
867.20	226.90
867.51	226.88
867.82	226.86
868.13	226.92
868.44	226.83
868.75	226.99
869.06	227.07
869.37	227.21
869.68	227.03
869.99	227.08
870.30	227.07
870.61	227.20
870.92	227.13
871.23	227.08
871.54	227.16
871.85	227.25
872.16	227.29
872.47	227.30
872.78	226.99
873.09	227.08
873.40	227.10
873.71	227.09
874.02	227.19
874.33	227.21
874.64	227.13
874.95	227.25
875.26	227.16
875.56	227.22
875.87	227.09
876.18	227.08
876.49	227.59
876.80	227.56
877.11	227.46
877.42	227.51
877.73	227.55
878.04	227.48
878.35	227.40
878.66	227.41
878.96	227.42
879.27	227.43
879.58	227.39
879.89	227.29
880.20	227.45
880.51	227.35
880.82	227.35
881.12	227.42
881.43	227.24
881.74	227.18
882.05	227.11
882.36	227.15
882.67	227.21
882.97	226.75
883.28	226.70
883.59	226.75
883.90	226.81
884.21	226.93
884.51	226.94
884.82	226.93
885.13	226.95
885.44	226.95
885.74	226.87
886.05	226.87
886.36	226.93
886.67	226.74
886.98	227.02
887.28	227.06
887.59	227.04
887.90	227.14
888.20	227.14
888.51	227.25
888.82	227.21
889.13	227.24
889.43	227.59
889.74	227.65
890.05	227.57
890.35	227.53
890.66	227.40
890.97	227.35
891.28	227.27
891.58	227.30
891.89	227.33
892.20	227.35
892.50	227.35
892.81	227.34
893.12	227.34
893.42	227.09
893.73	227.09
894.04	227.04
894.34	227.06
894.65	227.04
894.95	226.96
895.26	227.05
895.57	227.24
895.87	226.81
896.18	226.94
896.48	227.00
896.79	226.99
897.10	227.05
897.40	227.04
897.71	227.14
898.01	227.09
898.32	227.15
898.63	227.15
898.93	227.16
899.24	227.12
899.54	227.09
899.85	226.99
900.15	227.06
900.46	227.13
900.76	227.18
901.07	227.16
901.38	227.14
901.68	227.18
901.99	226.98
902.29	226.98
902.60	226.87
902.90	226.75
903.21	226.77
903.51	226.78
903.82	226.93
904.12	226.95
904.43	226.96
904.73	226.89
905.03	226.94
905.34	227.36
905.64	227.35
905.95	227.43
906.25	227.44
906.56	227.35
906.86	227.27
907.17	227.15
907.47	227.24
907.77	227.28
908.08	227.15
908.38	227.13
908.69	227.17
908.99	227.26
909.30	227.35
909.60	227.28
909.90	227.27
910.21	227.07
910.51	227.00
910.81	227.01
911.12	227.03
911.42	227.05
911.73	226.65
912.03	226.76
912.33	226.81
912.64	226.86
912.94	226.82
913.24	226.77
913.55	226.76
913.85	226.78
914.15	226.73
914.46	226.80
914.76	226.81
915.06	226.83
915.37	226.70
915.67	226.66
915.97	226.73
916.27	226.65
916.58	226.68
916.88	226.63
917.18	226.60
917.49	227.00
917.79	227.00
918.09	227.02
918.39	227.07
918.70	226.99
919.00	226.98
919.30	227.25
919.60	227.27
919.91	227.27
920.21	227.22
920.51	227.16
920.81	227.13
921.12	227.20
921.42	227.18
921.72	227.24
922.02	227.28
922.32	227.33
922.63	227.39
922.93	227.67
923.23	227.68
923.53	227.67
923.83	227.29
924.13	227.30
924.44	227.28
924.74	227.35
925.04	227.46
925.34	227.52
925.64	227.30
925.94	227.33
926.24	227.65
926.55	227.59
926.85	227.71
927.15	227.70
927.45	227.73
927.75	227.72
928.05	227.73
928.35	227.67
928.65	227.75
928.95	227.73
929.26	227.47
929.56	227.68
929.86	227.74
930.16	227.74
930.46	227.68
930.76	227.70
931.06	227.47
931.36	227.39
931.66	227.48
931.96	227.53
932.26	227.57
932.56	227.31
932.86	227.40
933.16	227.36
933.46	227.35
933.76	227.22
934.06	227.35
934.36	227.49
934.66	227.58
934.96	227.53
935.26	227.55
935.56	227.70
935.86	227.57
936.16	227.49
936.46	227.43
936.76	227.38
937.06	227.37
937.36	227.49
937.66	227.53
937.96	227.50
938.26	227.36
938.56	227.28
938.86	227.35
939.16	227.40
939.46	227.44
939.76	227.43
940.06	227.52
940.35	227.42
940.65	227.25
940.95	227.19
941.25	227.03
941.55	226.99
941.85	226.91
942.15	226.99
942.45	227.08
942.75	227.05
943.04	227.11
943.34	227.14
943.64	227.00
943.94	226.91
944.24	226.85
944.54	226.93
944.84	226.91
945.13	226.83
945.43	226.77
945.73	226.79
946.03	226.80
946.33	226.62
946.62	226.65
946.92	226.59
947.22	226.60
947.52	226.63
947.82	226.64
948.11	226.61
948.41	226.42
948.71	226.33
949.01	226.35
949.31	226.27
949.60	226.21
949.90	226.28
950.20	226.26
950.50	226.29
950.79	226.30
951.09	226.36
951.39	226.33
951.69	226.27
951.98	226.30
952.28	226.35
952.58	226.40
952.87	226.38
953.17	226.49
953.47	226.45
953.76	226.48
954.06	226.43
954.36	226.32
954.66	226.37
954.95	226.49
955.25	226.60
955.55	226.64
955.84	226.60
956.14	226.65
956.44	226.69
956.73	226.59
957.03	226.54
957.32	226.47
957.62	226.49
957.92	226.64
958.21	226.62
958.51	227.13
958.81	227.14
959.10	227.17
959.40	227.18
959.69	227.22
959.99	227.25
960.29	227.29
960.58	227.30
960.88	227.47
961.17	227.41
961.47	227.42
961.76	227.40
962.06	227.44
962.36	227.45
962.65	227.41
962.95	227.38
963.24	227.36
963.54	227.46
963.83	227.51
964.13	227.37
964.42	227.21
964.72	226.75
965.01	226.74
965.31	226.70
965.60	226.68
965.90	227.00
966.19	226.96
966.49	227.01
966.78	227.06
967.08	227.01
967.37	227.03
967.67	226.88
967.96	226.96
968.26	227.04
968.55	227.07
968.85	227.12
969.14	227.23
969.43	227.28
969.73	227.21
970.02	227.14
970.32	227.13
970.61	227.19
970.91	227.11
971.20	227.10
971.49	227.04
971.79	227.12
972.08	226.72
972.38	226.70
972.67	226.67
972.96	226.65
973.26	226.64
973.55	226.74
973.85	226.77
974.14	226.72
974.43	226.69
974.73	226.57
975.02	226.48
975.31	226.41
975.61	226.41
975.90	226.36
976.19	226.28
976.49	226.40
976.78	226.42
977.07	226.47
977.37	226.49
977.66	226.52
977.95	226.38
978.24	226.46
978.54	226.62
978.83	226.56
979.12	226.55
979.42	226.50
979.71	226.41
980.00	226.40
980.29	226.47
980.59	226.30
980.88	226.39
981.17	226.36
981.46	226.45
981.76	226.39
982.05	226.56
982.34	226.67
982.63	226.62
982.93	226.55
983.22	226.57
983.51	226.58
983.80	226.67
984.09	226.72
984.39	226.68
984.68	226.57
984.97	226.65
985.26	226.66
985.55	226.69
985.85	226.64
986.14	226.70
986.43	226.73
986.72	226.79
987.01	226.63
987.30	226.64
987.59	226.56
987.89	226.60
988.18	226.46
988.47	226.39
988.76	226.37
989.05	226.34
989.34	226.34
989.63	226.52
989.92	226.43
990.22	226.40
990.51	226.40
990.80	226.34
991.09	226.32
991.38	226.33
991.67	226.28
991.96	226.19
992.25	226.19
992.54	226.06
992.83	226.03
993.12	226.07
993.41	226.21
993.70	226.36
993.99	226.46
994.28	226.54
994.58	226.64
994.87	226.65
995.16	226.70
995.45	226.67
995.74	226.41
996.03	226.50
996.32	226.55
996.61	226.66
996.90	226.77
997.19	226.80
997.48	226.82
997.77	226.77
998.06	226.84
998.34	226.85
998.63	226.88
998.92	226.95
999.21	227.07
999.50	227.04
999.79	226.94
1000.08	226.91
1000.37	226.97
1000.66	226.91
1000.95	226.95
1001.24	226.96
1001.53	227.06
1001.82	227.14
1002.11	226.98
1002.40	226.98
1002.68	227.07
1002.97	227.33
1003.26	227.26
1003.55	227.21
1003.84	227.23
1004.13	227.36
1004.42	227.31
1004.71	227.33
1004.99	227.32
1005.28	227.40
1005.57	227.29
1005.86	227.15
1006.15	227.09
1006.44	226.90
1006.72	226.96
1007.01	226.92
1007.30	226.93
1007.59	226.83
1007.88	226.78
1008.17	226.84
1008.45	226.77
1008.74	226.52
1009.03	226.32
1009.32	226.29
1009.60	226.30
1009.89	226.34
1010.18	226.10
1010.47	226.09
1010.76	226.06
1011.04	225.99
1011.33	225.96
1011.62	226.06
1011.91	226.14
1012.19	226.16
1012.48	226.22
1012.77	226.13
1013.05	226.30
1013.34	226.29
1013.63	226.24
1013.92	226.20
1014.20	226.15
1014.49	226.17
1014.78	226.31
1015.06	226.07
1015.35	226.05
1015.64	226.09
1015.92	226.12
1016.21	226.21
1016.50	226.16
1016.78	226.25
1017.07	226.29
1017.36	226.15
1017.64	226.12
1017.93	226.14
1018.22	226.13
1018.50	226.19
1018.79	226.16
1019.08	225.92
1019.36	225.95
1019.65	225.93
1019.93	226.07
1020.22	226.11
1020.51	226.33
1020.79	226.18
1021.08	225.80
1021.36	226.40
1021.65	225.00
1021.94	225.30
1022.22	226.65
1022.51	225.45
1022.79	227.80
1023.08	225.95
1023.36	230.90
1023.65	224.30
>>>>>End Processed Spectral Data<<<<<
