SpectraSuite Data File
++++++++++++++++++++++++++++++++++++
Date: Wed Sep 04 18:03:29 EDT 2013
User: lab3
Dark Spectrum Present: Yes
Reference Spectrum Present: No
Number of Sampled Component Spectra: 1
Spectrometers: USB2E7196
Integration Time (usec): 170000 (USB2E7196)
Spectra Averaged: 20 (USB2E7196)
Boxcar Smoothing: 10 (USB2E7196)
Correct for Electrical Dark: No (USB2E7196)
Strobe/Lamp Enabled: No (USB2E7196)
Correct for Detector Non-linearity: No (USB2E7196)
Correct for Stray Light: No (USB2E7196)
Number of Pixels in Processed Spectrum: 2048
>>>>>Begin Processed Spectral Data<<<<<
339.09	0.00
339.48	211.85
339.86	215.50
340.24	215.80
340.63	218.00
341.01	226.05
341.39	219.80
341.78	222.10
342.16	224.30
342.54	222.75
342.93	212.55
343.31	223.33
343.69	223.86
344.07	224.34
344.46	224.79
344.84	225.26
345.22	225.22
345.60	225.55
345.99	225.74
346.37	225.82
346.75	225.94
347.13	226.04
347.52	226.05
347.90	226.26
348.28	226.34
348.66	226.41
349.05	226.20
349.43	226.27
349.81	226.31
350.19	226.44
350.57	226.49
350.96	226.57
351.34	226.59
351.72	226.73
352.10	226.82
352.48	226.87
352.87	226.80
353.25	226.94
353.63	226.94
354.01	226.94
354.39	227.09
354.77	227.07
355.15	227.22
355.54	227.32
355.92	227.20
356.30	227.26
356.68	227.67
357.06	227.76
357.44	227.75
357.82	227.85
358.20	228.28
358.58	228.42
358.97	228.55
359.35	228.73
359.73	228.92
360.11	228.94
360.49	229.07
360.87	229.18
361.25	229.23
361.63	229.41
362.01	229.55
362.39	229.50
362.77	229.70
363.15	229.78
363.53	229.76
363.91	229.83
364.29	229.85
364.67	229.42
365.05	229.49
365.43	229.61
365.81	229.62
366.19	229.53
366.57	229.70
366.95	229.62
367.33	229.55
367.71	229.55
368.09	229.61
368.47	229.61
368.85	229.55
369.23	229.67
369.61	229.57
369.99	229.74
370.37	229.93
370.75	230.14
371.13	230.00
371.51	229.99
371.89	230.00
372.27	230.05
372.65	230.10
373.03	230.07
373.41	230.01
373.78	229.98
374.16	229.67
374.54	229.44
374.92	229.46
375.30	229.49
375.68	229.31
376.06	229.33
376.44	229.27
376.82	229.36
377.19	229.29
377.57	229.23
377.95	229.03
378.33	228.84
378.71	228.53
379.09	228.56
379.47	228.46
379.84	228.35
380.22	228.17
380.60	228.03
380.98	227.93
381.36	227.82
381.73	227.69
382.11	227.73
382.49	227.62
382.87	227.50
383.25	227.33
383.62	227.90
384.00	227.71
384.38	227.63
384.76	227.56
385.13	227.69
385.51	227.58
385.89	227.43
386.27	227.42
386.64	227.42
387.02	227.30
387.40	227.25
387.78	227.22
388.15	227.27
388.53	227.26
388.91	227.23
389.29	227.15
389.66	227.20
390.04	227.17
390.42	227.29
390.79	227.30
391.17	227.35
391.55	226.75
391.92	226.75
392.30	226.80
392.68	226.75
393.05	226.64
393.43	226.64
393.81	226.76
394.18	226.71
394.56	226.67
394.94	226.82
395.31	226.81
395.69	227.04
396.06	227.16
396.44	227.13
396.82	227.10
397.19	227.47
397.57	227.45
397.95	227.54
398.32	227.46
398.70	227.57
399.07	227.73
399.45	227.83
399.82	227.95
400.20	227.98
400.58	228.05
400.95	227.97
401.33	228.20
401.70	228.64
402.08	228.74
402.45	228.88
402.83	229.14
403.20	229.35
403.58	229.42
403.95	229.63
404.33	229.93
404.71	230.14
405.08	230.49
405.46	230.71
405.83	230.96
406.21	231.22
406.58	231.49
406.96	231.73
407.33	232.12
407.70	232.43
408.08	233.20
408.45	233.60
408.83	234.15
409.20	234.52
409.58	234.64
409.95	235.21
410.33	235.85
410.70	236.20
411.08	236.82
411.45	237.40
411.82	237.97
412.20	238.72
412.57	239.77
412.95	240.18
413.32	241.12
413.69	241.91
414.07	242.86
414.44	243.88
414.82	244.96
415.19	246.10
415.56	247.30
415.94	248.26
416.31	249.72
416.68	251.12
417.06	252.77
417.43	254.40
417.81	256.16
418.18	257.91
418.55	259.75
418.93	261.78
419.30	263.91
419.67	266.08
420.04	268.40
420.42	270.76
420.79	273.89
421.16	276.60
421.54	279.73
421.91	282.76
422.28	285.79
422.66	289.10
423.03	292.52
423.40	295.95
423.77	299.59
424.15	303.25
424.52	307.10
424.89	311.30
425.26	315.27
425.64	319.11
426.01	323.40
426.38	327.88
426.75	332.47
427.13	337.03
427.50	341.83
427.87	346.66
428.24	351.58
428.61	355.97
428.99	361.37
429.36	366.85
429.73	372.32
430.10	377.90
430.47	383.54
430.85	389.19
431.22	395.28
431.59	402.13
431.96	408.41
432.33	415.31
432.70	421.94
433.08	429.91
433.45	437.31
433.82	444.70
434.19	453.00
434.56	461.06
434.93	468.82
435.30	476.54
435.68	485.12
436.05	493.58
436.42	502.08
436.79	509.86
437.16	518.22
437.53	527.03
437.90	535.73
438.27	544.38
438.64	553.46
439.01	561.87
439.38	569.06
439.75	576.27
440.13	584.28
440.50	591.87
440.87	597.89
441.24	604.40
441.61	611.35
441.98	616.48
442.35	622.40
442.72	628.55
443.09	634.54
443.46	638.17
443.83	640.48
444.20	642.41
444.57	645.01
444.94	646.15
445.31	647.18
445.68	648.69
446.05	648.77
446.42	647.24
446.79	645.81
447.16	644.21
447.53	642.83
447.90	639.19
448.27	635.60
448.64	630.83
449.01	627.10
449.37	620.87
449.74	614.67
450.11	607.60
450.48	599.70
450.85	591.69
451.22	584.65
451.59	578.10
451.96	571.69
452.33	563.50
452.70	556.11
453.07	547.43
453.43	538.20
453.80	529.82
454.17	521.91
454.54	514.22
454.91	505.96
455.28	497.92
455.65	490.39
456.02	483.43
456.38	477.06
456.75	469.21
457.12	462.67
457.49	456.40
457.86	450.10
458.23	444.97
458.59	439.13
458.96	433.36
459.33	428.18
459.70	423.11
460.07	419.02
460.43	414.33
460.80	410.14
461.17	406.40
461.54	402.40
461.91	398.57
462.27	394.60
462.64	391.25
463.01	387.65
463.38	384.38
463.74	380.31
464.11	377.25
464.48	374.60
464.85	371.73
465.21	369.60
465.58	367.33
465.95	364.41
466.32	362.20
466.68	359.91
467.05	357.61
467.42	355.46
467.78	353.11
468.15	350.84
468.52	349.19
468.88	346.86
469.25	344.92
469.62	343.36
469.98	341.72
470.35	340.23
470.72	338.84
471.08	337.08
471.45	335.79
471.82	334.45
472.18	332.98
472.55	331.91
472.92	330.56
473.28	329.37
473.65	328.35
474.02	327.24
474.38	326.40
474.75	325.65
475.11	324.65
475.48	324.05
475.85	323.49
476.21	322.86
476.58	322.41
476.94	321.97
477.31	321.44
477.67	321.04
478.04	320.64
478.41	320.37
478.77	320.69
479.14	320.49
479.50	320.32
479.87	320.38
480.23	320.52
480.60	320.47
480.96	320.44
481.33	320.81
481.69	321.03
482.06	321.40
482.42	321.62
482.79	322.01
483.15	322.42
483.52	323.05
483.88	323.51
484.25	324.03
484.61	324.73
484.98	325.48
485.34	326.43
485.71	327.36
486.07	328.32
486.44	328.87
486.80	329.92
487.17	331.15
487.53	332.46
487.90	333.79
488.26	335.42
488.62	337.20
488.99	338.59
489.35	340.43
489.72	342.10
490.08	344.16
490.44	346.17
490.81	348.41
491.17	350.57
491.54	353.13
491.90	355.70
492.26	358.31
492.63	361.10
492.99	364.05
493.36	367.17
493.72	370.56
494.08	373.98
494.45	377.83
494.81	381.70
495.17	385.56
495.54	389.77
495.90	394.06
496.26	398.41
496.63	403.29
496.99	407.98
497.35	413.04
497.72	418.40
498.08	423.92
498.44	429.55
498.80	435.52
499.17	441.53
499.53	447.75
499.89	454.56
500.26	461.51
500.62	468.45
500.98	475.92
501.34	483.32
501.71	491.05
502.07	498.86
502.43	506.94
502.79	515.44
503.16	524.06
503.52	533.11
503.88	542.47
504.24	551.97
504.60	562.19
504.97	572.59
505.33	583.05
505.69	594.10
506.05	605.26
506.41	616.55
506.78	628.24
507.14	640.59
507.50	652.98
507.86	665.61
508.22	678.55
508.59	691.67
508.95	705.43
509.31	719.69
509.67	733.86
510.03	748.30
510.39	762.93
510.75	778.25
511.12	793.48
511.48	809.23
511.84	825.15
512.20	841.05
512.56	857.33
512.92	873.99
513.28	890.68
513.64	907.96
514.00	925.49
514.37	943.42
514.73	961.55
515.09	979.55
515.45	997.95
515.81	1016.29
516.17	1035.15
516.53	1053.95
516.89	1072.74
517.25	1092.21
517.61	1112.61
517.97	1133.01
518.33	1152.93
518.69	1173.20
519.05	1193.56
519.41	1214.25
519.77	1235.43
520.13	1256.32
520.49	1277.03
520.85	1299.61
521.21	1320.67
521.57	1342.20
521.93	1363.16
522.29	1384.33
522.65	1405.18
523.01	1426.21
523.37	1447.25
523.73	1468.45
524.09	1489.03
524.45	1509.80
524.81	1530.79
525.17	1551.25
525.53	1571.96
525.89	1593.00
526.25	1614.01
526.61	1634.64
526.97	1655.69
527.33	1677.02
527.68	1699.03
528.04	1720.51
528.40	1740.12
528.76	1761.22
529.12	1781.80
529.48	1802.32
529.84	1822.39
530.20	1843.63
530.56	1864.50
530.91	1885.38
531.27	1905.78
531.63	1926.76
531.99	1947.78
532.35	1967.68
532.71	1988.08
533.07	2008.81
533.42	2028.75
533.78	2048.80
534.14	2069.05
534.50	2088.40
534.86	2107.41
535.21	2124.84
535.57	2143.53
535.93	2161.41
536.29	2179.33
536.65	2197.48
537.00	2215.24
537.36	2233.06
537.72	2249.89
538.08	2267.21
538.44	2284.17
538.79	2300.56
539.15	2317.00
539.51	2332.93
539.87	2348.91
540.22	2363.48
540.58	2377.97
540.94	2391.43
541.29	2403.90
541.65	2416.23
542.01	2428.90
542.37	2439.86
542.72	2451.24
543.08	2462.00
543.44	2474.12
543.79	2484.82
544.15	2494.56
544.51	2504.94
544.87	2514.87
545.22	2523.59
545.58	2531.28
545.94	2538.68
546.29	2545.42
546.65	2551.72
547.01	2557.39
547.36	2562.72
547.72	2567.95
548.07	2572.35
548.43	2577.92
548.79	2582.77
549.14	2587.00
549.50	2590.66
549.86	2594.84
550.21	2598.41
550.57	2601.57
550.92	2602.85
551.28	2604.10
551.64	2606.83
551.99	2608.63
552.35	2610.09
552.70	2612.27
553.06	2614.16
553.41	2615.37
553.77	2617.37
554.13	2619.30
554.48	2620.95
554.84	2622.41
555.19	2623.73
555.55	2625.01
555.90	2623.74
556.26	2623.15
556.61	2621.84
556.97	2619.99
557.32	2619.33
557.68	2618.22
558.03	2617.06
558.39	2615.97
558.74	2615.44
559.10	2612.43
559.45	2609.07
559.81	2605.02
560.16	2600.20
560.52	2595.59
560.87	2591.29
561.23	2585.95
561.58	2579.80
561.94	2573.05
562.29	2565.92
562.64	2558.61
563.00	2550.61
563.35	2544.72
563.71	2538.20
564.06	2531.95
564.42	2525.50
564.77	2518.71
565.12	2511.31
565.48	2503.55
565.83	2495.63
566.19	2487.32
566.54	2479.54
566.89	2471.51
567.25	2463.69
567.60	2456.19
567.96	2448.28
568.31	2440.24
568.66	2431.54
569.02	2422.82
569.37	2414.32
569.72	2406.65
570.08	2397.68
570.43	2387.79
570.78	2378.47
571.14	2368.84
571.49	2358.79
571.84	2349.33
572.20	2338.14
572.55	2328.18
572.90	2317.39
573.26	2306.88
573.61	2295.83
573.96	2284.59
574.31	2272.49
574.67	2260.47
575.02	2248.03
575.37	2235.55
575.72	2222.20
576.08	2209.99
576.43	2197.39
576.78	2184.34
577.13	2170.61
577.49	2157.61
577.84	2145.91
578.19	2133.72
578.54	2121.44
578.90	2109.46
579.25	2096.64
579.60	2084.40
579.95	2071.20
580.30	2057.86
580.66	2044.18
581.01	2030.33
581.36	2016.00
581.71	2003.39
582.06	1990.42
582.42	1977.35
582.77	1964.69
583.12	1952.72
583.47	1940.16
583.82	1927.77
584.17	1915.89
584.53	1903.76
584.88	1891.02
585.23	1878.05
585.58	1863.54
585.93	1849.96
586.28	1836.45
586.63	1822.20
586.98	1807.70
587.34	1794.40
587.69	1781.04
588.04	1768.63
588.39	1756.38
588.74	1744.32
589.09	1731.98
589.44	1719.22
589.79	1707.12
590.14	1695.13
590.49	1683.09
590.84	1671.20
591.19	1659.04
591.54	1646.43
591.89	1634.15
592.25	1623.84
592.60	1612.25
592.95	1601.31
593.30	1589.32
593.65	1577.37
594.00	1565.75
594.35	1556.10
594.70	1544.14
595.05	1532.96
595.40	1520.94
595.75	1508.97
596.10	1497.55
596.45	1486.06
596.80	1475.30
597.15	1463.86
597.50	1451.65
597.85	1440.19
598.19	1428.12
598.54	1416.58
598.89	1405.22
599.24	1394.69
599.59	1382.80
599.94	1371.82
600.29	1361.18
600.64	1350.84
600.99	1340.07
601.34	1330.42
601.69	1318.88
602.04	1309.03
602.39	1299.07
602.74	1289.79
603.08	1280.53
603.43	1271.12
603.78	1261.46
604.13	1251.48
604.48	1241.74
604.83	1232.19
605.18	1222.35
605.53	1212.86
605.87	1203.41
606.22	1195.01
606.57	1185.50
606.92	1176.14
607.27	1167.08
607.62	1158.19
607.96	1149.47
608.31	1141.30
608.66	1132.99
609.01	1124.45
609.36	1115.92
609.70	1107.31
610.05	1098.15
610.40	1089.48
610.75	1080.74
611.10	1071.96
611.44	1063.40
611.79	1055.06
612.14	1047.08
612.49	1038.89
612.83	1031.56
613.18	1023.93
613.53	1016.08
613.88	1007.82
614.22	1000.25
614.57	992.25
614.92	984.17
615.27	976.74
615.61	969.03
615.96	961.27
616.31	953.76
616.65	946.66
617.00	939.19
617.35	932.24
617.70	925.08
618.04	917.92
618.39	911.26
618.74	904.71
619.08	897.89
619.43	890.74
619.78	883.89
620.12	876.54
620.47	869.62
620.82	862.20
621.16	855.63
621.51	849.14
621.85	842.78
622.20	836.05
622.55	829.16
622.89	822.50
623.24	815.96
623.59	809.43
623.93	802.94
624.28	796.87
624.62	791.11
624.97	785.29
625.32	779.57
625.66	773.48
626.01	767.32
626.35	761.73
626.70	756.19
627.04	750.85
627.39	745.23
627.73	739.86
628.08	734.70
628.43	729.30
628.77	723.64
629.12	718.22
629.46	713.53
629.81	708.64
630.15	703.94
630.50	699.04
630.84	694.15
631.19	689.33
631.53	684.62
631.88	679.31
632.22	674.17
632.57	669.45
632.91	664.71
633.26	660.07
633.60	655.29
633.95	650.53
634.29	645.50
634.64	641.10
634.98	636.26
635.32	631.80
635.67	627.73
636.01	623.56
636.36	619.14
636.70	615.00
637.05	610.85
637.39	606.61
637.73	602.29
638.08	598.20
638.42	593.98
638.77	589.56
639.11	585.15
639.45	580.92
639.80	576.65
640.14	572.55
640.49	568.64
640.83	564.71
641.17	561.11
641.52	557.41
641.86	553.72
642.20	550.48
642.55	546.87
642.89	543.13
643.23	539.52
643.58	536.50
643.92	532.85
644.26	529.41
644.61	526.13
644.95	522.85
645.29	519.58
645.64	516.28
645.98	513.36
646.32	510.40
646.66	507.30
647.01	504.23
647.35	501.47
647.69	498.62
648.04	495.93
648.38	493.06
648.72	490.20
649.06	487.19
649.41	484.13
649.75	481.14
650.09	478.21
650.43	475.31
650.78	472.21
651.12	469.33
651.46	466.48
651.80	463.72
652.14	461.01
652.49	458.46
652.83	455.97
653.17	453.22
653.51	450.55
653.85	448.10
654.20	445.59
654.54	442.99
654.88	440.40
655.22	438.00
655.56	435.51
655.90	433.08
656.25	430.80
656.59	428.48
656.93	426.13
657.27	424.07
657.61	421.75
657.95	419.56
658.29	417.42
658.64	415.29
658.98	412.95
659.32	410.59
659.66	408.25
660.00	406.13
660.34	404.10
660.68	402.09
661.02	400.02
661.36	398.08
661.70	395.92
662.05	393.88
662.39	391.90
662.73	390.14
663.07	388.44
663.41	386.49
663.75	384.57
664.09	382.77
664.43	380.84
664.77	379.13
665.11	377.35
665.45	375.69
665.79	374.02
666.13	372.35
666.47	370.82
666.81	369.19
667.15	367.40
667.49	365.80
667.83	364.47
668.17	363.03
668.51	361.46
668.85	360.14
669.19	358.95
669.53	357.39
669.87	355.72
670.21	354.24
670.55	352.88
670.89	351.82
671.23	350.49
671.57	349.09
671.91	347.65
672.25	346.31
672.58	345.16
672.92	343.71
673.26	342.36
673.60	341.14
673.94	339.97
674.28	338.85
674.62	337.75
674.96	336.32
675.30	335.08
675.64	333.87
675.97	332.58
676.31	331.17
676.65	329.97
676.99	329.14
677.33	327.97
677.67	326.89
678.01	325.49
678.34	324.44
678.68	323.50
679.02	322.48
679.36	321.46
679.70	320.26
680.04	319.37
680.37	318.48
680.71	317.46
681.05	316.60
681.39	315.68
681.73	314.67
682.06	313.80
682.40	312.93
682.74	312.18
683.08	311.52
683.42	310.70
683.75	309.91
684.09	308.86
684.43	308.02
684.77	307.12
685.10	306.39
685.44	305.63
685.78	304.72
686.12	303.99
686.45	303.16
686.79	302.29
687.13	301.65
687.46	300.87
687.80	300.30
688.14	299.39
688.48	298.60
688.81	297.79
689.15	297.15
689.49	296.33
689.82	295.64
690.16	294.76
690.50	294.03
690.83	293.22
691.17	292.49
691.51	291.87
691.84	291.34
692.18	290.66
692.52	290.00
692.85	289.41
693.19	288.98
693.52	288.40
693.86	287.83
694.20	287.12
694.53	286.49
694.87	285.68
695.21	285.08
695.54	284.50
695.88	283.93
696.21	283.16
696.55	282.64
696.88	281.94
697.22	281.36
697.56	280.83
697.89	280.28
698.23	279.80
698.56	279.18
698.90	278.58
699.23	277.96
699.57	277.38
699.90	276.75
700.24	276.05
700.58	275.64
700.91	275.21
701.25	275.05
701.58	274.86
701.92	274.53
702.25	274.09
702.59	273.59
702.92	273.20
703.26	272.85
703.59	272.43
703.93	272.46
704.26	272.04
704.60	271.67
704.93	271.29
705.26	270.83
705.60	270.45
705.93	270.02
706.27	269.71
706.60	269.44
706.94	269.36
707.27	268.91
707.61	268.54
707.94	268.21
708.27	267.45
708.61	266.70
708.94	266.27
709.28	265.80
709.61	265.47
709.94	265.14
710.28	264.86
710.61	264.46
710.95	263.63
711.28	263.60
711.61	263.23
711.95	262.94
712.28	262.47
712.61	262.18
712.95	262.06
713.28	261.93
713.61	261.42
713.95	260.87
714.28	260.49
714.61	260.08
714.95	259.62
715.28	259.28
715.61	258.97
715.95	258.61
716.28	258.30
716.61	258.01
716.95	257.62
717.28	257.22
717.61	256.97
717.94	256.69
718.28	255.99
718.61	255.64
718.94	255.32
719.27	255.10
719.61	254.79
719.94	254.40
720.27	253.96
720.60	253.69
720.94	253.42
721.27	253.32
721.60	253.16
721.93	253.01
722.27	252.95
722.60	252.80
722.93	252.55
723.26	252.44
723.59	252.27
723.93	252.07
724.26	251.87
724.59	251.54
724.92	251.43
725.25	251.39
725.59	251.16
725.92	251.05
726.25	250.83
726.58	250.71
726.91	250.40
727.24	250.27
727.57	250.07
727.91	249.82
728.24	249.64
728.57	249.36
728.90	249.18
729.23	248.85
729.56	248.86
729.89	248.73
730.22	248.55
730.55	248.21
730.89	248.00
731.22	247.82
731.55	247.70
731.88	247.49
732.21	247.23
732.54	247.04
732.87	246.82
733.20	246.72
733.53	246.52
733.86	246.51
734.19	246.26
734.52	246.24
734.85	246.44
735.18	246.19
735.51	246.23
735.84	246.09
736.17	246.06
736.50	245.63
736.83	246.06
737.16	245.92
737.49	245.80
737.82	245.70
738.15	245.64
738.48	245.49
738.81	245.33
739.14	245.10
739.47	244.98
739.80	244.77
740.13	244.67
740.46	244.46
740.79	244.17
741.12	244.02
741.45	243.79
741.78	243.40
742.11	243.40
742.44	243.11
742.77	243.00
743.10	242.78
743.43	242.62
743.75	241.90
744.08	242.34
744.41	242.21
744.74	242.06
745.07	241.80
745.40	241.76
745.73	241.80
746.06	241.77
746.39	241.68
746.71	241.61
747.04	241.40
747.37	241.30
747.70	241.24
748.03	241.11
748.36	241.06
748.68	240.91
749.01	240.66
749.34	240.52
749.67	240.43
750.00	240.34
750.33	240.62
750.65	240.55
750.98	239.78
751.31	239.63
751.64	239.52
751.97	239.68
752.29	239.57
752.62	239.24
752.95	239.04
753.28	238.90
753.60	238.68
753.93	238.71
754.26	238.65
754.59	238.46
754.91	238.31
755.24	238.10
755.57	237.98
755.90	237.86
756.22	237.69
756.55	237.51
756.88	237.34
757.20	236.92
757.53	236.65
757.86	236.59
758.19	236.55
758.51	236.45
758.84	236.08
759.17	235.87
759.49	235.83
759.82	236.04
760.15	235.94
760.47	235.91
760.80	235.67
761.13	235.66
761.45	235.62
761.78	235.59
762.11	235.52
762.43	235.36
762.76	235.24
763.08	235.21
763.41	235.14
763.74	235.05
764.06	234.88
764.39	234.86
764.71	234.78
765.04	234.66
765.37	234.56
765.69	234.47
766.02	234.42
766.34	234.32
766.67	234.04
767.00	234.04
767.32	234.25
767.65	234.47
767.97	234.30
768.30	234.26
768.62	234.17
768.95	234.14
769.27	234.14
769.60	234.19
769.92	234.08
770.25	233.97
770.57	233.92
770.90	233.89
771.22	233.82
771.55	233.78
771.87	233.73
772.20	233.68
772.52	234.05
772.85	234.52
773.17	234.50
773.50	234.41
773.82	234.33
774.15	234.00
774.47	233.64
774.80	233.52
775.12	233.40
775.45	233.37
775.77	233.26
776.09	233.25
776.42	233.21
776.74	233.34
777.07	233.26
777.39	233.20
777.72	233.15
778.04	233.23
778.36	233.13
778.69	233.11
779.01	233.05
779.33	232.60
779.66	231.99
779.98	231.91
780.31	231.95
780.63	232.09
780.95	232.14
781.28	232.15
781.60	232.11
781.92	232.11
782.25	232.06
782.57	232.03
782.89	231.90
783.22	231.75
783.54	231.64
783.86	231.59
784.19	231.55
784.51	231.70
784.83	231.55
785.16	231.55
785.48	231.52
785.80	231.52
786.12	231.55
786.45	231.56
786.77	231.54
787.09	231.40
787.42	231.26
787.74	231.24
788.06	231.22
788.38	231.20
788.71	231.12
789.03	231.08
789.35	231.12
789.67	231.10
789.99	231.13
790.32	231.04
790.64	231.14
790.96	231.50
791.28	231.35
791.61	231.29
791.93	231.27
792.25	231.23
792.57	231.53
792.89	231.35
793.21	231.36
793.54	231.32
793.86	231.21
794.18	231.11
794.50	230.95
794.82	230.90
795.14	230.92
795.47	230.97
795.79	230.97
796.11	230.86
796.43	230.75
796.75	230.66
797.07	230.67
797.39	230.56
797.71	230.16
798.04	230.05
798.36	230.05
798.68	230.00
799.00	230.04
799.32	229.73
799.64	229.83
799.96	229.76
800.28	229.80
800.60	229.81
800.92	229.77
801.24	229.71
801.56	229.72
801.89	229.66
802.21	229.70
802.53	229.54
802.85	229.58
803.17	229.78
803.49	229.76
803.81	229.59
804.13	229.57
804.45	229.49
804.77	229.52
805.09	229.48
805.41	229.48
805.73	229.34
806.05	229.18
806.37	229.05
806.69	228.98
807.01	228.91
807.33	228.92
807.65	228.85
807.97	229.04
808.28	229.00
808.60	228.96
808.92	228.89
809.24	229.20
809.56	229.16
809.88	229.01
810.20	229.00
810.52	229.15
810.84	229.10
811.16	229.06
811.48	229.00
811.80	229.18
812.12	229.04
812.43	229.16
812.75	229.21
813.07	229.20
813.39	229.26
813.71	229.19
814.03	229.08
814.35	229.11
814.67	228.99
814.98	228.87
815.30	228.87
815.62	228.74
815.94	228.40
816.26	228.60
816.58	228.49
816.89	228.52
817.21	228.35
817.53	228.37
817.85	228.36
818.17	228.40
818.48	228.16
818.80	228.30
819.12	228.17
819.44	228.12
819.76	228.12
820.07	228.12
820.39	228.15
820.71	228.27
821.03	228.24
821.34	228.14
821.66	228.24
821.98	228.28
822.30	228.24
822.61	228.60
822.93	228.32
823.25	228.34
823.57	228.29
823.88	228.47
824.20	228.45
824.52	228.62
824.83	228.59
825.15	228.58
825.47	228.53
825.79	228.55
826.10	228.47
826.42	228.46
826.74	228.52
827.05	228.48
827.37	228.48
827.69	228.48
828.00	228.58
828.32	228.57
828.64	228.52
828.95	228.79
829.27	228.66
829.58	228.67
829.90	228.79
830.22	228.83
830.53	228.72
830.85	228.64
831.17	228.47
831.48	228.45
831.80	228.49
832.11	228.53
832.43	228.47
832.75	228.58
833.06	228.84
833.38	228.69
833.69	228.57
834.01	228.60
834.32	228.57
834.64	228.44
834.96	228.44
835.27	228.38
835.59	228.22
835.90	228.08
836.22	228.07
836.53	227.94
836.85	227.86
837.16	228.26
837.48	228.23
837.79	228.33
838.11	228.26
838.42	228.23
838.74	228.26
839.05	228.21
839.37	228.14
839.68	227.86
840.00	227.86
840.31	227.95
840.63	227.86
840.94	227.72
841.26	227.66
841.57	227.59
841.88	227.64
842.20	227.59
842.51	227.51
842.83	227.55
843.14	227.94
843.46	227.98
843.77	227.67
844.08	227.70
844.40	227.54
844.71	227.57
845.03	227.56
845.34	227.46
845.65	227.52
845.97	227.51
846.28	227.51
846.60	227.50
846.91	227.44
847.22	227.41
847.54	227.60
847.85	227.65
848.16	227.65
848.48	227.51
848.79	227.71
849.10	227.80
849.42	227.75
849.73	227.32
850.04	227.28
850.36	227.16
850.67	227.26
850.98	227.35
851.30	227.40
851.61	227.38
851.92	227.39
852.23	227.42
852.55	227.40
852.86	227.42
853.17	227.46
853.49	227.62
853.80	227.71
854.11	227.69
854.42	227.74
854.74	227.73
855.05	227.82
855.36	227.55
855.67	227.52
855.99	227.53
856.30	228.10
856.61	228.06
856.92	228.11
857.23	228.15
857.55	228.06
857.86	228.04
858.17	228.10
858.48	228.00
858.79	227.98
859.11	228.11
859.42	228.07
859.73	228.03
860.04	227.95
860.35	227.83
860.66	227.72
860.98	227.74
861.29	227.79
861.60	227.80
861.91	227.96
862.22	227.85
862.53	227.83
862.84	227.26
863.16	227.41
863.47	227.26
863.78	227.19
864.09	227.30
864.40	227.33
864.71	227.37
865.02	227.40
865.33	227.34
865.64	227.22
865.95	227.21
866.27	227.45
866.58	227.44
866.89	227.47
867.20	227.45
867.51	227.32
867.82	227.33
868.13	227.44
868.44	227.28
868.75	227.37
869.06	227.39
869.37	227.41
869.68	227.23
869.99	227.31
870.30	227.35
870.61	227.33
870.92	227.22
871.23	227.11
871.54	227.23
871.85	227.34
872.16	227.34
872.47	227.33
872.78	227.06
873.09	227.12
873.40	227.06
873.71	227.11
874.02	227.19
874.33	227.13
874.64	226.98
874.95	227.00
875.26	226.93
875.56	226.91
875.87	226.88
876.18	226.90
876.49	227.39
876.80	227.27
877.11	227.09
877.42	227.10
877.73	227.15
878.04	227.05
878.35	226.95
878.66	226.95
878.96	226.91
879.27	226.89
879.58	226.81
879.89	226.75
880.20	226.84
880.51	226.76
880.82	226.74
881.12	226.79
881.43	226.72
881.74	226.70
882.05	226.54
882.36	226.62
882.67	226.66
882.97	226.09
883.28	226.02
883.59	226.10
883.90	226.14
884.21	226.19
884.51	226.17
884.82	226.15
885.13	226.17
885.44	226.12
885.74	226.16
886.05	226.21
886.36	226.33
886.67	226.18
886.98	226.44
887.28	226.46
887.59	226.46
887.90	226.47
888.20	226.44
888.51	226.62
888.82	226.51
889.13	226.55
889.43	227.02
889.74	227.04
890.05	227.05
890.35	227.03
890.66	226.92
890.97	226.87
891.28	226.79
891.58	226.80
891.89	226.84
892.20	226.73
892.50	226.64
892.81	226.61
893.12	226.62
893.42	226.41
893.73	226.40
894.04	226.40
894.34	226.47
894.65	226.50
894.95	226.39
895.26	226.40
895.57	226.59
895.87	226.12
896.18	226.20
896.48	226.27
896.79	226.28
897.10	226.42
897.40	226.47
897.71	226.57
898.01	226.50
898.32	226.56
898.63	226.65
898.93	226.74
899.24	226.74
899.54	226.74
899.85	226.74
900.15	226.72
900.46	226.74
900.76	226.80
901.07	226.78
901.38	226.80
901.68	226.97
901.99	226.70
902.29	226.79
902.60	226.78
902.90	226.69
903.21	226.72
903.51	226.64
903.82	226.74
904.12	226.82
904.43	226.94
904.73	226.93
905.03	226.92
905.34	227.39
905.64	227.42
905.95	227.40
906.25	227.39
906.56	227.42
906.86	227.41
907.17	227.42
907.47	227.44
907.77	227.44
908.08	227.32
908.38	227.45
908.69	227.46
908.99	227.50
909.30	227.55
909.60	227.45
909.90	227.51
910.21	227.34
910.51	227.24
910.81	227.25
911.12	227.29
911.42	227.36
911.73	226.79
912.03	226.75
912.33	226.88
912.64	226.91
912.94	226.91
913.24	226.85
913.55	226.79
913.85	226.76
914.15	226.90
914.46	226.91
914.76	226.80
915.06	226.73
915.37	226.77
915.67	226.78
915.97	226.87
916.27	226.77
916.58	226.82
916.88	226.82
917.18	226.71
917.49	226.99
917.79	226.91
918.09	227.03
918.39	227.17
918.70	227.11
919.00	227.11
919.30	227.25
919.60	227.21
919.91	227.14
920.21	227.14
920.51	227.04
920.81	226.99
921.12	227.09
921.42	227.12
921.72	227.06
922.02	227.05
922.32	227.04
922.63	227.07
922.93	227.35
923.23	227.38
923.53	227.38
923.83	227.10
924.13	227.16
924.44	227.12
924.74	227.15
925.04	227.19
925.34	227.13
925.64	226.95
925.94	226.96
926.24	227.22
926.55	227.16
926.85	227.17
927.15	227.27
927.45	227.21
927.75	227.19
928.05	227.18
928.35	227.16
928.65	227.24
928.95	227.23
929.26	226.99
929.56	227.01
929.86	227.01
930.16	226.95
930.46	226.89
930.76	226.94
931.06	226.74
931.36	226.67
931.66	226.74
931.96	226.78
932.26	226.83
932.56	226.60
932.86	226.63
933.16	226.68
933.46	226.59
933.76	226.51
934.06	226.65
934.36	226.79
934.66	226.73
934.96	226.71
935.26	226.83
935.56	226.92
935.86	226.82
936.16	226.82
936.46	226.85
936.76	226.88
937.06	226.82
937.36	226.87
937.66	226.82
937.96	226.84
938.26	226.80
938.56	226.75
938.86	226.78
939.16	226.89
939.46	226.92
939.76	226.97
940.06	227.00
940.35	226.89
940.65	226.68
940.95	226.71
941.25	226.52
941.55	226.38
941.85	226.36
942.15	226.50
942.45	226.62
942.75	226.55
943.04	226.55
943.34	226.64
943.64	226.65
943.94	226.61
944.24	226.61
944.54	226.67
944.84	226.72
945.13	226.72
945.43	226.71
945.73	226.70
946.03	226.65
946.33	226.56
946.62	226.51
946.92	226.52
947.22	226.59
947.52	226.61
947.82	226.68
948.11	226.64
948.41	226.50
948.71	226.38
949.01	226.43
949.31	226.40
949.60	226.35
949.90	226.34
950.20	226.36
950.50	226.36
950.79	226.31
951.09	226.31
951.39	226.27
951.69	226.17
951.98	226.22
952.28	226.20
952.58	226.25
952.87	226.29
953.17	226.36
953.47	226.27
953.76	226.30
954.06	226.22
954.36	226.09
954.66	226.09
954.95	226.28
955.25	226.31
955.55	226.37
955.84	226.34
956.14	226.39
956.44	226.43
956.73	226.30
957.03	226.36
957.32	226.43
957.62	226.44
957.92	226.53
958.21	226.46
958.51	227.06
958.81	227.15
959.10	227.19
959.40	227.23
959.69	227.30
959.99	227.43
960.29	227.45
960.58	227.51
960.88	227.71
961.17	227.57
961.47	227.66
961.76	227.57
962.06	227.57
962.36	227.54
962.65	227.59
962.95	227.70
963.24	227.62
963.54	227.53
963.83	227.50
964.13	227.44
964.42	227.36
964.72	226.94
965.01	226.90
965.31	226.91
965.60	226.88
965.90	227.18
966.19	227.01
966.49	227.05
966.78	226.98
967.08	226.92
967.37	226.92
967.67	226.84
967.96	226.87
968.26	226.91
968.55	226.99
968.85	226.96
969.14	226.87
969.43	226.85
969.73	226.77
970.02	226.75
970.32	226.79
970.61	226.71
970.91	226.68
971.20	226.65
971.49	226.61
971.79	226.65
972.08	226.33
972.38	226.44
972.67	226.43
972.96	226.57
973.26	226.54
973.55	226.74
973.85	226.62
974.14	226.67
974.43	226.62
974.73	226.49
975.02	226.39
975.31	226.43
975.61	226.43
975.90	226.51
976.19	226.58
976.49	226.61
976.78	226.68
977.07	226.65
977.37	226.67
977.66	226.71
977.95	226.59
978.24	226.68
978.54	226.76
978.83	226.72
979.12	226.67
979.42	226.59
979.71	226.46
980.00	226.50
980.29	226.52
980.59	226.47
980.88	226.62
981.17	226.65
981.46	226.66
981.76	226.64
982.05	226.79
982.34	226.78
982.63	226.76
982.93	226.81
983.22	226.92
983.51	226.91
983.80	226.94
984.09	227.02
984.39	226.93
984.68	226.80
984.97	226.79
985.26	226.70
985.55	226.77
985.85	226.67
986.14	226.73
986.43	226.69
986.72	226.66
987.01	226.48
987.30	226.50
987.59	226.44
987.89	226.45
988.18	226.29
988.47	226.20
988.76	226.20
989.05	226.13
989.34	225.99
989.63	226.09
989.92	225.95
990.22	225.91
990.51	225.97
990.80	226.01
991.09	226.05
991.38	226.17
991.67	226.10
991.96	226.06
992.25	226.05
992.54	226.00
992.83	226.08
993.12	226.11
993.41	226.18
993.70	226.42
993.99	226.52
994.28	226.60
994.58	226.68
994.87	226.61
995.16	226.56
995.45	226.50
995.74	226.32
996.03	226.44
996.32	226.47
996.61	226.48
996.90	226.45
997.19	226.42
997.48	226.43
997.77	226.41
998.06	226.49
998.34	226.47
998.63	226.46
998.92	226.42
999.21	226.48
999.50	226.43
999.79	226.21
1000.08	226.17
1000.37	226.17
1000.66	226.12
1000.95	226.22
1001.24	226.30
1001.53	226.42
1001.82	226.47
1002.11	226.39
1002.40	226.39
1002.68	226.51
1002.97	226.82
1003.26	226.78
1003.55	226.71
1003.84	226.72
1004.13	226.86
1004.42	226.86
1004.71	226.81
1004.99	226.81
1005.28	226.94
1005.57	226.95
1005.86	226.95
1006.15	226.90
1006.44	226.81
1006.72	226.96
1007.01	226.87
1007.30	226.85
1007.59	226.88
1007.88	226.80
1008.17	226.79
1008.45	226.76
1008.74	226.55
1009.03	226.34
1009.32	226.37
1009.60	226.34
1009.89	226.32
1010.18	226.16
1010.47	226.12
1010.76	226.20
1011.04	226.19
1011.33	226.18
1011.62	226.17
1011.91	226.22
1012.19	226.24
1012.48	226.30
1012.77	226.24
1013.05	226.50
1013.34	226.50
1013.63	226.41
1013.92	226.49
1014.20	226.52
1014.49	226.55
1014.78	226.64
1015.06	226.44
1015.35	226.40
1015.64	226.52
1015.92	226.65
1016.21	226.57
1016.50	226.62
1016.78	226.65
1017.07	226.68
1017.36	226.59
1017.64	226.60
1017.93	226.64
1018.22	226.60
1018.50	226.51
1018.79	226.47
1019.08	226.25
1019.36	226.27
1019.65	226.22
1019.93	226.33
1020.22	226.43
1020.51	226.63
1020.79	226.53
1021.08	224.95
1021.36	224.90
1021.65	226.40
1021.94	226.55
1022.22	226.15
1022.51	225.20
1022.79	228.30
1023.08	228.30
1023.36	231.90
1023.65	224.95
>>>>>End Processed Spectral Data<<<<<
