SpectraSuite Data File
++++++++++++++++++++++++++++++++++++
Date: Wed Sep 04 17:57:02 EDT 2013
User: lab3
Dark Spectrum Present: Yes
Reference Spectrum Present: No
Number of Sampled Component Spectra: 1
Spectrometers: USB2E7196
Integration Time (usec): 170000 (USB2E7196)
Spectra Averaged: 20 (USB2E7196)
Boxcar Smoothing: 10 (USB2E7196)
Correct for Electrical Dark: No (USB2E7196)
Strobe/Lamp Enabled: No (USB2E7196)
Correct for Detector Non-linearity: No (USB2E7196)
Correct for Stray Light: No (USB2E7196)
Number of Pixels in Processed Spectrum: 2048
>>>>>Begin Processed Spectral Data<<<<<
339.09	0.00
339.48	213.60
339.86	213.40
340.24	216.70
340.63	217.15
341.01	226.65
341.39	219.70
341.78	222.10
342.16	224.60
342.54	224.30
342.93	212.58
343.31	223.35
343.69	223.87
344.07	224.41
344.46	224.81
344.84	225.24
345.22	225.17
345.60	225.51
345.99	225.64
346.37	225.76
346.75	225.78
347.13	225.80
347.52	225.81
347.90	225.98
348.28	226.04
348.66	226.22
349.05	226.12
349.43	226.20
349.81	226.30
350.19	226.36
350.57	226.34
350.96	226.41
351.34	226.42
351.72	226.53
352.10	226.65
352.48	226.73
352.87	226.74
353.25	226.79
353.63	226.73
354.01	226.85
354.39	226.88
354.77	227.03
355.15	227.26
355.54	227.28
355.92	227.17
356.30	227.25
356.68	227.60
357.06	227.69
357.44	227.61
357.82	227.62
358.20	228.08
358.58	228.15
358.97	228.29
359.35	228.49
359.73	228.65
360.11	228.63
360.49	228.70
360.87	228.80
361.25	228.90
361.63	229.22
362.01	229.28
362.39	229.26
362.77	229.30
363.15	229.27
363.53	229.29
363.91	229.34
364.29	229.40
364.67	229.06
365.05	229.07
365.43	229.20
365.81	229.33
366.19	229.14
366.57	229.32
366.95	229.29
367.33	229.14
367.71	229.14
368.09	229.26
368.47	229.31
368.85	229.32
369.23	229.46
369.61	229.29
369.99	229.47
370.37	229.57
370.75	229.82
371.13	229.72
371.51	229.73
371.89	229.80
372.27	229.75
372.65	229.75
373.03	229.67
373.41	229.62
373.78	229.49
374.16	229.23
374.54	229.02
374.92	228.95
375.30	228.93
375.68	228.79
376.06	228.78
376.44	228.67
376.82	228.59
377.19	228.49
377.57	228.37
377.95	228.12
378.33	228.05
378.71	227.69
379.09	227.71
379.47	227.66
379.84	227.50
380.22	227.47
380.60	227.33
380.98	227.35
381.36	227.24
381.73	227.11
382.11	227.11
382.49	227.13
382.87	227.05
383.25	226.95
383.62	227.46
384.00	227.30
384.38	227.22
384.76	227.31
385.13	227.45
385.51	227.45
385.89	227.32
386.27	227.20
386.64	227.24
387.02	227.20
387.40	227.13
387.78	227.13
388.15	227.04
388.53	226.99
388.91	226.87
389.29	226.89
389.66	227.01
390.04	226.95
390.42	227.00
390.79	226.97
391.17	226.97
391.55	226.40
391.92	226.35
392.30	226.45
392.68	226.29
393.05	226.19
393.43	226.15
393.81	226.26
394.18	226.27
394.56	226.24
394.94	226.33
395.31	226.34
395.69	226.51
396.06	226.67
396.44	226.78
396.82	226.88
397.19	227.15
397.57	227.06
397.95	227.25
398.32	227.11
398.70	227.27
399.07	227.44
399.45	227.42
399.82	227.49
400.20	227.49
400.58	227.58
400.95	227.44
401.33	227.70
401.70	228.11
402.08	228.24
402.45	228.36
402.83	228.58
403.20	228.73
403.58	228.81
403.95	229.03
404.33	229.21
404.71	229.35
405.08	229.81
405.46	230.13
405.83	230.35
406.21	230.62
406.58	230.92
406.96	231.24
407.33	231.75
407.70	232.15
408.08	232.93
408.45	233.38
408.83	233.98
409.20	234.30
409.58	234.44
409.95	235.01
410.33	235.62
410.70	236.02
411.08	236.67
411.45	237.26
411.82	237.78
412.20	238.50
412.57	239.52
412.95	239.90
413.32	240.72
413.69	241.54
414.07	242.52
414.44	243.41
414.82	244.41
415.19	245.60
415.56	246.81
415.94	247.76
416.31	249.21
416.68	250.63
417.06	252.25
417.43	253.96
417.81	255.74
418.18	257.58
418.55	259.47
418.93	261.47
419.30	263.62
419.67	265.82
420.04	268.18
420.42	270.44
420.79	273.42
421.16	276.20
421.54	279.26
421.91	282.21
422.28	285.28
422.66	288.59
423.03	291.96
423.40	295.25
423.77	298.84
424.15	302.35
424.52	306.06
424.89	310.21
425.26	314.19
425.64	317.96
426.01	322.02
426.38	326.46
426.75	330.95
427.13	335.45
427.50	340.24
427.87	345.06
428.24	350.00
428.61	354.61
428.99	359.92
429.36	365.36
429.73	370.90
430.10	376.42
430.47	382.15
430.85	387.79
431.22	394.02
431.59	400.77
431.96	407.14
432.33	414.14
432.70	420.81
433.08	428.66
433.45	436.11
433.82	443.65
434.19	451.80
434.56	459.95
434.93	467.70
435.30	475.57
435.68	484.11
436.05	492.57
436.42	500.88
436.79	508.63
437.16	517.09
437.53	525.96
437.90	534.77
438.27	543.37
438.64	552.28
439.01	560.69
439.38	567.85
439.75	575.10
440.13	583.24
440.50	590.88
440.87	596.93
441.24	603.29
441.61	610.15
441.98	615.26
442.35	621.11
442.72	627.17
443.09	633.10
443.46	636.62
443.83	638.86
444.20	640.79
444.57	643.36
444.94	644.29
445.31	645.38
445.68	646.69
446.05	646.76
446.42	645.43
446.79	644.05
447.16	642.41
447.53	641.13
447.90	637.33
448.27	633.64
448.64	628.83
449.01	624.97
449.37	618.84
449.74	612.84
450.11	606.05
450.48	598.19
450.85	590.00
451.22	583.15
451.59	576.59
451.96	570.35
452.33	562.33
452.70	555.07
453.07	546.36
453.43	537.16
453.80	528.70
454.17	520.68
454.54	512.85
454.91	504.78
455.28	496.65
455.65	489.12
456.02	482.20
456.38	475.81
456.75	468.17
457.12	461.65
457.49	455.29
457.86	448.88
458.23	443.70
458.59	438.07
458.96	432.37
459.33	427.35
459.70	422.25
460.07	418.21
460.43	413.40
460.80	409.14
461.17	405.49
461.54	401.63
461.91	397.78
462.27	393.88
462.64	390.54
463.01	387.03
463.38	383.80
463.74	379.81
464.11	376.72
464.48	374.15
464.85	371.30
465.21	369.24
465.58	366.91
465.95	364.15
466.32	361.83
466.68	359.47
467.05	357.19
467.42	354.99
467.78	352.64
468.15	350.62
468.52	349.06
468.88	346.79
469.25	344.78
469.62	343.41
469.98	341.79
470.35	340.22
470.72	338.72
471.08	337.03
471.45	335.78
471.82	334.64
472.18	333.17
472.55	332.10
472.92	330.69
473.28	329.47
473.65	328.39
474.02	327.36
474.38	326.55
474.75	325.73
475.11	324.78
475.48	324.12
475.85	323.46
476.21	322.70
476.58	322.22
476.94	321.84
477.31	321.32
477.67	320.94
478.04	320.70
478.41	320.50
478.77	320.76
479.14	320.37
479.50	320.14
479.87	320.15
480.23	320.18
480.60	320.18
480.96	320.26
481.33	320.61
481.69	320.81
482.06	320.96
482.42	321.22
482.79	321.66
483.15	321.98
483.52	322.62
483.88	323.08
484.25	323.67
484.61	324.30
484.98	324.97
485.34	325.95
485.71	326.89
486.07	327.90
486.44	328.51
486.80	329.69
487.17	330.82
487.53	332.25
487.90	333.62
488.26	335.26
488.62	336.85
488.99	338.35
489.35	340.10
489.72	342.01
490.08	344.04
490.44	345.98
490.81	348.28
491.17	350.42
491.54	352.89
491.90	355.45
492.26	358.23
492.63	361.05
492.99	363.81
493.36	366.97
493.72	370.19
494.08	373.60
494.45	377.28
494.81	381.17
495.17	384.83
495.54	389.08
495.90	393.34
496.26	397.96
496.63	402.70
496.99	407.48
497.35	412.52
497.72	417.77
498.08	423.23
498.44	428.92
498.80	435.03
499.17	441.09
499.53	447.41
499.89	454.05
500.26	460.84
500.62	467.91
500.98	475.25
501.34	482.81
501.71	490.53
502.07	498.34
502.43	506.57
502.79	515.12
503.16	523.73
503.52	532.62
503.88	541.81
504.24	551.40
504.60	561.42
504.97	571.75
505.33	582.25
505.69	593.39
506.05	604.56
506.41	615.55
506.78	627.38
507.14	639.36
507.50	651.80
507.86	664.55
508.22	677.50
508.59	690.50
508.95	704.08
509.31	718.20
509.67	732.57
510.03	746.80
510.39	761.45
510.75	776.58
511.12	792.07
511.48	807.44
511.84	823.18
512.20	839.12
512.56	855.34
512.92	872.18
513.28	889.03
513.64	906.05
514.00	923.97
514.37	941.57
514.73	959.71
515.09	977.65
515.45	995.94
515.81	1014.40
516.17	1033.27
516.53	1051.93
516.89	1070.75
517.25	1090.12
517.61	1110.45
517.97	1130.80
518.33	1151.10
518.69	1171.15
519.05	1191.78
519.41	1212.68
519.77	1233.85
520.13	1254.66
520.49	1275.41
520.85	1297.75
521.21	1319.15
521.57	1340.38
521.93	1361.02
522.29	1382.34
522.65	1403.22
523.01	1424.01
523.37	1444.74
523.73	1465.54
524.09	1486.29
524.45	1506.98
524.81	1528.07
525.17	1548.57
525.53	1569.57
525.89	1590.24
526.25	1611.18
526.61	1631.95
526.97	1652.82
527.33	1674.22
527.68	1695.99
528.04	1717.11
528.40	1736.69
528.76	1757.52
529.12	1777.81
529.48	1798.96
529.84	1818.80
530.20	1839.82
530.56	1860.68
530.91	1881.73
531.27	1902.62
531.63	1923.41
531.99	1944.22
532.35	1964.41
532.71	1984.53
533.07	2004.81
533.42	2024.63
533.78	2044.78
534.14	2064.60
534.50	2083.69
534.86	2102.84
535.21	2120.66
535.57	2139.45
535.93	2157.14
536.29	2175.07
536.65	2193.33
537.00	2210.92
537.36	2228.52
537.72	2245.38
538.08	2262.65
538.44	2279.10
538.79	2294.97
539.15	2311.34
539.51	2327.15
539.87	2342.08
540.22	2356.49
540.58	2370.77
540.94	2383.95
541.29	2396.47
541.65	2409.06
542.01	2421.95
542.37	2432.34
542.72	2443.34
543.08	2453.75
543.44	2465.51
543.79	2475.57
544.15	2485.52
544.51	2495.74
544.87	2505.84
545.22	2514.54
545.58	2522.40
545.94	2529.79
546.29	2536.66
546.65	2542.94
547.01	2548.60
547.36	2554.16
547.72	2559.68
548.07	2563.78
548.43	2569.57
548.79	2574.31
549.14	2578.41
549.50	2581.76
549.86	2586.03
550.21	2589.82
550.57	2593.50
550.92	2595.12
551.28	2596.51
551.64	2598.98
551.99	2600.42
552.35	2601.79
552.70	2603.73
553.06	2605.53
553.41	2606.99
553.77	2608.55
554.13	2609.95
554.48	2611.35
554.84	2613.02
555.19	2613.76
555.55	2615.46
555.90	2614.63
556.26	2613.96
556.61	2612.50
556.97	2610.47
557.32	2609.80
557.68	2608.39
558.03	2606.49
558.39	2604.94
558.74	2604.44
559.10	2601.00
559.45	2597.62
559.81	2593.23
560.16	2588.40
560.52	2583.46
560.87	2578.98
561.23	2573.77
561.58	2568.22
561.94	2561.67
562.29	2554.16
562.64	2547.35
563.00	2539.07
563.35	2532.60
563.71	2525.78
564.06	2519.45
564.42	2513.27
564.77	2506.35
565.12	2498.92
565.48	2491.58
565.83	2483.78
566.19	2475.57
566.54	2467.89
566.89	2459.89
567.25	2452.25
567.60	2444.69
567.96	2437.09
568.31	2429.19
568.66	2420.61
569.02	2411.35
569.37	2402.99
569.72	2395.51
570.08	2386.53
570.43	2377.18
570.78	2367.96
571.14	2358.70
571.49	2348.58
571.84	2338.80
572.20	2327.41
572.55	2317.30
572.90	2306.15
573.26	2295.83
573.61	2284.43
573.96	2273.22
574.31	2261.38
574.67	2249.59
575.02	2236.85
575.37	2223.92
575.72	2210.30
576.08	2198.17
576.43	2185.65
576.78	2172.30
577.13	2158.46
577.49	2145.75
577.84	2133.86
578.19	2121.61
578.54	2109.03
578.90	2096.97
579.25	2084.51
579.60	2072.41
579.95	2059.48
580.30	2046.36
580.66	2033.06
581.01	2019.70
581.36	2005.78
581.71	1993.00
582.06	1979.85
582.42	1967.31
582.77	1954.83
583.12	1943.16
583.47	1930.73
583.82	1918.99
584.17	1907.05
584.53	1895.30
584.88	1882.14
585.23	1869.09
585.58	1854.90
585.93	1841.45
586.28	1828.20
586.63	1814.09
586.98	1799.95
587.34	1786.76
587.69	1773.55
588.04	1760.82
588.39	1748.57
588.74	1736.12
589.09	1724.01
589.44	1711.29
589.79	1699.29
590.14	1687.50
590.49	1675.32
590.84	1663.09
591.19	1650.83
591.54	1638.50
591.89	1626.08
592.25	1615.97
592.60	1604.27
592.95	1593.01
593.30	1581.03
593.65	1569.08
594.00	1557.20
594.35	1547.28
594.70	1535.55
595.05	1524.25
595.40	1512.11
595.75	1500.14
596.10	1489.07
596.45	1477.49
596.80	1466.73
597.15	1455.24
597.50	1443.12
597.85	1431.58
598.19	1420.15
598.54	1408.60
598.89	1397.66
599.24	1387.14
599.59	1375.35
599.94	1364.63
600.29	1354.04
600.64	1343.72
600.99	1332.98
601.34	1323.49
601.69	1312.23
602.04	1302.35
602.39	1292.62
602.74	1283.59
603.08	1274.20
603.43	1264.79
603.78	1255.22
604.13	1245.50
604.48	1235.76
604.83	1226.25
605.18	1216.66
605.53	1207.12
605.87	1198.00
606.22	1189.13
606.57	1179.69
606.92	1170.26
607.27	1161.14
607.62	1152.50
607.96	1143.89
608.31	1135.89
608.66	1127.53
609.01	1119.11
609.36	1110.32
609.70	1101.56
610.05	1092.65
610.40	1084.12
610.75	1075.43
611.10	1067.14
611.44	1058.34
611.79	1050.25
612.14	1042.23
612.49	1034.20
612.83	1026.69
613.18	1018.84
613.53	1011.19
613.88	1003.30
614.22	995.55
614.57	987.61
614.92	979.35
615.27	971.78
615.61	964.06
615.96	956.46
616.31	948.83
616.65	942.03
617.00	934.75
617.35	927.42
617.70	920.22
618.04	913.19
618.39	906.02
618.74	899.88
619.08	893.03
619.43	886.08
619.78	879.02
620.12	871.78
620.47	864.62
620.82	857.38
621.16	850.64
621.51	844.25
621.85	837.80
622.20	831.33
622.55	824.65
622.89	817.94
623.24	811.31
623.59	804.84
623.93	798.26
624.28	792.04
624.62	786.55
624.97	780.69
625.32	774.82
625.66	768.95
626.01	762.64
626.35	757.01
626.70	751.50
627.04	746.26
627.39	740.74
627.73	735.56
628.08	730.43
628.43	725.04
628.77	719.55
629.12	714.35
629.46	709.61
629.81	704.96
630.15	700.32
630.50	695.59
630.84	690.82
631.19	686.00
631.53	681.61
631.88	676.25
632.22	671.42
632.57	666.70
632.91	662.21
633.26	657.81
633.60	653.04
633.95	648.40
634.29	643.64
634.64	639.23
634.98	634.53
635.32	629.99
635.67	625.80
636.01	621.72
636.36	617.33
636.70	613.23
637.05	608.99
637.39	604.87
637.73	600.72
638.08	596.70
638.42	592.46
638.77	588.04
639.11	583.78
639.45	579.59
639.80	575.30
640.14	571.00
640.49	567.00
640.83	563.19
641.17	559.39
641.52	555.73
641.86	552.15
642.20	548.89
642.55	545.29
642.89	541.72
643.23	538.19
643.58	535.07
643.92	531.45
644.26	528.03
644.61	524.67
644.95	521.18
645.29	517.79
645.64	514.60
645.98	511.48
646.32	508.56
646.66	505.46
647.01	502.56
647.35	499.82
647.69	496.83
648.04	494.02
648.38	491.29
648.72	488.22
649.06	485.10
649.41	482.04
649.75	479.15
650.09	476.29
650.43	473.42
650.78	470.52
651.12	467.68
651.46	464.85
651.80	462.14
652.14	459.55
652.49	457.09
652.83	454.55
653.17	451.98
653.51	449.27
653.85	446.72
654.20	444.32
654.54	441.70
654.88	439.16
655.22	436.90
655.56	434.31
655.90	432.06
656.25	429.84
656.59	427.56
656.93	425.28
657.27	423.23
657.61	420.78
657.95	418.49
658.29	416.35
658.64	414.31
658.98	412.11
659.32	409.82
659.66	407.58
660.00	405.49
660.34	403.32
660.68	401.36
661.02	399.44
661.36	397.36
661.70	395.39
662.05	393.43
662.39	391.35
662.73	389.65
663.07	388.11
663.41	386.32
663.75	384.34
664.09	382.53
664.43	380.53
664.77	379.00
665.11	377.23
665.45	375.49
665.79	373.67
666.13	371.90
666.47	370.25
666.81	368.52
667.15	366.79
667.49	365.38
667.83	363.97
668.17	362.51
668.51	361.05
668.85	359.56
669.19	358.49
669.53	356.98
669.87	355.39
670.21	353.69
670.55	352.37
670.89	351.25
671.23	349.80
671.57	348.42
671.91	346.97
672.25	345.57
672.58	344.40
672.92	343.07
673.26	341.86
673.60	340.62
673.94	339.41
674.28	338.31
674.62	337.17
674.96	335.80
675.30	334.54
675.64	333.42
675.97	332.10
676.31	330.67
676.65	329.37
676.99	328.39
677.33	327.21
677.67	326.00
678.01	324.68
678.34	323.69
678.68	322.76
679.02	321.73
679.36	320.75
679.70	319.63
680.04	318.68
680.37	317.68
680.71	316.76
681.05	315.86
681.39	314.94
681.73	313.86
682.06	313.00
682.40	312.11
682.74	311.20
683.08	310.60
683.42	309.68
683.75	309.07
684.09	308.10
684.43	307.40
684.77	306.45
685.10	305.70
685.44	304.95
685.78	304.01
686.12	303.20
686.45	302.39
686.79	301.57
687.13	300.87
687.46	300.08
687.80	299.39
688.14	298.62
688.48	297.87
688.81	297.14
689.15	296.50
689.49	295.82
689.82	295.10
690.16	294.15
690.50	293.45
690.83	292.67
691.17	291.94
691.51	291.15
691.84	290.61
692.18	289.94
692.52	289.23
692.85	288.62
693.19	288.25
693.52	287.70
693.86	287.05
694.20	286.48
694.53	285.93
694.87	285.25
695.21	284.57
695.54	283.97
695.88	283.35
696.21	282.60
696.55	281.96
696.88	281.38
697.22	280.85
697.56	280.36
697.89	279.77
698.23	279.34
698.56	278.88
698.90	278.39
699.23	277.78
699.57	277.33
699.90	276.87
700.24	276.19
700.58	275.63
700.91	275.32
701.25	275.13
701.58	275.10
701.92	274.78
702.25	274.35
702.59	273.86
702.92	273.38
703.26	273.02
703.59	272.58
703.93	272.62
704.26	272.20
704.60	271.79
704.93	271.37
705.26	270.89
705.60	270.47
705.93	270.01
706.27	269.80
706.60	269.43
706.94	269.14
707.27	268.69
707.61	268.38
707.94	268.01
708.27	267.29
708.61	266.51
708.94	266.02
709.28	265.74
709.61	265.37
709.94	265.15
710.28	264.72
710.61	264.46
710.95	263.61
711.28	263.60
711.61	263.23
711.95	262.98
712.28	262.52
712.61	262.15
712.95	262.00
713.28	261.96
713.61	261.54
713.95	261.06
714.28	260.76
714.61	260.38
714.95	259.93
715.28	259.48
715.61	259.16
715.95	258.89
716.28	258.43
716.61	258.13
716.95	257.68
717.28	257.39
717.61	256.97
717.94	256.64
718.28	256.00
718.61	255.68
718.94	255.28
719.27	255.14
719.61	254.84
719.94	254.39
720.27	253.80
720.60	253.52
720.94	253.30
721.27	253.09
721.60	252.94
721.93	252.69
722.27	252.70
722.60	252.47
722.93	252.11
723.26	251.92
723.59	251.66
723.93	251.55
724.26	251.37
724.59	251.17
724.92	251.00
725.25	250.90
725.59	250.63
725.92	250.52
726.25	250.25
726.58	250.09
726.91	249.91
727.24	249.81
727.57	249.61
727.91	249.30
728.24	249.12
728.57	248.88
728.90	248.76
729.23	248.35
729.56	248.37
729.89	248.23
730.22	248.13
730.55	247.88
730.89	247.63
731.22	247.37
731.55	247.19
731.88	247.01
732.21	246.70
732.54	246.50
732.87	246.26
733.20	246.13
733.53	245.99
733.86	245.91
734.19	245.60
734.52	245.52
734.85	245.75
735.18	245.47
735.51	245.48
735.84	245.23
736.17	245.21
736.50	244.81
736.83	245.28
737.16	245.07
737.49	244.98
737.82	244.80
738.15	244.85
738.48	244.79
738.81	244.70
739.14	244.49
739.47	244.35
739.80	244.23
740.13	244.10
740.46	243.78
740.79	243.45
741.12	243.33
741.45	243.16
741.78	242.78
742.11	242.85
742.44	242.56
742.77	242.58
743.10	242.37
743.43	242.22
743.75	241.58
744.08	242.08
744.41	241.87
744.74	241.81
745.07	241.51
745.40	241.36
745.73	241.40
746.06	241.38
746.39	241.39
746.71	241.25
747.04	241.02
747.37	240.96
747.70	240.92
748.03	240.74
748.36	240.73
748.68	240.56
749.01	240.25
749.34	240.14
749.67	239.97
750.00	239.90
750.33	240.09
750.65	239.95
750.98	239.18
751.31	239.15
751.64	239.00
751.97	239.07
752.29	238.86
752.62	238.54
752.95	238.41
753.28	238.27
753.60	238.08
753.93	238.14
754.26	238.06
754.59	237.90
754.91	237.73
755.24	237.51
755.57	237.38
755.90	237.21
756.22	237.01
756.55	236.80
756.88	236.60
757.20	236.24
757.53	236.08
757.86	236.01
758.19	235.89
758.51	235.83
758.84	235.53
759.17	235.54
759.49	235.43
759.82	235.59
760.15	235.50
760.47	235.44
760.80	235.22
761.13	235.23
761.45	235.13
761.78	235.13
762.11	235.06
762.43	234.93
762.76	234.90
763.08	234.91
763.41	234.87
763.74	234.87
764.06	234.74
764.39	234.67
764.71	234.55
765.04	234.48
765.37	234.34
765.69	234.31
766.02	234.13
766.34	234.05
766.67	233.76
767.00	233.73
767.32	233.88
767.65	234.08
767.97	233.89
768.30	233.91
768.62	233.88
768.95	233.76
769.27	233.73
769.60	233.78
769.92	233.63
770.25	233.52
770.57	233.41
770.90	233.31
771.22	233.19
771.55	233.11
771.87	233.05
772.20	232.96
772.52	233.26
772.85	233.86
773.17	233.81
773.50	233.73
773.82	233.54
774.15	233.29
774.47	232.85
774.80	232.85
775.12	232.72
775.45	232.62
775.77	232.62
776.09	232.62
776.42	232.57
776.74	232.73
777.07	232.61
777.39	232.54
777.72	232.48
778.04	232.52
778.36	232.49
778.69	232.54
779.01	232.58
779.33	232.23
779.66	231.60
779.98	231.54
780.31	231.50
780.63	231.75
780.95	231.83
781.28	231.90
781.60	231.87
781.92	231.79
782.25	231.78
782.57	231.76
782.89	231.64
783.22	231.52
783.54	231.33
783.86	231.35
784.19	231.27
784.51	231.40
784.83	231.34
785.16	231.32
785.48	231.16
785.80	231.17
786.12	231.13
786.45	231.05
786.77	231.02
787.09	231.06
787.42	230.82
787.74	230.80
788.06	230.77
788.38	230.70
788.71	230.70
789.03	230.59
789.35	230.57
789.67	230.52
789.99	230.63
790.32	230.63
790.64	230.74
790.96	231.11
791.28	230.94
791.61	230.85
791.93	230.88
792.25	230.83
792.57	231.11
792.89	230.95
793.21	231.02
793.54	230.93
793.86	230.81
794.18	230.91
794.50	230.79
794.82	230.77
795.14	230.79
795.47	230.91
795.79	230.96
796.11	230.87
796.43	230.89
796.75	230.81
797.07	230.76
797.39	230.64
797.71	230.24
798.04	230.25
798.36	230.26
798.68	230.19
799.00	230.22
799.32	229.92
799.64	230.05
799.96	230.02
800.28	230.09
800.60	230.08
800.92	230.05
801.24	229.98
801.56	230.03
801.89	229.95
802.21	229.87
802.53	229.84
802.85	229.93
803.17	230.11
803.49	229.94
803.81	229.88
804.13	229.85
804.45	229.89
804.77	229.88
805.09	229.81
805.41	229.75
805.73	229.63
806.05	229.51
806.37	229.38
806.69	229.33
807.01	229.25
807.33	229.23
807.65	228.99
807.97	229.22
808.28	229.12
808.60	229.13
808.92	229.09
809.24	229.29
809.56	229.17
809.88	228.94
810.20	228.94
810.52	228.97
810.84	228.92
811.16	228.82
811.48	228.76
811.80	228.99
812.12	228.94
812.43	229.07
812.75	229.14
813.07	229.10
813.39	229.09
813.71	229.06
814.03	229.08
814.35	229.15
814.67	228.89
814.98	228.82
815.30	228.78
815.62	228.68
815.94	228.32
816.26	228.49
816.58	228.43
816.89	228.43
817.21	228.28
817.53	228.18
817.85	228.14
818.17	228.15
818.48	227.87
818.80	227.93
819.12	227.86
819.44	227.75
819.76	227.72
820.07	227.66
820.39	227.69
820.71	227.65
821.03	227.67
821.34	227.69
821.66	227.75
821.98	227.86
822.30	227.88
822.61	228.18
822.93	228.03
823.25	227.99
823.57	227.97
823.88	228.12
824.20	228.16
824.52	228.25
824.83	228.20
825.15	228.22
825.47	228.18
825.79	228.21
826.10	228.17
826.42	228.17
826.74	228.23
827.05	228.13
827.37	228.17
827.69	228.08
828.00	228.03
828.32	228.01
828.64	227.90
828.95	228.07
829.27	227.93
829.58	227.85
829.90	227.95
830.22	227.96
830.53	227.82
830.85	227.78
831.17	227.71
831.48	227.71
831.80	227.73
832.11	227.78
832.43	227.65
832.75	227.58
833.06	227.91
833.38	227.76
833.69	227.73
834.01	227.68
834.32	227.70
834.64	227.65
834.96	227.62
835.27	227.68
835.59	227.54
835.90	227.46
836.22	227.40
836.53	227.38
836.85	227.36
837.16	227.91
837.48	227.96
837.79	228.08
838.11	228.04
838.42	228.06
838.74	228.14
839.05	228.11
839.37	228.20
839.68	227.83
840.00	227.82
840.31	227.95
840.63	227.91
840.94	227.89
841.26	227.90
841.57	227.91
841.88	227.90
842.20	227.80
842.51	227.78
842.83	227.80
843.14	228.20
843.46	228.25
843.77	227.95
844.08	227.92
844.40	227.74
844.71	227.72
845.03	227.66
845.34	227.55
845.65	227.54
845.97	227.49
846.28	227.52
846.60	227.55
846.91	227.42
847.22	227.36
847.54	227.45
847.85	227.48
848.16	227.52
848.48	227.44
848.79	227.65
849.10	227.68
849.42	227.66
849.73	227.13
850.04	227.02
850.36	226.81
850.67	226.90
850.98	226.92
851.30	226.97
851.61	226.98
851.92	226.96
852.23	227.07
852.55	227.08
852.86	227.07
853.17	227.12
853.49	227.24
853.80	227.36
854.11	227.29
854.42	227.37
854.74	227.23
855.05	227.22
855.36	226.94
855.67	226.95
855.99	227.00
856.30	227.64
856.61	227.66
856.92	227.69
857.23	227.66
857.55	227.50
857.86	227.51
858.17	227.48
858.48	227.40
858.79	227.36
859.11	227.38
859.42	227.32
859.73	227.22
860.04	227.12
860.35	226.97
860.66	226.87
860.98	226.75
861.29	226.82
861.60	226.70
861.91	226.83
862.22	226.79
862.53	226.74
862.84	226.15
863.16	226.20
863.47	226.10
863.78	226.04
864.09	226.22
864.40	226.24
864.71	226.23
865.02	226.32
865.33	226.27
865.64	226.20
865.95	226.17
866.27	226.46
866.58	226.44
866.89	226.50
867.20	226.48
867.51	226.48
867.82	226.44
868.13	226.64
868.44	226.59
868.75	226.64
869.06	226.65
869.37	226.69
869.68	226.66
869.99	226.80
870.30	226.85
870.61	226.88
870.92	226.80
871.23	226.82
871.54	226.81
871.85	226.93
872.16	227.09
872.47	227.10
872.78	226.91
873.09	227.00
873.40	226.94
873.71	227.02
874.02	227.03
874.33	227.00
874.64	226.91
874.95	226.99
875.26	226.92
875.56	226.93
875.87	226.96
876.18	226.92
876.49	227.33
876.80	227.28
877.11	227.16
877.42	227.17
877.73	227.20
878.04	227.15
878.35	227.16
878.66	227.12
878.96	227.06
879.27	227.02
879.58	226.96
879.89	227.03
880.20	227.18
880.51	227.16
880.82	227.15
881.12	227.22
881.43	227.04
881.74	226.93
882.05	226.90
882.36	226.90
882.67	226.93
882.97	226.44
883.28	226.37
883.59	226.37
883.90	226.41
884.21	226.51
884.51	226.45
884.82	226.32
885.13	226.31
885.44	226.36
885.74	226.37
886.05	226.37
886.36	226.33
886.67	226.11
886.98	226.40
887.28	226.43
887.59	226.32
887.90	226.32
888.20	226.37
888.51	226.46
888.82	226.35
889.13	226.35
889.43	226.66
889.74	226.66
890.05	226.68
890.35	226.60
890.66	226.46
890.97	226.42
891.28	226.42
891.58	226.41
891.89	226.42
892.20	226.30
892.50	226.23
892.81	226.16
893.12	226.12
893.42	225.87
893.73	225.92
894.04	225.89
894.34	225.95
894.65	225.93
894.95	225.85
895.26	225.86
895.57	226.03
895.87	225.59
896.18	225.73
896.48	225.73
896.79	225.80
897.10	225.80
897.40	225.81
897.71	225.89
898.01	225.81
898.32	225.86
898.63	225.86
898.93	225.96
899.24	225.98
899.54	225.98
899.85	225.95
900.15	225.89
900.46	225.96
900.76	226.04
901.07	226.02
901.38	226.01
901.68	226.09
901.99	225.89
902.29	225.99
902.60	225.86
902.90	225.84
903.21	225.80
903.51	225.78
903.82	225.91
904.12	225.88
904.43	225.86
904.73	225.89
905.03	225.98
905.34	226.44
905.64	226.43
905.95	226.43
906.25	226.36
906.56	226.38
906.86	226.36
907.17	226.30
907.47	226.35
907.77	226.37
908.08	226.31
908.38	226.33
908.69	226.36
908.99	226.49
909.30	226.55
909.60	226.60
909.90	226.65
910.21	226.53
910.51	226.53
910.81	226.62
911.12	226.50
911.42	226.54
911.73	226.05
912.03	226.12
912.33	226.32
912.64	226.37
912.94	226.37
913.24	226.29
913.55	226.29
913.85	226.21
914.15	226.26
914.46	226.24
914.76	226.21
915.06	226.22
915.37	226.15
915.67	226.13
915.97	226.11
916.27	225.99
916.58	226.09
916.88	226.05
917.18	226.02
917.49	226.44
917.79	226.35
918.09	226.44
918.39	226.59
918.70	226.50
919.00	226.48
919.30	226.65
919.60	226.68
919.91	226.70
920.21	226.79
920.51	226.78
920.81	226.85
921.12	227.02
921.42	227.02
921.72	227.08
922.02	227.13
922.32	227.20
922.63	227.32
922.93	227.55
923.23	227.58
923.53	227.54
923.83	227.25
924.13	227.31
924.44	227.29
924.74	227.30
925.04	227.44
925.34	227.49
925.64	227.32
925.94	227.36
926.24	227.58
926.55	227.58
926.85	227.54
927.15	227.55
927.45	227.43
927.75	227.37
928.05	227.33
928.35	227.31
928.65	227.33
928.95	227.35
929.26	227.12
929.56	227.18
929.86	227.20
930.16	227.15
930.46	227.08
930.76	227.10
931.06	226.91
931.36	226.79
931.66	226.79
931.96	226.85
932.26	226.85
932.56	226.60
932.86	226.58
933.16	226.57
933.46	226.46
933.76	226.47
934.06	226.57
934.36	226.75
934.66	226.69
934.96	226.59
935.26	226.57
935.56	226.69
935.86	226.59
936.16	226.52
936.46	226.48
936.76	226.46
937.06	226.40
937.36	226.39
937.66	226.36
937.96	226.34
938.26	226.25
938.56	226.23
938.86	226.30
939.16	226.37
939.46	226.40
939.76	226.38
940.06	226.33
940.35	226.22
940.65	225.94
940.95	225.98
941.25	225.92
941.55	225.86
941.85	225.77
942.15	225.89
942.45	226.09
942.75	226.14
943.04	226.20
943.34	226.33
943.64	226.35
943.94	226.35
944.24	226.41
944.54	226.40
944.84	226.37
945.13	226.34
945.43	226.36
945.73	226.33
946.03	226.40
946.33	226.38
946.62	226.45
946.92	226.55
947.22	226.61
947.52	226.61
947.82	226.69
948.11	226.58
948.41	226.46
948.71	226.30
949.01	226.28
949.31	226.30
949.60	226.19
949.90	226.24
950.20	226.22
950.50	226.18
950.79	226.23
951.09	226.30
951.39	226.32
951.69	226.23
951.98	226.39
952.28	226.42
952.58	226.40
952.87	226.36
953.17	226.40
953.47	226.31
953.76	226.36
954.06	226.30
954.36	226.31
954.66	226.32
954.95	226.49
955.25	226.52
955.55	226.53
955.84	226.51
956.14	226.60
956.44	226.68
956.73	226.69
957.03	226.67
957.32	226.70
957.62	226.64
957.92	226.75
958.21	226.65
958.51	227.16
958.81	227.25
959.10	227.24
959.40	227.28
959.69	227.38
959.99	227.43
960.29	227.43
960.58	227.43
960.88	227.66
961.17	227.57
961.47	227.64
961.76	227.61
962.06	227.68
962.36	227.58
962.65	227.56
962.95	227.54
963.24	227.47
963.54	227.46
963.83	227.49
964.13	227.45
964.42	227.40
964.72	227.02
965.01	226.98
965.31	227.01
965.60	226.94
965.90	227.24
966.19	227.08
966.49	227.12
966.78	227.13
967.08	227.01
967.37	226.95
967.67	226.79
967.96	226.83
968.26	226.81
968.55	226.85
968.85	226.82
969.14	226.80
969.43	226.83
969.73	226.77
970.02	226.76
970.32	226.69
970.61	226.68
970.91	226.55
971.20	226.45
971.49	226.41
971.79	226.48
972.08	226.05
972.38	226.13
972.67	226.07
972.96	226.06
973.26	225.98
973.55	226.17
973.85	226.17
974.14	226.08
974.43	226.05
974.73	225.96
975.02	225.86
975.31	225.91
975.61	225.87
975.90	225.79
976.19	225.74
976.49	225.83
976.78	225.82
977.07	225.84
977.37	225.94
977.66	226.01
977.95	225.83
978.24	225.93
978.54	226.05
978.83	226.05
979.12	226.07
979.42	226.08
979.71	226.01
980.00	226.05
980.29	226.14
980.59	226.10
980.88	226.23
981.17	226.25
981.46	226.14
981.76	226.22
982.05	226.47
982.34	226.52
982.63	226.45
982.93	226.51
983.22	226.59
983.51	226.55
983.80	226.62
984.09	226.73
984.39	226.70
984.68	226.62
984.97	226.65
985.26	226.66
985.55	226.69
985.85	226.57
986.14	226.63
986.43	226.61
986.72	226.57
987.01	226.42
987.30	226.50
987.59	226.56
987.89	226.47
988.18	226.27
988.47	226.29
988.76	226.30
989.05	226.29
989.34	226.25
989.63	226.43
989.92	226.29
990.22	226.23
990.51	226.19
990.80	226.18
991.09	226.18
991.38	226.22
991.67	226.21
991.96	226.23
992.25	226.26
992.54	226.20
992.83	226.20
993.12	226.21
993.41	226.23
993.70	226.40
993.99	226.60
994.28	226.69
994.58	226.70
994.87	226.68
995.16	226.65
995.45	226.65
995.74	226.43
996.03	226.56
996.32	226.65
996.61	226.76
996.90	226.77
997.19	226.77
997.48	226.82
997.77	226.79
998.06	226.80
998.34	226.78
998.63	226.77
998.92	226.79
999.21	226.84
999.50	226.85
999.79	226.67
1000.08	226.64
1000.37	226.60
1000.66	226.48
1000.95	226.61
1001.24	226.65
1001.53	226.63
1001.82	226.69
1002.11	226.48
1002.40	226.51
1002.68	226.61
1002.97	226.89
1003.26	226.81
1003.55	226.65
1003.84	226.66
1004.13	226.80
1004.42	226.73
1004.71	226.73
1004.99	226.70
1005.28	226.84
1005.57	226.79
1005.86	226.73
1006.15	226.60
1006.44	226.54
1006.72	226.63
1007.01	226.49
1007.30	226.44
1007.59	226.36
1007.88	226.28
1008.17	226.40
1008.45	226.30
1008.74	226.08
1009.03	225.85
1009.32	225.86
1009.60	225.84
1009.89	225.84
1010.18	225.60
1010.47	225.60
1010.76	225.67
1011.04	225.67
1011.33	225.68
1011.62	225.66
1011.91	225.74
1012.19	225.83
1012.48	225.80
1012.77	225.80
1013.05	226.02
1013.34	226.05
1013.63	226.08
1013.92	226.14
1014.20	226.06
1014.49	226.11
1014.78	226.07
1015.06	225.96
1015.35	225.94
1015.64	226.03
1015.92	226.06
1016.21	226.10
1016.50	226.08
1016.78	226.10
1017.07	226.14
1017.36	225.99
1017.64	225.99
1017.93	226.04
1018.22	225.99
1018.50	226.05
1018.79	226.03
1019.08	225.80
1019.36	225.87
1019.65	225.81
1019.93	225.96
1020.22	226.05
1020.51	226.30
1020.79	226.34
1021.08	225.90
1021.36	225.40
1021.65	226.00
1021.94	225.75
1022.22	227.45
1022.51	225.25
1022.79	228.80
1023.08	226.20
1023.36	232.10
1023.65	225.65
>>>>>End Processed Spectral Data<<<<<
