SpectraSuite Data File
++++++++++++++++++++++++++++++++++++
Date: Wed Sep 04 17:53:30 EDT 2013
User: lab3
Dark Spectrum Present: Yes
Reference Spectrum Present: No
Number of Sampled Component Spectra: 1
Spectrometers: USB2E7196
Integration Time (usec): 170000 (USB2E7196)
Spectra Averaged: 20 (USB2E7196)
Boxcar Smoothing: 10 (USB2E7196)
Correct for Electrical Dark: No (USB2E7196)
Strobe/Lamp Enabled: No (USB2E7196)
Correct for Detector Non-linearity: No (USB2E7196)
Correct for Stray Light: No (USB2E7196)
Number of Pixels in Processed Spectrum: 2048
>>>>>Begin Processed Spectral Data<<<<<
339.09	0.00
339.48	213.05
339.86	213.60
340.24	215.70
340.63	217.50
341.01	224.90
341.39	219.85
341.78	221.25
342.16	223.15
342.54	223.65
342.93	212.14
343.31	222.85
343.69	223.41
344.07	223.94
344.46	224.47
344.84	224.87
345.22	224.81
345.60	225.04
345.99	225.25
346.37	225.39
346.75	225.50
347.13	225.57
347.52	225.63
347.90	225.85
348.28	225.85
348.66	226.06
349.05	225.95
349.43	226.02
349.81	226.10
350.19	226.08
350.57	226.18
350.96	226.28
351.34	226.36
351.72	226.46
352.10	226.54
352.48	226.47
352.87	226.47
353.25	226.62
353.63	226.72
354.01	226.75
354.39	226.82
354.77	226.89
355.15	227.16
355.54	227.19
355.92	227.08
356.30	227.15
356.68	227.49
357.06	227.64
357.44	227.70
357.82	227.75
358.20	228.20
358.58	228.24
358.97	228.24
359.35	228.38
359.73	228.50
360.11	228.59
360.49	228.74
360.87	228.79
361.25	228.89
361.63	229.10
362.01	229.24
362.39	229.20
362.77	229.31
363.15	229.25
363.53	229.26
363.91	229.36
364.29	229.40
364.67	228.96
365.05	228.98
365.43	229.07
365.81	229.12
366.19	228.95
366.57	229.13
366.95	229.13
367.33	229.02
367.71	228.99
368.09	229.08
368.47	229.10
368.85	229.16
369.23	229.25
369.61	229.02
369.99	229.11
370.37	229.23
370.75	229.42
371.13	229.33
371.51	229.34
371.89	229.30
372.27	229.30
372.65	229.32
373.03	229.29
373.41	229.13
373.78	229.13
374.16	228.91
374.54	228.71
374.92	228.60
375.30	228.59
375.68	228.48
376.06	228.45
376.44	228.30
376.82	228.21
377.19	228.10
377.57	228.08
377.95	227.92
378.33	227.78
378.71	227.45
379.09	227.50
379.47	227.51
379.84	227.34
380.22	227.21
380.60	227.06
380.98	226.98
381.36	226.94
381.73	226.86
382.11	226.93
382.49	226.94
382.87	226.86
383.25	226.80
383.62	227.37
384.00	227.19
384.38	227.23
384.76	227.32
385.13	227.47
385.51	227.38
385.89	227.30
386.27	227.33
386.64	227.34
387.02	227.18
387.40	227.10
387.78	227.14
388.15	227.14
388.53	227.15
388.91	227.16
389.29	227.15
389.66	227.13
390.04	226.93
390.42	226.99
390.79	227.06
391.17	227.07
391.55	226.47
391.92	226.57
392.30	226.58
392.68	226.50
393.05	226.43
393.43	226.48
393.81	226.50
394.18	226.46
394.56	226.51
394.94	226.67
395.31	226.69
395.69	226.93
396.06	227.07
396.44	227.13
396.82	227.10
397.19	227.37
397.57	227.29
397.95	227.52
398.32	227.46
398.70	227.55
399.07	227.68
399.45	227.84
399.82	227.83
400.20	227.85
400.58	227.92
400.95	227.86
401.33	228.16
401.70	228.64
402.08	228.75
402.45	228.88
402.83	229.16
403.20	229.33
403.58	229.43
403.95	229.60
404.33	229.85
404.71	230.10
405.08	230.61
405.46	230.91
405.83	231.14
406.21	231.44
406.58	231.67
406.96	231.95
407.33	232.19
407.70	232.61
408.08	233.37
408.45	233.84
408.83	234.38
409.20	234.65
409.58	234.75
409.95	235.34
410.33	235.86
410.70	236.15
411.08	236.78
411.45	237.32
411.82	237.89
412.20	238.56
412.57	239.51
412.95	239.74
413.32	240.63
413.69	241.44
414.07	242.35
414.44	243.33
414.82	244.34
415.19	245.53
415.56	246.67
415.94	247.68
416.31	249.04
416.68	250.40
417.06	252.00
417.43	253.56
417.81	255.29
418.18	257.14
418.55	259.06
418.93	261.01
419.30	263.10
419.67	265.38
420.04	267.65
420.42	269.89
420.79	272.96
421.16	275.75
421.54	278.70
421.91	281.59
422.28	284.67
422.66	287.96
423.03	291.45
423.40	294.80
423.77	298.25
424.15	301.84
424.52	305.59
424.89	309.78
425.26	313.81
425.64	317.56
426.01	321.68
426.38	326.12
426.75	330.64
427.13	335.23
427.50	339.87
427.87	344.76
428.24	349.61
428.61	354.13
428.99	359.43
429.36	364.95
429.73	370.45
430.10	375.97
430.47	381.56
430.85	387.15
431.22	393.33
431.59	400.27
431.96	406.44
432.33	413.34
432.70	419.96
433.08	427.73
433.45	435.14
433.82	442.46
434.19	450.59
434.56	458.60
434.93	466.20
435.30	474.12
435.68	482.73
436.05	491.19
436.42	499.62
436.79	507.21
437.16	515.59
437.53	524.36
437.90	532.96
438.27	541.61
438.64	550.37
439.01	558.58
439.38	565.60
439.75	572.84
440.13	580.77
440.50	588.27
440.87	594.26
441.24	600.62
441.61	607.47
441.98	612.53
442.35	618.41
442.72	624.53
443.09	630.25
443.46	633.60
443.83	635.87
444.20	637.65
444.57	640.40
444.94	641.47
445.31	642.68
445.68	644.12
446.05	644.17
446.42	642.96
446.79	641.63
447.16	639.98
447.53	638.66
447.90	635.03
448.27	631.39
448.64	626.71
449.01	623.05
449.37	617.06
449.74	611.04
450.11	604.18
450.48	596.44
450.85	588.40
451.22	581.65
451.59	575.16
451.96	568.99
452.33	560.85
452.70	553.46
453.07	544.68
453.43	535.60
453.80	527.27
454.17	519.20
454.54	511.44
454.91	503.34
455.28	495.41
455.65	488.05
456.02	481.19
456.38	474.89
456.75	467.20
457.12	460.69
457.49	454.50
457.86	448.24
458.23	443.03
458.59	437.35
458.96	431.57
459.33	426.39
459.70	421.21
460.07	417.16
460.43	412.52
460.80	408.26
461.17	404.51
461.54	400.54
461.91	396.78
462.27	392.95
462.64	389.68
463.01	386.10
463.38	382.78
463.74	378.79
464.11	375.78
464.48	373.07
464.85	370.16
465.21	368.03
465.58	365.66
465.95	362.85
466.32	360.65
466.68	358.37
467.05	356.26
467.42	354.12
467.78	351.82
468.15	349.54
468.52	347.95
468.88	345.69
469.25	343.76
469.62	342.36
469.98	340.74
470.35	339.15
470.72	337.67
471.08	335.96
471.45	334.67
471.82	333.32
472.18	331.94
472.55	330.92
472.92	329.53
473.28	328.39
473.65	327.26
474.02	326.15
474.38	325.29
474.75	324.43
475.11	323.55
475.48	322.89
475.85	322.38
476.21	321.81
476.58	321.34
476.94	321.01
477.31	320.47
477.67	320.12
478.04	319.90
478.41	319.64
478.77	319.85
479.14	319.61
479.50	319.50
479.87	319.42
480.23	319.45
480.60	319.36
480.96	319.43
481.33	319.82
481.69	320.02
482.06	320.25
482.42	320.53
482.79	320.87
483.15	321.29
483.52	321.88
483.88	322.29
484.25	322.79
484.61	323.43
484.98	324.08
485.34	324.95
485.71	325.81
486.07	326.82
486.44	327.52
486.80	328.57
487.17	329.81
487.53	331.26
487.90	332.68
488.26	334.48
488.62	336.21
488.99	337.71
489.35	339.54
489.72	341.48
490.08	343.50
490.44	345.54
490.81	347.78
491.17	349.99
491.54	352.61
491.90	355.30
492.26	357.85
492.63	360.70
492.99	363.54
493.36	366.64
493.72	370.09
494.08	373.48
494.45	377.23
494.81	381.02
495.17	384.85
495.54	389.00
495.90	393.16
496.26	397.46
496.63	402.14
496.99	406.92
497.35	411.88
497.72	417.10
498.08	422.59
498.44	428.15
498.80	434.14
499.17	440.03
499.53	446.31
499.89	453.07
500.26	459.83
500.62	466.79
500.98	474.40
501.34	481.72
501.71	489.54
502.07	497.38
502.43	505.58
502.79	513.94
503.16	522.62
503.52	531.57
503.88	540.80
504.24	550.39
504.60	560.36
504.97	570.45
505.33	580.70
505.69	591.67
506.05	602.77
506.41	614.03
506.78	625.78
507.14	637.70
507.50	649.98
507.86	662.57
508.22	675.55
508.59	688.34
508.95	701.75
509.31	715.77
509.67	729.96
510.03	744.01
510.39	758.54
510.75	773.52
511.12	788.77
511.48	804.45
511.84	820.14
512.20	836.04
512.56	852.49
512.92	869.39
513.28	886.27
513.64	903.46
514.00	920.83
514.37	938.34
514.73	956.37
515.09	974.57
515.45	993.01
515.81	1011.34
516.17	1030.02
516.53	1048.70
516.89	1067.51
517.25	1086.89
517.61	1107.21
517.97	1127.53
518.33	1147.63
518.69	1167.50
519.05	1188.02
519.41	1208.54
519.77	1229.56
520.13	1250.26
520.49	1270.57
520.85	1292.71
521.21	1313.78
521.57	1335.15
521.93	1355.96
522.29	1377.16
522.65	1397.93
523.01	1418.67
523.37	1439.06
523.73	1460.18
524.09	1481.00
524.45	1501.32
524.81	1522.22
525.17	1542.77
525.53	1563.14
525.89	1583.81
526.25	1604.84
526.61	1625.06
526.97	1646.18
527.33	1667.40
527.68	1689.03
528.04	1710.60
528.40	1730.06
528.76	1751.19
529.12	1771.39
529.48	1792.28
529.84	1812.11
530.20	1832.79
530.56	1853.59
530.91	1874.76
531.27	1895.19
531.63	1915.77
531.99	1936.28
532.35	1956.07
532.71	1976.23
533.07	1997.05
533.42	2016.76
533.78	2036.67
534.14	2056.46
534.50	2075.25
534.86	2094.14
535.21	2111.63
535.57	2129.87
535.93	2147.64
536.29	2165.03
536.65	2183.30
537.00	2200.90
537.36	2218.93
537.72	2235.61
538.08	2252.82
538.44	2269.27
538.79	2285.50
539.15	2301.72
539.51	2317.38
539.87	2332.52
540.22	2346.27
540.58	2360.72
540.94	2374.11
541.29	2386.70
541.65	2399.08
542.01	2411.77
542.37	2422.46
542.72	2433.86
543.08	2444.35
543.44	2456.16
543.79	2466.52
544.15	2476.60
544.51	2486.48
544.87	2495.86
545.22	2504.64
545.58	2512.33
545.94	2519.62
546.29	2526.11
546.65	2532.17
547.01	2538.38
547.36	2543.80
547.72	2549.20
548.07	2552.68
548.43	2558.05
548.79	2562.84
549.14	2566.89
549.50	2570.65
549.86	2574.91
550.21	2578.18
550.57	2581.83
550.92	2582.72
551.28	2584.00
551.64	2585.86
551.99	2587.59
552.35	2588.88
552.70	2590.81
553.06	2592.43
553.41	2593.70
553.77	2595.54
554.13	2596.98
554.48	2598.55
554.84	2599.97
555.19	2601.39
555.55	2603.11
555.90	2602.21
556.26	2601.09
556.61	2599.30
556.97	2597.07
557.32	2595.74
557.68	2594.56
558.03	2592.66
558.39	2591.57
558.74	2590.40
559.10	2587.18
559.45	2583.30
559.81	2578.76
560.16	2573.46
560.52	2567.87
560.87	2563.53
561.23	2557.70
561.58	2552.39
561.94	2545.10
562.29	2537.60
562.64	2530.35
563.00	2522.05
563.35	2515.69
563.71	2509.03
564.06	2502.88
564.42	2496.33
564.77	2489.61
565.12	2482.17
565.48	2474.61
565.83	2466.50
566.19	2458.35
566.54	2450.56
566.89	2442.75
567.25	2435.12
567.60	2427.82
567.96	2420.71
568.31	2412.61
568.66	2404.26
569.02	2395.00
569.37	2387.03
569.72	2379.76
570.08	2370.49
570.43	2361.10
570.78	2351.89
571.14	2342.50
571.49	2332.53
571.84	2323.10
572.20	2312.24
572.55	2301.89
572.90	2291.05
573.26	2281.03
573.61	2270.15
573.96	2258.87
574.31	2246.93
574.67	2235.21
575.02	2222.85
575.37	2210.06
575.72	2196.72
576.08	2184.46
576.43	2171.85
576.78	2158.56
577.13	2144.90
577.49	2132.55
577.84	2120.92
578.19	2108.65
578.54	2096.18
578.90	2084.20
579.25	2071.64
579.60	2059.24
579.95	2046.44
580.30	2033.41
580.66	2019.81
581.01	2006.16
581.36	1992.35
581.71	1979.75
582.06	1966.82
582.42	1954.28
582.77	1941.96
583.12	1930.37
583.47	1918.25
583.82	1906.19
584.17	1894.19
584.53	1882.58
584.88	1869.35
585.23	1856.17
585.58	1842.01
585.93	1828.74
586.28	1815.74
586.63	1801.97
586.98	1787.95
587.34	1774.99
587.69	1761.82
588.04	1749.30
588.39	1737.25
588.74	1725.08
589.09	1713.10
589.44	1700.54
589.79	1688.54
590.14	1676.59
590.49	1664.17
590.84	1652.13
591.19	1640.20
591.54	1628.17
591.89	1616.00
592.25	1605.79
592.60	1594.26
592.95	1583.05
593.30	1571.19
593.65	1558.90
594.00	1546.96
594.35	1537.03
594.70	1524.93
595.05	1513.48
595.40	1501.47
595.75	1489.79
596.10	1478.68
596.45	1467.32
596.80	1456.37
597.15	1444.85
597.50	1432.95
597.85	1421.82
598.19	1410.12
598.54	1398.62
598.89	1387.45
599.24	1376.62
599.59	1365.14
599.94	1354.36
600.29	1344.27
600.64	1334.19
600.99	1323.76
601.34	1314.25
601.69	1303.08
602.04	1293.34
602.39	1283.84
602.74	1274.83
603.08	1265.39
603.43	1256.05
603.78	1246.32
604.13	1236.81
604.48	1227.27
604.83	1217.65
605.18	1207.62
605.53	1198.32
605.87	1189.12
606.22	1180.56
606.57	1171.27
606.92	1162.08
607.27	1153.21
607.62	1144.13
607.96	1135.54
608.31	1127.67
608.66	1119.21
609.01	1110.71
609.36	1102.39
609.70	1093.67
610.05	1084.99
610.40	1076.44
610.75	1067.71
611.10	1059.45
611.44	1050.77
611.79	1042.38
612.14	1034.69
612.49	1027.04
612.83	1019.40
613.18	1011.70
613.53	1004.03
613.88	996.20
614.22	988.48
614.57	980.57
614.92	972.79
615.27	965.22
615.61	957.60
615.96	950.03
616.31	942.50
616.65	935.42
617.00	928.51
617.35	921.23
617.70	914.21
618.04	907.28
618.39	900.34
618.74	894.08
619.08	887.38
619.43	880.50
619.78	873.36
620.12	866.17
620.47	859.36
620.82	852.14
621.16	845.31
621.51	838.89
621.85	832.43
622.20	825.91
622.55	819.25
622.89	812.58
623.24	806.28
623.59	800.01
623.93	793.70
624.28	787.44
624.62	781.97
624.97	776.34
625.32	770.50
625.66	764.57
626.01	758.55
626.35	752.97
626.70	747.45
627.04	742.36
627.39	736.97
627.73	731.70
628.08	726.61
628.43	721.22
628.77	715.98
629.12	710.84
629.46	706.23
629.81	701.66
630.15	696.86
630.50	691.98
630.84	687.25
631.19	682.48
631.53	677.87
631.88	672.55
632.22	667.65
632.57	663.24
632.91	658.57
633.26	654.22
633.60	649.68
633.95	645.07
634.29	640.43
634.64	636.07
634.98	631.45
635.32	627.10
635.67	623.21
636.01	619.09
636.36	614.92
636.70	610.64
637.05	606.33
637.39	602.42
637.73	598.41
638.08	594.53
638.42	590.29
638.77	585.98
639.11	581.73
639.45	577.40
639.80	572.95
640.14	568.92
640.49	564.74
640.83	560.87
641.17	557.21
641.52	553.44
641.86	549.85
642.20	546.63
642.55	542.86
642.89	539.08
643.23	535.44
643.58	532.33
643.92	528.66
644.26	525.27
644.61	522.00
644.95	518.60
645.29	515.06
645.64	512.00
645.98	508.98
646.32	506.12
646.66	503.01
647.01	500.11
647.35	497.42
647.69	494.53
648.04	491.76
648.38	488.95
648.72	486.11
649.06	483.17
649.41	480.04
649.75	477.19
650.09	474.47
650.43	471.69
650.78	468.69
651.12	465.93
651.46	463.13
651.80	460.37
652.14	457.75
652.49	455.29
652.83	452.57
653.17	449.94
653.51	447.28
653.85	445.00
654.20	442.57
654.54	439.80
654.88	437.36
655.22	435.07
655.56	432.55
655.90	430.09
656.25	427.73
656.59	425.54
656.93	423.40
657.27	421.31
657.61	418.93
657.95	416.62
658.29	414.53
658.64	412.45
658.98	410.13
659.32	407.92
659.66	405.72
660.00	403.82
660.34	401.84
660.68	399.80
661.02	397.79
661.36	395.82
661.70	393.90
662.05	391.94
662.39	389.94
662.73	388.08
663.07	386.64
663.41	384.79
663.75	382.82
664.09	380.95
664.43	379.03
664.77	377.33
665.11	375.66
665.45	374.05
665.79	372.29
666.13	370.58
666.47	368.79
666.81	367.15
667.15	365.35
667.49	363.88
667.83	362.59
668.17	361.01
668.51	359.54
668.85	358.28
669.19	357.19
669.53	355.69
669.87	354.18
670.21	352.50
670.55	351.13
670.89	350.12
671.23	348.78
671.57	347.26
671.91	345.89
672.25	344.51
672.58	343.29
672.92	341.91
673.26	340.76
673.60	339.69
673.94	338.58
674.28	337.55
674.62	336.33
674.96	335.02
675.30	333.94
675.64	332.82
675.97	331.47
676.31	330.04
676.65	328.88
676.99	328.05
677.33	326.98
677.67	325.98
678.01	324.53
678.34	323.52
678.68	322.72
679.02	321.66
679.36	320.63
679.70	319.55
680.04	318.69
680.37	317.71
680.71	316.68
681.05	315.75
681.39	314.83
681.73	313.85
682.06	312.87
682.40	311.97
682.74	311.23
683.08	310.52
683.42	309.63
683.75	308.90
684.09	307.88
684.43	307.06
684.77	306.19
685.10	305.43
685.44	304.55
685.78	303.71
686.12	303.03
686.45	302.26
686.79	301.37
687.13	300.70
687.46	299.89
687.80	299.24
688.14	298.34
688.48	297.54
688.81	296.83
689.15	296.22
689.49	295.46
689.82	294.61
690.16	293.76
690.50	293.05
690.83	292.17
691.17	291.38
691.51	290.66
691.84	290.01
692.18	289.39
692.52	288.63
692.85	288.04
693.19	287.59
693.52	286.96
693.86	286.35
694.20	285.68
694.53	285.15
694.87	284.46
695.21	283.93
695.54	283.35
695.88	282.63
696.21	281.91
696.55	281.29
696.88	280.73
697.22	280.22
697.56	279.79
697.89	279.30
698.23	278.85
698.56	278.31
698.90	277.82
699.23	277.25
699.57	276.86
699.90	276.29
700.24	275.61
700.58	275.19
700.91	274.77
701.25	274.69
701.58	274.61
701.92	274.33
702.25	273.92
702.59	273.42
702.92	273.11
703.26	272.77
703.59	272.38
703.93	272.30
704.26	271.92
704.60	271.48
704.93	270.96
705.26	270.48
705.60	270.14
705.93	269.55
706.27	269.21
706.60	268.96
706.94	268.79
707.27	268.44
707.61	268.03
707.94	267.66
708.27	266.88
708.61	266.10
708.94	265.61
709.28	265.20
709.61	264.83
709.94	264.49
710.28	264.05
710.61	263.61
710.95	262.89
711.28	262.84
711.61	262.48
711.95	262.35
712.28	261.98
712.61	261.60
712.95	261.55
713.28	261.45
713.61	261.00
713.95	260.47
714.28	260.15
714.61	259.82
714.95	259.46
715.28	259.02
715.61	258.69
715.95	258.39
716.28	258.07
716.61	257.84
716.95	257.46
717.28	257.14
717.61	256.86
717.94	256.56
718.28	255.95
718.61	255.58
718.94	255.16
719.27	254.91
719.61	254.71
719.94	254.35
720.27	253.84
720.60	253.57
720.94	253.30
721.27	253.07
721.60	252.98
721.93	252.70
722.27	252.70
722.60	252.56
722.93	252.22
723.26	252.00
723.59	251.69
723.93	251.50
724.26	251.36
724.59	251.17
724.92	250.91
725.25	250.77
725.59	250.52
725.92	250.42
726.25	250.19
726.58	250.02
726.91	249.79
727.24	249.70
727.57	249.51
727.91	249.29
728.24	249.11
728.57	248.77
728.90	248.74
729.23	248.43
729.56	248.45
729.89	248.37
730.22	248.18
730.55	247.98
730.89	247.79
731.22	247.48
731.55	247.31
731.88	247.15
732.21	246.91
732.54	246.85
732.87	246.59
733.20	246.45
733.53	246.21
733.86	246.13
734.19	245.90
734.52	245.74
734.85	245.87
735.18	245.66
735.51	245.65
735.84	245.44
736.17	245.38
736.50	244.97
736.83	245.35
737.16	245.20
737.49	245.07
737.82	244.90
738.15	244.91
738.48	244.76
738.81	244.64
739.14	244.47
739.47	244.19
739.80	244.10
740.13	243.96
740.46	243.74
740.79	243.46
741.12	243.29
741.45	243.08
741.78	242.63
742.11	242.59
742.44	242.39
742.77	242.30
743.10	242.13
743.43	241.95
743.75	241.32
744.08	241.79
744.41	241.57
744.74	241.40
745.07	241.18
745.40	241.07
745.73	241.08
746.06	240.98
746.39	240.95
746.71	240.74
747.04	240.57
747.37	240.45
747.70	240.49
748.03	240.44
748.36	240.40
748.68	240.37
749.01	240.07
749.34	239.89
749.67	239.75
750.00	239.63
750.33	239.87
750.65	239.78
750.98	239.06
751.31	239.03
751.64	238.91
751.97	239.10
752.29	238.98
752.62	238.68
752.95	238.52
753.28	238.39
753.60	238.35
753.93	238.40
754.26	238.36
754.59	238.05
754.91	237.83
755.24	237.69
755.57	237.60
755.90	237.54
756.22	237.44
756.55	237.28
756.88	237.12
757.20	236.65
757.53	236.47
757.86	236.44
758.19	236.39
758.51	236.29
758.84	235.88
759.17	235.70
759.49	235.66
759.82	235.77
760.15	235.67
760.47	235.51
760.80	235.25
761.13	235.23
761.45	235.13
761.78	235.02
762.11	234.95
762.43	234.79
762.76	234.70
763.08	234.62
763.41	234.59
763.74	234.57
764.06	234.53
764.39	234.41
764.71	234.29
765.04	234.14
765.37	234.08
765.69	234.04
766.02	233.98
766.34	233.87
766.67	233.60
767.00	233.54
767.32	233.78
767.65	234.06
767.97	233.95
768.30	233.97
768.62	233.99
768.95	233.92
769.27	233.82
769.60	233.89
769.92	233.84
770.25	233.69
770.57	233.51
770.90	233.45
771.22	233.40
771.55	233.36
771.87	233.34
772.20	233.18
772.52	233.53
772.85	234.11
773.17	234.06
773.50	233.95
773.82	233.94
774.15	233.64
774.47	233.21
774.80	233.11
775.12	233.03
775.45	232.91
775.77	232.84
776.09	232.84
776.42	232.72
776.74	232.82
777.07	232.74
777.39	232.75
777.72	232.68
778.04	232.62
778.36	232.50
778.69	232.45
779.01	232.49
779.33	232.03
779.66	231.40
779.98	231.42
780.31	231.44
780.63	231.53
780.95	231.55
781.28	231.49
781.60	231.44
781.92	231.33
782.25	231.27
782.57	231.22
782.89	231.13
783.22	231.05
783.54	230.88
783.86	230.90
784.19	230.80
784.51	230.85
784.83	230.80
785.16	230.80
785.48	230.74
785.80	230.71
786.12	230.74
786.45	230.70
786.77	230.70
787.09	230.65
787.42	230.40
787.74	230.35
788.06	230.35
788.38	230.31
788.71	230.30
789.03	230.26
789.35	230.33
789.67	230.26
789.99	230.30
790.32	230.22
790.64	230.22
790.96	230.53
791.28	230.37
791.61	230.33
791.93	230.24
792.25	230.25
792.57	230.49
792.89	230.39
793.21	230.38
793.54	230.19
793.86	230.03
794.18	230.15
794.50	230.11
794.82	230.15
795.14	230.12
795.47	230.21
795.79	230.25
796.11	230.08
796.43	230.07
796.75	230.01
797.07	230.00
797.39	229.93
797.71	229.60
798.04	229.62
798.36	229.63
798.68	229.70
799.00	229.70
799.32	229.49
799.64	229.58
799.96	229.52
800.28	229.66
800.60	229.79
800.92	229.73
801.24	229.68
801.56	229.70
801.89	229.62
802.21	229.64
802.53	229.58
802.85	229.68
803.17	229.92
803.49	229.84
803.81	229.77
804.13	229.73
804.45	229.70
804.77	229.79
805.09	229.74
805.41	229.66
805.73	229.50
806.05	229.40
806.37	229.27
806.69	229.30
807.01	229.25
807.33	229.19
807.65	229.02
807.97	229.22
808.28	229.08
808.60	229.17
808.92	229.06
809.24	229.27
809.56	229.26
809.88	229.03
810.20	229.07
810.52	229.21
810.84	229.17
811.16	229.10
811.48	228.98
811.80	229.18
812.12	229.21
812.43	229.35
812.75	229.37
813.07	229.30
813.39	229.34
813.71	229.20
814.03	229.20
814.35	229.23
814.67	228.98
814.98	228.96
815.30	228.92
815.62	228.85
815.94	228.58
816.26	228.66
816.58	228.53
816.89	228.55
817.21	228.36
817.53	228.31
817.85	228.31
818.17	228.27
818.48	228.08
818.80	228.15
819.12	228.04
819.44	227.90
819.76	227.87
820.07	227.75
820.39	227.73
820.71	227.74
821.03	227.69
821.34	227.63
821.66	227.71
821.98	227.67
822.30	227.65
822.61	227.93
822.93	227.71
823.25	227.80
823.57	227.66
823.88	227.75
824.20	227.78
824.52	227.83
824.83	227.89
825.15	227.83
825.47	227.73
825.79	227.76
826.10	227.73
826.42	227.67
826.74	227.74
827.05	227.77
827.37	227.75
827.69	227.79
828.00	227.90
828.32	227.86
828.64	227.86
828.95	228.10
829.27	227.97
829.58	228.01
829.90	228.01
830.22	228.13
830.53	227.99
830.85	227.96
831.17	227.89
831.48	227.83
831.80	227.80
832.11	227.82
832.43	227.80
832.75	227.83
833.06	228.14
833.38	227.94
833.69	227.90
834.01	227.95
834.32	227.95
834.64	227.81
834.96	227.85
835.27	227.82
835.59	227.69
835.90	227.61
836.22	227.60
836.53	227.47
836.85	227.38
837.16	227.85
837.48	227.90
837.79	228.05
838.11	228.10
838.42	228.07
838.74	228.06
839.05	227.96
839.37	227.95
839.68	227.66
840.00	227.66
840.31	227.75
840.63	227.71
840.94	227.57
841.26	227.56
841.57	227.50
841.88	227.50
842.20	227.40
842.51	227.28
842.83	227.27
843.14	227.80
843.46	227.82
843.77	227.60
844.08	227.53
844.40	227.36
844.71	227.22
845.03	227.20
845.34	227.19
845.65	227.17
845.97	227.21
846.28	227.34
846.60	227.43
846.91	227.34
847.22	227.28
847.54	227.46
847.85	227.47
848.16	227.45
848.48	227.45
848.79	227.63
849.10	227.65
849.42	227.60
849.73	227.09
850.04	227.09
850.36	226.89
850.67	226.98
850.98	226.99
851.30	227.13
851.61	227.13
851.92	227.15
852.23	227.29
852.55	227.30
852.86	227.20
853.17	227.22
853.49	227.39
853.80	227.45
854.11	227.44
854.42	227.49
854.74	227.40
855.05	227.40
855.36	227.17
855.67	227.28
855.99	227.35
856.30	227.97
856.61	227.92
856.92	227.90
857.23	227.89
857.55	227.82
857.86	227.77
858.17	227.90
858.48	227.73
858.79	227.66
859.11	227.70
859.42	227.68
859.73	227.56
860.04	227.45
860.35	227.38
860.66	227.25
860.98	227.22
861.29	227.34
861.60	227.26
861.91	227.38
862.22	227.23
862.53	227.10
862.84	226.54
863.16	226.67
863.47	226.62
863.78	226.61
864.09	226.67
864.40	226.70
864.71	226.67
865.02	226.84
865.33	226.72
865.64	226.56
865.95	226.57
866.27	226.89
866.58	226.89
866.89	226.90
867.20	226.90
867.51	226.81
867.82	226.73
868.13	226.86
868.44	226.68
868.75	226.75
869.06	226.77
869.37	226.80
869.68	226.60
869.99	226.70
870.30	226.64
870.61	226.63
870.92	226.55
871.23	226.45
871.54	226.47
871.85	226.60
872.16	226.70
872.47	226.67
872.78	226.41
873.09	226.39
873.40	226.33
873.71	226.42
874.02	226.52
874.33	226.49
874.64	226.37
874.95	226.55
875.26	226.44
875.56	226.52
875.87	226.46
876.18	226.47
876.49	226.92
876.80	226.95
877.11	226.94
877.42	226.95
877.73	226.99
878.04	226.89
878.35	226.95
878.66	227.01
878.96	226.98
879.27	227.00
879.58	226.99
879.89	226.96
880.20	227.05
880.51	227.07
880.82	227.09
881.12	227.18
881.43	227.02
881.74	227.03
882.05	226.96
882.36	226.99
882.67	227.03
882.97	226.55
883.28	226.48
883.59	226.45
883.90	226.48
884.21	226.55
884.51	226.59
884.82	226.49
885.13	226.43
885.44	226.42
885.74	226.40
886.05	226.44
886.36	226.41
886.67	226.25
886.98	226.41
887.28	226.45
887.59	226.47
887.90	226.44
888.20	226.40
888.51	226.46
888.82	226.41
889.13	226.48
889.43	226.84
889.74	226.85
890.05	226.90
890.35	226.87
890.66	226.78
890.97	226.67
891.28	226.65
891.58	226.60
891.89	226.63
892.20	226.59
892.50	226.44
892.81	226.48
893.12	226.43
893.42	226.23
893.73	226.25
894.04	226.20
894.34	226.31
894.65	226.40
894.95	226.35
895.26	226.36
895.57	226.58
895.87	226.12
896.18	226.16
896.48	226.15
896.79	226.18
897.10	226.28
897.40	226.31
897.71	226.36
898.01	226.43
898.32	226.52
898.63	226.50
898.93	226.58
899.24	226.60
899.54	226.67
899.85	226.69
900.15	226.61
900.46	226.60
900.76	226.65
901.07	226.53
901.38	226.56
901.68	226.65
901.99	226.36
902.29	226.41
902.60	226.36
902.90	226.32
903.21	226.26
903.51	226.19
903.82	226.35
904.12	226.27
904.43	226.25
904.73	226.15
905.03	226.23
905.34	226.68
905.64	226.59
905.95	226.62
906.25	226.57
906.56	226.57
906.86	226.61
907.17	226.59
907.47	226.65
907.77	226.56
908.08	226.41
908.38	226.48
908.69	226.53
908.99	226.65
909.30	226.64
909.60	226.61
909.90	226.65
910.21	226.48
910.51	226.45
910.81	226.44
911.12	226.49
911.42	226.44
911.73	225.94
912.03	226.02
912.33	226.08
912.64	226.07
912.94	226.07
913.24	225.92
913.55	225.93
913.85	225.89
914.15	225.96
914.46	226.01
914.76	225.93
915.06	225.86
915.37	225.75
915.67	225.71
915.97	225.72
916.27	225.60
916.58	225.65
916.88	225.69
917.18	225.66
917.49	226.00
917.79	226.00
918.09	226.11
918.39	226.23
918.70	226.20
919.00	226.17
919.30	226.38
919.60	226.38
919.91	226.30
920.21	226.32
920.51	226.26
920.81	226.31
921.12	226.37
921.42	226.42
921.72	226.45
922.02	226.52
922.32	226.61
922.63	226.67
922.93	226.85
923.23	226.82
923.53	226.78
923.83	226.55
924.13	226.54
924.44	226.60
924.74	226.71
925.04	226.72
925.34	226.74
925.64	226.55
925.94	226.55
926.24	226.87
926.55	226.85
926.85	226.92
927.15	226.82
927.45	226.82
927.75	226.79
928.05	226.73
928.35	226.68
928.65	226.81
928.95	226.82
929.26	226.65
929.56	226.74
929.86	226.81
930.16	226.70
930.46	226.72
930.76	226.67
931.06	226.33
931.36	226.31
931.66	226.35
931.96	226.41
932.26	226.44
932.56	226.20
932.86	226.17
933.16	226.15
933.46	226.15
933.76	226.14
934.06	226.27
934.36	226.44
934.66	226.41
934.96	226.23
935.26	226.17
935.56	226.24
935.86	226.19
936.16	226.15
936.46	226.12
936.76	226.06
937.06	225.99
937.36	226.16
937.66	226.16
937.96	226.10
938.26	225.95
938.56	225.93
938.86	225.94
939.16	226.07
939.46	226.15
939.76	226.23
940.06	226.19
940.35	226.05
940.65	225.86
940.95	225.90
941.25	225.83
941.55	225.76
941.85	225.74
942.15	225.79
942.45	225.98
942.75	225.95
943.04	226.05
943.34	226.12
943.64	226.08
943.94	225.96
944.24	226.01
944.54	226.11
944.84	226.14
945.13	226.07
945.43	225.96
945.73	225.91
946.03	225.82
946.33	225.77
946.62	225.76
946.92	225.76
947.22	225.77
947.52	225.85
947.82	226.00
948.11	225.92
948.41	225.83
948.71	225.64
949.01	225.66
949.31	225.58
949.60	225.50
949.90	225.50
950.20	225.50
950.50	225.47
950.79	225.43
951.09	225.50
951.39	225.51
951.69	225.54
951.98	225.65
952.28	225.70
952.58	225.68
952.87	225.65
953.17	225.74
953.47	225.71
953.76	225.70
954.06	225.57
954.36	225.53
954.66	225.50
954.95	225.61
955.25	225.63
955.55	225.74
955.84	225.68
956.14	225.75
956.44	225.85
956.73	225.85
957.03	225.85
957.32	225.85
957.62	225.75
957.92	225.83
958.21	225.75
958.51	226.29
958.81	226.33
959.10	226.38
959.40	226.47
959.69	226.49
959.99	226.53
960.29	226.57
960.58	226.57
960.88	226.78
961.17	226.68
961.47	226.74
961.76	226.68
962.06	226.79
962.36	226.63
962.65	226.62
962.95	226.60
963.24	226.63
963.54	226.61
963.83	226.69
964.13	226.66
964.42	226.56
964.72	226.24
965.01	226.23
965.31	226.22
965.60	226.10
965.90	226.46
966.19	226.38
966.49	226.48
966.78	226.48
967.08	226.43
967.37	226.54
967.67	226.48
967.96	226.49
968.26	226.44
968.55	226.60
968.85	226.58
969.14	226.53
969.43	226.49
969.73	226.38
970.02	226.34
970.32	226.32
970.61	226.31
970.91	226.06
971.20	225.95
971.49	225.95
971.79	226.02
972.08	225.68
972.38	225.76
972.67	225.65
972.96	225.76
973.26	225.71
973.55	225.79
973.85	225.77
974.14	225.85
974.43	225.87
974.73	225.72
975.02	225.70
975.31	225.76
975.61	225.71
975.90	225.73
976.19	225.67
976.49	225.65
976.78	225.71
977.07	225.79
977.37	225.99
977.66	226.01
977.95	225.97
978.24	225.86
978.54	225.91
978.83	225.87
979.12	225.77
979.42	225.75
979.71	225.69
980.00	225.66
980.29	225.60
980.59	225.53
980.88	225.65
981.17	225.58
981.46	225.57
981.76	225.60
982.05	225.79
982.34	225.88
982.63	225.89
982.93	225.83
983.22	225.99
983.51	225.90
983.80	225.97
984.09	226.03
984.39	226.05
984.68	225.96
984.97	226.05
985.26	226.08
985.55	226.13
985.85	226.01
986.14	226.08
986.43	226.12
986.72	226.11
987.01	226.00
987.30	226.05
987.59	226.00
987.89	226.03
988.18	225.91
988.47	225.81
988.76	225.79
989.05	225.81
989.34	225.71
989.63	225.89
989.92	225.81
990.22	225.71
990.51	225.73
990.80	225.73
991.09	225.79
991.38	225.79
991.67	225.67
991.96	225.59
992.25	225.60
992.54	225.48
992.83	225.48
993.12	225.49
993.41	225.58
993.70	225.79
993.99	225.88
994.28	225.89
994.58	226.01
994.87	225.94
995.16	225.90
995.45	225.81
995.74	225.62
996.03	225.68
996.32	225.80
996.61	225.89
996.90	225.92
997.19	225.93
997.48	225.97
997.77	225.91
998.06	226.12
998.34	226.10
998.63	226.11
998.92	226.21
999.21	226.25
999.50	226.25
999.79	226.11
1000.08	226.02
1000.37	226.15
1000.66	226.06
1000.95	226.20
1001.24	226.22
1001.53	226.28
1001.82	226.30
1002.11	226.25
1002.40	226.27
1002.68	226.41
1002.97	226.75
1003.26	226.59
1003.55	226.52
1003.84	226.65
1004.13	226.75
1004.42	226.70
1004.71	226.72
1004.99	226.56
1005.28	226.66
1005.57	226.58
1005.86	226.50
1006.15	226.53
1006.44	226.36
1006.72	226.43
1007.01	226.34
1007.30	226.30
1007.59	226.30
1007.88	226.22
1008.17	226.27
1008.45	226.11
1008.74	225.92
1009.03	225.67
1009.32	225.65
1009.60	225.63
1009.89	225.58
1010.18	225.33
1010.47	225.35
1010.76	225.36
1011.04	225.51
1011.33	225.50
1011.62	225.57
1011.91	225.63
1012.19	225.60
1012.48	225.60
1012.77	225.54
1013.05	225.80
1013.34	225.84
1013.63	225.75
1013.92	225.84
1014.20	225.77
1014.49	225.81
1014.78	225.87
1015.06	225.73
1015.35	225.75
1015.64	225.78
1015.92	225.76
1016.21	225.80
1016.50	225.81
1016.78	225.88
1017.07	225.84
1017.36	225.67
1017.64	225.62
1017.93	225.65
1018.22	225.61
1018.50	225.62
1018.79	225.64
1019.08	225.44
1019.36	225.46
1019.65	225.40
1019.93	225.50
1020.22	225.52
1020.51	225.73
1020.79	225.64
1021.08	224.55
1021.36	224.85
1021.65	225.10
1021.94	226.35
1022.22	225.65
1022.51	223.55
1022.79	227.80
1023.08	225.75
1023.36	230.60
1023.65	224.90
>>>>>End Processed Spectral Data<<<<<
