SpectraSuite Data File
++++++++++++++++++++++++++++++++++++
Date: Wed Sep 04 18:03:22 EDT 2013
User: lab3
Dark Spectrum Present: Yes
Reference Spectrum Present: No
Number of Sampled Component Spectra: 1
Spectrometers: USB2E7196
Integration Time (usec): 170000 (USB2E7196)
Spectra Averaged: 20 (USB2E7196)
Boxcar Smoothing: 10 (USB2E7196)
Correct for Electrical Dark: No (USB2E7196)
Strobe/Lamp Enabled: No (USB2E7196)
Correct for Detector Non-linearity: No (USB2E7196)
Correct for Stray Light: No (USB2E7196)
Number of Pixels in Processed Spectrum: 2048
>>>>>Begin Processed Spectral Data<<<<<
339.09	0.00
339.48	214.65
339.86	215.20
340.24	215.95
340.63	216.25
341.01	225.60
341.39	220.85
341.78	223.25
342.16	224.55
342.54	221.75
342.93	212.65
343.31	223.40
343.69	223.87
344.07	224.29
344.46	224.80
344.84	225.27
345.22	225.31
345.60	225.58
345.99	225.74
346.37	225.80
346.75	226.08
347.13	226.15
347.52	226.29
347.90	226.56
348.28	226.57
348.66	226.62
349.05	226.51
349.43	226.56
349.81	226.65
350.19	226.68
350.57	226.76
350.96	226.86
351.34	226.94
351.72	227.12
352.10	227.27
352.48	227.28
352.87	227.37
353.25	227.37
353.63	227.45
354.01	227.55
354.39	227.65
354.77	227.66
355.15	227.80
355.54	227.74
355.92	227.54
356.30	227.60
356.68	228.01
357.06	228.03
357.44	228.03
357.82	228.07
358.20	228.59
358.58	228.66
358.97	228.70
359.35	228.84
359.73	228.93
360.11	228.91
360.49	228.96
360.87	228.97
361.25	229.12
361.63	229.32
362.01	229.34
362.39	229.40
362.77	229.46
363.15	229.55
363.53	229.61
363.91	229.72
364.29	229.86
364.67	229.41
365.05	229.54
365.43	229.73
365.81	229.81
366.19	229.67
366.57	229.89
366.95	229.85
367.33	229.81
367.71	229.81
368.09	229.92
368.47	229.96
368.85	229.97
369.23	230.05
369.61	229.84
369.99	229.99
370.37	230.02
370.75	230.21
371.13	230.07
371.51	230.00
371.89	230.09
372.27	230.01
372.65	230.05
373.03	230.01
373.41	229.90
373.78	229.81
374.16	229.53
374.54	229.29
374.92	229.25
375.30	229.18
375.68	228.99
376.06	228.97
376.44	228.88
376.82	228.80
377.19	228.73
377.57	228.67
377.95	228.50
378.33	228.40
378.71	228.07
379.09	228.09
379.47	228.08
379.84	227.87
380.22	227.77
380.60	227.68
380.98	227.58
381.36	227.44
381.73	227.26
382.11	227.25
382.49	227.23
382.87	227.09
383.25	227.04
383.62	227.60
384.00	227.40
384.38	227.40
384.76	227.50
385.13	227.60
385.51	227.50
385.89	227.37
386.27	227.28
386.64	227.24
387.02	227.08
387.40	227.00
387.78	227.00
388.15	226.99
388.53	226.88
388.91	226.83
389.29	226.76
389.66	226.85
390.04	226.80
390.42	226.76
390.79	226.78
391.17	226.73
391.55	226.14
391.92	226.21
392.30	226.22
392.68	226.02
393.05	225.92
393.43	225.96
393.81	226.03
394.18	225.98
394.56	226.08
394.94	226.23
395.31	226.13
395.69	226.36
396.06	226.47
396.44	226.57
396.82	226.56
397.19	226.92
397.57	226.91
397.95	227.05
398.32	227.01
398.70	227.13
399.07	227.27
399.45	227.39
399.82	227.42
400.20	227.44
400.58	227.60
400.95	227.58
401.33	227.83
401.70	228.25
402.08	228.39
402.45	228.51
402.83	228.73
403.20	229.05
403.58	229.06
403.95	229.34
404.33	229.58
404.71	229.83
405.08	230.20
405.46	230.45
405.83	230.65
406.21	230.95
406.58	231.25
406.96	231.55
407.33	231.86
407.70	232.33
408.08	233.05
408.45	233.53
408.83	234.03
409.20	234.36
409.58	234.50
409.95	235.14
410.33	235.65
410.70	236.03
411.08	236.58
411.45	237.29
411.82	237.78
412.20	238.52
412.57	239.51
412.95	239.88
413.32	240.79
413.69	241.62
414.07	242.61
414.44	243.61
414.82	244.63
415.19	245.90
415.56	247.06
415.94	248.22
416.31	249.64
416.68	251.04
417.06	252.70
417.43	254.33
417.81	256.03
418.18	257.83
418.55	259.84
418.93	261.90
419.30	263.93
419.67	266.27
420.04	268.59
420.42	270.93
420.79	274.16
421.16	276.91
421.54	279.98
421.91	282.96
422.28	286.08
422.66	289.40
423.03	292.80
423.40	296.11
423.77	299.53
424.15	303.13
424.52	306.96
424.89	311.23
425.26	315.25
425.64	318.99
426.01	323.27
426.38	327.65
426.75	332.25
427.13	336.90
427.50	341.72
427.87	346.63
428.24	351.63
428.61	356.02
428.99	361.41
429.36	367.02
429.73	372.59
430.10	378.15
430.47	383.81
430.85	389.55
431.22	395.81
431.59	402.84
431.96	409.11
432.33	416.08
432.70	422.72
433.08	430.74
433.45	438.27
433.82	445.77
434.19	454.00
434.56	462.01
434.93	469.79
435.30	477.49
435.68	485.95
436.05	494.42
436.42	502.91
436.79	510.70
437.16	519.09
437.53	527.93
437.90	536.63
438.27	545.35
438.64	554.41
439.01	562.77
439.38	569.83
439.75	576.98
440.13	585.11
440.50	592.70
440.87	598.62
441.24	605.00
441.61	611.89
441.98	617.02
442.35	622.85
442.72	629.01
443.09	634.76
443.46	638.19
443.83	640.36
444.20	642.28
444.57	644.95
444.94	645.95
445.31	647.07
445.68	648.64
446.05	648.70
446.42	647.17
446.79	645.78
447.16	644.28
447.53	643.01
447.90	639.26
448.27	635.55
448.64	630.82
449.01	627.15
449.37	620.99
449.74	614.82
450.11	608.02
450.48	599.96
450.85	591.94
451.22	585.23
451.59	578.68
451.96	572.44
452.33	564.26
452.70	556.73
453.07	547.94
453.43	538.57
453.80	530.15
454.17	522.01
454.54	514.18
454.91	505.84
455.28	497.74
455.65	490.24
456.02	483.26
456.38	476.83
456.75	469.02
457.12	462.50
457.49	456.32
457.86	449.93
458.23	444.91
458.59	439.20
458.96	433.41
459.33	428.32
459.70	423.07
460.07	418.99
460.43	414.40
460.80	410.24
461.17	406.49
461.54	402.59
461.91	398.87
462.27	395.02
462.64	391.80
463.01	388.33
463.38	384.96
463.74	381.00
464.11	377.88
464.48	375.22
464.85	372.31
465.21	370.12
465.58	367.80
465.95	364.81
466.32	362.63
466.68	360.39
467.05	358.03
467.42	355.95
467.78	353.54
468.15	351.36
468.52	349.65
468.88	347.46
469.25	345.46
469.62	343.99
469.98	342.35
470.35	340.74
470.72	339.30
471.08	337.62
471.45	336.34
471.82	335.15
472.18	333.78
472.55	332.82
472.92	331.48
473.28	330.34
473.65	329.33
474.02	328.34
474.38	327.51
474.75	326.86
475.11	325.89
475.48	325.24
475.85	324.66
476.21	324.04
476.58	323.52
476.94	323.20
477.31	322.77
477.67	322.36
478.04	322.01
478.41	321.71
478.77	322.06
479.14	321.76
479.50	321.63
479.87	321.65
480.23	321.66
480.60	321.66
480.96	321.67
481.33	322.02
481.69	322.10
482.06	322.29
482.42	322.50
482.79	322.91
483.15	323.42
483.52	324.12
483.88	324.61
484.25	325.17
484.61	325.75
484.98	326.28
485.34	327.23
485.71	328.21
486.07	329.26
486.44	329.76
486.80	330.85
487.17	331.89
487.53	333.22
487.90	334.49
488.26	336.29
488.62	337.97
488.99	339.40
489.35	341.17
489.72	343.07
490.08	345.05
490.44	346.98
490.81	349.20
491.17	351.20
491.54	353.61
491.90	356.10
492.26	358.80
492.63	361.65
492.99	364.52
493.36	367.66
493.72	370.90
494.08	374.43
494.45	378.12
494.81	382.05
495.17	385.88
495.54	390.06
495.90	394.03
496.26	398.50
496.63	403.20
496.99	407.86
497.35	412.78
497.72	418.11
498.08	423.56
498.44	429.14
498.80	435.22
499.17	441.31
499.53	447.60
499.89	454.36
500.26	461.16
500.62	468.12
500.98	475.54
501.34	483.00
501.71	490.66
502.07	498.56
502.43	506.76
502.79	515.20
503.16	523.90
503.52	533.03
503.88	542.33
504.24	552.09
504.60	562.28
504.97	572.73
505.33	583.11
505.69	594.30
506.05	605.50
506.41	616.68
506.78	628.44
507.14	640.65
507.50	652.74
507.86	665.50
508.22	678.61
508.59	691.40
508.95	705.13
509.31	719.38
509.67	733.67
510.03	747.99
510.39	762.74
510.75	777.85
511.12	793.14
511.48	808.82
511.84	824.57
512.20	840.63
512.56	856.93
512.92	873.80
513.28	890.57
513.64	907.77
514.00	925.44
514.37	943.15
514.73	961.21
515.09	979.59
515.45	998.11
515.81	1016.59
516.17	1035.85
516.53	1054.69
516.89	1073.37
517.25	1092.82
517.61	1113.16
517.97	1133.54
518.33	1153.68
518.69	1174.07
519.05	1194.65
519.41	1215.23
519.77	1236.45
520.13	1257.30
520.49	1278.11
520.85	1300.51
521.21	1321.68
521.57	1343.20
521.93	1363.87
522.29	1385.12
522.65	1406.05
523.01	1427.10
523.37	1447.90
523.73	1468.78
524.09	1489.38
524.45	1510.25
524.81	1531.34
525.17	1551.73
525.53	1572.31
525.89	1593.47
526.25	1614.38
526.61	1634.99
526.97	1656.31
527.33	1677.72
527.68	1699.87
528.04	1721.14
528.40	1740.93
528.76	1762.15
529.12	1782.28
529.48	1803.65
529.84	1823.77
530.20	1844.61
530.56	1865.35
530.91	1886.33
531.27	1906.94
531.63	1927.76
531.99	1948.44
532.35	1968.56
532.71	1989.00
533.07	2009.60
533.42	2029.29
533.78	2049.40
534.14	2069.34
534.50	2088.49
534.86	2107.66
535.21	2125.32
535.57	2144.11
535.93	2161.85
536.29	2179.50
536.65	2198.25
537.00	2215.94
537.36	2233.80
537.72	2250.75
538.08	2268.09
538.44	2284.70
538.79	2301.38
539.15	2318.08
539.51	2334.05
539.87	2349.60
540.22	2364.12
540.58	2378.55
540.94	2392.23
541.29	2404.52
541.65	2417.14
542.01	2430.14
542.37	2440.65
542.72	2451.71
543.08	2462.48
543.44	2474.55
543.79	2485.13
544.15	2494.66
544.51	2504.78
544.87	2514.34
545.22	2523.31
545.58	2531.07
545.94	2538.48
546.29	2544.75
546.65	2550.92
547.01	2556.49
547.36	2562.14
547.72	2567.31
548.07	2571.47
548.43	2576.69
548.79	2581.98
549.14	2585.87
549.50	2589.41
549.86	2593.92
550.21	2597.49
550.57	2600.57
550.92	2602.01
551.28	2603.38
551.64	2606.15
551.99	2608.14
552.35	2610.14
552.70	2611.82
553.06	2613.55
553.41	2615.00
553.77	2616.96
554.13	2619.02
554.48	2620.95
554.84	2622.74
555.19	2624.19
555.55	2626.21
555.90	2625.42
556.26	2624.56
556.61	2623.40
556.97	2621.34
557.32	2620.50
557.68	2619.43
558.03	2618.24
558.39	2617.17
558.74	2616.64
559.10	2613.40
559.45	2610.18
559.81	2605.78
560.16	2601.00
560.52	2596.74
560.87	2592.65
561.23	2587.10
561.58	2580.56
561.94	2573.70
562.29	2565.78
562.64	2558.98
563.00	2550.60
563.35	2544.65
563.71	2538.13
564.06	2532.07
564.42	2525.70
564.77	2518.74
565.12	2511.30
565.48	2503.72
565.83	2495.83
566.19	2487.61
566.54	2479.74
566.89	2471.32
567.25	2463.82
567.60	2456.69
567.96	2448.78
568.31	2440.62
568.66	2432.27
569.02	2423.86
569.37	2415.83
569.72	2408.34
570.08	2399.09
570.43	2389.65
570.78	2380.16
571.14	2370.70
571.49	2360.51
571.84	2350.79
572.20	2339.59
572.55	2329.46
572.90	2318.49
573.26	2308.16
573.61	2297.01
573.96	2286.03
574.31	2274.22
574.67	2262.12
575.02	2249.40
575.37	2236.46
575.72	2223.22
576.08	2210.94
576.43	2198.10
576.78	2184.97
577.13	2171.11
577.49	2158.26
577.84	2146.24
578.19	2133.99
578.54	2121.66
578.90	2109.46
579.25	2097.14
579.60	2084.84
579.95	2071.65
580.30	2058.33
580.66	2044.52
581.01	2030.94
581.36	2016.75
581.71	2003.85
582.06	1990.75
582.42	1978.02
582.77	1965.38
583.12	1953.19
583.47	1940.60
583.82	1928.44
584.17	1916.46
584.53	1904.84
584.88	1891.88
585.23	1878.75
585.58	1864.39
585.93	1850.73
586.28	1837.25
586.63	1823.30
586.98	1809.14
587.34	1795.96
587.69	1782.89
588.04	1770.33
588.39	1757.92
588.74	1745.69
589.09	1733.40
589.44	1720.77
589.79	1708.74
590.14	1696.91
590.49	1684.73
590.84	1672.90
591.19	1661.00
591.54	1648.35
591.89	1635.70
592.25	1625.20
592.60	1613.93
592.95	1602.80
593.30	1590.60
593.65	1578.87
594.00	1566.60
594.35	1556.64
594.70	1544.76
595.05	1533.30
595.40	1521.03
595.75	1509.04
596.10	1497.81
596.45	1486.42
596.80	1475.42
597.15	1463.74
597.50	1451.66
597.85	1440.12
598.19	1428.33
598.54	1416.46
598.89	1404.99
599.24	1394.68
599.59	1382.90
599.94	1371.71
600.29	1360.95
600.64	1350.63
600.99	1339.63
601.34	1330.34
601.69	1319.09
602.04	1308.88
602.39	1298.89
602.74	1289.62
603.08	1280.23
603.43	1270.82
603.78	1260.91
604.13	1251.08
604.48	1241.41
604.83	1231.80
605.18	1222.16
605.53	1212.44
605.87	1203.15
606.22	1194.74
606.57	1185.10
606.92	1175.68
607.27	1166.41
607.62	1157.61
607.96	1149.06
608.31	1141.10
608.66	1132.29
609.01	1123.81
609.36	1115.31
609.70	1106.63
610.05	1097.85
610.40	1089.21
610.75	1080.31
611.10	1071.79
611.44	1063.23
611.79	1054.88
612.14	1046.89
612.49	1038.79
612.83	1031.35
613.18	1023.55
613.53	1015.71
613.88	1007.81
614.22	1000.07
614.57	992.27
614.92	984.27
615.27	976.69
615.61	968.86
615.96	961.22
616.31	953.49
616.65	946.52
617.00	939.16
617.35	931.87
617.70	924.67
618.04	917.71
618.39	910.70
618.74	904.20
619.08	897.19
619.43	889.95
619.78	882.96
620.12	875.75
620.47	868.94
620.82	861.65
621.16	854.62
621.51	848.24
621.85	841.97
622.20	835.47
622.55	828.70
622.89	822.11
623.24	815.58
623.59	809.23
623.93	802.85
624.28	796.72
624.62	791.06
624.97	785.28
625.32	779.28
625.66	773.12
626.01	766.91
626.35	761.54
626.70	756.12
627.04	750.76
627.39	745.07
627.73	739.65
628.08	734.50
628.43	729.12
628.77	723.58
629.12	718.19
629.46	713.25
629.81	708.34
630.15	703.42
630.50	698.75
630.84	693.81
631.19	688.89
631.53	684.44
631.88	678.93
632.22	673.90
632.57	669.38
632.91	664.88
633.26	660.52
633.60	655.64
633.95	650.72
634.29	645.86
634.64	641.35
634.98	636.45
635.32	632.02
635.67	628.00
636.01	623.75
636.36	619.27
636.70	615.15
637.05	611.08
637.39	606.90
637.73	602.61
638.08	598.61
638.42	594.39
638.77	589.95
639.11	585.71
639.45	581.31
639.80	576.83
640.14	572.72
640.49	568.54
640.83	564.69
641.17	561.07
641.52	557.37
641.86	553.85
642.20	550.62
642.55	546.77
642.89	542.98
643.23	539.62
643.58	536.51
643.92	532.78
644.26	529.31
644.61	526.13
644.95	522.73
645.29	519.18
645.64	516.05
645.98	512.84
646.32	509.92
646.66	506.86
647.01	503.93
647.35	501.21
647.69	498.27
648.04	495.50
648.38	492.65
648.72	489.81
649.06	486.73
649.41	483.62
649.75	480.68
650.09	477.89
650.43	474.86
650.78	472.03
651.12	469.26
651.46	466.38
651.80	463.74
652.14	460.99
652.49	458.52
652.83	455.80
653.17	453.18
653.51	450.47
653.85	448.01
654.20	445.41
654.54	442.63
654.88	440.12
655.22	437.82
655.56	435.36
655.90	432.87
656.25	430.61
656.59	428.43
656.93	426.26
657.27	424.17
657.61	421.79
657.95	419.53
658.29	417.35
658.64	415.33
658.98	412.88
659.32	410.62
659.66	408.38
660.00	406.33
660.34	404.22
660.68	402.21
661.02	400.18
661.36	398.28
661.70	396.45
662.05	394.42
662.39	392.37
662.73	390.54
663.07	389.00
663.41	387.21
663.75	385.29
664.09	383.41
664.43	381.41
664.77	379.77
665.11	377.86
665.45	376.19
665.79	374.40
666.13	372.67
666.47	371.10
666.81	369.38
667.15	367.62
667.49	366.20
667.83	364.92
668.17	363.42
668.51	361.98
668.85	360.47
669.19	359.33
669.53	357.78
669.87	356.16
670.21	354.48
670.55	353.09
670.89	351.92
671.23	350.56
671.57	349.16
671.91	347.77
672.25	346.51
672.58	345.24
672.92	343.83
673.26	342.65
673.60	341.41
673.94	340.27
674.28	339.15
674.62	337.89
674.96	336.43
675.30	335.23
675.64	333.90
675.97	332.74
676.31	331.35
676.65	330.13
676.99	329.28
677.33	328.10
677.67	326.96
678.01	325.59
678.34	324.57
678.68	323.58
679.02	322.49
679.36	321.43
679.70	320.43
680.04	319.46
680.37	318.51
680.71	317.45
681.05	316.53
681.39	315.62
681.73	314.60
682.06	313.72
682.40	312.86
682.74	312.05
683.08	311.21
683.42	310.29
683.75	309.50
684.09	308.45
684.43	307.69
684.77	306.78
685.10	306.05
685.44	305.16
685.78	304.29
686.12	303.58
686.45	302.82
686.79	301.98
687.13	301.32
687.46	300.58
687.80	299.99
688.14	299.13
688.48	298.41
688.81	297.74
689.15	297.24
689.49	296.56
689.82	295.88
690.16	295.00
690.50	294.39
690.83	293.70
691.17	292.96
691.51	292.22
691.84	291.67
692.18	290.95
692.52	290.31
692.85	289.74
693.19	289.26
693.52	288.61
693.86	288.00
694.20	287.32
694.53	286.65
694.87	285.95
695.21	285.37
695.54	284.71
695.88	283.99
696.21	283.19
696.55	282.50
696.88	281.84
697.22	281.26
697.56	280.70
697.89	280.06
698.23	279.55
698.56	278.98
698.90	278.40
699.23	277.94
699.57	277.45
699.90	276.83
700.24	276.13
700.58	275.66
700.91	275.14
701.25	275.00
701.58	274.89
701.92	274.52
702.25	274.15
702.59	273.69
702.92	273.30
703.26	272.94
703.59	272.55
703.93	272.60
704.26	272.31
704.60	271.88
704.93	271.47
705.26	271.05
705.60	270.73
705.93	270.20
706.27	269.81
706.60	269.53
706.94	269.30
707.27	268.85
707.61	268.49
707.94	268.08
708.27	267.33
708.61	266.59
708.94	266.18
709.28	265.81
709.61	265.41
709.94	265.05
710.28	264.65
710.61	264.31
710.95	263.40
711.28	263.26
711.61	262.85
711.95	262.55
712.28	262.20
712.61	261.82
712.95	261.86
713.28	261.77
713.61	261.31
713.95	260.89
714.28	260.64
714.61	260.21
714.95	259.91
715.28	259.55
715.61	259.20
715.95	258.87
716.28	258.45
716.61	258.22
716.95	257.80
717.28	257.41
717.61	257.11
717.94	256.93
718.28	256.34
718.61	256.05
718.94	255.68
719.27	255.38
719.61	255.10
719.94	254.63
720.27	254.11
720.60	253.82
720.94	253.56
721.27	253.35
721.60	253.25
721.93	252.94
722.27	252.84
722.60	252.80
722.93	252.48
723.26	252.37
723.59	252.03
723.93	251.97
724.26	251.81
724.59	251.55
724.92	251.35
725.25	251.23
725.59	251.05
725.92	250.96
726.25	250.77
726.58	250.61
726.91	250.43
727.24	250.27
727.57	250.07
727.91	249.87
728.24	249.69
728.57	249.35
728.90	249.32
729.23	249.01
729.56	248.88
729.89	248.72
730.22	248.42
730.55	248.25
730.89	248.09
731.22	247.85
731.55	247.67
731.88	247.46
732.21	247.18
732.54	246.92
732.87	246.77
733.20	246.59
733.53	246.45
733.86	246.26
734.19	246.00
734.52	245.88
734.85	245.97
735.18	245.72
735.51	245.85
735.84	245.65
736.17	245.59
736.50	245.20
736.83	245.68
737.16	245.57
737.49	245.45
737.82	245.22
738.15	245.22
738.48	245.12
738.81	244.94
739.14	244.78
739.47	244.70
739.80	244.48
740.13	244.37
740.46	244.16
740.79	243.94
741.12	243.73
741.45	243.56
741.78	243.07
742.11	243.02
742.44	242.70
742.77	242.57
743.10	242.37
743.43	242.22
743.75	241.56
744.08	242.03
744.41	241.91
744.74	241.80
745.07	241.59
745.40	241.48
745.73	241.61
746.06	241.60
746.39	241.51
746.71	241.34
747.04	241.16
747.37	240.98
747.70	240.95
748.03	241.00
748.36	240.89
748.68	240.82
749.01	240.62
749.34	240.43
749.67	240.38
750.00	240.29
750.33	240.53
750.65	240.39
750.98	239.69
751.31	239.54
751.64	239.38
751.97	239.53
752.29	239.44
752.62	239.11
752.95	238.92
753.28	238.68
753.60	238.61
753.93	238.69
754.26	238.67
754.59	238.47
754.91	238.32
755.24	238.24
755.57	238.19
755.90	238.15
756.22	238.06
756.55	237.88
756.88	237.74
757.20	237.32
757.53	237.13
757.86	237.03
758.19	237.01
758.51	236.92
758.84	236.55
759.17	236.33
759.49	236.22
759.82	236.39
760.15	236.38
760.47	236.28
760.80	236.11
761.13	236.09
761.45	235.99
761.78	235.91
762.11	235.90
762.43	235.74
762.76	235.60
763.08	235.65
763.41	235.56
763.74	235.54
764.06	235.52
764.39	235.48
764.71	235.44
765.04	235.22
765.37	235.15
765.69	235.07
766.02	235.09
766.34	235.07
766.67	234.73
767.00	234.78
767.32	235.06
767.65	235.16
767.97	235.00
768.30	235.04
768.62	234.95
768.95	234.82
769.27	234.77
769.60	234.70
769.92	234.51
770.25	234.43
770.57	234.20
770.90	234.13
771.22	234.01
771.55	233.94
771.87	234.01
772.20	233.97
772.52	234.37
772.85	234.81
773.17	234.74
773.50	234.68
773.82	234.52
774.15	234.15
774.47	233.81
774.80	233.77
775.12	233.65
775.45	233.51
775.77	233.41
776.09	233.42
776.42	233.42
776.74	233.49
777.07	233.37
777.39	233.36
777.72	233.25
778.04	233.21
778.36	233.11
778.69	233.07
779.01	233.00
779.33	232.45
779.66	231.88
779.98	231.84
780.31	231.82
780.63	231.98
780.95	232.05
781.28	232.00
781.60	231.80
781.92	231.80
782.25	231.78
782.57	231.71
782.89	231.55
783.22	231.51
783.54	231.33
783.86	231.33
784.19	231.30
784.51	231.37
784.83	231.25
785.16	231.14
785.48	231.03
785.80	231.04
786.12	231.07
786.45	231.01
786.77	230.90
787.09	230.82
787.42	230.55
787.74	230.48
788.06	230.41
788.38	230.40
788.71	230.29
789.03	230.33
789.35	230.37
789.67	230.32
789.99	230.34
790.32	230.33
790.64	230.30
790.96	230.68
791.28	230.48
791.61	230.45
791.93	230.47
792.25	230.43
792.57	230.71
792.89	230.53
793.21	230.55
793.54	230.54
793.86	230.49
794.18	230.42
794.50	230.25
794.82	230.32
795.14	230.37
795.47	230.38
795.79	230.30
796.11	230.14
796.43	230.14
796.75	230.00
797.07	229.97
797.39	229.98
797.71	229.64
798.04	229.63
798.36	229.64
798.68	229.68
799.00	229.70
799.32	229.45
799.64	229.57
799.96	229.54
800.28	229.55
800.60	229.47
800.92	229.55
801.24	229.50
801.56	229.56
801.89	229.48
802.21	229.51
802.53	229.47
802.85	229.64
803.17	229.87
803.49	229.81
803.81	229.77
804.13	229.69
804.45	229.63
804.77	229.72
805.09	229.73
805.41	229.66
805.73	229.55
806.05	229.42
806.37	229.40
806.69	229.34
807.01	229.30
807.33	229.38
807.65	229.23
807.97	229.48
808.28	229.40
808.60	229.41
808.92	229.37
809.24	229.63
809.56	229.50
809.88	229.32
810.20	229.31
810.52	229.37
810.84	229.29
811.16	229.15
811.48	229.05
811.80	229.13
812.12	229.08
812.43	229.23
812.75	229.18
813.07	229.16
813.39	229.14
813.71	229.09
814.03	229.06
814.35	229.09
814.67	228.83
814.98	228.79
815.30	228.77
815.62	228.73
815.94	228.36
816.26	228.57
816.58	228.43
816.89	228.49
817.21	228.40
817.53	228.41
817.85	228.43
818.17	228.44
818.48	228.31
818.80	228.37
819.12	228.20
819.44	228.17
819.76	228.06
820.07	228.05
820.39	228.00
820.71	228.00
821.03	227.99
821.34	228.04
821.66	228.06
821.98	228.07
822.30	228.00
822.61	228.30
822.93	228.08
823.25	228.03
823.57	227.97
823.88	227.99
824.20	228.00
824.52	228.13
824.83	228.08
825.15	228.00
825.47	228.00
825.79	227.99
826.10	227.93
826.42	227.89
826.74	227.95
827.05	227.93
827.37	227.93
827.69	227.90
828.00	227.86
828.32	227.78
828.64	227.66
828.95	227.94
829.27	227.78
829.58	227.68
829.90	227.79
830.22	227.81
830.53	227.72
830.85	227.67
831.17	227.56
831.48	227.56
831.80	227.65
832.11	227.57
832.43	227.51
832.75	227.52
833.06	227.88
833.38	227.73
833.69	227.80
834.01	227.80
834.32	227.77
834.64	227.75
834.96	227.80
835.27	227.91
835.59	227.70
835.90	227.68
836.22	227.76
836.53	227.65
836.85	227.63
837.16	228.18
837.48	228.24
837.79	228.36
838.11	228.34
838.42	228.26
838.74	228.32
839.05	228.35
839.37	228.38
839.68	228.11
840.00	228.17
840.31	228.16
840.63	228.09
840.94	228.08
841.26	228.15
841.57	228.13
841.88	228.16
842.20	228.15
842.51	228.07
842.83	228.08
843.14	228.50
843.46	228.51
843.77	228.21
844.08	228.17
844.40	228.02
844.71	228.01
845.03	228.01
845.34	228.03
845.65	228.02
845.97	227.99
846.28	227.96
846.60	227.92
846.91	227.90
847.22	227.89
847.54	227.99
847.85	227.93
848.16	227.89
848.48	227.81
848.79	228.01
849.10	228.09
849.42	228.14
849.73	227.72
850.04	227.68
850.36	227.53
850.67	227.60
850.98	227.59
851.30	227.64
851.61	227.61
851.92	227.58
852.23	227.77
852.55	227.79
852.86	227.87
853.17	227.93
853.49	227.98
853.80	228.17
854.11	228.20
854.42	228.25
854.74	228.28
855.05	228.29
855.36	227.94
855.67	227.91
855.99	227.90
856.30	228.45
856.61	228.42
856.92	228.38
857.23	228.36
857.55	228.33
857.86	228.37
858.17	228.46
858.48	228.39
858.79	228.25
859.11	228.24
859.42	228.18
859.73	228.17
860.04	228.17
860.35	228.00
860.66	227.80
860.98	227.77
861.29	227.78
861.60	227.71
861.91	227.97
862.22	227.89
862.53	227.79
862.84	227.23
863.16	227.37
863.47	227.27
863.78	227.20
864.09	227.24
864.40	227.22
864.71	227.22
865.02	227.30
865.33	227.24
865.64	227.20
865.95	227.17
866.27	227.47
866.58	227.42
866.89	227.51
867.20	227.51
867.51	227.45
867.82	227.45
868.13	227.58
868.44	227.47
868.75	227.53
869.06	227.60
869.37	227.72
869.68	227.63
869.99	227.73
870.30	227.76
870.61	227.84
870.92	227.76
871.23	227.71
871.54	227.73
871.85	227.91
872.16	227.97
872.47	227.94
872.78	227.63
873.09	227.64
873.40	227.57
873.71	227.70
874.02	227.74
874.33	227.62
874.64	227.53
874.95	227.62
875.26	227.51
875.56	227.41
875.87	227.38
876.18	227.30
876.49	227.82
876.80	227.84
877.11	227.71
877.42	227.77
877.73	227.84
878.04	227.75
878.35	227.75
878.66	227.76
878.96	227.71
879.27	227.68
879.58	227.63
879.89	227.69
880.20	227.82
880.51	227.77
880.82	227.82
881.12	227.92
881.43	227.81
881.74	227.80
882.05	227.76
882.36	227.80
882.67	227.85
882.97	227.31
883.28	227.25
883.59	227.31
883.90	227.30
884.21	227.36
884.51	227.37
884.82	227.28
885.13	227.30
885.44	227.33
885.74	227.30
886.05	227.35
886.36	227.27
886.67	227.06
886.98	227.35
887.28	227.45
887.59	227.34
887.90	227.40
888.20	227.40
888.51	227.49
888.82	227.34
889.13	227.37
889.43	227.73
889.74	227.70
890.05	227.68
890.35	227.63
890.66	227.45
890.97	227.39
891.28	227.27
891.58	227.30
891.89	227.27
892.20	227.28
892.50	227.22
892.81	227.21
893.12	227.19
893.42	226.91
893.73	226.91
894.04	226.93
894.34	226.98
894.65	226.91
894.95	226.93
895.26	226.99
895.57	227.20
895.87	226.74
896.18	226.79
896.48	226.83
896.79	226.81
897.10	226.95
897.40	227.00
897.71	227.06
898.01	226.90
898.32	227.00
898.63	226.94
898.93	227.00
899.24	226.96
899.54	226.91
899.85	226.96
900.15	226.91
900.46	226.93
900.76	226.87
901.07	226.95
901.38	226.90
901.68	226.93
901.99	226.70
902.29	226.78
902.60	226.79
902.90	226.76
903.21	226.73
903.51	226.61
903.82	226.72
904.12	226.70
904.43	226.78
904.73	226.79
905.03	226.80
905.34	227.16
905.64	227.14
905.95	227.20
906.25	227.15
906.56	227.09
906.86	227.06
907.17	227.03
907.47	227.06
907.77	227.08
908.08	226.99
908.38	227.00
908.69	227.00
908.99	227.12
909.30	227.10
909.60	227.16
909.90	227.33
910.21	227.17
910.51	227.15
910.81	227.14
911.12	227.11
911.42	227.17
911.73	226.75
912.03	226.80
912.33	226.96
912.64	226.93
912.94	226.95
913.24	226.85
913.55	226.83
913.85	226.74
914.15	226.83
914.46	226.88
914.76	226.88
915.06	226.86
915.37	226.71
915.67	226.62
915.97	226.57
916.27	226.35
916.58	226.39
916.88	226.35
917.18	226.35
917.49	226.67
917.79	226.64
918.09	226.74
918.39	226.93
918.70	226.84
919.00	226.85
919.30	227.03
919.60	227.04
919.91	227.00
920.21	227.09
920.51	226.96
920.81	227.05
921.12	227.15
921.42	227.17
921.72	227.23
922.02	227.36
922.32	227.50
922.63	227.57
922.93	227.85
923.23	227.95
923.53	227.87
923.83	227.61
924.13	227.70
924.44	227.63
924.74	227.65
925.04	227.73
925.34	227.73
925.64	227.52
925.94	227.50
926.24	227.79
926.55	227.74
926.85	227.80
927.15	227.70
927.45	227.65
927.75	227.62
928.05	227.61
928.35	227.55
928.65	227.54
928.95	227.64
929.26	227.38
929.56	227.40
929.86	227.47
930.16	227.41
930.46	227.34
930.76	227.44
931.06	227.15
931.36	227.08
931.66	227.18
931.96	227.31
932.26	227.37
932.56	227.11
932.86	227.14
933.16	227.11
933.46	227.07
933.76	227.00
934.06	227.09
934.36	227.23
934.66	227.22
934.96	227.16
935.26	227.09
935.56	227.20
935.86	227.08
936.16	227.03
936.46	226.95
936.76	226.96
937.06	226.82
937.36	226.88
937.66	226.90
937.96	226.84
938.26	226.69
938.56	226.64
938.86	226.73
939.16	226.84
939.46	226.88
939.76	226.91
940.06	226.90
940.35	226.77
940.65	226.55
940.95	226.54
941.25	226.46
941.55	226.45
941.85	226.38
942.15	226.52
942.45	226.65
942.75	226.65
943.04	226.69
943.34	226.74
943.64	226.70
943.94	226.60
944.24	226.58
944.54	226.66
944.84	226.66
945.13	226.59
945.43	226.47
945.73	226.44
946.03	226.39
946.33	226.37
946.62	226.35
946.92	226.37
947.22	226.45
947.52	226.41
947.82	226.45
948.11	226.45
948.41	226.35
948.71	226.21
949.01	226.25
949.31	226.15
949.60	226.15
949.90	226.26
950.20	226.19
950.50	226.20
950.79	226.12
951.09	226.23
951.39	226.21
951.69	226.16
951.98	226.35
952.28	226.42
952.58	226.41
952.87	226.47
953.17	226.53
953.47	226.46
953.76	226.53
954.06	226.41
954.36	226.32
954.66	226.30
954.95	226.43
955.25	226.43
955.55	226.56
955.84	226.50
956.14	226.50
956.44	226.54
956.73	226.44
957.03	226.46
957.32	226.42
957.62	226.40
957.92	226.51
958.21	226.41
958.51	226.96
958.81	227.02
959.10	227.02
959.40	227.13
959.69	227.14
959.99	227.21
960.29	227.28
960.58	227.28
960.88	227.50
961.17	227.46
961.47	227.57
961.76	227.53
962.06	227.61
962.36	227.61
962.65	227.68
962.95	227.76
963.24	227.79
963.54	227.81
963.83	227.83
964.13	227.82
964.42	227.69
964.72	227.31
965.01	227.30
965.31	227.32
965.60	227.23
965.90	227.54
966.19	227.46
966.49	227.51
966.78	227.52
967.08	227.41
967.37	227.41
967.67	227.33
967.96	227.37
968.26	227.40
968.55	227.48
968.85	227.50
969.14	227.45
969.43	227.40
969.73	227.39
970.02	227.37
970.32	227.35
970.61	227.38
970.91	227.19
971.20	227.11
971.49	227.07
971.79	227.14
972.08	226.80
972.38	226.82
972.67	226.75
972.96	226.77
973.26	226.70
973.55	226.79
973.85	226.78
974.14	226.72
974.43	226.74
974.73	226.67
975.02	226.59
975.31	226.61
975.61	226.61
975.90	226.59
976.19	226.50
976.49	226.53
976.78	226.50
977.07	226.57
977.37	226.66
977.66	226.62
977.95	226.50
978.24	226.58
978.54	226.72
978.83	226.69
979.12	226.71
979.42	226.69
979.71	226.59
980.00	226.52
980.29	226.53
980.59	226.40
980.88	226.50
981.17	226.47
981.46	226.43
981.76	226.38
982.05	226.47
982.34	226.58
982.63	226.51
982.93	226.50
983.22	226.61
983.51	226.53
983.80	226.67
984.09	226.66
984.39	226.58
984.68	226.46
984.97	226.50
985.26	226.42
985.55	226.50
985.85	226.41
986.14	226.52
986.43	226.59
986.72	226.58
987.01	226.38
987.30	226.43
987.59	226.45
987.89	226.49
988.18	226.33
988.47	226.27
988.76	226.26
989.05	226.26
989.34	226.15
989.63	226.28
989.92	226.19
990.22	226.15
990.51	226.11
990.80	226.05
991.09	226.05
991.38	226.13
991.67	226.06
991.96	226.05
992.25	225.97
992.54	225.84
992.83	225.84
993.12	225.86
993.41	225.87
993.70	226.09
993.99	226.19
994.28	226.30
994.58	226.35
994.87	226.27
995.16	226.24
995.45	226.12
995.74	225.97
996.03	226.06
996.32	226.11
996.61	226.30
996.90	226.32
997.19	226.35
997.48	226.36
997.77	226.32
998.06	226.41
998.34	226.48
998.63	226.50
998.92	226.55
999.21	226.66
999.50	226.69
999.79	226.54
1000.08	226.55
1000.37	226.53
1000.66	226.49
1000.95	226.64
1001.24	226.70
1001.53	226.88
1001.82	226.88
1002.11	226.72
1002.40	226.84
1002.68	226.95
1002.97	227.31
1003.26	227.21
1003.55	227.12
1003.84	227.17
1004.13	227.23
1004.42	227.15
1004.71	227.14
1004.99	226.98
1005.28	227.07
1005.57	227.01
1005.86	226.90
1006.15	226.87
1006.44	226.82
1006.72	226.87
1007.01	226.83
1007.30	226.75
1007.59	226.63
1007.88	226.65
1008.17	226.69
1008.45	226.49
1008.74	226.21
1009.03	225.91
1009.32	225.94
1009.60	225.89
1009.89	225.80
1010.18	225.56
1010.47	225.53
1010.76	225.56
1011.04	225.64
1011.33	225.54
1011.62	225.64
1011.91	225.71
1012.19	225.75
1012.48	225.71
1012.77	225.65
1013.05	225.79
1013.34	225.88
1013.63	225.88
1013.92	225.86
1014.20	225.84
1014.49	225.92
1014.78	225.94
1015.06	225.73
1015.35	225.72
1015.64	225.82
1015.92	225.96
1016.21	226.07
1016.50	226.11
1016.78	226.11
1017.07	226.14
1017.36	226.10
1017.64	225.95
1017.93	226.01
1018.22	225.85
1018.50	225.81
1018.79	225.87
1019.08	225.67
1019.36	225.71
1019.65	225.66
1019.93	225.81
1020.22	225.88
1020.51	226.13
1020.79	226.16
1021.08	224.05
1021.36	224.10
1021.65	226.90
1021.94	225.25
1022.22	227.15
1022.51	225.10
1022.79	228.15
1023.08	226.65
1023.36	231.80
1023.65	225.55
>>>>>End Processed Spectral Data<<<<<
