SpectraSuite Data File
++++++++++++++++++++++++++++++++++++
Date: Wed Sep 04 18:02:02 EDT 2013
User: lab3
Dark Spectrum Present: Yes
Reference Spectrum Present: No
Number of Sampled Component Spectra: 1
Spectrometers: USB2E7196
Integration Time (usec): 170000 (USB2E7196)
Spectra Averaged: 20 (USB2E7196)
Boxcar Smoothing: 10 (USB2E7196)
Correct for Electrical Dark: No (USB2E7196)
Strobe/Lamp Enabled: No (USB2E7196)
Correct for Detector Non-linearity: No (USB2E7196)
Correct for Stray Light: No (USB2E7196)
Number of Pixels in Processed Spectrum: 2048
>>>>>Begin Processed Spectral Data<<<<<
339.09	0.00
339.48	213.75
339.86	214.70
340.24	216.75
340.63	218.10
341.01	226.80
341.39	220.15
341.78	222.85
342.16	225.60
342.54	224.80
342.93	212.71
343.31	223.35
343.69	223.88
344.07	224.34
344.46	224.76
344.84	225.17
345.22	225.15
345.60	225.45
345.99	225.66
346.37	225.73
346.75	225.76
347.13	225.84
347.52	225.83
347.90	226.01
348.28	225.99
348.66	226.21
349.05	226.12
349.43	226.21
349.81	226.32
350.19	226.36
350.57	226.41
350.96	226.54
351.34	226.70
351.72	226.75
352.10	226.83
352.48	226.87
352.87	226.84
353.25	226.86
353.63	226.89
354.01	226.88
354.39	226.91
354.77	227.00
355.15	227.20
355.54	227.17
355.92	227.11
356.30	227.21
356.68	227.54
357.06	227.58
357.44	227.54
357.82	227.52
358.20	227.94
358.58	227.98
358.97	228.04
359.35	228.22
359.73	228.38
360.11	228.44
360.49	228.60
360.87	228.76
361.25	228.90
361.63	229.08
362.01	229.14
362.39	229.20
362.77	229.26
363.15	229.30
363.53	229.40
363.91	229.45
364.29	229.47
364.67	229.05
365.05	229.17
365.43	229.31
365.81	229.43
366.19	229.37
366.57	229.62
366.95	229.64
367.33	229.51
367.71	229.57
368.09	229.71
368.47	229.70
368.85	229.71
369.23	229.82
369.61	229.72
369.99	229.86
370.37	229.89
370.75	230.16
371.13	230.06
371.51	230.00
371.89	230.04
372.27	230.07
372.65	230.12
373.03	230.03
373.41	229.91
373.78	229.84
374.16	229.54
374.54	229.34
374.92	229.26
375.30	229.30
375.68	229.14
376.06	229.11
376.44	228.94
376.82	228.86
377.19	228.75
377.57	228.63
377.95	228.49
378.33	228.36
378.71	227.97
379.09	228.03
379.47	228.12
379.84	228.01
380.22	227.89
380.60	227.73
380.98	227.63
381.36	227.55
381.73	227.41
382.11	227.45
382.49	227.36
382.87	227.30
383.25	227.22
383.62	227.70
384.00	227.49
384.38	227.45
384.76	227.49
385.13	227.59
385.51	227.57
385.89	227.40
386.27	227.37
386.64	227.40
387.02	227.30
387.40	227.17
387.78	227.14
388.15	227.15
388.53	227.07
388.91	227.02
389.29	226.93
389.66	226.99
390.04	226.86
390.42	226.95
390.79	226.90
391.17	226.86
391.55	226.28
391.92	226.26
392.30	226.36
392.68	226.12
393.05	226.05
393.43	226.01
393.81	226.08
394.18	225.97
394.56	225.98
394.94	225.96
395.31	225.87
395.69	226.05
396.06	226.05
396.44	226.11
396.82	226.12
397.19	226.41
397.57	226.39
397.95	226.49
398.32	226.42
398.70	226.47
399.07	226.63
399.45	226.66
399.82	226.71
400.20	226.69
400.58	226.84
400.95	226.75
401.33	226.95
401.70	227.32
402.08	227.48
402.45	227.61
402.83	227.94
403.20	228.18
403.58	228.28
403.95	228.58
404.33	228.87
404.71	229.10
405.08	229.55
405.46	229.83
405.83	230.13
406.21	230.40
406.58	230.69
406.96	230.92
407.33	231.35
407.70	231.78
408.08	232.54
408.45	232.97
408.83	233.50
409.20	233.86
409.58	234.11
409.95	234.75
410.33	235.38
410.70	235.75
411.08	236.40
411.45	237.03
411.82	237.62
412.20	238.40
412.57	239.45
412.95	239.79
413.32	240.70
413.69	241.53
414.07	242.46
414.44	243.51
414.82	244.61
415.19	245.75
415.56	247.02
415.94	248.10
416.31	249.59
416.68	251.09
417.06	252.80
417.43	254.42
417.81	256.12
418.18	257.88
418.55	259.86
418.93	261.91
419.30	264.04
419.67	266.29
420.04	268.51
420.42	270.86
420.79	274.08
421.16	276.87
421.54	279.95
421.91	282.94
422.28	286.13
422.66	289.52
423.03	293.07
423.40	296.41
423.77	300.00
424.15	303.63
424.52	307.42
424.89	311.64
425.26	315.68
425.64	319.52
426.01	323.70
426.38	328.08
426.75	332.58
427.13	337.16
427.50	341.78
427.87	346.82
428.24	351.82
428.61	356.31
428.99	361.54
429.36	366.97
429.73	372.60
430.10	378.06
430.47	383.61
430.85	389.25
431.22	395.42
431.59	402.20
431.96	408.53
432.33	415.59
432.70	422.17
433.08	430.03
433.45	437.50
433.82	444.86
434.19	453.19
434.56	461.29
434.93	469.03
435.30	477.01
435.68	485.58
436.05	494.07
436.42	502.42
436.79	510.16
437.16	518.64
437.53	527.55
437.90	536.30
438.27	545.06
438.64	553.97
439.01	562.37
439.38	569.63
439.75	576.69
440.13	584.57
440.50	592.09
440.87	598.33
441.24	604.75
441.61	611.79
441.98	616.83
442.35	622.66
442.72	628.68
443.09	634.45
443.46	637.94
443.83	640.27
444.20	642.20
444.57	644.97
444.94	646.01
445.31	646.95
445.68	648.27
446.05	648.26
446.42	646.86
446.79	645.42
447.16	643.80
447.53	642.66
447.90	638.96
448.27	635.32
448.64	630.31
449.01	626.59
449.37	620.41
449.74	614.30
450.11	607.34
450.48	599.52
450.85	591.45
451.22	584.52
451.59	577.82
451.96	571.46
452.33	563.34
452.70	555.94
453.07	547.20
453.43	537.99
453.80	529.60
454.17	521.54
454.54	513.75
454.91	505.50
455.28	497.35
455.65	490.03
456.02	483.06
456.38	476.54
456.75	468.81
457.12	462.18
457.49	455.91
457.86	449.55
458.23	444.30
458.59	438.62
458.96	432.77
459.33	427.63
459.70	422.58
460.07	418.50
460.43	413.76
460.80	409.45
461.17	405.70
461.54	401.64
461.91	397.82
462.27	393.93
462.64	390.58
463.01	386.99
463.38	383.49
463.74	379.60
464.11	376.71
464.48	373.99
464.85	371.29
465.21	369.09
465.58	366.79
465.95	363.99
466.32	361.72
466.68	359.48
467.05	357.20
467.42	354.94
467.78	352.51
468.15	350.45
468.52	348.89
468.88	346.70
469.25	344.88
469.62	343.46
469.98	341.84
470.35	340.37
470.72	339.01
471.08	337.36
471.45	336.02
471.82	334.71
472.18	333.26
472.55	332.20
472.92	330.84
473.28	329.68
473.65	328.62
474.02	327.58
474.38	326.72
474.75	325.95
475.11	325.07
475.48	324.42
475.85	323.72
476.21	322.99
476.58	322.56
476.94	322.13
477.31	321.66
477.67	321.27
478.04	321.00
478.41	320.80
478.77	321.10
479.14	320.89
479.50	320.77
479.87	320.79
480.23	320.72
480.60	320.68
480.96	320.75
481.33	321.13
481.69	321.38
482.06	321.59
482.42	321.89
482.79	322.22
483.15	322.65
483.52	323.33
483.88	323.86
484.25	324.40
484.61	325.00
484.98	325.64
485.34	326.65
485.71	327.55
486.07	328.40
486.44	328.95
486.80	330.12
487.17	331.26
487.53	332.68
487.90	334.17
488.26	335.76
488.62	337.47
488.99	338.93
489.35	340.69
489.72	342.55
490.08	344.47
490.44	346.50
490.81	348.77
491.17	350.83
491.54	353.38
491.90	355.96
492.26	358.72
492.63	361.60
492.99	364.31
493.36	367.36
493.72	370.64
494.08	374.07
494.45	377.80
494.81	381.81
495.17	385.60
495.54	389.60
495.90	394.03
496.26	398.41
496.63	403.11
496.99	407.86
497.35	412.92
497.72	418.26
498.08	423.83
498.44	429.70
498.80	435.89
499.17	441.75
499.53	448.06
499.89	454.77
500.26	461.57
500.62	468.59
500.98	476.01
501.34	483.37
501.71	491.06
502.07	498.74
502.43	506.79
502.79	515.31
503.16	524.07
503.52	533.04
503.88	542.47
504.24	552.22
504.60	562.25
504.97	572.61
505.33	582.99
505.69	594.16
506.05	604.96
506.41	616.10
506.78	627.98
507.14	639.95
507.50	652.44
507.86	665.06
508.22	678.06
508.59	691.07
508.95	705.01
509.31	719.36
509.67	733.76
510.03	748.14
510.39	762.88
510.75	778.09
511.12	793.29
511.48	808.92
511.84	824.81
512.20	840.74
512.56	857.12
512.92	873.94
513.28	890.77
513.64	908.16
514.00	925.83
514.37	943.69
514.73	961.98
515.09	980.21
515.45	998.88
515.81	1017.37
516.17	1036.12
516.53	1054.69
516.89	1073.11
517.25	1092.60
517.61	1112.76
517.97	1132.96
518.33	1153.03
518.69	1173.36
519.05	1193.92
519.41	1214.49
519.77	1235.51
520.13	1256.18
520.49	1277.07
520.85	1299.46
521.21	1320.55
521.57	1342.13
521.93	1363.11
522.29	1384.28
522.65	1405.04
523.01	1425.78
523.37	1446.69
523.73	1467.85
524.09	1488.73
524.45	1509.63
524.81	1530.84
525.17	1551.41
525.53	1572.37
525.89	1593.21
526.25	1614.18
526.61	1634.69
526.97	1655.75
527.33	1677.32
527.68	1699.31
528.04	1720.64
528.40	1740.11
528.76	1761.38
529.12	1781.41
529.48	1802.10
529.84	1822.32
530.20	1843.47
530.56	1864.50
530.91	1885.60
531.27	1906.49
531.63	1927.24
531.99	1948.25
532.35	1968.17
532.71	1988.74
533.07	2009.38
533.42	2029.59
533.78	2049.57
534.14	2069.53
534.50	2088.75
534.86	2108.21
535.21	2125.80
535.57	2144.48
535.93	2162.36
536.29	2180.00
536.65	2198.62
537.00	2216.44
537.36	2234.28
537.72	2250.78
538.08	2268.30
538.44	2285.21
538.79	2301.88
539.15	2318.38
539.51	2334.23
539.87	2349.70
540.22	2364.00
540.58	2378.22
540.94	2391.55
541.29	2404.51
541.65	2417.13
542.01	2430.05
542.37	2440.55
542.72	2451.75
543.08	2462.64
543.44	2474.65
543.79	2484.98
544.15	2494.90
544.51	2505.16
544.87	2515.00
545.22	2524.03
545.58	2531.30
545.94	2538.56
546.29	2544.79
546.65	2551.27
547.01	2556.92
547.36	2562.54
547.72	2567.83
548.07	2572.11
548.43	2577.31
548.79	2581.90
549.14	2586.02
549.50	2589.84
549.86	2593.95
550.21	2598.02
550.57	2601.19
550.92	2602.61
551.28	2604.44
551.64	2606.89
551.99	2608.50
552.35	2609.99
552.70	2611.87
553.06	2613.89
553.41	2615.21
553.77	2617.50
554.13	2619.10
554.48	2620.79
554.84	2622.05
555.19	2623.43
555.55	2625.02
555.90	2624.52
556.26	2624.00
556.61	2622.83
556.97	2620.60
557.32	2619.79
557.68	2618.75
558.03	2617.60
558.39	2616.47
558.74	2615.43
559.10	2612.06
559.45	2608.87
559.81	2604.51
560.16	2599.78
560.52	2595.24
560.87	2591.05
561.23	2585.35
561.58	2579.38
561.94	2572.69
562.29	2565.24
562.64	2558.47
563.00	2550.32
563.35	2544.44
563.71	2537.87
564.06	2531.76
564.42	2525.60
564.77	2518.69
565.12	2510.79
565.48	2502.85
565.83	2494.93
566.19	2486.91
566.54	2479.04
566.89	2470.77
567.25	2463.16
567.60	2455.68
567.96	2447.99
568.31	2439.51
568.66	2430.80
569.02	2421.68
569.37	2413.59
569.72	2406.10
570.08	2396.61
570.43	2387.14
570.78	2377.45
571.14	2367.94
571.49	2357.66
571.84	2348.01
572.20	2337.24
572.55	2327.13
572.90	2316.15
573.26	2306.01
573.61	2294.70
573.96	2283.88
574.31	2271.84
574.67	2259.65
575.02	2246.78
575.37	2233.95
575.72	2220.91
576.08	2208.57
576.43	2196.47
576.78	2182.99
577.13	2169.40
577.49	2156.54
577.84	2144.51
578.19	2132.10
578.54	2119.45
578.90	2107.33
579.25	2094.90
579.60	2082.49
579.95	2069.45
580.30	2056.26
580.66	2042.41
581.01	2028.94
581.36	2014.70
581.71	2002.34
582.06	1989.81
582.42	1977.41
582.77	1964.58
583.12	1952.45
583.47	1939.98
583.82	1927.55
584.17	1915.79
584.53	1904.01
584.88	1891.23
585.23	1878.31
585.58	1863.90
585.93	1850.41
586.28	1837.07
586.63	1822.65
586.98	1808.34
587.34	1794.99
587.69	1781.82
588.04	1769.37
588.39	1757.10
588.74	1745.01
589.09	1732.57
589.44	1719.53
589.79	1707.51
590.14	1695.56
590.49	1683.35
590.84	1671.18
591.19	1659.19
591.54	1646.71
591.89	1633.95
592.25	1623.78
592.60	1612.14
592.95	1601.11
593.30	1589.41
593.65	1577.36
594.00	1565.47
594.35	1555.63
594.70	1543.76
595.05	1532.33
595.40	1519.99
595.75	1508.08
596.10	1496.40
596.45	1484.74
596.80	1473.85
597.15	1462.20
597.50	1450.64
597.85	1439.26
598.19	1427.79
598.54	1416.10
598.89	1404.76
599.24	1394.38
599.59	1382.40
599.94	1371.29
600.29	1360.45
600.64	1349.72
600.99	1338.88
601.34	1329.32
601.69	1317.99
602.04	1308.26
602.39	1298.51
602.74	1289.21
603.08	1279.61
603.43	1270.58
603.78	1260.77
604.13	1250.95
604.48	1241.34
604.83	1231.31
605.18	1221.44
605.53	1211.78
605.87	1202.39
606.22	1193.95
606.57	1184.73
606.92	1175.39
607.27	1166.38
607.62	1157.73
607.96	1149.16
608.31	1140.98
608.66	1132.50
609.01	1123.72
609.36	1114.95
609.70	1106.28
610.05	1097.45
610.40	1088.93
610.75	1079.95
611.10	1071.81
611.44	1063.20
611.79	1054.81
612.14	1046.80
612.49	1038.63
612.83	1031.12
613.18	1023.34
613.53	1015.24
613.88	1006.87
614.22	999.15
614.57	991.14
614.92	983.23
615.27	975.56
615.61	967.86
615.96	960.09
616.31	952.78
616.65	945.67
617.00	938.19
617.35	931.11
617.70	923.98
618.04	916.97
618.39	909.79
618.74	903.33
619.08	896.35
619.43	889.28
619.78	882.47
620.12	875.28
620.47	868.28
620.82	861.07
621.16	854.36
621.51	847.92
621.85	841.64
622.20	835.01
622.55	828.25
622.89	821.66
623.24	815.24
623.59	808.69
623.93	802.33
624.28	796.12
624.62	790.15
624.97	784.17
625.32	778.30
625.66	772.18
626.01	765.89
626.35	760.31
626.70	754.57
627.04	749.15
627.39	743.53
627.73	738.30
628.08	733.09
628.43	727.66
628.77	721.99
629.12	716.55
629.46	711.55
629.81	706.75
630.15	701.86
630.50	696.95
630.84	692.10
631.19	687.32
631.53	682.87
631.88	677.62
632.22	672.66
632.57	668.06
632.91	663.45
633.26	659.12
633.60	654.49
633.95	649.80
634.29	645.00
634.64	640.45
634.98	635.55
635.32	631.09
635.67	626.96
636.01	622.70
636.36	618.33
636.70	614.33
637.05	610.13
637.39	606.07
637.73	601.88
638.08	597.78
638.42	593.51
638.77	589.03
639.11	584.73
639.45	580.49
639.80	576.02
640.14	572.00
640.49	567.84
640.83	563.93
641.17	560.39
641.52	556.56
641.86	552.90
642.20	549.82
642.55	546.11
642.89	542.51
643.23	538.99
643.58	535.91
643.92	532.18
644.26	528.84
644.61	525.53
644.95	522.11
645.29	518.77
645.64	515.55
645.98	512.50
646.32	509.68
646.66	506.63
647.01	503.73
647.35	500.96
647.69	497.99
648.04	495.14
648.38	492.33
648.72	489.58
649.06	486.72
649.41	483.49
649.75	480.60
650.09	477.74
650.43	474.96
650.78	472.06
651.12	469.24
651.46	466.49
651.80	463.59
652.14	460.90
652.49	458.37
652.83	455.83
653.17	453.28
653.51	450.49
653.85	448.06
654.20	445.59
654.54	442.81
654.88	440.34
655.22	438.06
655.56	435.59
655.90	433.16
656.25	430.71
656.59	428.46
656.93	426.27
657.27	424.25
657.61	421.89
657.95	419.55
658.29	417.38
658.64	415.17
658.98	413.03
659.32	410.75
659.66	408.53
660.00	406.31
660.34	404.11
660.68	402.15
661.02	400.15
661.36	398.15
661.70	396.20
662.05	394.28
662.39	392.28
662.73	390.47
663.07	388.79
663.41	386.95
663.75	385.06
664.09	383.20
664.43	381.05
664.77	379.26
665.11	377.48
665.45	375.84
665.79	374.13
666.13	372.36
666.47	370.77
666.81	369.06
667.15	367.40
667.49	365.85
667.83	364.39
668.17	362.84
668.51	361.35
668.85	360.06
669.19	358.94
669.53	357.28
669.87	355.68
670.21	354.11
670.55	352.73
670.89	351.61
671.23	350.29
671.57	348.97
671.91	347.67
672.25	346.36
672.58	345.17
672.92	343.82
673.26	342.57
673.60	341.29
673.94	340.10
674.28	338.97
674.62	337.91
674.96	336.65
675.30	335.41
675.64	334.20
675.97	332.90
676.31	331.42
676.65	330.29
676.99	329.33
677.33	328.18
677.67	327.14
678.01	325.78
678.34	324.63
678.68	323.70
679.02	322.59
679.36	321.56
679.70	320.47
680.04	319.48
680.37	318.56
680.71	317.62
681.05	316.75
681.39	315.80
681.73	314.77
682.06	313.85
682.40	313.02
682.74	312.25
683.08	311.57
683.42	310.60
683.75	309.77
684.09	308.81
684.43	308.00
684.77	307.09
685.10	306.35
685.44	305.50
685.78	304.63
686.12	303.83
686.45	303.06
686.79	302.26
687.13	301.59
687.46	300.84
687.80	300.18
688.14	299.32
688.48	298.62
688.81	297.83
689.15	297.18
689.49	296.46
689.82	295.74
690.16	294.91
690.50	294.30
690.83	293.62
691.17	292.90
691.51	292.23
691.84	291.66
692.18	291.00
692.52	290.47
692.85	289.91
693.19	289.49
693.52	288.79
693.86	288.20
694.20	287.57
694.53	286.99
694.87	286.32
695.21	285.79
695.54	285.17
695.88	284.59
696.21	283.83
696.55	283.17
696.88	282.41
697.22	281.70
697.56	281.20
697.89	280.57
698.23	280.08
698.56	279.55
698.90	279.04
699.23	278.45
699.57	277.86
699.90	277.31
700.24	276.64
700.58	276.25
700.91	275.75
701.25	275.67
701.58	275.50
701.92	275.14
702.25	274.65
702.59	274.20
702.92	273.77
703.26	273.39
703.59	272.91
703.93	273.03
704.26	272.66
704.60	272.18
704.93	271.80
705.26	271.31
705.60	270.91
705.93	270.37
706.27	270.12
706.60	269.76
706.94	269.52
707.27	269.01
707.61	268.63
707.94	268.13
708.27	267.32
708.61	266.55
708.94	266.13
709.28	265.69
709.61	265.22
709.94	264.81
710.28	264.51
710.61	264.19
710.95	263.30
711.28	263.31
711.61	262.99
711.95	262.71
712.28	262.30
712.61	261.83
712.95	261.70
713.28	261.50
713.61	261.18
713.95	260.66
714.28	260.50
714.61	260.08
714.95	259.78
715.28	259.31
715.61	258.96
715.95	258.66
716.28	258.33
716.61	258.10
716.95	257.75
717.28	257.37
717.61	257.09
717.94	256.85
718.28	256.09
718.61	255.73
718.94	255.34
719.27	255.00
719.61	254.86
719.94	254.53
720.27	254.01
720.60	253.69
720.94	253.40
721.27	253.12
721.60	252.98
721.93	252.83
722.27	252.81
722.60	252.67
722.93	252.38
723.26	252.21
723.59	251.85
723.93	251.69
724.26	251.48
724.59	251.18
724.92	250.93
725.25	250.90
725.59	250.73
725.92	250.59
726.25	250.45
726.58	250.31
726.91	250.04
727.24	249.94
727.57	249.78
727.91	249.58
728.24	249.51
728.57	249.21
728.90	249.04
729.23	248.78
729.56	248.81
729.89	248.68
730.22	248.38
730.55	248.32
730.89	248.15
731.22	247.98
731.55	247.81
731.88	247.75
732.21	247.55
732.54	247.30
732.87	247.20
733.20	247.09
733.53	246.87
733.86	246.72
734.19	246.53
734.52	246.39
734.85	246.51
735.18	246.20
735.51	246.19
735.84	245.98
736.17	245.85
736.50	245.45
736.83	245.75
737.16	245.74
737.49	245.56
737.82	245.46
738.15	245.40
738.48	245.31
738.81	245.05
739.14	244.77
739.47	244.57
739.80	244.34
740.13	244.18
740.46	243.98
740.79	243.81
741.12	243.58
741.45	243.35
741.78	242.96
742.11	242.97
742.44	242.81
742.77	242.77
743.10	242.57
743.43	242.45
743.75	241.81
744.08	242.27
744.41	242.07
744.74	241.85
745.07	241.66
745.40	241.54
745.73	241.64
746.06	241.61
746.39	241.61
746.71	241.42
747.04	241.29
747.37	241.14
747.70	241.09
748.03	241.03
748.36	241.05
748.68	240.89
749.01	240.68
749.34	240.45
749.67	240.33
750.00	240.34
750.33	240.57
750.65	240.44
750.98	239.69
751.31	239.66
751.64	239.56
751.97	239.64
752.29	239.52
752.62	239.15
752.95	238.99
753.28	238.77
753.60	238.70
753.93	238.68
754.26	238.71
754.59	238.48
754.91	238.27
755.24	238.04
755.57	237.98
755.90	237.86
756.22	237.77
756.55	237.51
756.88	237.25
757.20	236.80
757.53	236.64
757.86	236.52
758.19	236.42
758.51	236.29
758.84	235.95
759.17	235.81
759.49	235.76
759.82	235.90
760.15	235.89
760.47	235.76
760.80	235.60
761.13	235.51
761.45	235.39
761.78	235.32
762.11	235.27
762.43	235.19
762.76	235.03
763.08	235.01
763.41	235.00
763.74	235.03
764.06	235.02
764.39	234.99
764.71	234.91
765.04	234.78
765.37	234.68
765.69	234.65
766.02	234.54
766.34	234.38
766.67	234.12
767.00	234.15
767.32	234.32
767.65	234.49
767.97	234.36
768.30	234.30
768.62	234.32
768.95	234.22
769.27	234.12
769.60	234.17
769.92	234.06
770.25	233.95
770.57	233.78
770.90	233.62
771.22	233.53
771.55	233.48
771.87	233.52
772.20	233.50
772.52	233.89
772.85	234.45
773.17	234.52
773.50	234.41
773.82	234.22
774.15	233.94
774.47	233.55
774.80	233.48
775.12	233.51
775.45	233.42
775.77	233.30
776.09	233.24
776.42	233.16
776.74	233.21
777.07	233.15
777.39	233.12
777.72	233.12
778.04	233.14
778.36	233.00
778.69	232.93
779.01	232.85
779.33	232.33
779.66	231.65
779.98	231.60
780.31	231.67
780.63	231.84
780.95	232.01
781.28	232.03
781.60	231.95
781.92	231.90
782.25	231.90
782.57	231.97
782.89	231.90
783.22	231.84
783.54	231.64
783.86	231.64
784.19	231.56
784.51	231.68
784.83	231.53
785.16	231.52
785.48	231.40
785.80	231.43
786.12	231.38
786.45	231.39
786.77	231.35
787.09	231.24
787.42	230.98
787.74	230.92
788.06	230.88
788.38	230.82
788.71	230.76
789.03	230.74
789.35	230.70
789.67	230.58
789.99	230.62
790.32	230.60
790.64	230.60
790.96	230.98
791.28	230.75
791.61	230.76
791.93	230.81
792.25	230.78
792.57	231.04
792.89	230.96
793.21	231.02
793.54	230.97
793.86	230.89
794.18	230.89
794.50	230.70
794.82	230.66
795.14	230.72
795.47	230.78
795.79	230.82
796.11	230.72
796.43	230.71
796.75	230.65
797.07	230.65
797.39	230.62
797.71	230.25
798.04	230.24
798.36	230.26
798.68	230.15
799.00	230.14
799.32	229.84
799.64	229.94
799.96	229.89
800.28	229.93
800.60	229.85
800.92	229.89
801.24	229.90
801.56	229.84
801.89	229.68
802.21	229.60
802.53	229.40
802.85	229.48
803.17	229.71
803.49	229.63
803.81	229.56
804.13	229.55
804.45	229.50
804.77	229.50
805.09	229.44
805.41	229.45
805.73	229.42
806.05	229.34
806.37	229.31
806.69	229.30
807.01	229.23
807.33	229.30
807.65	229.21
807.97	229.33
808.28	229.41
808.60	229.43
808.92	229.36
809.24	229.69
809.56	229.59
809.88	229.37
810.20	229.38
810.52	229.46
810.84	229.37
811.16	229.24
811.48	229.28
811.80	229.38
812.12	229.29
812.43	229.38
812.75	229.45
813.07	229.37
813.39	229.33
813.71	229.23
814.03	229.20
814.35	229.18
814.67	229.01
814.98	228.88
815.30	228.83
815.62	228.73
815.94	228.37
816.26	228.57
816.58	228.49
816.89	228.50
817.21	228.38
817.53	228.42
817.85	228.50
818.17	228.38
818.48	228.20
818.80	228.36
819.12	228.26
819.44	228.15
819.76	228.02
820.07	227.98
820.39	227.92
820.71	227.92
821.03	227.87
821.34	227.83
821.66	227.96
821.98	228.06
822.30	228.11
822.61	228.45
822.93	228.19
823.25	228.20
823.57	228.12
823.88	228.24
824.20	228.24
824.52	228.31
824.83	228.30
825.15	228.35
825.47	228.28
825.79	228.31
826.10	228.29
826.42	228.41
826.74	228.48
827.05	228.58
827.37	228.56
827.69	228.60
828.00	228.65
828.32	228.66
828.64	228.61
828.95	228.86
829.27	228.70
829.58	228.71
829.90	228.81
830.22	228.90
830.53	228.81
830.85	228.74
831.17	228.64
831.48	228.65
831.80	228.62
832.11	228.60
832.43	228.54
832.75	228.51
833.06	228.73
833.38	228.64
833.69	228.64
834.01	228.72
834.32	228.66
834.64	228.65
834.96	228.61
835.27	228.58
835.59	228.37
835.90	228.27
836.22	228.32
836.53	228.28
836.85	228.18
837.16	228.63
837.48	228.62
837.79	228.76
838.11	228.79
838.42	228.77
838.74	228.78
839.05	228.75
839.37	228.77
839.68	228.51
840.00	228.40
840.31	228.41
840.63	228.33
840.94	228.29
841.26	228.19
841.57	228.16
841.88	228.22
842.20	228.20
842.51	228.16
842.83	228.07
843.14	228.40
843.46	228.42
843.77	228.14
844.08	228.15
844.40	228.01
844.71	227.98
845.03	227.97
845.34	227.90
845.65	227.87
845.97	227.85
846.28	227.88
846.60	227.96
846.91	227.96
847.22	227.98
847.54	228.07
847.85	228.10
848.16	228.05
848.48	227.98
848.79	228.11
849.10	228.16
849.42	228.23
849.73	227.81
850.04	227.77
850.36	227.55
850.67	227.57
850.98	227.56
851.30	227.56
851.61	227.50
851.92	227.53
852.23	227.70
852.55	227.70
852.86	227.67
853.17	227.69
853.49	227.75
853.80	227.79
854.11	227.77
854.42	227.92
854.74	227.89
855.05	227.80
855.36	227.57
855.67	227.58
855.99	227.56
856.30	228.09
856.61	228.08
856.92	228.14
857.23	228.10
857.55	228.05
857.86	228.07
858.17	228.13
858.48	228.06
858.79	228.01
859.11	228.06
859.42	228.03
859.73	227.95
860.04	227.90
860.35	227.75
860.66	227.63
860.98	227.52
861.29	227.63
861.60	227.68
861.91	227.80
862.22	227.70
862.53	227.61
862.84	227.09
863.16	227.20
863.47	227.13
863.78	227.11
864.09	227.16
864.40	227.14
864.71	227.14
865.02	227.18
865.33	227.11
865.64	226.96
865.95	226.95
866.27	227.33
866.58	227.24
866.89	227.29
867.20	227.32
867.51	227.28
867.82	227.19
868.13	227.35
868.44	227.25
868.75	227.37
869.06	227.42
869.37	227.46
869.68	227.35
869.99	227.41
870.30	227.45
870.61	227.46
870.92	227.35
871.23	227.33
871.54	227.41
871.85	227.44
872.16	227.60
872.47	227.60
872.78	227.32
873.09	227.42
873.40	227.34
873.71	227.40
874.02	227.39
874.33	227.32
874.64	227.18
874.95	227.24
875.26	227.14
875.56	227.15
875.87	227.14
876.18	227.11
876.49	227.60
876.80	227.49
877.11	227.46
877.42	227.49
877.73	227.47
878.04	227.43
878.35	227.47
878.66	227.42
878.96	227.42
879.27	227.29
879.58	227.23
879.89	227.25
880.20	227.40
880.51	227.36
880.82	227.39
881.12	227.41
881.43	227.34
881.74	227.26
882.05	227.27
882.36	227.29
882.67	227.30
882.97	226.76
883.28	226.79
883.59	226.69
883.90	226.76
884.21	226.82
884.51	226.76
884.82	226.70
885.13	226.72
885.44	226.64
885.74	226.66
886.05	226.64
886.36	226.60
886.67	226.40
886.98	226.70
887.28	226.79
887.59	226.81
887.90	226.82
888.20	226.87
888.51	226.96
888.82	226.84
889.13	226.87
889.43	227.28
889.74	227.23
890.05	227.21
890.35	227.14
890.66	227.10
890.97	227.06
891.28	226.95
891.58	226.99
891.89	227.03
892.20	227.04
892.50	227.05
892.81	227.01
893.12	227.07
893.42	226.83
893.73	226.85
894.04	226.86
894.34	226.93
894.65	226.88
894.95	226.73
895.26	226.81
895.57	227.03
895.87	226.59
896.18	226.70
896.48	226.81
896.79	226.86
897.10	226.86
897.40	226.88
897.71	226.99
898.01	226.85
898.32	226.98
898.63	227.00
898.93	227.06
899.24	227.20
899.54	227.15
899.85	227.03
900.15	226.99
900.46	226.98
900.76	227.00
901.07	226.99
901.38	227.05
901.68	227.11
901.99	226.80
902.29	226.86
902.60	226.81
902.90	226.74
903.21	226.69
903.51	226.71
903.82	226.77
904.12	226.79
904.43	226.91
904.73	226.82
905.03	226.79
905.34	227.22
905.64	227.15
905.95	227.15
906.25	227.19
906.56	227.15
906.86	227.15
907.17	227.04
907.47	227.05
907.77	226.93
908.08	226.88
908.38	226.92
908.69	226.95
908.99	227.00
909.30	227.03
909.60	227.08
909.90	227.02
910.21	226.93
910.51	226.84
910.81	226.82
911.12	226.81
911.42	226.78
911.73	226.24
912.03	226.28
912.33	226.36
912.64	226.30
912.94	226.22
913.24	226.15
913.55	226.09
913.85	226.12
914.15	226.27
914.46	226.26
914.76	226.24
915.06	226.22
915.37	226.11
915.67	226.10
915.97	226.06
916.27	225.97
916.58	225.95
916.88	225.83
917.18	225.69
917.49	226.06
917.79	226.05
918.09	226.16
918.39	226.21
918.70	226.17
919.00	226.25
919.30	226.49
919.60	226.47
919.91	226.44
920.21	226.37
920.51	226.25
920.81	226.23
921.12	226.36
921.42	226.32
921.72	226.39
922.02	226.52
922.32	226.62
922.63	226.66
922.93	226.89
923.23	226.97
923.53	226.97
923.83	226.65
924.13	226.66
924.44	226.63
924.74	226.64
925.04	226.76
925.34	226.71
925.64	226.55
925.94	226.52
926.24	226.88
926.55	226.94
926.85	227.05
927.15	227.06
927.45	227.04
927.75	227.02
928.05	227.06
928.35	227.00
928.65	227.06
928.95	227.17
929.26	226.97
929.56	227.20
929.86	227.30
930.16	227.29
930.46	227.40
930.76	227.42
931.06	227.23
931.36	227.11
931.66	227.24
931.96	227.31
932.26	227.42
932.56	227.18
932.86	227.22
933.16	227.21
933.46	227.14
933.76	227.02
934.06	227.18
934.36	227.39
934.66	227.35
934.96	227.28
935.26	227.29
935.56	227.45
935.86	227.25
936.16	227.27
936.46	227.35
936.76	227.27
937.06	227.21
937.36	227.27
937.66	227.30
937.96	227.27
938.26	227.17
938.56	227.07
938.86	227.13
939.16	227.22
939.46	227.26
939.76	227.37
940.06	227.43
940.35	227.26
940.65	226.98
940.95	227.02
941.25	226.86
941.55	226.77
941.85	226.69
942.15	226.78
942.45	226.80
942.75	226.66
943.04	226.66
943.34	226.84
943.64	226.84
943.94	226.79
944.24	226.75
944.54	226.80
944.84	226.83
945.13	226.75
945.43	226.71
945.73	226.66
946.03	226.60
946.33	226.51
946.62	226.52
946.92	226.48
947.22	226.47
947.52	226.58
947.82	226.65
948.11	226.60
948.41	226.50
948.71	226.42
949.01	226.45
949.31	226.41
949.60	226.29
949.90	226.37
950.20	226.28
950.50	226.28
950.79	226.24
951.09	226.30
951.39	226.31
951.69	226.20
951.98	226.23
952.28	226.15
952.58	226.11
952.87	226.08
953.17	226.14
953.47	226.08
953.76	226.14
954.06	226.03
954.36	225.93
954.66	225.92
954.95	226.02
955.25	226.08
955.55	226.13
955.84	226.07
956.14	226.11
956.44	226.14
956.73	226.07
957.03	226.10
957.32	226.04
957.62	225.96
957.92	226.06
958.21	226.02
958.51	226.64
958.81	226.85
959.10	226.92
959.40	227.03
959.69	227.12
959.99	227.08
960.29	227.14
960.58	227.13
960.88	227.32
961.17	227.25
961.47	227.22
961.76	227.14
962.06	227.20
962.36	227.11
962.65	227.22
962.95	227.25
963.24	227.14
963.54	227.14
963.83	227.25
964.13	227.15
964.42	227.11
964.72	226.70
965.01	226.62
965.31	226.60
965.60	226.48
965.90	226.70
966.19	226.66
966.49	226.68
966.78	226.71
967.08	226.67
967.37	226.69
967.67	226.63
967.96	226.80
968.26	226.78
968.55	226.87
968.85	226.78
969.14	226.80
969.43	226.88
969.73	226.87
970.02	226.90
970.32	226.87
970.61	226.81
970.91	226.73
971.20	226.69
971.49	226.59
971.79	226.70
972.08	226.40
972.38	226.42
972.67	226.39
972.96	226.46
973.26	226.35
973.55	226.54
973.85	226.55
974.14	226.44
974.43	226.51
974.73	226.42
975.02	226.48
975.31	226.54
975.61	226.52
975.90	226.49
976.19	226.32
976.49	226.43
976.78	226.47
977.07	226.45
977.37	226.51
977.66	226.69
977.95	226.58
978.24	226.65
978.54	226.75
978.83	226.71
979.12	226.70
979.42	226.71
979.71	226.64
980.00	226.61
980.29	226.70
980.59	226.57
980.88	226.72
981.17	226.66
981.46	226.65
981.76	226.65
982.05	226.81
982.34	226.86
982.63	226.87
982.93	226.87
983.22	227.05
983.51	227.03
983.80	227.01
984.09	227.11
984.39	227.05
984.68	226.95
984.97	227.02
985.26	226.99
985.55	227.04
985.85	226.86
986.14	226.97
986.43	226.97
986.72	226.94
987.01	226.75
987.30	226.76
987.59	226.67
987.89	226.65
988.18	226.50
988.47	226.49
988.76	226.44
989.05	226.38
989.34	226.21
989.63	226.29
989.92	226.23
990.22	226.12
990.51	226.16
990.80	226.11
991.09	226.10
991.38	226.18
991.67	226.12
991.96	226.08
992.25	226.06
992.54	225.97
992.83	225.99
993.12	225.99
993.41	226.02
993.70	226.19
993.99	226.31
994.28	226.35
994.58	226.36
994.87	226.34
995.16	226.33
995.45	226.30
995.74	226.11
996.03	226.16
996.32	226.26
996.61	226.25
996.90	226.25
997.19	226.25
997.48	226.20
997.77	226.16
998.06	226.25
998.34	226.21
998.63	226.16
998.92	226.18
999.21	226.20
999.50	226.15
999.79	226.08
1000.08	226.03
1000.37	226.02
1000.66	225.96
1000.95	226.00
1001.24	226.05
1001.53	226.11
1001.82	226.17
1002.11	226.02
1002.40	226.01
1002.68	226.18
1002.97	226.50
1003.26	226.45
1003.55	226.44
1003.84	226.43
1004.13	226.62
1004.42	226.55
1004.71	226.64
1004.99	226.63
1005.28	226.84
1005.57	226.79
1005.86	226.78
1006.15	226.74
1006.44	226.67
1006.72	226.76
1007.01	226.79
1007.30	226.81
1007.59	226.79
1007.88	226.79
1008.17	226.84
1008.45	226.78
1008.74	226.52
1009.03	226.30
1009.32	226.29
1009.60	226.22
1009.89	226.27
1010.18	226.03
1010.47	225.99
1010.76	225.95
1011.04	225.95
1011.33	225.97
1011.62	226.08
1011.91	226.04
1012.19	226.06
1012.48	226.15
1012.77	226.21
1013.05	226.40
1013.34	226.38
1013.63	226.37
1013.92	226.42
1014.20	226.43
1014.49	226.50
1014.78	226.60
1015.06	226.53
1015.35	226.57
1015.64	226.70
1015.92	226.75
1016.21	226.80
1016.50	226.85
1016.78	226.94
1017.07	226.97
1017.36	226.82
1017.64	226.79
1017.93	226.84
1018.22	226.80
1018.50	226.76
1018.79	226.71
1019.08	226.49
1019.36	226.51
1019.65	226.47
1019.93	226.55
1020.22	226.64
1020.51	226.88
1020.79	226.83
1021.08	225.65
1021.36	225.75
1021.65	226.50
1021.94	226.55
1022.22	226.45
1022.51	225.10
1022.79	228.55
1023.08	227.55
1023.36	232.90
1023.65	225.60
>>>>>End Processed Spectral Data<<<<<
