SpectraSuite Data File
++++++++++++++++++++++++++++++++++++
Date: Wed Sep 04 17:43:03 EDT 2013
User: lab3
Dark Spectrum Present: Yes
Reference Spectrum Present: No
Number of Sampled Component Spectra: 1
Spectrometers: USB2E7196
Integration Time (usec): 170000 (USB2E7196)
Spectra Averaged: 20 (USB2E7196)
Boxcar Smoothing: 10 (USB2E7196)
Correct for Electrical Dark: No (USB2E7196)
Strobe/Lamp Enabled: No (USB2E7196)
Correct for Detector Non-linearity: No (USB2E7196)
Correct for Stray Light: No (USB2E7196)
Number of Pixels in Processed Spectrum: 2048
>>>>>Begin Processed Spectral Data<<<<<
339.09	0.00
339.48	212.25
339.86	214.10
340.24	215.95
340.63	217.25
341.01	224.80
341.39	219.45
341.78	221.80
342.16	224.40
342.54	223.80
342.93	211.96
343.31	222.62
343.69	223.14
344.07	223.69
344.46	224.18
344.84	224.55
345.22	224.62
345.60	224.94
345.99	225.09
346.37	225.08
346.75	225.07
347.13	225.12
347.52	225.21
347.90	225.45
348.28	225.57
348.66	225.74
349.05	225.59
349.43	225.66
349.81	225.74
350.19	225.84
350.57	225.90
350.96	226.00
351.34	226.14
351.72	226.32
352.10	226.28
352.48	226.26
352.87	226.36
353.25	226.40
353.63	226.35
354.01	226.38
354.39	226.50
354.77	226.63
355.15	226.83
355.54	226.85
355.92	226.76
356.30	226.68
356.68	227.03
357.06	227.17
357.44	227.14
357.82	227.24
358.20	227.66
358.58	227.69
358.97	227.77
359.35	227.84
359.73	227.92
360.11	227.99
360.49	228.10
360.87	228.08
361.25	228.15
361.63	228.42
362.01	228.50
362.39	228.56
362.77	228.63
363.15	228.61
363.53	228.64
363.91	228.74
364.29	228.87
364.67	228.43
365.05	228.41
365.43	228.53
365.81	228.48
366.19	228.32
366.57	228.60
366.95	228.65
367.33	228.63
367.71	228.67
368.09	228.74
368.47	228.73
368.85	228.73
369.23	228.74
369.61	228.56
369.99	228.78
370.37	228.84
370.75	229.03
371.13	228.92
371.51	228.90
371.89	228.91
372.27	228.86
372.65	228.92
373.03	228.91
373.41	228.82
373.78	228.80
374.16	228.50
374.54	228.26
374.92	228.06
375.30	228.05
375.68	227.87
376.06	227.89
376.44	227.76
376.82	227.81
377.19	227.73
377.57	227.69
377.95	227.41
378.33	227.24
378.71	226.85
379.09	226.86
379.47	226.75
379.84	226.58
380.22	226.47
380.60	226.25
380.98	226.14
381.36	226.03
381.73	225.88
382.11	225.93
382.49	225.88
382.87	225.76
383.25	225.64
383.62	226.17
384.00	226.01
384.38	225.99
384.76	225.98
385.13	226.08
385.51	226.02
385.89	225.93
386.27	225.84
386.64	225.89
387.02	225.76
387.40	225.73
387.78	225.70
388.15	225.71
388.53	225.70
388.91	225.66
389.29	225.63
389.66	225.67
390.04	225.56
390.42	225.63
390.79	225.67
391.17	225.71
391.55	225.07
391.92	225.07
392.30	225.07
392.68	224.91
393.05	224.88
393.43	224.80
393.81	224.86
394.18	224.85
394.56	224.89
394.94	225.00
395.31	224.91
395.69	225.09
396.06	225.19
396.44	225.24
396.82	225.26
397.19	225.48
397.57	225.47
397.95	225.57
398.32	225.47
398.70	225.56
399.07	225.67
399.45	225.81
399.82	225.88
400.20	225.93
400.58	225.99
400.95	225.94
401.33	226.16
401.70	226.54
402.08	226.70
402.45	226.81
402.83	226.99
403.20	227.17
403.58	227.17
403.95	227.38
404.33	227.59
404.71	227.71
405.08	228.20
405.46	228.45
405.83	228.68
406.21	228.86
406.58	229.16
406.96	229.40
407.33	229.63
407.70	229.94
408.08	230.66
408.45	231.11
408.83	231.54
409.20	231.80
409.58	231.94
409.95	232.42
410.33	232.86
410.70	233.24
411.08	233.78
411.45	234.33
411.82	234.75
412.20	235.43
412.57	236.41
412.95	236.64
413.32	237.40
413.69	238.08
414.07	238.94
414.44	239.68
414.82	240.56
415.19	241.63
415.56	242.62
415.94	243.40
416.31	244.56
416.68	245.75
417.06	247.23
417.43	248.57
417.81	250.04
418.18	251.60
418.55	253.20
418.93	254.90
419.30	256.68
419.67	258.58
420.04	260.50
420.42	262.32
420.79	264.95
421.16	267.18
421.54	269.82
421.91	272.30
422.28	274.94
422.66	277.55
423.03	280.46
423.40	283.27
423.77	286.23
424.15	289.24
424.52	292.40
424.89	295.89
425.26	299.16
425.64	302.39
426.01	305.81
426.38	309.47
426.75	313.28
427.13	317.11
427.50	320.91
427.87	324.91
428.24	329.05
428.61	332.79
428.99	337.32
429.36	341.81
429.73	346.48
430.10	351.12
430.47	355.87
430.85	360.42
431.22	365.61
431.59	371.39
431.96	376.58
432.33	382.41
432.70	387.92
433.08	394.51
433.45	400.58
433.82	406.72
434.19	413.53
434.56	420.23
434.93	426.59
435.30	433.16
435.68	440.42
436.05	447.58
436.42	454.39
436.79	460.69
437.16	467.57
437.53	474.68
437.90	481.87
438.27	489.08
438.64	496.63
439.01	503.41
439.38	509.22
439.75	515.09
440.13	521.65
440.50	527.93
440.87	532.85
441.24	538.24
441.61	544.11
441.98	548.25
442.35	553.14
442.72	558.18
443.09	563.08
443.46	565.89
443.83	567.72
444.20	569.38
444.57	571.57
444.94	572.66
445.31	573.78
445.68	575.16
446.05	575.39
446.42	574.19
446.79	573.14
447.16	571.81
447.53	570.97
447.90	567.88
448.27	564.87
448.64	561.07
449.01	558.07
449.37	552.89
449.74	548.05
450.11	542.44
450.48	536.09
450.85	529.54
451.22	523.92
451.59	518.50
451.96	513.41
452.33	506.96
452.70	500.89
453.07	493.69
453.43	485.93
453.80	479.02
454.17	472.42
454.54	466.07
454.91	459.37
455.28	452.78
455.65	446.77
456.02	441.24
456.38	435.91
456.75	429.49
457.12	424.18
457.49	418.95
457.86	413.63
458.23	409.31
458.59	404.57
458.96	399.78
459.33	395.53
459.70	391.25
460.07	387.70
460.43	383.83
460.80	380.36
461.17	377.40
461.54	374.02
461.91	370.98
462.27	367.80
462.64	365.01
463.01	362.05
463.38	359.38
463.74	355.92
464.11	353.48
464.48	351.34
464.85	349.00
465.21	347.29
465.58	345.46
465.95	343.09
466.32	341.27
466.68	339.32
467.05	337.52
467.42	335.80
467.78	333.91
468.15	332.06
468.52	330.75
468.88	328.79
469.25	327.24
469.62	326.07
469.98	324.68
470.35	323.56
470.72	322.31
471.08	320.79
471.45	319.83
471.82	318.77
472.18	317.50
472.55	316.72
472.92	315.61
473.28	314.64
473.65	313.82
474.02	312.94
474.38	312.28
474.75	311.72
475.11	310.98
475.48	310.53
475.85	310.05
476.21	309.48
476.58	309.14
476.94	308.86
477.31	308.46
477.67	308.18
478.04	307.88
478.41	307.80
478.77	308.14
479.14	307.89
479.50	307.90
479.87	308.05
480.23	308.09
480.60	308.08
480.96	308.10
481.33	308.38
481.69	308.59
482.06	308.88
482.42	309.11
482.79	309.48
483.15	309.88
483.52	310.53
483.88	311.03
484.25	311.55
484.61	312.14
484.98	312.74
485.34	313.65
485.71	314.58
486.07	315.41
486.44	315.99
486.80	317.04
487.17	318.04
487.53	319.32
487.90	320.54
488.26	322.12
488.62	323.78
488.99	325.33
489.35	326.94
489.72	328.67
490.08	330.43
490.44	332.30
490.81	334.49
491.17	336.34
491.54	338.60
491.90	341.08
492.26	343.51
492.63	346.09
492.99	348.82
493.36	351.74
493.72	354.82
494.08	357.91
494.45	361.33
494.81	364.95
495.17	368.41
495.54	372.31
495.90	376.15
496.26	380.07
496.63	384.20
496.99	388.59
497.35	393.15
497.72	398.04
498.08	402.89
498.44	407.89
498.80	413.49
499.17	419.00
499.53	424.46
499.89	430.38
500.26	436.46
500.62	442.56
500.98	449.01
501.34	455.56
501.71	462.55
502.07	469.56
502.43	476.69
502.79	484.09
503.16	491.72
503.52	499.61
503.88	507.79
504.24	516.40
504.60	525.13
504.97	534.12
505.33	543.16
505.69	553.04
506.05	562.60
506.41	572.21
506.78	582.38
507.14	592.89
507.50	603.55
507.86	614.55
508.22	625.74
508.59	636.80
508.95	648.47
509.31	660.64
509.67	672.74
510.03	684.91
510.39	697.39
510.75	710.19
511.12	723.28
511.48	736.49
511.84	749.78
512.20	763.26
512.56	777.10
512.92	791.15
513.28	805.11
513.64	819.57
514.00	834.24
514.37	848.71
514.73	863.74
515.09	878.87
515.45	893.95
515.81	909.03
516.17	924.57
516.53	939.86
516.89	954.82
517.25	970.61
517.61	986.98
517.97	1003.43
518.33	1019.63
518.69	1035.84
519.05	1052.29
519.41	1068.64
519.77	1085.47
520.13	1101.80
520.49	1118.20
520.85	1136.13
521.21	1152.69
521.57	1169.60
521.93	1186.09
522.29	1202.73
522.65	1218.58
523.01	1234.98
523.37	1251.05
523.73	1267.27
524.09	1283.16
524.45	1299.19
524.81	1314.96
525.17	1330.71
525.53	1346.32
525.89	1362.05
526.25	1377.79
526.61	1392.96
526.97	1408.79
527.33	1424.50
527.68	1440.84
528.04	1456.59
528.40	1470.67
528.76	1486.39
529.12	1501.27
529.48	1516.50
529.84	1530.87
530.20	1546.32
530.56	1561.09
530.91	1576.23
531.27	1590.45
531.63	1605.50
531.99	1620.24
532.35	1634.66
532.71	1648.85
533.07	1663.51
533.42	1677.67
533.78	1691.54
534.14	1705.57
534.50	1718.76
534.86	1731.94
535.21	1743.55
535.57	1756.04
535.93	1768.05
536.29	1779.90
536.65	1792.16
537.00	1803.86
537.36	1815.55
537.72	1826.25
538.08	1837.54
538.44	1848.03
538.79	1859.27
539.15	1869.34
539.51	1879.60
539.87	1889.01
540.22	1897.90
540.58	1906.78
540.94	1914.64
541.29	1922.02
541.65	1929.22
542.01	1936.59
542.37	1942.38
542.72	1948.64
543.08	1954.26
543.44	1960.54
543.79	1965.19
544.15	1970.19
544.51	1975.55
544.87	1980.27
545.22	1984.87
545.58	1988.46
545.94	1991.83
546.29	1994.04
546.65	1996.88
547.01	1998.56
547.36	2000.41
547.72	2001.83
548.07	2001.91
548.43	2003.32
548.79	2004.34
549.14	2004.73
549.50	2005.01
549.86	2005.52
550.21	2006.06
550.57	2006.54
550.92	2005.08
551.28	2004.17
551.64	2003.24
551.99	2002.12
552.35	2000.98
552.70	1999.72
553.06	1998.50
553.41	1997.11
553.77	1996.03
554.13	1994.40
554.48	1993.09
554.84	1991.74
555.19	1990.22
555.55	1989.57
555.90	1986.71
556.26	1983.78
556.61	1980.71
556.97	1976.71
557.32	1973.86
557.68	1970.70
558.03	1967.56
558.39	1964.67
558.74	1962.00
559.10	1957.87
559.45	1953.09
559.81	1948.07
560.16	1942.56
560.52	1936.94
560.87	1931.90
561.23	1926.44
561.58	1920.64
561.94	1913.80
562.29	1906.70
562.64	1900.06
563.00	1892.11
563.35	1885.84
563.71	1879.34
564.06	1873.30
564.42	1867.18
564.77	1860.85
565.12	1853.90
565.48	1846.84
565.83	1840.00
566.19	1832.89
566.54	1825.90
566.89	1818.77
567.25	1811.65
567.60	1805.34
567.96	1798.93
568.31	1791.77
568.66	1784.14
569.02	1776.35
569.37	1769.39
569.72	1762.91
570.08	1755.18
570.43	1747.60
570.78	1740.21
571.14	1732.66
571.49	1724.19
571.84	1716.36
572.20	1707.51
572.55	1699.45
572.90	1690.62
573.26	1681.80
573.61	1672.59
573.96	1663.52
574.31	1654.20
574.67	1645.17
575.02	1635.13
575.37	1624.83
575.72	1614.80
576.08	1605.56
576.43	1595.91
576.78	1586.15
577.13	1575.65
577.49	1566.16
577.84	1557.08
578.19	1547.67
578.54	1537.89
578.90	1529.07
579.25	1519.69
579.60	1510.50
579.95	1500.67
580.30	1490.97
580.66	1481.34
581.01	1471.46
581.36	1461.32
581.71	1452.01
582.06	1442.69
582.42	1433.51
582.77	1424.65
583.12	1415.80
583.47	1406.78
583.82	1398.19
584.17	1389.27
584.53	1380.89
584.88	1371.42
585.23	1361.95
585.58	1351.82
585.93	1342.52
586.28	1332.81
586.63	1322.90
586.98	1312.85
587.34	1303.65
587.69	1294.09
588.04	1285.02
588.39	1276.68
588.74	1268.14
589.09	1259.61
589.44	1250.45
589.79	1242.07
590.14	1233.41
590.49	1224.64
590.84	1215.95
591.19	1207.21
591.54	1198.86
591.89	1190.22
592.25	1183.09
592.60	1175.00
592.95	1166.86
593.30	1158.55
593.65	1150.24
594.00	1142.13
594.35	1135.74
594.70	1127.28
595.05	1119.30
595.40	1110.85
595.75	1102.50
596.10	1094.59
596.45	1086.55
596.80	1079.07
597.15	1070.92
597.50	1062.92
597.85	1055.44
598.19	1047.46
598.54	1039.59
598.89	1031.53
599.24	1023.93
599.59	1015.68
599.94	1008.08
600.29	1001.02
600.64	994.22
600.99	987.08
601.34	980.43
601.69	972.16
602.04	965.60
602.39	958.97
602.74	952.81
603.08	946.37
603.43	940.10
603.78	933.33
604.13	926.72
604.48	920.14
604.83	913.36
605.18	906.55
605.53	900.02
605.87	893.78
606.22	888.02
606.57	881.88
606.92	875.61
607.27	869.74
607.62	863.81
607.96	857.94
608.31	852.54
608.66	846.83
609.01	841.05
609.36	835.20
609.70	829.27
610.05	823.40
610.40	817.79
610.75	811.80
611.10	806.37
611.44	800.50
611.79	795.00
612.14	789.96
612.49	784.73
612.83	779.75
613.18	774.49
613.53	769.15
613.88	763.73
614.22	758.38
614.57	752.85
614.92	747.51
615.27	742.27
615.61	736.89
615.96	731.55
616.31	726.52
616.65	721.86
617.00	717.12
617.35	712.32
617.70	707.35
618.04	702.70
618.39	698.04
618.74	693.76
619.08	689.17
619.43	684.34
619.78	679.38
620.12	674.55
620.47	669.84
620.82	665.20
621.16	660.70
621.51	656.60
621.85	652.34
622.20	647.85
622.55	643.33
622.89	638.97
623.24	634.82
623.59	630.69
623.93	626.21
624.28	622.18
624.62	618.41
624.97	614.55
625.32	610.52
625.66	606.46
626.01	602.31
626.35	598.54
626.70	594.70
627.04	591.31
627.39	587.55
627.73	584.10
628.08	580.54
628.43	576.85
628.77	573.00
629.12	569.40
629.46	566.19
629.81	563.20
630.15	560.03
630.50	556.68
630.84	553.31
631.19	550.10
631.53	546.91
631.88	543.25
632.22	539.74
632.57	536.61
632.91	533.41
633.26	530.47
633.60	527.36
633.95	524.28
634.29	521.01
634.64	518.06
634.98	514.72
635.32	511.71
635.67	509.07
636.01	506.39
636.36	503.60
636.70	500.84
637.05	497.79
637.39	494.84
637.73	492.05
638.08	489.37
638.42	486.63
638.77	483.66
639.11	480.74
639.45	477.88
639.80	474.98
640.14	472.18
640.49	469.33
640.83	466.59
641.17	464.10
641.52	461.48
641.86	459.00
642.20	456.87
642.55	454.38
642.89	451.70
643.23	449.19
643.58	446.96
643.92	444.38
644.26	441.97
644.61	439.82
644.95	437.54
645.29	435.20
645.64	433.03
645.98	430.90
646.32	428.86
646.66	426.88
647.01	424.81
647.35	422.98
647.69	421.01
648.04	419.06
648.38	417.04
648.72	415.14
649.06	413.03
649.41	410.90
649.75	408.80
650.09	406.77
650.43	404.88
650.78	402.82
651.12	400.91
651.46	398.96
651.80	396.99
652.14	395.11
652.49	393.34
652.83	391.44
653.17	389.69
653.51	387.79
653.85	386.10
654.20	384.35
654.54	382.45
654.88	380.60
655.22	379.16
655.56	377.49
655.90	375.87
656.25	374.30
656.59	372.73
656.93	371.36
657.27	370.18
657.61	368.53
657.95	366.97
658.29	365.49
658.64	364.16
658.98	362.63
659.32	361.08
659.66	359.45
660.00	358.08
660.34	356.59
660.68	355.27
661.02	353.77
661.36	352.38
661.70	351.01
662.05	349.80
662.39	348.39
662.73	347.27
663.07	346.13
663.41	344.96
663.75	343.58
664.09	342.25
664.43	340.77
664.77	339.54
665.11	338.36
665.45	337.15
665.79	335.94
666.13	334.75
666.47	333.57
666.81	332.47
667.15	331.16
667.49	330.10
667.83	329.28
668.17	328.22
668.51	327.20
668.85	326.33
669.19	325.53
669.53	324.36
669.87	323.22
670.21	322.12
670.55	321.13
670.89	320.54
671.23	319.57
671.57	318.61
671.91	317.65
672.25	316.68
672.58	315.92
672.92	314.92
673.26	314.11
673.60	313.33
673.94	312.61
674.28	311.94
674.62	311.23
674.96	310.15
675.30	309.40
675.64	308.56
675.97	307.68
676.31	306.64
676.65	305.78
676.99	305.21
677.33	304.36
677.67	303.59
678.01	302.41
678.34	301.64
678.68	300.97
679.02	300.23
679.36	299.51
679.70	298.64
680.04	298.01
680.37	297.36
680.71	296.66
681.05	295.93
681.39	295.17
681.73	294.36
682.06	293.76
682.40	293.05
682.74	292.52
683.08	292.05
683.42	291.40
683.75	290.96
684.09	290.20
684.43	289.71
684.77	289.08
685.10	288.59
685.44	288.06
685.78	287.44
686.12	286.97
686.45	286.40
686.79	285.80
687.13	285.28
687.46	284.72
687.80	284.27
688.14	283.62
688.48	283.14
688.81	282.70
689.15	282.23
689.49	281.76
689.82	281.20
690.16	280.50
690.50	280.01
690.83	279.43
691.17	278.80
691.51	278.23
691.84	277.76
692.18	277.27
692.52	276.76
692.85	276.41
693.19	276.02
693.52	275.56
693.86	275.04
694.20	274.63
694.53	274.15
694.87	273.72
695.21	273.34
695.54	272.88
695.88	272.31
696.21	271.69
696.55	271.15
696.88	270.64
697.22	270.22
697.56	269.85
697.89	269.33
698.23	269.00
698.56	268.54
698.90	268.16
699.23	267.73
699.57	267.35
699.90	266.80
700.24	266.24
700.58	265.92
700.91	265.72
701.25	265.66
701.58	265.63
701.92	265.30
702.25	264.89
702.59	264.47
702.92	264.19
703.26	263.96
703.59	263.73
703.93	263.80
704.26	263.55
704.60	263.25
704.93	262.92
705.26	262.57
705.60	262.36
705.93	261.95
706.27	261.75
706.60	261.54
706.94	261.50
707.27	261.26
707.61	260.93
707.94	260.59
708.27	259.90
708.61	259.23
708.94	258.90
709.28	258.64
709.61	258.29
709.94	258.03
710.28	257.75
710.61	257.45
710.95	256.77
711.28	256.75
711.61	256.44
711.95	256.30
712.28	255.95
712.61	255.60
712.95	255.58
713.28	255.58
713.61	255.22
713.95	254.75
714.28	254.49
714.61	254.21
714.95	253.90
715.28	253.64
715.61	253.39
715.95	253.12
716.28	252.83
716.61	252.62
716.95	252.34
717.28	252.11
717.61	251.85
717.94	251.62
718.28	251.00
718.61	250.73
718.94	250.41
719.27	250.25
719.61	250.11
719.94	249.78
720.27	249.29
720.60	249.06
720.94	248.84
721.27	248.63
721.60	248.50
721.93	248.29
722.27	248.25
722.60	248.18
722.93	247.93
723.26	247.84
723.59	247.65
723.93	247.47
724.26	247.34
724.59	247.15
724.92	247.03
725.25	246.98
725.59	246.80
725.92	246.75
726.25	246.55
726.58	246.42
726.91	246.21
727.24	246.11
727.57	246.04
727.91	245.90
728.24	245.80
728.57	245.55
728.90	245.52
729.23	245.22
729.56	245.26
729.89	245.18
730.22	244.97
730.55	244.83
730.89	244.76
731.22	244.54
731.55	244.40
731.88	244.23
732.21	243.94
732.54	243.77
732.87	243.59
733.20	243.44
733.53	243.31
733.86	243.22
734.19	243.00
734.52	242.81
734.85	242.91
735.18	242.68
735.51	242.70
735.84	242.56
736.17	242.50
736.50	241.98
736.83	242.35
737.16	242.18
737.49	242.17
737.82	241.92
738.15	241.81
738.48	241.71
738.81	241.51
739.14	241.37
739.47	241.20
739.80	240.98
740.13	240.88
740.46	240.64
740.79	240.37
741.12	240.24
741.45	240.05
741.78	239.75
742.11	239.75
742.44	239.50
742.77	239.43
743.10	239.22
743.43	239.15
743.75	238.50
744.08	239.04
744.41	238.70
744.74	238.62
745.07	238.48
745.40	238.40
745.73	238.49
746.06	238.41
746.39	238.41
746.71	238.28
747.04	238.13
747.37	237.98
747.70	237.97
748.03	237.88
748.36	237.75
748.68	237.61
749.01	237.38
749.34	237.29
749.67	237.18
750.00	237.19
750.33	237.48
750.65	237.47
750.98	236.74
751.31	236.72
751.64	236.61
751.97	236.75
752.29	236.63
752.62	236.38
752.95	236.32
753.28	236.18
753.60	236.12
753.93	236.18
754.26	236.22
754.59	235.98
754.91	235.90
755.24	235.87
755.57	235.78
755.90	235.70
756.22	235.58
756.55	235.40
756.88	235.31
757.20	234.92
757.53	234.69
757.86	234.61
758.19	234.67
758.51	234.62
758.84	234.30
759.17	234.20
759.49	234.17
759.82	234.32
760.15	234.28
760.47	234.26
760.80	234.03
761.13	234.06
761.45	234.02
761.78	233.92
762.11	233.86
762.43	233.76
762.76	233.70
763.08	233.70
763.41	233.70
763.74	233.63
764.06	233.52
764.39	233.53
764.71	233.45
765.04	233.26
765.37	233.19
765.69	233.15
766.02	233.08
766.34	233.01
766.67	232.72
767.00	232.73
767.32	232.89
767.65	233.14
767.97	232.91
768.30	232.91
768.62	232.81
768.95	232.74
769.27	232.65
769.60	232.66
769.92	232.55
770.25	232.44
770.57	232.25
770.90	232.23
771.22	232.08
771.55	232.10
771.87	232.03
772.20	231.95
772.52	232.28
772.85	232.74
773.17	232.62
773.50	232.59
773.82	232.44
774.15	232.16
774.47	231.77
774.80	231.68
775.12	231.60
775.45	231.68
775.77	231.58
776.09	231.64
776.42	231.59
776.74	231.62
777.07	231.57
777.39	231.60
777.72	231.52
778.04	231.57
778.36	231.46
778.69	231.48
779.01	231.51
779.33	231.05
779.66	230.48
779.98	230.45
780.31	230.36
780.63	230.55
780.95	230.52
781.28	230.59
781.60	230.50
781.92	230.47
782.25	230.37
782.57	230.37
782.89	230.32
783.22	230.30
783.54	230.18
783.86	230.12
784.19	230.05
784.51	230.19
784.83	230.04
785.16	230.00
785.48	229.91
785.80	229.79
786.12	229.78
786.45	229.80
786.77	229.79
787.09	229.67
787.42	229.49
787.74	229.50
788.06	229.43
788.38	229.48
788.71	229.42
789.03	229.41
789.35	229.39
789.67	229.20
789.99	229.16
790.32	229.11
790.64	229.07
790.96	229.43
791.28	229.19
791.61	229.21
791.93	229.23
792.25	229.20
792.57	229.59
792.89	229.42
793.21	229.48
793.54	229.44
793.86	229.48
794.18	229.48
794.50	229.39
794.82	229.33
795.14	229.31
795.47	229.38
795.79	229.29
796.11	229.20
796.43	229.17
796.75	229.13
797.07	229.13
797.39	229.12
797.71	228.70
798.04	228.71
798.36	228.70
798.68	228.71
799.00	228.75
799.32	228.34
799.64	228.44
799.96	228.31
800.28	228.43
800.60	228.30
800.92	228.29
801.24	228.27
801.56	228.38
801.89	228.33
802.21	228.32
802.53	228.22
802.85	228.32
803.17	228.54
803.49	228.36
803.81	228.32
804.13	228.34
804.45	228.30
804.77	228.35
805.09	228.32
805.41	228.21
805.73	228.08
806.05	228.10
806.37	228.05
806.69	228.02
807.01	227.94
807.33	228.09
807.65	227.91
807.97	228.09
808.28	227.92
808.60	227.82
808.92	227.68
809.24	227.99
809.56	227.85
809.88	227.66
810.20	227.67
810.52	227.71
810.84	227.56
811.16	227.59
811.48	227.49
811.80	227.63
812.12	227.57
812.43	227.65
812.75	227.62
813.07	227.55
813.39	227.60
813.71	227.44
814.03	227.35
814.35	227.40
814.67	227.20
814.98	227.18
815.30	227.24
815.62	227.22
815.94	226.90
816.26	227.10
816.58	227.00
816.89	227.10
817.21	227.01
817.53	227.00
817.85	226.95
818.17	226.94
818.48	226.73
818.80	226.84
819.12	226.79
819.44	226.79
819.76	226.79
820.07	226.74
820.39	226.88
820.71	226.87
821.03	226.81
821.34	226.73
821.66	226.83
821.98	226.90
822.30	226.91
822.61	227.18
822.93	227.01
823.25	227.12
823.57	227.08
823.88	227.14
824.20	227.20
824.52	227.27
824.83	227.37
825.15	227.31
825.47	227.27
825.79	227.26
826.10	227.22
826.42	227.24
826.74	227.22
827.05	227.15
827.37	227.18
827.69	227.19
828.00	227.30
828.32	227.31
828.64	227.28
828.95	227.53
829.27	227.47
829.58	227.46
829.90	227.51
830.22	227.52
830.53	227.44
830.85	227.41
831.17	227.28
831.48	227.20
831.80	227.23
832.11	227.22
832.43	227.19
832.75	227.15
833.06	227.41
833.38	227.35
833.69	227.35
834.01	227.39
834.32	227.36
834.64	227.29
834.96	227.24
835.27	227.18
835.59	226.99
835.90	226.85
836.22	226.87
836.53	226.73
836.85	226.72
837.16	227.23
837.48	227.18
837.79	227.31
838.11	227.28
838.42	227.29
838.74	227.34
839.05	227.28
839.37	227.30
839.68	227.02
840.00	226.99
840.31	227.03
840.63	226.90
840.94	226.89
841.26	226.81
841.57	226.81
841.88	226.88
842.20	226.82
842.51	226.76
842.83	226.72
843.14	227.09
843.46	227.13
843.77	226.84
844.08	226.83
844.40	226.68
844.71	226.70
845.03	226.60
845.34	226.60
845.65	226.60
845.97	226.52
846.28	226.53
846.60	226.54
846.91	226.48
847.22	226.52
847.54	226.58
847.85	226.61
848.16	226.50
848.48	226.35
848.79	226.46
849.10	226.51
849.42	226.57
849.73	226.22
850.04	226.13
850.36	225.95
850.67	226.01
850.98	226.06
851.30	226.04
851.61	226.13
851.92	226.03
852.23	226.18
852.55	226.35
852.86	226.35
853.17	226.41
853.49	226.55
853.80	226.62
854.11	226.64
854.42	226.72
854.74	226.73
855.05	226.84
855.36	226.64
855.67	226.63
855.99	226.59
856.30	227.12
856.61	227.09
856.92	227.13
857.23	227.20
857.55	227.08
857.86	227.06
858.17	227.15
858.48	227.06
858.79	226.95
859.11	226.89
859.42	226.85
859.73	226.79
860.04	226.67
860.35	226.59
860.66	226.50
860.98	226.51
861.29	226.61
861.60	226.53
861.91	226.67
862.22	226.58
862.53	226.59
862.84	226.06
863.16	226.25
863.47	226.23
863.78	226.20
864.09	226.28
864.40	226.36
864.71	226.36
865.02	226.46
865.33	226.41
865.64	226.43
865.95	226.50
866.27	226.79
866.58	226.74
866.89	226.77
867.20	226.74
867.51	226.71
867.82	226.64
868.13	226.87
868.44	226.74
868.75	226.96
869.06	226.98
869.37	227.04
869.68	226.90
869.99	226.90
870.30	226.87
870.61	226.97
870.92	226.92
871.23	226.91
871.54	226.92
871.85	227.05
872.16	227.01
872.47	226.96
872.78	226.65
873.09	226.77
873.40	226.74
873.71	226.83
874.02	226.75
874.33	226.72
874.64	226.56
874.95	226.66
875.26	226.52
875.56	226.53
875.87	226.43
876.18	226.40
876.49	226.92
876.80	226.89
877.11	226.78
877.42	226.72
877.73	226.61
878.04	226.57
878.35	226.57
878.66	226.56
878.96	226.55
879.27	226.52
879.58	226.42
879.89	226.40
880.20	226.42
880.51	226.42
880.82	226.48
881.12	226.50
881.43	226.39
881.74	226.28
882.05	226.18
882.36	226.25
882.67	226.27
882.97	225.72
883.28	225.71
883.59	225.66
883.90	225.74
884.21	225.88
884.51	225.88
884.82	225.81
885.13	225.82
885.44	225.87
885.74	225.93
886.05	225.90
886.36	225.92
886.67	225.74
886.98	226.05
887.28	226.05
887.59	226.03
887.90	226.02
888.20	226.05
888.51	226.17
888.82	226.13
889.13	226.18
889.43	226.57
889.74	226.49
890.05	226.49
890.35	226.41
890.66	226.31
890.97	226.27
891.28	226.14
891.58	226.10
891.89	226.08
892.20	225.98
892.50	226.00
892.81	225.99
893.12	226.07
893.42	225.78
893.73	225.78
894.04	225.79
894.34	225.92
894.65	225.89
894.95	225.75
895.26	225.75
895.57	225.89
895.87	225.43
896.18	225.59
896.48	225.63
896.79	225.59
897.10	225.61
897.40	225.59
897.71	225.74
898.01	225.72
898.32	225.78
898.63	225.78
898.93	225.85
899.24	225.81
899.54	225.82
899.85	225.80
900.15	225.80
900.46	225.75
900.76	225.72
901.07	225.79
901.38	225.84
901.68	225.86
901.99	225.64
902.29	225.67
902.60	225.60
902.90	225.57
903.21	225.57
903.51	225.61
903.82	225.72
904.12	225.70
904.43	225.70
904.73	225.66
905.03	225.75
905.34	226.17
905.64	226.17
905.95	226.18
906.25	226.20
906.56	226.16
906.86	226.23
907.17	226.15
907.47	226.15
907.77	226.08
908.08	226.02
908.38	226.09
908.69	226.11
908.99	226.21
909.30	226.28
909.60	226.29
909.90	226.28
910.21	226.20
910.51	226.10
910.81	226.10
911.12	226.05
911.42	226.02
911.73	225.47
912.03	225.48
912.33	225.51
912.64	225.45
912.94	225.43
913.24	225.35
913.55	225.37
913.85	225.33
914.15	225.49
914.46	225.58
914.76	225.51
915.06	225.54
915.37	225.45
915.67	225.43
915.97	225.47
916.27	225.39
916.58	225.41
916.88	225.45
917.18	225.49
917.49	225.87
917.79	225.81
918.09	225.94
918.39	226.07
918.70	226.06
919.00	226.14
919.30	226.43
919.60	226.32
919.91	226.28
920.21	226.26
920.51	226.14
920.81	226.04
921.12	226.06
921.42	226.01
921.72	226.01
922.02	226.03
922.32	226.05
922.63	226.14
922.93	226.34
923.23	226.31
923.53	226.26
923.83	225.88
924.13	225.95
924.44	225.99
924.74	226.05
925.04	226.15
925.34	226.07
925.64	225.76
925.94	225.81
926.24	226.10
926.55	226.11
926.85	226.16
927.15	226.17
927.45	226.21
927.75	226.23
928.05	226.20
928.35	226.22
928.65	226.37
928.95	226.32
929.26	226.14
929.56	226.24
929.86	226.31
930.16	226.33
930.46	226.32
930.76	226.25
931.06	226.03
931.36	225.85
931.66	225.98
931.96	226.09
932.26	226.20
932.56	225.98
932.86	226.09
933.16	226.08
933.46	226.03
933.76	226.00
934.06	226.10
934.36	226.26
934.66	226.22
934.96	226.09
935.26	226.04
935.56	226.09
935.86	225.98
936.16	225.90
936.46	225.91
936.76	225.91
937.06	225.79
937.36	225.85
937.66	225.95
937.96	225.97
938.26	225.86
938.56	225.81
938.86	225.80
939.16	225.79
939.46	225.84
939.76	225.91
940.06	225.87
940.35	225.74
940.65	225.48
940.95	225.46
941.25	225.33
941.55	225.38
941.85	225.30
942.15	225.36
942.45	225.51
942.75	225.43
943.04	225.38
943.34	225.54
943.64	225.53
943.94	225.49
944.24	225.41
944.54	225.44
944.84	225.41
945.13	225.35
945.43	225.30
945.73	225.32
946.03	225.20
946.33	225.16
946.62	225.17
946.92	225.16
947.22	225.27
947.52	225.29
947.82	225.31
948.11	225.31
948.41	225.27
948.71	225.14
949.01	225.20
949.31	225.20
949.60	225.19
949.90	225.20
950.20	225.10
950.50	225.18
950.79	225.10
951.09	225.16
951.39	225.16
951.69	225.07
951.98	225.10
952.28	225.14
952.58	225.16
952.87	225.17
953.17	225.32
953.47	225.20
953.76	225.22
954.06	225.16
954.36	225.12
954.66	225.09
954.95	225.21
955.25	225.21
955.55	225.22
955.84	225.14
956.14	225.16
956.44	225.16
956.73	224.99
957.03	225.06
957.32	225.02
957.62	225.02
957.92	225.10
958.21	225.06
958.51	225.65
958.81	225.71
959.10	225.74
959.40	225.83
959.69	225.86
959.99	225.97
960.29	226.00
960.58	225.97
960.88	226.20
961.17	226.15
961.47	226.27
961.76	226.24
962.06	226.33
962.36	226.26
962.65	226.34
962.95	226.41
963.24	226.45
963.54	226.51
963.83	226.52
964.13	226.52
964.42	226.44
964.72	226.03
965.01	226.02
965.31	226.04
965.60	225.88
965.90	226.21
966.19	226.04
966.49	226.04
966.78	226.04
967.08	225.94
967.37	225.95
967.67	225.78
967.96	225.91
968.26	225.85
968.55	225.93
968.85	225.93
969.14	225.99
969.43	225.94
969.73	225.92
970.02	225.96
970.32	226.04
970.61	226.04
970.91	225.89
971.20	225.76
971.49	225.71
971.79	225.79
972.08	225.45
972.38	225.59
972.67	225.55
972.96	225.64
973.26	225.58
973.55	225.70
973.85	225.68
974.14	225.63
974.43	225.70
974.73	225.62
975.02	225.64
975.31	225.51
975.61	225.50
975.90	225.48
976.19	225.45
976.49	225.47
976.78	225.56
977.07	225.62
977.37	225.76
977.66	225.82
977.95	225.70
978.24	225.71
978.54	225.79
978.83	225.75
979.12	225.67
979.42	225.71
979.71	225.66
980.00	225.76
980.29	225.75
980.59	225.71
980.88	225.86
981.17	225.84
981.46	225.87
981.76	225.89
982.05	226.07
982.34	226.10
982.63	226.03
982.93	225.95
983.22	226.10
983.51	226.10
983.80	226.18
984.09	226.37
984.39	226.37
984.68	226.27
984.97	226.35
985.26	226.43
985.55	226.41
985.85	226.30
986.14	226.39
986.43	226.46
986.72	226.43
987.01	226.28
987.30	226.21
987.59	226.25
987.89	226.27
988.18	226.10
988.47	226.05
988.76	225.96
989.05	226.00
989.34	225.86
989.63	225.98
989.92	225.88
990.22	225.75
990.51	225.74
990.80	225.68
991.09	225.70
991.38	225.67
991.67	225.65
991.96	225.64
992.25	225.62
992.54	225.54
992.83	225.53
993.12	225.55
993.41	225.68
993.70	225.89
993.99	225.97
994.28	226.05
994.58	226.10
994.87	226.17
995.16	226.11
995.45	226.10
995.74	225.94
996.03	226.03
996.32	226.08
996.61	226.21
996.90	226.25
997.19	226.20
997.48	226.26
997.77	226.20
998.06	226.19
998.34	226.07
998.63	226.08
998.92	226.07
999.21	226.12
999.50	226.14
999.79	225.87
1000.08	225.84
1000.37	225.83
1000.66	225.77
1000.95	225.82
1001.24	225.89
1001.53	225.93
1001.82	225.92
1002.11	225.77
1002.40	225.81
1002.68	225.86
1002.97	226.18
1003.26	226.19
1003.55	226.12
1003.84	226.20
1004.13	226.37
1004.42	226.39
1004.71	226.35
1004.99	226.38
1005.28	226.50
1005.57	226.49
1005.86	226.47
1006.15	226.40
1006.44	226.28
1006.72	226.34
1007.01	226.28
1007.30	226.24
1007.59	226.19
1007.88	226.18
1008.17	226.18
1008.45	226.06
1008.74	225.89
1009.03	225.67
1009.32	225.66
1009.60	225.65
1009.89	225.54
1010.18	225.30
1010.47	225.24
1010.76	225.24
1011.04	225.19
1011.33	225.17
1011.62	225.07
1011.91	225.19
1012.19	225.21
1012.48	225.18
1012.77	225.23
1013.05	225.44
1013.34	225.41
1013.63	225.45
1013.92	225.41
1014.20	225.35
1014.49	225.46
1014.78	225.49
1015.06	225.30
1015.35	225.25
1015.64	225.30
1015.92	225.39
1016.21	225.44
1016.50	225.48
1016.78	225.57
1017.07	225.57
1017.36	225.45
1017.64	225.43
1017.93	225.48
1018.22	225.45
1018.50	225.48
1018.79	225.39
1019.08	225.14
1019.36	225.16
1019.65	225.00
1019.93	225.19
1020.22	225.34
1020.51	225.49
1020.79	225.46
1021.08	225.00
1021.36	224.30
1021.65	224.85
1021.94	225.05
1022.22	225.45
1022.51	223.50
1022.79	227.50
1023.08	226.55
1023.36	230.50
1023.65	224.65
>>>>>End Processed Spectral Data<<<<<
