SpectraSuite Data File
++++++++++++++++++++++++++++++++++++
Date: Wed Sep 04 17:50:46 EDT 2013
User: lab3
Dark Spectrum Present: Yes
Reference Spectrum Present: No
Number of Sampled Component Spectra: 1
Spectrometers: USB2E7196
Integration Time (usec): 170000 (USB2E7196)
Spectra Averaged: 20 (USB2E7196)
Boxcar Smoothing: 10 (USB2E7196)
Correct for Electrical Dark: No (USB2E7196)
Strobe/Lamp Enabled: No (USB2E7196)
Correct for Detector Non-linearity: No (USB2E7196)
Correct for Stray Light: No (USB2E7196)
Number of Pixels in Processed Spectrum: 2048
>>>>>Begin Processed Spectral Data<<<<<
339.09	0.00
339.48	213.60
339.86	213.55
340.24	216.75
340.63	217.35
341.01	226.85
341.39	219.50
341.78	223.30
342.16	223.85
342.54	222.75
342.93	212.25
343.31	222.92
343.69	223.50
344.07	223.92
344.46	224.41
344.84	224.79
345.22	224.72
345.60	225.05
345.99	225.16
346.37	225.19
346.75	225.32
347.13	225.42
347.52	225.54
347.90	225.82
348.28	225.81
348.66	225.97
349.05	225.94
349.43	226.05
349.81	226.09
350.19	226.10
350.57	226.06
350.96	226.23
351.34	226.39
351.72	226.43
352.10	226.57
352.48	226.47
352.87	226.50
353.25	226.61
353.63	226.60
354.01	226.64
354.39	226.82
354.77	226.88
355.15	227.01
355.54	227.01
355.92	226.91
356.30	227.01
356.68	227.36
357.06	227.34
357.44	227.32
357.82	227.32
358.20	227.83
358.58	227.93
358.97	228.03
359.35	228.15
359.73	228.25
360.11	228.39
360.49	228.52
360.87	228.63
361.25	228.66
361.63	228.86
362.01	228.90
362.39	228.90
362.77	228.95
363.15	228.95
363.53	228.95
363.91	229.03
364.29	229.01
364.67	228.60
365.05	228.67
365.43	228.74
365.81	228.87
366.19	228.73
366.57	228.93
366.95	228.89
367.33	228.78
367.71	228.78
368.09	228.81
368.47	228.85
368.85	228.82
369.23	228.86
369.61	228.70
369.99	228.90
370.37	228.95
370.75	229.18
371.13	229.15
371.51	229.06
371.89	229.07
372.27	229.13
372.65	229.14
373.03	229.07
373.41	228.99
373.78	228.95
374.16	228.62
374.54	228.35
374.92	228.26
375.30	228.19
375.68	228.08
376.06	228.04
376.44	227.88
376.82	227.86
377.19	227.83
377.57	227.73
377.95	227.52
378.33	227.37
378.71	226.98
379.09	226.96
379.47	227.01
379.84	226.83
380.22	226.69
380.60	226.49
380.98	226.43
381.36	226.34
381.73	226.19
382.11	226.19
382.49	226.20
382.87	226.10
383.25	226.06
383.62	226.52
384.00	226.33
384.38	226.25
384.76	226.27
385.13	226.42
385.51	226.40
385.89	226.28
386.27	226.28
386.64	226.37
387.02	226.25
387.40	226.17
387.78	226.22
388.15	226.18
388.53	226.23
388.91	226.13
389.29	226.04
389.66	226.08
390.04	226.06
390.42	226.21
390.79	226.20
391.17	226.18
391.55	225.65
391.92	225.68
392.30	225.84
392.68	225.71
393.05	225.61
393.43	225.69
393.81	225.67
394.18	225.58
394.56	225.59
394.94	225.71
395.31	225.68
395.69	225.86
396.06	226.00
396.44	226.02
396.82	226.09
397.19	226.46
397.57	226.44
397.95	226.55
398.32	226.41
398.70	226.51
399.07	226.69
399.45	226.80
399.82	226.92
400.20	226.95
400.58	227.04
400.95	226.95
401.33	227.05
401.70	227.52
402.08	227.69
402.45	227.81
402.83	228.08
403.20	228.30
403.58	228.31
403.95	228.54
404.33	228.79
404.71	229.00
405.08	229.41
405.46	229.67
405.83	229.96
406.21	230.24
406.58	230.63
406.96	230.86
407.33	231.18
407.70	231.56
408.08	232.27
408.45	232.73
408.83	233.25
409.20	233.66
409.58	233.85
409.95	234.42
410.33	234.97
410.70	235.28
411.08	235.91
411.45	236.49
411.82	237.04
412.20	237.82
412.57	238.88
412.95	239.20
413.32	240.11
413.69	240.95
414.07	241.84
414.44	242.75
414.82	243.90
415.19	245.10
415.56	246.21
415.94	247.24
416.31	248.70
416.68	250.12
417.06	251.79
417.43	253.46
417.81	255.25
418.18	257.09
418.55	259.05
418.93	261.03
419.30	263.20
419.67	265.34
420.04	267.56
420.42	269.85
420.79	272.94
421.16	275.69
421.54	278.76
421.91	281.71
422.28	284.81
422.66	287.93
423.03	291.40
423.40	294.80
423.77	298.35
424.15	301.88
424.52	305.71
424.89	309.89
425.26	313.80
425.64	317.57
426.01	321.65
426.38	326.06
426.75	330.62
427.13	335.11
427.50	339.89
427.87	344.77
428.24	349.55
428.61	354.05
428.99	359.36
429.36	364.61
429.73	370.10
430.10	375.60
430.47	381.33
430.85	386.82
431.22	392.94
431.59	399.70
431.96	405.87
432.33	412.67
432.70	419.25
433.08	427.11
433.45	434.44
433.82	441.72
434.19	449.85
434.56	457.75
434.93	465.44
435.30	473.16
435.68	481.66
436.05	490.05
436.42	498.29
436.79	505.85
437.16	514.33
437.53	523.08
437.90	531.78
438.27	540.26
438.64	549.06
439.01	557.26
439.38	564.39
439.75	571.69
440.13	579.72
440.50	587.12
440.87	593.03
441.24	599.39
441.61	606.47
441.98	611.48
442.35	617.15
442.72	623.20
443.09	628.94
443.46	632.38
443.83	634.72
444.20	636.67
444.57	639.32
444.94	640.40
445.31	641.53
445.68	642.73
446.05	642.89
446.42	641.70
446.79	640.31
447.16	638.62
447.53	637.10
447.90	633.32
448.27	629.75
448.64	625.06
449.01	621.38
449.37	615.17
449.74	609.22
450.11	602.63
450.48	594.90
450.85	586.91
451.22	580.17
451.59	573.65
451.96	567.38
452.33	559.44
452.70	551.92
453.07	543.34
453.43	534.40
453.80	526.09
454.17	518.15
454.54	510.52
454.91	502.41
455.28	494.55
455.65	487.22
456.02	480.39
456.38	473.96
456.75	466.31
457.12	459.91
457.49	453.67
457.86	447.33
458.23	442.15
458.59	436.61
458.96	430.78
459.33	425.73
459.70	420.68
460.07	416.54
460.43	411.93
460.80	407.63
461.17	403.84
461.54	399.93
461.91	396.18
462.27	392.24
462.64	389.08
463.01	385.55
463.38	382.28
463.74	378.21
464.11	375.22
464.48	372.48
464.85	369.56
465.21	367.40
465.58	365.05
465.95	362.21
466.32	359.95
466.68	357.72
467.05	355.39
467.42	353.18
467.78	350.87
468.15	348.83
468.52	347.23
468.88	345.06
469.25	343.10
469.62	341.55
469.98	340.02
470.35	338.41
470.72	336.97
471.08	335.23
471.45	333.96
471.82	332.76
472.18	331.38
472.55	330.39
472.92	329.00
473.28	327.90
473.65	326.79
474.02	325.72
474.38	324.85
474.75	324.13
475.11	323.25
475.48	322.69
475.85	322.02
476.21	321.40
476.58	320.94
476.94	320.59
477.31	320.10
477.67	319.74
478.04	319.40
478.41	319.23
478.77	319.49
479.14	319.28
479.50	319.17
479.87	319.24
480.23	319.23
480.60	319.19
480.96	319.23
481.33	319.59
481.69	319.84
482.06	319.98
482.42	320.15
482.79	320.57
483.15	321.00
483.52	321.63
483.88	322.14
484.25	322.58
484.61	323.15
484.98	323.76
485.34	324.71
485.71	325.78
486.07	326.79
486.44	327.46
486.80	328.64
487.17	329.80
487.53	331.19
487.90	332.53
488.26	334.30
488.62	335.91
488.99	337.53
489.35	339.32
489.72	341.22
490.08	343.24
490.44	345.20
490.81	347.31
491.17	349.43
491.54	351.97
491.90	354.62
492.26	357.30
492.63	360.14
492.99	362.85
493.36	365.81
493.72	369.07
494.08	372.52
494.45	376.13
494.81	379.98
495.17	383.77
495.54	387.94
495.90	392.06
496.26	396.59
496.63	401.23
496.99	406.02
497.35	411.16
497.72	416.52
498.08	422.06
498.44	427.80
498.80	433.92
499.17	439.79
499.53	445.97
499.89	452.58
500.26	459.35
500.62	466.45
500.98	473.89
501.34	481.27
501.71	488.89
502.07	496.72
502.43	504.81
502.79	513.31
503.16	522.02
503.52	531.00
503.88	540.12
504.24	549.65
504.60	559.60
504.97	569.81
505.33	580.15
505.69	591.21
506.05	602.30
506.41	613.45
506.78	625.21
507.14	637.25
507.50	649.54
507.86	662.12
508.22	675.20
508.59	688.19
508.95	701.84
509.31	716.03
509.67	730.41
510.03	744.50
510.39	759.14
510.75	774.10
511.12	789.23
511.48	804.87
511.84	820.60
512.20	836.40
512.56	852.51
512.92	869.18
513.28	885.69
513.64	902.69
514.00	920.31
514.37	938.04
514.73	956.16
515.09	974.30
515.45	992.66
515.81	1010.73
516.17	1029.44
516.53	1047.96
516.89	1066.55
517.25	1085.73
517.61	1105.96
517.97	1126.11
518.33	1146.16
518.69	1166.76
519.05	1187.16
519.41	1207.87
519.77	1228.91
520.13	1249.63
520.49	1270.21
520.85	1292.67
521.21	1313.78
521.57	1334.58
521.93	1354.98
522.29	1376.03
522.65	1396.26
523.01	1417.20
523.37	1437.87
523.73	1458.66
524.09	1479.26
524.45	1499.69
524.81	1520.47
525.17	1540.92
525.53	1561.16
525.89	1581.82
526.25	1602.30
526.61	1622.41
526.97	1643.18
527.33	1664.23
527.68	1685.81
528.04	1707.14
528.40	1726.61
528.76	1747.53
529.12	1768.10
529.48	1788.83
529.84	1808.55
530.20	1830.07
530.56	1850.34
530.91	1871.19
531.27	1891.32
531.63	1911.87
531.99	1932.36
532.35	1952.10
532.71	1972.45
533.07	1993.00
533.42	2012.52
533.78	2032.21
534.14	2052.04
534.50	2070.88
534.86	2089.99
535.21	2107.31
535.57	2125.30
535.93	2142.66
536.29	2159.93
536.65	2177.74
537.00	2195.48
537.36	2212.78
537.72	2228.90
538.08	2245.89
538.44	2262.40
538.79	2278.92
539.15	2294.96
539.51	2310.93
539.87	2326.05
540.22	2339.60
540.58	2353.83
540.94	2367.25
541.29	2379.22
541.65	2391.62
542.01	2404.11
542.37	2414.15
542.72	2424.95
543.08	2435.43
543.44	2447.13
543.79	2457.11
544.15	2467.03
544.51	2476.56
544.87	2486.00
545.22	2494.29
545.58	2501.83
545.94	2508.55
546.29	2514.43
546.65	2520.56
547.01	2525.97
547.36	2531.28
547.72	2536.68
548.07	2540.04
548.43	2544.92
548.79	2549.80
549.14	2553.75
549.50	2557.10
549.86	2561.12
550.21	2565.13
550.57	2568.41
550.92	2569.50
551.28	2570.70
551.64	2572.70
551.99	2574.65
552.35	2576.32
552.70	2578.41
553.06	2580.34
553.41	2581.37
553.77	2583.29
554.13	2584.79
554.48	2586.02
554.84	2587.28
555.19	2588.26
555.55	2590.35
555.90	2589.78
556.26	2588.82
556.61	2587.32
556.97	2585.09
557.32	2584.33
557.68	2583.10
558.03	2581.43
558.39	2579.86
558.74	2578.96
559.10	2575.62
559.45	2571.71
559.81	2567.24
560.16	2562.25
560.52	2557.19
560.87	2553.21
561.23	2548.07
561.58	2542.16
561.94	2535.20
562.29	2527.41
562.64	2520.65
563.00	2511.95
563.35	2505.20
563.71	2498.74
564.06	2492.13
564.42	2485.85
564.77	2478.88
565.12	2471.08
565.48	2463.38
565.83	2455.36
566.19	2447.24
566.54	2439.42
566.89	2431.25
567.25	2423.45
567.60	2416.28
567.96	2408.63
568.31	2400.56
568.66	2391.76
569.02	2382.38
569.37	2374.34
569.72	2367.18
570.08	2357.60
570.43	2348.46
570.78	2339.35
571.14	2329.81
571.49	2319.74
571.84	2310.05
572.20	2299.22
572.55	2289.19
572.90	2278.58
573.26	2268.54
573.61	2257.51
573.96	2246.16
574.31	2234.67
574.67	2223.02
575.02	2210.12
575.37	2197.54
575.72	2184.20
576.08	2172.25
576.43	2160.20
576.78	2147.28
577.13	2133.57
577.49	2121.24
577.84	2109.47
578.19	2097.56
578.54	2085.04
578.90	2073.36
579.25	2061.13
579.60	2048.72
579.95	2036.00
580.30	2022.82
580.66	2009.64
581.01	1996.35
581.36	1982.54
581.71	1969.84
582.06	1957.02
582.42	1944.88
582.77	1932.54
583.12	1920.81
583.47	1908.53
583.82	1896.55
584.17	1884.64
584.53	1873.05
584.88	1860.06
585.23	1847.15
585.58	1833.06
585.93	1820.21
586.28	1807.01
586.63	1793.07
586.98	1778.73
587.34	1765.50
587.69	1752.45
588.04	1739.83
588.39	1728.14
588.74	1716.26
589.09	1704.08
589.44	1691.51
589.79	1679.32
590.14	1667.34
590.49	1655.18
590.84	1643.08
591.19	1631.20
591.54	1619.08
591.89	1606.97
592.25	1596.82
592.60	1585.21
592.95	1573.91
593.30	1561.89
593.65	1549.69
594.00	1537.81
594.35	1528.35
594.70	1516.56
595.05	1505.27
595.40	1493.35
595.75	1481.18
596.10	1470.08
596.45	1458.61
596.80	1447.84
597.15	1436.54
597.50	1424.86
597.85	1413.57
598.19	1402.13
598.54	1390.40
598.89	1379.07
599.24	1368.40
599.59	1356.79
599.94	1346.12
600.29	1335.85
600.64	1325.66
600.99	1315.26
601.34	1306.04
601.69	1294.81
602.04	1285.15
602.39	1275.48
602.74	1266.40
603.08	1257.07
603.43	1247.81
603.78	1238.45
604.13	1229.00
604.48	1219.34
604.83	1209.54
605.18	1199.86
605.53	1190.43
605.87	1181.57
606.22	1173.27
606.57	1164.24
606.92	1155.17
607.27	1146.30
607.62	1137.73
607.96	1129.35
608.31	1121.54
608.66	1113.20
609.01	1104.92
609.36	1096.32
609.70	1087.87
610.05	1079.28
610.40	1071.04
610.75	1062.52
611.10	1054.40
611.44	1045.78
611.79	1037.86
612.14	1030.18
612.49	1022.53
612.83	1015.03
613.18	1007.42
613.53	999.66
613.88	991.74
614.22	984.10
614.57	976.19
614.92	968.18
615.27	960.75
615.61	953.19
615.96	945.66
616.31	938.21
616.65	931.45
617.00	924.39
617.35	917.31
617.70	910.11
618.04	902.96
618.39	896.04
618.74	889.90
619.08	883.12
619.43	876.32
619.78	869.25
620.12	862.39
620.47	855.47
620.82	848.42
621.16	841.82
621.51	835.48
621.85	829.38
622.20	823.06
622.55	816.39
622.89	809.92
623.24	803.54
623.59	797.32
623.93	790.93
624.28	784.78
624.62	779.25
624.97	773.69
625.32	768.17
625.66	762.27
626.01	756.16
626.35	750.59
626.70	745.10
627.04	739.99
627.39	734.56
627.73	729.32
628.08	724.18
628.43	718.74
628.77	713.35
629.12	708.19
629.46	703.38
629.81	698.77
630.15	694.03
630.50	689.32
630.84	684.44
631.19	679.75
631.53	675.24
631.88	669.99
632.22	665.20
632.57	660.62
632.91	656.15
633.26	651.76
633.60	647.14
633.95	642.54
634.29	637.81
634.64	633.18
634.98	628.48
635.32	624.05
635.67	620.23
636.01	616.14
636.36	611.66
636.70	607.53
637.05	603.33
637.39	599.22
637.73	594.99
638.08	591.23
638.42	587.02
638.77	582.81
639.11	578.54
639.45	574.15
639.80	569.73
640.14	565.62
640.49	561.59
640.83	557.81
641.17	554.14
641.52	550.47
641.86	546.99
642.20	543.83
642.55	540.30
642.89	536.61
643.23	533.00
643.58	529.92
643.92	526.26
644.26	522.85
644.61	519.73
644.95	516.48
645.29	513.06
645.64	509.91
645.98	506.77
646.32	503.84
646.66	500.87
647.01	498.08
647.35	495.34
647.69	492.53
648.04	489.85
648.38	487.16
648.72	484.24
649.06	481.22
649.41	478.17
649.75	475.22
650.09	472.32
650.43	469.49
650.78	466.47
651.12	463.83
651.46	460.99
651.80	458.16
652.14	455.49
652.49	453.08
652.83	450.59
653.17	448.09
653.51	445.42
653.85	443.10
654.20	440.64
654.54	438.03
654.88	435.46
655.22	433.07
655.56	430.58
655.90	428.42
656.25	426.24
656.59	424.00
656.93	421.91
657.27	419.93
657.61	417.67
657.95	415.61
658.29	413.39
658.64	411.35
658.98	409.11
659.32	406.96
659.66	404.80
660.00	402.69
660.34	400.67
660.68	398.86
661.02	396.68
661.36	394.70
661.70	392.74
662.05	390.88
662.39	389.05
662.73	387.33
663.07	385.76
663.41	383.88
663.75	382.09
664.09	380.30
664.43	378.37
664.77	376.86
665.11	375.12
665.45	373.61
665.79	372.09
666.13	370.48
666.47	368.83
666.81	367.15
667.15	365.51
667.49	363.96
667.83	362.55
668.17	361.21
668.51	359.86
668.85	358.50
669.19	357.34
669.53	355.86
669.87	354.31
670.21	352.72
670.55	351.42
670.89	350.41
671.23	349.09
671.57	347.72
671.91	346.34
672.25	345.05
672.58	343.80
672.92	342.29
673.26	341.05
673.60	339.91
673.94	338.76
674.28	337.66
674.62	336.50
674.96	335.11
675.30	333.89
675.64	332.70
675.97	331.46
676.31	329.96
676.65	328.74
676.99	327.79
677.33	326.58
677.67	325.55
678.01	324.05
678.34	322.91
678.68	321.87
679.02	320.75
679.36	319.78
679.70	318.66
680.04	317.80
680.37	316.85
680.71	315.77
681.05	314.83
681.39	313.91
681.73	312.95
682.06	312.06
682.40	311.22
682.74	310.31
683.08	309.74
683.42	308.89
683.75	308.09
684.09	307.15
684.43	306.39
684.77	305.48
685.10	304.70
685.44	303.91
685.78	303.16
686.12	302.41
686.45	301.58
686.79	300.79
687.13	300.06
687.46	299.30
687.80	298.75
688.14	297.92
688.48	297.18
688.81	296.43
689.15	295.85
689.49	295.11
689.82	294.39
690.16	293.37
690.50	292.67
690.83	291.92
691.17	291.12
691.51	290.36
691.84	289.78
692.18	289.10
692.52	288.39
692.85	287.78
693.19	287.29
693.52	286.70
693.86	286.08
694.20	285.39
694.53	284.87
694.87	284.17
695.21	283.48
695.54	282.83
695.88	282.19
696.21	281.43
696.55	280.77
696.88	280.16
697.22	279.58
697.56	279.09
697.89	278.46
698.23	278.04
698.56	277.52
698.90	277.05
699.23	276.59
699.57	276.12
699.90	275.52
700.24	274.95
700.58	274.46
700.91	274.07
701.25	274.00
701.58	273.79
701.92	273.44
702.25	273.07
702.59	272.57
702.92	272.23
703.26	271.88
703.59	271.54
703.93	271.58
704.26	271.31
704.60	270.95
704.93	270.56
705.26	270.03
705.60	269.74
705.93	269.20
706.27	268.98
706.60	268.70
706.94	268.55
707.27	268.19
707.61	267.89
707.94	267.52
708.27	266.80
708.61	266.09
708.94	265.68
709.28	265.32
709.61	264.95
709.94	264.54
710.28	264.14
710.61	263.80
710.95	263.09
711.28	262.89
711.61	262.44
711.95	262.31
712.28	261.98
712.61	261.57
712.95	261.43
713.28	261.18
713.61	260.87
713.95	260.35
714.28	260.10
714.61	259.64
714.95	259.24
715.28	258.75
715.61	258.46
715.95	258.12
716.28	257.80
716.61	257.63
716.95	257.22
717.28	256.96
717.61	256.67
717.94	256.26
718.28	255.75
718.61	255.51
718.94	254.98
719.27	254.73
719.61	254.53
719.94	254.17
720.27	253.69
720.60	253.32
720.94	253.14
721.27	252.88
721.60	252.73
721.93	252.52
722.27	252.51
722.60	252.34
722.93	252.05
723.26	251.83
723.59	251.52
723.93	251.42
724.26	251.18
724.59	250.84
724.92	250.73
725.25	250.62
725.59	250.34
725.92	250.27
726.25	249.97
726.58	249.68
726.91	249.44
727.24	249.28
727.57	249.06
727.91	248.72
728.24	248.52
728.57	248.23
728.90	248.04
729.23	247.69
729.56	247.69
729.89	247.63
730.22	247.38
730.55	247.12
730.89	246.98
731.22	246.74
731.55	246.57
731.88	246.37
732.21	246.08
732.54	245.85
732.87	245.66
733.20	245.49
733.53	245.38
733.86	245.26
734.19	245.01
734.52	245.01
734.85	245.17
735.18	244.95
735.51	244.99
735.84	244.80
736.17	244.81
736.50	244.47
736.83	244.77
737.16	244.63
737.49	244.56
737.82	244.40
738.15	244.35
738.48	244.26
738.81	244.05
739.14	243.88
739.47	243.75
739.80	243.62
740.13	243.66
740.46	243.41
740.79	243.24
741.12	243.18
741.45	242.83
741.78	242.44
742.11	242.40
742.44	242.14
742.77	242.10
743.10	241.92
743.43	241.71
743.75	241.10
744.08	241.68
744.41	241.54
744.74	241.37
745.07	241.17
745.40	241.08
745.73	241.17
746.06	241.06
746.39	241.03
746.71	240.85
747.04	240.63
747.37	240.56
747.70	240.51
748.03	240.42
748.36	240.42
748.68	240.27
749.01	240.00
749.34	239.92
749.67	239.82
750.00	239.79
750.33	240.04
750.65	239.96
750.98	239.24
751.31	239.10
751.64	239.01
751.97	239.10
752.29	238.97
752.62	238.68
752.95	238.56
753.28	238.36
753.60	238.24
753.93	238.29
754.26	238.26
754.59	237.91
754.91	237.74
755.24	237.64
755.57	237.59
755.90	237.46
756.22	237.36
756.55	237.13
756.88	236.84
757.20	236.37
757.53	236.15
757.86	236.00
758.19	235.97
758.51	235.88
758.84	235.60
759.17	235.43
759.49	235.35
759.82	235.55
760.15	235.48
760.47	235.42
760.80	235.11
761.13	235.04
761.45	235.04
761.78	234.92
762.11	234.81
762.43	234.69
762.76	234.60
763.08	234.54
763.41	234.54
763.74	234.48
764.06	234.42
764.39	234.36
764.71	234.27
765.04	234.17
765.37	234.05
765.69	233.96
766.02	233.91
766.34	233.81
766.67	233.51
767.00	233.55
767.32	233.67
767.65	233.93
767.97	233.85
768.30	233.82
768.62	233.82
768.95	233.61
769.27	233.50
769.60	233.50
769.92	233.32
770.25	233.16
770.57	232.99
770.90	232.93
771.22	232.86
771.55	232.82
771.87	232.78
772.20	232.67
772.52	233.04
772.85	233.59
773.17	233.57
773.50	233.48
773.82	233.35
774.15	233.07
774.47	232.68
774.80	232.55
775.12	232.43
775.45	232.35
775.77	232.42
776.09	232.40
776.42	232.33
776.74	232.49
777.07	232.44
777.39	232.45
777.72	232.36
778.04	232.35
778.36	232.33
778.69	232.28
779.01	232.33
779.33	231.84
779.66	231.20
779.98	231.13
780.31	231.15
780.63	231.31
780.95	231.39
781.28	231.44
781.60	231.41
781.92	231.40
782.25	231.38
782.57	231.35
782.89	231.28
783.22	231.26
783.54	231.05
783.86	231.06
784.19	231.00
784.51	231.14
784.83	231.01
785.16	230.90
785.48	230.84
785.80	230.80
786.12	230.81
786.45	230.80
786.77	230.71
787.09	230.69
787.42	230.48
787.74	230.44
788.06	230.41
788.38	230.32
788.71	230.24
789.03	230.22
789.35	230.31
789.67	230.18
789.99	230.21
790.32	230.11
790.64	230.12
790.96	230.49
791.28	230.28
791.61	230.32
791.93	230.36
792.25	230.30
792.57	230.56
792.89	230.42
793.21	230.44
793.54	230.37
793.86	230.28
794.18	230.33
794.50	230.17
794.82	230.08
795.14	230.13
795.47	230.24
795.79	230.12
796.11	229.94
796.43	229.94
796.75	229.89
797.07	229.92
797.39	229.86
797.71	229.49
798.04	229.53
798.36	229.46
798.68	229.43
799.00	229.44
799.32	229.21
799.64	229.29
799.96	229.25
800.28	229.32
800.60	229.24
800.92	229.21
801.24	229.22
801.56	229.28
801.89	229.25
802.21	229.26
802.53	229.34
802.85	229.45
803.17	229.73
803.49	229.63
803.81	229.62
804.13	229.64
804.45	229.60
804.77	229.65
805.09	229.66
805.41	229.58
805.73	229.43
806.05	229.31
806.37	229.29
806.69	229.28
807.01	229.26
807.33	229.28
807.65	229.11
807.97	229.33
808.28	229.25
808.60	229.18
808.92	229.04
809.24	229.19
809.56	229.10
809.88	228.89
810.20	228.83
810.52	228.87
810.84	228.72
811.16	228.75
811.48	228.62
811.80	228.74
812.12	228.75
812.43	228.91
812.75	228.92
813.07	228.80
813.39	228.79
813.71	228.74
814.03	228.72
814.35	228.67
814.67	228.42
814.98	228.40
815.30	228.36
815.62	228.34
815.94	228.05
816.26	228.30
816.58	228.16
816.89	228.26
817.21	228.11
817.53	228.19
817.85	228.19
818.17	228.21
818.48	228.01
818.80	228.08
819.12	227.99
819.44	227.89
819.76	227.80
820.07	227.72
820.39	227.60
820.71	227.63
821.03	227.63
821.34	227.59
821.66	227.69
821.98	227.76
822.30	227.68
822.61	227.96
822.93	227.54
823.25	227.61
823.57	227.45
823.88	227.59
824.20	227.60
824.52	227.57
824.83	227.53
825.15	227.51
825.47	227.45
825.79	227.45
826.10	227.48
826.42	227.55
826.74	227.65
827.05	227.77
827.37	227.78
827.69	227.76
828.00	227.78
828.32	227.71
828.64	227.60
828.95	227.84
829.27	227.74
829.58	227.77
829.90	227.77
830.22	227.85
830.53	227.73
830.85	227.61
831.17	227.51
831.48	227.43
831.80	227.38
832.11	227.36
832.43	227.35
832.75	227.39
833.06	227.66
833.38	227.51
833.69	227.45
834.01	227.43
834.32	227.46
834.64	227.43
834.96	227.40
835.27	227.45
835.59	227.32
835.90	227.22
836.22	227.28
836.53	227.19
836.85	227.13
837.16	227.63
837.48	227.67
837.79	227.83
838.11	227.95
838.42	228.05
838.74	228.07
839.05	228.01
839.37	227.84
839.68	227.48
840.00	227.45
840.31	227.52
840.63	227.40
840.94	227.35
841.26	227.31
841.57	227.30
841.88	227.30
842.20	227.24
842.51	227.21
842.83	227.16
843.14	227.55
843.46	227.54
843.77	227.25
844.08	227.29
844.40	227.17
844.71	227.04
845.03	226.92
845.34	226.90
845.65	226.85
845.97	226.90
846.28	226.99
846.60	226.99
846.91	226.92
847.22	226.97
847.54	227.06
847.85	227.08
848.16	227.02
848.48	226.95
848.79	227.16
849.10	227.16
849.42	227.24
849.73	226.87
850.04	226.85
850.36	226.61
850.67	226.59
850.98	226.63
851.30	226.77
851.61	226.79
851.92	226.76
852.23	226.90
852.55	226.98
852.86	226.96
853.17	227.06
853.49	227.16
853.80	227.26
854.11	227.26
854.42	227.32
854.74	227.31
855.05	227.37
855.36	227.07
855.67	227.06
855.99	227.05
856.30	227.61
856.61	227.66
856.92	227.77
857.23	227.77
857.55	227.73
857.86	227.60
858.17	227.66
858.48	227.60
858.79	227.59
859.11	227.61
859.42	227.62
859.73	227.56
860.04	227.54
860.35	227.40
860.66	227.25
860.98	227.27
861.29	227.33
861.60	227.29
861.91	227.40
862.22	227.37
862.53	227.22
862.84	226.64
863.16	226.76
863.47	226.67
863.78	226.66
864.09	226.68
864.40	226.74
864.71	226.76
865.02	226.81
865.33	226.69
865.64	226.62
865.95	226.54
866.27	226.80
866.58	226.70
866.89	226.75
867.20	226.75
867.51	226.62
867.82	226.60
868.13	226.69
868.44	226.57
868.75	226.61
869.06	226.75
869.37	226.83
869.68	226.69
869.99	226.73
870.30	226.73
870.61	226.76
870.92	226.70
871.23	226.61
871.54	226.66
871.85	226.74
872.16	226.81
872.47	226.79
872.78	226.55
873.09	226.57
873.40	226.47
873.71	226.46
874.02	226.53
874.33	226.49
874.64	226.37
874.95	226.47
875.26	226.43
875.56	226.35
875.87	226.32
876.18	226.23
876.49	226.72
876.80	226.62
877.11	226.43
877.42	226.44
877.73	226.46
878.04	226.40
878.35	226.45
878.66	226.43
878.96	226.46
879.27	226.49
879.58	226.49
879.89	226.54
880.20	226.73
880.51	226.76
880.82	226.80
881.12	226.87
881.43	226.80
881.74	226.73
882.05	226.65
882.36	226.63
882.67	226.71
882.97	226.24
883.28	226.23
883.59	226.29
883.90	226.39
884.21	226.44
884.51	226.37
884.82	226.29
885.13	226.24
885.44	226.26
885.74	226.20
886.05	226.27
886.36	226.24
886.67	226.10
886.98	226.23
887.28	226.31
887.59	226.33
887.90	226.34
888.20	226.33
888.51	226.45
888.82	226.39
889.13	226.46
889.43	226.75
889.74	226.75
890.05	226.73
890.35	226.61
890.66	226.58
890.97	226.57
891.28	226.60
891.58	226.61
891.89	226.64
892.20	226.57
892.50	226.47
892.81	226.49
893.12	226.49
893.42	226.27
893.73	226.20
894.04	226.16
894.34	226.20
894.65	226.25
894.95	226.15
895.26	226.20
895.57	226.41
895.87	226.05
896.18	226.13
896.48	226.20
896.79	226.16
897.10	226.27
897.40	226.36
897.71	226.38
898.01	226.33
898.32	226.31
898.63	226.41
898.93	226.47
899.24	226.47
899.54	226.45
899.85	226.50
900.15	226.50
900.46	226.51
900.76	226.57
901.07	226.55
901.38	226.58
901.68	226.67
901.99	226.38
902.29	226.39
902.60	226.41
902.90	226.39
903.21	226.46
903.51	226.37
903.82	226.47
904.12	226.42
904.43	226.46
904.73	226.45
905.03	226.43
905.34	226.88
905.64	226.89
905.95	226.87
906.25	226.80
906.56	226.77
906.86	226.78
907.17	226.73
907.47	226.77
907.77	226.75
908.08	226.66
908.38	226.78
908.69	226.84
908.99	226.97
909.30	226.97
909.60	226.98
909.90	226.98
910.21	226.85
910.51	226.74
910.81	226.75
911.12	226.80
911.42	226.80
911.73	226.32
912.03	226.39
912.33	226.43
912.64	226.47
912.94	226.47
913.24	226.34
913.55	226.28
913.85	226.23
914.15	226.34
914.46	226.37
914.76	226.23
915.06	226.14
915.37	225.98
915.67	225.96
915.97	225.98
916.27	225.88
916.58	225.90
916.88	225.93
917.18	225.90
917.49	226.23
917.79	226.27
918.09	226.32
918.39	226.44
918.70	226.49
919.00	226.54
919.30	226.70
919.60	226.72
919.91	226.70
920.21	226.75
920.51	226.68
920.81	226.64
921.12	226.68
921.42	226.73
921.72	226.73
922.02	226.77
922.32	226.83
922.63	226.85
922.93	227.03
923.23	227.06
923.53	227.05
923.83	226.70
924.13	226.65
924.44	226.64
924.74	226.60
925.04	226.63
925.34	226.60
925.64	226.46
925.94	226.43
926.24	226.72
926.55	226.63
926.85	226.64
927.15	226.58
927.45	226.60
927.75	226.57
928.05	226.58
928.35	226.54
928.65	226.61
928.95	226.64
929.26	226.43
929.56	226.49
929.86	226.52
930.16	226.53
930.46	226.53
930.76	226.56
931.06	226.39
931.36	226.29
931.66	226.32
931.96	226.38
932.26	226.39
932.56	226.10
932.86	226.16
933.16	226.15
933.46	226.17
933.76	226.10
934.06	226.22
934.36	226.44
934.66	226.40
934.96	226.29
935.26	226.37
935.56	226.50
935.86	226.49
936.16	226.42
936.46	226.35
936.76	226.28
937.06	226.21
937.36	226.26
937.66	226.28
937.96	226.22
938.26	226.01
938.56	226.05
938.86	226.10
939.16	226.15
939.46	226.25
939.76	226.25
940.06	226.21
940.35	226.14
940.65	225.82
940.95	225.91
941.25	225.79
941.55	225.74
941.85	225.69
942.15	225.72
942.45	225.82
942.75	225.77
943.04	225.88
943.34	225.92
943.64	225.85
943.94	225.86
944.24	225.88
944.54	225.97
944.84	226.02
945.13	226.00
945.43	225.97
945.73	225.86
946.03	225.89
946.33	225.89
946.62	225.88
946.92	225.91
947.22	225.93
947.52	226.02
947.82	226.03
948.11	226.01
948.41	225.92
948.71	225.77
949.01	225.85
949.31	225.74
949.60	225.73
949.90	225.82
950.20	225.77
950.50	225.79
950.79	225.72
951.09	225.72
951.39	225.68
951.69	225.55
951.98	225.68
952.28	225.65
952.58	225.63
952.87	225.65
953.17	225.66
953.47	225.57
953.76	225.56
954.06	225.48
954.36	225.34
954.66	225.31
954.95	225.46
955.25	225.55
955.55	225.62
955.84	225.55
956.14	225.61
956.44	225.59
956.73	225.49
957.03	225.58
957.32	225.59
957.62	225.63
957.92	225.84
958.21	225.80
958.51	226.39
958.81	226.49
959.10	226.50
959.40	226.67
959.69	226.69
959.99	226.68
960.29	226.66
960.58	226.67
960.88	226.92
961.17	226.91
961.47	226.86
961.76	226.82
962.06	226.88
962.36	226.75
962.65	226.78
962.95	226.84
963.24	226.89
963.54	226.88
963.83	226.92
964.13	226.80
964.42	226.70
964.72	226.31
965.01	226.34
965.31	226.32
965.60	226.22
965.90	226.54
966.19	226.47
966.49	226.55
966.78	226.57
967.08	226.51
967.37	226.46
967.67	226.43
967.96	226.50
968.26	226.47
968.55	226.58
968.85	226.60
969.14	226.57
969.43	226.49
969.73	226.40
970.02	226.36
970.32	226.33
970.61	226.33
970.91	226.23
971.20	226.04
971.49	226.00
971.79	226.03
972.08	225.66
972.38	225.70
972.67	225.75
972.96	225.79
973.26	225.75
973.55	225.89
973.85	225.81
974.14	225.80
974.43	225.87
974.73	225.81
975.02	225.81
975.31	225.79
975.61	225.75
975.90	225.78
976.19	225.72
976.49	225.76
976.78	225.79
977.07	225.72
977.37	225.85
977.66	225.85
977.95	225.78
978.24	225.84
978.54	225.96
978.83	225.89
979.12	225.92
979.42	225.89
979.71	225.83
980.00	225.94
980.29	225.95
980.59	225.86
980.88	225.93
981.17	225.89
981.46	225.93
981.76	226.00
982.05	226.18
982.34	226.23
982.63	226.28
982.93	226.26
983.22	226.44
983.51	226.40
983.80	226.53
984.09	226.57
984.39	226.55
984.68	226.43
984.97	226.47
985.26	226.41
985.55	226.41
985.85	226.32
986.14	226.39
986.43	226.45
986.72	226.43
987.01	226.35
987.30	226.34
987.59	226.32
987.89	226.32
988.18	226.11
988.47	226.10
988.76	226.02
989.05	226.04
989.34	225.91
989.63	226.02
989.92	225.88
990.22	225.80
990.51	225.84
990.80	225.83
991.09	225.86
991.38	225.90
991.67	225.88
991.96	225.88
992.25	225.79
992.54	225.69
992.83	225.68
993.12	225.58
993.41	225.63
993.70	225.79
993.99	225.83
994.28	225.90
994.58	225.89
994.87	225.92
995.16	225.90
995.45	225.85
995.74	225.74
996.03	225.81
996.32	225.93
996.61	225.96
996.90	225.91
997.19	225.83
997.48	225.87
997.77	225.78
998.06	225.78
998.34	225.72
998.63	225.73
998.92	225.72
999.21	225.83
999.50	225.83
999.79	225.69
1000.08	225.69
1000.37	225.74
1000.66	225.75
1000.95	225.82
1001.24	225.72
1001.53	225.80
1001.82	225.80
1002.11	225.73
1002.40	225.84
1002.68	225.99
1002.97	226.32
1003.26	226.32
1003.55	226.26
1003.84	226.31
1004.13	226.44
1004.42	226.44
1004.71	226.45
1004.99	226.49
1005.28	226.60
1005.57	226.52
1005.86	226.47
1006.15	226.45
1006.44	226.35
1006.72	226.38
1007.01	226.29
1007.30	226.34
1007.59	226.34
1007.88	226.26
1008.17	226.28
1008.45	226.08
1008.74	225.85
1009.03	225.71
1009.32	225.68
1009.60	225.65
1009.89	225.60
1010.18	225.40
1010.47	225.37
1010.76	225.30
1011.04	225.21
1011.33	225.20
1011.62	225.29
1011.91	225.35
1012.19	225.35
1012.48	225.38
1012.77	225.34
1013.05	225.53
1013.34	225.54
1013.63	225.48
1013.92	225.55
1014.20	225.46
1014.49	225.55
1014.78	225.65
1015.06	225.40
1015.35	225.46
1015.64	225.57
1015.92	225.72
1016.21	225.74
1016.50	225.74
1016.78	225.82
1017.07	225.90
1017.36	225.83
1017.64	225.76
1017.93	225.82
1018.22	225.82
1018.50	225.76
1018.79	225.77
1019.08	225.57
1019.36	225.64
1019.65	225.59
1019.93	225.78
1020.22	225.91
1020.51	226.05
1020.79	225.93
1021.08	225.70
1021.36	224.30
1021.65	225.30
1021.94	224.85
1022.22	226.35
1022.51	224.60
1022.79	229.10
1023.08	226.30
1023.36	230.30
1023.65	224.35
>>>>>End Processed Spectral Data<<<<<
