SpectraSuite Data File
++++++++++++++++++++++++++++++++++++
Date: Wed Sep 04 17:54:36 EDT 2013
User: lab3
Dark Spectrum Present: Yes
Reference Spectrum Present: No
Number of Sampled Component Spectra: 1
Spectrometers: USB2E7196
Integration Time (usec): 170000 (USB2E7196)
Spectra Averaged: 20 (USB2E7196)
Boxcar Smoothing: 10 (USB2E7196)
Correct for Electrical Dark: No (USB2E7196)
Strobe/Lamp Enabled: No (USB2E7196)
Correct for Detector Non-linearity: No (USB2E7196)
Correct for Stray Light: No (USB2E7196)
Number of Pixels in Processed Spectrum: 2048
>>>>>Begin Processed Spectral Data<<<<<
339.09	0.00
339.48	213.30
339.86	214.50
340.24	216.40
340.63	217.20
341.01	227.30
341.39	220.80
341.78	221.45
342.16	223.70
342.54	223.20
342.93	212.57
343.31	223.23
343.69	223.79
344.07	224.26
344.46	224.76
344.84	225.17
345.22	225.11
345.60	225.38
345.99	225.65
346.37	225.69
346.75	225.78
347.13	225.90
347.52	226.03
347.90	226.29
348.28	226.29
348.66	226.52
349.05	226.35
349.43	226.45
349.81	226.47
350.19	226.47
350.57	226.49
350.96	226.57
351.34	226.74
351.72	226.82
352.10	226.90
352.48	226.89
352.87	226.91
353.25	226.89
353.63	226.92
354.01	226.87
354.39	227.00
354.77	227.09
355.15	227.26
355.54	227.16
355.92	227.04
356.30	227.11
356.68	227.46
357.06	227.55
357.44	227.48
357.82	227.53
358.20	228.00
358.58	228.10
358.97	228.16
359.35	228.29
359.73	228.43
360.11	228.50
360.49	228.62
360.87	228.70
361.25	228.87
361.63	229.06
362.01	229.15
362.39	229.18
362.77	229.26
363.15	229.22
363.53	229.34
363.91	229.38
364.29	229.42
364.67	228.93
365.05	229.02
365.43	229.16
365.81	229.30
366.19	229.15
366.57	229.40
366.95	229.35
367.33	229.23
367.71	229.26
368.09	229.42
368.47	229.41
368.85	229.42
369.23	229.46
369.61	229.29
369.99	229.48
370.37	229.51
370.75	229.73
371.13	229.63
371.51	229.55
371.89	229.55
372.27	229.63
372.65	229.65
373.03	229.56
373.41	229.52
373.78	229.43
374.16	229.23
374.54	229.00
374.92	228.96
375.30	228.92
375.68	228.74
376.06	228.70
376.44	228.55
376.82	228.56
377.19	228.50
377.57	228.39
377.95	228.17
378.33	228.10
378.71	227.78
379.09	227.78
379.47	227.78
379.84	227.67
380.22	227.52
380.60	227.36
380.98	227.25
381.36	227.07
381.73	226.91
382.11	226.86
382.49	226.82
382.87	226.68
383.25	226.69
383.62	227.15
384.00	226.93
384.38	226.89
384.76	226.88
385.13	227.03
385.51	227.07
385.89	227.01
386.27	226.97
386.64	226.95
387.02	226.85
387.40	226.73
387.78	226.75
388.15	226.71
388.53	226.65
388.91	226.67
389.29	226.65
389.66	226.74
390.04	226.66
390.42	226.75
390.79	226.77
391.17	226.69
391.55	226.18
391.92	226.23
392.30	226.30
392.68	226.23
393.05	226.14
393.43	226.10
393.81	226.13
394.18	226.05
394.56	226.07
394.94	226.26
395.31	226.33
395.69	226.50
396.06	226.56
396.44	226.72
396.82	226.65
397.19	226.95
397.57	226.92
397.95	227.06
398.32	226.95
398.70	227.03
399.07	227.17
399.45	227.32
399.82	227.40
400.20	227.45
400.58	227.53
400.95	227.39
401.33	227.62
401.70	228.04
402.08	228.22
402.45	228.39
402.83	228.61
403.20	228.80
403.58	228.86
403.95	229.11
404.33	229.44
404.71	229.78
405.08	230.18
405.46	230.45
405.83	230.72
406.21	230.96
406.58	231.32
406.96	231.61
407.33	231.86
407.70	232.27
408.08	233.03
408.45	233.51
408.83	234.05
409.20	234.40
409.58	234.50
409.95	235.06
410.33	235.63
410.70	236.00
411.08	236.59
411.45	237.15
411.82	237.70
412.20	238.35
412.57	239.35
412.95	239.68
413.32	240.58
413.69	241.42
414.07	242.45
414.44	243.40
414.82	244.47
415.19	245.66
415.56	246.78
415.94	247.78
416.31	249.15
416.68	250.56
417.06	252.27
417.43	253.97
417.81	255.70
418.18	257.46
418.55	259.43
418.93	261.45
419.30	263.66
419.67	265.93
420.04	268.18
420.42	270.35
420.79	273.50
421.16	276.22
421.54	279.29
421.91	282.24
422.28	285.33
422.66	288.58
423.03	292.05
423.40	295.40
423.77	298.96
424.15	302.56
424.52	306.36
424.89	310.35
425.26	314.37
425.64	318.14
426.01	322.33
426.38	326.65
426.75	331.08
427.13	335.70
427.50	340.37
427.87	345.17
428.24	350.11
428.61	354.51
428.99	359.76
429.36	365.19
429.73	370.57
430.10	376.09
430.47	381.83
430.85	387.44
431.22	393.66
431.59	400.35
431.96	406.58
432.33	413.58
432.70	420.38
433.08	428.12
433.45	435.50
433.82	442.79
434.19	450.98
434.56	459.16
434.93	466.65
435.30	474.46
435.68	483.17
436.05	491.59
436.42	499.95
436.79	507.77
437.16	516.07
437.53	525.02
437.90	533.70
438.27	542.22
438.64	551.15
439.01	559.42
439.38	566.63
439.75	573.73
440.13	581.79
440.50	589.16
440.87	595.22
441.24	601.62
441.61	608.69
441.98	613.84
442.35	619.44
442.72	625.58
443.09	631.54
443.46	634.90
443.83	637.22
444.20	639.08
444.57	641.64
444.94	642.85
445.31	643.94
445.68	645.28
446.05	645.43
446.42	644.20
446.79	642.69
447.16	641.00
447.53	639.78
447.90	636.07
448.27	632.52
448.64	627.71
449.01	624.08
449.37	617.95
449.74	611.87
450.11	605.20
450.48	597.43
450.85	589.40
451.22	582.50
451.59	575.89
451.96	569.68
452.33	561.68
452.70	554.32
453.07	545.53
453.43	536.46
453.80	528.06
454.17	519.92
454.54	512.22
454.91	504.06
455.28	496.07
455.65	488.59
456.02	481.76
456.38	475.39
456.75	467.56
457.12	460.90
457.49	454.57
457.86	448.15
458.23	442.91
458.59	437.07
458.96	431.45
459.33	426.45
459.70	421.48
460.07	417.29
460.43	412.58
460.80	408.24
461.17	404.42
461.54	400.49
461.91	396.68
462.27	392.90
462.64	389.68
463.01	386.15
463.38	382.80
463.74	378.74
464.11	375.70
464.48	373.19
464.85	370.48
465.21	368.36
465.58	366.11
465.95	363.34
466.32	361.24
466.68	358.91
467.05	356.65
467.42	354.37
467.78	352.20
468.15	349.96
468.52	348.47
468.88	346.31
469.25	344.36
469.62	342.92
469.98	341.30
470.35	339.81
470.72	338.29
471.08	336.64
471.45	335.42
471.82	334.32
472.18	332.73
472.55	331.72
472.92	330.30
473.28	329.10
473.65	327.98
474.02	326.75
474.38	325.92
474.75	325.14
475.11	324.15
475.48	323.36
475.85	322.80
476.21	322.15
476.58	321.65
476.94	321.21
477.31	320.68
477.67	320.24
478.04	319.86
478.41	319.75
478.77	319.96
479.14	319.65
479.50	319.40
479.87	319.46
480.23	319.50
480.60	319.45
480.96	319.58
481.33	319.95
481.69	320.31
482.06	320.46
482.42	320.70
482.79	321.10
483.15	321.55
483.52	322.20
483.88	322.63
484.25	323.23
484.61	323.95
484.98	324.64
485.34	325.61
485.71	326.55
486.07	327.52
486.44	328.04
486.80	329.06
487.17	330.17
487.53	331.50
487.90	332.91
488.26	334.55
488.62	336.19
488.99	337.70
489.35	339.43
489.72	341.34
490.08	343.40
490.44	345.52
490.81	347.82
491.17	349.92
491.54	352.35
491.90	354.85
492.26	357.39
492.63	360.18
492.99	363.10
493.36	366.19
493.72	369.46
494.08	372.97
494.45	376.75
494.81	380.68
495.17	384.59
495.54	388.85
495.90	393.14
496.26	397.53
496.63	402.37
496.99	407.06
497.35	412.22
497.72	417.46
498.08	422.93
498.44	428.62
498.80	434.79
499.17	440.96
499.53	447.30
499.89	454.00
500.26	460.92
500.62	467.82
500.98	475.30
501.34	482.76
501.71	490.51
502.07	498.32
502.43	506.41
502.79	514.78
503.16	523.39
503.52	532.44
503.88	541.62
504.24	551.15
504.60	561.28
504.97	571.44
505.33	581.90
505.69	593.10
506.05	604.10
506.41	615.32
506.78	627.00
507.14	639.01
507.50	651.34
507.86	663.82
508.22	676.71
508.59	689.75
508.95	703.25
509.31	717.27
509.67	731.72
510.03	746.05
510.39	760.74
510.75	775.71
511.12	790.92
511.48	806.72
511.84	822.47
512.20	838.31
512.56	854.55
512.92	871.23
513.28	887.87
513.64	904.98
514.00	922.38
514.37	940.03
514.73	958.06
515.09	976.43
515.45	994.91
515.81	1013.12
516.17	1031.78
516.53	1050.40
516.89	1069.16
517.25	1088.17
517.61	1108.41
517.97	1128.58
518.33	1148.68
518.69	1168.80
519.05	1189.31
519.41	1209.83
519.77	1230.80
520.13	1251.53
520.49	1272.08
520.85	1294.43
521.21	1315.63
521.57	1336.90
521.93	1357.67
522.29	1379.03
522.65	1399.44
523.01	1420.33
523.37	1441.46
523.73	1462.36
524.09	1483.20
524.45	1503.90
524.81	1524.79
525.17	1545.42
525.53	1565.83
525.89	1586.49
526.25	1607.48
526.61	1627.61
526.97	1648.64
527.33	1669.73
527.68	1691.44
528.04	1712.81
528.40	1732.12
528.76	1752.97
529.12	1773.41
529.48	1794.17
529.84	1814.03
530.20	1835.19
530.56	1855.79
530.91	1876.46
531.27	1896.84
531.63	1916.89
531.99	1937.35
532.35	1957.18
532.71	1977.29
533.07	1998.29
533.42	2018.25
533.78	2037.84
534.14	2057.76
534.50	2076.81
534.86	2096.12
535.21	2113.66
535.57	2131.93
535.93	2149.81
536.29	2167.26
536.65	2185.30
537.00	2202.89
537.36	2220.73
537.72	2236.98
538.08	2254.35
538.44	2270.95
538.79	2287.33
539.15	2304.07
539.51	2319.81
539.87	2335.49
540.22	2349.39
540.58	2363.61
540.94	2376.82
541.29	2389.64
541.65	2402.21
542.01	2414.75
542.37	2425.26
542.72	2436.36
543.08	2446.92
543.44	2458.61
543.79	2468.83
544.15	2478.85
544.51	2488.94
544.87	2498.44
545.22	2507.29
545.58	2514.67
545.94	2522.06
546.29	2528.73
546.65	2534.85
547.01	2540.86
547.36	2546.11
547.72	2551.47
548.07	2555.18
548.43	2560.16
548.79	2564.70
549.14	2568.62
549.50	2572.34
549.86	2576.50
550.21	2580.15
550.57	2583.52
550.92	2584.79
551.28	2586.23
551.64	2588.52
551.99	2590.50
552.35	2591.52
552.70	2593.49
553.06	2595.34
553.41	2596.55
553.77	2598.13
554.13	2599.77
554.48	2601.32
554.84	2602.74
555.19	2604.09
555.55	2605.78
555.90	2605.14
556.26	2604.45
556.61	2603.08
556.97	2600.86
557.32	2600.20
557.68	2599.13
558.03	2597.53
558.39	2596.12
558.74	2595.18
559.10	2591.42
559.45	2587.90
559.81	2583.58
560.16	2578.54
560.52	2573.64
560.87	2569.00
561.23	2563.63
561.58	2557.82
561.94	2550.50
562.29	2543.26
562.64	2536.30
563.00	2527.88
563.35	2521.69
563.71	2514.93
564.06	2508.42
564.42	2501.98
564.77	2494.58
565.12	2487.17
565.48	2479.83
565.83	2472.16
566.19	2464.11
566.54	2456.62
566.89	2448.49
567.25	2440.95
567.60	2433.87
567.96	2426.40
568.31	2418.38
568.66	2409.86
569.02	2400.99
569.37	2393.16
569.72	2385.35
570.08	2375.93
570.43	2366.58
570.78	2357.28
571.14	2348.19
571.49	2338.22
571.84	2328.32
572.20	2317.59
572.55	2307.22
572.90	2296.17
573.26	2285.86
573.61	2274.91
573.96	2263.61
574.31	2251.59
574.67	2239.90
575.02	2226.95
575.37	2214.37
575.72	2201.15
576.08	2189.01
576.43	2176.36
576.78	2163.06
577.13	2149.27
577.49	2136.45
577.84	2124.61
578.19	2112.44
578.54	2099.76
578.90	2087.76
579.25	2075.60
579.60	2063.47
579.95	2050.53
580.30	2037.73
580.66	2024.09
581.01	2010.63
581.36	1996.79
581.71	1983.93
582.06	1970.71
582.42	1958.26
582.77	1945.26
583.12	1933.35
583.47	1921.25
583.82	1909.43
584.17	1897.78
584.53	1886.27
584.88	1873.53
585.23	1860.65
585.58	1846.44
585.93	1833.08
586.28	1820.00
586.63	1806.17
586.98	1791.79
587.34	1778.44
587.69	1765.02
588.04	1752.17
588.39	1739.98
588.74	1728.02
589.09	1715.83
589.44	1703.55
589.79	1691.54
590.14	1679.87
590.49	1667.73
590.84	1655.37
591.19	1643.12
591.54	1630.43
591.89	1618.29
592.25	1608.14
592.60	1596.38
592.95	1585.15
593.30	1573.25
593.65	1561.26
594.00	1549.26
594.35	1539.58
594.70	1527.90
595.05	1516.47
595.40	1504.60
595.75	1492.91
596.10	1481.65
596.45	1470.60
596.80	1459.78
597.15	1448.40
597.50	1436.56
597.85	1425.33
598.19	1413.90
598.54	1402.37
598.89	1391.29
599.24	1380.58
599.59	1368.98
599.94	1358.23
600.29	1347.96
600.64	1337.57
600.99	1326.81
601.34	1317.47
601.69	1306.35
602.04	1296.71
602.39	1287.14
602.74	1278.08
603.08	1268.58
603.43	1259.20
603.78	1249.27
604.13	1239.49
604.48	1229.87
604.83	1220.21
605.18	1210.34
605.53	1200.73
605.87	1191.50
606.22	1183.12
606.57	1173.78
606.92	1164.26
607.27	1155.44
607.62	1146.53
607.96	1138.12
608.31	1130.27
608.66	1121.79
609.01	1113.27
609.36	1104.70
609.70	1096.28
610.05	1087.96
610.40	1079.43
610.75	1070.78
611.10	1062.56
611.44	1053.91
611.79	1045.67
612.14	1037.92
612.49	1030.35
612.83	1022.89
613.18	1015.21
613.53	1007.46
613.88	999.78
614.22	992.26
614.57	984.45
614.92	976.57
615.27	969.12
615.61	961.23
615.96	953.62
616.31	945.98
616.65	938.97
617.00	931.42
617.35	923.98
617.70	916.73
618.04	909.70
618.39	902.58
618.74	896.21
619.08	889.32
619.43	882.21
619.78	875.06
620.12	867.86
620.47	860.90
620.82	853.59
621.16	846.56
621.51	840.16
621.85	833.79
622.20	827.42
622.55	820.81
622.89	814.52
623.24	808.01
623.59	801.70
623.93	795.27
624.28	789.31
624.62	783.76
624.97	778.11
625.32	772.30
625.66	766.55
626.01	760.50
626.35	755.04
626.70	749.55
627.04	744.21
627.39	738.59
627.73	733.43
628.08	728.41
628.43	723.12
628.77	717.78
629.12	712.54
629.46	707.72
629.81	702.92
630.15	698.07
630.50	693.24
630.84	688.50
631.19	683.71
631.53	679.02
631.88	673.68
632.22	668.86
632.57	664.29
632.91	659.57
633.26	655.28
633.60	650.68
633.95	646.03
634.29	641.43
634.64	637.23
634.98	632.46
635.32	627.95
635.67	624.03
636.01	619.60
636.36	615.30
636.70	611.04
637.05	606.71
637.39	602.61
637.73	598.50
638.08	594.48
638.42	590.30
638.77	586.05
639.11	581.82
639.45	577.49
639.80	573.01
640.14	568.94
640.49	564.79
640.83	560.95
641.17	557.45
641.52	553.66
641.86	549.98
642.20	546.94
642.55	543.34
642.89	539.59
643.23	536.24
643.58	533.10
643.92	529.46
644.26	526.17
644.61	522.87
644.95	519.61
645.29	516.18
645.64	513.02
645.98	509.95
646.32	507.09
646.66	504.05
647.01	501.30
647.35	498.65
647.69	495.85
648.04	493.01
648.38	490.01
648.72	487.14
649.06	484.15
649.41	480.99
649.75	478.02
650.09	475.20
650.43	472.31
650.78	469.26
651.12	466.47
651.46	463.59
651.80	460.76
652.14	458.07
652.49	455.59
652.83	453.06
653.17	450.33
653.51	447.56
653.85	445.13
654.20	442.69
654.54	439.94
654.88	437.37
655.22	435.15
655.56	432.76
655.90	430.42
656.25	428.20
656.59	425.95
656.93	423.71
657.27	421.67
657.61	419.21
657.95	417.07
658.29	414.96
658.64	412.97
658.98	410.82
659.32	408.66
659.66	406.54
660.00	404.45
660.34	402.43
660.68	400.45
661.02	398.37
661.36	396.37
661.70	394.44
662.05	392.42
662.39	390.47
662.73	388.67
663.07	387.16
663.41	385.21
663.75	383.25
664.09	381.43
664.43	379.50
664.77	377.99
665.11	376.25
665.45	374.65
665.79	372.99
666.13	371.31
666.47	369.61
666.81	367.83
667.15	366.06
667.49	364.57
667.83	363.21
668.17	361.69
668.51	360.16
668.85	358.81
669.19	357.74
669.53	356.11
669.87	354.53
670.21	352.86
670.55	351.46
670.89	350.28
671.23	348.94
671.57	347.52
671.91	346.12
672.25	344.78
672.58	343.53
672.92	342.11
673.26	340.84
673.60	339.70
673.94	338.62
674.28	337.57
674.62	336.46
674.96	335.11
675.30	334.09
675.64	332.90
675.97	331.64
676.31	330.19
676.65	329.04
676.99	328.10
677.33	327.03
677.67	326.03
678.01	324.89
678.34	323.93
678.68	323.06
679.02	322.02
679.36	320.99
679.70	319.90
680.04	318.90
680.37	317.99
680.71	316.92
681.05	315.97
681.39	315.02
681.73	314.12
682.06	313.24
682.40	312.30
682.74	311.51
683.08	310.84
683.42	309.95
683.75	309.17
684.09	308.16
684.43	307.36
684.77	306.50
685.10	305.60
685.44	304.77
685.78	303.82
686.12	303.03
686.45	302.33
686.79	301.48
687.13	300.72
687.46	299.90
687.80	299.26
688.14	298.42
688.48	297.65
688.81	296.85
689.15	296.16
689.49	295.53
689.82	294.79
690.16	293.94
690.50	293.31
690.83	292.55
691.17	291.82
691.51	291.12
691.84	290.48
692.18	289.77
692.52	289.08
692.85	288.54
693.19	288.05
693.52	287.37
693.86	286.63
694.20	285.94
694.53	285.28
694.87	284.66
695.21	284.08
695.54	283.52
695.88	282.77
696.21	282.05
696.55	281.35
696.88	280.74
697.22	280.05
697.56	279.48
697.89	278.86
698.23	278.40
698.56	277.81
698.90	277.34
699.23	276.89
699.57	276.38
699.90	275.81
700.24	275.21
700.58	274.71
700.91	274.40
701.25	274.41
701.58	274.43
701.92	274.02
702.25	273.57
702.59	273.05
702.92	272.78
703.26	272.42
703.59	272.04
703.93	272.02
704.26	271.66
704.60	271.26
704.93	270.95
705.26	270.49
705.60	270.11
705.93	269.57
706.27	269.25
706.60	268.98
706.94	268.79
707.27	268.31
707.61	267.90
707.94	267.57
708.27	266.77
708.61	266.00
708.94	265.54
709.28	265.23
709.61	264.87
709.94	264.52
710.28	264.14
710.61	263.72
710.95	262.97
711.28	263.02
711.61	262.63
711.95	262.38
712.28	261.95
712.61	261.53
712.95	261.50
713.28	261.41
713.61	260.94
713.95	260.46
714.28	260.22
714.61	259.87
714.95	259.40
715.28	259.03
715.61	258.69
715.95	258.43
716.28	258.02
716.61	257.80
716.95	257.37
717.28	257.05
717.61	256.80
717.94	256.51
718.28	255.85
718.61	255.56
718.94	255.11
719.27	254.92
719.61	254.72
719.94	254.35
720.27	253.77
720.60	253.53
720.94	253.26
721.27	253.07
721.60	252.97
721.93	252.85
722.27	252.87
722.60	252.68
722.93	252.37
723.26	252.15
723.59	251.79
723.93	251.64
724.26	251.48
724.59	251.26
724.92	251.08
725.25	250.95
725.59	250.76
725.92	250.64
726.25	250.44
726.58	250.31
726.91	250.00
727.24	249.90
727.57	249.70
727.91	249.41
728.24	249.21
728.57	248.90
728.90	248.70
729.23	248.22
729.56	248.32
729.89	248.20
730.22	248.03
730.55	247.85
730.89	247.69
731.22	247.49
731.55	247.36
731.88	247.18
732.21	246.94
732.54	246.65
732.87	246.49
733.20	246.36
733.53	246.11
733.86	246.02
734.19	245.80
734.52	245.65
734.85	245.87
735.18	245.66
735.51	245.77
735.84	245.60
736.17	245.56
736.50	245.10
736.83	245.48
737.16	245.36
737.49	245.25
737.82	245.07
738.15	244.96
738.48	244.78
738.81	244.62
739.14	244.47
739.47	244.39
739.80	244.25
740.13	244.10
740.46	243.96
740.79	243.78
741.12	243.65
741.45	243.49
741.78	243.14
742.11	243.17
742.44	242.83
742.77	242.82
743.10	242.70
743.43	242.52
743.75	241.90
744.08	242.31
744.41	242.12
744.74	241.93
745.07	241.71
745.40	241.57
745.73	241.61
746.06	241.48
746.39	241.44
746.71	241.25
747.04	241.08
747.37	240.94
747.70	240.89
748.03	240.78
748.36	240.77
748.68	240.53
749.01	240.16
749.34	240.09
749.67	239.93
750.00	239.92
750.33	240.26
750.65	240.15
750.98	239.47
751.31	239.39
751.64	239.28
751.97	239.53
752.29	239.41
752.62	239.08
752.95	238.93
753.28	238.70
753.60	238.57
753.93	238.54
754.26	238.47
754.59	238.20
754.91	238.09
755.24	237.91
755.57	237.86
755.90	237.82
756.22	237.63
756.55	237.46
756.88	237.25
757.20	236.74
757.53	236.55
757.86	236.40
758.19	236.40
758.51	236.35
758.84	235.91
759.17	235.82
759.49	235.81
759.82	235.92
760.15	235.89
760.47	235.83
760.80	235.60
761.13	235.50
761.45	235.44
761.78	235.31
762.11	235.15
762.43	234.99
762.76	234.86
763.08	234.82
763.41	234.81
763.74	234.73
764.06	234.62
764.39	234.59
764.71	234.55
765.04	234.33
765.37	234.20
765.69	234.18
766.02	234.04
766.34	233.89
766.67	233.68
767.00	233.69
767.32	233.81
767.65	234.10
767.97	234.03
768.30	234.04
768.62	233.99
768.95	233.95
769.27	233.85
769.60	233.84
769.92	233.77
770.25	233.60
770.57	233.50
770.90	233.48
771.22	233.37
771.55	233.26
771.87	233.23
772.20	233.15
772.52	233.45
772.85	233.99
773.17	234.01
773.50	233.88
773.82	233.83
774.15	233.62
774.47	233.19
774.80	233.07
775.12	232.97
775.45	232.87
775.77	232.83
776.09	232.88
776.42	232.91
776.74	232.96
777.07	232.91
777.39	232.84
777.72	232.70
778.04	232.68
778.36	232.72
778.69	232.78
779.01	232.80
779.33	232.42
779.66	231.81
779.98	231.68
780.31	231.71
780.63	231.77
780.95	231.78
781.28	231.75
781.60	231.64
781.92	231.58
782.25	231.57
782.57	231.52
782.89	231.43
783.22	231.25
783.54	231.17
783.86	231.14
784.19	231.05
784.51	231.22
784.83	231.09
785.16	230.99
785.48	230.94
785.80	230.87
786.12	230.87
786.45	230.82
786.77	230.86
787.09	230.81
787.42	230.71
787.74	230.64
788.06	230.66
788.38	230.66
788.71	230.65
789.03	230.69
789.35	230.74
789.67	230.65
789.99	230.75
790.32	230.65
790.64	230.60
790.96	231.00
791.28	230.77
791.61	230.72
791.93	230.59
792.25	230.52
792.57	230.78
792.89	230.62
793.21	230.59
793.54	230.46
793.86	230.35
794.18	230.25
794.50	230.18
794.82	230.15
795.14	230.18
795.47	230.26
795.79	230.22
796.11	230.08
796.43	230.02
796.75	229.95
797.07	229.92
797.39	229.93
797.71	229.62
798.04	229.62
798.36	229.74
798.68	229.80
799.00	229.83
799.32	229.60
799.64	229.57
799.96	229.53
800.28	229.60
800.60	229.63
800.92	229.67
801.24	229.65
801.56	229.70
801.89	229.59
802.21	229.55
802.53	229.46
802.85	229.49
803.17	229.72
803.49	229.64
803.81	229.63
804.13	229.66
804.45	229.53
804.77	229.60
805.09	229.51
805.41	229.48
805.73	229.35
806.05	229.24
806.37	229.28
806.69	229.30
807.01	229.18
807.33	229.11
807.65	228.88
807.97	229.05
808.28	228.96
808.60	229.00
808.92	228.85
809.24	229.09
809.56	228.95
809.88	228.81
810.20	228.85
810.52	228.79
810.84	228.60
811.16	228.59
811.48	228.49
811.80	228.62
812.12	228.56
812.43	228.63
812.75	228.64
813.07	228.56
813.39	228.52
813.71	228.57
814.03	228.58
814.35	228.63
814.67	228.43
814.98	228.31
815.30	228.23
815.62	228.17
815.94	227.78
816.26	228.09
816.58	227.96
816.89	227.96
817.21	227.94
817.53	227.94
817.85	227.99
818.17	227.93
818.48	227.73
818.80	227.79
819.12	227.71
819.44	227.60
819.76	227.58
820.07	227.57
820.39	227.56
820.71	227.55
821.03	227.57
821.34	227.48
821.66	227.54
821.98	227.62
822.30	227.62
822.61	227.98
822.93	227.70
823.25	227.67
823.57	227.57
823.88	227.69
824.20	227.69
824.52	227.65
824.83	227.72
825.15	227.63
825.47	227.61
825.79	227.64
826.10	227.65
826.42	227.65
826.74	227.69
827.05	227.56
827.37	227.57
827.69	227.53
828.00	227.61
828.32	227.60
828.64	227.48
828.95	227.73
829.27	227.58
829.58	227.53
829.90	227.63
830.22	227.65
830.53	227.58
830.85	227.57
831.17	227.47
831.48	227.42
831.80	227.46
832.11	227.47
832.43	227.45
832.75	227.40
833.06	227.67
833.38	227.50
833.69	227.50
834.01	227.50
834.32	227.49
834.64	227.45
834.96	227.43
835.27	227.48
835.59	227.32
835.90	227.30
836.22	227.30
836.53	227.20
836.85	227.17
837.16	227.64
837.48	227.70
837.79	227.82
838.11	227.80
838.42	227.79
838.74	227.85
839.05	227.81
839.37	227.86
839.68	227.61
840.00	227.63
840.31	227.80
840.63	227.79
840.94	227.76
841.26	227.74
841.57	227.81
841.88	227.97
842.20	227.86
842.51	227.71
842.83	227.79
843.14	228.24
843.46	228.25
843.77	227.98
844.08	227.91
844.40	227.81
844.71	227.77
845.03	227.80
845.34	227.74
845.65	227.74
845.97	227.72
846.28	227.72
846.60	227.75
846.91	227.59
847.22	227.61
847.54	227.76
847.85	227.72
848.16	227.67
848.48	227.52
848.79	227.77
849.10	227.90
849.42	227.91
849.73	227.44
850.04	227.37
850.36	227.12
850.67	227.25
850.98	227.32
851.30	227.41
851.61	227.41
851.92	227.47
852.23	227.60
852.55	227.57
852.86	227.65
853.17	227.71
853.49	227.88
853.80	227.93
854.11	227.89
854.42	228.03
854.74	227.98
855.05	227.97
855.36	227.69
855.67	227.68
855.99	227.71
856.30	228.34
856.61	228.38
856.92	228.40
857.23	228.26
857.55	228.21
857.86	228.14
858.17	228.17
858.48	227.96
858.79	227.87
859.11	227.93
859.42	227.85
859.73	227.73
860.04	227.71
860.35	227.53
860.66	227.35
860.98	227.31
861.29	227.41
861.60	227.38
861.91	227.50
862.22	227.35
862.53	227.24
862.84	226.59
863.16	226.74
863.47	226.64
863.78	226.64
864.09	226.60
864.40	226.68
864.71	226.71
865.02	226.83
865.33	226.76
865.64	226.63
865.95	226.63
866.27	226.97
866.58	226.87
866.89	226.92
867.20	226.96
867.51	226.86
867.82	226.75
868.13	226.85
868.44	226.71
868.75	226.88
869.06	226.92
869.37	227.04
869.68	226.82
869.99	227.02
870.30	227.06
870.61	227.09
870.92	226.96
871.23	226.91
871.54	227.00
871.85	227.08
872.16	227.23
872.47	227.13
872.78	226.83
873.09	226.87
873.40	226.81
873.71	226.82
874.02	226.86
874.33	226.87
874.64	226.81
874.95	226.95
875.26	226.78
875.56	226.72
875.87	226.71
876.18	226.74
876.49	227.13
876.80	227.10
877.11	227.03
877.42	227.09
877.73	227.00
878.04	226.87
878.35	226.94
878.66	226.88
878.96	226.87
879.27	226.88
879.58	226.88
879.89	226.91
880.20	227.00
880.51	227.02
880.82	227.02
881.12	227.12
881.43	227.00
881.74	227.02
882.05	227.01
882.36	227.03
882.67	227.10
882.97	226.59
883.28	226.58
883.59	226.62
883.90	226.66
884.21	226.80
884.51	226.80
884.82	226.66
885.13	226.66
885.44	226.69
885.74	226.73
886.05	226.71
886.36	226.70
886.67	226.61
886.98	226.85
887.28	226.85
887.59	226.75
887.90	226.80
888.20	226.76
888.51	226.92
888.82	226.84
889.13	226.86
889.43	227.27
889.74	227.26
890.05	227.31
890.35	227.29
890.66	227.19
890.97	227.18
891.28	227.15
891.58	227.20
891.89	227.20
892.20	227.12
892.50	227.09
892.81	227.07
893.12	227.06
893.42	226.76
893.73	226.80
894.04	226.82
894.34	226.90
894.65	226.88
894.95	226.73
895.26	226.74
895.57	226.92
895.87	226.46
896.18	226.51
896.48	226.50
896.79	226.43
897.10	226.51
897.40	226.50
897.71	226.55
898.01	226.51
898.32	226.54
898.63	226.53
898.93	226.57
899.24	226.54
899.54	226.47
899.85	226.50
900.15	226.41
900.46	226.34
900.76	226.36
901.07	226.50
901.38	226.51
901.68	226.48
901.99	226.23
902.29	226.22
902.60	226.20
902.90	226.09
903.21	226.06
903.51	226.04
903.82	226.15
904.12	226.18
904.43	226.20
904.73	226.15
905.03	226.18
905.34	226.59
905.64	226.61
905.95	226.63
906.25	226.62
906.56	226.64
906.86	226.68
907.17	226.59
907.47	226.53
907.77	226.54
908.08	226.54
908.38	226.60
908.69	226.68
908.99	226.81
909.30	226.85
909.60	226.91
909.90	226.96
910.21	226.82
910.51	226.74
910.81	226.70
911.12	226.77
911.42	226.82
911.73	226.32
912.03	226.35
912.33	226.50
912.64	226.52
912.94	226.50
913.24	226.47
913.55	226.48
913.85	226.47
914.15	226.55
914.46	226.64
914.76	226.65
915.06	226.65
915.37	226.56
915.67	226.52
915.97	226.48
916.27	226.29
916.58	226.33
916.88	226.35
917.18	226.39
917.49	226.74
917.79	226.74
918.09	226.88
918.39	227.02
918.70	226.98
919.00	226.92
919.30	227.13
919.60	227.11
919.91	227.04
920.21	227.00
920.51	226.88
920.81	226.78
921.12	226.78
921.42	226.74
921.72	226.75
922.02	226.79
922.32	226.92
922.63	226.98
922.93	227.24
923.23	227.32
923.53	227.23
923.83	226.84
924.13	226.89
924.44	226.89
924.74	226.93
925.04	227.00
925.34	227.04
925.64	226.84
925.94	226.85
926.24	227.17
926.55	227.16
926.85	227.24
927.15	227.28
927.45	227.29
927.75	227.26
928.05	227.17
928.35	227.10
928.65	227.16
928.95	227.25
929.26	227.08
929.56	227.17
929.86	227.26
930.16	227.27
930.46	227.19
930.76	227.11
931.06	226.84
931.36	226.68
931.66	226.75
931.96	226.82
932.26	226.80
932.56	226.52
932.86	226.58
933.16	226.53
933.46	226.49
933.76	226.43
934.06	226.62
934.36	226.88
934.66	226.94
934.96	226.87
935.26	226.86
935.56	226.94
935.86	226.78
936.16	226.62
936.46	226.53
936.76	226.49
937.06	226.42
937.36	226.49
937.66	226.50
937.96	226.49
938.26	226.35
938.56	226.37
938.86	226.43
939.16	226.50
939.46	226.53
939.76	226.56
940.06	226.54
940.35	226.32
940.65	226.05
940.95	226.12
941.25	225.98
941.55	225.84
941.85	225.72
942.15	225.77
942.45	225.98
942.75	225.98
943.04	226.03
943.34	226.16
943.64	226.16
943.94	226.14
944.24	226.13
944.54	226.15
944.84	226.11
945.13	226.01
945.43	225.95
945.73	225.93
946.03	225.87
946.33	225.80
946.62	225.81
946.92	225.83
947.22	225.82
947.52	225.88
947.82	226.02
948.11	226.00
948.41	225.88
948.71	225.66
949.01	225.75
949.31	225.72
949.60	225.67
949.90	225.71
950.20	225.76
950.50	225.75
950.79	225.69
951.09	225.75
951.39	225.72
951.69	225.64
951.98	225.70
952.28	225.67
952.58	225.70
952.87	225.69
953.17	225.67
953.47	225.56
953.76	225.53
954.06	225.50
954.36	225.41
954.66	225.36
954.95	225.50
955.25	225.49
955.55	225.52
955.84	225.38
956.14	225.36
956.44	225.30
956.73	225.21
957.03	225.29
957.32	225.28
957.62	225.33
957.92	225.40
958.21	225.34
958.51	225.88
958.81	225.98
959.10	226.00
959.40	226.12
959.69	226.19
959.99	226.27
960.29	226.22
960.58	226.23
960.88	226.49
961.17	226.47
961.47	226.53
961.76	226.41
962.06	226.53
962.36	226.51
962.65	226.62
962.95	226.69
963.24	226.61
963.54	226.64
963.83	226.65
964.13	226.65
964.42	226.57
964.72	226.19
965.01	226.11
965.31	226.09
965.60	226.04
965.90	226.33
966.19	226.22
966.49	226.19
966.78	226.24
967.08	226.20
967.37	226.26
967.67	226.16
967.96	226.37
968.26	226.37
968.55	226.50
968.85	226.49
969.14	226.46
969.43	226.50
969.73	226.47
970.02	226.46
970.32	226.41
970.61	226.46
970.91	226.35
971.20	226.33
971.49	226.35
971.79	226.39
972.08	226.05
972.38	226.07
972.67	226.09
972.96	226.17
973.26	226.02
973.55	226.08
973.85	226.05
974.14	225.97
974.43	226.03
974.73	225.84
975.02	225.75
975.31	225.71
975.61	225.76
975.90	225.71
976.19	225.69
976.49	225.82
976.78	225.86
977.07	225.91
977.37	225.93
977.66	225.98
977.95	225.93
978.24	226.00
978.54	226.13
978.83	226.10
979.12	225.99
979.42	226.00
979.71	225.95
980.00	225.98
980.29	226.01
980.59	225.85
980.88	226.00
981.17	226.06
981.46	226.14
981.76	226.09
982.05	226.22
982.34	226.24
982.63	226.20
982.93	226.16
983.22	226.22
983.51	226.24
983.80	226.32
984.09	226.35
984.39	226.33
984.68	226.23
984.97	226.31
985.26	226.33
985.55	226.42
985.85	226.33
986.14	226.44
986.43	226.50
986.72	226.57
987.01	226.43
987.30	226.46
987.59	226.43
987.89	226.46
988.18	226.37
988.47	226.32
988.76	226.29
989.05	226.34
989.34	226.31
989.63	226.45
989.92	226.35
990.22	226.29
990.51	226.32
990.80	226.32
991.09	226.36
991.38	226.40
991.67	226.30
991.96	226.40
992.25	226.33
992.54	226.23
992.83	226.22
993.12	226.29
993.41	226.30
993.70	226.50
993.99	226.59
994.28	226.64
994.58	226.69
994.87	226.65
995.16	226.62
995.45	226.64
995.74	226.46
996.03	226.61
996.32	226.65
996.61	226.75
996.90	226.77
997.19	226.75
997.48	226.78
997.77	226.81
998.06	226.76
998.34	226.79
998.63	226.79
998.92	226.75
999.21	226.81
999.50	226.77
999.79	226.56
1000.08	226.54
1000.37	226.49
1000.66	226.55
1000.95	226.62
1001.24	226.66
1001.53	226.66
1001.82	226.65
1002.11	226.53
1002.40	226.61
1002.68	226.74
1002.97	227.03
1003.26	226.94
1003.55	226.85
1003.84	226.85
1004.13	227.05
1004.42	226.98
1004.71	226.98
1004.99	227.02
1005.28	227.09
1005.57	227.10
1005.86	227.08
1006.15	227.04
1006.44	227.00
1006.72	227.01
1007.01	226.90
1007.30	226.85
1007.59	226.81
1007.88	226.77
1008.17	226.75
1008.45	226.59
1008.74	226.35
1009.03	226.16
1009.32	226.19
1009.60	226.19
1009.89	226.14
1010.18	225.89
1010.47	225.91
1010.76	225.86
1011.04	225.85
1011.33	225.84
1011.62	225.85
1011.91	225.86
1012.19	225.85
1012.48	225.80
1012.77	225.76
1013.05	226.00
1013.34	225.96
1013.63	225.83
1013.92	225.92
1014.20	225.83
1014.49	225.83
1014.78	225.81
1015.06	225.55
1015.35	225.50
1015.64	225.63
1015.92	225.73
1016.21	225.77
1016.50	225.70
1016.78	225.84
1017.07	225.88
1017.36	225.75
1017.64	225.70
1017.93	225.77
1018.22	225.73
1018.50	225.81
1018.79	225.82
1019.08	225.59
1019.36	225.69
1019.65	225.73
1019.93	225.88
1020.22	225.99
1020.51	226.27
1020.79	226.25
1021.08	225.05
1021.36	225.80
1021.65	226.40
1021.94	225.10
1022.22	226.95
1022.51	225.15
1022.79	228.85
1023.08	226.75
1023.36	231.30
1023.65	224.85
>>>>>End Processed Spectral Data<<<<<
