SpectraSuite Data File
++++++++++++++++++++++++++++++++++++
Date: Wed Sep 04 17:41:40 EDT 2013
User: lab3
Dark Spectrum Present: Yes
Reference Spectrum Present: No
Number of Sampled Component Spectra: 1
Spectrometers: USB2E7196
Integration Time (usec): 170000 (USB2E7196)
Spectra Averaged: 20 (USB2E7196)
Boxcar Smoothing: 10 (USB2E7196)
Correct for Electrical Dark: No (USB2E7196)
Strobe/Lamp Enabled: No (USB2E7196)
Correct for Detector Non-linearity: No (USB2E7196)
Correct for Stray Light: No (USB2E7196)
Number of Pixels in Processed Spectrum: 2048
>>>>>Begin Processed Spectral Data<<<<<
339.09	0.00
339.48	211.90
339.86	213.90
340.24	214.75
340.63	217.20
341.01	225.50
341.39	220.80
341.78	222.65
342.16	222.50
342.54	223.75
342.93	212.01
343.31	222.62
343.69	223.16
344.07	223.60
344.46	224.16
344.84	224.54
345.22	224.51
345.60	224.71
345.99	224.83
346.37	224.97
346.75	224.99
347.13	225.03
347.52	225.17
347.90	225.29
348.28	225.37
348.66	225.41
349.05	225.21
349.43	225.30
349.81	225.29
350.19	225.39
350.57	225.45
350.96	225.56
351.34	225.75
351.72	225.90
352.10	226.06
352.48	226.02
352.87	226.06
353.25	226.12
353.63	226.20
354.01	226.21
354.39	226.35
354.77	226.48
355.15	226.60
355.54	226.49
355.92	226.46
356.30	226.50
356.68	226.92
357.06	227.05
357.44	227.05
357.82	227.13
358.20	227.56
358.58	227.49
358.97	227.63
359.35	227.76
359.73	227.87
360.11	227.94
360.49	228.04
360.87	228.09
361.25	228.19
361.63	228.42
362.01	228.48
362.39	228.45
362.77	228.51
363.15	228.57
363.53	228.67
363.91	228.69
364.29	228.74
364.67	228.30
365.05	228.34
365.43	228.50
365.81	228.56
366.19	228.44
366.57	228.67
366.95	228.62
367.33	228.54
367.71	228.55
368.09	228.64
368.47	228.67
368.85	228.62
369.23	228.69
369.61	228.48
369.99	228.69
370.37	228.78
370.75	228.96
371.13	228.88
371.51	228.87
371.89	228.84
372.27	228.85
372.65	228.85
373.03	228.81
373.41	228.64
373.78	228.64
374.16	228.33
374.54	228.20
374.92	228.10
375.30	228.01
375.68	227.77
376.06	227.65
376.44	227.50
376.82	227.49
377.19	227.37
377.57	227.28
377.95	226.99
378.33	226.86
378.71	226.49
379.09	226.55
379.47	226.54
379.84	226.43
380.22	226.26
380.60	226.15
380.98	226.05
381.36	225.91
381.73	225.73
382.11	225.78
382.49	225.68
382.87	225.55
383.25	225.48
383.62	226.05
384.00	225.88
384.38	225.87
384.76	225.95
385.13	226.03
385.51	225.99
385.89	225.83
386.27	225.70
386.64	225.71
387.02	225.52
387.40	225.44
387.78	225.47
388.15	225.47
388.53	225.38
388.91	225.32
389.29	225.26
389.66	225.34
390.04	225.20
390.42	225.20
390.79	225.24
391.17	225.22
391.55	224.69
391.92	224.73
392.30	224.69
392.68	224.58
393.05	224.54
393.43	224.57
393.81	224.71
394.18	224.65
394.56	224.74
394.94	224.96
395.31	224.84
395.69	224.99
396.06	225.05
396.44	225.15
396.82	225.18
397.19	225.48
397.57	225.45
397.95	225.57
398.32	225.59
398.70	225.71
399.07	225.82
399.45	225.83
399.82	225.88
400.20	226.00
400.58	226.05
400.95	226.02
401.33	226.20
401.70	226.60
402.08	226.86
402.45	226.92
402.83	227.04
403.20	227.28
403.58	227.31
403.95	227.57
404.33	227.79
404.71	228.02
405.08	228.44
405.46	228.57
405.83	228.84
406.21	229.04
406.58	229.29
406.96	229.56
407.33	229.89
407.70	230.25
408.08	230.93
408.45	231.39
408.83	231.86
409.20	232.19
409.58	232.28
409.95	232.74
410.33	233.26
410.70	233.61
411.08	234.13
411.45	234.71
411.82	235.16
412.20	235.78
412.57	236.71
412.95	236.92
413.32	237.78
413.69	238.45
414.07	239.20
414.44	240.03
414.82	240.83
415.19	241.87
415.56	242.91
415.94	243.67
416.31	244.81
416.68	245.92
417.06	247.24
417.43	248.63
417.81	249.99
418.18	251.45
418.55	252.97
418.93	254.64
419.30	256.30
419.67	258.10
420.04	260.00
420.42	261.77
420.79	264.41
421.16	266.65
421.54	269.21
421.91	271.70
422.28	274.21
422.66	276.97
423.03	279.91
423.40	282.67
423.77	285.53
424.15	288.41
424.52	291.57
424.89	295.03
425.26	298.32
425.64	301.49
426.01	305.01
426.38	308.75
426.75	312.51
427.13	316.35
427.50	320.39
427.87	324.39
428.24	328.48
428.61	332.14
428.99	336.66
429.36	341.21
429.73	345.75
430.10	350.34
430.47	355.09
430.85	359.70
431.22	364.79
431.59	370.56
431.96	375.88
432.33	381.59
432.70	387.01
433.08	393.45
433.45	399.60
433.82	405.63
434.19	412.46
434.56	419.25
434.93	425.61
435.30	432.08
435.68	439.41
436.05	446.50
436.42	453.42
436.79	459.83
437.16	466.72
437.53	474.05
437.90	481.35
438.27	488.51
438.64	495.92
439.01	502.75
439.38	508.77
439.75	514.62
440.13	521.35
440.50	527.69
440.87	532.87
441.24	538.28
441.61	544.27
441.98	548.39
442.35	553.16
442.72	558.22
443.09	563.16
443.46	565.99
443.83	567.87
444.20	569.75
444.57	571.95
444.94	573.01
445.31	574.05
445.68	575.36
446.05	575.51
446.42	574.46
446.79	573.43
447.16	572.13
447.53	571.23
447.90	568.19
448.27	565.26
448.64	561.25
449.01	558.28
449.37	553.14
449.74	548.32
450.11	542.85
450.48	536.45
450.85	529.86
451.22	524.17
451.59	518.75
451.96	513.45
452.33	506.77
452.70	500.69
453.07	493.50
453.43	485.82
453.80	478.89
454.17	472.27
454.54	465.86
454.91	459.10
455.28	452.53
455.65	446.46
456.02	440.93
456.38	435.68
456.75	429.14
457.12	423.71
457.49	418.50
457.86	413.13
458.23	408.95
458.59	404.11
458.96	399.29
459.33	395.11
459.70	390.88
460.07	387.58
460.43	383.63
460.80	380.19
461.17	377.11
461.54	373.85
461.91	370.60
462.27	367.46
462.64	364.75
463.01	361.77
463.38	359.05
463.74	355.57
464.11	353.03
464.48	350.97
464.85	348.69
465.21	346.82
465.58	344.91
465.95	342.44
466.32	340.55
466.68	338.71
467.05	336.85
467.42	335.03
467.78	333.03
468.15	331.32
468.52	330.00
468.88	328.12
469.25	326.50
469.62	325.46
469.98	324.20
470.35	322.88
470.72	321.62
471.08	320.20
471.45	319.24
471.82	318.32
472.18	317.07
472.55	316.20
472.92	315.11
473.28	314.20
473.65	313.47
474.02	312.68
474.38	312.00
474.75	311.49
475.11	310.79
475.48	310.36
475.85	309.83
476.21	309.27
476.58	309.00
476.94	308.85
477.31	308.46
477.67	308.13
478.04	308.00
478.41	307.93
478.77	308.30
479.14	308.12
479.50	308.08
479.87	308.23
480.23	308.32
480.60	308.44
480.96	308.51
481.33	308.89
481.69	309.12
482.06	309.41
482.42	309.63
482.79	309.96
483.15	310.38
483.52	310.99
483.88	311.40
484.25	311.91
484.61	312.46
484.98	313.10
485.34	314.07
485.71	315.00
486.07	316.03
486.44	316.59
486.80	317.60
487.17	318.65
487.53	319.86
487.90	321.22
488.26	322.81
488.62	324.41
488.99	325.86
489.35	327.53
489.72	329.25
490.08	331.06
490.44	333.00
490.81	335.12
491.17	337.21
491.54	339.69
491.90	342.05
492.26	344.46
492.63	346.93
492.99	349.46
493.36	352.14
493.72	355.09
494.08	358.26
494.45	361.67
494.81	365.23
495.17	368.77
495.54	372.59
495.90	376.46
496.26	380.50
496.63	384.69
496.99	389.00
497.35	393.53
497.72	398.31
498.08	403.25
498.44	408.23
498.80	413.59
499.17	418.90
499.53	424.55
499.89	430.49
500.26	436.63
500.62	442.80
500.98	449.44
501.34	456.11
501.71	463.01
502.07	469.89
502.43	477.09
502.79	484.47
503.16	492.03
503.52	499.90
503.88	507.92
504.24	516.42
504.60	525.28
504.97	534.29
505.33	543.46
505.69	553.12
506.05	562.76
506.41	572.62
506.78	582.86
507.14	593.33
507.50	604.05
507.86	615.05
508.22	626.40
508.59	637.51
508.95	649.20
509.31	661.27
509.67	673.49
510.03	685.58
510.39	698.17
510.75	710.90
511.12	723.75
511.48	737.00
511.84	750.15
512.20	763.37
512.56	777.05
512.92	791.22
513.28	805.30
513.64	819.84
514.00	834.34
514.37	848.77
514.73	863.70
515.09	878.60
515.45	893.86
515.81	908.90
516.17	924.39
516.53	939.52
516.89	954.65
517.25	970.40
517.61	986.80
517.97	1003.27
518.33	1019.54
518.69	1035.91
519.05	1052.35
519.41	1069.03
519.77	1086.15
520.13	1102.65
520.49	1118.98
520.85	1136.98
521.21	1153.51
521.57	1170.51
521.93	1186.95
522.29	1203.66
522.65	1219.98
523.01	1236.01
523.37	1252.06
523.73	1268.28
524.09	1284.06
524.45	1300.13
524.81	1316.00
525.17	1331.80
525.53	1347.44
525.89	1363.25
526.25	1379.14
526.61	1394.50
526.97	1410.04
527.33	1425.94
527.68	1442.30
528.04	1458.01
528.40	1472.16
528.76	1487.57
529.12	1502.40
529.48	1517.76
529.84	1532.37
530.20	1547.81
530.56	1563.18
530.91	1578.50
531.27	1593.25
531.63	1608.18
531.99	1622.80
532.35	1637.32
532.71	1651.88
533.07	1666.42
533.42	1680.45
533.78	1694.05
534.14	1708.06
534.50	1721.44
534.86	1734.29
535.21	1746.04
535.57	1758.81
535.93	1770.50
536.29	1782.65
536.65	1794.83
537.00	1806.30
537.36	1817.63
537.72	1828.15
538.08	1839.05
538.44	1849.48
538.79	1860.09
539.15	1870.92
539.51	1880.80
539.87	1889.94
540.22	1898.25
540.58	1907.05
540.94	1914.98
541.29	1922.54
541.65	1929.65
542.01	1936.92
542.37	1942.81
542.72	1948.82
543.08	1954.30
543.44	1961.28
543.79	1966.25
544.15	1970.75
544.51	1976.25
544.87	1981.35
545.22	1985.41
545.58	1988.74
545.94	1991.67
546.29	1994.03
546.65	1996.24
547.01	1997.87
547.36	1999.43
547.72	2001.01
548.07	2001.10
548.43	2002.61
548.79	2003.20
549.14	2003.49
549.50	2003.71
549.86	2004.04
550.21	2004.36
550.57	2004.28
550.92	2002.32
551.28	2000.77
551.64	2000.43
551.99	1999.13
552.35	1997.85
552.70	1996.91
553.06	1995.87
553.41	1994.70
553.77	1993.79
554.13	1992.71
554.48	1991.81
554.84	1990.85
555.19	1989.27
555.55	1988.68
555.90	1985.78
556.26	1983.30
556.61	1980.58
556.97	1976.99
557.32	1974.15
557.68	1971.47
558.03	1968.21
558.39	1965.31
558.74	1963.06
559.10	1958.57
559.45	1953.82
559.81	1948.68
560.16	1943.17
560.52	1937.59
560.87	1932.31
561.23	1926.47
561.58	1920.20
561.94	1913.39
562.29	1905.92
562.64	1899.53
563.00	1891.85
563.35	1885.42
563.71	1878.97
564.06	1872.70
564.42	1866.22
564.77	1859.92
565.12	1852.57
565.48	1846.00
565.83	1839.04
566.19	1831.68
566.54	1824.79
566.89	1817.79
567.25	1810.89
567.60	1804.38
567.96	1797.97
568.31	1791.04
568.66	1783.59
569.02	1775.69
569.37	1768.63
569.72	1762.38
570.08	1754.51
570.43	1746.25
570.78	1738.74
571.14	1730.97
571.49	1722.57
571.84	1714.87
572.20	1706.07
572.55	1697.93
572.90	1688.80
573.26	1680.33
573.61	1671.47
573.96	1662.69
574.31	1653.49
574.67	1644.22
575.02	1634.45
575.37	1624.29
575.72	1614.23
576.08	1604.75
576.43	1595.37
576.78	1585.30
577.13	1575.10
577.49	1565.29
577.84	1556.36
578.19	1547.04
578.54	1537.66
578.90	1528.73
579.25	1519.38
579.60	1510.05
579.95	1500.60
580.30	1490.85
580.66	1480.59
581.01	1470.72
581.36	1460.49
581.71	1451.08
582.06	1441.54
582.42	1432.67
582.77	1423.54
583.12	1414.49
583.47	1405.25
583.82	1396.43
584.17	1387.93
584.53	1379.05
584.88	1369.80
585.23	1360.43
585.58	1350.29
585.93	1340.67
586.28	1330.86
586.63	1320.80
586.98	1310.74
587.34	1301.32
587.69	1291.98
588.04	1283.43
588.39	1274.45
588.74	1265.78
589.09	1257.03
589.44	1247.85
589.79	1238.95
590.14	1230.49
590.49	1222.24
590.84	1213.85
591.19	1205.16
591.54	1196.27
591.89	1187.82
592.25	1180.67
592.60	1172.65
592.95	1164.79
593.30	1156.51
593.65	1148.21
594.00	1139.96
594.35	1133.65
594.70	1125.40
595.05	1117.64
595.40	1109.30
595.75	1101.25
596.10	1093.42
596.45	1085.60
596.80	1078.22
597.15	1070.31
597.50	1062.22
597.85	1054.43
598.19	1046.40
598.54	1038.51
598.89	1030.94
599.24	1023.59
599.59	1015.51
599.94	1007.95
600.29	1000.81
600.64	993.67
600.99	986.47
601.34	979.96
601.69	971.80
602.04	964.99
602.39	958.25
602.74	951.85
603.08	945.47
603.43	939.20
603.78	932.55
604.13	926.21
604.48	919.76
604.83	913.20
605.18	906.48
605.53	900.16
605.87	894.00
606.22	888.22
606.57	882.02
606.92	875.68
607.27	869.84
607.62	863.87
607.96	858.15
608.31	853.00
608.66	847.37
609.01	841.64
609.36	836.04
609.70	830.38
610.05	824.48
610.40	818.80
610.75	812.95
611.10	807.40
611.44	801.63
611.79	795.95
612.14	790.49
612.49	785.05
612.83	779.96
613.18	774.70
613.53	769.38
613.88	764.07
614.22	758.75
614.57	753.25
614.92	747.89
615.27	742.71
615.61	737.29
615.96	732.02
616.31	726.80
616.65	721.84
617.00	716.77
617.35	711.81
617.70	706.88
618.04	701.90
618.39	697.13
618.74	692.56
619.08	688.06
619.43	683.40
619.78	678.69
620.12	673.91
620.47	669.32
620.82	664.60
621.16	659.72
621.51	655.68
621.85	651.36
622.20	646.90
622.55	642.49
622.89	638.09
623.24	633.83
623.59	629.65
623.93	625.49
624.28	621.40
624.62	617.79
624.97	613.92
625.32	610.01
625.66	605.94
626.01	601.69
626.35	597.73
626.70	593.90
627.04	590.48
627.39	586.65
627.73	583.00
628.08	579.37
628.43	575.88
628.77	572.05
629.12	568.47
629.46	565.11
629.81	561.86
630.15	558.54
630.50	555.16
630.84	551.82
631.19	548.45
631.53	545.37
631.88	541.64
632.22	538.20
632.57	535.23
632.91	532.20
633.26	529.36
633.60	526.38
633.95	523.34
634.29	520.01
634.64	517.10
634.98	513.96
635.32	511.18
635.67	508.47
636.01	505.67
636.36	502.80
636.70	500.20
637.05	497.41
637.39	494.74
637.73	492.08
638.08	489.54
638.42	486.74
638.77	483.76
639.11	480.96
639.45	478.04
639.80	474.97
640.14	472.15
640.49	469.30
640.83	466.57
641.17	464.16
641.52	461.68
641.86	459.24
642.20	457.08
642.55	454.40
642.89	451.88
643.23	449.37
643.58	447.29
643.92	444.68
644.26	442.29
644.61	440.12
644.95	437.78
645.29	435.28
645.64	433.04
645.98	430.87
646.32	428.83
646.66	426.75
647.01	424.86
647.35	423.01
647.69	421.11
648.04	419.29
648.38	417.28
648.72	415.23
649.06	413.04
649.41	410.82
649.75	408.81
650.09	406.84
650.43	405.01
650.78	402.84
651.12	400.87
651.46	398.93
651.80	396.91
652.14	395.05
652.49	393.35
652.83	391.67
653.17	389.97
653.51	388.16
653.85	386.64
654.20	384.88
654.54	383.03
654.88	381.22
655.22	379.64
655.56	377.94
655.90	376.22
656.25	374.81
656.59	373.27
656.93	371.75
657.27	370.39
657.61	368.67
657.95	367.24
658.29	365.79
658.64	364.33
658.98	362.69
659.32	361.15
659.66	359.65
660.00	358.18
660.34	356.69
660.68	355.24
661.02	353.76
661.36	352.36
661.70	351.04
662.05	349.57
662.39	348.23
662.73	347.04
663.07	346.09
663.41	344.73
663.75	343.30
664.09	342.01
664.43	340.58
664.77	339.44
665.11	338.11
665.45	336.96
665.79	335.79
666.13	334.72
666.47	333.53
666.81	332.37
667.15	331.06
667.49	329.99
667.83	329.04
668.17	327.95
668.51	326.92
668.85	325.86
669.19	325.17
669.53	324.03
669.87	322.92
670.21	321.75
670.55	320.76
670.89	320.14
671.23	319.20
671.57	318.27
671.91	317.33
672.25	316.45
672.58	315.62
672.92	314.64
673.26	313.68
673.60	312.83
673.94	311.99
674.28	311.33
674.62	310.58
674.96	309.68
675.30	308.85
675.64	308.00
675.97	307.26
676.31	306.26
676.65	305.42
676.99	304.82
677.33	303.93
677.67	303.20
678.01	302.15
678.34	301.45
678.68	300.78
679.02	299.94
679.36	299.17
679.70	298.45
680.04	297.75
680.37	297.04
680.71	296.36
681.05	295.73
681.39	295.12
681.73	294.40
682.06	293.70
682.40	293.08
682.74	292.54
683.08	292.05
683.42	291.43
683.75	290.90
684.09	290.12
684.43	289.55
684.77	288.88
685.10	288.43
685.44	287.81
685.78	287.25
686.12	286.69
686.45	286.18
686.79	285.44
687.13	285.05
687.46	284.58
687.80	284.14
688.14	283.50
688.48	282.87
688.81	282.36
689.15	281.94
689.49	281.39
689.82	280.95
690.16	280.12
690.50	279.64
690.83	279.12
691.17	278.50
691.51	278.06
691.84	277.59
692.18	277.00
692.52	276.45
692.85	275.98
693.19	275.72
693.52	275.26
693.86	274.84
694.20	274.30
694.53	273.87
694.87	273.29
695.21	272.86
695.54	272.44
695.88	271.87
696.21	271.29
696.55	270.91
696.88	270.30
697.22	269.94
697.56	269.43
697.89	268.87
698.23	268.56
698.56	268.03
698.90	267.72
699.23	267.22
699.57	266.86
699.90	266.34
700.24	265.78
700.58	265.43
700.91	265.12
701.25	265.10
701.58	265.11
701.92	264.95
702.25	264.64
702.59	264.20
702.92	263.89
703.26	263.56
703.59	263.13
703.93	263.29
704.26	263.03
704.60	262.75
704.93	262.44
705.26	262.06
705.60	261.91
705.93	261.46
706.27	261.37
706.60	261.11
706.94	261.08
707.27	260.81
707.61	260.53
707.94	260.22
708.27	259.55
708.61	258.84
708.94	258.49
709.28	258.15
709.61	257.84
709.94	257.59
710.28	257.36
710.61	257.13
710.95	256.37
711.28	256.35
711.61	256.05
711.95	255.93
712.28	255.60
712.61	255.27
712.95	255.33
713.28	255.22
713.61	254.90
713.95	254.40
714.28	254.22
714.61	253.87
714.95	253.61
715.28	253.32
715.61	253.10
715.95	252.81
716.28	252.45
716.61	252.32
716.95	252.04
717.28	251.76
717.61	251.45
717.94	251.20
718.28	250.71
718.61	250.45
718.94	250.10
719.27	249.93
719.61	249.70
719.94	249.27
720.27	248.89
720.60	248.61
720.94	248.50
721.27	248.29
721.60	248.17
721.93	248.03
722.27	248.03
722.60	247.84
722.93	247.60
723.26	247.59
723.59	247.38
723.93	247.28
724.26	247.17
724.59	246.95
724.92	246.88
725.25	246.81
725.59	246.70
725.92	246.60
726.25	246.39
726.58	246.34
726.91	246.21
727.24	246.10
727.57	245.99
727.91	245.70
728.24	245.57
728.57	245.42
728.90	245.25
729.23	244.89
729.56	244.96
729.89	244.84
730.22	244.61
730.55	244.49
730.89	244.33
731.22	244.16
731.55	244.09
731.88	243.94
732.21	243.67
732.54	243.53
732.87	243.43
733.20	243.36
733.53	243.15
733.86	243.07
734.19	242.81
734.52	242.77
734.85	242.98
735.18	242.80
735.51	242.74
735.84	242.58
736.17	242.59
736.50	242.18
736.83	242.61
737.16	242.44
737.49	242.27
737.82	242.08
738.15	241.97
738.48	241.83
738.81	241.71
739.14	241.53
739.47	241.40
739.80	241.24
740.13	241.10
740.46	240.88
740.79	240.64
741.12	240.55
741.45	240.36
741.78	240.00
742.11	239.94
742.44	239.75
742.77	239.77
743.10	239.65
743.43	239.50
743.75	238.88
744.08	239.45
744.41	239.27
744.74	239.11
745.07	238.96
745.40	238.93
745.73	238.98
746.06	238.88
746.39	238.76
746.71	238.66
747.04	238.51
747.37	238.46
747.70	238.45
748.03	238.38
748.36	238.31
748.68	238.11
749.01	237.91
749.34	237.76
749.67	237.57
750.00	237.43
750.33	237.72
750.65	237.62
750.98	236.94
751.31	236.91
751.64	236.88
751.97	237.07
752.29	236.95
752.62	236.62
752.95	236.49
753.28	236.34
753.60	236.14
753.93	236.11
754.26	236.07
754.59	235.81
754.91	235.66
755.24	235.57
755.57	235.62
755.90	235.47
756.22	235.37
756.55	235.19
756.88	235.00
757.20	234.60
757.53	234.37
757.86	234.33
758.19	234.25
758.51	234.11
758.84	233.75
759.17	233.66
759.49	233.60
759.82	233.80
760.15	233.81
760.47	233.72
760.80	233.61
761.13	233.62
761.45	233.52
761.78	233.45
762.11	233.33
762.43	233.14
762.76	233.01
763.08	233.04
763.41	233.06
763.74	233.08
764.06	233.01
764.39	233.02
764.71	232.95
765.04	232.90
765.37	232.82
765.69	232.75
766.02	232.64
766.34	232.45
766.67	232.26
767.00	232.25
767.32	232.50
767.65	232.77
767.97	232.66
768.30	232.67
768.62	232.68
768.95	232.61
769.27	232.57
769.60	232.73
769.92	232.59
770.25	232.46
770.57	232.30
770.90	232.24
771.22	232.15
771.55	232.05
771.87	232.00
772.20	232.00
772.52	232.41
772.85	232.94
773.17	233.01
773.50	232.87
773.82	232.74
774.15	232.51
774.47	232.14
774.80	232.03
775.12	232.05
775.45	231.97
775.77	231.97
776.09	231.98
776.42	231.88
776.74	232.02
777.07	231.90
777.39	231.87
777.72	231.81
778.04	231.84
778.36	231.79
778.69	231.73
779.01	231.71
779.33	231.22
779.66	230.66
779.98	230.60
780.31	230.58
780.63	230.75
780.95	230.79
781.28	230.73
781.60	230.69
781.92	230.57
782.25	230.56
782.57	230.47
782.89	230.48
783.22	230.45
783.54	230.29
783.86	230.37
784.19	230.39
784.51	230.53
784.83	230.39
785.16	230.30
785.48	230.25
785.80	230.23
786.12	230.29
786.45	230.26
786.77	230.25
787.09	230.22
787.42	230.01
787.74	229.99
788.06	230.03
788.38	229.96
788.71	229.96
789.03	229.91
789.35	230.01
789.67	229.80
789.99	229.80
790.32	229.69
790.64	229.63
790.96	229.90
791.28	229.67
791.61	229.66
791.93	229.70
792.25	229.61
792.57	229.94
792.89	229.76
793.21	229.74
793.54	229.69
793.86	229.57
794.18	229.58
794.50	229.37
794.82	229.26
795.14	229.30
795.47	229.40
795.79	229.34
796.11	229.21
796.43	229.20
796.75	229.16
797.07	229.17
797.39	229.06
797.71	228.76
798.04	228.80
798.36	228.78
798.68	228.79
799.00	228.85
799.32	228.53
799.64	228.65
799.96	228.66
800.28	228.79
800.60	228.78
800.92	228.77
801.24	228.80
801.56	228.90
801.89	228.89
802.21	228.90
802.53	228.79
802.85	228.89
803.17	229.14
803.49	229.03
803.81	228.97
804.13	229.04
804.45	228.96
804.77	229.05
805.09	229.05
805.41	228.97
805.73	228.90
806.05	228.81
806.37	228.70
806.69	228.58
807.01	228.40
807.33	228.43
807.65	228.30
807.97	228.58
808.28	228.46
808.60	228.38
808.92	228.27
809.24	228.63
809.56	228.50
809.88	228.25
810.20	228.32
810.52	228.38
810.84	228.33
811.16	228.30
811.48	228.13
811.80	228.31
812.12	228.33
812.43	228.41
812.75	228.45
813.07	228.49
813.39	228.56
813.71	228.57
814.03	228.50
814.35	228.46
814.67	228.20
814.98	228.18
815.30	228.27
815.62	228.15
815.94	227.83
816.26	227.98
816.58	227.91
816.89	227.96
817.21	227.85
817.53	227.93
817.85	227.95
818.17	227.97
818.48	227.79
818.80	227.78
819.12	227.70
819.44	227.60
819.76	227.48
820.07	227.46
820.39	227.36
820.71	227.42
821.03	227.50
821.34	227.41
821.66	227.46
821.98	227.36
822.30	227.39
822.61	227.64
822.93	227.44
823.25	227.43
823.57	227.32
823.88	227.44
824.20	227.41
824.52	227.46
824.83	227.39
825.15	227.27
825.47	227.30
825.79	227.30
826.10	227.20
826.42	227.17
826.74	227.23
827.05	227.24
827.37	227.19
827.69	227.12
828.00	227.11
828.32	227.10
828.64	227.06
828.95	227.22
829.27	227.01
829.58	227.00
829.90	227.19
830.22	227.16
830.53	227.05
830.85	226.93
831.17	226.83
831.48	226.93
831.80	227.01
832.11	226.90
832.43	226.87
832.75	227.03
833.06	227.36
833.38	227.13
833.69	227.17
834.01	227.19
834.32	227.15
834.64	227.17
834.96	227.12
835.27	227.18
835.59	227.08
835.90	227.04
836.22	227.04
836.53	226.87
836.85	226.84
837.16	227.26
837.48	227.29
837.79	227.41
838.11	227.38
838.42	227.33
838.74	227.44
839.05	227.36
839.37	227.28
839.68	226.90
840.00	226.95
840.31	227.00
840.63	227.01
840.94	227.03
841.26	226.99
841.57	227.02
841.88	227.03
842.20	226.89
842.51	226.87
842.83	226.85
843.14	227.29
843.46	227.29
843.77	227.07
844.08	226.99
844.40	226.80
844.71	226.72
845.03	226.74
845.34	226.71
845.65	226.78
845.97	226.81
846.28	226.90
846.60	226.97
846.91	226.92
847.22	226.90
847.54	226.97
847.85	226.96
848.16	226.91
848.48	226.76
848.79	227.05
849.10	227.10
849.42	227.11
849.73	226.72
850.04	226.73
850.36	226.55
850.67	226.69
850.98	226.80
851.30	226.85
851.61	226.87
851.92	226.84
852.23	226.95
852.55	226.94
852.86	226.94
853.17	226.97
853.49	227.08
853.80	227.13
854.11	227.23
854.42	227.30
854.74	227.23
855.05	227.33
855.36	227.09
855.67	227.08
855.99	227.14
856.30	227.68
856.61	227.66
856.92	227.67
857.23	227.67
857.55	227.50
857.86	227.51
858.17	227.52
858.48	227.44
858.79	227.37
859.11	227.39
859.42	227.35
859.73	227.30
860.04	227.28
860.35	227.17
860.66	226.92
860.98	226.90
861.29	227.01
861.60	226.90
861.91	227.00
862.22	226.96
862.53	226.87
862.84	226.26
863.16	226.34
863.47	226.21
863.78	226.23
864.09	226.37
864.40	226.38
864.71	226.40
865.02	226.45
865.33	226.40
865.64	226.36
865.95	226.35
866.27	226.57
866.58	226.44
866.89	226.54
867.20	226.56
867.51	226.55
867.82	226.49
868.13	226.71
868.44	226.60
868.75	226.65
869.06	226.67
869.37	226.72
869.68	226.58
869.99	226.72
870.30	226.69
870.61	226.72
870.92	226.70
871.23	226.65
871.54	226.75
871.85	226.86
872.16	226.85
872.47	226.87
872.78	226.69
873.09	226.72
873.40	226.64
873.71	226.70
874.02	226.68
874.33	226.64
874.64	226.46
874.95	226.53
875.26	226.41
875.56	226.38
875.87	226.31
876.18	226.30
876.49	226.76
876.80	226.65
877.11	226.56
877.42	226.50
877.73	226.43
878.04	226.35
878.35	226.29
878.66	226.30
878.96	226.28
879.27	226.16
879.58	226.16
879.89	226.13
880.20	226.23
880.51	226.22
880.82	226.27
881.12	226.36
881.43	226.28
881.74	226.27
882.05	226.24
882.36	226.26
882.67	226.32
882.97	225.80
883.28	225.80
883.59	225.77
883.90	225.80
884.21	225.90
884.51	225.83
884.82	225.72
885.13	225.73
885.44	225.74
885.74	225.72
886.05	225.77
886.36	225.82
886.67	225.67
886.98	225.91
887.28	225.90
887.59	225.83
887.90	225.80
888.20	225.76
888.51	225.85
888.82	225.85
889.13	225.88
889.43	226.28
889.74	226.23
890.05	226.18
890.35	226.19
890.66	226.15
890.97	226.11
891.28	226.05
891.58	226.09
891.89	226.10
892.20	226.10
892.50	226.02
892.81	226.00
893.12	226.02
893.42	225.77
893.73	225.80
894.04	225.80
894.34	225.85
894.65	225.82
894.95	225.79
895.26	225.80
895.57	225.97
895.87	225.49
896.18	225.58
896.48	225.68
896.79	225.69
897.10	225.75
897.40	225.78
897.71	225.90
898.01	225.81
898.32	225.87
898.63	225.75
898.93	225.75
899.24	225.71
899.54	225.69
899.85	225.68
900.15	225.63
900.46	225.65
900.76	225.67
901.07	225.66
901.38	225.67
901.68	225.73
901.99	225.55
902.29	225.60
902.60	225.62
902.90	225.63
903.21	225.54
903.51	225.47
903.82	225.60
904.12	225.55
904.43	225.56
904.73	225.50
905.03	225.67
905.34	226.13
905.64	226.14
905.95	226.12
906.25	226.12
906.56	226.17
906.86	226.16
907.17	226.20
907.47	226.26
907.77	226.20
908.08	226.05
908.38	226.06
908.69	226.03
908.99	226.13
909.30	226.17
909.60	226.24
909.90	226.30
910.21	226.14
910.51	226.08
910.81	226.14
911.12	226.19
911.42	226.18
911.73	225.69
912.03	225.67
912.33	225.84
912.64	225.79
912.94	225.67
913.24	225.59
913.55	225.56
913.85	225.58
914.15	225.72
914.46	225.85
914.76	225.78
915.06	225.83
915.37	225.70
915.67	225.57
915.97	225.58
916.27	225.44
916.58	225.50
916.88	225.46
917.18	225.45
917.49	225.76
917.79	225.73
918.09	225.82
918.39	225.97
918.70	225.83
919.00	225.86
919.30	226.18
919.60	226.16
919.91	226.12
920.21	226.13
920.51	225.87
920.81	225.83
921.12	225.93
921.42	225.88
921.72	225.93
922.02	225.98
922.32	226.03
922.63	226.06
922.93	226.26
923.23	226.30
923.53	226.21
923.83	225.83
924.13	225.88
924.44	225.93
924.74	225.95
925.04	226.12
925.34	226.08
925.64	225.84
925.94	225.84
926.24	226.07
926.55	226.00
926.85	226.20
927.15	226.20
927.45	226.18
927.75	226.26
928.05	226.18
928.35	226.16
928.65	226.25
928.95	226.27
929.26	226.14
929.56	226.30
929.86	226.39
930.16	226.39
930.46	226.35
930.76	226.32
931.06	226.14
931.36	225.93
931.66	226.00
931.96	226.03
932.26	226.08
932.56	225.91
932.86	225.99
933.16	225.94
933.46	225.92
933.76	225.84
934.06	225.85
934.36	226.09
934.66	226.06
934.96	225.99
935.26	226.07
935.56	226.03
935.86	225.85
936.16	225.77
936.46	225.72
936.76	225.66
937.06	225.56
937.36	225.62
937.66	225.71
937.96	225.68
938.26	225.60
938.56	225.51
938.86	225.51
939.16	225.57
939.46	225.62
939.76	225.60
940.06	225.61
940.35	225.52
940.65	225.30
940.95	225.35
941.25	225.23
941.55	225.10
941.85	225.13
942.15	225.25
942.45	225.39
942.75	225.40
943.04	225.46
943.34	225.60
943.64	225.58
943.94	225.42
944.24	225.45
944.54	225.47
944.84	225.51
945.13	225.41
945.43	225.35
945.73	225.37
946.03	225.35
946.33	225.36
946.62	225.39
946.92	225.31
947.22	225.30
947.52	225.34
947.82	225.40
948.11	225.36
948.41	225.25
948.71	225.09
949.01	225.14
949.31	225.12
949.60	225.06
949.90	225.11
950.20	225.18
950.50	225.23
950.79	225.21
951.09	225.39
951.39	225.40
951.69	225.39
951.98	225.45
952.28	225.50
952.58	225.44
952.87	225.45
953.17	225.66
953.47	225.61
953.76	225.66
954.06	225.60
954.36	225.57
954.66	225.57
954.95	225.69
955.25	225.74
955.55	225.71
955.84	225.63
956.14	225.71
956.44	225.71
956.73	225.56
957.03	225.60
957.32	225.51
957.62	225.50
957.92	225.55
958.21	225.51
958.51	226.01
958.81	226.11
959.10	226.12
959.40	226.10
959.69	226.19
959.99	226.20
960.29	226.27
960.58	226.20
960.88	226.50
961.17	226.50
961.47	226.54
961.76	226.59
962.06	226.69
962.36	226.57
962.65	226.65
962.95	226.73
963.24	226.69
963.54	226.72
963.83	226.77
964.13	226.80
964.42	226.65
964.72	226.27
965.01	226.28
965.31	226.25
965.60	226.16
965.90	226.43
966.19	226.33
966.49	226.31
966.78	226.31
967.08	226.20
967.37	226.16
967.67	226.05
967.96	226.13
968.26	226.08
968.55	226.18
968.85	226.15
969.14	226.13
969.43	226.16
969.73	226.10
970.02	226.08
970.32	225.98
970.61	225.99
970.91	225.90
971.20	225.76
971.49	225.72
971.79	225.72
972.08	225.45
972.38	225.48
972.67	225.52
972.96	225.61
973.26	225.53
973.55	225.69
973.85	225.68
974.14	225.62
974.43	225.62
974.73	225.53
975.02	225.46
975.31	225.49
975.61	225.43
975.90	225.43
976.19	225.35
976.49	225.44
976.78	225.48
977.07	225.48
977.37	225.57
977.66	225.69
977.95	225.64
978.24	225.64
978.54	225.73
978.83	225.67
979.12	225.63
979.42	225.60
979.71	225.53
980.00	225.56
980.29	225.63
980.59	225.62
980.88	225.70
981.17	225.72
981.46	225.68
981.76	225.68
982.05	225.79
982.34	225.90
982.63	225.88
982.93	225.91
983.22	226.03
983.51	225.99
983.80	226.00
984.09	226.12
984.39	226.04
984.68	225.99
984.97	226.01
985.26	226.04
985.55	226.15
985.85	226.01
986.14	226.06
986.43	226.07
986.72	225.99
987.01	225.88
987.30	225.88
987.59	225.85
987.89	225.88
988.18	225.72
988.47	225.67
988.76	225.68
989.05	225.60
989.34	225.52
989.63	225.67
989.92	225.60
990.22	225.50
990.51	225.57
990.80	225.55
991.09	225.57
991.38	225.61
991.67	225.57
991.96	225.59
992.25	225.65
992.54	225.49
992.83	225.52
993.12	225.51
993.41	225.63
993.70	225.80
993.99	225.89
994.28	226.05
994.58	226.16
994.87	226.12
995.16	226.16
995.45	226.10
995.74	225.92
996.03	225.99
996.32	226.06
996.61	226.12
996.90	226.15
997.19	226.15
997.48	226.13
997.77	225.99
998.06	225.95
998.34	225.85
998.63	225.91
998.92	225.95
999.21	226.01
999.50	225.98
999.79	225.88
1000.08	225.94
1000.37	225.97
1000.66	225.81
1000.95	225.87
1001.24	225.94
1001.53	226.01
1001.82	226.05
1002.11	225.94
1002.40	226.07
1002.68	226.15
1002.97	226.44
1003.26	226.41
1003.55	226.35
1003.84	226.43
1004.13	226.66
1004.42	226.64
1004.71	226.63
1004.99	226.55
1005.28	226.72
1005.57	226.66
1005.86	226.57
1006.15	226.47
1006.44	226.30
1006.72	226.42
1007.01	226.33
1007.30	226.27
1007.59	226.28
1007.88	226.29
1008.17	226.32
1008.45	226.12
1008.74	225.95
1009.03	225.73
1009.32	225.71
1009.60	225.67
1009.89	225.62
1010.18	225.30
1010.47	225.35
1010.76	225.33
1011.04	225.34
1011.33	225.31
1011.62	225.25
1011.91	225.32
1012.19	225.27
1012.48	225.31
1012.77	225.31
1013.05	225.55
1013.34	225.57
1013.63	225.49
1013.92	225.47
1014.20	225.44
1014.49	225.46
1014.78	225.48
1015.06	225.28
1015.35	225.27
1015.64	225.40
1015.92	225.47
1016.21	225.55
1016.50	225.55
1016.78	225.62
1017.07	225.67
1017.36	225.48
1017.64	225.46
1017.93	225.48
1018.22	225.48
1018.50	225.43
1018.79	225.41
1019.08	225.13
1019.36	225.14
1019.65	225.13
1019.93	225.27
1020.22	225.30
1020.51	225.55
1020.79	225.49
1021.08	224.55
1021.36	224.30
1021.65	226.05
1021.94	224.25
1022.22	225.85
1022.51	225.25
1022.79	228.15
1023.08	225.05
1023.36	230.90
1023.65	224.35
>>>>>End Processed Spectral Data<<<<<
