SpectraSuite Data File
++++++++++++++++++++++++++++++++++++
Date: Wed Sep 04 17:40:37 EDT 2013
User: lab3
Dark Spectrum Present: Yes
Reference Spectrum Present: No
Number of Sampled Component Spectra: 1
Spectrometers: USB2E7196
Integration Time (usec): 170000 (USB2E7196)
Spectra Averaged: 20 (USB2E7196)
Boxcar Smoothing: 10 (USB2E7196)
Correct for Electrical Dark: No (USB2E7196)
Strobe/Lamp Enabled: No (USB2E7196)
Correct for Detector Non-linearity: No (USB2E7196)
Correct for Stray Light: No (USB2E7196)
Number of Pixels in Processed Spectrum: 2048
>>>>>Begin Processed Spectral Data<<<<<
339.09	0.00
339.48	212.50
339.86	214.30
340.24	215.05
340.63	216.25
341.01	224.65
341.39	220.15
341.78	221.20
342.16	223.15
342.54	223.15
342.93	211.89
343.31	222.53
343.69	223.11
344.07	223.54
344.46	224.05
344.84	224.46
345.22	224.46
345.60	224.72
345.99	224.92
346.37	225.04
346.75	225.08
347.13	225.06
347.52	225.11
347.90	225.33
348.28	225.42
348.66	225.59
349.05	225.47
349.43	225.56
349.81	225.57
350.19	225.52
350.57	225.61
350.96	225.70
351.34	225.85
351.72	225.95
352.10	226.07
352.48	226.09
352.87	226.14
353.25	226.18
353.63	226.20
354.01	226.22
354.39	226.21
354.77	226.30
355.15	226.53
355.54	226.52
355.92	226.37
356.30	226.39
356.68	226.66
357.06	226.75
357.44	226.70
357.82	226.77
358.20	227.31
358.58	227.33
358.97	227.42
359.35	227.52
359.73	227.66
360.11	227.68
360.49	227.74
360.87	227.79
361.25	227.93
361.63	228.19
362.01	228.33
362.39	228.43
362.77	228.60
363.15	228.67
363.53	228.74
363.91	228.82
364.29	228.88
364.67	228.51
365.05	228.55
365.43	228.64
365.81	228.78
366.19	228.55
366.57	228.68
366.95	228.74
367.33	228.68
367.71	228.64
368.09	228.81
368.47	228.84
368.85	228.86
369.23	228.91
369.61	228.68
369.99	228.79
370.37	228.75
370.75	228.88
371.13	228.66
371.51	228.63
371.89	228.67
372.27	228.68
372.65	228.71
373.03	228.65
373.41	228.62
373.78	228.47
374.16	228.20
374.54	228.04
374.92	227.83
375.30	227.78
375.68	227.63
376.06	227.59
376.44	227.49
376.82	227.47
377.19	227.36
377.57	227.30
377.95	227.12
378.33	227.08
378.71	226.76
379.09	226.80
379.47	226.83
379.84	226.72
380.22	226.56
380.60	226.42
380.98	226.36
381.36	226.22
381.73	226.15
382.11	226.23
382.49	226.18
382.87	226.11
383.25	226.07
383.62	226.53
384.00	226.30
384.38	226.30
384.76	226.30
385.13	226.47
385.51	226.43
385.89	226.30
386.27	226.21
386.64	226.31
387.02	226.21
387.40	226.10
387.78	226.10
388.15	226.16
388.53	226.10
388.91	226.04
389.29	226.05
389.66	226.14
390.04	225.97
390.42	226.03
390.79	226.08
391.17	226.05
391.55	225.58
391.92	225.61
392.30	225.63
392.68	225.53
393.05	225.43
393.43	225.44
393.81	225.51
394.18	225.58
394.56	225.55
394.94	225.67
395.31	225.69
395.69	225.90
396.06	225.90
396.44	226.08
396.82	226.14
397.19	226.40
397.57	226.33
397.95	226.53
398.32	226.45
398.70	226.61
399.07	226.81
399.45	226.79
399.82	226.86
400.20	226.90
400.58	226.99
400.95	226.95
401.33	227.20
401.70	227.64
402.08	227.77
402.45	227.84
402.83	228.09
403.20	228.21
403.58	228.23
403.95	228.50
404.33	228.64
404.71	228.85
405.08	229.23
405.46	229.52
405.83	229.70
406.21	230.00
406.58	230.10
406.96	230.28
407.33	230.66
407.70	231.00
408.08	231.69
408.45	232.06
408.83	232.46
409.20	232.75
409.58	232.81
409.95	233.28
410.33	233.75
410.70	233.98
411.08	234.63
411.45	235.11
411.82	235.54
412.20	236.19
412.57	237.06
412.95	237.28
413.32	238.03
413.69	238.70
414.07	239.40
414.44	240.29
414.82	241.17
415.19	242.14
415.56	243.02
415.94	243.84
416.31	245.06
416.68	246.19
417.06	247.56
417.43	248.95
417.81	250.31
418.18	251.76
418.55	253.40
418.93	254.95
419.30	256.68
419.67	258.53
420.04	260.37
420.42	262.20
420.79	264.84
421.16	267.05
421.54	269.61
421.91	272.13
422.28	274.64
422.66	277.34
423.03	280.20
423.40	283.02
423.77	285.85
424.15	288.73
424.52	291.88
424.89	295.32
425.26	298.55
425.64	301.75
426.01	305.25
426.38	308.90
426.75	312.67
427.13	316.50
427.50	320.44
427.87	324.57
428.24	328.69
428.61	332.44
428.99	336.88
429.36	341.43
429.73	345.90
430.10	350.56
430.47	355.26
430.85	359.79
431.22	364.94
431.59	370.65
431.96	375.91
432.33	381.71
432.70	387.20
433.08	393.75
433.45	399.92
433.82	406.10
434.19	412.89
434.56	419.64
434.93	425.99
435.30	432.45
435.68	439.57
436.05	446.41
436.42	453.24
436.79	459.64
437.16	466.53
437.53	473.91
437.90	481.06
438.27	488.17
438.64	495.50
439.01	502.41
439.38	508.29
439.75	514.27
440.13	520.92
440.50	527.14
440.87	532.19
441.24	537.44
441.61	543.21
441.98	547.41
442.35	552.16
442.72	557.15
443.09	561.97
443.46	564.88
443.83	566.97
444.20	568.57
444.57	570.82
444.94	571.76
445.31	572.87
445.68	574.27
446.05	574.42
446.42	573.55
446.79	572.50
447.16	571.28
447.53	570.23
447.90	567.30
448.27	564.29
448.64	560.28
449.01	557.32
449.37	552.30
449.74	547.40
450.11	541.87
450.48	535.59
450.85	529.04
451.22	523.31
451.59	517.92
451.96	512.80
452.33	506.05
452.70	500.00
453.07	492.77
453.43	485.00
453.80	478.19
454.17	471.55
454.54	465.16
454.91	458.47
455.28	451.88
455.65	445.73
456.02	440.23
456.38	435.07
456.75	428.66
457.12	423.23
457.49	417.98
457.86	412.72
458.23	408.35
458.59	403.59
458.96	398.84
459.33	394.61
459.70	390.46
460.07	387.20
460.43	383.35
460.80	379.77
461.17	376.83
461.54	373.52
461.91	370.44
462.27	367.28
462.64	364.47
463.01	361.51
463.38	358.81
463.74	355.42
464.11	352.90
464.48	350.77
464.85	348.40
465.21	346.76
465.58	344.87
465.95	342.57
466.32	340.89
466.68	338.99
467.05	337.08
467.42	335.25
467.78	333.23
468.15	331.49
468.52	330.25
468.88	328.41
469.25	326.81
469.62	325.60
469.98	324.23
470.35	323.12
470.72	321.93
471.08	320.48
471.45	319.47
471.82	318.47
472.18	317.22
472.55	316.48
472.92	315.38
473.28	314.46
473.65	313.58
474.02	312.56
474.38	311.94
474.75	311.37
475.11	310.65
475.48	310.23
475.85	309.73
476.21	309.10
476.58	308.68
476.94	308.41
477.31	308.09
477.67	307.74
478.04	307.51
478.41	307.41
478.77	307.75
479.14	307.52
479.50	307.38
479.87	307.54
480.23	307.60
480.60	307.67
480.96	307.88
481.33	308.38
481.69	308.69
482.06	308.92
482.42	309.18
482.79	309.61
483.15	310.03
483.52	310.55
483.88	311.09
484.25	311.69
484.61	312.38
484.98	312.98
485.34	313.95
485.71	314.84
486.07	315.72
486.44	316.24
486.80	317.34
487.17	318.44
487.53	319.68
487.90	320.95
488.26	322.40
488.62	323.80
488.99	325.11
489.35	326.73
489.72	328.47
490.08	330.30
490.44	332.17
490.81	334.32
491.17	336.32
491.54	338.65
491.90	341.10
492.26	343.47
492.63	346.05
492.99	348.62
493.36	351.43
493.72	354.50
494.08	357.72
494.45	361.04
494.81	364.70
495.17	368.27
495.54	372.13
495.90	375.98
496.26	380.05
496.63	384.27
496.99	388.50
497.35	393.11
497.72	397.90
498.08	402.82
498.44	407.95
498.80	413.51
499.17	418.99
499.53	424.44
499.89	430.41
500.26	436.47
500.62	442.65
500.98	449.22
501.34	455.93
501.71	462.70
502.07	469.72
502.43	476.78
502.79	484.20
503.16	491.79
503.52	499.75
503.88	507.85
504.24	516.32
504.60	525.22
504.97	534.39
505.33	543.61
505.69	553.37
506.05	562.87
506.41	572.62
506.78	582.72
507.14	593.29
507.50	603.86
507.86	614.85
508.22	626.18
508.59	637.37
508.95	649.06
509.31	661.28
509.67	673.35
510.03	685.52
510.39	698.16
510.75	711.09
511.12	724.00
511.48	737.13
511.84	750.42
512.20	763.68
512.56	777.18
512.92	791.35
513.28	805.45
513.64	819.79
514.00	834.28
514.37	849.08
514.73	864.03
515.09	879.29
515.45	894.48
515.81	909.59
516.17	925.09
516.53	940.09
516.89	955.19
517.25	971.05
517.61	987.43
517.97	1003.57
518.33	1019.63
518.69	1035.94
519.05	1052.45
519.41	1069.04
519.77	1085.97
520.13	1102.74
520.49	1119.05
520.85	1136.88
521.21	1153.69
521.57	1170.65
521.93	1186.67
522.29	1203.40
522.65	1219.35
523.01	1235.49
523.37	1251.32
523.73	1267.60
524.09	1283.63
524.45	1299.65
524.81	1315.64
525.17	1331.42
525.53	1347.15
525.89	1362.95
526.25	1378.38
526.61	1393.91
526.97	1409.67
527.33	1425.61
527.68	1441.79
528.04	1457.70
528.40	1471.88
528.76	1487.57
529.12	1502.25
529.48	1517.81
529.84	1532.05
530.20	1547.61
530.56	1562.67
530.91	1578.19
531.27	1592.70
531.63	1607.70
531.99	1622.66
532.35	1636.94
532.71	1651.51
533.07	1666.17
533.42	1680.15
533.78	1694.51
534.14	1708.31
534.50	1721.28
534.86	1734.26
535.21	1746.04
535.57	1758.39
535.93	1770.19
536.29	1781.86
536.65	1794.48
537.00	1806.15
537.36	1818.18
537.72	1828.91
538.08	1840.04
538.44	1850.81
538.79	1861.41
539.15	1871.95
539.51	1881.99
539.87	1891.59
540.22	1899.95
540.58	1908.80
540.94	1916.65
541.29	1923.84
541.65	1931.00
542.01	1938.47
542.37	1944.39
542.72	1950.45
543.08	1956.17
543.44	1962.79
543.79	1967.80
544.15	1972.52
544.51	1977.49
544.87	1982.02
545.22	1985.88
545.58	1989.66
545.94	1992.50
546.29	1994.75
546.65	1996.78
547.01	1998.23
547.36	1999.82
547.72	2001.34
548.07	2001.41
548.43	2002.76
548.79	2003.64
549.14	2004.16
549.50	2004.36
549.86	2004.60
550.21	2004.70
550.57	2004.74
550.92	2003.18
551.28	2001.52
551.64	2000.73
551.99	1999.73
552.35	1998.67
552.70	1997.71
553.06	1996.54
553.41	1995.11
553.77	1994.27
554.13	1992.85
554.48	1991.79
554.84	1990.41
555.19	1988.99
555.55	1988.36
555.90	1985.64
556.26	1983.13
556.61	1979.92
556.97	1976.20
557.32	1973.75
557.68	1970.82
558.03	1967.35
558.39	1964.14
558.74	1961.97
559.10	1957.73
559.45	1953.12
559.81	1947.68
560.16	1942.19
560.52	1936.41
560.87	1931.21
561.23	1925.35
561.58	1919.85
561.94	1913.01
562.29	1905.81
562.64	1898.97
563.00	1890.93
563.35	1884.66
563.71	1878.02
564.06	1872.04
564.42	1865.76
564.77	1858.92
565.12	1852.07
565.48	1845.58
565.83	1838.60
566.19	1831.43
566.54	1824.37
566.89	1817.23
567.25	1810.71
567.60	1804.20
567.96	1797.49
568.31	1790.75
568.66	1783.45
569.02	1775.35
569.37	1768.39
569.72	1761.83
570.08	1754.25
570.43	1746.45
570.78	1738.71
571.14	1730.79
571.49	1722.02
571.84	1714.39
572.20	1706.01
572.55	1697.63
572.90	1688.47
573.26	1679.89
573.61	1670.77
573.96	1661.98
574.31	1652.56
574.67	1642.87
575.02	1633.17
575.37	1623.15
575.72	1612.85
576.08	1603.60
576.43	1594.29
576.78	1584.10
577.13	1573.78
577.49	1564.20
577.84	1555.23
578.19	1546.08
578.54	1536.84
578.90	1528.12
579.25	1518.71
579.60	1509.29
579.95	1499.91
580.30	1490.16
580.66	1480.35
581.01	1470.54
581.36	1460.26
581.71	1450.99
582.06	1441.80
582.42	1432.73
582.77	1423.51
583.12	1414.76
583.47	1405.54
583.82	1396.61
584.17	1387.97
584.53	1379.36
584.88	1369.77
585.23	1360.54
585.58	1350.35
585.93	1340.81
586.28	1331.08
586.63	1321.09
586.98	1310.76
587.34	1301.36
587.69	1292.20
588.04	1283.28
588.39	1274.83
588.74	1265.91
589.09	1257.11
589.44	1247.93
589.79	1239.05
590.14	1230.64
590.49	1221.94
590.84	1213.50
591.19	1205.01
591.54	1196.36
591.89	1187.92
592.25	1180.90
592.60	1172.72
592.95	1164.91
593.30	1156.61
593.65	1148.32
594.00	1140.02
594.35	1133.81
594.70	1125.47
595.05	1117.42
595.40	1109.23
595.75	1100.71
596.10	1093.08
596.45	1085.34
596.80	1077.95
597.15	1070.03
597.50	1062.02
597.85	1054.24
598.19	1046.11
598.54	1038.20
598.89	1030.59
599.24	1023.10
599.59	1015.02
599.94	1007.44
600.29	1000.20
600.64	992.98
600.99	985.96
601.34	979.38
601.69	971.31
602.04	964.61
602.39	958.06
602.74	951.95
603.08	945.65
603.43	939.40
603.78	932.85
604.13	926.25
604.48	919.81
604.83	913.15
605.18	906.43
605.53	899.94
605.87	893.62
606.22	887.75
606.57	881.54
606.92	875.20
607.27	869.42
607.62	863.51
607.96	858.19
608.31	852.85
608.66	847.23
609.01	841.44
609.36	835.59
609.70	829.90
610.05	823.93
610.40	818.01
610.75	812.10
611.10	806.44
611.44	800.74
611.79	795.24
612.14	790.06
612.49	784.94
612.83	779.82
613.18	774.57
613.53	769.45
613.88	764.24
614.22	759.24
614.57	753.67
614.92	748.36
615.27	743.00
615.61	737.52
615.96	732.29
616.31	727.21
616.65	722.58
617.00	717.50
617.35	712.49
617.70	707.81
618.04	703.01
618.39	698.12
618.74	693.73
619.08	689.18
619.43	684.54
619.78	679.62
620.12	674.92
620.47	670.30
620.82	665.27
621.16	660.62
621.51	656.19
621.85	651.83
622.20	647.37
622.55	642.81
622.89	638.49
623.24	634.21
623.59	629.88
623.93	625.46
624.28	621.38
624.62	617.65
624.97	613.90
625.32	610.06
625.66	606.08
626.01	601.97
626.35	598.14
626.70	594.30
627.04	590.90
627.39	587.18
627.73	583.60
628.08	580.30
628.43	576.57
628.77	572.72
629.12	569.16
629.46	565.99
629.81	562.82
630.15	559.50
630.50	556.30
630.84	553.11
631.19	549.96
631.53	546.83
631.88	543.10
632.22	539.57
632.57	536.54
632.91	533.46
633.26	530.39
633.60	527.19
633.95	523.91
634.29	520.48
634.64	517.47
634.98	514.32
635.32	511.34
635.67	508.66
636.01	505.97
636.36	503.07
636.70	500.20
637.05	497.33
637.39	494.68
637.73	491.87
638.08	489.24
638.42	486.30
638.77	483.53
639.11	480.82
639.45	478.10
639.80	475.00
640.14	472.31
640.49	469.66
640.83	467.11
641.17	464.79
641.52	462.31
641.86	459.97
642.20	457.71
642.55	455.00
642.89	452.53
643.23	449.99
643.58	447.96
643.92	445.47
644.26	443.11
644.61	440.85
644.95	438.51
645.29	436.00
645.64	433.96
645.98	431.56
646.32	429.45
646.66	427.14
647.01	425.30
647.35	423.36
647.69	421.26
648.04	419.25
648.38	417.23
648.72	415.25
649.06	413.05
649.41	410.89
649.75	408.93
650.09	406.90
650.43	405.02
650.78	402.88
651.12	400.90
651.46	398.90
651.80	396.98
652.14	395.04
652.49	393.49
652.83	391.63
653.17	389.91
653.51	388.04
653.85	386.38
654.20	384.61
654.54	382.75
654.88	381.05
655.22	379.58
655.56	377.90
655.90	376.33
656.25	374.77
656.59	373.18
656.93	371.68
657.27	370.29
657.61	368.67
657.95	367.20
658.29	365.70
658.64	364.32
658.98	362.76
659.32	361.19
659.66	359.56
660.00	358.07
660.34	356.73
660.68	355.30
661.02	353.95
661.36	352.41
661.70	351.04
662.05	349.60
662.39	348.23
662.73	347.00
663.07	345.87
663.41	344.60
663.75	343.28
664.09	341.99
664.43	340.45
664.77	339.32
665.11	337.96
665.45	336.83
665.79	335.71
666.13	334.43
666.47	333.22
666.81	332.10
667.15	330.95
667.49	329.79
667.83	328.90
668.17	327.83
668.51	326.85
668.85	325.89
669.19	325.17
669.53	323.95
669.87	322.83
670.21	321.66
670.55	320.68
670.89	319.97
671.23	318.98
671.57	318.10
671.91	317.09
672.25	316.16
672.58	315.37
672.92	314.30
673.26	313.47
673.60	312.73
673.94	311.90
674.28	311.14
674.62	310.37
674.96	309.42
675.30	308.55
675.64	307.80
675.97	306.97
676.31	306.03
676.65	305.24
676.99	304.55
677.33	303.80
677.67	303.08
678.01	302.12
678.34	301.39
678.68	300.78
679.02	300.01
679.36	299.34
679.70	298.44
680.04	297.75
680.37	297.09
680.71	296.42
681.05	295.70
681.39	295.10
681.73	294.38
682.06	293.76
682.40	293.24
682.74	292.57
683.08	292.14
683.42	291.37
683.75	290.85
684.09	290.15
684.43	289.54
684.77	288.93
685.10	288.40
685.44	287.85
685.78	287.22
686.12	286.72
686.45	286.15
686.79	285.62
687.13	285.21
687.46	284.70
687.80	284.26
688.14	283.68
688.48	283.09
688.81	282.55
689.15	282.14
689.49	281.53
689.82	281.05
690.16	280.27
690.50	279.80
690.83	279.27
691.17	278.71
691.51	278.30
691.84	277.80
692.18	277.24
692.52	276.73
692.85	276.30
693.19	276.05
693.52	275.66
693.86	275.14
694.20	274.66
694.53	274.14
694.87	273.58
695.21	273.12
695.54	272.61
695.88	272.11
696.21	271.49
696.55	271.05
696.88	270.55
697.22	270.10
697.56	269.75
697.89	269.21
698.23	268.84
698.56	268.33
698.90	267.99
699.23	267.59
699.57	267.20
699.90	266.77
700.24	266.23
700.58	265.78
700.91	265.52
701.25	265.45
701.58	265.50
701.92	265.25
702.25	264.91
702.59	264.55
702.92	264.25
703.26	263.92
703.59	263.56
703.93	263.65
704.26	263.35
704.60	263.02
704.93	262.66
705.26	262.35
705.60	262.10
705.93	261.65
706.27	261.48
706.60	261.30
706.94	261.07
707.27	260.66
707.61	260.38
707.94	260.02
708.27	259.35
708.61	258.66
708.94	258.30
709.28	258.03
709.61	257.69
709.94	257.46
710.28	257.22
710.61	256.95
710.95	256.23
711.28	256.29
711.61	255.94
711.95	255.80
712.28	255.39
712.61	255.05
712.95	255.03
713.28	254.89
713.61	254.50
713.95	254.07
714.28	253.89
714.61	253.55
714.95	253.22
715.28	252.92
715.61	252.64
715.95	252.35
716.28	252.05
716.61	251.98
716.95	251.65
717.28	251.32
717.61	251.10
717.94	250.88
718.28	250.36
718.61	250.14
718.94	249.86
719.27	249.76
719.61	249.62
719.94	249.34
720.27	248.95
720.60	248.77
720.94	248.67
721.27	248.52
721.60	248.48
721.93	248.32
722.27	248.30
722.60	248.20
722.93	247.99
723.26	247.86
723.59	247.59
723.93	247.47
724.26	247.43
724.59	247.21
724.92	247.13
725.25	247.04
725.59	246.93
725.92	246.85
726.25	246.58
726.58	246.45
726.91	246.24
727.24	246.11
727.57	245.98
727.91	245.66
728.24	245.54
728.57	245.25
728.90	245.15
729.23	244.89
729.56	244.99
729.89	244.84
730.22	244.66
730.55	244.47
730.89	244.38
731.22	244.19
731.55	244.10
731.88	244.01
732.21	243.84
732.54	243.65
732.87	243.54
733.20	243.52
733.53	243.35
733.86	243.21
734.19	242.99
734.52	242.89
734.85	243.17
735.18	242.95
735.51	243.00
735.84	243.00
736.17	243.01
736.50	242.61
736.83	243.05
737.16	242.99
737.49	242.93
737.82	242.77
738.15	242.71
738.48	242.55
738.81	242.34
739.14	242.09
739.47	241.92
739.80	241.71
740.13	241.62
740.46	241.39
740.79	241.30
741.12	241.16
741.45	240.94
741.78	240.52
742.11	240.48
742.44	240.24
742.77	240.10
743.10	239.89
743.43	239.66
743.75	239.02
744.08	239.45
744.41	239.21
744.74	238.97
745.07	238.66
745.40	238.68
745.73	238.71
746.06	238.65
746.39	238.64
746.71	238.46
747.04	238.28
747.37	238.17
747.70	238.09
748.03	238.07
748.36	238.01
748.68	237.90
749.01	237.72
749.34	237.65
749.67	237.59
750.00	237.54
750.33	237.91
750.65	237.96
750.98	237.27
751.31	237.26
751.64	237.31
751.97	237.51
752.29	237.32
752.62	237.03
752.95	236.87
753.28	236.69
753.60	236.64
753.93	236.68
754.26	236.75
754.59	236.50
754.91	236.32
755.24	236.14
755.57	236.06
755.90	235.96
756.22	235.85
756.55	235.54
756.88	235.29
757.20	234.75
757.53	234.35
757.86	234.26
758.19	234.18
758.51	234.03
758.84	233.74
759.17	233.65
759.49	233.54
759.82	233.70
760.15	233.66
760.47	233.52
760.80	233.30
761.13	233.28
761.45	233.20
761.78	233.11
762.11	233.10
762.43	232.99
762.76	232.95
763.08	232.92
763.41	232.96
763.74	232.93
764.06	232.95
764.39	233.02
764.71	232.95
765.04	232.84
765.37	232.71
765.69	232.60
766.02	232.50
766.34	232.47
766.67	232.27
767.00	232.27
767.32	232.59
767.65	232.77
767.97	232.60
768.30	232.60
768.62	232.59
768.95	232.45
769.27	232.39
769.60	232.39
769.92	232.24
770.25	232.08
770.57	232.00
770.90	231.87
771.22	231.74
771.55	231.65
771.87	231.64
772.20	231.64
772.52	232.09
772.85	232.64
773.17	232.64
773.50	232.57
773.82	232.47
774.15	232.09
774.47	231.78
774.80	231.73
775.12	231.65
775.45	231.56
775.77	231.61
776.09	231.56
776.42	231.50
776.74	231.56
777.07	231.51
777.39	231.50
777.72	231.41
778.04	231.51
778.36	231.50
778.69	231.45
779.01	231.41
779.33	230.88
779.66	230.29
779.98	230.22
780.31	230.16
780.63	230.30
780.95	230.40
781.28	230.40
781.60	230.29
781.92	230.28
782.25	230.27
782.57	230.17
782.89	230.17
783.22	230.03
783.54	229.93
783.86	229.98
784.19	229.87
784.51	230.07
784.83	229.93
785.16	229.94
785.48	229.96
785.80	229.96
786.12	230.05
786.45	230.00
786.77	229.98
787.09	229.95
787.42	229.75
787.74	229.66
788.06	229.65
788.38	229.60
788.71	229.51
789.03	229.50
789.35	229.53
789.67	229.47
789.99	229.54
790.32	229.48
790.64	229.50
790.96	229.90
791.28	229.66
791.61	229.64
791.93	229.56
792.25	229.46
792.57	229.76
792.89	229.56
793.21	229.61
793.54	229.52
793.86	229.41
794.18	229.39
794.50	229.32
794.82	229.24
795.14	229.28
795.47	229.41
795.79	229.41
796.11	229.29
796.43	229.15
796.75	229.11
797.07	229.11
797.39	229.01
797.71	228.62
798.04	228.65
798.36	228.61
798.68	228.64
799.00	228.64
799.32	228.40
799.64	228.55
799.96	228.55
800.28	228.65
800.60	228.65
800.92	228.74
801.24	228.70
801.56	228.75
801.89	228.68
802.21	228.70
802.53	228.56
802.85	228.70
803.17	228.95
803.49	228.86
803.81	228.76
804.13	228.75
804.45	228.71
804.77	228.73
805.09	228.71
805.41	228.62
805.73	228.57
806.05	228.36
806.37	228.30
806.69	228.19
807.01	228.11
807.33	228.14
807.65	227.93
807.97	228.09
808.28	227.98
808.60	227.99
808.92	227.90
809.24	228.18
809.56	228.07
809.88	227.91
810.20	227.85
810.52	227.98
810.84	227.95
811.16	227.92
811.48	227.86
811.80	227.99
812.12	227.99
812.43	227.99
812.75	228.15
813.07	228.06
813.39	228.10
813.71	228.06
814.03	228.05
814.35	228.10
814.67	227.96
814.98	227.96
815.30	227.95
815.62	227.84
815.94	227.51
816.26	227.67
816.58	227.56
816.89	227.71
817.21	227.60
817.53	227.60
817.85	227.61
818.17	227.65
818.48	227.50
818.80	227.60
819.12	227.64
819.44	227.46
819.76	227.45
820.07	227.45
820.39	227.49
820.71	227.45
821.03	227.43
821.34	227.31
821.66	227.39
821.98	227.41
822.30	227.40
822.61	227.70
822.93	227.53
823.25	227.50
823.57	227.36
823.88	227.45
824.20	227.43
824.52	227.54
824.83	227.48
825.15	227.40
825.47	227.25
825.79	227.27
826.10	227.24
826.42	227.17
826.74	227.20
827.05	227.12
827.37	227.09
827.69	227.10
828.00	227.19
828.32	227.12
828.64	227.04
828.95	227.33
829.27	227.15
829.58	227.12
829.90	227.21
830.22	227.25
830.53	227.09
830.85	226.97
831.17	226.70
831.48	226.65
831.80	226.64
832.11	226.68
832.43	226.54
832.75	226.55
833.06	226.85
833.38	226.65
833.69	226.59
834.01	226.57
834.32	226.51
834.64	226.49
834.96	226.45
835.27	226.38
835.59	226.20
835.90	226.12
836.22	226.10
836.53	225.99
836.85	225.89
837.16	226.47
837.48	226.54
837.79	226.81
838.11	226.95
838.42	226.93
838.74	226.96
839.05	226.91
839.37	226.90
839.68	226.62
840.00	226.69
840.31	226.85
840.63	226.84
840.94	226.81
841.26	226.73
841.57	226.78
841.88	226.95
842.20	226.80
842.51	226.82
842.83	226.77
843.14	227.20
843.46	227.28
843.77	226.94
844.08	226.93
844.40	226.70
844.71	226.56
845.03	226.53
845.34	226.54
845.65	226.55
845.97	226.59
846.28	226.57
846.60	226.56
846.91	226.41
847.22	226.40
847.54	226.45
847.85	226.45
848.16	226.37
848.48	226.23
848.79	226.44
849.10	226.47
849.42	226.52
849.73	226.09
850.04	226.04
850.36	225.90
850.67	226.01
850.98	226.07
851.30	226.11
851.61	226.11
851.92	226.16
852.23	226.23
852.55	226.20
852.86	226.20
853.17	226.23
853.49	226.33
853.80	226.42
854.11	226.48
854.42	226.54
854.74	226.54
855.05	226.52
855.36	226.26
855.67	226.29
855.99	226.28
856.30	226.86
856.61	226.82
856.92	226.81
857.23	226.68
857.55	226.66
857.86	226.60
858.17	226.64
858.48	226.43
858.79	226.38
859.11	226.44
859.42	226.46
859.73	226.34
860.04	226.27
860.35	226.18
860.66	226.03
860.98	226.01
861.29	226.02
861.60	226.02
861.91	226.15
862.22	226.02
862.53	225.97
862.84	225.38
863.16	225.44
863.47	225.36
863.78	225.35
864.09	225.37
864.40	225.45
864.71	225.54
865.02	225.63
865.33	225.60
865.64	225.49
865.95	225.46
866.27	225.82
866.58	225.80
866.89	225.83
867.20	225.81
867.51	225.72
867.82	225.73
868.13	225.89
868.44	225.87
868.75	225.94
869.06	225.95
869.37	225.97
869.68	225.92
869.99	225.99
870.30	226.04
870.61	226.09
870.92	225.98
871.23	225.88
871.54	225.97
871.85	226.08
872.16	226.12
872.47	226.10
872.78	225.80
873.09	225.90
873.40	225.84
873.71	225.97
874.02	226.00
874.33	225.99
874.64	225.89
874.95	225.88
875.26	225.75
875.56	225.76
875.87	225.81
876.18	225.80
876.49	226.29
876.80	226.22
877.11	226.09
877.42	226.19
877.73	226.17
878.04	226.05
878.35	226.06
878.66	226.04
878.96	226.03
879.27	225.99
879.58	225.93
879.89	225.97
880.20	226.05
880.51	226.09
880.82	226.10
881.12	226.06
881.43	225.94
881.74	225.88
882.05	225.83
882.36	225.87
882.67	225.85
882.97	225.38
883.28	225.36
883.59	225.38
883.90	225.38
884.21	225.51
884.51	225.52
884.82	225.48
885.13	225.54
885.44	225.55
885.74	225.60
886.05	225.55
886.36	225.57
886.67	225.43
886.98	225.64
887.28	225.66
887.59	225.71
887.90	225.81
888.20	225.86
888.51	226.05
888.82	225.98
889.13	226.03
889.43	226.35
889.74	226.41
890.05	226.34
890.35	226.22
890.66	226.09
890.97	225.98
891.28	225.91
891.58	225.89
891.89	225.93
892.20	225.83
892.50	225.86
892.81	225.81
893.12	225.75
893.42	225.52
893.73	225.53
894.04	225.52
894.34	225.60
894.65	225.69
894.95	225.58
895.26	225.60
895.57	225.80
895.87	225.40
896.18	225.49
896.48	225.57
896.79	225.64
897.10	225.77
897.40	225.87
897.71	225.95
898.01	225.91
898.32	225.94
898.63	225.97
898.93	225.94
899.24	226.02
899.54	226.00
899.85	225.96
900.15	225.90
900.46	225.95
900.76	225.95
901.07	225.89
901.38	225.85
901.68	225.86
901.99	225.64
902.29	225.68
902.60	225.67
902.90	225.62
903.21	225.59
903.51	225.53
903.82	225.61
904.12	225.64
904.43	225.71
904.73	225.69
905.03	225.72
905.34	226.16
905.64	226.13
905.95	226.22
906.25	226.25
906.56	226.32
906.86	226.28
907.17	226.27
907.47	226.26
907.77	226.20
908.08	226.19
908.38	226.21
908.69	226.31
908.99	226.36
909.30	226.46
909.60	226.47
909.90	226.52
910.21	226.35
910.51	226.22
910.81	226.24
911.12	226.26
911.42	226.29
911.73	225.87
912.03	225.89
912.33	225.97
912.64	225.93
912.94	225.85
913.24	225.79
913.55	225.69
913.85	225.65
914.15	225.79
914.46	225.77
914.76	225.76
915.06	225.74
915.37	225.64
915.67	225.58
915.97	225.59
916.27	225.50
916.58	225.56
916.88	225.61
917.18	225.51
917.49	225.85
917.79	225.85
918.09	225.91
918.39	226.02
918.70	226.09
919.00	226.09
919.30	226.33
919.60	226.27
919.91	226.28
920.21	226.35
920.51	226.28
920.81	226.29
921.12	226.39
921.42	226.32
921.72	226.36
922.02	226.40
922.32	226.50
922.63	226.48
922.93	226.80
923.23	226.80
923.53	226.82
923.83	226.50
924.13	226.54
924.44	226.49
924.74	226.51
925.04	226.51
925.34	226.58
925.64	226.41
925.94	226.50
926.24	226.80
926.55	226.75
926.85	226.85
927.15	226.80
927.45	226.81
927.75	226.84
928.05	226.79
928.35	226.75
928.65	226.82
928.95	226.89
929.26	226.62
929.56	226.73
929.86	226.80
930.16	226.71
930.46	226.65
930.76	226.71
931.06	226.53
931.36	226.37
931.66	226.46
931.96	226.50
932.26	226.51
932.56	226.24
932.86	226.36
933.16	226.31
933.46	226.34
933.76	226.21
934.06	226.35
934.36	226.51
934.66	226.52
934.96	226.41
935.26	226.41
935.56	226.45
935.86	226.34
936.16	226.25
936.46	226.27
936.76	226.25
937.06	226.14
937.36	226.11
937.66	226.22
937.96	226.15
938.26	226.05
938.56	226.03
938.86	226.07
939.16	226.10
939.46	226.07
939.76	226.08
940.06	226.06
940.35	225.90
940.65	225.67
940.95	225.79
941.25	225.70
941.55	225.63
941.85	225.55
942.15	225.63
942.45	225.79
942.75	225.78
943.04	225.82
943.34	225.93
943.64	225.93
943.94	225.82
944.24	225.81
944.54	225.82
944.84	225.85
945.13	225.77
945.43	225.67
945.73	225.68
946.03	225.70
946.33	225.72
946.62	225.60
946.92	225.67
947.22	225.58
947.52	225.58
947.82	225.62
948.11	225.63
948.41	225.55
948.71	225.39
949.01	225.39
949.31	225.30
949.60	225.20
949.90	225.30
950.20	225.26
950.50	225.29
950.79	225.22
951.09	225.28
951.39	225.29
951.69	225.25
951.98	225.36
952.28	225.36
952.58	225.32
952.87	225.32
953.17	225.30
953.47	225.28
953.76	225.26
954.06	225.18
954.36	225.11
954.66	225.08
954.95	225.23
955.25	225.27
955.55	225.37
955.84	225.39
956.14	225.42
956.44	225.34
956.73	225.25
957.03	225.32
957.32	225.28
957.62	225.22
957.92	225.33
958.21	225.24
958.51	225.73
958.81	225.83
959.10	225.94
959.40	226.07
959.69	226.08
959.99	226.15
960.29	226.23
960.58	226.21
960.88	226.46
961.17	226.39
961.47	226.42
961.76	226.42
962.06	226.48
962.36	226.42
962.65	226.59
962.95	226.57
963.24	226.51
963.54	226.47
963.83	226.50
964.13	226.48
964.42	226.35
964.72	226.01
965.01	226.00
965.31	226.03
965.60	225.89
965.90	226.19
966.19	226.13
966.49	226.21
966.78	226.22
967.08	226.10
967.37	226.10
967.67	225.96
967.96	226.05
968.26	226.06
968.55	226.05
968.85	225.98
969.14	226.02
969.43	226.02
969.73	225.94
970.02	225.87
970.32	225.79
970.61	225.86
970.91	225.68
971.20	225.62
971.49	225.47
971.79	225.58
972.08	225.25
972.38	225.30
972.67	225.14
972.96	225.21
973.26	225.19
973.55	225.32
973.85	225.35
974.14	225.26
974.43	225.26
974.73	225.17
975.02	225.14
975.31	225.11
975.61	225.14
975.90	225.19
976.19	225.22
976.49	225.28
976.78	225.29
977.07	225.31
977.37	225.27
977.66	225.32
977.95	225.15
978.24	225.19
978.54	225.30
978.83	225.33
979.12	225.25
979.42	225.19
979.71	225.06
980.00	225.05
980.29	224.97
980.59	224.90
980.88	225.07
981.17	225.08
981.46	225.09
981.76	225.10
982.05	225.22
982.34	225.25
982.63	225.27
982.93	225.30
983.22	225.46
983.51	225.57
983.80	225.74
984.09	225.83
984.39	225.84
984.68	225.74
984.97	225.70
985.26	225.69
985.55	225.71
985.85	225.64
986.14	225.75
986.43	225.87
986.72	225.77
987.01	225.64
987.30	225.66
987.59	225.65
987.89	225.64
988.18	225.50
988.47	225.42
988.76	225.37
989.05	225.31
989.34	225.23
989.63	225.29
989.92	225.12
990.22	225.18
990.51	225.13
990.80	225.09
991.09	225.21
991.38	225.33
991.67	225.32
991.96	225.38
992.25	225.25
992.54	225.10
992.83	225.23
993.12	225.21
993.41	225.31
993.70	225.53
993.99	225.63
994.28	225.73
994.58	225.89
994.87	225.86
995.16	225.77
995.45	225.70
995.74	225.59
996.03	225.63
996.32	225.65
996.61	225.77
996.90	225.81
997.19	225.71
997.48	225.67
997.77	225.65
998.06	225.63
998.34	225.65
998.63	225.75
998.92	225.70
999.21	225.79
999.50	225.79
999.79	225.54
1000.08	225.48
1000.37	225.44
1000.66	225.31
1000.95	225.33
1001.24	225.41
1001.53	225.49
1001.82	225.47
1002.11	225.35
1002.40	225.35
1002.68	225.45
1002.97	225.70
1003.26	225.67
1003.55	225.57
1003.84	225.53
1004.13	225.69
1004.42	225.76
1004.71	225.77
1004.99	225.75
1005.28	225.85
1005.57	225.82
1005.86	225.83
1006.15	225.86
1006.44	225.74
1006.72	225.83
1007.01	225.87
1007.30	225.89
1007.59	225.80
1007.88	225.79
1008.17	225.83
1008.45	225.69
1008.74	225.49
1009.03	225.30
1009.32	225.34
1009.60	225.32
1009.89	225.30
1010.18	225.07
1010.47	225.06
1010.76	224.97
1011.04	224.94
1011.33	224.96
1011.62	224.97
1011.91	224.98
1012.19	224.95
1012.48	225.00
1012.77	224.94
1013.05	225.10
1013.34	225.07
1013.63	225.06
1013.92	225.02
1014.20	225.04
1014.49	225.10
1014.78	225.10
1015.06	224.91
1015.35	224.91
1015.64	224.98
1015.92	225.10
1016.21	225.12
1016.50	224.98
1016.78	225.07
1017.07	225.13
1017.36	224.94
1017.64	224.90
1017.93	224.90
1018.22	224.86
1018.50	224.88
1018.79	224.92
1019.08	224.69
1019.36	224.73
1019.65	224.65
1019.93	224.85
1020.22	224.92
1020.51	225.16
1020.79	225.10
1021.08	224.50
1021.36	224.70
1021.65	225.55
1021.94	224.70
1022.22	224.85
1022.51	223.15
1022.79	227.90
1023.08	225.85
1023.36	230.80
1023.65	223.75
>>>>>End Processed Spectral Data<<<<<
