SpectraSuite Data File
++++++++++++++++++++++++++++++++++++
Date: Wed Sep 04 17:42:46 EDT 2013
User: lab3
Dark Spectrum Present: Yes
Reference Spectrum Present: No
Number of Sampled Component Spectra: 1
Spectrometers: USB2E7196
Integration Time (usec): 170000 (USB2E7196)
Spectra Averaged: 20 (USB2E7196)
Boxcar Smoothing: 10 (USB2E7196)
Correct for Electrical Dark: No (USB2E7196)
Strobe/Lamp Enabled: No (USB2E7196)
Correct for Detector Non-linearity: No (USB2E7196)
Correct for Stray Light: No (USB2E7196)
Number of Pixels in Processed Spectrum: 2048
>>>>>Begin Processed Spectral Data<<<<<
339.09	0.00
339.48	212.70
339.86	215.00
340.24	215.75
340.63	216.50
341.01	225.70
341.39	219.40
341.78	221.90
342.16	225.00
342.54	222.75
342.93	212.02
343.31	222.71
343.69	223.27
344.07	223.69
344.46	224.20
344.84	224.68
345.22	224.67
345.60	224.94
345.99	225.08
346.37	225.09
346.75	225.20
347.13	225.27
347.52	225.35
347.90	225.50
348.28	225.56
348.66	225.75
349.05	225.62
349.43	225.74
349.81	225.84
350.19	225.83
350.57	225.79
350.96	225.90
351.34	225.96
351.72	226.05
352.10	226.10
352.48	226.08
352.87	226.03
353.25	226.03
353.63	226.04
354.01	226.16
354.39	226.25
354.77	226.36
355.15	226.59
355.54	226.55
355.92	226.49
356.30	226.51
356.68	226.87
357.06	226.96
357.44	226.94
357.82	227.03
358.20	227.52
358.58	227.59
358.97	227.67
359.35	227.83
359.73	227.99
360.11	228.08
360.49	228.17
360.87	228.27
361.25	228.46
361.63	228.72
362.01	228.80
362.39	228.80
362.77	228.84
363.15	228.82
363.53	228.88
363.91	229.02
364.29	229.07
364.67	228.66
365.05	228.70
365.43	228.75
365.81	228.82
366.19	228.63
366.57	228.89
366.95	228.95
367.33	228.88
367.71	228.87
368.09	229.01
368.47	228.98
368.85	228.93
369.23	228.95
369.61	228.78
369.99	228.86
370.37	228.91
370.75	229.17
371.13	229.05
371.51	229.00
371.89	228.94
372.27	228.93
372.65	228.91
373.03	228.90
373.41	228.82
373.78	228.66
374.16	228.46
374.54	228.19
374.92	228.06
375.30	228.01
375.68	227.77
376.06	227.71
376.44	227.59
376.82	227.54
377.19	227.46
377.57	227.37
377.95	227.12
378.33	227.04
378.71	226.63
379.09	226.64
379.47	226.58
379.84	226.45
380.22	226.35
380.60	226.21
380.98	226.07
381.36	226.02
381.73	225.91
382.11	225.83
382.49	225.84
382.87	225.69
383.25	225.64
383.62	226.23
384.00	226.05
384.38	226.05
384.76	226.15
385.13	226.25
385.51	226.18
385.89	226.08
386.27	225.97
386.64	226.00
387.02	225.92
387.40	225.84
387.78	225.85
388.15	225.74
388.53	225.71
388.91	225.70
389.29	225.61
389.66	225.66
390.04	225.65
390.42	225.72
390.79	225.72
391.17	225.67
391.55	225.12
391.92	225.15
392.30	225.18
392.68	225.07
393.05	225.00
393.43	225.04
393.81	225.05
394.18	225.05
394.56	224.97
394.94	225.00
395.31	224.93
395.69	225.10
396.06	225.31
396.44	225.40
396.82	225.37
397.19	225.71
397.57	225.72
397.95	225.79
398.32	225.62
398.70	225.70
399.07	225.86
399.45	225.89
399.82	225.94
400.20	225.95
400.58	226.02
400.95	225.88
401.33	226.10
401.70	226.62
402.08	226.82
402.45	227.01
402.83	227.29
403.20	227.53
403.58	227.50
403.95	227.70
404.33	227.88
404.71	228.06
405.08	228.45
405.46	228.61
405.83	228.86
406.21	229.16
406.58	229.47
406.96	229.75
407.33	230.02
407.70	230.34
408.08	231.05
408.45	231.39
408.83	231.86
409.20	232.12
409.58	232.16
409.95	232.57
410.33	233.08
410.70	233.41
411.08	234.00
411.45	234.64
411.82	235.03
412.20	235.72
412.57	236.75
412.95	236.96
413.32	237.80
413.69	238.50
414.07	239.24
414.44	240.08
414.82	240.88
415.19	241.91
415.56	242.95
415.94	243.78
416.31	245.14
416.68	246.33
417.06	247.78
417.43	249.28
417.81	250.74
418.18	252.20
418.55	253.86
418.93	255.53
419.30	257.27
419.67	259.21
420.04	261.09
420.42	262.84
420.79	265.52
421.16	267.84
421.54	270.34
421.91	272.88
422.28	275.51
422.66	278.23
423.03	281.14
423.40	283.97
423.77	286.98
424.15	289.87
424.52	293.05
424.89	296.50
425.26	299.70
425.64	302.84
426.01	306.31
426.38	309.98
426.75	313.75
427.13	317.50
427.50	321.43
427.87	325.42
428.24	329.50
428.61	333.19
428.99	337.50
429.36	342.02
429.73	346.59
430.10	351.05
430.47	355.79
430.85	360.42
431.22	365.41
431.59	370.99
431.96	376.11
432.33	381.87
432.70	387.24
433.08	393.70
433.45	399.90
433.82	405.99
434.19	412.70
434.56	419.42
434.93	425.75
435.30	432.10
435.68	439.27
436.05	446.30
436.42	453.09
436.79	459.55
437.16	466.51
437.53	473.78
437.90	481.01
438.27	488.10
438.64	495.49
439.01	502.53
439.38	508.37
439.75	514.42
440.13	521.13
440.50	527.50
440.87	532.57
441.24	537.87
441.61	543.65
441.98	547.85
442.35	552.60
442.72	557.65
443.09	562.63
443.46	565.55
443.83	567.40
444.20	569.19
444.57	571.36
444.94	572.48
445.31	573.63
445.68	575.02
446.05	575.24
446.42	574.22
446.79	573.06
447.16	571.86
447.53	570.83
447.90	567.82
448.27	564.86
448.64	560.86
449.01	557.90
449.37	552.90
449.74	548.11
450.11	542.62
450.48	536.33
450.85	529.78
451.22	524.06
451.59	518.82
451.96	513.67
452.33	507.12
452.70	500.93
453.07	493.58
453.43	485.83
453.80	478.90
454.17	472.28
454.54	465.79
454.91	459.05
455.28	452.47
455.65	446.26
456.02	440.69
456.38	435.49
456.75	429.07
457.12	423.70
457.49	418.35
457.86	413.02
458.23	408.72
458.59	404.01
458.96	399.31
459.33	394.97
459.70	390.67
460.07	387.25
460.43	383.49
460.80	379.93
461.17	377.01
461.54	373.76
461.91	370.60
462.27	367.55
462.64	364.88
463.01	361.86
463.38	359.16
463.74	355.75
464.11	353.30
464.48	351.11
464.85	348.79
465.21	347.18
465.58	345.35
465.95	342.87
466.32	341.06
466.68	339.19
467.05	337.40
467.42	335.63
467.78	333.75
468.15	331.81
468.52	330.61
468.88	328.71
469.25	327.14
469.62	326.02
469.98	324.59
470.35	323.33
470.72	322.14
471.08	320.71
471.45	319.72
471.82	318.68
472.18	317.52
472.55	316.73
472.92	315.48
473.28	314.49
473.65	313.86
474.02	312.94
474.38	312.31
474.75	311.70
475.11	310.87
475.48	310.38
475.85	309.96
476.21	309.36
476.58	308.95
476.94	308.68
477.31	308.29
477.67	308.03
478.04	307.80
478.41	307.67
478.77	308.11
479.14	307.90
479.50	307.78
479.87	307.79
480.23	307.85
480.60	307.93
480.96	308.09
481.33	308.42
481.69	308.65
482.06	308.85
482.42	309.24
482.79	309.68
483.15	310.15
483.52	310.72
483.88	311.21
484.25	311.72
484.61	312.28
484.98	312.85
485.34	313.84
485.71	314.70
486.07	315.66
486.44	316.08
486.80	317.13
487.17	318.20
487.53	319.64
487.90	320.95
488.26	322.50
488.62	323.96
488.99	325.32
489.35	327.00
489.72	328.73
490.08	330.44
490.44	332.26
490.81	334.28
491.17	336.25
491.54	338.55
491.90	341.01
492.26	343.48
492.63	346.10
492.99	348.61
493.36	351.42
493.72	354.40
494.08	357.76
494.45	361.21
494.81	364.85
495.17	368.24
495.54	372.00
495.90	375.76
496.26	379.79
496.63	383.98
496.99	388.25
497.35	392.84
497.72	397.60
498.08	402.61
498.44	407.74
498.80	413.18
499.17	418.56
499.53	424.19
499.89	430.14
500.26	436.18
500.62	442.43
500.98	448.92
501.34	455.62
501.71	462.36
502.07	469.16
502.43	476.24
502.79	483.54
503.16	491.28
503.52	499.50
503.88	507.71
504.24	516.27
504.60	525.03
504.97	533.91
505.33	543.10
505.69	552.86
506.05	562.54
506.41	572.25
506.78	582.50
507.14	592.90
507.50	603.61
507.86	614.51
508.22	625.58
508.59	636.86
508.95	648.55
509.31	660.66
509.67	672.98
510.03	685.26
510.39	698.05
510.75	710.79
511.12	723.36
511.48	736.53
511.84	749.74
512.20	763.03
512.56	776.75
512.92	790.80
513.28	804.87
513.64	819.10
514.00	833.75
514.37	848.50
514.73	863.38
515.09	878.48
515.45	893.79
515.81	908.94
516.17	924.24
516.53	939.61
516.89	954.62
517.25	970.31
517.61	986.79
517.97	1003.00
518.33	1019.08
518.69	1035.58
519.05	1051.94
519.41	1068.35
519.77	1085.61
520.13	1102.11
520.49	1118.44
520.85	1136.30
521.21	1153.36
521.57	1170.15
521.93	1186.43
522.29	1203.19
522.65	1218.96
523.01	1235.09
523.37	1251.32
523.73	1267.64
524.09	1283.31
524.45	1299.21
524.81	1315.21
525.17	1330.61
525.53	1346.25
525.89	1362.16
526.25	1377.57
526.61	1392.88
526.97	1408.61
527.33	1424.27
527.68	1440.79
528.04	1456.87
528.40	1471.04
528.76	1486.26
529.12	1501.20
529.48	1516.40
529.84	1530.91
530.20	1546.55
530.56	1561.34
530.91	1576.45
531.27	1591.23
531.63	1605.95
531.99	1620.78
532.35	1634.87
532.71	1649.33
533.07	1663.81
533.42	1677.73
533.78	1691.70
534.14	1705.65
534.50	1718.99
534.86	1732.03
535.21	1743.56
535.57	1755.87
535.93	1767.70
536.29	1779.50
536.65	1791.65
537.00	1803.28
537.36	1814.91
537.72	1825.62
538.08	1837.16
538.44	1847.86
538.79	1858.20
539.15	1868.84
539.51	1879.08
539.87	1888.92
540.22	1897.52
540.58	1906.69
540.94	1914.61
541.29	1922.33
541.65	1929.51
542.01	1936.70
542.37	1942.29
542.72	1948.64
543.08	1954.08
543.44	1960.52
543.79	1965.75
544.15	1970.87
544.51	1976.03
544.87	1981.06
545.22	1985.10
545.58	1988.33
545.94	1991.34
546.29	1993.92
546.65	1996.19
547.01	1997.92
547.36	1999.30
547.72	2000.86
548.07	2000.96
548.43	2002.40
548.79	2003.12
549.14	2003.59
549.50	2004.20
549.86	2004.85
550.21	2004.91
550.57	2005.53
550.92	2004.32
551.28	2003.02
551.64	2002.22
551.99	2000.93
552.35	1999.59
552.70	1998.89
553.06	1997.82
553.41	1996.19
553.77	1995.27
554.13	1994.09
554.48	1992.63
554.84	1991.53
555.19	1990.27
555.55	1989.30
555.90	1986.43
556.26	1983.67
556.61	1980.62
556.97	1976.58
557.32	1974.01
557.68	1971.04
558.03	1967.44
558.39	1964.06
558.74	1961.40
559.10	1957.00
559.45	1952.59
559.81	1947.30
560.16	1941.63
560.52	1936.24
560.87	1931.27
561.23	1925.58
561.58	1919.79
561.94	1913.42
562.29	1906.18
562.64	1899.62
563.00	1892.11
563.35	1885.81
563.71	1879.42
564.06	1873.21
564.42	1866.98
564.77	1860.21
565.12	1853.63
565.48	1846.88
565.83	1839.83
566.19	1832.76
566.54	1825.88
566.89	1819.01
567.25	1812.20
567.60	1805.77
567.96	1799.13
568.31	1792.14
568.66	1784.60
569.02	1776.76
569.37	1769.72
569.72	1763.00
570.08	1754.98
570.43	1747.24
570.78	1739.69
571.14	1732.04
571.49	1723.85
571.84	1716.12
572.20	1707.55
572.55	1699.01
572.90	1690.00
573.26	1681.70
573.61	1672.83
573.96	1664.05
574.31	1654.67
574.67	1645.55
575.02	1635.61
575.37	1625.45
575.72	1615.52
576.08	1606.20
576.43	1596.68
576.78	1586.63
577.13	1576.43
577.49	1566.53
577.84	1557.44
578.19	1548.36
578.54	1538.79
578.90	1529.65
579.25	1520.49
579.60	1511.04
579.95	1501.52
580.30	1491.88
580.66	1482.17
581.01	1472.02
581.36	1461.58
581.71	1452.24
582.06	1442.75
582.42	1433.81
582.77	1424.78
583.12	1415.91
583.47	1406.62
583.82	1397.44
584.17	1388.79
584.53	1380.45
584.88	1371.25
585.23	1361.57
585.58	1351.29
585.93	1341.83
586.28	1332.40
586.63	1322.32
586.98	1312.22
587.34	1302.72
587.69	1293.33
588.04	1284.18
588.39	1275.77
588.74	1267.14
589.09	1258.57
589.44	1249.31
589.79	1240.51
590.14	1231.98
590.49	1223.39
590.84	1214.99
591.19	1206.55
591.54	1197.79
591.89	1188.74
592.25	1181.84
592.60	1173.85
592.95	1165.81
593.30	1157.42
593.65	1148.94
594.00	1140.58
594.35	1134.18
594.70	1126.13
595.05	1118.15
595.40	1109.86
595.75	1101.37
596.10	1093.47
596.45	1085.42
596.80	1077.92
597.15	1070.06
597.50	1062.05
597.85	1054.22
598.19	1046.27
598.54	1038.53
598.89	1030.92
599.24	1023.82
599.59	1015.58
599.94	1008.09
600.29	1000.93
600.64	993.84
600.99	986.59
601.34	980.06
601.69	971.99
602.04	965.22
602.39	958.69
602.74	952.38
603.08	946.05
603.43	939.85
603.78	933.18
604.13	926.66
604.48	920.09
604.83	913.28
605.18	906.61
605.53	900.17
605.87	893.96
606.22	887.89
606.57	881.57
606.92	875.40
607.27	869.40
607.62	863.55
607.96	858.01
608.31	852.78
608.66	847.15
609.01	841.44
609.36	835.71
609.70	830.03
610.05	824.11
610.40	818.48
610.75	812.68
611.10	807.08
611.44	801.32
611.79	795.73
612.14	790.55
612.49	785.22
612.83	780.15
613.18	774.78
613.53	769.62
613.88	764.30
614.22	758.97
614.57	753.58
614.92	748.22
615.27	742.82
615.61	737.51
615.96	732.31
616.31	727.16
616.65	722.25
617.00	717.16
617.35	712.34
617.70	707.32
618.04	702.54
618.39	697.89
618.74	693.47
619.08	688.90
619.43	684.39
619.78	679.60
620.12	674.84
620.47	670.24
620.82	665.30
621.16	660.76
621.51	656.62
621.85	652.25
622.20	647.95
622.55	643.70
622.89	639.30
623.24	634.92
623.59	630.62
623.93	626.37
624.28	622.22
624.62	618.57
624.97	614.78
625.32	610.75
625.66	606.63
626.01	602.58
626.35	598.77
626.70	594.72
627.04	591.19
627.39	587.40
627.73	583.78
628.08	580.43
628.43	576.61
628.77	572.78
629.12	569.17
629.46	565.76
629.81	562.51
630.15	559.15
630.50	555.87
630.84	552.68
631.19	549.39
631.53	546.32
631.88	542.50
632.22	539.05
632.57	535.99
632.91	532.86
633.26	529.89
633.60	526.79
633.95	523.65
634.29	520.37
634.64	517.41
634.98	514.19
635.32	511.24
635.67	508.63
636.01	505.85
636.36	502.99
636.70	500.32
637.05	497.33
637.39	494.62
637.73	491.80
638.08	488.98
638.42	486.14
638.77	483.29
639.11	480.47
639.45	477.55
639.80	474.64
640.14	471.83
640.49	468.99
640.83	466.31
641.17	463.93
641.52	461.48
641.86	458.96
642.20	456.93
642.55	454.43
642.89	451.91
643.23	449.41
643.58	447.33
643.92	444.73
644.26	442.42
644.61	440.19
644.95	437.91
645.29	435.65
645.64	433.45
645.98	431.15
646.32	429.11
646.66	427.00
647.01	424.87
647.35	422.97
647.69	421.00
648.04	419.08
648.38	417.07
648.72	415.01
649.06	412.90
649.41	410.65
649.75	408.49
650.09	406.68
650.43	404.77
650.78	402.59
651.12	400.48
651.46	398.54
651.80	396.53
652.14	394.66
652.49	393.12
652.83	391.30
653.17	389.56
653.51	387.68
653.85	386.04
654.20	384.39
654.54	382.52
654.88	380.83
655.22	379.32
655.56	377.67
655.90	376.10
656.25	374.64
656.59	373.15
656.93	371.65
657.27	370.13
657.61	368.40
657.95	366.93
658.29	365.55
658.64	364.16
658.98	362.68
659.32	361.09
659.66	359.36
660.00	358.00
660.34	356.62
660.68	355.26
661.02	353.83
661.36	352.32
661.70	350.94
662.05	349.50
662.39	348.15
662.73	346.92
663.07	345.85
663.41	344.56
663.75	343.17
664.09	341.96
664.43	340.51
664.77	339.37
665.11	338.14
665.45	337.06
665.79	335.90
666.13	334.67
666.47	333.51
666.81	332.33
667.15	331.11
667.49	330.07
667.83	329.17
668.17	328.11
668.51	327.16
668.85	326.27
669.19	325.54
669.53	324.32
669.87	323.13
670.21	322.04
670.55	321.10
670.89	320.35
671.23	319.45
671.57	318.55
671.91	317.61
672.25	316.70
672.58	315.88
672.92	314.83
673.26	313.98
673.60	313.19
673.94	312.41
674.28	311.65
674.62	310.79
674.96	309.88
675.30	309.07
675.64	308.29
675.97	307.37
676.31	306.32
676.65	305.58
676.99	305.04
677.33	304.11
677.67	303.30
678.01	302.27
678.34	301.47
678.68	300.81
679.02	299.99
679.36	299.17
679.70	298.33
680.04	297.65
680.37	297.04
680.71	296.37
681.05	295.74
681.39	295.07
681.73	294.40
682.06	293.72
682.40	293.11
682.74	292.48
683.08	292.17
683.42	291.55
683.75	290.98
684.09	290.21
684.43	289.66
684.77	288.97
685.10	288.45
685.44	287.83
685.78	287.13
686.12	286.58
686.45	286.05
686.79	285.49
687.13	285.01
687.46	284.41
687.80	283.93
688.14	283.32
688.48	282.80
688.81	282.33
689.15	281.93
689.49	281.47
689.82	280.99
690.16	280.23
690.50	279.82
690.83	279.30
691.17	278.75
691.51	278.30
691.84	277.94
692.18	277.43
692.52	276.96
692.85	276.56
693.19	276.46
693.52	276.02
693.86	275.53
694.20	275.07
694.53	274.65
694.87	274.23
695.21	273.69
695.54	273.30
695.88	272.73
696.21	272.05
696.55	271.50
696.88	270.99
697.22	270.54
697.56	270.11
697.89	269.64
698.23	269.30
698.56	268.92
698.90	268.51
699.23	268.06
699.57	267.73
699.90	267.31
700.24	266.64
700.58	266.32
700.91	266.04
701.25	266.04
701.58	265.99
701.92	265.71
702.25	265.51
702.59	265.04
702.92	264.77
703.26	264.58
703.59	264.27
703.93	264.37
704.26	264.08
704.60	263.75
704.93	263.40
705.26	263.05
705.60	262.73
705.93	262.39
706.27	262.18
706.60	261.90
706.94	261.78
707.27	261.54
707.61	261.24
707.94	260.92
708.27	260.25
708.61	259.60
708.94	259.18
709.28	258.80
709.61	258.52
709.94	258.21
710.28	257.85
710.61	257.60
710.95	256.87
711.28	256.89
711.61	256.55
711.95	256.33
712.28	256.07
712.61	255.74
712.95	255.70
713.28	255.71
713.61	255.37
713.95	254.93
714.28	254.63
714.61	254.32
714.95	253.92
715.28	253.63
715.61	253.30
715.95	253.10
716.28	252.83
716.61	252.61
716.95	252.25
717.28	252.02
717.61	251.67
717.94	251.48
718.28	250.87
718.61	250.62
718.94	250.30
719.27	250.01
719.61	249.96
719.94	249.51
720.27	249.01
720.60	248.80
720.94	248.60
721.27	248.39
721.60	248.30
721.93	248.17
722.27	248.13
722.60	248.04
722.93	247.71
723.26	247.59
723.59	247.42
723.93	247.31
724.26	247.16
724.59	247.04
724.92	246.88
725.25	246.87
725.59	246.73
725.92	246.62
726.25	246.45
726.58	246.17
726.91	246.06
727.24	245.92
727.57	245.71
727.91	245.47
728.24	245.40
728.57	245.08
728.90	245.01
729.23	244.62
729.56	244.70
729.89	244.56
730.22	244.35
730.55	244.18
730.89	244.07
731.22	243.88
731.55	243.67
731.88	243.48
732.21	243.16
732.54	242.92
732.87	242.80
733.20	242.66
733.53	242.47
733.86	242.38
734.19	242.19
734.52	242.07
734.85	242.29
735.18	242.06
735.51	242.17
735.84	241.98
736.17	242.01
736.50	241.54
736.83	242.01
737.16	241.90
737.49	241.79
737.82	241.60
738.15	241.49
738.48	241.40
738.81	241.30
739.14	241.18
739.47	241.11
739.80	240.92
740.13	240.83
740.46	240.66
740.79	240.43
741.12	240.31
741.45	240.15
741.78	239.77
742.11	239.76
742.44	239.42
742.77	239.43
743.10	239.27
743.43	239.23
743.75	238.57
744.08	239.09
744.41	238.93
744.74	238.81
745.07	238.69
745.40	238.60
745.73	238.66
746.06	238.60
746.39	238.58
746.71	238.50
747.04	238.33
747.37	238.23
747.70	238.24
748.03	238.18
748.36	238.15
748.68	238.10
749.01	237.96
749.34	237.99
749.67	237.89
750.00	237.85
750.33	238.13
750.65	238.05
750.98	237.35
751.31	237.25
751.64	237.13
751.97	237.31
752.29	237.20
752.62	236.91
752.95	236.84
753.28	236.61
753.60	236.57
753.93	236.67
754.26	236.59
754.59	236.34
754.91	236.18
755.24	236.16
755.57	236.02
755.90	235.83
756.22	235.57
756.55	235.36
756.88	235.18
757.20	234.76
757.53	234.58
757.86	234.52
758.19	234.50
758.51	234.47
758.84	234.12
759.17	234.00
759.49	233.97
759.82	234.10
760.15	234.11
760.47	233.98
760.80	233.73
761.13	233.69
761.45	233.67
761.78	233.64
762.11	233.50
762.43	233.35
762.76	233.30
763.08	233.35
763.41	233.36
763.74	233.30
764.06	233.17
764.39	233.15
764.71	232.94
765.04	232.79
765.37	232.65
765.69	232.63
766.02	232.55
766.34	232.44
766.67	232.18
767.00	232.18
767.32	232.35
767.65	232.60
767.97	232.48
768.30	232.38
768.62	232.24
768.95	232.15
769.27	232.10
769.60	232.09
769.92	231.99
770.25	231.78
770.57	231.74
770.90	231.67
771.22	231.57
771.55	231.62
771.87	231.65
772.20	231.62
772.52	231.90
772.85	232.51
773.17	232.47
773.50	232.39
773.82	232.26
774.15	231.97
774.47	231.58
774.80	231.53
775.12	231.49
775.45	231.51
775.77	231.48
776.09	231.50
776.42	231.46
776.74	231.49
777.07	231.47
777.39	231.40
777.72	231.36
778.04	231.35
778.36	231.25
778.69	231.21
779.01	231.23
779.33	230.82
779.66	230.24
779.98	230.23
780.31	230.17
780.63	230.38
780.95	230.43
781.28	230.42
781.60	230.40
781.92	230.40
782.25	230.36
782.57	230.28
782.89	230.14
783.22	230.00
783.54	229.90
783.86	229.90
784.19	229.85
784.51	229.95
784.83	229.88
785.16	229.86
785.48	229.80
785.80	229.73
786.12	229.77
786.45	229.71
786.77	229.65
787.09	229.66
787.42	229.39
787.74	229.36
788.06	229.40
788.38	229.37
788.71	229.24
789.03	229.25
789.35	229.31
789.67	229.31
789.99	229.41
790.32	229.37
790.64	229.40
790.96	229.71
791.28	229.52
791.61	229.44
791.93	229.42
792.25	229.44
792.57	229.73
792.89	229.47
793.21	229.48
793.54	229.39
793.86	229.28
794.18	229.28
794.50	229.24
794.82	229.17
795.14	229.24
795.47	229.42
795.79	229.36
796.11	229.26
796.43	229.22
796.75	229.22
797.07	229.18
797.39	229.12
797.71	228.81
798.04	228.83
798.36	228.92
798.68	228.90
799.00	228.85
799.32	228.51
799.64	228.70
799.96	228.66
800.28	228.80
800.60	228.77
800.92	228.82
801.24	228.75
801.56	228.79
801.89	228.70
802.21	228.65
802.53	228.55
802.85	228.61
803.17	228.82
803.49	228.62
803.81	228.63
804.13	228.62
804.45	228.57
804.77	228.56
805.09	228.53
805.41	228.50
805.73	228.38
806.05	228.33
806.37	228.25
806.69	228.22
807.01	228.18
807.33	228.21
807.65	228.04
807.97	228.26
808.28	228.16
808.60	228.09
808.92	228.00
809.24	228.29
809.56	228.21
809.88	227.98
810.20	228.05
810.52	228.08
810.84	228.03
811.16	227.97
811.48	227.98
811.80	228.11
812.12	228.09
812.43	228.18
812.75	228.19
813.07	228.17
813.39	228.17
813.71	227.97
814.03	227.86
814.35	227.88
814.67	227.64
814.98	227.57
815.30	227.56
815.62	227.48
815.94	227.17
816.26	227.36
816.58	227.33
816.89	227.28
817.21	227.18
817.53	227.16
817.85	227.10
818.17	227.04
818.48	226.84
818.80	226.90
819.12	226.77
819.44	226.71
819.76	226.63
820.07	226.58
820.39	226.61
820.71	226.71
821.03	226.75
821.34	226.71
821.66	226.86
821.98	226.85
822.30	226.84
822.61	227.11
822.93	226.80
823.25	226.75
823.57	226.78
823.88	226.86
824.20	226.87
824.52	226.97
824.83	226.97
825.15	226.93
825.47	226.90
825.79	227.00
826.10	227.00
826.42	226.92
826.74	226.99
827.05	227.00
827.37	226.96
827.69	226.90
828.00	226.88
828.32	226.76
828.64	226.76
828.95	226.98
829.27	226.79
829.58	226.80
829.90	226.96
830.22	227.02
830.53	226.86
830.85	226.84
831.17	226.75
831.48	226.71
831.80	226.72
832.11	226.68
832.43	226.58
832.75	226.51
833.06	226.90
833.38	226.78
833.69	226.78
834.01	226.82
834.32	226.78
834.64	226.79
834.96	226.80
835.27	226.80
835.59	226.61
835.90	226.61
836.22	226.63
836.53	226.55
836.85	226.46
837.16	226.99
837.48	226.90
837.79	227.02
838.11	227.06
838.42	227.05
838.74	227.15
839.05	227.13
839.37	227.13
839.68	226.80
840.00	226.80
840.31	226.84
840.63	226.83
840.94	226.85
841.26	226.80
841.57	226.83
841.88	226.88
842.20	226.90
842.51	226.82
842.83	226.85
843.14	227.18
843.46	227.21
843.77	226.94
844.08	226.98
844.40	226.92
844.71	226.86
845.03	226.84
845.34	226.73
845.65	226.70
845.97	226.73
846.28	226.75
846.60	226.76
846.91	226.74
847.22	226.61
847.54	226.65
847.85	226.66
848.16	226.65
848.48	226.59
848.79	226.77
849.10	226.73
849.42	226.73
849.73	226.32
850.04	226.34
850.36	226.15
850.67	226.24
850.98	226.12
851.30	226.20
851.61	226.19
851.92	226.26
852.23	226.45
852.55	226.49
852.86	226.45
853.17	226.44
853.49	226.50
853.80	226.66
854.11	226.71
854.42	226.80
854.74	226.73
855.05	226.74
855.36	226.50
855.67	226.60
855.99	226.54
856.30	227.10
856.61	227.03
856.92	227.07
857.23	227.06
857.55	227.03
857.86	227.02
858.17	227.14
858.48	227.05
858.79	226.97
859.11	227.05
859.42	227.12
859.73	227.15
860.04	227.11
860.35	226.99
860.66	226.85
860.98	226.82
861.29	226.88
861.60	226.83
861.91	226.95
862.22	226.89
862.53	226.83
862.84	226.26
863.16	226.40
863.47	226.29
863.78	226.24
864.09	226.32
864.40	226.32
864.71	226.22
865.02	226.23
865.33	226.15
865.64	226.06
865.95	226.02
866.27	226.32
866.58	226.33
866.89	226.35
867.20	226.40
867.51	226.29
867.82	226.23
868.13	226.42
868.44	226.26
868.75	226.30
869.06	226.37
869.37	226.42
869.68	226.32
869.99	226.42
870.30	226.46
870.61	226.59
870.92	226.46
871.23	226.50
871.54	226.61
871.85	226.70
872.16	226.76
872.47	226.69
872.78	226.35
873.09	226.43
873.40	226.40
873.71	226.39
874.02	226.50
874.33	226.45
874.64	226.26
874.95	226.36
875.26	226.31
875.56	226.30
875.87	226.31
876.18	226.26
876.49	226.79
876.80	226.71
877.11	226.55
877.42	226.63
877.73	226.58
878.04	226.46
878.35	226.46
878.66	226.45
878.96	226.49
879.27	226.48
879.58	226.34
879.89	226.34
880.20	226.48
880.51	226.42
880.82	226.47
881.12	226.54
881.43	226.48
881.74	226.42
882.05	226.37
882.36	226.37
882.67	226.44
882.97	225.87
883.28	225.85
883.59	225.86
883.90	225.91
884.21	226.00
884.51	225.97
884.82	225.95
885.13	225.96
885.44	226.00
885.74	226.08
886.05	226.16
886.36	226.16
886.67	226.00
886.98	226.20
887.28	226.24
887.59	226.23
887.90	226.18
888.20	226.16
888.51	226.30
888.82	226.22
889.13	226.19
889.43	226.61
889.74	226.65
890.05	226.62
890.35	226.60
890.66	226.55
890.97	226.55
891.28	226.51
891.58	226.49
891.89	226.44
892.20	226.32
892.50	226.23
892.81	226.21
893.12	226.18
893.42	225.96
893.73	225.94
894.04	225.94
894.34	226.05
894.65	226.08
894.95	225.95
895.26	225.96
895.57	226.14
895.87	225.74
896.18	225.82
896.48	225.83
896.79	225.79
897.10	225.90
897.40	225.94
897.71	225.91
898.01	225.87
898.32	225.95
898.63	225.95
898.93	226.05
899.24	226.15
899.54	226.21
899.85	226.25
900.15	226.27
900.46	226.30
900.76	226.33
901.07	226.33
901.38	226.38
901.68	226.46
901.99	226.24
902.29	226.25
902.60	226.09
902.90	226.06
903.21	226.06
903.51	226.01
903.82	226.08
904.12	226.14
904.43	226.13
904.73	226.11
905.03	226.12
905.34	226.48
905.64	226.40
905.95	226.38
906.25	226.29
906.56	226.28
906.86	226.25
907.17	226.17
907.47	226.18
907.77	226.12
908.08	226.05
908.38	226.11
908.69	226.12
908.99	226.28
909.30	226.33
909.60	226.37
909.90	226.34
910.21	226.20
910.51	226.17
910.81	226.28
911.12	226.31
911.42	226.36
911.73	225.85
912.03	225.87
912.33	225.97
912.64	225.94
912.94	225.87
913.24	225.75
913.55	225.72
913.85	225.72
914.15	225.85
914.46	225.91
914.76	225.89
915.06	225.86
915.37	225.85
915.67	225.83
915.97	225.83
916.27	225.72
916.58	225.78
916.88	225.74
917.18	225.70
917.49	226.00
917.79	225.97
918.09	226.08
918.39	226.20
918.70	226.19
919.00	226.28
919.30	226.55
919.60	226.59
919.91	226.59
920.21	226.60
920.51	226.44
920.81	226.39
921.12	226.42
921.42	226.41
921.72	226.38
922.02	226.43
922.32	226.50
922.63	226.60
922.93	226.79
923.23	226.81
923.53	226.71
923.83	226.36
924.13	226.47
924.44	226.51
924.74	226.62
925.04	226.70
925.34	226.67
925.64	226.44
925.94	226.42
926.24	226.67
926.55	226.66
926.85	226.79
927.15	226.80
927.45	226.90
927.75	226.90
928.05	226.88
928.35	226.82
928.65	226.85
928.95	226.87
929.26	226.73
929.56	226.81
929.86	226.92
930.16	226.91
930.46	226.81
930.76	226.83
931.06	226.54
931.36	226.37
931.66	226.46
931.96	226.55
932.26	226.54
932.56	226.30
932.86	226.41
933.16	226.34
933.46	226.26
933.76	226.05
934.06	226.13
934.36	226.30
934.66	226.26
934.96	226.22
935.26	226.27
935.56	226.34
935.86	226.25
936.16	226.14
936.46	226.10
936.76	226.02
937.06	225.85
937.36	225.97
937.66	225.95
937.96	225.90
938.26	225.77
938.56	225.79
938.86	225.88
939.16	225.90
939.46	225.97
939.76	225.98
940.06	226.06
940.35	226.02
940.65	225.75
940.95	225.83
941.25	225.68
941.55	225.53
941.85	225.45
942.15	225.47
942.45	225.54
942.75	225.57
943.04	225.65
943.34	225.78
943.64	225.68
943.94	225.68
944.24	225.71
944.54	225.77
944.84	225.81
945.13	225.71
945.43	225.61
945.73	225.58
946.03	225.59
946.33	225.55
946.62	225.50
946.92	225.49
947.22	225.50
947.52	225.57
947.82	225.65
948.11	225.60
948.41	225.61
948.71	225.52
949.01	225.53
949.31	225.42
949.60	225.43
949.90	225.50
950.20	225.51
950.50	225.43
950.79	225.41
951.09	225.44
951.39	225.45
951.69	225.48
951.98	225.59
952.28	225.58
952.58	225.58
952.87	225.54
953.17	225.64
953.47	225.63
953.76	225.68
954.06	225.57
954.36	225.53
954.66	225.45
954.95	225.62
955.25	225.69
955.55	225.81
955.84	225.77
956.14	225.85
956.44	225.85
956.73	225.80
957.03	225.82
957.32	225.72
957.62	225.64
957.92	225.64
958.21	225.62
958.51	226.19
958.81	226.21
959.10	226.35
959.40	226.48
959.69	226.49
959.99	226.50
960.29	226.52
960.58	226.50
960.88	226.65
961.17	226.58
961.47	226.55
961.76	226.45
962.06	226.51
962.36	226.39
962.65	226.36
962.95	226.40
963.24	226.31
963.54	226.42
963.83	226.49
964.13	226.50
964.42	226.34
964.72	225.91
965.01	225.93
965.31	225.87
965.60	225.74
965.90	225.98
966.19	225.80
966.49	225.80
966.78	225.76
967.08	225.78
967.37	225.79
967.67	225.72
967.96	225.82
968.26	225.72
968.55	225.77
968.85	225.83
969.14	225.89
969.43	225.92
969.73	225.80
970.02	225.79
970.32	225.70
970.61	225.67
970.91	225.52
971.20	225.41
971.49	225.35
971.79	225.35
972.08	225.00
972.38	225.10
972.67	225.00
972.96	225.03
973.26	224.90
973.55	224.97
973.85	224.87
974.14	224.87
974.43	224.89
974.73	224.83
975.02	224.73
975.31	224.69
975.61	224.73
975.90	224.74
976.19	224.75
976.49	224.87
976.78	225.01
977.07	225.02
977.37	225.08
977.66	225.15
977.95	225.13
978.24	225.18
978.54	225.30
978.83	225.34
979.12	225.37
979.42	225.34
979.71	225.30
980.00	225.39
980.29	225.33
980.59	225.30
980.88	225.37
981.17	225.43
981.46	225.42
981.76	225.36
982.05	225.54
982.34	225.54
982.63	225.49
982.93	225.44
983.22	225.55
983.51	225.53
983.80	225.58
984.09	225.63
984.39	225.65
984.68	225.57
984.97	225.58
985.26	225.58
985.55	225.68
985.85	225.62
986.14	225.70
986.43	225.84
986.72	225.87
987.01	225.80
987.30	225.73
987.59	225.70
987.89	225.75
988.18	225.60
988.47	225.56
988.76	225.53
989.05	225.53
989.34	225.46
989.63	225.72
989.92	225.64
990.22	225.56
990.51	225.54
990.80	225.52
991.09	225.53
991.38	225.60
991.67	225.50
991.96	225.42
992.25	225.45
992.54	225.31
992.83	225.27
993.12	225.28
993.41	225.45
993.70	225.64
993.99	225.70
994.28	225.75
994.58	225.85
994.87	225.75
995.16	225.75
995.45	225.70
995.74	225.47
996.03	225.53
996.32	225.61
996.61	225.74
996.90	225.77
997.19	225.75
997.48	225.77
997.77	225.75
998.06	225.80
998.34	225.72
998.63	225.80
998.92	225.85
999.21	225.96
999.50	225.90
999.79	225.78
1000.08	225.78
1000.37	225.81
1000.66	225.66
1000.95	225.88
1001.24	225.85
1001.53	225.89
1001.82	225.86
1002.11	225.75
1002.40	225.80
1002.68	225.84
1002.97	226.11
1003.26	226.08
1003.55	225.97
1003.84	226.03
1004.13	226.18
1004.42	226.17
1004.71	226.08
1004.99	226.01
1005.28	226.07
1005.57	226.05
1005.86	225.92
1006.15	225.87
1006.44	225.70
1006.72	225.75
1007.01	225.61
1007.30	225.52
1007.59	225.49
1007.88	225.50
1008.17	225.50
1008.45	225.36
1008.74	225.18
1009.03	225.02
1009.32	225.04
1009.60	225.04
1009.89	224.89
1010.18	224.59
1010.47	224.55
1010.76	224.55
1011.04	224.51
1011.33	224.46
1011.62	224.51
1011.91	224.55
1012.19	224.55
1012.48	224.68
1012.77	224.70
1013.05	224.91
1013.34	224.97
1013.63	224.97
1013.92	224.98
1014.20	224.97
1014.49	225.01
1014.78	225.07
1015.06	224.87
1015.35	224.86
1015.64	224.91
1015.92	225.05
1016.21	225.14
1016.50	225.14
1016.78	225.19
1017.07	225.26
1017.36	225.17
1017.64	225.05
1017.93	225.13
1018.22	225.10
1018.50	225.05
1018.79	225.10
1019.08	224.94
1019.36	224.96
1019.65	224.93
1019.93	225.05
1020.22	225.10
1020.51	225.37
1020.79	225.25
1021.08	224.25
1021.36	225.15
1021.65	226.30
1021.94	225.75
1022.22	224.45
1022.51	224.60
1022.79	227.60
1023.08	225.40
1023.36	230.95
1023.65	223.55
>>>>>End Processed Spectral Data<<<<<
