SpectraSuite Data File
++++++++++++++++++++++++++++++++++++
Date: Wed Sep 04 17:56:35 EDT 2013
User: lab3
Dark Spectrum Present: Yes
Reference Spectrum Present: No
Number of Sampled Component Spectra: 1
Spectrometers: USB2E7196
Integration Time (usec): 170000 (USB2E7196)
Spectra Averaged: 20 (USB2E7196)
Boxcar Smoothing: 10 (USB2E7196)
Correct for Electrical Dark: No (USB2E7196)
Strobe/Lamp Enabled: No (USB2E7196)
Correct for Detector Non-linearity: No (USB2E7196)
Correct for Stray Light: No (USB2E7196)
Number of Pixels in Processed Spectrum: 2048
>>>>>Begin Processed Spectral Data<<<<<
339.09	0.00
339.48	212.35
339.86	214.10
340.24	216.85
340.63	216.70
341.01	227.75
341.39	220.55
341.78	221.30
342.16	222.80
342.54	224.35
342.93	212.57
343.31	223.27
343.69	223.87
344.07	224.41
344.46	224.84
344.84	225.32
345.22	225.18
345.60	225.42
345.99	225.70
346.37	225.85
346.75	225.89
347.13	225.95
347.52	226.00
347.90	226.27
348.28	226.33
348.66	226.46
349.05	226.37
349.43	226.41
349.81	226.41
350.19	226.40
350.57	226.46
350.96	226.58
351.34	226.68
351.72	226.78
352.10	226.87
352.48	226.87
352.87	226.85
353.25	226.97
353.63	227.03
354.01	227.00
354.39	227.05
354.77	227.11
355.15	227.31
355.54	227.32
355.92	227.25
356.30	227.35
356.68	227.67
357.06	227.72
357.44	227.70
357.82	227.83
358.20	228.39
358.58	228.40
358.97	228.41
359.35	228.60
359.73	228.75
360.11	228.72
360.49	228.86
360.87	228.90
361.25	229.00
361.63	229.15
362.01	229.27
362.39	229.33
362.77	229.50
363.15	229.57
363.53	229.70
363.91	229.80
364.29	229.77
364.67	229.34
365.05	229.38
365.43	229.40
365.81	229.49
366.19	229.29
366.57	229.55
366.95	229.55
367.33	229.42
367.71	229.36
368.09	229.56
368.47	229.50
368.85	229.54
369.23	229.57
369.61	229.50
369.99	229.65
370.37	229.65
370.75	229.86
371.13	229.70
371.51	229.53
371.89	229.51
372.27	229.48
372.65	229.49
373.03	229.52
373.41	229.53
373.78	229.45
374.16	229.21
374.54	229.00
374.92	228.92
375.30	228.87
375.68	228.74
376.06	228.67
376.44	228.64
376.82	228.59
377.19	228.55
377.57	228.45
377.95	228.30
378.33	228.24
378.71	227.85
379.09	227.85
379.47	227.87
379.84	227.77
380.22	227.64
380.60	227.50
380.98	227.32
381.36	227.24
381.73	227.08
382.11	227.09
382.49	227.01
382.87	226.93
383.25	226.87
383.62	227.42
384.00	227.25
384.38	227.17
384.76	227.22
385.13	227.28
385.51	227.24
385.89	227.04
386.27	227.02
386.64	227.05
387.02	226.94
387.40	226.83
387.78	226.75
388.15	226.71
388.53	226.67
388.91	226.66
389.29	226.60
389.66	226.64
390.04	226.56
390.42	226.58
390.79	226.62
391.17	226.64
391.55	226.06
391.92	226.03
392.30	226.14
392.68	226.10
393.05	226.03
393.43	226.03
393.81	226.11
394.18	226.04
394.56	225.98
394.94	226.10
395.31	226.11
395.69	226.35
396.06	226.49
396.44	226.65
396.82	226.61
397.19	226.93
397.57	226.94
397.95	227.03
398.32	227.02
398.70	227.07
399.07	227.18
399.45	227.31
399.82	227.35
400.20	227.41
400.58	227.50
400.95	227.47
401.33	227.60
401.70	228.03
402.08	228.17
402.45	228.34
402.83	228.51
403.20	228.75
403.58	228.78
403.95	228.99
404.33	229.22
404.71	229.51
405.08	229.90
405.46	230.13
405.83	230.39
406.21	230.64
406.58	231.00
406.96	231.30
407.33	231.57
407.70	232.00
408.08	232.69
408.45	233.10
408.83	233.62
409.20	234.04
409.58	234.18
409.95	234.73
410.33	235.33
410.70	235.79
411.08	236.45
411.45	237.05
411.82	237.59
412.20	238.32
412.57	239.32
412.95	239.71
413.32	240.62
413.69	241.46
414.07	242.45
414.44	243.34
414.82	244.30
415.19	245.60
415.56	246.86
415.94	247.87
416.31	249.27
416.68	250.67
417.06	252.40
417.43	254.03
417.81	255.81
418.18	257.58
418.55	259.50
418.93	261.51
419.30	263.62
419.67	265.95
420.04	268.19
420.42	270.47
420.79	273.57
421.16	276.31
421.54	279.35
421.91	282.28
422.28	285.46
422.66	288.83
423.03	292.14
423.40	295.48
423.77	298.96
424.15	302.61
424.52	306.40
424.89	310.47
425.26	314.53
425.64	318.33
426.01	322.59
426.38	326.98
426.75	331.58
427.13	336.21
427.50	340.98
427.87	345.92
428.24	350.90
428.61	355.37
428.99	360.75
429.36	366.35
429.73	371.89
430.10	377.37
430.47	383.01
430.85	388.68
431.22	394.85
431.59	401.78
431.96	407.97
432.33	414.90
432.70	421.51
433.08	429.26
433.45	436.63
433.82	443.84
434.19	452.10
434.56	459.94
434.93	467.70
435.30	475.35
435.68	483.86
436.05	492.14
436.42	500.43
436.79	508.00
437.16	516.18
437.53	524.86
437.90	533.60
438.27	542.39
438.64	551.47
439.01	559.78
439.38	566.89
439.75	574.20
440.13	582.35
440.50	590.07
440.87	596.24
441.24	602.67
441.61	609.70
441.98	614.78
442.35	620.88
442.72	626.79
443.09	632.58
443.46	636.05
443.83	638.51
444.20	640.54
444.57	643.46
444.94	644.47
445.31	645.79
445.68	647.13
446.05	647.01
446.42	645.50
446.79	644.04
447.16	642.43
447.53	640.91
447.90	637.01
448.27	633.13
448.64	628.21
449.01	624.46
449.37	618.30
449.74	612.28
450.11	605.24
450.48	597.44
450.85	589.55
451.22	582.64
451.59	576.06
451.96	569.76
452.33	561.48
452.70	554.22
453.07	545.52
453.43	536.32
453.80	528.05
454.17	519.94
454.54	512.17
454.91	504.05
455.28	496.25
455.65	488.88
456.02	481.97
456.38	475.65
456.75	467.94
457.12	461.43
457.49	455.05
457.86	448.72
458.23	443.46
458.59	437.73
458.96	432.00
459.33	426.88
459.70	421.78
460.07	417.69
460.43	412.98
460.80	408.59
461.17	404.90
461.54	400.83
461.91	397.12
462.27	393.34
462.64	389.97
463.01	386.30
463.38	383.03
463.74	379.05
464.11	376.06
464.48	373.36
464.85	370.55
465.21	368.50
465.58	366.21
465.95	363.57
466.32	361.33
466.68	359.10
467.05	356.74
467.42	354.50
467.78	352.11
468.15	349.97
468.52	348.36
468.88	346.09
469.25	344.25
469.62	342.85
469.98	341.20
470.35	339.67
470.72	338.21
471.08	336.45
471.45	335.33
471.82	334.08
472.18	332.66
472.55	331.59
472.92	330.07
473.28	328.93
473.65	327.78
474.02	326.68
474.38	325.77
474.75	325.12
475.11	324.27
475.48	323.74
475.85	323.16
476.21	322.52
476.58	322.09
476.94	321.66
477.31	321.19
477.67	320.74
478.04	320.46
478.41	320.29
478.77	320.60
479.14	320.29
479.50	320.16
479.87	320.26
480.23	320.36
480.60	320.37
480.96	320.43
481.33	320.83
481.69	321.09
482.06	321.31
482.42	321.54
482.79	321.88
483.15	322.32
483.52	322.86
483.88	323.32
484.25	323.94
484.61	324.57
484.98	325.22
485.34	326.30
485.71	327.24
486.07	328.18
486.44	328.82
486.80	329.88
487.17	331.01
487.53	332.43
487.90	333.77
488.26	335.58
488.62	337.22
488.99	338.69
489.35	340.42
489.72	342.33
490.08	344.33
490.44	346.40
490.81	348.62
491.17	350.83
491.54	353.35
491.90	355.90
492.26	358.56
492.63	361.35
492.99	364.02
493.36	367.20
493.72	370.66
494.08	374.04
494.45	377.81
494.81	381.68
495.17	385.46
495.54	389.71
495.90	393.91
496.26	398.31
496.63	402.96
496.99	407.70
497.35	412.72
497.72	417.96
498.08	423.45
498.44	429.07
498.80	435.18
499.17	441.27
499.53	447.46
499.89	454.22
500.26	461.03
500.62	468.07
500.98	475.44
501.34	482.75
501.71	490.62
502.07	498.49
502.43	506.61
502.79	515.00
503.16	523.72
503.52	532.58
503.88	541.90
504.24	551.64
504.60	561.85
504.97	572.17
505.33	582.60
505.69	593.66
506.05	604.76
506.41	616.05
506.78	627.82
507.14	639.91
507.50	652.08
507.86	664.83
508.22	677.87
508.59	690.70
508.95	704.56
509.31	718.55
509.67	732.63
510.03	746.81
510.39	761.62
510.75	776.66
511.12	791.94
511.48	807.60
511.84	823.30
512.20	839.09
512.56	855.35
512.92	872.17
513.28	888.85
513.64	906.06
514.00	923.57
514.37	941.14
514.73	959.25
515.09	977.53
515.45	995.84
515.81	1014.09
516.17	1032.97
516.53	1051.43
516.89	1069.99
517.25	1089.50
517.61	1110.04
517.97	1130.39
518.33	1150.32
518.69	1170.38
519.05	1190.75
519.41	1211.54
519.77	1232.69
520.13	1253.53
520.49	1274.24
520.85	1296.64
521.21	1317.84
521.57	1339.09
521.93	1359.87
522.29	1381.12
522.65	1401.85
523.01	1422.81
523.37	1443.62
523.73	1464.66
524.09	1485.35
524.45	1506.38
524.81	1527.48
525.17	1548.15
525.53	1568.53
525.89	1589.40
526.25	1610.54
526.61	1631.07
526.97	1652.18
527.33	1673.32
527.68	1695.36
528.04	1716.45
528.40	1736.07
528.76	1757.19
529.12	1777.78
529.48	1798.89
529.84	1818.92
530.20	1840.31
530.56	1861.30
530.91	1882.30
531.27	1902.66
531.63	1923.41
531.99	1943.93
532.35	1963.60
532.71	1983.81
533.07	2004.58
533.42	2024.46
533.78	2044.27
534.14	2064.29
534.50	2083.25
534.86	2102.73
535.21	2120.01
535.57	2138.48
535.93	2156.33
536.29	2174.31
536.65	2192.29
537.00	2209.58
537.36	2227.26
537.72	2243.71
538.08	2260.49
538.44	2277.10
538.79	2293.81
539.15	2310.29
539.51	2326.07
539.87	2341.68
540.22	2355.80
540.58	2369.97
540.94	2383.09
541.29	2396.01
541.65	2408.57
542.01	2421.12
542.37	2431.52
542.72	2442.56
543.08	2453.74
543.44	2465.55
543.79	2475.31
544.15	2485.29
544.51	2495.45
544.87	2505.23
545.22	2513.68
545.58	2521.62
545.94	2529.06
546.29	2535.60
546.65	2541.96
547.01	2547.95
547.36	2553.40
547.72	2558.70
548.07	2562.70
548.43	2568.20
548.79	2572.93
549.14	2576.93
549.50	2581.02
549.86	2584.94
550.21	2588.87
550.57	2592.04
550.92	2593.26
551.28	2594.52
551.64	2596.77
551.99	2598.65
552.35	2600.19
552.70	2602.44
553.06	2604.07
553.41	2604.93
553.77	2606.63
554.13	2608.15
554.48	2609.33
554.84	2610.66
555.19	2611.98
555.55	2613.75
555.90	2613.00
556.26	2612.06
556.61	2610.50
556.97	2608.30
557.32	2607.65
557.68	2606.50
558.03	2604.79
558.39	2603.74
558.74	2603.13
559.10	2599.76
559.45	2596.27
559.81	2591.89
560.16	2586.50
560.52	2581.64
560.87	2577.63
561.23	2571.95
561.58	2565.86
561.94	2559.29
562.29	2552.04
562.64	2544.85
563.00	2536.68
563.35	2530.27
563.71	2523.78
564.06	2517.29
564.42	2510.61
564.77	2503.97
565.12	2496.18
565.48	2488.61
565.83	2480.44
566.19	2472.24
566.54	2464.40
566.89	2456.15
567.25	2448.21
567.60	2441.28
567.96	2433.95
568.31	2426.01
568.66	2417.90
569.02	2409.06
569.37	2400.90
569.72	2393.14
570.08	2383.82
570.43	2374.30
570.78	2365.33
571.14	2355.87
571.49	2346.13
571.84	2336.51
572.20	2325.41
572.55	2315.34
572.90	2304.34
573.26	2293.70
573.61	2282.38
573.96	2271.36
574.31	2259.60
574.67	2248.00
575.02	2235.31
575.37	2222.38
575.72	2208.99
576.08	2196.96
576.43	2184.34
576.78	2171.14
577.13	2157.45
577.49	2144.77
577.84	2132.77
578.19	2120.34
578.54	2107.49
578.90	2095.35
579.25	2083.05
579.60	2070.55
579.95	2057.49
580.30	2044.75
580.66	2031.55
581.01	2018.36
581.36	2004.39
581.71	1991.74
582.06	1978.64
582.42	1965.94
582.77	1953.41
583.12	1941.54
583.47	1928.70
583.82	1916.97
584.17	1904.74
584.53	1892.97
584.88	1880.21
585.23	1867.20
585.58	1853.31
585.93	1840.41
586.28	1827.16
586.63	1813.13
586.98	1798.89
587.34	1785.55
587.69	1771.87
588.04	1759.23
588.39	1746.95
588.74	1734.97
589.09	1722.65
589.44	1710.07
589.79	1698.03
590.14	1685.96
590.49	1673.46
590.84	1661.35
591.19	1649.06
591.54	1636.95
591.89	1624.54
592.25	1614.23
592.60	1602.62
592.95	1591.03
593.30	1578.95
593.65	1566.77
594.00	1554.88
594.35	1545.25
594.70	1533.60
595.05	1522.32
595.40	1510.31
595.75	1498.39
596.10	1486.86
596.45	1475.35
596.80	1464.37
597.15	1453.23
597.50	1441.53
597.85	1430.49
598.19	1419.00
598.54	1407.34
598.89	1396.25
599.24	1385.77
599.59	1373.94
599.94	1363.10
600.29	1352.71
600.64	1342.31
600.99	1331.48
601.34	1321.92
601.69	1310.64
602.04	1300.95
602.39	1291.19
602.74	1282.23
603.08	1272.80
603.43	1263.63
603.78	1254.02
604.13	1244.40
604.48	1234.27
604.83	1224.49
605.18	1214.69
605.53	1205.27
605.87	1195.93
606.22	1187.25
606.57	1177.94
606.92	1168.67
607.27	1159.86
607.62	1151.02
607.96	1142.36
608.31	1134.73
608.66	1126.15
609.01	1117.55
609.36	1109.00
609.70	1100.49
610.05	1091.32
610.40	1082.95
610.75	1074.26
611.10	1065.90
611.44	1057.16
611.79	1049.04
612.14	1040.97
612.49	1032.98
612.83	1025.19
613.18	1017.55
613.53	1009.87
613.88	1001.80
614.22	994.00
614.57	986.08
614.92	978.47
615.27	970.87
615.61	963.04
615.96	955.49
616.31	947.98
616.65	940.75
617.00	933.38
617.35	926.42
617.70	919.24
618.04	912.10
618.39	905.29
618.74	898.86
619.08	892.04
619.43	885.23
619.78	878.33
620.12	871.27
620.47	864.22
620.82	856.95
621.16	850.22
621.51	843.91
621.85	837.46
622.20	830.71
622.55	824.19
622.89	817.67
623.24	811.26
623.59	804.99
623.93	798.66
624.28	792.60
624.62	787.02
624.97	781.21
625.32	775.36
625.66	769.35
626.01	763.34
626.35	757.69
626.70	752.01
627.04	746.61
627.39	741.06
627.73	735.95
628.08	730.74
628.43	725.40
628.77	719.86
629.12	714.47
629.46	709.77
629.81	705.05
630.15	700.43
630.50	695.56
630.84	690.69
631.19	685.95
631.53	681.27
631.88	675.78
632.22	670.88
632.57	666.41
632.91	661.97
633.26	657.48
633.60	652.94
633.95	648.34
634.29	643.58
634.64	639.08
634.98	634.22
635.32	629.66
635.67	625.65
636.01	621.52
636.36	617.28
636.70	613.05
637.05	608.79
637.39	604.63
637.73	600.41
638.08	596.36
638.42	592.15
638.77	587.81
639.11	583.70
639.45	579.43
639.80	574.99
640.14	570.68
640.49	566.66
640.83	562.67
641.17	558.95
641.52	555.34
641.86	551.84
642.20	548.70
642.55	545.22
642.89	541.53
643.23	538.02
643.58	535.05
643.92	531.31
644.26	527.89
644.61	524.56
644.95	521.22
645.29	517.80
645.64	514.68
645.98	511.70
646.32	508.63
646.66	505.30
647.01	502.42
647.35	499.57
647.69	496.55
648.04	493.78
648.38	490.91
648.72	487.94
649.06	484.83
649.41	481.74
649.75	478.62
650.09	475.72
650.43	472.83
650.78	469.64
651.12	466.90
651.46	464.08
651.80	461.28
652.14	458.62
652.49	456.12
652.83	453.36
653.17	450.66
653.51	448.05
653.85	445.83
654.20	443.25
654.54	440.74
654.88	438.14
655.22	436.03
655.56	433.64
655.90	431.22
656.25	428.96
656.59	426.67
656.93	424.55
657.27	422.40
657.61	420.02
657.95	417.75
658.29	415.40
658.64	413.31
658.98	411.00
659.32	408.68
659.66	406.39
660.00	404.32
660.34	402.22
660.68	400.25
661.02	398.10
661.36	396.17
661.70	394.10
662.05	392.29
662.39	390.24
662.73	388.37
663.07	386.82
663.41	385.02
663.75	383.11
664.09	381.30
664.43	379.34
664.77	377.80
665.11	376.16
665.45	374.65
665.79	372.98
666.13	371.32
666.47	369.69
666.81	368.12
667.15	366.42
667.49	365.02
667.83	363.61
668.17	362.16
668.51	360.70
668.85	359.33
669.19	358.20
669.53	356.66
669.87	355.15
670.21	353.54
670.55	352.17
670.89	351.18
671.23	349.80
671.57	348.50
671.91	347.05
672.25	345.70
672.58	344.49
672.92	343.09
673.26	341.83
673.60	340.68
673.94	339.46
674.28	338.38
674.62	337.28
674.96	336.05
675.30	334.91
675.64	333.73
675.97	332.61
676.31	331.21
676.65	330.04
676.99	329.13
677.33	327.95
677.67	326.89
678.01	325.53
678.34	324.47
678.68	323.64
679.02	322.59
679.36	321.60
679.70	320.52
680.04	319.59
680.37	318.62
680.71	317.57
681.05	316.74
681.39	315.77
681.73	314.79
682.06	313.78
682.40	312.87
682.74	311.99
683.08	311.25
683.42	310.29
683.75	309.49
684.09	308.50
684.43	307.70
684.77	306.80
685.10	305.93
685.44	305.11
685.78	304.10
686.12	303.32
686.45	302.48
686.79	301.66
687.13	300.92
687.46	300.21
687.80	299.56
688.14	298.64
688.48	297.95
688.81	297.10
689.15	296.39
689.49	295.60
689.82	294.88
690.16	293.98
690.50	293.36
690.83	292.54
691.17	291.75
691.51	291.08
691.84	290.45
692.18	289.74
692.52	289.08
692.85	288.51
693.19	288.17
693.52	287.48
693.86	286.77
694.20	286.13
694.53	285.41
694.87	284.71
695.21	284.03
695.54	283.38
695.88	282.70
696.21	282.01
696.55	281.40
696.88	280.73
697.22	280.05
697.56	279.45
697.89	278.85
698.23	278.40
698.56	277.82
698.90	277.31
699.23	276.82
699.57	276.35
699.90	275.71
700.24	274.94
700.58	274.53
700.91	274.13
701.25	273.94
701.58	273.91
701.92	273.55
702.25	273.14
702.59	272.64
702.92	272.25
703.26	271.86
703.59	271.41
703.93	271.42
704.26	271.06
704.60	270.72
704.93	270.37
705.26	269.85
705.60	269.45
705.93	269.00
706.27	268.70
706.60	268.44
706.94	268.30
707.27	267.82
707.61	267.45
707.94	267.06
708.27	266.33
708.61	265.54
708.94	265.00
709.28	264.66
709.61	264.36
709.94	264.08
710.28	263.71
710.61	263.37
710.95	262.65
711.28	262.56
711.61	262.17
711.95	261.95
712.28	261.62
712.61	261.28
712.95	261.15
713.28	261.04
713.61	260.50
713.95	259.99
714.28	259.76
714.61	259.36
714.95	258.99
715.28	258.65
715.61	258.29
715.95	258.11
716.28	257.72
716.61	257.42
716.95	257.03
717.28	256.76
717.61	256.46
717.94	256.17
718.28	255.60
718.61	255.32
718.94	254.90
719.27	254.66
719.61	254.40
719.94	254.02
720.27	253.50
720.60	253.28
720.94	253.10
721.27	252.86
721.60	252.72
721.93	252.52
722.27	252.52
722.60	252.37
722.93	252.20
723.26	252.16
723.59	251.86
723.93	251.74
724.26	251.64
724.59	251.49
724.92	251.31
725.25	251.27
725.59	251.02
725.92	250.88
726.25	250.69
726.58	250.56
726.91	250.24
727.24	250.14
727.57	250.00
727.91	249.70
728.24	249.51
728.57	249.27
728.90	249.06
729.23	248.66
729.56	248.66
729.89	248.37
730.22	248.01
730.55	247.92
730.89	247.68
731.22	247.35
731.55	247.11
731.88	247.01
732.21	246.63
732.54	246.42
732.87	246.22
733.20	246.04
733.53	245.85
733.86	245.83
734.19	245.55
734.52	245.43
734.85	245.60
735.18	245.39
735.51	245.43
735.84	245.31
736.17	245.32
736.50	244.95
736.83	245.35
737.16	245.25
737.49	245.01
737.82	244.88
738.15	244.82
738.48	244.70
738.81	244.43
739.14	244.27
739.47	244.00
739.80	243.88
740.13	243.82
740.46	243.60
740.79	243.35
741.12	243.20
741.45	242.91
741.78	242.43
742.11	242.46
742.44	242.09
742.77	242.02
743.10	241.76
743.43	241.67
743.75	241.01
744.08	241.48
744.41	241.36
744.74	241.15
745.07	240.85
745.40	240.83
745.73	240.95
746.06	240.88
746.39	240.93
746.71	240.78
747.04	240.57
747.37	240.48
747.70	240.44
748.03	240.27
748.36	240.30
748.68	240.27
749.01	239.99
749.34	239.90
749.67	239.80
750.00	239.83
750.33	240.05
750.65	240.00
750.98	239.28
751.31	239.15
751.64	239.09
751.97	239.28
752.29	239.10
752.62	238.75
752.95	238.65
753.28	238.42
753.60	238.31
753.93	238.35
754.26	238.20
754.59	237.98
754.91	237.92
755.24	237.78
755.57	237.64
755.90	237.55
756.22	237.44
756.55	237.28
756.88	237.02
757.20	236.62
757.53	236.41
757.86	236.29
758.19	236.27
758.51	236.10
758.84	235.83
759.17	235.66
759.49	235.58
759.82	235.77
760.15	235.79
760.47	235.68
760.80	235.45
761.13	235.53
761.45	235.47
761.78	235.31
762.11	235.19
762.43	235.14
762.76	235.11
763.08	235.09
763.41	235.10
763.74	235.05
764.06	234.90
764.39	234.86
764.71	234.86
765.04	234.70
765.37	234.70
765.69	234.64
766.02	234.68
766.34	234.61
766.67	234.30
767.00	234.29
767.32	234.47
767.65	234.65
767.97	234.49
768.30	234.48
768.62	234.45
768.95	234.35
769.27	234.26
769.60	234.20
769.92	234.09
770.25	233.92
770.57	233.81
770.90	233.80
771.22	233.73
771.55	233.66
771.87	233.73
772.20	233.73
772.52	234.08
772.85	234.55
773.17	234.48
773.50	234.38
773.82	234.27
774.15	233.99
774.47	233.66
774.80	233.55
775.12	233.38
775.45	233.32
775.77	233.29
776.09	233.27
776.42	233.19
776.74	233.26
777.07	233.17
777.39	233.07
777.72	232.96
778.04	232.97
778.36	232.93
778.69	232.78
779.01	232.70
779.33	232.23
779.66	231.57
779.98	231.54
780.31	231.51
780.63	231.68
780.95	231.75
781.28	231.67
781.60	231.53
781.92	231.51
782.25	231.48
782.57	231.42
782.89	231.33
783.22	231.22
783.54	231.07
783.86	231.07
784.19	231.08
784.51	231.25
784.83	231.06
785.16	230.93
785.48	230.91
785.80	230.81
786.12	230.74
786.45	230.73
786.77	230.72
787.09	230.73
787.42	230.48
787.74	230.43
788.06	230.48
788.38	230.49
788.71	230.47
789.03	230.50
789.35	230.58
789.67	230.43
789.99	230.46
790.32	230.34
790.64	230.36
790.96	230.67
791.28	230.35
791.61	230.32
791.93	230.30
792.25	230.26
792.57	230.59
792.89	230.51
793.21	230.55
793.54	230.42
793.86	230.29
794.18	230.29
794.50	230.20
794.82	230.14
795.14	230.21
795.47	230.22
795.79	230.21
796.11	230.05
796.43	230.09
796.75	230.04
797.07	230.15
797.39	230.11
797.71	229.75
798.04	229.83
798.36	229.81
798.68	229.86
799.00	229.86
799.32	229.60
799.64	229.66
799.96	229.58
800.28	229.70
800.60	229.68
800.92	229.65
801.24	229.61
801.56	229.60
801.89	229.52
802.21	229.53
802.53	229.35
802.85	229.47
803.17	229.65
803.49	229.56
803.81	229.36
804.13	229.25
804.45	229.18
804.77	229.25
805.09	229.25
805.41	229.17
805.73	229.08
806.05	228.95
806.37	228.84
806.69	228.86
807.01	228.82
807.33	228.83
807.65	228.75
807.97	228.92
808.28	228.90
808.60	228.87
808.92	228.76
809.24	229.06
809.56	228.98
809.88	228.76
810.20	228.77
810.52	228.90
810.84	228.82
811.16	228.78
811.48	228.67
811.80	228.86
812.12	228.78
812.43	228.84
812.75	228.90
813.07	228.87
813.39	228.79
813.71	228.70
814.03	228.70
814.35	228.63
814.67	228.40
814.98	228.32
815.30	228.35
815.62	228.32
815.94	228.01
816.26	228.20
816.58	228.09
816.89	228.11
817.21	228.01
817.53	228.04
817.85	228.01
818.17	227.97
818.48	227.76
818.80	227.85
819.12	227.87
819.44	227.80
819.76	227.77
820.07	227.83
820.39	227.82
820.71	227.77
821.03	227.78
821.34	227.75
821.66	227.81
821.98	227.79
822.30	227.73
822.61	228.07
822.93	227.73
823.25	227.79
823.57	227.77
823.88	227.90
824.20	227.89
824.52	227.97
824.83	227.97
825.15	227.97
825.47	227.99
825.79	227.95
826.10	227.91
826.42	227.91
826.74	227.97
827.05	227.91
827.37	227.95
827.69	227.92
828.00	227.97
828.32	227.95
828.64	227.90
828.95	228.28
829.27	228.07
829.58	228.15
829.90	228.26
830.22	228.30
830.53	228.20
830.85	228.15
831.17	228.11
831.48	228.12
831.80	228.07
832.11	228.02
832.43	228.00
832.75	228.00
833.06	228.30
833.38	228.06
833.69	228.14
834.01	228.14
834.32	228.13
834.64	228.07
834.96	228.10
835.27	228.10
835.59	227.90
835.90	227.86
836.22	227.86
836.53	227.74
836.85	227.70
837.16	228.11
837.48	228.15
837.79	228.20
838.11	228.21
838.42	228.23
838.74	228.33
839.05	228.30
839.37	228.25
839.68	227.94
840.00	228.05
840.31	228.03
840.63	227.97
840.94	227.93
841.26	227.87
841.57	227.83
841.88	227.91
842.20	227.81
842.51	227.68
842.83	227.67
843.14	228.08
843.46	228.00
843.77	227.82
844.08	227.76
844.40	227.69
844.71	227.65
845.03	227.59
845.34	227.52
845.65	227.48
845.97	227.49
846.28	227.58
846.60	227.55
846.91	227.48
847.22	227.42
847.54	227.52
847.85	227.54
848.16	227.52
848.48	227.39
848.79	227.58
849.10	227.69
849.42	227.66
849.73	227.23
850.04	227.20
850.36	226.95
850.67	227.04
850.98	227.01
851.30	227.05
851.61	227.02
851.92	226.98
852.23	227.07
852.55	227.12
852.86	227.01
853.17	227.02
853.49	227.14
853.80	227.29
854.11	227.35
854.42	227.46
854.74	227.41
855.05	227.44
855.36	227.25
855.67	227.19
855.99	227.27
856.30	227.77
856.61	227.84
856.92	227.91
857.23	228.01
857.55	227.94
857.86	227.90
858.17	227.95
858.48	227.88
858.79	227.84
859.11	227.83
859.42	227.81
859.73	227.76
860.04	227.71
860.35	227.58
860.66	227.39
860.98	227.32
861.29	227.36
861.60	227.33
861.91	227.34
862.22	227.32
862.53	227.18
862.84	226.65
863.16	226.74
863.47	226.60
863.78	226.52
864.09	226.62
864.40	226.65
864.71	226.68
865.02	226.74
865.33	226.71
865.64	226.65
865.95	226.63
866.27	226.96
866.58	226.88
866.89	226.94
867.20	226.92
867.51	226.87
867.82	226.89
868.13	227.06
868.44	227.04
868.75	227.12
869.06	227.20
869.37	227.28
869.68	227.14
869.99	227.28
870.30	227.28
870.61	227.36
870.92	227.34
871.23	227.44
871.54	227.49
871.85	227.57
872.16	227.64
872.47	227.74
872.78	227.53
873.09	227.64
873.40	227.59
873.71	227.66
874.02	227.76
874.33	227.71
874.64	227.58
874.95	227.63
875.26	227.54
875.56	227.54
875.87	227.54
876.18	227.48
876.49	227.87
876.80	227.87
877.11	227.80
877.42	227.78
877.73	227.65
878.04	227.59
878.35	227.61
878.66	227.66
878.96	227.54
879.27	227.48
879.58	227.45
879.89	227.44
880.20	227.60
880.51	227.43
880.82	227.45
881.12	227.45
881.43	227.37
881.74	227.35
882.05	227.25
882.36	227.25
882.67	227.37
882.97	226.90
883.28	226.78
883.59	226.72
883.90	226.73
884.21	226.75
884.51	226.72
884.82	226.58
885.13	226.57
885.44	226.59
885.74	226.56
886.05	226.48
886.36	226.48
886.67	226.27
886.98	226.58
887.28	226.64
887.59	226.62
887.90	226.63
888.20	226.60
888.51	226.75
888.82	226.66
889.13	226.67
889.43	227.04
889.74	227.10
890.05	227.10
890.35	227.12
890.66	227.07
890.97	227.02
891.28	226.97
891.58	226.89
891.89	226.90
892.20	226.90
892.50	226.85
892.81	226.85
893.12	226.84
893.42	226.58
893.73	226.59
894.04	226.61
894.34	226.59
894.65	226.53
894.95	226.44
895.26	226.51
895.57	226.65
895.87	226.19
896.18	226.25
896.48	226.27
896.79	226.28
897.10	226.33
897.40	226.30
897.71	226.43
898.01	226.40
898.32	226.45
898.63	226.39
898.93	226.41
899.24	226.38
899.54	226.38
899.85	226.35
900.15	226.29
900.46	226.33
900.76	226.41
901.07	226.50
901.38	226.46
901.68	226.53
901.99	226.38
902.29	226.48
902.60	226.45
902.90	226.38
903.21	226.34
903.51	226.39
903.82	226.52
904.12	226.52
904.43	226.58
904.73	226.63
905.03	226.69
905.34	227.18
905.64	227.18
905.95	227.19
906.25	227.22
906.56	227.19
906.86	227.10
907.17	227.05
907.47	227.08
907.77	227.09
908.08	226.94
908.38	226.92
908.69	226.90
908.99	227.00
909.30	227.03
909.60	227.06
909.90	227.02
910.21	226.87
910.51	226.74
910.81	226.68
911.12	226.60
911.42	226.61
911.73	226.18
912.03	226.20
912.33	226.27
912.64	226.25
912.94	226.31
913.24	226.29
913.55	226.25
913.85	226.23
914.15	226.35
914.46	226.41
914.76	226.34
915.06	226.33
915.37	226.27
915.67	226.22
915.97	226.23
916.27	226.16
916.58	226.23
916.88	226.27
917.18	226.27
917.49	226.64
917.79	226.59
918.09	226.59
918.39	226.72
918.70	226.71
919.00	226.70
919.30	226.86
919.60	226.86
919.91	226.81
920.21	226.79
920.51	226.71
920.81	226.68
921.12	226.75
921.42	226.74
921.72	226.72
922.02	226.80
922.32	226.87
922.63	226.98
922.93	227.19
923.23	227.18
923.53	227.12
923.83	226.79
924.13	226.81
924.44	226.86
924.74	226.95
925.04	227.03
925.34	227.00
925.64	226.82
925.94	226.77
926.24	227.05
926.55	226.92
926.85	226.91
927.15	226.95
927.45	227.00
927.75	226.98
928.05	227.00
928.35	226.90
928.65	226.92
928.95	226.90
929.26	226.72
929.56	226.85
929.86	226.93
930.16	226.85
930.46	226.80
930.76	226.75
931.06	226.42
931.36	226.31
931.66	226.47
931.96	226.46
932.26	226.49
932.56	226.28
932.86	226.33
933.16	226.31
933.46	226.26
933.76	226.13
934.06	226.33
934.36	226.41
934.66	226.46
934.96	226.34
935.26	226.35
935.56	226.40
935.86	226.25
936.16	226.17
936.46	226.21
936.76	226.16
937.06	226.12
937.36	226.25
937.66	226.25
937.96	226.19
938.26	226.11
938.56	226.19
938.86	226.25
939.16	226.44
939.46	226.53
939.76	226.63
940.06	226.65
940.35	226.45
940.65	226.24
940.95	226.31
941.25	226.24
941.55	226.17
941.85	226.14
942.15	226.28
942.45	226.45
942.75	226.45
943.04	226.53
943.34	226.71
943.64	226.64
943.94	226.62
944.24	226.61
944.54	226.73
944.84	226.65
945.13	226.55
945.43	226.47
945.73	226.43
946.03	226.37
946.33	226.39
946.62	226.37
946.92	226.43
947.22	226.45
947.52	226.51
947.82	226.60
948.11	226.54
948.41	226.40
948.71	226.30
949.01	226.39
949.31	226.43
949.60	226.36
949.90	226.55
950.20	226.55
950.50	226.62
950.79	226.54
951.09	226.64
951.39	226.68
951.69	226.66
951.98	226.77
952.28	226.75
952.58	226.72
952.87	226.76
953.17	226.82
953.47	226.78
953.76	226.73
954.06	226.65
954.36	226.62
954.66	226.60
954.95	226.76
955.25	226.76
955.55	226.81
955.84	226.78
956.14	226.72
956.44	226.72
956.73	226.59
957.03	226.63
957.32	226.64
957.62	226.58
957.92	226.65
958.21	226.54
958.51	227.04
958.81	227.08
959.10	227.09
959.40	227.23
959.69	227.22
959.99	227.30
960.29	227.32
960.58	227.26
960.88	227.38
961.17	227.25
961.47	227.25
961.76	227.13
962.06	227.12
962.36	226.99
962.65	227.05
962.95	227.08
963.24	227.03
963.54	226.95
963.83	226.95
964.13	226.87
964.42	226.78
964.72	226.39
965.01	226.33
965.31	226.27
965.60	226.10
965.90	226.42
966.19	226.30
966.49	226.30
966.78	226.35
967.08	226.37
967.37	226.37
967.67	226.26
967.96	226.34
968.26	226.32
968.55	226.45
968.85	226.40
969.14	226.34
969.43	226.33
969.73	226.28
970.02	226.28
970.32	226.25
970.61	226.17
970.91	226.03
971.20	225.92
971.49	225.93
971.79	225.92
972.08	225.51
972.38	225.62
972.67	225.58
972.96	225.56
973.26	225.39
973.55	225.56
973.85	225.57
974.14	225.48
974.43	225.55
974.73	225.42
975.02	225.35
975.31	225.34
975.61	225.36
975.90	225.38
976.19	225.35
976.49	225.43
976.78	225.56
977.07	225.60
977.37	225.65
977.66	225.72
977.95	225.70
978.24	225.74
978.54	225.85
978.83	225.81
979.12	225.87
979.42	225.94
979.71	225.80
980.00	225.79
980.29	225.95
980.59	225.87
980.88	225.98
981.17	226.01
981.46	226.10
981.76	226.08
982.05	226.20
982.34	226.30
982.63	226.30
982.93	226.25
983.22	226.34
983.51	226.42
983.80	226.53
984.09	226.62
984.39	226.66
984.68	226.55
984.97	226.60
985.26	226.56
985.55	226.60
985.85	226.49
986.14	226.54
986.43	226.57
986.72	226.50
987.01	226.33
987.30	226.43
987.59	226.38
987.89	226.42
988.18	226.30
988.47	226.27
988.76	226.22
989.05	226.26
989.34	226.23
989.63	226.35
989.92	226.22
990.22	226.15
990.51	226.11
990.80	226.09
991.09	226.10
991.38	226.18
991.67	226.15
991.96	226.15
992.25	226.18
992.54	226.05
992.83	226.08
993.12	226.07
993.41	226.12
993.70	226.28
993.99	226.33
994.28	226.36
994.58	226.38
994.87	226.33
995.16	226.27
995.45	226.19
995.74	226.06
996.03	226.14
996.32	226.23
996.61	226.39
996.90	226.44
997.19	226.43
997.48	226.39
997.77	226.29
998.06	226.27
998.34	226.20
998.63	226.18
998.92	226.14
999.21	226.30
999.50	226.22
999.79	226.10
1000.08	226.11
1000.37	226.08
1000.66	226.01
1000.95	226.10
1001.24	226.15
1001.53	226.18
1001.82	226.12
1002.11	226.02
1002.40	225.95
1002.68	226.01
1002.97	226.35
1003.26	226.26
1003.55	226.20
1003.84	226.25
1004.13	226.38
1004.42	226.36
1004.71	226.32
1004.99	226.32
1005.28	226.38
1005.57	226.35
1005.86	226.27
1006.15	226.21
1006.44	226.16
1006.72	226.23
1007.01	226.15
1007.30	226.11
1007.59	226.06
1007.88	226.03
1008.17	226.04
1008.45	225.91
1008.74	225.67
1009.03	225.38
1009.32	225.43
1009.60	225.38
1009.89	225.34
1010.18	225.19
1010.47	225.18
1010.76	225.23
1011.04	225.16
1011.33	225.17
1011.62	225.20
1011.91	225.24
1012.19	225.23
1012.48	225.24
1012.77	225.26
1013.05	225.53
1013.34	225.53
1013.63	225.60
1013.92	225.71
1014.20	225.71
1014.49	225.82
1014.78	225.84
1015.06	225.70
1015.35	225.71
1015.64	225.83
1015.92	225.95
1016.21	226.05
1016.50	226.06
1016.78	226.12
1017.07	226.25
1017.36	226.15
1017.64	226.09
1017.93	226.09
1018.22	226.06
1018.50	226.10
1018.79	226.02
1019.08	225.74
1019.36	225.83
1019.65	225.84
1019.93	225.95
1020.22	226.00
1020.51	226.24
1020.79	226.29
1021.08	224.95
1021.36	225.45
1021.65	225.15
1021.94	224.95
1022.22	227.35
1022.51	226.65
1022.79	228.60
1023.08	226.55
1023.36	231.75
1023.65	225.80
>>>>>End Processed Spectral Data<<<<<
