SpectraSuite Data File
++++++++++++++++++++++++++++++++++++
Date: Wed Sep 04 17:53:34 EDT 2013
User: lab3
Dark Spectrum Present: Yes
Reference Spectrum Present: No
Number of Sampled Component Spectra: 1
Spectrometers: USB2E7196
Integration Time (usec): 170000 (USB2E7196)
Spectra Averaged: 20 (USB2E7196)
Boxcar Smoothing: 10 (USB2E7196)
Correct for Electrical Dark: No (USB2E7196)
Strobe/Lamp Enabled: No (USB2E7196)
Correct for Detector Non-linearity: No (USB2E7196)
Correct for Stray Light: No (USB2E7196)
Number of Pixels in Processed Spectrum: 2048
>>>>>Begin Processed Spectral Data<<<<<
339.09	0.00
339.48	213.20
339.86	214.30
340.24	216.85
340.63	217.15
341.01	225.90
341.39	218.45
341.78	222.55
342.16	223.75
342.54	221.95
342.93	212.10
343.31	222.79
343.69	223.31
344.07	223.81
344.46	224.32
344.84	224.77
345.22	224.75
345.60	225.04
345.99	225.21
346.37	225.33
346.75	225.50
347.13	225.62
347.52	225.66
347.90	225.84
348.28	225.84
348.66	225.92
349.05	225.75
349.43	225.79
349.81	225.90
350.19	225.92
350.57	226.07
350.96	226.20
351.34	226.28
351.72	226.38
352.10	226.43
352.48	226.40
352.87	226.41
353.25	226.49
353.63	226.55
354.01	226.61
354.39	226.68
354.77	226.71
355.15	226.92
355.54	227.02
355.92	226.92
356.30	227.00
356.68	227.41
357.06	227.51
357.44	227.53
357.82	227.54
358.20	228.01
358.58	227.98
358.97	228.02
359.35	228.22
359.73	228.38
360.11	228.49
360.49	228.56
360.87	228.66
361.25	228.73
361.63	229.02
362.01	229.07
362.39	229.04
362.77	229.15
363.15	229.17
363.53	229.10
363.91	229.13
364.29	229.20
364.67	228.75
365.05	228.81
365.43	228.92
365.81	229.05
366.19	228.95
366.57	229.16
366.95	229.17
367.33	229.07
367.71	229.04
368.09	229.08
368.47	229.11
368.85	229.07
369.23	229.18
369.61	228.98
369.99	229.12
370.37	229.17
370.75	229.40
371.13	229.27
371.51	229.22
371.89	229.30
372.27	229.31
372.65	229.34
373.03	229.35
373.41	229.27
373.78	229.20
374.16	228.92
374.54	228.76
374.92	228.73
375.30	228.71
375.68	228.63
376.06	228.67
376.44	228.50
376.82	228.47
377.19	228.36
377.57	228.24
377.95	228.03
378.33	228.02
378.71	227.63
379.09	227.57
379.47	227.60
379.84	227.50
380.22	227.39
380.60	227.31
380.98	227.18
381.36	227.12
381.73	227.02
382.11	226.94
382.49	226.84
382.87	226.61
383.25	226.53
383.62	226.93
384.00	226.69
384.38	226.67
384.76	226.68
385.13	226.81
385.51	226.78
385.89	226.67
386.27	226.58
386.64	226.62
387.02	226.61
387.40	226.55
387.78	226.52
388.15	226.45
388.53	226.34
388.91	226.37
389.29	226.28
389.66	226.27
390.04	226.25
390.42	226.35
390.79	226.40
391.17	226.39
391.55	225.90
391.92	225.94
392.30	226.00
392.68	225.88
393.05	225.79
393.43	225.85
393.81	225.90
394.18	225.88
394.56	225.89
394.94	225.94
395.31	225.83
395.69	226.01
396.06	226.20
396.44	226.31
396.82	226.28
397.19	226.58
397.57	226.56
397.95	226.73
398.32	226.64
398.70	226.81
399.07	226.93
399.45	227.02
399.82	227.10
400.20	227.10
400.58	227.26
400.95	227.21
401.33	227.40
401.70	227.88
402.08	228.03
402.45	228.23
402.83	228.49
403.20	228.75
403.58	228.86
403.95	229.11
404.33	229.33
404.71	229.57
405.08	230.01
405.46	230.27
405.83	230.50
406.21	230.75
406.58	231.07
406.96	231.37
407.33	231.71
407.70	232.13
408.08	232.89
408.45	233.27
408.83	233.83
409.20	234.15
409.58	234.25
409.95	234.84
410.33	235.35
410.70	235.75
411.08	236.35
411.45	236.97
411.82	237.51
412.20	238.26
412.57	239.24
412.95	239.60
413.32	240.49
413.69	241.35
414.07	242.29
414.44	243.27
414.82	244.33
415.19	245.57
415.56	246.67
415.94	247.71
416.31	249.09
416.68	250.50
417.06	252.15
417.43	253.78
417.81	255.49
418.18	257.31
418.55	259.27
418.93	261.27
419.30	263.31
419.67	265.47
420.04	267.69
420.42	269.93
420.79	273.00
421.16	275.79
421.54	278.80
421.91	281.85
422.28	284.90
422.66	288.18
423.03	291.60
423.40	295.05
423.77	298.62
424.15	302.29
424.52	305.99
424.89	310.19
425.26	314.13
425.64	317.95
426.01	322.08
426.38	326.41
426.75	330.88
427.13	335.54
427.50	340.33
427.87	345.25
428.24	350.24
428.61	354.71
428.99	359.95
429.36	365.35
429.73	370.82
430.10	376.25
430.47	381.84
430.85	387.34
431.22	393.38
431.59	400.06
431.96	406.37
432.33	413.34
432.70	419.96
433.08	427.84
433.45	435.22
433.82	442.61
434.19	450.87
434.56	458.96
434.93	466.53
435.30	474.26
435.68	482.81
436.05	491.19
436.42	499.49
436.79	507.14
437.16	515.41
437.53	524.11
437.90	532.79
438.27	541.30
438.64	550.23
439.01	558.53
439.38	565.68
439.75	572.57
440.13	580.44
440.50	587.98
440.87	594.10
441.24	600.42
441.61	607.47
441.98	612.47
442.35	618.31
442.72	624.31
443.09	630.17
443.46	633.50
443.83	635.78
444.20	637.65
444.57	640.30
444.94	641.51
445.31	642.70
445.68	644.17
446.05	644.45
446.42	643.15
446.79	641.79
447.16	640.20
447.53	639.10
447.90	635.56
448.27	631.73
448.64	626.87
449.01	623.14
449.37	616.82
449.74	610.82
450.11	603.92
450.48	596.30
450.85	588.27
451.22	581.58
451.59	574.95
451.96	568.74
452.33	560.69
452.70	553.24
453.07	544.53
453.43	535.37
453.80	526.98
454.17	518.96
454.54	511.20
454.91	503.08
455.28	495.08
455.65	487.53
456.02	480.80
456.38	474.43
456.75	466.65
457.12	460.36
457.49	454.05
457.86	447.75
458.23	442.50
458.59	436.83
458.96	430.99
459.33	426.00
459.70	421.01
460.07	417.05
460.43	412.48
460.80	408.21
461.17	404.50
461.54	400.47
461.91	396.66
462.27	392.74
462.64	389.52
463.01	385.98
463.38	382.75
463.74	378.76
464.11	375.71
464.48	373.18
464.85	370.15
465.21	368.02
465.58	365.82
465.95	362.94
466.32	360.69
466.68	358.45
467.05	356.18
467.42	353.88
467.78	351.45
468.15	349.17
468.52	347.62
468.88	345.36
469.25	343.40
469.62	341.96
469.98	340.44
470.35	338.85
470.72	337.33
471.08	335.66
471.45	334.38
471.82	333.13
472.18	331.68
472.55	330.81
472.92	329.42
473.28	328.19
473.65	327.15
474.02	326.09
474.38	325.30
474.75	324.54
475.11	323.74
475.48	323.21
475.85	322.69
476.21	321.98
476.58	321.57
476.94	321.26
477.31	320.80
477.67	320.32
478.04	320.04
478.41	319.95
478.77	320.27
479.14	320.05
479.50	319.99
479.87	320.00
480.23	319.84
480.60	319.91
480.96	319.95
481.33	320.35
481.69	320.55
482.06	320.79
482.42	321.04
482.79	321.40
483.15	321.72
483.52	322.38
483.88	322.88
484.25	323.43
484.61	324.08
484.98	324.73
485.34	325.72
485.71	326.68
486.07	327.61
486.44	328.13
486.80	329.29
487.17	330.38
487.53	331.73
487.90	333.28
488.26	334.93
488.62	336.65
488.99	338.24
489.35	340.02
489.72	341.92
490.08	343.90
490.44	345.97
490.81	348.29
491.17	350.42
491.54	352.95
491.90	355.45
492.26	358.08
492.63	360.95
492.99	363.82
493.36	366.90
493.72	370.18
494.08	373.64
494.45	377.34
494.81	381.21
495.17	385.14
495.54	389.28
495.90	393.56
496.26	397.96
496.63	402.59
496.99	407.43
497.35	412.43
497.72	417.68
498.08	422.99
498.44	428.70
498.80	434.77
499.17	440.74
499.53	447.00
499.89	453.61
500.26	460.29
500.62	467.30
500.98	474.54
501.34	481.84
501.71	489.70
502.07	497.46
502.43	505.53
502.79	514.00
503.16	522.64
503.52	531.59
503.88	540.79
504.24	550.35
504.60	560.40
504.97	570.67
505.33	581.10
505.69	592.20
506.05	603.07
506.41	614.34
506.78	626.01
507.14	638.03
507.50	650.46
507.86	663.20
508.22	676.09
508.59	689.09
508.95	702.79
509.31	716.80
509.67	731.03
510.03	745.28
510.39	759.77
510.75	774.73
511.12	789.81
511.48	805.46
511.84	821.04
512.20	836.96
512.56	853.11
512.92	869.93
513.28	886.71
513.64	903.94
514.00	921.38
514.37	939.12
514.73	957.12
515.09	975.17
515.45	993.60
515.81	1011.88
516.17	1030.76
516.53	1049.36
516.89	1067.87
517.25	1087.10
517.61	1107.20
517.97	1127.53
518.33	1147.53
518.69	1167.66
519.05	1188.17
519.41	1208.76
519.77	1229.66
520.13	1250.48
520.49	1271.02
520.85	1293.11
521.21	1314.12
521.57	1335.45
521.93	1356.03
522.29	1377.17
522.65	1397.73
523.01	1418.43
523.37	1439.17
523.73	1460.18
524.09	1480.76
524.45	1501.19
524.81	1521.98
525.17	1542.55
525.53	1563.16
525.89	1583.93
526.25	1604.94
526.61	1625.07
526.97	1646.38
527.33	1667.22
527.68	1688.83
528.04	1709.89
528.40	1729.59
528.76	1750.59
529.12	1770.84
529.48	1791.87
529.84	1811.78
530.20	1832.91
530.56	1853.46
530.91	1874.24
531.27	1894.58
531.63	1915.28
531.99	1936.09
532.35	1955.94
532.71	1976.21
533.07	1996.44
533.42	2016.20
533.78	2035.61
534.14	2055.75
534.50	2074.57
534.86	2093.88
535.21	2111.40
535.57	2129.86
535.93	2147.70
536.29	2165.39
536.65	2183.30
537.00	2200.74
537.36	2218.38
537.72	2234.90
538.08	2252.27
538.44	2268.92
538.79	2285.28
539.15	2301.48
539.51	2317.44
539.87	2332.85
540.22	2346.54
540.58	2361.00
540.94	2374.19
541.29	2387.32
541.65	2399.90
542.01	2412.42
542.37	2422.85
542.72	2433.75
543.08	2444.56
543.44	2456.14
543.79	2466.16
544.15	2476.37
544.51	2486.31
544.87	2495.84
545.22	2504.75
545.58	2512.26
545.94	2519.55
546.29	2525.69
546.65	2531.91
547.01	2537.25
547.36	2542.62
547.72	2548.07
548.07	2551.84
548.43	2557.04
548.79	2561.27
549.14	2565.14
549.50	2568.77
549.86	2572.75
550.21	2576.44
550.57	2579.46
550.92	2580.62
551.28	2581.66
551.64	2583.90
551.99	2585.77
552.35	2587.35
552.70	2589.03
553.06	2590.96
553.41	2591.88
553.77	2593.78
554.13	2595.25
554.48	2596.85
554.84	2598.25
555.19	2599.73
555.55	2601.76
555.90	2601.10
556.26	2600.40
556.61	2598.62
556.97	2596.50
557.32	2595.94
557.68	2594.83
558.03	2593.65
558.39	2592.03
558.74	2591.06
559.10	2587.52
559.45	2583.68
559.81	2579.03
560.16	2573.59
560.52	2568.10
560.87	2563.95
561.23	2558.37
561.58	2552.60
561.94	2545.84
562.29	2538.80
562.64	2531.61
563.00	2522.85
563.35	2516.16
563.71	2509.44
564.06	2503.46
564.42	2496.99
564.77	2489.97
565.12	2482.42
565.48	2474.52
565.83	2466.86
566.19	2459.14
566.54	2451.47
566.89	2443.89
567.25	2436.44
567.60	2429.60
567.96	2422.32
568.31	2414.11
568.66	2405.54
569.02	2396.56
569.37	2388.14
569.72	2380.28
570.08	2371.12
570.43	2361.90
570.78	2353.05
571.14	2343.87
571.49	2333.39
571.84	2323.74
572.20	2312.93
572.55	2302.77
572.90	2291.83
573.26	2281.41
573.61	2270.39
573.96	2259.04
574.31	2246.98
574.67	2234.94
575.02	2222.39
575.37	2209.50
575.72	2196.35
576.08	2184.59
576.43	2172.01
576.78	2159.18
577.13	2145.52
577.49	2132.71
577.84	2120.88
578.19	2108.60
578.54	2096.13
578.90	2084.17
579.25	2071.81
579.60	2059.34
579.95	2046.47
580.30	2033.40
580.66	2020.16
581.01	2006.55
581.36	1992.50
581.71	1979.73
582.06	1966.98
582.42	1954.35
582.77	1941.98
583.12	1930.23
583.47	1917.81
583.82	1906.18
584.17	1894.16
584.53	1882.28
584.88	1869.39
585.23	1856.35
585.58	1842.45
585.93	1829.11
586.28	1815.90
586.63	1802.18
586.98	1788.07
587.34	1774.66
587.69	1761.47
588.04	1748.81
588.39	1737.09
588.74	1725.20
589.09	1713.21
589.44	1700.71
589.79	1688.50
590.14	1676.67
590.49	1664.45
590.84	1652.48
591.19	1640.35
591.54	1628.16
591.89	1616.03
592.25	1606.14
592.60	1594.61
592.95	1583.07
593.30	1570.90
593.65	1558.93
594.00	1547.02
594.35	1537.25
594.70	1525.68
595.05	1514.32
595.40	1502.53
595.75	1490.45
596.10	1479.20
596.45	1467.56
596.80	1456.75
597.15	1445.64
597.50	1434.01
597.85	1422.67
598.19	1410.87
598.54	1398.93
598.89	1387.71
599.24	1377.28
599.59	1365.75
599.94	1354.89
600.29	1344.54
600.64	1334.49
600.99	1324.02
601.34	1314.29
601.69	1303.08
602.04	1293.36
602.39	1283.86
602.74	1274.70
603.08	1265.32
603.43	1256.16
603.78	1246.62
604.13	1236.84
604.48	1227.17
604.83	1217.35
605.18	1207.58
605.53	1198.33
605.87	1189.40
606.22	1180.95
606.57	1171.56
606.92	1161.98
607.27	1153.30
607.62	1144.74
607.96	1136.29
608.31	1128.34
608.66	1119.83
609.01	1111.44
609.36	1102.94
609.70	1094.36
610.05	1085.58
610.40	1076.96
610.75	1068.20
611.10	1059.90
611.44	1051.36
611.79	1043.15
612.14	1035.31
612.49	1027.57
612.83	1020.00
613.18	1012.45
613.53	1004.57
613.88	996.54
614.22	988.88
614.57	980.89
614.92	972.95
615.27	965.22
615.61	957.38
615.96	949.92
616.31	942.42
616.65	935.34
617.00	927.94
617.35	920.70
617.70	913.64
618.04	906.53
618.39	899.63
618.74	893.29
619.08	886.59
619.43	879.55
619.78	872.42
620.12	865.32
620.47	858.31
620.82	851.13
621.16	844.67
621.51	838.40
621.85	832.06
622.20	825.47
622.55	819.02
622.89	812.79
623.24	806.43
623.59	800.07
623.93	793.73
624.28	787.74
624.62	782.23
624.97	776.62
625.32	770.86
625.66	764.95
626.01	758.92
626.35	753.25
626.70	747.95
627.04	742.91
627.39	737.29
627.73	732.00
628.08	726.99
628.43	721.44
628.77	715.93
629.12	710.71
629.46	706.08
629.81	701.43
630.15	696.59
630.50	691.71
630.84	687.00
631.19	682.28
631.53	677.78
631.88	672.51
632.22	667.62
632.57	663.18
632.91	658.45
633.26	654.13
633.60	649.55
633.95	644.78
634.29	640.02
634.64	635.62
634.98	630.95
635.32	626.57
635.67	622.64
636.01	618.60
636.36	614.36
636.70	610.16
637.05	605.90
637.39	601.75
637.73	597.82
638.08	593.82
638.42	589.56
638.77	585.15
639.11	581.00
639.45	576.73
639.80	572.34
640.14	568.40
640.49	564.13
640.83	560.20
641.17	556.55
641.52	552.79
641.86	549.33
642.20	546.12
642.55	542.46
642.89	538.80
643.23	535.12
643.58	531.79
643.92	528.19
644.26	524.84
644.61	521.67
644.95	518.40
645.29	514.94
645.64	511.91
645.98	508.81
646.32	505.87
646.66	502.82
647.01	500.00
647.35	497.28
647.69	494.56
648.04	491.88
648.38	489.21
648.72	486.43
649.06	483.35
649.41	480.30
649.75	477.35
650.09	474.56
650.43	471.81
650.78	469.05
651.12	466.25
651.46	463.32
651.80	460.56
652.14	457.75
652.49	455.29
652.83	452.75
653.17	450.22
653.51	447.50
653.85	445.07
654.20	442.50
654.54	439.78
654.88	437.25
655.22	434.94
655.56	432.50
655.90	430.21
656.25	427.92
656.59	425.76
656.93	423.66
657.27	421.56
657.61	419.15
657.95	416.85
658.29	414.71
658.64	412.75
658.98	410.62
659.32	408.42
659.66	406.29
660.00	404.21
660.34	402.25
660.68	400.34
661.02	398.33
661.36	396.39
661.70	394.40
662.05	392.50
662.39	390.44
662.73	388.56
663.07	386.90
663.41	385.10
663.75	383.14
664.09	381.24
664.43	379.09
664.77	377.44
665.11	375.69
665.45	374.06
665.79	372.25
666.13	370.42
666.47	368.77
666.81	367.10
667.15	365.23
667.49	363.63
667.83	362.25
668.17	360.69
668.51	359.26
668.85	357.96
669.19	356.76
669.53	355.27
669.87	353.69
670.21	352.06
670.55	350.70
670.89	349.62
671.23	348.25
671.57	347.05
671.91	345.78
672.25	344.45
672.58	343.10
672.92	341.77
673.26	340.53
673.60	339.41
673.94	338.20
674.28	337.26
674.62	336.13
674.96	334.80
675.30	333.60
675.64	332.48
675.97	331.25
676.31	329.81
676.65	328.64
676.99	327.76
677.33	326.61
677.67	325.63
678.01	324.25
678.34	323.29
678.68	322.47
679.02	321.37
679.36	320.49
679.70	319.54
680.04	318.62
680.37	317.70
680.71	316.60
681.05	315.73
681.39	314.72
681.73	313.73
682.06	312.77
682.40	311.94
682.74	311.10
683.08	310.42
683.42	309.64
683.75	308.89
684.09	307.90
684.43	307.19
684.77	306.22
685.10	305.50
685.44	304.65
685.78	303.68
686.12	302.94
686.45	302.02
686.79	301.19
687.13	300.57
687.46	299.80
687.80	299.20
688.14	298.33
688.48	297.59
688.81	296.88
689.15	296.30
689.49	295.59
689.82	294.83
690.16	293.93
690.50	293.28
690.83	292.64
691.17	291.87
691.51	291.15
691.84	290.58
692.18	289.82
692.52	289.14
692.85	288.54
693.19	288.10
693.52	287.46
693.86	286.76
694.20	286.09
694.53	285.55
694.87	284.94
695.21	284.33
695.54	283.68
695.88	283.00
696.21	282.29
696.55	281.76
696.88	281.19
697.22	280.60
697.56	280.01
697.89	279.37
698.23	278.90
698.56	278.23
698.90	277.71
699.23	277.27
699.57	276.75
699.90	276.12
700.24	275.45
700.58	275.04
700.91	274.81
701.25	274.68
701.58	274.53
701.92	274.11
702.25	273.63
702.59	273.12
702.92	272.78
703.26	272.44
703.59	271.97
703.93	271.91
704.26	271.54
704.60	271.18
704.93	270.75
705.26	270.27
705.60	270.00
705.93	269.49
706.27	269.25
706.60	269.04
706.94	268.96
707.27	268.57
707.61	268.19
707.94	267.64
708.27	266.90
708.61	266.10
708.94	265.70
709.28	265.35
709.61	265.05
709.94	264.66
710.28	264.18
710.61	263.74
710.95	262.90
711.28	262.84
711.61	262.36
711.95	262.14
712.28	261.79
712.61	261.39
712.95	261.32
713.28	261.12
713.61	260.60
713.95	260.06
714.28	259.68
714.61	259.35
714.95	259.07
715.28	258.69
715.61	258.32
715.95	258.00
716.28	257.59
716.61	257.30
716.95	256.99
717.28	256.64
717.61	256.37
717.94	256.13
718.28	255.51
718.61	255.30
718.94	254.86
719.27	254.58
719.61	254.35
719.94	253.99
720.27	253.45
720.60	253.22
720.94	252.96
721.27	252.82
721.60	252.60
721.93	252.37
722.27	252.31
722.60	252.23
722.93	251.93
723.26	251.85
723.59	251.56
723.93	251.35
724.26	251.29
724.59	251.12
724.92	250.91
725.25	250.89
725.59	250.59
725.92	250.52
726.25	250.30
726.58	250.13
726.91	249.88
727.24	249.72
727.57	249.52
727.91	249.28
728.24	249.10
728.57	248.88
728.90	248.64
729.23	248.33
729.56	248.35
729.89	248.20
730.22	248.00
730.55	247.85
730.89	247.66
731.22	247.43
731.55	247.23
731.88	247.12
732.21	246.82
732.54	246.70
732.87	246.53
733.20	246.34
733.53	246.19
733.86	246.07
734.19	245.88
734.52	245.79
734.85	246.00
735.18	245.72
735.51	245.75
735.84	245.71
736.17	245.68
736.50	245.30
736.83	245.65
737.16	245.51
737.49	245.40
737.82	245.25
738.15	245.20
738.48	245.10
738.81	244.91
739.14	244.68
739.47	244.46
739.80	244.30
740.13	244.32
740.46	244.12
740.79	243.83
741.12	243.73
741.45	243.55
741.78	243.15
742.11	243.16
742.44	242.89
742.77	242.79
743.10	242.55
743.43	242.32
743.75	241.75
744.08	242.20
744.41	242.00
744.74	241.96
745.07	241.64
745.40	241.60
745.73	241.67
746.06	241.58
746.39	241.56
746.71	241.32
747.04	241.07
747.37	240.93
747.70	240.92
748.03	240.74
748.36	240.68
748.68	240.48
749.01	240.23
749.34	240.07
749.67	239.91
750.00	239.87
750.33	240.22
750.65	240.10
750.98	239.39
751.31	239.32
751.64	239.10
751.97	239.26
752.29	239.02
752.62	238.68
752.95	238.53
753.28	238.37
753.60	238.27
753.93	238.24
754.26	238.20
754.59	237.95
754.91	237.85
755.24	237.64
755.57	237.61
755.90	237.45
756.22	237.30
756.55	237.13
756.88	236.88
757.20	236.43
757.53	236.16
757.86	236.05
758.19	235.98
758.51	235.89
758.84	235.60
759.17	235.46
759.49	235.38
759.82	235.51
760.15	235.45
760.47	235.36
760.80	235.13
761.13	235.09
761.45	235.02
761.78	234.96
762.11	234.86
762.43	234.71
762.76	234.68
763.08	234.70
763.41	234.62
763.74	234.61
764.06	234.49
764.39	234.46
764.71	234.39
765.04	234.25
765.37	234.18
765.69	234.12
766.02	234.08
766.34	234.01
766.67	233.72
767.00	233.70
767.32	233.89
767.65	234.16
767.97	234.02
768.30	233.95
768.62	233.90
768.95	233.84
769.27	233.77
769.60	233.79
769.92	233.59
770.25	233.51
770.57	233.34
770.90	233.32
771.22	233.21
771.55	233.05
771.87	233.00
772.20	232.91
772.52	233.24
772.85	233.71
773.17	233.67
773.50	233.68
773.82	233.63
774.15	233.30
774.47	232.88
774.80	232.79
775.12	232.77
775.45	232.69
775.77	232.71
776.09	232.71
776.42	232.61
776.74	232.74
777.07	232.62
777.39	232.65
777.72	232.55
778.04	232.60
778.36	232.62
778.69	232.59
779.01	232.62
779.33	232.10
779.66	231.53
779.98	231.40
780.31	231.31
780.63	231.44
780.95	231.55
781.28	231.55
781.60	231.53
781.92	231.52
782.25	231.44
782.57	231.33
782.89	231.28
783.22	231.20
783.54	231.02
783.86	231.02
784.19	230.89
784.51	231.00
784.83	230.90
785.16	230.80
785.48	230.72
785.80	230.71
786.12	230.79
786.45	230.80
786.77	230.83
787.09	230.82
787.42	230.58
787.74	230.55
788.06	230.55
788.38	230.46
788.71	230.39
789.03	230.37
789.35	230.46
789.67	230.35
789.99	230.43
790.32	230.36
790.64	230.50
790.96	230.91
791.28	230.67
791.61	230.56
791.93	230.61
792.25	230.58
792.57	230.88
792.89	230.80
793.21	230.75
793.54	230.64
793.86	230.54
794.18	230.54
794.50	230.40
794.82	230.34
795.14	230.40
795.47	230.44
795.79	230.44
796.11	230.30
796.43	230.29
796.75	230.22
797.07	230.26
797.39	230.13
797.71	229.73
798.04	229.75
798.36	229.78
798.68	229.74
799.00	229.83
799.32	229.45
799.64	229.45
799.96	229.40
800.28	229.54
800.60	229.50
800.92	229.46
801.24	229.40
801.56	229.45
801.89	229.31
802.21	229.29
802.53	229.24
802.85	229.34
803.17	229.51
803.49	229.38
803.81	229.32
804.13	229.27
804.45	229.22
804.77	229.29
805.09	229.27
805.41	229.23
805.73	229.02
806.05	228.86
806.37	228.84
806.69	228.79
807.01	228.73
807.33	228.76
807.65	228.60
807.97	228.79
808.28	228.71
808.60	228.74
808.92	228.65
809.24	228.85
809.56	228.75
809.88	228.52
810.20	228.54
810.52	228.59
810.84	228.50
811.16	228.41
811.48	228.29
811.80	228.44
812.12	228.40
812.43	228.57
812.75	228.67
813.07	228.64
813.39	228.67
813.71	228.60
814.03	228.54
814.35	228.62
814.67	228.45
814.98	228.42
815.30	228.39
815.62	228.29
815.94	227.96
816.26	228.14
816.58	228.06
816.89	228.15
817.21	228.05
817.53	228.12
817.85	228.18
818.17	228.13
818.48	227.99
818.80	228.11
819.12	228.02
819.44	227.94
819.76	227.89
820.07	227.89
820.39	227.83
820.71	227.83
821.03	227.79
821.34	227.77
821.66	227.86
821.98	227.92
822.30	227.99
822.61	228.29
822.93	228.03
823.25	228.02
823.57	227.93
823.88	228.02
824.20	227.99
824.52	228.05
824.83	228.11
825.15	227.98
825.47	227.93
825.79	227.92
826.10	227.92
826.42	227.84
826.74	227.86
827.05	227.93
827.37	228.00
827.69	227.91
828.00	227.88
828.32	227.82
828.64	227.82
828.95	227.99
829.27	227.90
829.58	227.94
829.90	228.08
830.22	228.08
830.53	228.00
830.85	228.05
831.17	227.85
831.48	227.85
831.80	227.98
832.11	227.94
832.43	227.93
832.75	227.96
833.06	228.27
833.38	228.19
833.69	228.08
834.01	228.06
834.32	228.11
834.64	228.11
834.96	228.13
835.27	228.05
835.59	227.95
835.90	227.87
836.22	227.84
836.53	227.71
836.85	227.74
837.16	228.24
837.48	228.20
837.79	228.44
838.11	228.44
838.42	228.37
838.74	228.41
839.05	228.35
839.37	228.30
839.68	227.97
840.00	227.95
840.31	228.10
840.63	228.08
840.94	227.98
841.26	227.93
841.57	227.85
841.88	227.86
842.20	227.80
842.51	227.69
842.83	227.72
843.14	228.13
843.46	228.05
843.77	227.71
844.08	227.65
844.40	227.47
844.71	227.44
845.03	227.34
845.34	227.32
845.65	227.25
845.97	227.24
846.28	227.27
846.60	227.24
846.91	227.02
847.22	226.93
847.54	227.06
847.85	227.10
848.16	227.04
848.48	226.95
848.79	227.09
849.10	227.15
849.42	227.10
849.73	226.59
850.04	226.62
850.36	226.45
850.67	226.52
850.98	226.56
851.30	226.59
851.61	226.61
851.92	226.60
852.23	226.78
852.55	226.71
852.86	226.74
853.17	226.80
853.49	227.01
853.80	227.12
854.11	227.11
854.42	227.12
854.74	227.15
855.05	227.24
855.36	226.97
855.67	226.88
855.99	226.87
856.30	227.46
856.61	227.41
856.92	227.40
857.23	227.38
857.55	227.35
857.86	227.29
858.17	227.36
858.48	227.27
858.79	227.12
859.11	227.25
859.42	227.18
859.73	227.13
860.04	227.05
860.35	226.90
860.66	226.79
860.98	226.80
861.29	226.82
861.60	226.71
861.91	226.82
862.22	226.71
862.53	226.65
862.84	226.18
863.16	226.28
863.47	226.20
863.78	226.15
864.09	226.20
864.40	226.29
864.71	226.33
865.02	226.43
865.33	226.41
865.64	226.32
865.95	226.33
866.27	226.61
866.58	226.55
866.89	226.60
867.20	226.64
867.51	226.51
867.82	226.56
868.13	226.79
868.44	226.75
868.75	226.94
869.06	226.99
869.37	226.98
869.68	226.89
869.99	227.00
870.30	227.06
870.61	227.08
870.92	226.94
871.23	226.88
871.54	226.90
871.85	227.00
872.16	227.10
872.47	227.01
872.78	226.74
873.09	226.76
873.40	226.74
873.71	226.73
874.02	226.81
874.33	226.73
874.64	226.66
874.95	226.70
875.26	226.61
875.56	226.58
875.87	226.53
876.18	226.45
876.49	226.96
876.80	226.89
877.11	226.74
877.42	226.79
877.73	226.87
878.04	226.74
878.35	226.69
878.66	226.66
878.96	226.69
879.27	226.69
879.58	226.69
879.89	226.66
880.20	226.83
880.51	226.80
880.82	226.84
881.12	226.80
881.43	226.69
881.74	226.74
882.05	226.69
882.36	226.77
882.67	226.87
882.97	226.30
883.28	226.28
883.59	226.33
883.90	226.38
884.21	226.29
884.51	226.33
884.82	226.24
885.13	226.27
885.44	226.33
885.74	226.35
886.05	226.31
886.36	226.34
886.67	226.13
886.98	226.41
887.28	226.43
887.59	226.47
887.90	226.50
888.20	226.41
888.51	226.51
888.82	226.34
889.13	226.33
889.43	226.70
889.74	226.66
890.05	226.59
890.35	226.48
890.66	226.48
890.97	226.43
891.28	226.41
891.58	226.40
891.89	226.37
892.20	226.27
892.50	226.25
892.81	226.19
893.12	226.22
893.42	225.85
893.73	225.87
894.04	225.78
894.34	225.84
894.65	225.81
894.95	225.77
895.26	225.82
895.57	226.00
895.87	225.49
896.18	225.60
896.48	225.60
896.79	225.63
897.10	225.67
897.40	225.63
897.71	225.70
898.01	225.65
898.32	225.66
898.63	225.68
898.93	225.73
899.24	225.76
899.54	225.77
899.85	225.85
900.15	225.78
900.46	225.76
900.76	225.75
901.07	225.83
901.38	225.88
901.68	225.94
901.99	225.75
902.29	225.87
902.60	225.80
902.90	225.83
903.21	225.87
903.51	225.83
903.82	226.00
904.12	226.03
904.43	226.11
904.73	226.14
905.03	226.27
905.34	226.74
905.64	226.76
905.95	226.74
906.25	226.78
906.56	226.83
906.86	226.88
907.17	226.82
907.47	226.83
907.77	226.72
908.08	226.68
908.38	226.69
908.69	226.71
908.99	226.81
909.30	226.88
909.60	226.90
909.90	226.96
910.21	226.80
910.51	226.79
910.81	226.75
911.12	226.75
911.42	226.71
911.73	226.21
912.03	226.21
912.33	226.30
912.64	226.20
912.94	226.19
913.24	226.15
913.55	226.13
913.85	226.08
914.15	226.23
914.46	226.29
914.76	226.26
915.06	226.31
915.37	226.20
915.67	226.22
915.97	226.22
916.27	226.11
916.58	226.26
916.88	226.24
917.18	226.25
917.49	226.60
917.79	226.58
918.09	226.65
918.39	226.86
918.70	226.83
919.00	226.87
919.30	227.10
919.60	227.07
919.91	227.05
920.21	227.15
920.51	227.02
920.81	226.97
921.12	227.08
921.42	226.98
921.72	227.04
922.02	227.03
922.32	227.06
922.63	227.15
922.93	227.37
923.23	227.38
923.53	227.30
923.83	226.98
924.13	227.03
924.44	227.01
924.74	226.99
925.04	227.12
925.34	227.10
925.64	226.84
925.94	226.83
926.24	227.14
926.55	227.03
926.85	227.10
927.15	227.06
927.45	226.96
927.75	227.04
928.05	227.03
928.35	226.97
928.65	227.03
928.95	226.98
929.26	226.78
929.56	226.86
929.86	226.93
930.16	226.86
930.46	226.85
930.76	226.84
931.06	226.64
931.36	226.50
931.66	226.58
931.96	226.62
932.26	226.73
932.56	226.44
932.86	226.45
933.16	226.51
933.46	226.49
933.76	226.45
934.06	226.55
934.36	226.70
934.66	226.65
934.96	226.60
935.26	226.68
935.56	226.70
935.86	226.55
936.16	226.46
936.46	226.44
936.76	226.32
937.06	226.25
937.36	226.23
937.66	226.25
937.96	226.20
938.26	226.10
938.56	226.03
938.86	226.10
939.16	226.24
939.46	226.23
939.76	226.33
940.06	226.39
940.35	226.19
940.65	225.97
940.95	226.01
941.25	225.85
941.55	225.67
941.85	225.70
942.15	225.83
942.45	226.02
942.75	226.01
943.04	226.10
943.34	226.19
943.64	226.20
943.94	226.14
944.24	226.17
944.54	226.22
944.84	226.15
945.13	226.05
945.43	225.93
945.73	225.87
946.03	225.81
946.33	225.76
946.62	225.76
946.92	225.82
947.22	225.90
947.52	225.90
947.82	226.07
948.11	225.95
948.41	225.80
948.71	225.58
949.01	225.59
949.31	225.50
949.60	225.40
949.90	225.53
950.20	225.57
950.50	225.58
950.79	225.59
951.09	225.70
951.39	225.74
951.69	225.77
951.98	225.88
952.28	225.85
952.58	225.81
952.87	225.82
953.17	225.88
953.47	225.82
953.76	225.96
954.06	225.78
954.36	225.71
954.66	225.78
954.95	225.95
955.25	226.06
955.55	226.21
955.84	226.22
956.14	226.23
956.44	226.14
956.73	226.00
957.03	226.08
957.32	226.08
957.62	226.13
957.92	226.18
958.21	226.15
958.51	226.75
958.81	226.74
959.10	226.87
959.40	226.93
959.69	226.91
959.99	226.95
960.29	227.10
960.58	227.12
960.88	227.26
961.17	227.18
961.47	227.14
961.76	227.01
962.06	227.13
962.36	227.01
962.65	227.07
962.95	227.17
963.24	227.13
963.54	227.14
963.83	227.15
964.13	227.15
964.42	227.00
964.72	226.62
965.01	226.71
965.31	226.65
965.60	226.58
965.90	226.82
966.19	226.63
966.49	226.56
966.78	226.50
967.08	226.43
967.37	226.47
967.67	226.40
967.96	226.50
968.26	226.40
968.55	226.56
968.85	226.58
969.14	226.49
969.43	226.39
969.73	226.42
970.02	226.35
970.32	226.29
970.61	226.32
970.91	226.16
971.20	226.08
971.49	225.98
971.79	225.98
972.08	225.69
972.38	225.77
972.67	225.76
972.96	225.89
973.26	225.75
973.55	225.91
973.85	225.90
974.14	225.76
974.43	225.84
974.73	225.70
975.02	225.67
975.31	225.74
975.61	225.79
975.90	225.68
976.19	225.65
976.49	225.68
976.78	225.70
977.07	225.74
977.37	225.79
977.66	225.83
977.95	225.72
978.24	225.79
978.54	225.88
978.83	225.85
979.12	225.77
979.42	225.80
979.71	225.67
980.00	225.70
980.29	225.81
980.59	225.73
980.88	225.84
981.17	225.83
981.46	225.85
981.76	225.83
982.05	225.99
982.34	226.05
982.63	226.16
982.93	226.10
983.22	226.25
983.51	226.21
983.80	226.28
984.09	226.38
984.39	226.34
984.68	226.29
984.97	226.35
985.26	226.35
985.55	226.44
985.85	226.36
986.14	226.41
986.43	226.41
986.72	226.35
987.01	226.21
987.30	226.24
987.59	226.18
987.89	226.18
988.18	226.04
988.47	225.93
988.76	225.83
989.05	225.85
989.34	225.78
989.63	225.91
989.92	225.86
990.22	225.86
990.51	225.85
990.80	225.82
991.09	225.89
991.38	225.93
991.67	225.85
991.96	225.88
992.25	225.94
992.54	225.91
992.83	226.04
993.12	226.01
993.41	226.05
993.70	226.25
993.99	226.36
994.28	226.36
994.58	226.49
994.87	226.44
995.16	226.49
995.45	226.45
995.74	226.31
996.03	226.39
996.32	226.46
996.61	226.57
996.90	226.62
997.19	226.55
997.48	226.64
997.77	226.63
998.06	226.61
998.34	226.52
998.63	226.45
998.92	226.45
999.21	226.50
999.50	226.57
999.79	226.47
1000.08	226.44
1000.37	226.49
1000.66	226.40
1000.95	226.52
1001.24	226.50
1001.53	226.55
1001.82	226.54
1002.11	226.41
1002.40	226.42
1002.68	226.58
1002.97	226.87
1003.26	226.85
1003.55	226.70
1003.84	226.74
1004.13	226.94
1004.42	226.89
1004.71	226.91
1004.99	226.85
1005.28	227.07
1005.57	226.90
1005.86	226.80
1006.15	226.75
1006.44	226.65
1006.72	226.73
1007.01	226.64
1007.30	226.65
1007.59	226.56
1007.88	226.53
1008.17	226.60
1008.45	226.51
1008.74	226.27
1009.03	226.11
1009.32	226.05
1009.60	226.12
1009.89	226.07
1010.18	225.81
1010.47	225.81
1010.76	225.82
1011.04	225.75
1011.33	225.63
1011.62	225.62
1011.91	225.68
1012.19	225.66
1012.48	225.69
1012.77	225.66
1013.05	225.85
1013.34	225.80
1013.63	225.78
1013.92	225.80
1014.20	225.71
1014.49	225.73
1014.78	225.70
1015.06	225.43
1015.35	225.49
1015.64	225.54
1015.92	225.60
1016.21	225.65
1016.50	225.65
1016.78	225.71
1017.07	225.79
1017.36	225.67
1017.64	225.67
1017.93	225.67
1018.22	225.71
1018.50	225.65
1018.79	225.64
1019.08	225.45
1019.36	225.48
1019.65	225.42
1019.93	225.62
1020.22	225.71
1020.51	225.95
1020.79	225.92
1021.08	226.05
1021.36	223.70
1021.65	225.95
1021.94	225.85
1022.22	226.05
1022.51	224.25
1022.79	229.05
1023.08	225.80
1023.36	231.90
1023.65	224.30
>>>>>End Processed Spectral Data<<<<<
