SpectraSuite Data File
++++++++++++++++++++++++++++++++++++
Date: Wed Sep 04 17:45:19 EDT 2013
User: lab3
Dark Spectrum Present: Yes
Reference Spectrum Present: No
Number of Sampled Component Spectra: 1
Spectrometers: USB2E7196
Integration Time (usec): 170000 (USB2E7196)
Spectra Averaged: 20 (USB2E7196)
Boxcar Smoothing: 10 (USB2E7196)
Correct for Electrical Dark: No (USB2E7196)
Strobe/Lamp Enabled: No (USB2E7196)
Correct for Detector Non-linearity: No (USB2E7196)
Correct for Stray Light: No (USB2E7196)
Number of Pixels in Processed Spectrum: 2048
>>>>>Begin Processed Spectral Data<<<<<
339.09	0.00
339.48	212.65
339.86	214.40
340.24	215.75
340.63	216.30
341.01	225.20
341.39	219.30
341.78	222.75
342.16	224.00
342.54	223.85
342.93	212.07
343.31	222.72
343.69	223.25
344.07	223.70
344.46	224.19
344.84	224.63
345.22	224.58
345.60	224.84
345.99	225.01
346.37	225.07
346.75	225.13
347.13	225.19
347.52	225.24
347.90	225.43
348.28	225.53
348.66	225.64
349.05	225.46
349.43	225.55
349.81	225.64
350.19	225.67
350.57	225.78
350.96	225.90
351.34	226.01
351.72	226.14
352.10	226.30
352.48	226.29
352.87	226.30
353.25	226.47
353.63	226.53
354.01	226.60
354.39	226.73
354.77	226.81
355.15	227.03
355.54	227.06
355.92	227.02
356.30	227.06
356.68	227.41
357.06	227.53
357.44	227.49
357.82	227.53
358.20	227.94
358.58	228.01
358.97	228.00
359.35	228.18
359.73	228.31
360.11	228.31
360.49	228.45
360.87	228.49
361.25	228.55
361.63	228.80
362.01	228.84
362.39	228.78
362.77	228.95
363.15	228.99
363.53	229.04
363.91	229.06
364.29	229.14
364.67	228.72
365.05	228.79
365.43	228.87
365.81	229.02
366.19	228.95
366.57	229.12
366.95	229.19
367.33	229.13
367.71	229.15
368.09	229.30
368.47	229.33
368.85	229.35
369.23	229.44
369.61	229.25
369.99	229.45
370.37	229.55
370.75	229.72
371.13	229.53
371.51	229.50
371.89	229.51
372.27	229.51
372.65	229.59
373.03	229.56
373.41	229.52
373.78	229.37
374.16	229.08
374.54	228.89
374.92	228.80
375.30	228.67
375.68	228.54
376.06	228.44
376.44	228.34
376.82	228.30
377.19	228.21
377.57	228.11
377.95	227.87
378.33	227.71
378.71	227.35
379.09	227.40
379.47	227.38
379.84	227.27
380.22	227.10
380.60	226.95
380.98	226.83
381.36	226.76
381.73	226.66
382.11	226.72
382.49	226.76
382.87	226.66
383.25	226.67
383.62	227.18
384.00	227.05
384.38	227.02
384.76	227.07
385.13	227.19
385.51	227.22
385.89	227.08
386.27	227.05
386.64	227.10
387.02	226.94
387.40	226.82
387.78	226.75
388.15	226.79
388.53	226.61
388.91	226.60
389.29	226.47
389.66	226.50
390.04	226.38
390.42	226.39
390.79	226.34
391.17	226.24
391.55	225.62
391.92	225.54
392.30	225.45
392.68	225.29
393.05	225.19
393.43	225.14
393.81	225.16
394.18	225.15
394.56	225.12
394.94	225.25
395.31	225.25
395.69	225.48
396.06	225.53
396.44	225.65
396.82	225.58
397.19	225.92
397.57	225.86
397.95	225.95
398.32	225.84
398.70	226.00
399.07	226.24
399.45	226.31
399.82	226.41
400.20	226.46
400.58	226.62
400.95	226.57
401.33	226.76
401.70	227.23
402.08	227.34
402.45	227.39
402.83	227.66
403.20	227.85
403.58	227.84
403.95	228.09
404.33	228.36
404.71	228.61
405.08	229.01
405.46	229.28
405.83	229.51
406.21	229.80
406.58	230.12
406.96	230.37
407.33	230.77
407.70	231.19
408.08	232.00
408.45	232.43
408.83	232.95
409.20	233.26
409.58	233.37
409.95	233.95
410.33	234.60
410.70	234.90
411.08	235.53
411.45	236.16
411.82	236.74
412.20	237.55
412.57	238.49
412.95	238.77
413.32	239.63
413.69	240.50
414.07	241.37
414.44	242.25
414.82	243.18
415.19	244.32
415.56	245.43
415.94	246.44
416.31	247.84
416.68	249.11
417.06	250.74
417.43	252.36
417.81	254.02
418.18	255.78
418.55	257.77
418.93	259.71
419.30	261.76
419.67	263.92
420.04	266.05
420.42	268.26
420.79	271.30
421.16	274.03
421.54	277.02
421.91	279.93
422.28	282.98
422.66	286.24
423.03	289.66
423.40	292.93
423.77	296.39
424.15	299.87
424.52	303.65
424.89	307.82
425.26	311.79
425.64	315.59
426.01	319.77
426.38	323.97
426.75	328.38
427.13	332.85
427.50	337.55
427.87	342.41
428.24	347.39
428.61	351.80
428.99	356.91
429.36	362.21
429.73	367.61
430.10	373.00
430.47	378.55
430.85	383.93
431.22	389.90
431.59	396.50
431.96	402.65
432.33	409.42
432.70	415.80
433.08	423.36
433.45	430.49
433.82	437.57
434.19	445.60
434.56	453.53
434.93	461.06
435.30	468.57
435.68	476.75
436.05	484.82
436.42	492.88
436.79	500.52
437.16	508.65
437.53	517.31
437.90	525.87
438.27	534.10
438.64	542.85
439.01	551.12
439.38	558.09
439.75	564.95
440.13	572.71
440.50	580.15
440.87	586.02
441.24	592.30
441.61	599.09
441.98	604.06
442.35	609.74
442.72	615.77
443.09	621.51
443.46	625.05
443.83	627.31
444.20	629.36
444.57	631.95
444.94	633.05
445.31	634.10
445.68	635.48
446.05	635.84
446.42	634.66
446.79	633.20
447.16	631.61
447.53	630.39
447.90	626.91
448.27	623.30
448.64	618.64
449.01	615.01
449.37	609.03
449.74	603.15
450.11	596.38
450.48	588.60
450.85	580.76
451.22	574.01
451.59	567.59
451.96	561.41
452.33	553.48
452.70	546.31
453.07	537.78
453.43	528.75
453.80	520.47
454.17	512.51
454.54	505.01
454.91	497.10
455.28	489.40
455.65	482.08
456.02	475.40
456.38	469.18
456.75	461.68
457.12	455.31
457.49	449.18
457.86	443.08
458.23	438.17
458.59	432.61
458.96	427.00
459.33	422.03
459.70	417.06
460.07	413.07
460.43	408.45
460.80	404.27
461.17	400.66
461.54	396.77
461.91	393.12
462.27	389.36
462.64	386.09
463.01	382.51
463.38	379.28
463.74	375.30
464.11	372.41
464.48	369.79
464.85	366.96
465.21	364.93
465.58	362.63
465.95	359.82
466.32	357.67
466.68	355.36
467.05	353.29
467.42	351.11
467.78	348.84
468.15	346.76
468.52	345.20
468.88	343.06
469.25	341.23
469.62	339.82
469.98	338.18
470.35	336.75
470.72	335.33
471.08	333.64
471.45	332.43
471.82	331.21
472.18	329.81
472.55	328.85
472.92	327.41
473.28	326.25
473.65	325.21
474.02	324.21
474.38	323.43
474.75	322.62
475.11	321.78
475.48	321.11
475.85	320.58
476.21	319.99
476.58	319.55
476.94	319.17
477.31	318.61
477.67	318.18
478.04	317.86
478.41	317.74
478.77	318.07
479.14	317.85
479.50	317.76
479.87	317.78
480.23	317.78
480.60	317.92
480.96	318.09
481.33	318.43
481.69	318.58
482.06	318.84
482.42	319.14
482.79	319.55
483.15	320.02
483.52	320.66
483.88	321.08
484.25	321.64
484.61	322.32
484.98	323.04
485.34	324.13
485.71	325.06
486.07	326.00
486.44	326.56
486.80	327.71
487.17	328.79
487.53	330.25
487.90	331.72
488.26	333.25
488.62	334.95
488.99	336.45
489.35	338.16
489.72	340.02
490.08	341.90
490.44	343.93
490.81	346.11
491.17	348.27
491.54	350.89
491.90	353.35
492.26	355.98
492.63	358.86
492.99	361.71
493.36	364.78
493.72	368.10
494.08	371.63
494.45	375.25
494.81	379.20
495.17	382.98
495.54	387.17
495.90	391.45
496.26	395.72
496.63	400.44
496.99	405.25
497.35	410.26
497.72	415.66
498.08	421.10
498.44	426.79
498.80	432.66
499.17	438.47
499.53	444.75
499.89	451.28
500.26	457.96
500.62	464.78
500.98	471.99
501.34	479.20
501.71	486.88
502.07	494.55
502.43	502.49
502.79	510.75
503.16	519.34
503.52	528.09
503.88	537.31
504.24	546.76
504.60	556.55
504.97	566.63
505.33	576.71
505.69	587.79
506.05	598.79
506.41	610.05
506.78	621.68
507.14	633.63
507.50	645.92
507.86	658.28
508.22	671.12
508.59	684.01
508.95	697.55
509.31	711.16
509.67	725.17
510.03	739.24
510.39	753.68
510.75	768.48
511.12	783.48
511.48	798.84
511.84	814.47
512.20	830.12
512.56	846.05
512.92	862.75
513.28	879.08
513.64	895.94
514.00	913.04
514.37	930.50
514.73	948.01
515.09	965.73
515.45	983.88
515.81	1001.92
516.17	1020.49
516.53	1038.74
516.89	1057.59
517.25	1076.76
517.61	1096.57
517.97	1116.39
518.33	1135.92
518.69	1155.87
519.05	1176.07
519.41	1196.07
519.77	1216.94
520.13	1237.51
520.49	1257.84
520.85	1278.41
521.21	1298.96
521.57	1319.62
521.93	1339.72
522.29	1360.66
522.65	1380.95
523.01	1401.43
523.37	1421.50
523.73	1442.10
524.09	1462.52
524.45	1482.23
524.81	1502.50
525.17	1522.38
525.53	1542.58
525.89	1562.67
526.25	1583.00
526.61	1602.49
526.97	1622.95
527.33	1643.53
527.68	1664.65
528.04	1684.99
528.40	1705.16
528.76	1725.94
529.12	1745.69
529.48	1766.04
529.84	1785.51
530.20	1806.09
530.56	1826.04
530.91	1846.51
531.27	1866.00
531.63	1885.52
531.99	1905.38
532.35	1924.72
532.71	1944.57
533.07	1964.43
533.42	1983.77
533.78	2002.99
534.14	2022.46
534.50	2040.84
534.86	2059.10
535.21	2076.12
535.57	2094.19
535.93	2111.37
536.29	2128.23
536.65	2145.95
537.00	2163.02
537.36	2179.97
537.72	2195.97
538.08	2212.27
538.44	2228.05
538.79	2243.73
539.15	2259.89
539.51	2275.36
539.87	2289.60
540.22	2303.01
540.58	2316.72
540.94	2329.33
541.29	2341.53
541.65	2353.35
542.01	2365.10
542.37	2374.91
542.72	2385.12
543.08	2394.86
543.44	2405.98
543.79	2415.40
544.15	2424.62
544.51	2433.92
544.87	2442.57
545.22	2450.58
545.58	2457.87
545.94	2464.58
546.29	2470.61
546.65	2476.25
547.01	2481.62
547.36	2487.11
547.72	2492.10
548.07	2495.43
548.43	2500.34
548.79	2504.33
549.14	2508.05
549.50	2511.68
549.86	2515.21
550.21	2518.49
550.57	2521.49
550.92	2522.15
551.28	2523.19
551.64	2525.00
551.99	2526.33
552.35	2527.70
552.70	2529.56
553.06	2530.81
553.41	2531.53
553.77	2532.86
554.13	2534.23
554.48	2534.57
554.84	2535.34
555.19	2535.92
555.55	2536.99
555.90	2536.11
556.26	2535.03
556.61	2533.07
556.97	2530.54
557.32	2529.53
557.68	2527.97
558.03	2526.20
558.39	2524.38
558.74	2522.89
559.10	2519.25
559.45	2515.24
559.81	2510.57
560.16	2504.26
560.52	2499.37
560.87	2495.01
561.23	2489.42
561.58	2483.06
561.94	2476.63
562.29	2469.11
562.64	2462.01
563.00	2453.92
563.35	2447.02
563.71	2440.02
564.06	2433.64
564.42	2427.27
564.77	2420.56
565.12	2412.88
565.48	2405.02
565.83	2397.30
566.19	2389.24
566.54	2381.65
566.89	2373.85
567.25	2366.22
567.60	2359.21
567.96	2351.39
568.31	2343.23
568.66	2334.69
569.02	2325.58
569.37	2317.21
569.72	2309.58
570.08	2300.25
570.43	2290.63
570.78	2281.49
571.14	2272.26
571.49	2262.27
571.84	2252.69
572.20	2241.93
572.55	2232.06
572.90	2221.52
573.26	2211.46
573.61	2200.69
573.96	2189.50
574.31	2177.59
574.67	2165.96
575.02	2153.85
575.37	2141.52
575.72	2128.59
576.08	2116.63
576.43	2104.70
576.78	2091.95
577.13	2078.75
577.49	2066.78
577.84	2055.79
578.19	2043.85
578.54	2031.50
578.90	2019.85
579.25	2007.51
579.60	1995.40
579.95	1982.82
580.30	1969.94
580.66	1956.97
581.01	1943.94
581.36	1930.46
581.71	1918.28
582.06	1905.84
582.42	1894.15
582.77	1881.96
583.12	1870.32
583.47	1858.38
583.82	1846.85
584.17	1835.39
584.53	1824.02
584.88	1811.06
585.23	1798.13
585.58	1784.80
585.93	1771.87
586.28	1758.80
586.63	1745.40
586.98	1731.55
587.34	1718.72
587.69	1705.94
588.04	1693.60
588.39	1681.92
588.74	1670.33
589.09	1658.69
589.44	1646.24
589.79	1633.92
590.14	1622.51
590.49	1610.91
590.84	1599.12
591.19	1587.19
591.54	1575.20
591.89	1563.45
592.25	1553.76
592.60	1542.64
592.95	1531.69
593.30	1520.31
593.65	1508.91
594.00	1497.45
594.35	1488.25
594.70	1476.83
595.05	1465.92
595.40	1454.57
595.75	1443.10
596.10	1432.32
596.45	1421.11
596.80	1410.80
597.15	1399.97
597.50	1388.40
597.85	1377.57
598.19	1366.60
598.54	1355.40
598.89	1344.75
599.24	1334.38
599.59	1323.30
599.94	1312.66
600.29	1302.71
600.64	1292.73
600.99	1282.26
601.34	1273.21
601.69	1262.15
602.04	1252.75
602.39	1243.52
602.74	1234.50
603.08	1225.43
603.43	1216.40
603.78	1207.29
604.13	1198.01
604.48	1188.67
604.83	1179.55
605.18	1170.27
605.53	1161.24
605.87	1152.64
606.22	1144.55
606.57	1135.79
606.92	1126.87
607.27	1118.45
607.62	1110.01
607.96	1102.07
608.31	1094.79
608.66	1086.57
609.01	1078.47
609.36	1070.18
609.70	1061.95
610.05	1053.81
610.40	1045.80
610.75	1037.39
611.10	1029.29
611.44	1021.04
611.79	1013.31
612.14	1005.75
612.49	998.18
612.83	990.98
613.18	983.40
613.53	975.78
613.88	968.19
614.22	960.75
614.57	953.39
614.92	945.81
615.27	938.71
615.61	931.09
615.96	923.85
616.31	916.76
616.65	910.12
617.00	903.04
617.35	896.12
617.70	889.09
618.04	882.35
618.39	875.81
618.74	869.75
619.08	863.19
619.43	856.61
619.78	849.82
620.12	843.01
620.47	836.53
620.82	829.75
621.16	823.18
621.51	817.04
621.85	810.89
622.20	804.40
622.55	797.74
622.89	791.74
623.24	785.66
623.59	779.60
623.93	773.64
624.28	767.89
624.62	762.47
624.97	756.90
625.32	751.30
625.66	745.48
626.01	739.55
626.35	734.38
626.70	729.07
627.04	724.03
627.39	718.74
627.73	713.59
628.08	708.74
628.43	703.63
628.77	698.44
629.12	693.38
629.46	688.86
629.81	684.59
630.15	680.02
630.50	675.50
630.84	670.84
631.19	666.24
631.53	661.80
631.88	656.80
632.22	652.31
632.57	648.16
632.91	643.95
633.26	639.88
633.60	635.35
633.95	630.89
634.29	626.35
634.64	622.15
634.98	617.74
635.32	613.50
635.67	609.66
636.01	605.70
636.36	601.41
636.70	597.60
637.05	593.51
637.39	589.50
637.73	585.44
638.08	581.68
638.42	577.77
638.77	573.64
639.11	569.61
639.45	565.40
639.80	561.18
640.14	557.19
640.49	553.35
640.83	549.71
641.17	546.11
641.52	542.60
641.86	539.11
642.20	536.06
642.55	532.50
642.89	528.97
643.23	525.59
643.58	522.79
643.92	519.18
644.26	515.90
644.61	512.89
644.95	509.62
645.29	506.24
645.64	503.13
645.98	500.22
646.32	497.41
646.66	494.56
647.01	491.65
647.35	489.05
647.69	486.16
648.04	483.47
648.38	480.84
648.72	478.11
649.06	475.21
649.41	472.17
649.75	469.44
650.09	466.75
650.43	464.10
650.78	461.15
651.12	458.60
651.46	455.91
651.80	453.16
652.14	450.69
652.49	448.39
652.83	446.00
653.17	443.49
653.51	440.77
653.85	438.47
654.20	436.18
654.54	433.58
654.88	431.08
655.22	428.84
655.56	426.40
655.90	424.08
656.25	421.86
656.59	419.70
656.93	417.67
657.27	415.58
657.61	413.22
657.95	411.10
658.29	408.94
658.64	406.95
658.98	404.78
659.32	402.55
659.66	400.45
660.00	398.39
660.34	396.41
660.68	394.57
661.02	392.53
661.36	390.64
661.70	388.81
662.05	387.04
662.39	385.07
662.73	383.40
663.07	381.83
663.41	380.14
663.75	378.42
664.09	376.58
664.43	374.75
664.77	373.21
665.11	371.60
665.45	370.03
665.79	368.44
666.13	366.86
666.47	365.34
666.81	363.77
667.15	362.10
667.49	360.58
667.83	359.31
668.17	357.93
668.51	356.53
668.85	355.25
669.19	354.07
669.53	352.62
669.87	351.11
670.21	349.64
670.55	348.26
670.89	347.17
671.23	345.92
671.57	344.59
671.91	343.18
672.25	341.79
672.58	340.62
672.92	339.16
673.26	337.89
673.60	336.71
673.94	335.59
674.28	334.60
674.62	333.55
674.96	332.19
675.30	330.99
675.64	329.76
675.97	328.47
676.31	327.12
676.65	326.00
676.99	325.10
677.33	323.90
677.67	322.94
678.01	321.66
678.34	320.58
678.68	319.68
679.02	318.71
679.36	317.79
679.70	316.80
680.04	316.04
680.37	315.24
680.71	314.24
681.05	313.28
681.39	312.35
681.73	311.39
682.06	310.61
682.40	309.81
682.74	309.10
683.08	308.49
683.42	307.70
683.75	306.99
684.09	306.08
684.43	305.40
684.77	304.57
685.10	303.81
685.44	303.04
685.78	302.22
686.12	301.46
686.45	300.65
686.79	299.77
687.13	299.05
687.46	298.24
687.80	297.64
688.14	296.81
688.48	296.05
688.81	295.40
689.15	294.78
689.49	294.01
689.82	293.27
690.16	292.34
690.50	291.66
690.83	290.89
691.17	290.14
691.51	289.50
691.84	288.80
692.18	288.10
692.52	287.50
692.85	286.97
693.19	286.55
693.52	285.95
693.86	285.41
694.20	284.80
694.53	284.21
694.87	283.51
695.21	282.97
695.54	282.37
695.88	281.66
696.21	280.87
696.55	280.33
696.88	279.75
697.22	279.24
697.56	278.74
697.89	278.17
698.23	277.61
698.56	276.95
698.90	276.55
699.23	276.04
699.57	275.54
699.90	274.85
700.24	274.18
700.58	273.75
700.91	273.33
701.25	273.22
701.58	273.13
701.92	272.87
702.25	272.50
702.59	272.04
702.92	271.60
703.26	271.27
703.59	270.82
703.93	270.80
704.26	270.48
704.60	270.05
704.93	269.61
705.26	269.24
705.60	268.96
705.93	268.50
706.27	268.24
706.60	267.86
706.94	267.78
707.27	267.39
707.61	267.08
707.94	266.65
708.27	265.86
708.61	265.04
708.94	264.54
709.28	264.17
709.61	263.78
709.94	263.54
710.28	263.15
710.61	262.86
710.95	262.01
711.28	261.93
711.61	261.54
711.95	261.34
712.28	261.00
712.61	260.63
712.95	260.51
713.28	260.36
713.61	259.94
713.95	259.44
714.28	259.18
714.61	258.89
714.95	258.57
715.28	258.16
715.61	257.86
715.95	257.63
716.28	257.13
716.61	256.83
716.95	256.37
717.28	256.09
717.61	255.70
717.94	255.42
718.28	254.73
718.61	254.47
718.94	254.13
719.27	253.84
719.61	253.57
719.94	253.14
720.27	252.68
720.60	252.42
720.94	252.18
721.27	251.97
721.60	251.65
721.93	251.36
722.27	251.30
722.60	251.14
722.93	250.82
723.26	250.74
723.59	250.57
723.93	250.41
724.26	250.22
724.59	249.96
724.92	249.82
725.25	249.69
725.59	249.44
725.92	249.32
726.25	249.09
726.58	249.02
726.91	248.84
727.24	248.65
727.57	248.46
727.91	248.13
728.24	247.88
728.57	247.71
728.90	247.54
729.23	247.23
729.56	247.32
729.89	247.19
730.22	246.95
730.55	246.67
730.89	246.54
731.22	246.34
731.55	246.18
731.88	246.10
732.21	245.95
732.54	245.80
732.87	245.56
733.20	245.42
733.53	245.22
733.86	245.06
734.19	244.82
734.52	244.82
734.85	245.04
735.18	244.92
735.51	244.88
735.84	244.80
736.17	244.88
736.50	244.48
736.83	244.85
737.16	244.77
737.49	244.70
737.82	244.54
738.15	244.48
738.48	244.36
738.81	244.11
739.14	243.88
739.47	243.74
739.80	243.63
740.13	243.55
740.46	243.27
740.79	243.04
741.12	242.92
741.45	242.66
741.78	242.26
742.11	242.29
742.44	242.02
742.77	241.99
743.10	241.73
743.43	241.57
743.75	240.86
744.08	241.34
744.41	241.20
744.74	241.01
745.07	240.74
745.40	240.71
745.73	240.84
746.06	240.75
746.39	240.65
746.71	240.40
747.04	240.20
747.37	240.10
747.70	240.13
748.03	240.04
748.36	240.01
748.68	239.92
749.01	239.58
749.34	239.48
749.67	239.26
750.00	239.22
750.33	239.43
750.65	239.35
750.98	238.66
751.31	238.59
751.64	238.55
751.97	238.72
752.29	238.55
752.62	238.18
752.95	237.98
753.28	237.87
753.60	237.82
753.93	237.88
754.26	237.83
754.59	237.57
754.91	237.44
755.24	237.27
755.57	237.14
755.90	237.08
756.22	236.92
756.55	236.73
756.88	236.45
757.20	236.05
757.53	235.88
757.86	235.76
758.19	235.67
758.51	235.49
758.84	235.16
759.17	234.99
759.49	234.94
759.82	235.10
760.15	234.96
760.47	234.85
760.80	234.52
761.13	234.35
761.45	234.25
761.78	234.10
762.11	234.06
762.43	233.90
762.76	233.78
763.08	233.79
763.41	233.78
763.74	233.79
764.06	233.69
764.39	233.63
764.71	233.55
765.04	233.42
765.37	233.32
765.69	233.25
766.02	233.16
766.34	232.99
766.67	232.70
767.00	232.79
767.32	232.97
767.65	233.22
767.97	233.27
768.30	233.20
768.62	233.17
768.95	233.02
769.27	232.96
769.60	232.99
769.92	232.81
770.25	232.72
770.57	232.55
770.90	232.57
771.22	232.42
771.55	232.36
771.87	232.31
772.20	232.26
772.52	232.60
772.85	233.18
773.17	233.22
773.50	233.21
773.82	233.04
774.15	232.77
774.47	232.41
774.80	232.27
775.12	232.30
775.45	232.28
775.77	232.29
776.09	232.28
776.42	232.20
776.74	232.32
777.07	232.27
777.39	232.32
777.72	232.17
778.04	232.24
778.36	232.15
778.69	232.18
779.01	232.16
779.33	231.78
779.66	231.15
779.98	230.99
780.31	230.96
780.63	231.10
780.95	231.12
781.28	231.11
781.60	231.04
781.92	230.90
782.25	230.76
782.57	230.70
782.89	230.71
783.22	230.64
783.54	230.49
783.86	230.44
784.19	230.36
784.51	230.46
784.83	230.36
785.16	230.31
785.48	230.20
785.80	230.17
786.12	230.14
786.45	230.14
786.77	230.20
787.09	230.15
787.42	229.87
787.74	229.82
788.06	229.77
788.38	229.68
788.71	229.61
789.03	229.65
789.35	229.64
789.67	229.42
789.99	229.46
790.32	229.33
790.64	229.29
790.96	229.55
791.28	229.34
791.61	229.34
791.93	229.36
792.25	229.38
792.57	229.70
792.89	229.57
793.21	229.57
793.54	229.50
793.86	229.38
794.18	229.52
794.50	229.45
794.82	229.47
795.14	229.51
795.47	229.62
795.79	229.67
796.11	229.55
796.43	229.52
796.75	229.47
797.07	229.56
797.39	229.45
797.71	229.15
798.04	229.18
798.36	229.15
798.68	229.14
799.00	229.15
799.32	228.90
799.64	228.98
799.96	228.95
800.28	229.02
800.60	229.00
800.92	228.91
801.24	228.90
801.56	228.94
801.89	228.88
802.21	228.87
802.53	228.72
802.85	228.83
803.17	229.07
803.49	228.97
803.81	228.91
804.13	228.94
804.45	228.90
804.77	228.91
805.09	228.91
805.41	228.83
805.73	228.63
806.05	228.47
806.37	228.41
806.69	228.34
807.01	228.25
807.33	228.31
807.65	228.20
807.97	228.45
808.28	228.37
808.60	228.42
808.92	228.35
809.24	228.63
809.56	228.53
809.88	228.29
810.20	228.28
810.52	228.34
810.84	228.34
811.16	228.21
811.48	228.22
811.80	228.38
812.12	228.39
812.43	228.57
812.75	228.63
813.07	228.56
813.39	228.58
813.71	228.47
814.03	228.37
814.35	228.37
814.67	228.08
814.98	228.05
815.30	227.98
815.62	227.88
815.94	227.52
816.26	227.65
816.58	227.61
816.89	227.73
817.21	227.64
817.53	227.68
817.85	227.79
818.17	227.70
818.48	227.46
818.80	227.56
819.12	227.44
819.44	227.37
819.76	227.35
820.07	227.38
820.39	227.47
820.71	227.53
821.03	227.55
821.34	227.62
821.66	227.60
821.98	227.69
822.30	227.65
822.61	227.97
822.93	227.77
823.25	227.85
823.57	227.75
823.88	227.84
824.20	227.74
824.52	227.73
824.83	227.73
825.15	227.65
825.47	227.64
825.79	227.72
826.10	227.70
826.42	227.65
826.74	227.63
827.05	227.60
827.37	227.62
827.69	227.56
828.00	227.54
828.32	227.56
828.64	227.50
828.95	227.79
829.27	227.64
829.58	227.65
829.90	227.66
830.22	227.66
830.53	227.51
830.85	227.47
831.17	227.42
831.48	227.35
831.80	227.42
832.11	227.31
832.43	227.23
832.75	227.16
833.06	227.46
833.38	227.39
833.69	227.34
834.01	227.39
834.32	227.40
834.64	227.28
834.96	227.30
835.27	227.31
835.59	227.15
835.90	227.12
836.22	227.09
836.53	227.01
836.85	226.95
837.16	227.48
837.48	227.50
837.79	227.64
838.11	227.72
838.42	227.71
838.74	227.77
839.05	227.74
839.37	227.66
839.68	227.35
840.00	227.33
840.31	227.43
840.63	227.40
840.94	227.30
841.26	227.33
841.57	227.27
841.88	227.32
842.20	227.21
842.51	227.08
842.83	227.17
843.14	227.58
843.46	227.53
843.77	227.21
844.08	227.14
844.40	226.94
844.71	226.92
845.03	226.84
845.34	226.78
845.65	226.78
845.97	226.85
846.28	226.90
846.60	226.94
846.91	226.82
847.22	226.80
847.54	226.94
847.85	226.96
848.16	226.89
848.48	226.76
848.79	226.98
849.10	227.08
849.42	227.08
849.73	226.63
850.04	226.64
850.36	226.46
850.67	226.65
850.98	226.73
851.30	226.73
851.61	226.73
851.92	226.80
852.23	226.90
852.55	226.97
852.86	226.94
853.17	226.94
853.49	227.03
853.80	227.05
854.11	227.09
854.42	227.11
854.74	227.10
855.05	227.18
855.36	226.94
855.67	226.95
855.99	226.93
856.30	227.55
856.61	227.55
856.92	227.66
857.23	227.57
857.55	227.52
857.86	227.58
858.17	227.68
858.48	227.55
858.79	227.45
859.11	227.48
859.42	227.47
859.73	227.37
860.04	227.34
860.35	227.17
860.66	226.97
860.98	227.01
861.29	227.03
861.60	226.98
861.91	227.13
862.22	227.04
862.53	226.95
862.84	226.30
863.16	226.48
863.47	226.35
863.78	226.30
864.09	226.29
864.40	226.26
864.71	226.24
865.02	226.31
865.33	226.24
865.64	226.21
865.95	226.25
866.27	226.62
866.58	226.64
866.89	226.72
867.20	226.84
867.51	226.70
867.82	226.73
868.13	226.88
868.44	226.66
868.75	226.72
869.06	226.78
869.37	226.89
869.68	226.61
869.99	226.70
870.30	226.82
870.61	226.88
870.92	226.84
871.23	226.77
871.54	226.87
871.85	227.00
872.16	226.99
872.47	226.90
872.78	226.52
873.09	226.56
873.40	226.52
873.71	226.45
874.02	226.45
874.33	226.45
874.64	226.26
874.95	226.36
875.26	226.29
875.56	226.25
875.87	226.21
876.18	226.31
876.49	226.78
876.80	226.67
877.11	226.54
877.42	226.52
877.73	226.52
878.04	226.43
878.35	226.38
878.66	226.41
878.96	226.44
879.27	226.45
879.58	226.36
879.89	226.34
880.20	226.49
880.51	226.48
880.82	226.44
881.12	226.51
881.43	226.45
881.74	226.33
882.05	226.30
882.36	226.30
882.67	226.27
882.97	225.69
883.28	225.63
883.59	225.70
883.90	225.78
884.21	225.86
884.51	225.84
884.82	225.80
885.13	225.73
885.44	225.71
885.74	225.77
886.05	225.79
886.36	225.79
886.67	225.60
886.98	225.86
887.28	225.89
887.59	225.88
887.90	225.90
888.20	225.94
888.51	226.01
888.82	225.93
889.13	225.95
889.43	226.34
889.74	226.30
890.05	226.24
890.35	226.14
890.66	226.06
890.97	225.97
891.28	225.89
891.58	225.94
891.89	225.90
892.20	225.76
892.50	225.70
892.81	225.66
893.12	225.65
893.42	225.40
893.73	225.43
894.04	225.44
894.34	225.45
894.65	225.49
894.95	225.39
895.26	225.42
895.57	225.70
895.87	225.26
896.18	225.39
896.48	225.40
896.79	225.39
897.10	225.52
897.40	225.61
897.71	225.70
898.01	225.64
898.32	225.72
898.63	225.80
898.93	225.81
899.24	225.95
899.54	225.99
899.85	226.03
900.15	225.97
900.46	226.00
900.76	226.04
901.07	226.04
901.38	226.10
901.68	226.13
901.99	225.82
902.29	225.86
902.60	225.82
902.90	225.85
903.21	225.92
903.51	225.84
903.82	225.86
904.12	225.86
904.43	225.92
904.73	225.93
905.03	225.94
905.34	226.41
905.64	226.31
905.95	226.30
906.25	226.30
906.56	226.36
906.86	226.33
907.17	226.33
907.47	226.34
907.77	226.32
908.08	226.24
908.38	226.32
908.69	226.40
908.99	226.52
909.30	226.53
909.60	226.50
909.90	226.52
910.21	226.37
910.51	226.27
910.81	226.23
911.12	226.22
911.42	226.16
911.73	225.68
912.03	225.70
912.33	225.75
912.64	225.73
912.94	225.61
913.24	225.49
913.55	225.43
913.85	225.42
914.15	225.53
914.46	225.61
914.76	225.57
915.06	225.52
915.37	225.40
915.67	225.39
915.97	225.40
916.27	225.22
916.58	225.29
916.88	225.25
917.18	225.25
917.49	225.57
917.79	225.60
918.09	225.65
918.39	225.81
918.70	225.79
919.00	225.83
919.30	226.08
919.60	226.07
919.91	226.02
920.21	226.02
920.51	225.89
920.81	225.84
921.12	225.90
921.42	225.92
921.72	225.92
922.02	225.93
922.32	225.92
922.63	226.00
922.93	226.23
923.23	226.35
923.53	226.25
923.83	225.90
924.13	226.00
924.44	226.01
924.74	226.00
925.04	226.10
925.34	226.02
925.64	225.84
925.94	225.83
926.24	226.08
926.55	225.93
926.85	226.04
927.15	226.01
927.45	225.96
927.75	225.97
928.05	225.96
928.35	225.92
928.65	226.03
928.95	226.16
929.26	225.94
929.56	226.02
929.86	226.16
930.16	226.13
930.46	226.13
930.76	226.12
931.06	225.91
931.36	225.78
931.66	225.87
931.96	225.94
932.26	225.94
932.56	225.72
932.86	225.83
933.16	225.71
933.46	225.67
933.76	225.66
934.06	225.74
934.36	225.94
934.66	225.93
934.96	225.88
935.26	225.89
935.56	226.00
935.86	225.91
936.16	225.84
936.46	225.83
936.76	225.76
937.06	225.66
937.36	225.70
937.66	225.75
937.96	225.78
938.26	225.67
938.56	225.73
938.86	225.80
939.16	225.89
939.46	225.99
939.76	226.03
940.06	225.99
940.35	225.91
940.65	225.69
940.95	225.75
941.25	225.64
941.55	225.48
941.85	225.48
942.15	225.52
942.45	225.68
942.75	225.66
943.04	225.64
943.34	225.75
943.64	225.76
943.94	225.64
944.24	225.58
944.54	225.68
944.84	225.65
945.13	225.58
945.43	225.56
945.73	225.56
946.03	225.61
946.33	225.66
946.62	225.58
946.92	225.54
947.22	225.58
947.52	225.62
947.82	225.69
948.11	225.57
948.41	225.43
948.71	225.26
949.01	225.32
949.31	225.30
949.60	225.28
949.90	225.35
950.20	225.39
950.50	225.41
950.79	225.31
951.09	225.36
951.39	225.35
951.69	225.29
951.98	225.36
952.28	225.31
952.58	225.25
952.87	225.20
953.17	225.23
953.47	225.15
953.76	225.18
954.06	225.15
954.36	225.10
954.66	225.14
954.95	225.27
955.25	225.38
955.55	225.46
955.84	225.44
956.14	225.44
956.44	225.49
956.73	225.38
957.03	225.38
957.32	225.46
957.62	225.44
957.92	225.52
958.21	225.48
958.51	226.00
958.81	226.04
959.10	226.17
959.40	226.28
959.69	226.28
959.99	226.32
960.29	226.32
960.58	226.36
960.88	226.53
961.17	226.45
961.47	226.41
961.76	226.34
962.06	226.37
962.36	226.32
962.65	226.36
962.95	226.45
963.24	226.41
963.54	226.30
963.83	226.37
964.13	226.31
964.42	226.21
964.72	225.88
965.01	225.89
965.31	225.86
965.60	225.75
965.90	226.05
966.19	225.92
966.49	225.96
966.78	225.95
967.08	225.90
967.37	225.91
967.67	225.82
967.96	225.89
968.26	225.86
968.55	225.95
968.85	225.92
969.14	225.85
969.43	225.87
969.73	225.85
970.02	225.86
970.32	225.91
970.61	225.89
970.91	225.68
971.20	225.65
971.49	225.63
971.79	225.70
972.08	225.44
972.38	225.50
972.67	225.49
972.96	225.53
973.26	225.48
973.55	225.64
973.85	225.64
974.14	225.60
974.43	225.70
974.73	225.64
975.02	225.60
975.31	225.62
975.61	225.70
975.90	225.68
976.19	225.65
976.49	225.67
976.78	225.67
977.07	225.72
977.37	225.79
977.66	225.80
977.95	225.75
978.24	225.72
978.54	225.81
978.83	225.76
979.12	225.74
979.42	225.69
979.71	225.55
980.00	225.53
980.29	225.62
980.59	225.53
980.88	225.61
981.17	225.66
981.46	225.69
981.76	225.64
982.05	225.82
982.34	225.85
982.63	225.77
982.93	225.80
983.22	225.90
983.51	225.86
983.80	225.97
984.09	226.06
984.39	226.11
984.68	225.98
984.97	226.07
985.26	225.99
985.55	226.12
985.85	226.07
986.14	226.15
986.43	226.13
986.72	226.04
987.01	225.95
987.30	225.90
987.59	225.86
987.89	225.89
988.18	225.70
988.47	225.65
988.76	225.72
989.05	225.69
989.34	225.64
989.63	225.75
989.92	225.66
990.22	225.51
990.51	225.41
990.80	225.42
991.09	225.35
991.38	225.44
991.67	225.39
991.96	225.41
992.25	225.39
992.54	225.30
992.83	225.37
993.12	225.32
993.41	225.38
993.70	225.59
993.99	225.66
994.28	225.78
994.58	225.85
994.87	225.68
995.16	225.68
995.45	225.64
995.74	225.43
996.03	225.44
996.32	225.60
996.61	225.80
996.90	225.83
997.19	225.85
997.48	225.89
997.77	225.75
998.06	225.75
998.34	225.72
998.63	225.71
998.92	225.65
999.21	225.69
999.50	225.74
999.79	225.54
1000.08	225.54
1000.37	225.50
1000.66	225.41
1000.95	225.61
1001.24	225.63
1001.53	225.69
1001.82	225.80
1002.11	225.75
1002.40	225.77
1002.68	225.86
1002.97	226.14
1003.26	226.10
1003.55	226.03
1003.84	226.14
1004.13	226.32
1004.42	226.30
1004.71	226.37
1004.99	226.38
1005.28	226.55
1005.57	226.46
1005.86	226.43
1006.15	226.36
1006.44	226.33
1006.72	226.41
1007.01	226.29
1007.30	226.30
1007.59	226.24
1007.88	226.21
1008.17	226.19
1008.45	226.15
1008.74	225.93
1009.03	225.71
1009.32	225.75
1009.60	225.79
1009.89	225.73
1010.18	225.53
1010.47	225.51
1010.76	225.51
1011.04	225.52
1011.33	225.55
1011.62	225.58
1011.91	225.59
1012.19	225.63
1012.48	225.62
1012.77	225.65
1013.05	225.92
1013.34	225.90
1013.63	225.91
1013.92	225.96
1014.20	225.93
1014.49	225.93
1014.78	225.94
1015.06	225.77
1015.35	225.72
1015.64	225.79
1015.92	225.90
1016.21	225.90
1016.50	225.93
1016.78	225.89
1017.07	225.94
1017.36	225.71
1017.64	225.68
1017.93	225.80
1018.22	225.73
1018.50	225.70
1018.79	225.65
1019.08	225.42
1019.36	225.45
1019.65	225.39
1019.93	225.48
1020.22	225.58
1020.51	225.76
1020.79	225.67
1021.08	224.50
1021.36	224.70
1021.65	225.55
1021.94	225.70
1022.22	225.50
1022.51	224.35
1022.79	227.80
1023.08	226.05
1023.36	230.50
1023.65	223.90
>>>>>End Processed Spectral Data<<<<<
