SpectraSuite Data File
++++++++++++++++++++++++++++++++++++
Date: Wed Sep 04 17:51:49 EDT 2013
User: lab3
Dark Spectrum Present: Yes
Reference Spectrum Present: No
Number of Sampled Component Spectra: 1
Spectrometers: USB2E7196
Integration Time (usec): 170000 (USB2E7196)
Spectra Averaged: 20 (USB2E7196)
Boxcar Smoothing: 10 (USB2E7196)
Correct for Electrical Dark: No (USB2E7196)
Strobe/Lamp Enabled: No (USB2E7196)
Correct for Detector Non-linearity: No (USB2E7196)
Correct for Stray Light: No (USB2E7196)
Number of Pixels in Processed Spectrum: 2048
>>>>>Begin Processed Spectral Data<<<<<
339.09	0.00
339.48	212.40
339.86	213.20
340.24	215.65
340.63	216.30
341.01	225.55
341.39	220.20
341.78	221.00
342.16	223.85
342.54	222.70
342.93	211.83
343.31	222.54
343.69	223.11
344.07	223.65
344.46	224.17
344.84	224.60
345.22	224.59
345.60	224.84
345.99	225.09
346.37	225.18
346.75	225.30
347.13	225.40
347.52	225.47
347.90	225.69
348.28	225.69
348.66	225.86
349.05	225.73
349.43	225.79
349.81	225.81
350.19	225.85
350.57	225.86
350.96	226.02
351.34	226.11
351.72	226.19
352.10	226.25
352.48	226.21
352.87	226.25
353.25	226.31
353.63	226.29
354.01	226.33
354.39	226.34
354.77	226.40
355.15	226.51
355.54	226.48
355.92	226.38
356.30	226.51
356.68	226.84
357.06	226.92
357.44	226.92
357.82	226.97
358.20	227.38
358.58	227.45
358.97	227.44
359.35	227.59
359.73	227.73
360.11	227.81
360.49	227.94
360.87	227.95
361.25	228.01
361.63	228.26
362.01	228.33
362.39	228.43
362.77	228.54
363.15	228.57
363.53	228.61
363.91	228.70
364.29	228.71
364.67	228.26
365.05	228.35
365.43	228.51
365.81	228.64
366.19	228.54
366.57	228.80
366.95	228.90
367.33	228.86
367.71	228.90
368.09	229.00
368.47	228.98
368.85	229.05
369.23	229.15
369.61	228.98
369.99	229.06
370.37	229.12
370.75	229.32
371.13	229.23
371.51	229.21
371.89	229.21
372.27	229.19
372.65	229.23
373.03	229.15
373.41	229.06
373.78	228.95
374.16	228.62
374.54	228.39
374.92	228.32
375.30	228.20
375.68	228.00
376.06	227.89
376.44	227.75
376.82	227.78
377.19	227.75
377.57	227.71
377.95	227.58
378.33	227.48
378.71	227.09
379.09	227.14
379.47	227.11
379.84	226.96
380.22	226.86
380.60	226.80
380.98	226.77
381.36	226.64
381.73	226.55
382.11	226.64
382.49	226.60
382.87	226.43
383.25	226.45
383.62	226.99
384.00	226.93
384.38	226.94
384.76	226.91
385.13	226.99
385.51	226.93
385.89	226.78
386.27	226.74
386.64	226.85
387.02	226.75
387.40	226.68
387.78	226.76
388.15	226.79
388.53	226.65
388.91	226.57
389.29	226.46
389.66	226.57
390.04	226.46
390.42	226.50
390.79	226.53
391.17	226.48
391.55	225.88
391.92	225.83
392.30	225.91
392.68	225.80
393.05	225.75
393.43	225.80
393.81	225.89
394.18	225.79
394.56	225.77
394.94	225.92
395.31	225.98
395.69	226.17
396.06	226.27
396.44	226.38
396.82	226.41
397.19	226.80
397.57	226.71
397.95	226.82
398.32	226.80
398.70	226.96
399.07	227.06
399.45	227.17
399.82	227.20
400.20	227.23
400.58	227.34
400.95	227.25
401.33	227.40
401.70	227.82
402.08	228.04
402.45	228.20
402.83	228.34
403.20	228.49
403.58	228.46
403.95	228.67
404.33	228.90
404.71	229.09
405.08	229.52
405.46	229.77
405.83	230.00
406.21	230.24
406.58	230.50
406.96	230.84
407.33	231.23
407.70	231.72
408.08	232.50
408.45	232.86
408.83	233.36
409.20	233.77
409.58	233.94
409.95	234.42
410.33	234.94
410.70	235.39
411.08	236.00
411.45	236.70
411.82	237.24
412.20	238.04
412.57	239.10
412.95	239.48
413.32	240.29
413.69	241.19
414.07	242.06
414.44	243.01
414.82	244.05
415.19	245.17
415.56	246.33
415.94	247.22
416.31	248.73
416.68	250.19
417.06	251.70
417.43	253.37
417.81	255.10
418.18	256.92
418.55	258.89
418.93	260.98
419.30	263.04
419.67	265.29
420.04	267.48
420.42	269.72
420.79	272.72
421.16	275.55
421.54	278.71
421.91	281.77
422.28	284.83
422.66	288.02
423.03	291.50
423.40	294.82
423.77	298.35
424.15	301.93
424.52	305.71
424.89	310.01
425.26	313.90
425.64	317.68
426.01	321.77
426.38	326.12
426.75	330.56
427.13	335.14
427.50	339.79
427.87	344.68
428.24	349.58
428.61	354.06
428.99	359.37
429.36	364.71
429.73	370.16
430.10	375.68
430.47	381.35
430.85	386.96
431.22	393.05
431.59	399.83
431.96	405.96
432.33	412.79
432.70	419.36
433.08	427.15
433.45	434.45
433.82	441.81
434.19	450.01
434.56	458.00
434.93	465.59
435.30	473.36
435.68	481.93
436.05	490.35
436.42	498.82
436.79	506.42
437.16	514.64
437.53	523.32
437.90	531.80
438.27	540.37
438.64	549.12
439.01	557.38
439.38	564.53
439.75	571.71
440.13	579.68
440.50	587.07
440.87	593.11
441.24	599.62
441.61	606.57
441.98	611.48
442.35	617.36
442.72	623.33
443.09	629.02
443.46	632.43
443.83	634.69
444.20	636.47
444.57	639.07
444.94	640.11
445.31	641.26
445.68	642.85
446.05	643.03
446.42	641.82
446.79	640.44
447.16	638.80
447.53	637.35
447.90	633.87
448.27	630.34
448.64	625.46
449.01	621.64
449.37	615.53
449.74	609.49
450.11	602.55
450.48	594.77
450.85	586.88
451.22	579.99
451.59	573.42
451.96	567.11
452.33	559.05
452.70	551.73
453.07	543.13
453.43	533.97
453.80	525.52
454.17	517.55
454.54	509.78
454.91	501.59
455.28	493.80
455.65	486.20
456.02	479.30
456.38	473.05
456.75	465.50
457.12	459.06
457.49	452.88
457.86	446.56
458.23	441.47
458.59	435.84
458.96	430.16
459.33	425.15
459.70	420.18
460.07	416.18
460.43	411.67
460.80	407.42
461.17	403.69
461.54	399.70
461.91	395.88
462.27	392.06
462.64	388.83
463.01	385.30
463.38	382.07
463.74	378.06
464.11	375.09
464.48	372.40
464.85	369.53
465.21	367.35
465.58	365.10
465.95	362.36
466.32	360.14
466.68	357.91
467.05	355.65
467.42	353.52
467.78	351.25
468.15	349.04
468.52	347.37
468.88	345.22
469.25	343.37
469.62	341.92
469.98	340.35
470.35	338.97
470.72	337.56
471.08	335.87
471.45	334.77
471.82	333.49
472.18	332.09
472.55	331.14
472.92	329.92
473.28	328.80
473.65	327.68
474.02	326.63
474.38	325.74
474.75	324.98
475.11	324.04
475.48	323.42
475.85	322.83
476.21	322.23
476.58	321.76
476.94	321.36
477.31	320.86
477.67	320.43
478.04	320.11
478.41	319.84
478.77	320.10
479.14	319.77
479.50	319.69
479.87	319.70
480.23	319.63
480.60	319.54
480.96	319.55
481.33	319.97
481.69	320.13
482.06	320.37
482.42	320.63
482.79	320.94
483.15	321.39
483.52	321.96
483.88	322.45
484.25	323.01
484.61	323.66
484.98	324.34
485.34	325.33
485.71	326.20
486.07	327.23
486.44	327.76
486.80	328.77
487.17	329.90
487.53	331.20
487.90	332.63
488.26	334.36
488.62	336.00
488.99	337.48
489.35	339.26
489.72	341.16
490.08	343.06
490.44	345.15
490.81	347.38
491.17	349.56
491.54	351.98
491.90	354.54
492.26	357.15
492.63	360.05
492.99	362.91
493.36	365.97
493.72	369.31
494.08	372.82
494.45	376.57
494.81	380.46
495.17	384.35
495.54	388.57
495.90	392.73
496.26	397.22
496.63	401.86
496.99	406.60
497.35	411.63
497.72	417.06
498.08	422.48
498.44	428.01
498.80	434.12
499.17	440.16
499.53	446.31
499.89	453.09
500.26	459.79
500.62	466.71
500.98	474.04
501.34	481.30
501.71	488.94
502.07	496.72
502.43	504.73
502.79	512.96
503.16	521.45
503.52	530.43
503.88	539.63
504.24	549.23
504.60	559.36
504.97	569.65
505.33	580.00
505.69	591.20
506.05	602.23
506.41	613.38
506.78	625.14
507.14	637.35
507.50	649.45
507.86	661.98
508.22	675.07
508.59	688.11
508.95	701.75
509.31	715.91
509.67	730.26
510.03	744.48
510.39	759.27
510.75	774.41
511.12	789.40
511.48	804.97
511.84	820.56
512.20	836.21
512.56	852.65
512.92	869.35
513.28	885.98
513.64	903.22
514.00	920.70
514.37	938.22
514.73	956.21
515.09	974.40
515.45	992.92
515.81	1011.20
516.17	1030.00
516.53	1048.76
516.89	1067.41
517.25	1086.54
517.61	1106.78
517.97	1126.99
518.33	1146.86
518.69	1167.17
519.05	1187.56
519.41	1208.22
519.77	1229.37
520.13	1249.65
520.49	1270.24
520.85	1292.25
521.21	1313.20
521.57	1334.37
521.93	1355.10
522.29	1376.38
522.65	1397.13
523.01	1418.01
523.37	1438.79
523.73	1459.77
524.09	1480.18
524.45	1500.57
524.81	1521.32
525.17	1541.96
525.53	1562.33
525.89	1583.16
526.25	1603.92
526.61	1624.20
526.97	1645.26
527.33	1666.39
527.68	1688.12
528.04	1709.35
528.40	1728.99
528.76	1749.97
529.12	1770.42
529.48	1791.31
529.84	1810.93
530.20	1831.74
530.56	1852.07
530.91	1872.69
531.27	1893.02
531.63	1913.57
531.99	1934.45
532.35	1954.45
532.71	1974.34
533.07	1995.06
533.42	2014.92
533.78	2034.56
534.14	2054.60
534.50	2073.40
534.86	2092.31
535.21	2110.11
535.57	2128.29
535.93	2145.75
536.29	2163.36
536.65	2181.32
537.00	2198.69
537.36	2216.30
537.72	2232.75
538.08	2249.92
538.44	2266.40
538.79	2282.36
539.15	2298.74
539.51	2314.19
539.87	2329.22
540.22	2342.98
540.58	2356.95
540.94	2370.06
541.29	2382.86
541.65	2394.89
542.01	2407.65
542.37	2418.03
542.72	2428.45
543.08	2438.84
543.44	2450.57
543.79	2460.44
544.15	2469.99
544.51	2479.83
544.87	2489.16
545.22	2497.80
545.58	2505.09
545.94	2512.22
546.29	2518.88
546.65	2524.94
547.01	2530.64
547.36	2536.00
547.72	2541.83
548.07	2545.45
548.43	2550.29
548.79	2554.97
549.14	2559.02
549.50	2562.13
549.86	2566.21
550.21	2570.12
550.57	2573.66
550.92	2574.92
551.28	2576.09
551.64	2578.27
551.99	2580.22
552.35	2581.93
552.70	2583.97
553.06	2585.83
553.41	2587.05
553.77	2588.34
554.13	2589.96
554.48	2591.33
554.84	2592.74
555.19	2593.67
555.55	2595.53
555.90	2594.81
556.26	2593.45
556.61	2592.08
556.97	2590.03
557.32	2589.06
557.68	2587.91
558.03	2586.24
558.39	2584.91
558.74	2584.29
559.10	2580.93
559.45	2576.84
559.81	2571.95
560.16	2566.68
560.52	2561.39
560.87	2556.95
561.23	2551.59
561.58	2545.61
561.94	2538.90
562.29	2531.35
562.64	2524.26
563.00	2515.86
563.35	2509.61
563.71	2503.02
564.06	2496.66
564.42	2490.20
564.77	2483.48
565.12	2475.88
565.48	2468.30
565.83	2460.18
566.19	2451.69
566.54	2444.23
566.89	2436.62
567.25	2429.22
567.60	2422.11
567.96	2414.97
568.31	2406.91
568.66	2398.63
569.02	2389.73
569.37	2381.51
569.72	2374.17
570.08	2364.66
570.43	2355.63
570.78	2346.10
571.14	2337.01
571.49	2326.87
571.84	2317.41
572.20	2306.77
572.55	2296.52
572.90	2285.54
573.26	2275.30
573.61	2264.65
573.96	2253.38
574.31	2241.29
574.67	2229.42
575.02	2216.49
575.37	2203.66
575.72	2190.48
576.08	2178.22
576.43	2165.45
576.78	2152.18
577.13	2138.58
577.49	2126.21
577.84	2114.20
578.19	2102.35
578.54	2089.69
578.90	2077.72
579.25	2065.50
579.60	2052.79
579.95	2039.95
580.30	2026.99
580.66	2013.54
581.01	1999.95
581.36	1985.94
581.71	1973.44
582.06	1960.50
582.42	1948.23
582.77	1935.78
583.12	1923.99
583.47	1911.97
583.82	1900.17
584.17	1888.13
584.53	1876.40
584.88	1863.59
585.23	1850.32
585.58	1836.41
585.93	1823.21
586.28	1809.99
586.63	1796.13
586.98	1782.06
587.34	1768.79
587.69	1755.75
588.04	1743.46
588.39	1731.50
588.74	1719.48
589.09	1707.32
589.44	1694.54
589.79	1682.54
590.14	1670.84
590.49	1658.59
590.84	1646.45
591.19	1634.63
591.54	1622.69
591.89	1610.50
592.25	1600.33
592.60	1589.00
592.95	1577.55
593.30	1565.75
593.65	1553.66
594.00	1541.62
594.35	1531.84
594.70	1520.28
595.05	1508.85
595.40	1496.91
595.75	1485.13
596.10	1473.82
596.45	1462.57
596.80	1452.06
597.15	1440.80
597.50	1428.97
597.85	1417.88
598.19	1406.10
598.54	1394.53
598.89	1383.22
599.24	1372.52
599.59	1360.92
599.94	1350.25
600.29	1339.89
600.64	1329.69
600.99	1319.33
601.34	1309.84
601.69	1298.89
602.04	1289.15
602.39	1279.43
602.74	1270.17
603.08	1260.74
603.43	1251.62
603.78	1241.97
604.13	1232.42
604.48	1222.50
604.83	1212.80
605.18	1203.06
605.53	1193.92
605.87	1184.55
606.22	1176.12
606.57	1166.97
606.92	1157.65
607.27	1148.88
607.62	1140.42
607.96	1131.98
608.31	1124.23
608.66	1115.96
609.01	1107.30
609.36	1098.83
609.70	1090.39
610.05	1081.92
610.40	1073.57
610.75	1064.91
611.10	1056.60
611.44	1048.10
611.79	1040.10
612.14	1032.60
612.49	1024.80
612.83	1017.32
613.18	1009.71
613.53	1002.09
613.88	994.38
614.22	986.71
614.57	978.82
614.92	970.68
615.27	963.08
615.61	955.19
615.96	947.51
616.31	940.20
616.65	933.07
617.00	925.76
617.35	918.51
617.70	911.52
618.04	904.55
618.39	897.69
618.74	891.37
619.08	884.62
619.43	877.60
619.78	870.64
620.12	863.40
620.47	856.70
620.82	849.49
621.16	842.65
621.51	836.41
621.85	830.22
622.20	823.89
622.55	817.18
622.89	810.78
623.24	804.72
623.59	798.44
623.93	792.21
624.28	786.14
624.62	780.71
624.97	774.86
625.32	769.15
625.66	763.12
626.01	757.04
626.35	751.71
626.70	746.19
627.04	741.09
627.39	735.87
627.73	730.54
628.08	725.47
628.43	720.42
628.77	714.97
629.12	709.74
629.46	704.95
629.81	700.60
630.15	695.95
630.50	690.92
630.84	686.09
631.19	681.41
631.53	676.89
631.88	671.71
632.22	666.95
632.57	662.47
632.91	658.02
633.26	653.70
633.60	649.03
633.95	644.45
634.29	639.61
634.64	635.15
634.98	630.49
635.32	626.23
635.67	622.09
636.01	617.96
636.36	613.47
636.70	609.44
637.05	605.08
637.39	601.03
637.73	597.01
638.08	593.01
638.42	588.95
638.77	584.73
639.11	580.33
639.45	576.03
639.80	571.70
640.14	567.59
640.49	563.59
640.83	559.77
641.17	556.01
641.52	552.40
641.86	548.80
642.20	545.70
642.55	542.05
642.89	538.34
643.23	534.83
643.58	531.90
643.92	528.15
644.26	524.78
644.61	521.53
644.95	518.15
645.29	514.84
645.64	511.77
645.98	508.74
646.32	505.96
646.66	502.82
647.01	499.95
647.35	497.26
647.69	494.27
648.04	491.43
648.38	488.71
648.72	485.70
649.06	482.62
649.41	479.53
649.75	476.54
650.09	473.73
650.43	470.90
650.78	467.92
651.12	465.27
651.46	462.50
651.80	459.69
652.14	456.98
652.49	454.49
652.83	451.68
653.17	449.10
653.51	446.27
653.85	444.04
654.20	441.56
654.54	438.89
654.88	436.46
655.22	434.16
655.56	431.63
655.90	429.41
656.25	427.29
656.59	425.03
656.93	422.99
657.27	420.92
657.61	418.51
657.95	416.25
658.29	414.04
658.64	412.05
658.98	409.86
659.32	407.75
659.66	405.55
660.00	403.59
660.34	401.62
660.68	399.68
661.02	397.52
661.36	395.61
661.70	393.70
662.05	391.76
662.39	389.81
662.73	388.06
663.07	386.44
663.41	384.64
663.75	382.83
664.09	380.93
664.43	378.98
664.77	377.44
665.11	375.77
665.45	374.13
665.79	372.37
666.13	370.64
666.47	368.92
666.81	367.22
667.15	365.49
667.49	363.89
667.83	362.61
668.17	361.21
668.51	359.75
668.85	358.43
669.19	357.27
669.53	355.78
669.87	354.31
670.21	352.70
670.55	351.28
670.89	350.14
671.23	348.83
671.57	347.58
671.91	346.22
672.25	344.85
672.58	343.68
672.92	342.28
673.26	341.15
673.60	340.04
673.94	339.01
674.28	337.90
674.62	336.74
674.96	335.38
675.30	334.20
675.64	333.01
675.97	331.80
676.31	330.41
676.65	329.18
676.99	328.21
677.33	327.03
677.67	325.95
678.01	324.58
678.34	323.44
678.68	322.43
679.02	321.38
679.36	320.35
679.70	319.27
680.04	318.44
680.37	317.42
680.71	316.39
681.05	315.40
681.39	314.50
681.73	313.56
682.06	312.69
682.40	311.85
682.74	311.00
683.08	310.32
683.42	309.44
683.75	308.70
684.09	307.73
684.43	306.98
684.77	306.13
685.10	305.36
685.44	304.53
685.78	303.75
686.12	302.94
686.45	302.07
686.79	301.31
687.13	300.62
687.46	299.91
687.80	299.22
688.14	298.42
688.48	297.70
688.81	297.00
689.15	296.37
689.49	295.48
689.82	294.77
690.16	293.86
690.50	293.19
690.83	292.40
691.17	291.63
691.51	290.89
691.84	290.25
692.18	289.58
692.52	288.98
692.85	288.30
693.19	287.92
693.52	287.36
693.86	286.65
694.20	285.97
694.53	285.38
694.87	284.79
695.21	284.06
695.54	283.43
695.88	282.56
696.21	281.77
696.55	281.18
696.88	280.54
697.22	279.93
697.56	279.41
697.89	278.88
698.23	278.38
698.56	277.84
698.90	277.32
699.23	276.73
699.57	276.22
699.90	275.61
700.24	274.96
700.58	274.50
700.91	274.13
701.25	273.93
701.58	273.74
701.92	273.32
702.25	272.96
702.59	272.44
702.92	272.22
703.26	271.89
703.59	271.55
703.93	271.52
704.26	271.17
704.60	270.75
704.93	270.32
705.26	269.94
705.60	269.56
705.93	269.03
706.27	268.82
706.60	268.55
706.94	268.41
707.27	267.93
707.61	267.62
707.94	267.23
708.27	266.57
708.61	265.85
708.94	265.45
709.28	265.08
709.61	264.65
709.94	264.25
710.28	263.84
710.61	263.45
710.95	262.68
711.28	262.64
711.61	262.24
711.95	261.99
712.28	261.53
712.61	261.20
712.95	261.15
713.28	260.90
713.61	260.49
713.95	259.96
714.28	259.70
714.61	259.29
714.95	258.85
715.28	258.40
715.61	258.11
715.95	257.87
716.28	257.51
716.61	257.34
716.95	256.93
717.28	256.59
717.61	256.39
717.94	256.12
718.28	255.47
718.61	255.23
718.94	254.90
719.27	254.67
719.61	254.45
719.94	254.10
720.27	253.60
720.60	253.32
720.94	253.09
721.27	252.83
721.60	252.63
721.93	252.50
722.27	252.41
722.60	252.20
722.93	251.93
723.26	251.84
723.59	251.54
723.93	251.47
724.26	251.33
724.59	251.02
724.92	250.77
725.25	250.65
725.59	250.39
725.92	250.20
726.25	249.96
726.58	249.77
726.91	249.44
727.24	249.33
727.57	249.14
727.91	248.80
728.24	248.61
728.57	248.38
728.90	248.17
729.23	247.94
729.56	247.95
729.89	247.74
730.22	247.47
730.55	247.35
730.89	247.10
731.22	246.86
731.55	246.63
731.88	246.46
732.21	246.29
732.54	246.06
732.87	245.85
733.20	245.72
733.53	245.55
733.86	245.51
734.19	245.30
734.52	245.18
734.85	245.49
735.18	245.26
735.51	245.23
735.84	245.14
736.17	245.03
736.50	244.69
736.83	245.06
737.16	244.94
737.49	244.76
737.82	244.62
738.15	244.55
738.48	244.47
738.81	244.36
739.14	244.12
739.47	243.98
739.80	243.85
740.13	243.73
740.46	243.51
740.79	243.17
741.12	243.01
741.45	242.79
741.78	242.30
742.11	242.37
742.44	242.10
742.77	242.00
743.10	241.76
743.43	241.50
743.75	240.86
744.08	241.30
744.41	241.12
744.74	240.97
745.07	240.75
745.40	240.63
745.73	240.68
746.06	240.58
746.39	240.51
746.71	240.32
747.04	240.14
747.37	239.97
747.70	240.00
748.03	239.85
748.36	239.83
748.68	239.68
749.01	239.36
749.34	239.24
749.67	239.13
750.00	239.15
750.33	239.50
750.65	239.48
750.98	238.73
751.31	238.62
751.64	238.55
751.97	238.60
752.29	238.43
752.62	238.08
752.95	237.89
753.28	237.73
753.60	237.57
753.93	237.63
754.26	237.59
754.59	237.36
754.91	237.26
755.24	237.03
755.57	236.90
755.90	236.82
756.22	236.71
756.55	236.54
756.88	236.28
757.20	235.83
757.53	235.55
757.86	235.51
758.19	235.46
758.51	235.36
758.84	235.15
759.17	235.00
759.49	234.91
759.82	235.06
760.15	234.93
760.47	234.91
760.80	234.61
761.13	234.61
761.45	234.45
761.78	234.30
762.11	234.21
762.43	234.11
762.76	234.01
763.08	233.98
763.41	233.94
763.74	233.86
764.06	233.70
764.39	233.67
764.71	233.47
765.04	233.32
765.37	233.18
765.69	233.11
766.02	233.09
766.34	232.96
766.67	232.69
767.00	232.79
767.32	232.89
767.65	233.09
767.97	232.95
768.30	232.96
768.62	232.94
768.95	232.92
769.27	232.91
769.60	232.93
769.92	232.80
770.25	232.57
770.57	232.43
770.90	232.40
771.22	232.26
771.55	232.33
771.87	232.31
772.20	232.27
772.52	232.55
772.85	233.10
773.17	233.09
773.50	233.03
773.82	232.89
774.15	232.61
774.47	232.30
774.80	232.19
775.12	232.18
775.45	232.14
775.77	232.04
776.09	231.99
776.42	231.92
776.74	231.93
777.07	231.89
777.39	231.93
777.72	231.83
778.04	231.90
778.36	231.78
778.69	231.83
779.01	231.82
779.33	231.43
779.66	230.82
779.98	230.78
780.31	230.83
780.63	231.00
780.95	231.14
781.28	231.16
781.60	231.09
781.92	231.08
782.25	231.03
782.57	231.12
782.89	231.00
783.22	231.01
783.54	230.95
783.86	230.95
784.19	230.94
784.51	231.08
784.83	230.98
785.16	230.95
785.48	230.84
785.80	230.85
786.12	230.84
786.45	230.85
786.77	230.92
787.09	230.72
787.42	230.51
787.74	230.46
788.06	230.48
788.38	230.54
788.71	230.42
789.03	230.46
789.35	230.40
789.67	230.40
789.99	230.37
790.32	230.31
790.64	230.40
790.96	230.70
791.28	230.53
791.61	230.40
791.93	230.45
792.25	230.41
792.57	230.65
792.89	230.52
793.21	230.48
793.54	230.41
793.86	230.39
794.18	230.32
794.50	230.20
794.82	230.12
795.14	230.09
795.47	230.15
795.79	230.08
796.11	229.92
796.43	229.86
796.75	229.78
797.07	229.76
797.39	229.62
797.71	229.28
798.04	229.29
798.36	229.33
798.68	229.24
799.00	229.22
799.32	228.93
799.64	229.04
799.96	228.94
800.28	228.89
800.60	228.92
800.92	228.97
801.24	228.95
801.56	228.94
801.89	228.90
802.21	228.96
802.53	228.82
802.85	228.93
803.17	229.07
803.49	229.01
803.81	229.01
804.13	228.97
804.45	228.95
804.77	228.97
805.09	228.97
805.41	228.90
805.73	228.81
806.05	228.65
806.37	228.55
806.69	228.50
807.01	228.48
807.33	228.50
807.65	228.33
807.97	228.51
808.28	228.51
808.60	228.45
808.92	228.35
809.24	228.65
809.56	228.56
809.88	228.51
810.20	228.46
810.52	228.49
810.84	228.45
811.16	228.34
811.48	228.28
811.80	228.44
812.12	228.48
812.43	228.60
812.75	228.65
813.07	228.58
813.39	228.60
813.71	228.52
814.03	228.44
814.35	228.47
814.67	228.29
814.98	228.16
815.30	228.19
815.62	228.11
815.94	227.81
816.26	228.02
816.58	227.84
816.89	227.91
817.21	227.79
817.53	227.80
817.85	227.85
818.17	227.76
818.48	227.63
818.80	227.65
819.12	227.53
819.44	227.43
819.76	227.42
820.07	227.45
820.39	227.44
820.71	227.45
821.03	227.45
821.34	227.38
821.66	227.51
821.98	227.59
822.30	227.59
822.61	227.88
822.93	227.69
823.25	227.71
823.57	227.62
823.88	227.71
824.20	227.72
824.52	227.81
824.83	227.85
825.15	227.76
825.47	227.75
825.79	227.83
826.10	227.84
826.42	227.83
826.74	227.85
827.05	227.86
827.37	227.93
827.69	227.88
828.00	227.93
828.32	227.94
828.64	227.89
828.95	228.11
829.27	227.97
829.58	227.91
829.90	227.93
830.22	228.03
830.53	227.91
830.85	227.86
831.17	227.70
831.48	227.71
831.80	227.71
832.11	227.72
832.43	227.58
832.75	227.63
833.06	227.90
833.38	227.74
833.69	227.76
834.01	227.71
834.32	227.76
834.64	227.73
834.96	227.66
835.27	227.59
835.59	227.43
835.90	227.38
836.22	227.40
836.53	227.26
836.85	227.12
837.16	227.55
837.48	227.56
837.79	227.71
838.11	227.67
838.42	227.67
838.74	227.64
839.05	227.53
839.37	227.42
839.68	227.05
840.00	227.09
840.31	227.10
840.63	227.04
840.94	226.92
841.26	226.85
841.57	226.82
841.88	226.88
842.20	226.85
842.51	226.73
842.83	226.71
843.14	227.25
843.46	227.29
843.77	227.04
844.08	227.00
844.40	226.79
844.71	226.66
845.03	226.57
845.34	226.55
845.65	226.63
845.97	226.65
846.28	226.75
846.60	226.73
846.91	226.62
847.22	226.58
847.54	226.71
847.85	226.71
848.16	226.66
848.48	226.52
848.79	226.62
849.10	226.64
849.42	226.72
849.73	226.29
850.04	226.30
850.36	226.07
850.67	226.16
850.98	226.20
851.30	226.28
851.61	226.28
851.92	226.20
852.23	226.35
852.55	226.37
852.86	226.38
853.17	226.44
853.49	226.57
853.80	226.65
854.11	226.68
854.42	226.73
854.74	226.68
855.05	226.78
855.36	226.56
855.67	226.62
855.99	226.54
856.30	227.11
856.61	227.12
856.92	227.23
857.23	227.20
857.55	227.14
857.86	227.12
858.17	227.25
858.48	227.23
858.79	227.15
859.11	227.25
859.42	227.24
859.73	227.18
860.04	227.14
860.35	227.02
860.66	226.93
860.98	226.90
861.29	226.98
861.60	226.86
861.91	226.97
862.22	226.95
862.53	226.93
862.84	226.34
863.16	226.47
863.47	226.38
863.78	226.36
864.09	226.46
864.40	226.56
864.71	226.57
865.02	226.70
865.33	226.64
865.64	226.53
865.95	226.58
866.27	226.91
866.58	226.94
866.89	227.08
867.20	227.05
867.51	227.00
867.82	226.93
868.13	227.17
868.44	227.07
868.75	227.12
869.06	227.13
869.37	227.23
869.68	227.06
869.99	227.22
870.30	227.28
870.61	227.29
870.92	227.19
871.23	227.13
871.54	227.20
871.85	227.36
872.16	227.45
872.47	227.30
872.78	227.05
873.09	227.05
873.40	227.02
873.71	227.06
874.02	227.04
874.33	227.07
874.64	226.92
874.95	227.02
875.26	226.94
875.56	226.95
875.87	226.83
876.18	226.84
876.49	227.23
876.80	227.10
877.11	227.05
877.42	227.10
877.73	227.09
878.04	226.99
878.35	226.96
878.66	226.92
878.96	226.96
879.27	226.89
879.58	226.92
879.89	226.79
880.20	226.87
880.51	226.86
880.82	226.87
881.12	226.85
881.43	226.84
881.74	226.76
882.05	226.72
882.36	226.74
882.67	226.77
882.97	226.24
883.28	226.30
883.59	226.29
883.90	226.25
884.21	226.29
884.51	226.29
884.82	226.20
885.13	226.25
885.44	226.18
885.74	226.22
886.05	226.13
886.36	226.17
886.67	226.02
886.98	226.27
887.28	226.25
887.59	226.28
887.90	226.24
888.20	226.20
888.51	226.28
888.82	226.25
889.13	226.26
889.43	226.65
889.74	226.62
890.05	226.60
890.35	226.62
890.66	226.56
890.97	226.59
891.28	226.54
891.58	226.51
891.89	226.56
892.20	226.46
892.50	226.42
892.81	226.45
893.12	226.40
893.42	226.24
893.73	226.24
894.04	226.25
894.34	226.26
894.65	226.32
894.95	226.27
895.26	226.33
895.57	226.58
895.87	226.18
896.18	226.23
896.48	226.30
896.79	226.34
897.10	226.37
897.40	226.35
897.71	226.41
898.01	226.39
898.32	226.50
898.63	226.52
898.93	226.55
899.24	226.50
899.54	226.56
899.85	226.54
900.15	226.55
900.46	226.53
900.76	226.51
901.07	226.53
901.38	226.49
901.68	226.55
901.99	226.27
902.29	226.27
902.60	226.25
902.90	226.18
903.21	226.14
903.51	226.12
903.82	226.17
904.12	226.17
904.43	226.23
904.73	226.19
905.03	226.24
905.34	226.72
905.64	226.79
905.95	226.76
906.25	226.77
906.56	226.76
906.86	226.78
907.17	226.82
907.47	226.80
907.77	226.85
908.08	226.71
908.38	226.80
908.69	226.77
908.99	226.81
909.30	226.88
909.60	226.89
909.90	226.94
910.21	226.77
910.51	226.68
910.81	226.67
911.12	226.70
911.42	226.69
911.73	226.15
912.03	226.14
912.33	226.29
912.64	226.23
912.94	226.16
913.24	226.06
913.55	225.94
913.85	225.94
914.15	225.96
914.46	225.97
914.76	225.86
915.06	225.95
915.37	225.90
915.67	225.82
915.97	225.71
916.27	225.62
916.58	225.68
916.88	225.61
917.18	225.47
917.49	225.74
917.79	225.71
918.09	225.75
918.39	225.87
918.70	225.79
919.00	225.85
919.30	226.09
919.60	226.11
919.91	226.15
920.21	226.18
920.51	226.10
920.81	226.10
921.12	226.19
921.42	226.15
921.72	226.18
922.02	226.18
922.32	226.34
922.63	226.34
922.93	226.59
923.23	226.68
923.53	226.70
923.83	226.40
924.13	226.48
924.44	226.49
924.74	226.58
925.04	226.65
925.34	226.54
925.64	226.35
925.94	226.32
926.24	226.59
926.55	226.47
926.85	226.53
927.15	226.59
927.45	226.53
927.75	226.49
928.05	226.44
928.35	226.41
928.65	226.46
928.95	226.49
929.26	226.30
929.56	226.39
929.86	226.44
930.16	226.45
930.46	226.42
930.76	226.52
931.06	226.24
931.36	226.12
931.66	226.28
931.96	226.37
932.26	226.38
932.56	226.16
932.86	226.28
933.16	226.27
933.46	226.19
933.76	226.16
934.06	226.25
934.36	226.44
934.66	226.47
934.96	226.39
935.26	226.40
935.56	226.44
935.86	226.30
936.16	226.28
936.46	226.21
936.76	226.18
937.06	226.06
937.36	226.13
937.66	226.17
937.96	226.11
938.26	226.01
938.56	225.97
938.86	225.99
939.16	226.06
939.46	226.13
939.76	226.19
940.06	226.18
940.35	226.13
940.65	225.94
940.95	226.00
941.25	225.91
941.55	225.85
941.85	225.79
942.15	225.95
942.45	226.12
942.75	226.10
943.04	226.13
943.34	226.22
943.64	226.18
943.94	226.06
944.24	226.09
944.54	226.14
944.84	226.15
945.13	226.04
945.43	225.94
945.73	225.89
946.03	225.81
946.33	225.74
946.62	225.66
946.92	225.62
947.22	225.70
947.52	225.68
947.82	225.77
948.11	225.80
948.41	225.65
948.71	225.45
949.01	225.51
949.31	225.46
949.60	225.39
949.90	225.45
950.20	225.50
950.50	225.50
950.79	225.49
951.09	225.60
951.39	225.68
951.69	225.64
951.98	225.74
952.28	225.80
952.58	225.80
952.87	225.85
953.17	225.93
953.47	225.80
953.76	225.83
954.06	225.75
954.36	225.64
954.66	225.68
954.95	225.76
955.25	225.72
955.55	225.76
955.84	225.84
956.14	225.91
956.44	225.92
956.73	225.83
957.03	225.82
957.32	225.75
957.62	225.74
957.92	225.88
958.21	225.84
958.51	226.29
958.81	226.39
959.10	226.41
959.40	226.50
959.69	226.51
959.99	226.60
960.29	226.60
960.58	226.62
960.88	226.76
961.17	226.78
961.47	226.88
961.76	226.85
962.06	226.84
962.36	226.78
962.65	226.82
962.95	226.87
963.24	226.85
963.54	226.91
963.83	226.99
964.13	226.89
964.42	226.76
964.72	226.44
965.01	226.47
965.31	226.46
965.60	226.30
965.90	226.61
966.19	226.52
966.49	226.60
966.78	226.57
967.08	226.51
967.37	226.54
967.67	226.48
967.96	226.54
968.26	226.46
968.55	226.45
968.85	226.39
969.14	226.30
969.43	226.31
969.73	226.25
970.02	226.20
970.32	226.26
970.61	226.30
970.91	226.19
971.20	226.09
971.49	226.08
971.79	226.16
972.08	225.86
972.38	225.93
972.67	225.86
972.96	225.95
973.26	225.86
973.55	225.98
973.85	225.87
974.14	225.82
974.43	225.93
974.73	225.95
975.02	225.95
975.31	226.09
975.61	226.10
975.90	226.02
976.19	225.92
976.49	225.95
976.78	226.00
977.07	225.94
977.37	226.03
977.66	226.10
977.95	226.07
978.24	226.03
978.54	226.08
978.83	226.02
979.12	225.96
979.42	225.96
979.71	225.82
980.00	225.88
980.29	225.90
980.59	225.84
980.88	225.91
981.17	225.94
981.46	225.88
981.76	225.87
982.05	226.06
982.34	226.10
982.63	226.10
982.93	226.02
983.22	226.12
983.51	226.10
983.80	226.10
984.09	226.18
984.39	226.22
984.68	226.18
984.97	226.18
985.26	226.18
985.55	226.22
985.85	226.15
986.14	226.20
986.43	226.21
986.72	226.14
987.01	225.92
987.30	225.85
987.59	225.79
987.89	225.77
988.18	225.62
988.47	225.59
988.76	225.51
989.05	225.44
989.34	225.43
989.63	225.58
989.92	225.54
990.22	225.42
990.51	225.37
990.80	225.30
991.09	225.42
991.38	225.44
991.67	225.40
991.96	225.36
992.25	225.41
992.54	225.39
992.83	225.45
993.12	225.53
993.41	225.67
993.70	225.85
993.99	225.95
994.28	226.04
994.58	226.14
994.87	226.13
995.16	226.22
995.45	226.10
995.74	225.91
996.03	225.95
996.32	226.05
996.61	226.15
996.90	226.11
997.19	225.99
997.48	226.06
997.77	226.01
998.06	226.08
998.34	225.98
998.63	225.96
998.92	225.96
999.21	226.03
999.50	225.95
999.79	225.80
1000.08	225.79
1000.37	225.75
1000.66	225.67
1000.95	225.80
1001.24	225.81
1001.53	225.90
1001.82	225.84
1002.11	225.71
1002.40	225.76
1002.68	225.90
1002.97	226.35
1003.26	226.35
1003.55	226.31
1003.84	226.37
1004.13	226.58
1004.42	226.62
1004.71	226.60
1004.99	226.55
1005.28	226.67
1005.57	226.65
1005.86	226.61
1006.15	226.54
1006.44	226.53
1006.72	226.57
1007.01	226.44
1007.30	226.45
1007.59	226.44
1007.88	226.51
1008.17	226.56
1008.45	226.48
1008.74	226.26
1009.03	225.94
1009.32	226.03
1009.60	225.98
1009.89	225.91
1010.18	225.62
1010.47	225.53
1010.76	225.57
1011.04	225.57
1011.33	225.47
1011.62	225.53
1011.91	225.54
1012.19	225.60
1012.48	225.59
1012.77	225.60
1013.05	225.83
1013.34	225.80
1013.63	225.71
1013.92	225.76
1014.20	225.75
1014.49	225.77
1014.78	225.81
1015.06	225.70
1015.35	225.61
1015.64	225.65
1015.92	225.77
1016.21	225.84
1016.50	225.87
1016.78	225.89
1017.07	225.93
1017.36	225.89
1017.64	225.79
1017.93	225.86
1018.22	225.84
1018.50	225.83
1018.79	225.79
1019.08	225.61
1019.36	225.67
1019.65	225.65
1019.93	225.79
1020.22	225.80
1020.51	226.02
1020.79	225.97
1021.08	226.15
1021.36	225.20
1021.65	225.40
1021.94	226.25
1022.22	226.55
1022.51	224.25
1022.79	229.35
1023.08	225.20
1023.36	231.45
1023.65	224.80
>>>>>End Processed Spectral Data<<<<<
