SpectraSuite Data File
++++++++++++++++++++++++++++++++++++
Date: Wed Sep 04 17:45:54 EDT 2013
User: lab3
Dark Spectrum Present: Yes
Reference Spectrum Present: No
Number of Sampled Component Spectra: 1
Spectrometers: USB2E7196
Integration Time (usec): 170000 (USB2E7196)
Spectra Averaged: 20 (USB2E7196)
Boxcar Smoothing: 10 (USB2E7196)
Correct for Electrical Dark: No (USB2E7196)
Strobe/Lamp Enabled: No (USB2E7196)
Correct for Detector Non-linearity: No (USB2E7196)
Correct for Stray Light: No (USB2E7196)
Number of Pixels in Processed Spectrum: 2048
>>>>>Begin Processed Spectral Data<<<<<
339.09	0.00
339.48	211.85
339.86	214.55
340.24	215.55
340.63	217.65
341.01	225.70
341.39	220.40
341.78	222.15
342.16	223.40
342.54	222.60
342.93	212.00
343.31	222.61
343.69	223.23
344.07	223.71
344.46	224.17
344.84	224.55
345.22	224.54
345.60	224.83
345.99	224.97
346.37	225.09
346.75	225.21
347.13	225.21
347.52	225.30
347.90	225.48
348.28	225.46
348.66	225.59
349.05	225.46
349.43	225.53
349.81	225.68
350.19	225.71
350.57	225.83
350.96	225.90
351.34	226.03
351.72	226.09
352.10	226.16
352.48	226.24
352.87	226.23
353.25	226.23
353.63	226.22
354.01	226.29
354.39	226.36
354.77	226.43
355.15	226.67
355.54	226.66
355.92	226.58
356.30	226.62
356.68	227.01
357.06	227.07
357.44	227.09
357.82	227.05
358.20	227.51
358.58	227.53
358.97	227.69
359.35	227.87
359.73	228.02
360.11	228.08
360.49	228.13
360.87	228.21
361.25	228.33
361.63	228.55
362.01	228.64
362.39	228.67
362.77	228.76
363.15	228.74
363.53	228.78
363.91	228.84
364.29	228.89
364.67	228.44
365.05	228.49
365.43	228.59
365.81	228.68
366.19	228.50
366.57	228.69
366.95	228.70
367.33	228.60
367.71	228.58
368.09	228.67
368.47	228.60
368.85	228.58
369.23	228.67
369.61	228.47
369.99	228.55
370.37	228.58
370.75	228.76
371.13	228.72
371.51	228.68
371.89	228.69
372.27	228.67
372.65	228.72
373.03	228.72
373.41	228.61
373.78	228.55
374.16	228.30
374.54	228.06
374.92	227.92
375.30	227.92
375.68	227.75
376.06	227.73
376.44	227.71
376.82	227.70
377.19	227.57
377.57	227.50
377.95	227.28
378.33	227.22
378.71	226.86
379.09	226.88
379.47	226.80
379.84	226.75
380.22	226.62
380.60	226.46
380.98	226.39
381.36	226.33
381.73	226.19
382.11	226.21
382.49	226.21
382.87	226.12
383.25	226.08
383.62	226.59
384.00	226.43
384.38	226.40
384.76	226.43
385.13	226.66
385.51	226.59
385.89	226.54
386.27	226.50
386.64	226.54
387.02	226.37
387.40	226.37
387.78	226.35
388.15	226.39
388.53	226.34
388.91	226.37
389.29	226.29
389.66	226.40
390.04	226.30
390.42	226.36
390.79	226.36
391.17	226.33
391.55	225.83
391.92	225.84
392.30	225.88
392.68	225.77
393.05	225.63
393.43	225.74
393.81	225.77
394.18	225.70
394.56	225.71
394.94	225.90
395.31	225.88
395.69	225.99
396.06	226.07
396.44	226.16
396.82	226.07
397.19	226.42
397.57	226.43
397.95	226.59
398.32	226.47
398.70	226.63
399.07	226.82
399.45	226.90
399.82	227.00
400.20	227.03
400.58	227.08
400.95	227.01
401.33	227.20
401.70	227.68
402.08	227.83
402.45	228.05
402.83	228.23
403.20	228.44
403.58	228.50
403.95	228.72
404.33	228.92
404.71	229.17
405.08	229.61
405.46	229.86
405.83	230.10
406.21	230.43
406.58	230.69
406.96	230.88
407.33	231.22
407.70	231.59
408.08	232.30
408.45	232.75
408.83	233.27
409.20	233.61
409.58	233.74
409.95	234.33
410.33	234.81
410.70	235.12
411.08	235.70
411.45	236.29
411.82	236.81
412.20	237.60
412.57	238.53
412.95	238.82
413.32	239.62
413.69	240.46
414.07	241.32
414.44	242.27
414.82	243.28
415.19	244.47
415.56	245.65
415.94	246.64
416.31	248.08
416.68	249.44
417.06	250.98
417.43	252.56
417.81	254.07
418.18	255.82
418.55	257.79
418.93	259.79
419.30	261.85
419.67	264.08
420.04	266.24
420.42	268.49
420.79	271.53
421.16	274.25
421.54	277.21
421.91	280.08
422.28	283.00
422.66	286.21
423.03	289.53
423.40	292.67
423.77	296.23
424.15	299.73
424.52	303.43
424.89	307.59
425.26	311.51
425.64	315.38
426.01	319.45
426.38	323.74
426.75	328.18
427.13	332.65
427.50	337.31
427.87	342.13
428.24	347.01
428.61	351.39
428.99	356.57
429.36	361.92
429.73	367.49
430.10	373.01
430.47	378.55
430.85	383.98
431.22	390.08
431.59	396.62
431.96	402.76
432.33	409.50
432.70	415.97
433.08	423.52
433.45	430.80
433.82	438.09
434.19	446.07
434.56	454.06
434.93	461.51
435.30	469.12
435.68	477.50
436.05	485.69
436.42	493.86
436.79	501.50
437.16	509.81
437.53	518.35
437.90	526.88
438.27	535.42
438.64	544.10
439.01	552.23
439.38	559.29
439.75	566.40
440.13	574.31
440.50	581.61
440.87	587.61
441.24	593.85
441.61	600.57
441.98	605.61
442.35	611.20
442.72	617.15
443.09	622.97
443.46	626.42
443.83	628.69
444.20	630.59
444.57	633.14
444.94	634.12
445.31	635.07
445.68	636.30
446.05	636.45
446.42	635.36
446.79	633.93
447.16	632.42
447.53	631.11
447.90	627.47
448.27	623.95
448.64	619.35
449.01	615.66
449.37	609.63
449.74	603.74
450.11	597.17
450.48	589.61
450.85	581.65
451.22	574.97
451.59	568.53
451.96	562.37
452.33	554.43
452.70	547.21
453.07	538.82
453.43	529.88
453.80	521.55
454.17	513.69
454.54	506.24
454.91	498.27
455.28	490.39
455.65	483.15
456.02	476.45
456.38	470.11
456.75	462.52
457.12	456.20
457.49	450.04
457.86	443.66
458.23	438.62
458.59	432.93
458.96	427.19
459.33	422.25
459.70	417.29
460.07	413.31
460.43	408.74
460.80	404.53
461.17	400.97
461.54	397.05
461.91	393.25
462.27	389.43
462.64	386.09
463.01	382.59
463.38	379.39
463.74	375.44
464.11	372.41
464.48	369.97
464.85	367.26
465.21	365.10
465.58	362.92
465.95	360.16
466.32	358.14
466.68	355.96
467.05	353.79
467.42	351.60
467.78	349.27
468.15	347.16
468.52	345.68
468.88	343.47
469.25	341.65
469.62	340.26
469.98	338.66
470.35	337.28
470.72	335.90
471.08	334.22
471.45	333.06
471.82	331.98
472.18	330.47
472.55	329.46
472.92	328.20
473.28	327.06
473.65	325.99
474.02	324.93
474.38	324.08
474.75	323.24
475.11	322.37
475.48	321.82
475.85	321.27
476.21	320.66
476.58	320.20
476.94	319.85
477.31	319.38
477.67	319.00
478.04	318.67
478.41	318.46
478.77	318.73
479.14	318.46
479.50	318.33
479.87	318.40
480.23	318.41
480.60	318.48
480.96	318.54
481.33	318.93
481.69	319.20
482.06	319.43
482.42	319.75
482.79	320.03
483.15	320.51
483.52	321.09
483.88	321.48
484.25	322.07
484.61	322.65
484.98	323.31
485.34	324.37
485.71	325.24
486.07	326.18
486.44	326.80
486.80	327.86
487.17	328.93
487.53	330.30
487.90	331.68
488.26	333.31
488.62	335.02
488.99	336.45
489.35	338.12
489.72	340.00
490.08	341.95
490.44	344.16
490.81	346.38
491.17	348.58
491.54	351.13
491.90	353.74
492.26	356.48
492.63	359.35
492.99	362.06
493.36	365.13
493.72	368.44
494.08	371.79
494.45	375.57
494.81	379.47
495.17	383.28
495.54	387.44
495.90	391.66
496.26	396.03
496.63	400.71
496.99	405.36
497.35	410.40
497.72	415.72
498.08	421.06
498.44	426.70
498.80	432.59
499.17	438.49
499.53	444.59
499.89	451.25
500.26	457.90
500.62	464.84
500.98	472.18
501.34	479.54
501.71	487.21
502.07	494.81
502.43	502.78
502.79	511.12
503.16	519.74
503.52	528.55
503.88	537.50
504.24	546.86
504.60	556.97
504.97	567.07
505.33	577.36
505.69	588.23
506.05	599.09
506.41	610.33
506.78	621.98
507.14	633.81
507.50	645.82
507.86	658.39
508.22	671.28
508.59	684.22
508.95	697.71
509.31	711.73
509.67	726.06
510.03	740.13
510.39	754.50
510.75	769.25
511.12	784.26
511.48	799.97
511.84	815.62
512.20	831.20
512.56	847.28
512.92	863.71
513.28	880.29
513.64	897.11
514.00	914.12
514.37	931.55
514.73	949.46
515.09	967.45
515.45	985.44
515.81	1003.44
516.17	1021.83
516.53	1040.17
516.89	1058.49
517.25	1077.37
517.61	1097.20
517.97	1117.42
518.33	1137.04
518.69	1156.71
519.05	1176.62
519.41	1196.90
519.77	1217.72
520.13	1237.97
520.49	1258.07
520.85	1278.68
521.21	1299.52
521.57	1320.33
521.93	1340.53
522.29	1361.43
522.65	1381.73
523.01	1402.36
523.37	1422.77
523.73	1443.42
524.09	1463.53
524.45	1483.63
524.81	1503.93
525.17	1524.18
525.53	1544.05
525.89	1564.40
526.25	1585.02
526.61	1604.95
526.97	1625.59
527.33	1646.08
527.68	1667.42
528.04	1688.56
528.40	1708.76
528.76	1729.34
529.12	1749.82
529.48	1770.40
529.84	1789.73
530.20	1810.30
530.56	1830.19
530.91	1850.35
531.27	1870.06
531.63	1890.44
531.99	1910.67
532.35	1930.24
532.71	1950.20
533.07	1970.32
533.42	1989.65
533.78	2008.63
534.14	2027.90
534.50	2046.27
534.86	2065.28
535.21	2082.14
535.57	2099.94
535.93	2117.60
536.29	2134.78
536.65	2151.73
537.00	2168.89
537.36	2186.25
537.72	2201.92
538.08	2218.63
538.44	2234.82
538.79	2250.62
539.15	2266.19
539.51	2281.60
539.87	2296.31
540.22	2309.62
540.58	2323.35
540.94	2336.41
541.29	2348.84
541.65	2360.85
542.01	2372.99
542.37	2382.56
542.72	2393.21
543.08	2403.44
543.44	2414.33
543.79	2423.71
544.15	2433.19
544.51	2442.52
544.87	2451.48
545.22	2459.95
545.58	2467.21
545.94	2473.95
546.29	2480.15
546.65	2485.75
547.01	2491.20
547.36	2496.34
547.72	2501.40
548.07	2504.84
548.43	2509.41
548.79	2513.66
549.14	2517.18
549.50	2520.46
549.86	2524.20
550.21	2527.51
550.57	2530.33
550.92	2531.09
551.28	2532.05
551.64	2533.84
551.99	2534.98
552.35	2536.00
552.70	2537.79
553.06	2539.08
553.41	2539.97
553.77	2541.24
554.13	2542.41
554.48	2543.37
554.84	2543.97
555.19	2544.89
555.55	2546.30
555.90	2545.25
556.26	2544.19
556.61	2542.54
556.97	2539.83
557.32	2538.57
557.68	2537.12
558.03	2535.31
558.39	2533.52
558.74	2532.38
559.10	2528.94
559.45	2525.03
559.81	2520.36
560.16	2514.66
560.52	2509.58
560.87	2504.92
561.23	2499.27
561.58	2493.55
561.94	2486.31
562.29	2479.16
562.64	2471.68
563.00	2463.26
563.35	2456.24
563.71	2449.31
564.06	2443.11
564.42	2436.77
564.77	2429.76
565.12	2422.42
565.48	2414.52
565.83	2406.81
566.19	2398.53
566.54	2390.82
566.89	2383.16
567.25	2375.66
567.60	2368.71
567.96	2361.37
568.31	2353.39
568.66	2344.84
569.02	2335.85
569.37	2328.04
569.72	2320.53
570.08	2311.24
570.43	2302.03
570.78	2293.46
571.14	2284.24
571.49	2273.93
571.84	2264.35
572.20	2253.78
572.55	2243.42
572.90	2232.61
573.26	2222.66
573.61	2211.92
573.96	2200.86
574.31	2188.89
574.67	2177.30
575.02	2164.68
575.37	2152.01
575.72	2139.06
576.08	2127.54
576.43	2115.25
576.78	2102.01
577.13	2088.45
577.49	2076.27
577.84	2064.66
578.19	2052.84
578.54	2040.24
578.90	2028.75
579.25	2016.70
579.60	2004.65
579.95	1992.25
580.30	1979.33
580.66	1966.14
581.01	1953.05
581.36	1939.37
581.71	1927.22
582.06	1914.65
582.42	1902.76
582.77	1890.46
583.12	1878.57
583.47	1866.46
583.82	1854.92
584.17	1843.39
584.53	1831.89
584.88	1819.55
585.23	1806.47
585.58	1792.84
585.93	1780.12
586.28	1767.17
586.63	1753.80
586.98	1740.01
587.34	1726.89
587.69	1714.35
588.04	1701.94
588.39	1690.15
588.74	1678.24
589.09	1666.48
589.44	1653.81
589.79	1641.74
590.14	1630.10
590.49	1618.31
590.84	1606.55
591.19	1594.97
591.54	1583.07
591.89	1571.25
592.25	1560.93
592.60	1549.89
592.95	1538.43
593.30	1527.03
593.65	1515.33
594.00	1503.45
594.35	1494.00
594.70	1482.75
595.05	1471.85
595.40	1460.31
595.75	1448.68
596.10	1438.13
596.45	1427.03
596.80	1416.93
597.15	1405.89
597.50	1394.48
597.85	1383.79
598.19	1372.40
598.54	1360.96
598.89	1350.12
599.24	1339.85
599.59	1328.86
599.94	1318.29
600.29	1308.74
600.64	1298.94
600.99	1288.81
601.34	1280.03
601.69	1269.11
602.04	1259.40
602.39	1249.75
602.74	1240.81
603.08	1231.91
603.43	1223.06
603.78	1213.64
604.13	1204.11
604.48	1194.98
604.83	1185.69
605.18	1176.14
605.53	1167.00
605.87	1158.11
606.22	1149.78
606.57	1141.10
606.92	1131.95
607.27	1123.74
607.62	1115.15
607.96	1106.85
608.31	1098.95
608.66	1090.62
609.01	1082.47
609.36	1074.55
609.70	1066.47
610.05	1058.26
610.40	1050.13
610.75	1041.48
611.10	1033.47
611.44	1025.18
611.79	1017.38
612.14	1010.01
612.49	1002.56
612.83	995.42
613.18	988.09
613.53	980.61
613.88	972.98
614.22	965.53
614.57	957.66
614.92	949.83
615.27	942.53
615.61	935.32
615.96	928.01
616.31	920.75
616.65	913.93
617.00	907.01
617.35	900.05
617.70	893.24
618.04	886.39
618.39	879.59
618.74	873.44
619.08	866.65
619.43	859.77
619.78	852.79
620.12	845.80
620.47	839.06
620.82	832.19
621.16	825.44
621.51	819.32
621.85	813.44
622.20	807.27
622.55	800.93
622.89	794.74
623.24	788.47
623.59	782.59
623.93	776.40
624.28	770.35
624.62	765.09
624.97	759.56
625.32	754.19
625.66	748.62
626.01	742.66
626.35	737.40
626.70	732.20
627.04	727.27
627.39	722.04
627.73	716.94
628.08	712.15
628.43	706.91
628.77	701.77
629.12	696.66
629.46	692.13
629.81	687.62
630.15	682.85
630.50	678.14
630.84	673.30
631.19	668.66
631.53	664.51
631.88	659.27
632.22	654.37
632.57	649.97
632.91	645.41
633.26	641.35
633.60	636.75
633.95	632.04
634.29	627.55
634.64	623.17
634.98	618.68
635.32	614.41
635.67	610.75
636.01	606.66
636.36	602.45
636.70	598.31
637.05	594.03
637.39	590.12
637.73	586.24
638.08	582.45
638.42	578.51
638.77	574.28
639.11	570.15
639.45	566.04
639.80	561.70
640.14	557.90
640.49	553.95
640.83	550.43
641.17	547.04
641.52	543.46
641.86	540.06
642.20	536.94
642.55	533.36
642.89	529.69
643.23	526.25
643.58	523.29
643.92	519.83
644.26	516.70
644.61	513.64
644.95	510.40
645.29	507.07
645.64	504.05
645.98	500.94
646.32	498.23
646.66	495.34
647.01	492.77
647.35	490.11
647.69	487.25
648.04	484.50
648.38	481.78
648.72	479.08
649.06	476.15
649.41	473.28
649.75	470.43
650.09	467.83
650.43	465.10
650.78	462.11
651.12	459.43
651.46	456.61
651.80	453.94
652.14	451.42
652.49	448.95
652.83	446.35
653.17	444.00
653.51	441.34
653.85	439.07
654.20	436.56
654.54	433.99
654.88	431.51
655.22	429.32
655.56	426.92
655.90	424.55
656.25	422.41
656.59	420.12
656.93	418.01
657.27	415.97
657.61	413.70
657.95	411.55
658.29	409.42
658.64	407.50
658.98	405.31
659.32	403.22
659.66	401.16
660.00	399.07
660.34	396.97
660.68	395.07
661.02	393.07
661.36	391.11
661.70	389.17
662.05	387.34
662.39	385.40
662.73	383.72
663.07	382.20
663.41	380.45
663.75	378.57
664.09	376.79
664.43	374.86
664.77	373.25
665.11	371.65
665.45	370.05
665.79	368.50
666.13	366.85
666.47	365.06
666.81	363.47
667.15	361.96
667.49	360.62
667.83	359.29
668.17	357.83
668.51	356.43
668.85	355.31
669.19	354.24
669.53	352.84
669.87	351.25
670.21	349.76
670.55	348.42
670.89	347.35
671.23	346.05
671.57	344.75
671.91	343.47
672.25	342.19
672.58	341.00
672.92	339.50
673.26	338.35
673.60	337.29
673.94	336.16
674.28	335.07
674.62	333.87
674.96	332.65
675.30	331.54
675.64	330.41
675.97	329.08
676.31	327.76
676.65	326.49
676.99	325.63
677.33	324.45
677.67	323.41
678.01	322.22
678.34	321.26
678.68	320.38
679.02	319.40
679.36	318.37
679.70	317.27
680.04	316.45
680.37	315.48
680.71	314.58
681.05	313.60
681.39	312.62
681.73	311.72
682.06	310.80
682.40	309.84
682.74	309.01
683.08	308.40
683.42	307.47
683.75	306.80
684.09	305.84
684.43	305.09
684.77	304.27
685.10	303.43
685.44	302.66
685.78	301.75
686.12	300.87
686.45	300.10
686.79	299.36
687.13	298.65
687.46	297.89
687.80	297.19
688.14	296.43
688.48	295.74
688.81	295.00
689.15	294.43
689.49	293.79
689.82	293.06
690.16	292.14
690.50	291.50
690.83	290.82
691.17	290.07
691.51	289.41
691.84	288.79
692.18	288.22
692.52	287.46
692.85	286.94
693.19	286.56
693.52	285.90
693.86	285.35
694.20	284.72
694.53	284.12
694.87	283.48
695.21	282.99
695.54	282.45
695.88	281.85
696.21	280.99
696.55	280.37
696.88	279.80
697.22	279.16
697.56	278.63
697.89	277.99
698.23	277.62
698.56	277.10
698.90	276.64
699.23	276.01
699.57	275.53
699.90	274.90
700.24	274.20
700.58	273.74
700.91	273.39
701.25	273.29
701.58	273.24
701.92	272.90
702.25	272.37
702.59	271.86
702.92	271.47
703.26	271.14
703.59	270.75
703.93	270.66
704.26	270.39
704.60	270.05
704.93	269.62
705.26	269.10
705.60	268.67
705.93	268.23
706.27	268.03
706.60	267.82
706.94	267.63
707.27	267.32
707.61	267.04
707.94	266.56
708.27	265.82
708.61	265.00
708.94	264.58
709.28	264.30
709.61	263.94
709.94	263.59
710.28	263.26
710.61	262.96
710.95	262.25
711.28	262.16
711.61	261.71
711.95	261.44
712.28	261.06
712.61	260.70
712.95	260.55
713.28	260.39
713.61	259.95
713.95	259.47
714.28	259.20
714.61	258.83
714.95	258.53
715.28	258.15
715.61	257.86
715.95	257.61
716.28	257.17
716.61	256.86
716.95	256.40
717.28	256.08
717.61	255.71
717.94	255.46
718.28	254.75
718.61	254.45
718.94	254.15
719.27	253.90
719.61	253.68
719.94	253.31
720.27	252.84
720.60	252.55
720.94	252.35
721.27	252.03
721.60	251.79
721.93	251.53
722.27	251.43
722.60	251.24
722.93	250.90
723.26	250.77
723.59	250.53
723.93	250.44
724.26	250.26
724.59	249.99
724.92	249.75
725.25	249.72
725.59	249.50
725.92	249.40
726.25	249.23
726.58	249.03
726.91	248.80
727.24	248.64
727.57	248.49
727.91	248.16
728.24	248.05
728.57	247.86
728.90	247.74
729.23	247.44
729.56	247.49
729.89	247.34
730.22	247.12
730.55	246.95
730.89	246.77
731.22	246.57
731.55	246.47
731.88	246.36
732.21	246.11
732.54	245.87
732.87	245.63
733.20	245.52
733.53	245.38
733.86	245.26
734.19	245.02
734.52	244.92
734.85	245.14
735.18	244.91
735.51	244.97
735.84	244.86
736.17	244.89
736.50	244.48
736.83	244.86
737.16	244.77
737.49	244.60
737.82	244.48
738.15	244.45
738.48	244.30
738.81	244.12
739.14	243.95
739.47	243.81
739.80	243.68
740.13	243.45
740.46	243.29
740.79	243.02
741.12	242.94
741.45	242.71
741.78	242.32
742.11	242.35
742.44	241.96
742.77	241.86
743.10	241.61
743.43	241.49
743.75	240.92
744.08	241.37
744.41	241.27
744.74	241.05
745.07	240.80
745.40	240.74
745.73	240.78
746.06	240.71
746.39	240.81
746.71	240.74
747.04	240.57
747.37	240.46
747.70	240.43
748.03	240.27
748.36	240.30
748.68	240.20
749.01	239.93
749.34	239.92
749.67	239.75
750.00	239.69
750.33	239.90
750.65	239.78
750.98	239.06
751.31	238.89
751.64	238.81
751.97	238.99
752.29	238.83
752.62	238.49
752.95	238.32
753.28	238.10
753.60	237.89
753.93	238.05
754.26	237.97
754.59	237.77
754.91	237.62
755.24	237.36
755.57	237.17
755.90	237.05
756.22	236.87
756.55	236.73
756.88	236.49
757.20	236.00
757.53	235.75
757.86	235.65
758.19	235.65
758.51	235.56
758.84	235.17
759.17	235.06
759.49	235.02
759.82	235.17
760.15	235.09
760.47	235.04
760.80	234.65
761.13	234.58
761.45	234.50
761.78	234.43
762.11	234.38
762.43	234.25
762.76	234.13
763.08	234.12
763.41	234.02
763.74	234.01
764.06	233.99
764.39	233.98
764.71	233.90
765.04	233.73
765.37	233.63
765.69	233.61
766.02	233.53
766.34	233.39
766.67	233.14
767.00	233.10
767.32	233.24
767.65	233.55
767.97	233.44
768.30	233.33
768.62	233.24
768.95	233.09
769.27	233.10
769.60	233.09
769.92	232.94
770.25	232.73
770.57	232.60
770.90	232.50
771.22	232.38
771.55	232.33
771.87	232.26
772.20	232.21
772.52	232.50
772.85	233.04
773.17	233.05
773.50	232.96
773.82	232.89
774.15	232.58
774.47	232.21
774.80	232.14
775.12	232.14
775.45	232.08
775.77	232.12
776.09	232.12
776.42	232.12
776.74	232.22
777.07	232.22
777.39	232.19
777.72	232.14
778.04	232.21
778.36	232.15
778.69	232.19
779.01	232.21
779.33	231.77
779.66	231.18
779.98	231.08
780.31	231.07
780.63	231.17
780.95	231.25
781.28	231.18
781.60	231.12
781.92	231.07
782.25	231.04
782.57	230.99
782.89	230.81
783.22	230.75
783.54	230.68
783.86	230.67
784.19	230.67
784.51	230.81
784.83	230.64
785.16	230.55
785.48	230.52
785.80	230.48
786.12	230.47
786.45	230.45
786.77	230.49
787.09	230.44
787.42	230.25
787.74	230.25
788.06	230.32
788.38	230.21
788.71	230.20
789.03	230.30
789.35	230.36
789.67	230.27
789.99	230.24
790.32	230.09
790.64	230.18
790.96	230.51
791.28	230.34
791.61	230.37
791.93	230.47
792.25	230.39
792.57	230.72
792.89	230.59
793.21	230.52
793.54	230.42
793.86	230.30
794.18	230.33
794.50	230.22
794.82	230.15
795.14	230.24
795.47	230.27
795.79	230.15
796.11	230.05
796.43	230.12
796.75	230.09
797.07	230.05
797.39	230.00
797.71	229.62
798.04	229.58
798.36	229.58
798.68	229.49
799.00	229.50
799.32	229.22
799.64	229.35
799.96	229.40
800.28	229.49
800.60	229.53
800.92	229.51
801.24	229.44
801.56	229.42
801.89	229.35
802.21	229.34
802.53	229.29
802.85	229.37
803.17	229.50
803.49	229.41
803.81	229.34
804.13	229.31
804.45	229.25
804.77	229.32
805.09	229.26
805.41	229.17
805.73	229.08
806.05	228.95
806.37	228.83
806.69	228.76
807.01	228.66
807.33	228.61
807.65	228.46
807.97	228.63
808.28	228.58
808.60	228.57
808.92	228.44
809.24	228.67
809.56	228.57
809.88	228.37
810.20	228.42
810.52	228.56
810.84	228.40
811.16	228.33
811.48	228.21
811.80	228.35
812.12	228.33
812.43	228.38
812.75	228.35
813.07	228.30
813.39	228.29
813.71	228.16
814.03	228.15
814.35	228.13
814.67	227.99
814.98	227.95
815.30	227.89
815.62	227.82
815.94	227.49
816.26	227.63
816.58	227.57
816.89	227.51
817.21	227.36
817.53	227.45
817.85	227.51
818.17	227.48
818.48	227.23
818.80	227.29
819.12	227.26
819.44	227.11
819.76	227.00
820.07	227.00
820.39	227.01
820.71	227.02
821.03	227.05
821.34	226.95
821.66	226.95
821.98	226.97
822.30	227.03
822.61	227.34
822.93	227.15
823.25	227.15
823.57	227.11
823.88	227.19
824.20	227.16
824.52	227.20
824.83	227.19
825.15	227.24
825.47	227.23
825.79	227.24
826.10	227.27
826.42	227.31
826.74	227.32
827.05	227.37
827.37	227.36
827.69	227.28
828.00	227.38
828.32	227.41
828.64	227.42
828.95	227.65
829.27	227.50
829.58	227.43
829.90	227.46
830.22	227.50
830.53	227.43
830.85	227.39
831.17	227.24
831.48	227.23
831.80	227.22
832.11	227.21
832.43	227.12
832.75	227.07
833.06	227.34
833.38	227.24
833.69	227.16
834.01	227.16
834.32	227.18
834.64	227.01
834.96	226.98
835.27	227.00
835.59	226.73
835.90	226.65
836.22	226.68
836.53	226.64
836.85	226.66
837.16	227.12
837.48	227.16
837.79	227.35
838.11	227.43
838.42	227.43
838.74	227.47
839.05	227.49
839.37	227.52
839.68	227.24
840.00	227.20
840.31	227.35
840.63	227.24
840.94	227.19
841.26	227.19
841.57	227.22
841.88	227.15
842.20	227.16
842.51	227.14
842.83	227.10
843.14	227.54
843.46	227.54
843.77	227.27
844.08	227.19
844.40	227.06
844.71	227.00
845.03	226.93
845.34	226.92
845.65	226.88
845.97	226.87
846.28	226.96
846.60	227.01
846.91	226.88
847.22	226.98
847.54	227.11
847.85	227.17
848.16	227.06
848.48	227.08
848.79	227.19
849.10	227.24
849.42	227.31
849.73	226.86
850.04	226.75
850.36	226.65
850.67	226.73
850.98	226.76
851.30	226.77
851.61	226.75
851.92	226.73
852.23	226.92
852.55	226.98
852.86	226.95
853.17	227.01
853.49	227.10
853.80	227.18
854.11	227.07
854.42	227.08
854.74	227.14
855.05	227.10
855.36	226.90
855.67	226.84
855.99	226.83
856.30	227.39
856.61	227.42
856.92	227.41
857.23	227.38
857.55	227.27
857.86	227.23
858.17	227.35
858.48	227.23
858.79	227.05
859.11	227.06
859.42	227.05
859.73	226.90
860.04	226.84
860.35	226.66
860.66	226.61
860.98	226.57
861.29	226.55
861.60	226.52
861.91	226.64
862.22	226.58
862.53	226.52
862.84	225.93
863.16	226.10
863.47	225.93
863.78	225.87
864.09	225.95
864.40	225.98
864.71	225.95
865.02	226.05
865.33	226.02
865.64	225.95
865.95	225.91
866.27	226.27
866.58	226.21
866.89	226.27
867.20	226.25
867.51	226.17
867.82	226.17
868.13	226.30
868.44	226.15
868.75	226.30
869.06	226.25
869.37	226.31
869.68	226.07
869.99	226.14
870.30	226.20
870.61	226.23
870.92	226.14
871.23	226.08
871.54	226.09
871.85	226.19
872.16	226.24
872.47	226.27
872.78	225.99
873.09	226.04
873.40	226.07
873.71	226.19
874.02	226.26
874.33	226.22
874.64	226.09
874.95	226.26
875.26	226.15
875.56	226.21
875.87	226.23
876.18	226.28
876.49	226.80
876.80	226.72
877.11	226.65
877.42	226.69
877.73	226.70
878.04	226.70
878.35	226.67
878.66	226.67
878.96	226.62
879.27	226.58
879.58	226.57
879.89	226.49
880.20	226.55
880.51	226.55
880.82	226.58
881.12	226.57
881.43	226.47
881.74	226.48
882.05	226.47
882.36	226.43
882.67	226.50
882.97	225.96
883.28	226.04
883.59	226.04
883.90	226.11
884.21	226.20
884.51	226.18
884.82	226.19
885.13	226.12
885.44	226.08
885.74	226.17
886.05	226.12
886.36	226.19
886.67	226.06
886.98	226.30
887.28	226.34
887.59	226.40
887.90	226.35
888.20	226.26
888.51	226.28
888.82	226.28
889.13	226.25
889.43	226.67
889.74	226.52
890.05	226.51
890.35	226.45
890.66	226.34
890.97	226.26
891.28	226.15
891.58	226.18
891.89	226.21
892.20	226.08
892.50	226.12
892.81	226.09
893.12	226.10
893.42	225.81
893.73	225.87
894.04	225.86
894.34	225.94
894.65	225.94
894.95	225.92
895.26	225.89
895.57	226.09
895.87	225.60
896.18	225.72
896.48	225.74
896.79	225.68
897.10	225.79
897.40	225.80
897.71	225.89
898.01	225.90
898.32	225.95
898.63	225.95
898.93	225.92
899.24	225.87
899.54	225.77
899.85	225.77
900.15	225.72
900.46	225.66
900.76	225.67
901.07	225.68
901.38	225.56
901.68	225.65
901.99	225.40
902.29	225.51
902.60	225.43
902.90	225.35
903.21	225.36
903.51	225.33
903.82	225.44
904.12	225.44
904.43	225.40
904.73	225.34
905.03	225.40
905.34	225.87
905.64	225.86
905.95	225.88
906.25	225.87
906.56	225.85
906.86	225.97
907.17	225.97
907.47	226.03
907.77	226.07
908.08	225.99
908.38	226.04
908.69	226.07
908.99	226.22
909.30	226.30
909.60	226.30
909.90	226.26
910.21	226.15
910.51	226.04
910.81	226.02
911.12	226.05
911.42	226.04
911.73	225.57
912.03	225.61
912.33	225.74
912.64	225.83
912.94	225.80
913.24	225.65
913.55	225.56
913.85	225.44
914.15	225.55
914.46	225.57
914.76	225.51
915.06	225.41
915.37	225.30
915.67	225.28
915.97	225.29
916.27	225.23
916.58	225.24
916.88	225.30
917.18	225.36
917.49	225.73
917.79	225.72
918.09	225.78
918.39	225.94
918.70	225.91
919.00	225.91
919.30	226.17
919.60	226.20
919.91	226.17
920.21	226.30
920.51	226.23
920.81	226.25
921.12	226.35
921.42	226.36
921.72	226.40
922.02	226.42
922.32	226.53
922.63	226.54
922.93	226.76
923.23	226.74
923.53	226.68
923.83	226.25
924.13	226.28
924.44	226.29
924.74	226.32
925.04	226.41
925.34	226.35
925.64	226.21
925.94	226.20
926.24	226.51
926.55	226.44
926.85	226.46
927.15	226.45
927.45	226.50
927.75	226.48
928.05	226.49
928.35	226.48
928.65	226.54
928.95	226.55
929.26	226.35
929.56	226.48
929.86	226.56
930.16	226.66
930.46	226.63
930.76	226.69
931.06	226.45
931.36	226.38
931.66	226.42
931.96	226.42
932.26	226.41
932.56	226.26
932.86	226.27
933.16	226.28
933.46	226.22
933.76	226.15
934.06	226.25
934.36	226.47
934.66	226.41
934.96	226.31
935.26	226.27
935.56	226.35
935.86	226.17
936.16	226.07
936.46	225.95
936.76	225.93
937.06	225.83
937.36	225.92
937.66	225.94
937.96	225.88
938.26	225.75
938.56	225.71
938.86	225.62
939.16	225.76
939.46	225.80
939.76	225.85
940.06	225.77
940.35	225.77
940.65	225.49
940.95	225.59
941.25	225.52
941.55	225.54
941.85	225.54
942.15	225.77
942.45	225.91
942.75	225.90
943.04	225.87
943.34	225.96
943.64	225.92
943.94	225.82
944.24	225.92
944.54	225.92
944.84	225.94
945.13	225.92
945.43	225.78
945.73	225.79
946.03	225.72
946.33	225.64
946.62	225.54
946.92	225.50
947.22	225.42
947.52	225.52
947.82	225.55
948.11	225.44
948.41	225.15
948.71	224.96
949.01	225.01
949.31	225.05
949.60	224.93
949.90	224.97
950.20	224.92
950.50	224.81
950.79	224.80
951.09	224.86
951.39	224.85
951.69	224.78
951.98	224.88
952.28	224.94
952.58	225.00
952.87	224.98
953.17	225.05
953.47	225.03
953.76	224.99
954.06	224.90
954.36	224.86
954.66	224.94
954.95	225.12
955.25	225.22
955.55	225.22
955.84	225.19
956.14	225.21
956.44	225.34
956.73	225.26
957.03	225.31
957.32	225.29
957.62	225.26
957.92	225.34
958.21	225.30
958.51	225.79
958.81	225.88
959.10	225.91
959.40	225.98
959.69	226.01
959.99	226.03
960.29	226.05
960.58	226.07
960.88	226.37
961.17	226.31
961.47	226.30
961.76	226.29
962.06	226.44
962.36	226.37
962.65	226.36
962.95	226.47
963.24	226.39
963.54	226.44
963.83	226.54
964.13	226.59
964.42	226.38
964.72	226.07
965.01	226.03
965.31	226.03
965.60	225.95
965.90	226.24
966.19	226.19
966.49	226.23
966.78	226.25
967.08	226.08
967.37	226.15
967.67	226.09
967.96	226.14
968.26	226.04
968.55	226.14
968.85	226.12
969.14	226.06
969.43	226.08
969.73	226.06
970.02	226.00
970.32	225.92
970.61	225.97
970.91	225.81
971.20	225.71
971.49	225.64
971.79	225.70
972.08	225.44
972.38	225.53
972.67	225.56
972.96	225.56
973.26	225.43
973.55	225.53
973.85	225.44
974.14	225.43
974.43	225.49
974.73	225.39
975.02	225.33
975.31	225.30
975.61	225.36
975.90	225.31
976.19	225.34
976.49	225.39
976.78	225.36
977.07	225.39
977.37	225.53
977.66	225.66
977.95	225.59
978.24	225.60
978.54	225.60
978.83	225.53
979.12	225.54
979.42	225.65
979.71	225.65
980.00	225.71
980.29	225.80
980.59	225.70
980.88	225.83
981.17	225.84
981.46	225.87
981.76	225.80
982.05	225.94
982.34	225.90
982.63	225.93
982.93	226.02
983.22	226.16
983.51	226.09
983.80	226.13
984.09	226.20
984.39	226.18
984.68	226.09
984.97	226.10
985.26	226.04
985.55	225.96
985.85	225.75
986.14	225.82
986.43	225.86
986.72	225.92
987.01	225.72
987.30	225.66
987.59	225.65
987.89	225.77
988.18	225.61
988.47	225.57
988.76	225.46
989.05	225.44
989.34	225.36
989.63	225.53
989.92	225.36
990.22	225.28
990.51	225.28
990.80	225.19
991.09	225.30
991.38	225.38
991.67	225.40
991.96	225.39
992.25	225.27
992.54	225.17
992.83	225.15
993.12	225.22
993.41	225.40
993.70	225.61
993.99	225.60
994.28	225.66
994.58	225.74
994.87	225.71
995.16	225.69
995.45	225.55
995.74	225.37
996.03	225.49
996.32	225.56
996.61	225.64
996.90	225.72
997.19	225.70
997.48	225.78
997.77	225.72
998.06	225.71
998.34	225.79
998.63	225.71
998.92	225.70
999.21	225.78
999.50	225.77
999.79	225.54
1000.08	225.50
1000.37	225.53
1000.66	225.46
1000.95	225.65
1001.24	225.61
1001.53	225.70
1001.82	225.65
1002.11	225.53
1002.40	225.57
1002.68	225.67
1002.97	226.00
1003.26	225.89
1003.55	225.76
1003.84	225.83
1004.13	226.03
1004.42	225.99
1004.71	226.03
1004.99	225.99
1005.28	226.12
1005.57	226.06
1005.86	226.03
1006.15	226.05
1006.44	226.00
1006.72	226.08
1007.01	225.93
1007.30	225.97
1007.59	225.89
1007.88	225.91
1008.17	225.99
1008.45	225.94
1008.74	225.71
1009.03	225.52
1009.32	225.55
1009.60	225.51
1009.89	225.42
1010.18	225.25
1010.47	225.19
1010.76	225.23
1011.04	225.18
1011.33	225.15
1011.62	225.24
1011.91	225.32
1012.19	225.31
1012.48	225.40
1012.77	225.42
1013.05	225.74
1013.34	225.69
1013.63	225.70
1013.92	225.75
1014.20	225.71
1014.49	225.66
1014.78	225.74
1015.06	225.61
1015.35	225.55
1015.64	225.67
1015.92	225.75
1016.21	225.76
1016.50	225.82
1016.78	225.84
1017.07	225.91
1017.36	225.78
1017.64	225.68
1017.93	225.73
1018.22	225.67
1018.50	225.54
1018.79	225.44
1019.08	225.18
1019.36	225.27
1019.65	225.15
1019.93	225.28
1020.22	225.37
1020.51	225.73
1020.79	225.60
1021.08	224.75
1021.36	223.65
1021.65	224.85
1021.94	225.60
1022.22	226.00
1022.51	222.30
1022.79	228.50
1023.08	226.60
1023.36	232.70
1023.65	222.85
>>>>>End Processed Spectral Data<<<<<
