SpectraSuite Data File
++++++++++++++++++++++++++++++++++++
Date: Wed Sep 04 17:49:02 EDT 2013
User: lab3
Dark Spectrum Present: Yes
Reference Spectrum Present: No
Number of Sampled Component Spectra: 1
Spectrometers: USB2E7196
Integration Time (usec): 170000 (USB2E7196)
Spectra Averaged: 20 (USB2E7196)
Boxcar Smoothing: 10 (USB2E7196)
Correct for Electrical Dark: No (USB2E7196)
Strobe/Lamp Enabled: No (USB2E7196)
Correct for Detector Non-linearity: No (USB2E7196)
Correct for Stray Light: No (USB2E7196)
Number of Pixels in Processed Spectrum: 2048
>>>>>Begin Processed Spectral Data<<<<<
339.09	0.00
339.48	211.40
339.86	212.90
340.24	213.95
340.63	216.40
341.01	225.85
341.39	219.65
341.78	221.75
342.16	224.10
342.54	222.90
342.93	211.86
343.31	222.55
343.69	223.19
344.07	223.73
344.46	224.33
344.84	224.79
345.22	224.72
345.60	225.03
345.99	225.26
346.37	225.30
346.75	225.42
347.13	225.48
347.52	225.48
347.90	225.71
348.28	225.73
348.66	225.85
349.05	225.80
349.43	225.87
349.81	225.94
350.19	225.96
350.57	225.93
350.96	226.08
351.34	226.13
351.72	226.19
352.10	226.30
352.48	226.23
352.87	226.25
353.25	226.32
353.63	226.34
354.01	226.31
354.39	226.40
354.77	226.42
355.15	226.66
355.54	226.77
355.92	226.65
356.30	226.75
356.68	227.12
357.06	227.15
357.44	227.11
357.82	227.20
358.20	227.71
358.58	227.79
358.97	227.79
359.35	227.95
359.73	228.08
360.11	228.11
360.49	228.25
360.87	228.34
361.25	228.49
361.63	228.80
362.01	228.89
362.39	228.95
362.77	229.05
363.15	228.95
363.53	228.94
363.91	229.03
364.29	229.03
364.67	228.62
365.05	228.58
365.43	228.66
365.81	228.75
366.19	228.61
366.57	228.84
366.95	228.93
367.33	228.86
367.71	228.88
368.09	229.00
368.47	229.01
368.85	228.96
369.23	229.05
369.61	228.81
369.99	228.98
370.37	229.02
370.75	229.22
371.13	229.16
371.51	229.10
371.89	229.05
372.27	229.08
372.65	229.13
373.03	229.18
373.41	229.12
373.78	229.05
374.16	228.74
374.54	228.55
374.92	228.47
375.30	228.40
375.68	228.26
376.06	228.19
376.44	228.09
376.82	228.08
377.19	228.01
377.57	227.84
377.95	227.65
378.33	227.49
378.71	227.20
379.09	227.22
379.47	227.20
379.84	227.19
380.22	227.06
380.60	226.83
380.98	226.76
381.36	226.67
381.73	226.58
382.11	226.55
382.49	226.47
382.87	226.34
383.25	226.29
383.62	226.83
384.00	226.67
384.38	226.64
384.76	226.70
385.13	226.76
385.51	226.81
385.89	226.72
386.27	226.77
386.64	226.80
387.02	226.73
387.40	226.69
387.78	226.60
388.15	226.65
388.53	226.67
388.91	226.64
389.29	226.65
389.66	226.62
390.04	226.59
390.42	226.64
390.79	226.67
391.17	226.67
391.55	226.04
391.92	226.05
392.30	226.05
392.68	225.89
393.05	225.89
393.43	225.91
393.81	225.97
394.18	225.90
394.56	225.89
394.94	225.96
395.31	226.00
395.69	226.20
396.06	226.21
396.44	226.32
396.82	226.35
397.19	226.63
397.57	226.70
397.95	226.85
398.32	226.79
398.70	226.92
399.07	227.13
399.45	227.26
399.82	227.39
400.20	227.49
400.58	227.63
400.95	227.56
401.33	227.73
401.70	228.16
402.08	228.31
402.45	228.46
402.83	228.73
403.20	228.83
403.58	228.83
403.95	229.18
404.33	229.48
404.71	229.75
405.08	230.14
405.46	230.25
405.83	230.49
406.21	230.79
406.58	231.01
406.96	231.18
407.33	231.52
407.70	231.88
408.08	232.57
408.45	233.04
408.83	233.50
409.20	233.81
409.58	233.86
409.95	234.40
410.33	234.89
410.70	235.23
411.08	235.88
411.45	236.60
411.82	237.05
412.20	237.72
412.57	238.68
412.95	239.02
413.32	239.96
413.69	240.72
414.07	241.58
414.44	242.63
414.82	243.69
415.19	244.89
415.56	246.06
415.94	247.09
416.31	248.44
416.68	249.84
417.06	251.50
417.43	253.21
417.81	254.91
418.18	256.75
418.55	258.59
418.93	260.55
419.30	262.58
419.67	264.77
420.04	266.98
420.42	269.19
420.79	272.29
421.16	275.02
421.54	278.04
421.91	281.07
422.28	284.11
422.66	287.42
423.03	290.86
423.40	294.18
423.77	297.69
424.15	301.27
424.52	304.98
424.89	309.07
425.26	312.97
425.64	316.84
426.01	320.96
426.38	325.33
426.75	329.94
427.13	334.41
427.50	339.19
427.87	344.11
428.24	349.03
428.61	353.52
428.99	358.72
429.36	364.23
429.73	369.64
430.10	375.06
430.47	380.56
430.85	386.07
431.22	392.26
431.59	398.90
431.96	405.02
432.33	411.88
432.70	418.48
433.08	426.33
433.45	433.44
433.82	440.61
434.19	448.75
434.56	456.74
434.93	464.39
435.30	472.00
435.68	480.48
436.05	488.69
436.42	496.92
436.79	504.64
437.16	512.71
437.53	521.49
437.90	530.02
438.27	538.59
438.64	547.46
439.01	555.60
439.38	562.63
439.75	569.75
440.13	577.68
440.50	585.14
440.87	591.01
441.24	597.42
441.61	604.53
441.98	609.65
442.35	615.34
442.72	621.28
443.09	627.09
443.46	630.30
443.83	632.67
444.20	634.46
444.57	637.10
444.94	638.24
445.31	639.23
445.68	640.66
446.05	640.80
446.42	639.47
446.79	638.10
447.16	636.55
447.53	635.26
447.90	631.60
448.27	627.89
448.64	623.04
449.01	619.29
449.37	613.10
449.74	606.88
450.11	600.20
450.48	592.51
450.85	584.47
451.22	577.86
451.59	571.24
451.96	565.11
452.33	557.16
452.70	549.96
453.07	541.37
453.43	532.38
453.80	524.03
454.17	516.07
454.54	508.36
454.91	500.33
455.28	492.43
455.65	485.02
456.02	478.28
456.38	472.14
456.75	464.51
457.12	458.11
457.49	451.92
457.86	445.48
458.23	440.32
458.59	434.80
458.96	429.15
459.33	424.24
459.70	419.15
460.07	415.02
460.43	410.28
460.80	406.12
461.17	402.51
461.54	398.62
461.91	394.81
462.27	390.96
462.64	387.80
463.01	384.24
463.38	381.06
463.74	377.13
464.11	374.07
464.48	371.59
464.85	368.78
465.21	366.75
465.58	364.45
465.95	361.73
466.32	359.61
466.68	357.33
467.05	355.11
467.42	352.90
467.78	350.57
468.15	348.54
468.52	347.01
468.88	344.66
469.25	342.76
469.62	341.34
469.98	339.66
470.35	338.09
470.72	336.67
471.08	334.96
471.45	333.69
471.82	332.47
472.18	331.05
472.55	330.02
472.92	328.77
473.28	327.72
473.65	326.60
474.02	325.43
474.38	324.51
474.75	323.81
475.11	322.93
475.48	322.27
475.85	321.64
476.21	320.94
476.58	320.45
476.94	320.00
477.31	319.55
477.67	319.25
478.04	318.86
478.41	318.58
478.77	318.87
479.14	318.60
479.50	318.56
479.87	318.56
480.23	318.58
480.60	318.47
480.96	318.52
481.33	318.90
481.69	319.09
482.06	319.29
482.42	319.52
482.79	320.00
483.15	320.39
483.52	321.01
483.88	321.48
484.25	322.11
484.61	322.82
484.98	323.44
485.34	324.42
485.71	325.40
486.07	326.52
486.44	327.11
486.80	328.16
487.17	329.22
487.53	330.59
487.90	332.04
488.26	333.79
488.62	335.50
488.99	337.05
489.35	338.95
489.72	340.87
490.08	342.78
490.44	344.76
490.81	347.12
491.17	349.39
491.54	351.93
491.90	354.56
492.26	357.24
492.63	359.97
492.99	362.86
493.36	365.95
493.72	369.13
494.08	372.52
494.45	376.32
494.81	380.27
495.17	384.13
495.54	388.15
495.90	392.39
496.26	396.77
496.63	401.41
496.99	406.12
497.35	411.20
497.72	416.52
498.08	421.98
498.44	427.49
498.80	433.43
499.17	439.43
499.53	445.57
499.89	452.25
500.26	459.19
500.62	466.07
500.98	473.51
501.34	480.85
501.71	488.59
502.07	496.48
502.43	504.49
502.79	512.82
503.16	521.47
503.52	530.24
503.88	539.48
504.24	549.05
504.60	558.91
504.97	569.09
505.33	579.45
505.69	590.55
506.05	601.47
506.41	612.68
506.78	624.19
507.14	636.17
507.50	648.43
507.86	660.89
508.22	673.75
508.59	686.64
508.95	700.29
509.31	714.38
509.67	728.44
510.03	742.64
510.39	757.28
510.75	772.17
511.12	787.40
511.48	802.80
511.84	818.50
512.20	834.29
512.56	850.35
512.92	867.12
513.28	883.71
513.64	900.83
514.00	918.16
514.37	935.74
514.73	953.67
515.09	971.57
515.45	989.75
515.81	1007.92
516.17	1026.47
516.53	1044.97
516.89	1063.65
517.25	1083.13
517.61	1103.26
517.97	1123.44
518.33	1143.33
518.69	1163.47
519.05	1183.80
519.41	1204.41
519.77	1225.48
520.13	1246.08
520.49	1266.33
520.85	1288.31
521.21	1309.35
521.57	1330.60
521.93	1351.33
522.29	1372.53
522.65	1393.12
523.01	1414.04
523.37	1434.50
523.73	1455.39
524.09	1475.94
524.45	1496.55
524.81	1517.00
525.17	1537.20
525.53	1557.39
525.89	1578.11
526.25	1598.70
526.61	1619.28
526.97	1639.84
527.33	1660.67
527.68	1682.41
528.04	1703.79
528.40	1723.23
528.76	1744.11
529.12	1764.33
529.48	1785.22
529.84	1804.87
530.20	1826.00
530.56	1846.52
530.91	1867.15
531.27	1887.45
531.63	1907.70
531.99	1927.95
532.35	1947.74
532.71	1967.92
533.07	1988.36
533.42	2007.66
533.78	2027.34
534.14	2046.67
534.50	2065.65
534.86	2084.79
535.21	2102.25
535.57	2120.49
535.93	2138.33
536.29	2155.72
536.65	2173.58
537.00	2190.57
537.36	2208.18
537.72	2224.23
538.08	2241.05
538.44	2257.88
538.79	2273.86
539.15	2290.26
539.51	2305.86
539.87	2320.81
540.22	2334.43
540.58	2348.32
540.94	2361.56
541.29	2373.92
541.65	2386.07
542.01	2398.31
542.37	2408.37
542.72	2418.90
543.08	2429.07
543.44	2440.25
543.79	2449.94
544.15	2459.67
544.51	2469.51
544.87	2478.57
545.22	2486.80
545.58	2494.42
545.94	2501.18
546.29	2507.63
546.65	2513.57
547.01	2518.90
547.36	2524.37
547.72	2529.85
548.07	2533.39
548.43	2538.83
548.79	2543.20
549.14	2547.34
549.50	2550.69
549.86	2554.72
550.21	2557.92
550.57	2561.07
550.92	2562.16
551.28	2563.33
551.64	2565.16
551.99	2566.84
552.35	2568.35
552.70	2570.29
553.06	2571.79
553.41	2573.10
553.77	2574.46
554.13	2575.88
554.48	2577.18
554.84	2578.30
555.19	2579.10
555.55	2580.73
555.90	2579.38
556.26	2578.37
556.61	2576.81
556.97	2574.79
557.32	2573.88
557.68	2573.02
558.03	2571.54
558.39	2569.99
558.74	2569.08
559.10	2565.91
559.45	2562.09
559.81	2557.76
560.16	2552.65
560.52	2547.51
560.87	2543.10
561.23	2537.82
561.58	2531.83
561.94	2524.96
562.29	2517.20
562.64	2510.17
563.00	2502.16
563.35	2495.66
563.71	2488.80
564.06	2482.22
564.42	2475.53
564.77	2468.31
565.12	2460.65
565.48	2452.69
565.83	2444.80
566.19	2436.80
566.54	2428.71
566.89	2420.66
567.25	2412.64
567.60	2405.40
567.96	2397.63
568.31	2389.14
568.66	2380.14
569.02	2370.85
569.37	2362.71
569.72	2355.42
570.08	2346.21
570.43	2336.56
570.78	2327.79
571.14	2318.68
571.49	2308.58
571.84	2299.29
572.20	2288.75
572.55	2278.50
572.90	2267.50
573.26	2257.21
573.61	2246.32
573.96	2235.13
574.31	2223.39
574.67	2211.50
575.02	2198.85
575.37	2186.54
575.72	2173.56
576.08	2161.77
576.43	2149.66
576.78	2136.62
577.13	2122.92
577.49	2110.40
577.84	2099.06
578.19	2086.98
578.54	2074.62
578.90	2062.62
579.25	2050.07
579.60	2037.79
579.95	2025.01
580.30	2012.13
580.66	1998.63
581.01	1985.09
581.36	1971.55
581.71	1958.93
582.06	1946.15
582.42	1933.83
582.77	1921.06
583.12	1909.43
583.47	1897.34
583.82	1885.54
584.17	1873.73
584.53	1862.12
584.88	1849.23
585.23	1835.88
585.58	1821.76
585.93	1808.42
586.28	1795.45
586.63	1781.89
586.98	1767.84
587.34	1755.01
587.69	1742.27
588.04	1730.14
588.39	1718.27
588.74	1706.12
589.09	1693.98
589.44	1681.69
589.79	1669.72
590.14	1658.10
590.49	1646.06
590.84	1634.12
591.19	1622.07
591.54	1610.08
591.89	1598.15
592.25	1588.26
592.60	1577.25
592.95	1566.05
593.30	1554.18
593.65	1542.08
594.00	1530.25
594.35	1520.60
594.70	1508.91
595.05	1497.55
595.40	1485.65
595.75	1473.96
596.10	1463.23
596.45	1452.15
596.80	1441.50
597.15	1430.41
597.50	1419.01
597.85	1407.91
598.19	1396.46
598.54	1385.20
598.89	1374.17
599.24	1363.69
599.59	1352.10
599.94	1341.36
600.29	1330.95
600.64	1321.46
600.99	1311.12
601.34	1301.85
601.69	1290.85
602.04	1281.05
602.39	1271.45
602.74	1262.69
603.08	1253.55
603.43	1244.21
603.78	1234.53
604.13	1224.97
604.48	1215.45
604.83	1205.80
605.18	1196.10
605.53	1186.79
605.87	1177.72
606.22	1169.08
606.57	1160.04
606.92	1150.84
607.27	1141.93
607.62	1133.60
607.96	1124.96
608.31	1117.46
608.66	1109.13
609.01	1100.56
609.36	1092.23
609.70	1083.99
610.05	1075.32
610.40	1066.71
610.75	1058.18
611.10	1050.20
611.44	1041.74
611.79	1033.65
612.14	1025.86
612.49	1018.10
612.83	1010.85
613.18	1003.12
613.53	995.50
613.88	987.61
614.22	980.04
614.57	972.38
614.92	964.43
615.27	956.94
615.61	949.13
615.96	941.63
616.31	934.21
616.65	927.24
617.00	920.01
617.35	912.88
617.70	905.97
618.04	898.98
618.39	892.23
618.74	886.05
619.08	879.32
619.43	872.54
619.78	865.66
620.12	858.50
620.47	851.75
620.82	844.72
621.16	838.03
621.51	831.76
621.85	825.48
622.20	819.17
622.55	812.69
622.89	806.36
623.24	800.05
623.59	793.95
623.93	787.81
624.28	781.70
624.62	776.19
624.97	770.53
625.32	764.72
625.66	758.50
626.01	752.40
626.35	746.87
626.70	741.50
627.04	736.37
627.39	730.95
627.73	725.71
628.08	720.88
628.43	715.68
628.77	710.31
629.12	705.16
629.46	700.38
629.81	695.72
630.15	691.05
630.50	686.26
630.84	681.51
631.19	676.88
631.53	672.53
631.88	667.29
632.22	662.51
632.57	658.21
632.91	653.87
633.26	649.57
633.60	645.01
633.95	640.36
634.29	635.66
634.64	631.32
634.98	626.63
635.32	622.14
635.67	618.15
636.01	614.10
636.36	609.79
636.70	605.82
637.05	601.76
637.39	597.71
637.73	593.85
638.08	589.84
638.42	585.79
638.77	581.53
639.11	577.32
639.45	573.06
639.80	568.77
640.14	564.77
640.49	560.81
640.83	557.08
641.17	553.40
641.52	549.71
641.86	546.16
642.20	543.15
642.55	539.63
642.89	535.97
643.23	532.42
643.58	529.50
643.92	525.91
644.26	522.44
644.61	519.31
644.95	515.86
645.29	512.66
645.64	509.37
645.98	506.34
646.32	503.63
646.66	500.68
647.01	497.82
647.35	495.33
647.69	492.50
648.04	489.77
648.38	487.17
648.72	484.41
649.06	481.49
649.41	478.46
649.75	475.51
650.09	472.85
650.43	470.14
650.78	466.99
651.12	464.19
651.46	461.48
651.80	458.77
652.14	456.05
652.49	453.63
652.83	451.16
653.17	448.54
653.51	445.75
653.85	443.43
654.20	440.92
654.54	438.10
654.88	435.62
655.22	433.30
655.56	430.79
655.90	428.48
656.25	426.26
656.59	423.99
656.93	421.85
657.27	419.68
657.61	417.32
657.95	415.25
658.29	413.07
658.64	411.02
658.98	408.82
659.32	406.77
659.66	404.54
660.00	402.41
660.34	400.38
660.68	398.43
661.02	396.37
661.36	394.45
661.70	392.54
662.05	390.62
662.39	388.74
662.73	386.99
663.07	385.34
663.41	383.47
663.75	381.66
664.09	379.93
664.43	378.02
664.77	376.41
665.11	374.71
665.45	373.16
665.79	371.48
666.13	369.69
666.47	367.93
666.81	366.20
667.15	364.53
667.49	363.10
667.83	361.82
668.17	360.26
668.51	358.78
668.85	357.45
669.19	356.23
669.53	354.63
669.87	353.10
670.21	351.65
670.55	350.26
670.89	349.18
671.23	347.67
671.57	346.32
671.91	345.01
672.25	343.68
672.58	342.42
672.92	341.04
673.26	339.75
673.60	338.60
673.94	337.45
674.28	336.30
674.62	335.09
674.96	333.75
675.30	332.61
675.64	331.36
675.97	330.09
676.31	328.75
676.65	327.56
676.99	326.56
677.33	325.34
677.67	324.31
678.01	322.95
678.34	321.96
678.68	321.04
679.02	319.90
679.36	318.85
679.70	317.75
680.04	316.84
680.37	316.02
680.71	315.06
681.05	314.25
681.39	313.38
681.73	312.40
682.06	311.45
682.40	310.59
682.74	309.90
683.08	309.21
683.42	308.30
683.75	307.63
684.09	306.72
684.43	305.95
684.77	305.05
685.10	304.26
685.44	303.51
685.78	302.68
686.12	302.00
686.45	301.28
686.79	300.48
687.13	299.90
687.46	299.06
687.80	298.50
688.14	297.54
688.48	296.79
688.81	296.03
689.15	295.41
689.49	294.65
689.82	294.02
690.16	293.10
690.50	292.46
690.83	291.76
691.17	291.03
691.51	290.28
691.84	289.63
692.18	288.95
692.52	288.25
692.85	287.67
693.19	287.17
693.52	286.60
693.86	285.95
694.20	285.18
694.53	284.62
694.87	283.82
695.21	283.40
695.54	282.80
695.88	282.25
696.21	281.55
696.55	281.00
696.88	280.25
697.22	279.73
697.56	279.33
697.89	278.66
698.23	278.15
698.56	277.68
698.90	277.24
699.23	276.76
699.57	276.34
699.90	275.71
700.24	275.10
700.58	274.56
700.91	274.19
701.25	274.10
701.58	273.94
701.92	273.66
702.25	273.19
702.59	272.69
702.92	272.25
703.26	271.93
703.59	271.50
703.93	271.51
704.26	271.15
704.60	270.70
704.93	270.22
705.26	269.77
705.60	269.45
705.93	268.92
706.27	268.69
706.60	268.34
706.94	268.21
707.27	267.85
707.61	267.51
707.94	267.19
708.27	266.43
708.61	265.77
708.94	265.36
709.28	265.01
709.61	264.61
709.94	264.28
710.28	263.86
710.61	263.55
710.95	262.78
711.28	262.72
711.61	262.25
711.95	262.06
712.28	261.71
712.61	261.36
712.95	261.32
713.28	261.14
713.61	260.68
713.95	260.16
714.28	259.80
714.61	259.37
714.95	258.95
715.28	258.53
715.61	258.16
715.95	257.86
716.28	257.44
716.61	257.30
716.95	256.86
717.28	256.60
717.61	256.30
717.94	256.06
718.28	255.47
718.61	255.25
718.94	254.96
719.27	254.68
719.61	254.36
719.94	254.02
720.27	253.55
720.60	253.36
720.94	253.10
721.27	252.86
721.60	252.78
721.93	252.51
722.27	252.57
722.60	252.41
722.93	252.16
723.26	251.97
723.59	251.59
723.93	251.48
724.26	251.31
724.59	251.01
724.92	250.85
725.25	250.69
725.59	250.43
725.92	250.26
726.25	250.07
726.58	249.93
726.91	249.68
727.24	249.47
727.57	249.27
727.91	249.02
728.24	248.93
728.57	248.60
728.90	248.56
729.23	248.25
729.56	248.22
729.89	247.97
730.22	247.76
730.55	247.55
730.89	247.38
731.22	247.16
731.55	247.00
731.88	246.75
732.21	246.46
732.54	246.24
732.87	245.99
733.20	245.79
733.53	245.60
733.86	245.47
734.19	245.22
734.52	245.08
734.85	245.20
735.18	244.96
735.51	245.03
735.84	244.86
736.17	244.75
736.50	244.41
736.83	244.78
737.16	244.65
737.49	244.62
737.82	244.40
738.15	244.25
738.48	244.13
738.81	243.98
739.14	243.77
739.47	243.66
739.80	243.53
740.13	243.45
740.46	243.17
740.79	242.91
741.12	242.73
741.45	242.49
741.78	242.13
742.11	242.16
742.44	241.86
742.77	241.77
743.10	241.56
743.43	241.41
743.75	240.75
744.08	241.27
744.41	241.02
744.74	240.81
745.07	240.59
745.40	240.49
745.73	240.58
746.06	240.54
746.39	240.45
746.71	240.22
747.04	240.02
747.37	239.91
747.70	239.92
748.03	239.86
748.36	239.80
748.68	239.62
749.01	239.30
749.34	239.22
749.67	239.09
750.00	239.01
750.33	239.24
750.65	239.22
750.98	238.51
751.31	238.50
751.64	238.55
751.97	238.78
752.29	238.66
752.62	238.34
752.95	238.22
753.28	238.10
753.60	238.05
753.93	238.13
754.26	238.08
754.59	237.81
754.91	237.66
755.24	237.57
755.57	237.50
755.90	237.39
756.22	237.27
756.55	237.07
756.88	236.94
757.20	236.51
757.53	236.31
757.86	236.24
758.19	236.10
758.51	235.94
758.84	235.53
759.17	235.38
759.49	235.32
759.82	235.39
760.15	235.31
760.47	235.22
760.80	234.96
761.13	234.98
761.45	234.88
761.78	234.80
762.11	234.79
762.43	234.69
762.76	234.59
763.08	234.53
763.41	234.45
763.74	234.38
764.06	234.28
764.39	234.23
764.71	234.11
765.04	233.99
765.37	233.90
765.69	233.85
766.02	233.78
766.34	233.68
766.67	233.50
767.00	233.47
767.32	233.68
767.65	233.92
767.97	233.80
768.30	233.76
768.62	233.74
768.95	233.53
769.27	233.45
769.60	233.46
769.92	233.33
770.25	233.17
770.57	233.09
770.90	233.07
771.22	232.99
771.55	232.92
771.87	232.87
772.20	232.76
772.52	233.17
772.85	233.81
773.17	233.74
773.50	233.69
773.82	233.55
774.15	233.24
774.47	232.86
774.80	232.77
775.12	232.76
775.45	232.71
775.77	232.70
776.09	232.69
776.42	232.71
776.74	232.84
777.07	232.84
777.39	232.72
777.72	232.51
778.04	232.50
778.36	232.44
778.69	232.45
779.01	232.51
779.33	232.05
779.66	231.37
779.98	231.34
780.31	231.32
780.63	231.53
780.95	231.63
781.28	231.62
781.60	231.52
781.92	231.40
782.25	231.34
782.57	231.32
782.89	231.22
783.22	231.08
783.54	230.93
783.86	230.91
784.19	230.86
784.51	231.08
784.83	230.96
785.16	230.88
785.48	230.80
785.80	230.76
786.12	230.72
786.45	230.63
786.77	230.60
787.09	230.51
787.42	230.25
787.74	230.17
788.06	230.09
788.38	229.98
788.71	229.87
789.03	229.83
789.35	229.86
789.67	229.75
789.99	229.76
790.32	229.64
790.64	229.68
790.96	230.02
791.28	229.76
791.61	229.68
791.93	229.67
792.25	229.63
792.57	229.92
792.89	229.80
793.21	229.85
793.54	229.72
793.86	229.63
794.18	229.66
794.50	229.52
794.82	229.54
795.14	229.64
795.47	229.75
795.79	229.82
796.11	229.67
796.43	229.75
796.75	229.71
797.07	229.77
797.39	229.69
797.71	229.39
798.04	229.44
798.36	229.45
798.68	229.38
799.00	229.43
799.32	229.15
799.64	229.23
799.96	229.19
800.28	229.29
800.60	229.29
800.92	229.33
801.24	229.33
801.56	229.31
801.89	229.26
802.21	229.32
802.53	229.17
802.85	229.25
803.17	229.40
803.49	229.23
803.81	229.18
804.13	229.09
804.45	229.05
804.77	229.11
805.09	229.15
805.41	229.23
805.73	229.14
806.05	228.99
806.37	228.95
806.69	228.89
807.01	228.88
807.33	228.82
807.65	228.65
807.97	228.88
808.28	228.88
808.60	228.85
808.92	228.75
809.24	228.99
809.56	228.88
809.88	228.73
810.20	228.81
810.52	228.90
810.84	228.88
811.16	228.76
811.48	228.71
811.80	228.85
812.12	228.71
812.43	228.73
812.75	228.78
813.07	228.74
813.39	228.77
813.71	228.67
814.03	228.64
814.35	228.66
814.67	228.42
814.98	228.34
815.30	228.29
815.62	228.19
815.94	227.90
816.26	228.11
816.58	228.00
816.89	228.08
817.21	227.91
817.53	227.95
817.85	227.95
818.17	227.86
818.48	227.69
818.80	227.83
819.12	227.81
819.44	227.77
819.76	227.67
820.07	227.69
820.39	227.73
820.71	227.75
821.03	227.74
821.34	227.68
821.66	227.73
821.98	227.77
822.30	227.76
822.61	228.03
822.93	227.84
823.25	227.82
823.57	227.72
823.88	227.82
824.20	227.78
824.52	227.85
824.83	227.87
825.15	227.75
825.47	227.63
825.79	227.64
826.10	227.62
826.42	227.65
826.74	227.60
827.05	227.56
827.37	227.56
827.69	227.53
828.00	227.55
828.32	227.53
828.64	227.56
828.95	227.82
829.27	227.70
829.58	227.68
829.90	227.77
830.22	227.78
830.53	227.64
830.85	227.58
831.17	227.49
831.48	227.45
831.80	227.51
832.11	227.59
832.43	227.55
832.75	227.52
833.06	227.81
833.38	227.71
833.69	227.65
834.01	227.63
834.32	227.58
834.64	227.56
834.96	227.60
835.27	227.56
835.59	227.39
835.90	227.29
836.22	227.30
836.53	227.12
836.85	227.06
837.16	227.53
837.48	227.56
837.79	227.74
838.11	227.74
838.42	227.75
838.74	227.75
839.05	227.64
839.37	227.59
839.68	227.17
840.00	227.19
840.31	227.26
840.63	227.26
840.94	227.25
841.26	227.19
841.57	227.08
841.88	227.12
842.20	227.02
842.51	226.96
842.83	226.96
843.14	227.43
843.46	227.47
843.77	227.19
844.08	227.15
844.40	227.00
844.71	226.96
845.03	226.90
845.34	226.91
845.65	226.95
845.97	226.98
846.28	227.05
846.60	227.09
846.91	227.04
847.22	226.97
847.54	227.07
847.85	227.12
848.16	227.10
848.48	227.09
848.79	227.30
849.10	227.38
849.42	227.40
849.73	227.00
850.04	226.97
850.36	226.85
850.67	226.98
850.98	227.01
851.30	227.04
851.61	227.02
851.92	226.98
852.23	227.13
852.55	227.17
852.86	227.23
853.17	227.29
853.49	227.38
853.80	227.54
854.11	227.59
854.42	227.66
854.74	227.64
855.05	227.58
855.36	227.36
855.67	227.39
855.99	227.40
856.30	227.92
856.61	227.92
856.92	227.93
857.23	227.82
857.55	227.76
857.86	227.77
858.17	227.89
858.48	227.76
858.79	227.63
859.11	227.63
859.42	227.58
859.73	227.60
860.04	227.50
860.35	227.36
860.66	227.18
860.98	227.16
861.29	227.24
861.60	227.20
861.91	227.22
862.22	227.14
862.53	227.03
862.84	226.53
863.16	226.62
863.47	226.57
863.78	226.57
864.09	226.56
864.40	226.55
864.71	226.47
865.02	226.60
865.33	226.57
865.64	226.45
865.95	226.45
866.27	226.65
866.58	226.65
866.89	226.68
867.20	226.70
867.51	226.63
867.82	226.60
868.13	226.73
868.44	226.67
868.75	226.75
869.06	226.82
869.37	226.80
869.68	226.62
869.99	226.69
870.30	226.70
870.61	226.80
870.92	226.70
871.23	226.72
871.54	226.75
871.85	226.86
872.16	226.93
872.47	226.88
872.78	226.52
873.09	226.55
873.40	226.49
873.71	226.50
874.02	226.50
874.33	226.43
874.64	226.32
874.95	226.40
875.26	226.26
875.56	226.17
875.87	226.18
876.18	226.20
876.49	226.69
876.80	226.70
877.11	226.53
877.42	226.66
877.73	226.64
878.04	226.52
878.35	226.57
878.66	226.60
878.96	226.68
879.27	226.71
879.58	226.71
879.89	226.70
880.20	226.81
880.51	226.86
880.82	226.89
881.12	226.90
881.43	226.78
881.74	226.74
882.05	226.82
882.36	226.86
882.67	226.88
882.97	226.34
883.28	226.32
883.59	226.36
883.90	226.37
884.21	226.43
884.51	226.46
884.82	226.34
885.13	226.35
885.44	226.30
885.74	226.34
886.05	226.27
886.36	226.30
886.67	226.15
886.98	226.39
887.28	226.41
887.59	226.45
887.90	226.51
888.20	226.56
888.51	226.62
888.82	226.53
889.13	226.60
889.43	226.97
889.74	226.89
890.05	226.91
890.35	226.89
890.66	226.79
890.97	226.70
891.28	226.57
891.58	226.58
891.89	226.55
892.20	226.48
892.50	226.45
892.81	226.39
893.12	226.36
893.42	226.12
893.73	226.18
894.04	226.14
894.34	226.20
894.65	226.10
894.95	226.03
895.26	226.15
895.57	226.33
895.87	225.89
896.18	225.99
896.48	225.99
896.79	225.99
897.10	226.18
897.40	226.25
897.71	226.42
898.01	226.36
898.32	226.40
898.63	226.43
898.93	226.45
899.24	226.48
899.54	226.45
899.85	226.36
900.15	226.36
900.46	226.35
900.76	226.36
901.07	226.39
901.38	226.35
901.68	226.27
901.99	226.04
902.29	226.10
902.60	226.03
902.90	226.00
903.21	225.95
903.51	225.83
903.82	225.92
904.12	225.90
904.43	225.98
904.73	225.97
905.03	226.00
905.34	226.47
905.64	226.48
905.95	226.51
906.25	226.57
906.56	226.52
906.86	226.59
907.17	226.61
907.47	226.63
907.77	226.55
908.08	226.47
908.38	226.50
908.69	226.52
908.99	226.58
909.30	226.63
909.60	226.63
909.90	226.64
910.21	226.50
910.51	226.41
910.81	226.34
911.12	226.35
911.42	226.33
911.73	225.88
912.03	225.85
912.33	225.90
912.64	225.88
912.94	225.85
913.24	225.71
913.55	225.64
913.85	225.64
914.15	225.73
914.46	225.91
914.76	225.88
915.06	225.83
915.37	225.80
915.67	225.77
915.97	225.81
916.27	225.71
916.58	225.72
916.88	225.70
917.18	225.64
917.49	225.93
917.79	225.91
918.09	225.95
918.39	226.11
918.70	226.10
919.00	226.06
919.30	226.27
919.60	226.29
919.91	226.25
920.21	226.31
920.51	226.28
920.81	226.14
921.12	226.11
921.42	226.16
921.72	226.15
922.02	226.22
922.32	226.26
922.63	226.34
922.93	226.65
923.23	226.64
923.53	226.60
923.83	226.32
924.13	226.33
924.44	226.29
924.74	226.31
925.04	226.40
925.34	226.45
925.64	226.18
925.94	226.14
926.24	226.38
926.55	226.27
926.85	226.29
927.15	226.30
927.45	226.38
927.75	226.36
928.05	226.37
928.35	226.27
928.65	226.23
928.95	226.24
929.26	225.97
929.56	226.10
929.86	226.20
930.16	226.11
930.46	226.11
930.76	226.12
931.06	225.96
931.36	225.83
931.66	225.92
931.96	225.99
932.26	226.01
932.56	225.75
932.86	225.74
933.16	225.76
933.46	225.67
933.76	225.57
934.06	225.58
934.36	225.75
934.66	225.75
934.96	225.70
935.26	225.70
935.56	225.71
935.86	225.57
936.16	225.52
936.46	225.49
936.76	225.46
937.06	225.37
937.36	225.37
937.66	225.45
937.96	225.30
938.26	225.27
938.56	225.19
938.86	225.29
939.16	225.45
939.46	225.41
939.76	225.52
940.06	225.52
940.35	225.46
940.65	225.17
940.95	225.22
941.25	225.15
941.55	225.11
941.85	225.12
942.15	225.25
942.45	225.39
942.75	225.43
943.04	225.46
943.34	225.56
943.64	225.50
943.94	225.43
944.24	225.54
944.54	225.56
944.84	225.62
945.13	225.56
945.43	225.48
945.73	225.46
946.03	225.43
946.33	225.37
946.62	225.37
946.92	225.42
947.22	225.43
947.52	225.49
947.82	225.58
948.11	225.56
948.41	225.45
948.71	225.36
949.01	225.44
949.31	225.43
949.60	225.39
949.90	225.57
950.20	225.51
950.50	225.48
950.79	225.45
951.09	225.58
951.39	225.59
951.69	225.53
951.98	225.67
952.28	225.70
952.58	225.79
952.87	225.84
953.17	225.95
953.47	225.97
953.76	225.99
954.06	225.85
954.36	225.79
954.66	225.88
954.95	225.97
955.25	225.95
955.55	226.04
955.84	226.01
956.14	225.99
956.44	226.05
956.73	226.00
957.03	226.05
957.32	226.01
957.62	226.08
957.92	226.19
958.21	226.20
958.51	226.69
958.81	226.70
959.10	226.72
959.40	226.77
959.69	226.78
959.99	226.87
960.29	226.93
960.58	226.95
960.88	227.11
961.17	227.10
961.47	227.19
961.76	227.08
962.06	227.16
962.36	227.13
962.65	227.23
962.95	227.21
963.24	227.20
963.54	227.20
963.83	227.10
964.13	227.09
964.42	226.93
964.72	226.60
965.01	226.64
965.31	226.58
965.60	226.51
965.90	226.75
966.19	226.63
966.49	226.70
966.78	226.68
967.08	226.54
967.37	226.50
967.67	226.38
967.96	226.51
968.26	226.48
968.55	226.51
968.85	226.50
969.14	226.51
969.43	226.49
969.73	226.47
970.02	226.50
970.32	226.42
970.61	226.40
970.91	226.27
971.20	226.16
971.49	226.16
971.79	226.18
972.08	225.88
972.38	225.91
972.67	225.82
972.96	225.88
973.26	225.80
973.55	225.92
973.85	225.91
974.14	225.82
974.43	225.85
974.73	225.80
975.02	225.70
975.31	225.73
975.61	225.70
975.90	225.64
976.19	225.53
976.49	225.55
976.78	225.66
977.07	225.62
977.37	225.65
977.66	225.70
977.95	225.62
978.24	225.65
978.54	225.74
978.83	225.73
979.12	225.64
979.42	225.62
979.71	225.56
980.00	225.55
980.29	225.58
980.59	225.50
980.88	225.60
981.17	225.66
981.46	225.61
981.76	225.69
982.05	225.72
982.34	225.81
982.63	225.79
982.93	225.66
983.22	225.81
983.51	225.86
983.80	225.94
984.09	226.04
984.39	226.08
984.68	226.00
984.97	225.97
985.26	226.00
985.55	226.05
985.85	225.98
986.14	226.08
986.43	226.12
986.72	226.12
987.01	225.95
987.30	225.92
987.59	225.95
987.89	225.93
988.18	225.89
988.47	225.88
988.76	225.92
989.05	225.99
989.34	225.88
989.63	225.99
989.92	225.86
990.22	225.79
990.51	225.77
990.80	225.75
991.09	225.82
991.38	225.91
991.67	225.91
991.96	225.83
992.25	225.80
992.54	225.77
992.83	225.79
993.12	225.80
993.41	225.91
993.70	226.14
993.99	226.21
994.28	226.28
994.58	226.38
994.87	226.33
995.16	226.38
995.45	226.40
995.74	226.27
996.03	226.40
996.32	226.48
996.61	226.53
996.90	226.49
997.19	226.52
997.48	226.50
997.77	226.48
998.06	226.52
998.34	226.52
998.63	226.50
998.92	226.54
999.21	226.64
999.50	226.62
999.79	226.39
1000.08	226.39
1000.37	226.46
1000.66	226.38
1000.95	226.55
1001.24	226.54
1001.53	226.58
1001.82	226.54
1002.11	226.37
1002.40	226.40
1002.68	226.59
1002.97	226.90
1003.26	226.84
1003.55	226.77
1003.84	226.80
1004.13	226.96
1004.42	226.93
1004.71	226.98
1004.99	226.99
1005.28	227.10
1005.57	227.00
1005.86	226.93
1006.15	226.79
1006.44	226.61
1006.72	226.66
1007.01	226.51
1007.30	226.50
1007.59	226.48
1007.88	226.44
1008.17	226.51
1008.45	226.32
1008.74	226.07
1009.03	225.87
1009.32	225.85
1009.60	225.81
1009.89	225.72
1010.18	225.50
1010.47	225.40
1010.76	225.29
1011.04	225.21
1011.33	225.14
1011.62	225.20
1011.91	225.23
1012.19	225.27
1012.48	225.35
1012.77	225.33
1013.05	225.56
1013.34	225.53
1013.63	225.48
1013.92	225.51
1014.20	225.46
1014.49	225.55
1014.78	225.59
1015.06	225.44
1015.35	225.42
1015.64	225.57
1015.92	225.71
1016.21	225.73
1016.50	225.78
1016.78	225.82
1017.07	225.87
1017.36	225.80
1017.64	225.79
1017.93	225.87
1018.22	225.86
1018.50	225.76
1018.79	225.71
1019.08	225.46
1019.36	225.50
1019.65	225.51
1019.93	225.60
1020.22	225.69
1020.51	225.93
1020.79	225.87
1021.08	224.75
1021.36	223.65
1021.65	224.85
1021.94	224.85
1022.22	226.10
1022.51	226.05
1022.79	226.95
1023.08	227.05
1023.36	231.20
1023.65	224.60
>>>>>End Processed Spectral Data<<<<<
