SpectraSuite Data File
++++++++++++++++++++++++++++++++++++
Date: Wed Sep 04 17:40:06 EDT 2013
User: lab3
Dark Spectrum Present: Yes
Reference Spectrum Present: No
Number of Sampled Component Spectra: 1
Spectrometers: USB2E7196
Integration Time (usec): 170000 (USB2E7196)
Spectra Averaged: 20 (USB2E7196)
Boxcar Smoothing: 10 (USB2E7196)
Correct for Electrical Dark: No (USB2E7196)
Strobe/Lamp Enabled: No (USB2E7196)
Correct for Detector Non-linearity: No (USB2E7196)
Correct for Stray Light: No (USB2E7196)
Number of Pixels in Processed Spectrum: 2048
>>>>>Begin Processed Spectral Data<<<<<
339.09	0.00
339.48	212.00
339.86	213.80
340.24	215.70
340.63	216.70
341.01	223.80
341.39	219.55
341.78	221.60
342.16	223.65
342.54	221.90
342.93	211.69
343.31	222.35
343.69	222.90
344.07	223.40
344.46	223.90
344.84	224.34
345.22	224.36
345.60	224.57
345.99	224.73
346.37	224.86
346.75	224.96
347.13	225.04
347.52	225.11
347.90	225.36
348.28	225.41
348.66	225.53
349.05	225.38
349.43	225.37
349.81	225.48
350.19	225.55
350.57	225.62
350.96	225.71
351.34	225.82
351.72	225.91
352.10	225.93
352.48	225.95
352.87	225.92
353.25	226.00
353.63	226.10
354.01	226.15
354.39	226.17
354.77	226.22
355.15	226.40
355.54	226.44
355.92	226.30
356.30	226.37
356.68	226.74
357.06	226.77
357.44	226.78
357.82	226.85
358.20	227.30
358.58	227.31
358.97	227.32
359.35	227.45
359.73	227.57
360.11	227.62
360.49	227.72
360.87	227.79
361.25	227.86
361.63	228.05
362.01	228.11
362.39	228.14
362.77	228.28
363.15	228.30
363.53	228.37
363.91	228.43
364.29	228.48
364.67	227.99
365.05	228.00
365.43	228.10
365.81	228.14
366.19	227.98
366.57	228.25
366.95	228.34
367.33	228.30
367.71	228.36
368.09	228.56
368.47	228.48
368.85	228.46
369.23	228.60
369.61	228.38
369.99	228.57
370.37	228.58
370.75	228.76
371.13	228.65
371.51	228.52
371.89	228.58
372.27	228.55
372.65	228.58
373.03	228.57
373.41	228.49
373.78	228.42
374.16	228.12
374.54	227.92
374.92	227.83
375.30	227.78
375.68	227.57
376.06	227.40
376.44	227.30
376.82	227.28
377.19	227.18
377.57	227.14
377.95	226.88
378.33	226.81
378.71	226.48
379.09	226.50
379.47	226.51
379.84	226.33
380.22	226.22
380.60	226.05
380.98	225.98
381.36	225.90
381.73	225.75
382.11	225.78
382.49	225.81
382.87	225.67
383.25	225.58
383.62	226.10
384.00	226.02
384.38	226.06
384.76	226.16
385.13	226.30
385.51	226.28
385.89	226.14
386.27	226.13
386.64	226.18
387.02	226.02
387.40	226.01
387.78	226.04
388.15	226.03
388.53	226.00
388.91	226.05
389.29	226.12
389.66	226.23
390.04	226.14
390.42	226.13
390.79	226.16
391.17	226.08
391.55	225.56
391.92	225.56
392.30	225.59
392.68	225.43
393.05	225.31
393.43	225.29
393.81	225.38
394.18	225.28
394.56	225.33
394.94	225.51
395.31	225.44
395.69	225.55
396.06	225.62
396.44	225.72
396.82	225.65
397.19	225.83
397.57	225.80
397.95	225.94
398.32	225.75
398.70	225.87
399.07	226.08
399.45	226.10
399.82	226.16
400.20	226.13
400.58	226.19
400.95	226.10
401.33	226.33
401.70	226.74
402.08	226.88
402.45	226.94
402.83	227.16
403.20	227.27
403.58	227.34
403.95	227.55
404.33	227.78
404.71	227.93
405.08	228.32
405.46	228.46
405.83	228.70
406.21	229.00
406.58	229.17
406.96	229.49
407.33	229.81
407.70	230.13
408.08	230.90
408.45	231.33
408.83	231.81
409.20	232.04
409.58	232.14
409.95	232.64
410.33	233.10
410.70	233.36
411.08	233.96
411.45	234.53
411.82	235.00
412.20	235.66
412.57	236.56
412.95	236.74
413.32	237.58
413.69	238.23
414.07	239.03
414.44	239.90
414.82	240.63
415.19	241.66
415.56	242.63
415.94	243.40
416.31	244.59
416.68	245.78
417.06	247.25
417.43	248.56
417.81	249.98
418.18	251.49
418.55	253.10
418.93	254.75
419.30	256.50
419.67	258.32
420.04	260.17
420.42	262.06
420.79	264.79
421.16	266.99
421.54	269.60
421.91	272.12
422.28	274.68
422.66	277.44
423.03	280.37
423.40	283.20
423.77	286.09
424.15	289.07
424.52	292.17
424.89	295.67
425.26	299.06
425.64	302.18
426.01	305.59
426.38	309.19
426.75	313.06
427.13	316.90
427.50	320.90
427.87	325.03
428.24	329.04
428.61	332.66
428.99	337.07
429.36	341.56
429.73	346.12
430.10	350.71
430.47	355.56
430.85	360.05
431.22	365.10
431.59	370.83
431.96	375.96
432.33	381.68
432.70	387.10
433.08	393.56
433.45	399.82
433.82	405.95
434.19	412.75
434.56	419.47
434.93	425.79
435.30	432.21
435.68	439.31
436.05	446.37
436.42	453.27
436.79	459.86
437.16	466.85
437.53	474.12
437.90	481.26
438.27	488.24
438.64	495.61
439.01	502.53
439.38	508.46
439.75	514.37
440.13	521.06
440.50	527.33
440.87	532.23
441.24	537.52
441.61	543.36
441.98	547.48
442.35	552.20
442.72	557.36
443.09	562.27
443.46	565.16
443.83	567.13
444.20	568.70
444.57	570.79
444.94	571.63
445.31	572.74
445.68	574.11
446.05	574.23
446.42	573.25
446.79	572.20
447.16	570.97
447.53	570.07
447.90	567.06
448.27	564.04
448.64	560.30
449.01	557.26
449.37	552.29
449.74	547.52
450.11	542.12
450.48	535.59
450.85	529.00
451.22	523.27
451.59	517.78
451.96	512.77
452.33	506.13
452.70	500.14
453.07	492.86
453.43	485.19
453.80	478.37
454.17	471.78
454.54	465.40
454.91	458.51
455.28	451.80
455.65	445.60
456.02	440.10
456.38	434.86
456.75	428.46
457.12	423.04
457.49	417.75
457.86	412.26
458.23	407.99
458.59	403.29
458.96	398.54
459.33	394.35
459.70	390.17
460.07	386.81
460.43	382.88
460.80	379.30
461.17	376.25
461.54	372.95
461.91	369.82
462.27	366.59
462.64	363.95
463.01	361.14
463.38	358.56
463.74	355.09
464.11	352.52
464.48	350.38
464.85	348.08
465.21	346.46
465.58	344.69
465.95	342.35
466.32	340.52
466.68	338.69
467.05	336.88
467.42	335.06
467.78	333.13
468.15	331.41
468.52	330.13
468.88	328.33
469.25	326.74
469.62	325.60
469.98	324.23
470.35	322.94
470.72	321.68
471.08	320.24
471.45	319.20
471.82	318.31
472.18	317.09
472.55	316.27
472.92	315.13
473.28	314.13
473.65	313.28
474.02	312.46
474.38	311.87
474.75	311.28
475.11	310.54
475.48	310.08
475.85	309.63
476.21	309.12
476.58	308.85
476.94	308.64
477.31	308.19
477.67	307.97
478.04	307.80
478.41	307.76
478.77	308.11
479.14	307.97
479.50	307.89
479.87	308.08
480.23	308.06
480.60	308.15
480.96	308.25
481.33	308.72
481.69	308.97
482.06	309.20
482.42	309.55
482.79	310.00
483.15	310.47
483.52	311.04
483.88	311.48
484.25	312.02
484.61	312.59
484.98	313.29
485.34	314.22
485.71	315.18
486.07	316.04
486.44	316.60
486.80	317.70
487.17	318.78
487.53	319.96
487.90	321.31
488.26	322.91
488.62	324.54
488.99	325.84
489.35	327.41
489.72	329.10
490.08	330.89
490.44	332.72
490.81	334.72
491.17	336.79
491.54	339.16
491.90	341.50
492.26	344.07
492.63	346.61
492.99	349.13
493.36	351.86
493.72	354.95
494.08	358.06
494.45	361.45
494.81	365.03
495.17	368.57
495.54	372.45
495.90	376.16
496.26	380.08
496.63	384.28
496.99	388.59
497.35	393.11
497.72	397.86
498.08	402.71
498.44	407.83
498.80	413.16
499.17	418.60
499.53	424.32
499.89	430.25
500.26	436.48
500.62	442.85
500.98	449.46
501.34	456.19
501.71	463.11
502.07	470.09
502.43	477.13
502.79	484.59
503.16	492.17
503.52	500.15
503.88	508.25
504.24	516.77
504.60	525.72
504.97	534.94
505.33	544.04
505.69	553.74
506.05	563.36
506.41	573.20
506.78	583.34
507.14	593.65
507.50	604.27
507.86	615.05
508.22	626.29
508.59	637.38
508.95	648.99
509.31	661.15
509.67	673.38
510.03	685.65
510.39	698.09
510.75	710.74
511.12	723.45
511.48	736.56
511.84	749.81
512.20	763.05
512.56	776.62
512.92	790.51
513.28	804.49
513.64	818.84
514.00	833.25
514.37	847.91
514.73	862.76
515.09	877.83
515.45	892.93
515.81	908.00
516.17	923.36
516.53	938.53
516.89	953.80
517.25	969.40
517.61	985.95
517.97	1002.43
518.33	1018.85
518.69	1035.25
519.05	1051.97
519.41	1068.51
519.77	1085.39
520.13	1101.87
520.49	1118.22
520.85	1136.11
521.21	1152.82
521.57	1169.80
521.93	1186.12
522.29	1202.74
522.65	1218.83
523.01	1235.19
523.37	1251.06
523.73	1267.35
524.09	1283.52
524.45	1299.08
524.81	1315.00
525.17	1330.77
525.53	1346.40
525.89	1362.07
526.25	1377.70
526.61	1393.04
526.97	1408.88
527.33	1424.70
527.68	1440.96
528.04	1457.17
528.40	1471.42
528.76	1486.92
529.12	1502.04
529.48	1517.57
529.84	1532.40
530.20	1547.83
530.56	1562.74
530.91	1578.10
531.27	1593.01
531.63	1607.69
531.99	1622.72
532.35	1636.97
532.71	1651.22
533.07	1665.91
533.42	1679.94
533.78	1693.98
534.14	1707.79
534.50	1720.97
534.86	1734.21
535.21	1746.06
535.57	1758.55
535.93	1770.80
536.29	1782.58
536.65	1794.48
537.00	1806.05
537.36	1817.76
537.72	1828.48
538.08	1839.61
538.44	1850.27
538.79	1860.48
539.15	1870.70
539.51	1880.90
539.87	1890.47
540.22	1898.81
540.58	1907.58
540.94	1915.57
541.29	1923.12
541.65	1930.13
542.01	1937.35
542.37	1942.75
542.72	1948.65
543.08	1954.17
543.44	1960.33
543.79	1965.40
544.15	1970.65
544.51	1975.54
544.87	1980.11
545.22	1983.97
545.58	1987.41
545.94	1990.29
546.29	1993.08
546.65	1995.50
547.01	1996.88
547.36	1998.56
547.72	2000.27
548.07	2000.78
548.43	2001.97
548.79	2002.76
549.14	2003.64
549.50	2003.63
549.86	2004.21
550.21	2004.57
550.57	2004.67
550.92	2003.10
551.28	2001.91
551.64	2000.96
551.99	1999.93
552.35	1998.47
552.70	1997.96
553.06	1996.87
553.41	1995.39
553.77	1994.05
554.13	1992.96
554.48	1992.14
554.84	1990.80
555.19	1989.36
555.55	1988.15
555.90	1985.39
556.26	1982.77
556.61	1979.41
556.97	1975.72
557.32	1973.11
557.68	1970.32
558.03	1966.91
558.39	1963.68
558.74	1960.85
559.10	1956.37
559.45	1951.62
559.81	1946.63
560.16	1940.71
560.52	1935.08
560.87	1929.82
561.23	1923.82
561.58	1917.70
561.94	1910.70
562.29	1903.43
562.64	1896.55
563.00	1888.74
563.35	1882.42
563.71	1875.95
564.06	1869.77
564.42	1863.90
564.77	1857.29
565.12	1850.10
565.48	1843.30
565.83	1836.37
566.19	1829.35
566.54	1822.49
566.89	1815.40
567.25	1808.60
567.60	1802.28
567.96	1795.77
568.31	1789.18
568.66	1782.27
569.02	1774.49
569.37	1767.49
569.72	1760.82
570.08	1752.97
570.43	1745.05
570.78	1737.14
571.14	1729.19
571.49	1720.92
571.84	1713.07
572.20	1704.34
572.55	1696.07
572.90	1687.25
573.26	1679.13
573.61	1669.93
573.96	1660.90
574.31	1651.67
574.67	1642.15
575.02	1632.21
575.37	1622.30
575.72	1611.97
576.08	1602.57
576.43	1592.91
576.78	1582.85
577.13	1572.81
577.49	1563.34
577.84	1554.62
578.19	1545.65
578.54	1536.26
578.90	1527.28
579.25	1517.73
579.60	1508.35
579.95	1498.85
580.30	1489.36
580.66	1479.20
581.01	1469.38
581.36	1459.15
581.71	1449.74
582.06	1440.69
582.42	1431.50
582.77	1422.33
583.12	1413.73
583.47	1404.75
583.82	1396.20
584.17	1387.41
584.53	1378.68
584.88	1369.26
585.23	1359.66
585.58	1349.58
585.93	1340.07
586.28	1330.55
586.63	1320.79
586.98	1310.86
587.34	1301.18
587.69	1291.65
588.04	1282.83
588.39	1274.43
588.74	1265.83
589.09	1257.43
589.44	1248.30
589.79	1239.62
590.14	1231.21
590.49	1222.57
590.84	1213.81
591.19	1205.14
591.54	1196.52
591.89	1188.05
592.25	1180.90
592.60	1172.77
592.95	1164.87
593.30	1156.63
593.65	1148.27
594.00	1139.95
594.35	1133.47
594.70	1125.56
595.05	1117.49
595.40	1109.11
595.75	1100.85
596.10	1093.15
596.45	1085.14
596.80	1077.44
597.15	1069.46
597.50	1061.21
597.85	1053.51
598.19	1045.62
598.54	1037.61
598.89	1030.06
599.24	1022.83
599.59	1014.90
599.94	1007.35
600.29	1000.20
600.64	993.33
600.99	985.89
601.34	979.13
601.69	971.03
602.04	964.53
602.39	957.90
602.74	951.53
603.08	945.07
603.43	938.73
603.78	932.00
604.13	925.58
604.48	919.18
604.83	912.66
605.18	905.85
605.53	899.34
605.87	893.37
606.22	887.58
606.57	881.28
606.92	874.99
607.27	869.12
607.62	863.22
607.96	857.31
608.31	852.03
608.66	846.64
609.01	841.02
609.36	835.25
609.70	829.74
610.05	824.14
610.40	818.54
610.75	812.69
611.10	807.20
611.44	801.38
611.79	795.86
612.14	790.69
612.49	785.52
612.83	780.58
613.18	775.15
613.53	769.78
613.88	764.33
614.22	759.08
614.57	753.62
614.92	748.13
615.27	743.08
615.61	737.83
615.96	732.47
616.31	727.41
616.65	722.50
617.00	717.41
617.35	712.48
617.70	707.58
618.04	702.77
618.39	698.14
618.74	693.72
619.08	689.10
619.43	684.23
619.78	679.37
620.12	674.39
620.47	669.62
620.82	664.67
621.16	660.10
621.51	655.81
621.85	651.59
622.20	647.31
622.55	642.69
622.89	638.36
623.24	634.23
623.59	629.93
623.93	625.60
624.28	621.53
624.62	617.75
624.97	613.77
625.32	609.99
625.66	605.83
626.01	601.68
626.35	597.95
626.70	594.24
627.04	590.71
627.39	586.97
627.73	583.46
628.08	580.12
628.43	576.56
628.77	572.79
629.12	569.27
629.46	565.95
629.81	562.84
630.15	559.58
630.50	556.05
630.84	552.74
631.19	549.48
631.53	546.37
631.88	542.74
632.22	539.41
632.57	536.30
632.91	533.22
633.26	530.42
633.60	527.16
633.95	523.92
634.29	520.58
634.64	517.71
634.98	514.49
635.32	511.54
635.67	508.68
636.01	505.84
636.36	502.86
636.70	500.10
637.05	497.04
637.39	494.28
637.73	491.60
638.08	488.95
638.42	486.23
638.77	483.26
639.11	480.30
639.45	477.34
639.80	474.25
640.14	471.53
640.49	468.73
640.83	466.17
641.17	463.83
641.52	461.35
641.86	458.86
642.20	456.82
642.55	454.22
642.89	451.77
643.23	449.40
643.58	447.35
643.92	444.69
644.26	442.32
644.61	440.04
644.95	437.71
645.29	435.21
645.64	432.90
645.98	430.68
646.32	428.66
646.66	426.47
647.01	424.47
647.35	422.45
647.69	420.43
648.04	418.54
648.38	416.62
648.72	414.58
649.06	412.35
649.41	410.07
649.75	408.09
650.09	406.11
650.43	404.05
650.78	401.84
651.12	400.05
651.46	398.30
651.80	396.29
652.14	394.41
652.49	392.84
652.83	391.06
653.17	389.35
653.51	387.42
653.85	385.92
654.20	384.24
654.54	382.53
654.88	380.73
655.22	379.18
655.56	377.37
655.90	375.73
656.25	374.16
656.59	372.71
656.93	371.20
657.27	369.83
657.61	368.15
657.95	366.64
658.29	365.18
658.64	363.65
658.98	362.29
659.32	360.68
659.66	359.06
660.00	357.68
660.34	356.25
660.68	354.99
661.02	353.56
661.36	352.17
661.70	350.79
662.05	349.49
662.39	348.05
662.73	346.84
663.07	345.88
663.41	344.83
663.75	343.42
664.09	342.22
664.43	340.83
664.77	339.81
665.11	338.72
665.45	337.41
665.79	336.30
666.13	335.01
666.47	334.02
666.81	332.90
667.15	331.55
667.49	330.50
667.83	329.49
668.17	328.33
668.51	327.23
668.85	326.22
669.19	325.48
669.53	324.40
669.87	323.33
670.21	322.18
670.55	321.07
670.89	320.44
671.23	319.45
671.57	318.50
671.91	317.50
672.25	316.48
672.58	315.77
672.92	314.66
673.26	313.75
673.60	312.85
673.94	312.08
674.28	311.40
674.62	310.64
674.96	309.79
675.30	309.11
675.64	308.34
675.97	307.51
676.31	306.44
676.65	305.63
676.99	304.98
677.33	304.14
677.67	303.54
678.01	302.47
678.34	301.70
678.68	301.06
679.02	300.38
679.36	299.57
679.70	298.70
680.04	298.11
680.37	297.45
680.71	296.70
681.05	296.00
681.39	295.38
681.73	294.65
682.06	293.99
682.40	293.28
682.74	292.73
683.08	292.30
683.42	291.71
683.75	291.25
684.09	290.55
684.43	290.00
684.77	289.27
685.10	288.77
685.44	288.24
685.78	287.58
686.12	287.02
686.45	286.50
686.79	285.99
687.13	285.49
687.46	284.93
687.80	284.55
688.14	283.88
688.48	283.22
688.81	282.70
689.15	282.29
689.49	281.74
689.82	281.21
690.16	280.40
690.50	279.84
690.83	279.22
691.17	278.61
691.51	278.18
691.84	277.76
692.18	277.23
692.52	276.63
692.85	276.23
693.19	275.86
693.52	275.43
693.86	274.93
694.20	274.47
694.53	274.10
694.87	273.51
695.21	273.07
695.54	272.69
695.88	272.18
696.21	271.49
696.55	271.10
696.88	270.57
697.22	270.12
697.56	269.77
697.89	269.28
698.23	268.99
698.56	268.39
698.90	268.02
699.23	267.59
699.57	267.26
699.90	266.74
700.24	266.24
700.58	265.88
700.91	265.64
701.25	265.58
701.58	265.46
701.92	265.27
702.25	264.98
702.59	264.62
702.92	264.37
703.26	264.14
703.59	263.81
703.93	263.98
704.26	263.89
704.60	263.59
704.93	263.27
705.26	262.80
705.60	262.61
705.93	262.20
706.27	261.98
706.60	261.80
706.94	261.78
707.27	261.41
707.61	261.07
707.94	260.65
708.27	260.01
708.61	259.34
708.94	258.97
709.28	258.65
709.61	258.33
709.94	258.01
710.28	257.68
710.61	257.30
710.95	256.53
711.28	256.42
711.61	256.07
711.95	255.87
712.28	255.55
712.61	255.25
712.95	255.22
713.28	255.17
713.61	254.74
713.95	254.29
714.28	254.08
714.61	253.84
714.95	253.58
715.28	253.20
715.61	252.94
715.95	252.63
716.28	252.34
716.61	252.18
716.95	251.83
717.28	251.63
717.61	251.45
717.94	251.23
718.28	250.64
718.61	250.35
718.94	250.10
719.27	249.90
719.61	249.76
719.94	249.46
720.27	249.03
720.60	248.87
720.94	248.63
721.27	248.44
721.60	248.32
721.93	248.15
722.27	248.14
722.60	248.00
722.93	247.75
723.26	247.69
723.59	247.37
723.93	247.31
724.26	247.11
724.59	246.82
724.92	246.70
725.25	246.65
725.59	246.59
725.92	246.40
726.25	246.23
726.58	246.12
726.91	245.86
727.24	245.77
727.57	245.63
727.91	245.43
728.24	245.38
728.57	245.13
728.90	245.00
729.23	244.79
729.56	244.93
729.89	244.87
730.22	244.60
730.55	244.46
730.89	244.32
731.22	244.15
731.55	244.08
731.88	243.86
732.21	243.65
732.54	243.44
732.87	243.30
733.20	243.25
733.53	243.09
733.86	242.98
734.19	242.73
734.52	242.65
734.85	242.83
735.18	242.56
735.51	242.57
735.84	242.51
736.17	242.45
736.50	242.00
736.83	242.39
737.16	242.30
737.49	242.25
737.82	242.02
738.15	241.97
738.48	241.81
738.81	241.65
739.14	241.48
739.47	241.30
739.80	241.22
740.13	241.08
740.46	240.85
740.79	240.66
741.12	240.51
741.45	240.28
741.78	239.85
742.11	239.84
742.44	239.58
742.77	239.39
743.10	239.13
743.43	238.99
743.75	238.30
744.08	238.72
744.41	238.55
744.74	238.42
745.07	238.22
745.40	238.18
745.73	238.30
746.06	238.21
746.39	238.20
746.71	238.07
747.04	237.87
747.37	237.77
747.70	237.78
748.03	237.72
748.36	237.63
748.68	237.52
749.01	237.33
749.34	237.29
749.67	237.23
750.00	237.22
750.33	237.52
750.65	237.50
750.98	236.84
751.31	236.79
751.64	236.68
751.97	236.89
752.29	236.77
752.62	236.40
752.95	236.25
753.28	236.08
753.60	235.91
753.93	235.94
754.26	235.85
754.59	235.64
754.91	235.48
755.24	235.36
755.57	235.36
755.90	235.19
756.22	235.04
756.55	234.93
756.88	234.82
757.20	234.45
757.53	234.21
757.86	234.10
758.19	234.09
758.51	234.00
758.84	233.61
759.17	233.50
759.49	233.56
759.82	233.72
760.15	233.65
760.47	233.59
760.80	233.39
761.13	233.39
761.45	233.28
761.78	233.18
762.11	233.16
762.43	232.95
762.76	232.87
763.08	232.84
763.41	232.83
763.74	232.71
764.06	232.63
764.39	232.58
764.71	232.62
765.04	232.40
765.37	232.33
765.69	232.31
766.02	232.23
766.34	232.09
766.67	231.80
767.00	231.80
767.32	232.00
767.65	232.30
767.97	232.17
768.30	232.15
768.62	232.13
768.95	231.98
769.27	231.97
769.60	232.05
769.92	231.87
770.25	231.71
770.57	231.56
770.90	231.44
771.22	231.42
771.55	231.32
771.87	231.26
772.20	231.20
772.52	231.56
772.85	232.11
773.17	232.02
773.50	231.95
773.82	231.90
774.15	231.65
774.47	231.25
774.80	231.20
775.12	231.13
775.45	231.01
775.77	231.07
776.09	231.12
776.42	231.02
776.74	231.21
777.07	231.10
777.39	231.18
777.72	231.17
778.04	231.21
778.36	231.11
778.69	231.15
779.01	231.18
779.33	230.81
779.66	230.22
779.98	230.14
780.31	230.23
780.63	230.39
780.95	230.32
781.28	230.32
781.60	230.21
781.92	230.25
782.25	230.27
782.57	230.24
782.89	230.11
783.22	230.07
783.54	229.96
783.86	229.99
784.19	229.91
784.51	230.03
784.83	229.87
785.16	229.88
785.48	229.89
785.80	229.83
786.12	229.66
786.45	229.67
786.77	229.77
787.09	229.74
787.42	229.56
787.74	229.64
788.06	229.70
788.38	229.68
788.71	229.57
789.03	229.58
789.35	229.63
789.67	229.56
789.99	229.53
790.32	229.43
790.64	229.39
790.96	229.78
791.28	229.63
791.61	229.58
791.93	229.61
792.25	229.63
792.57	230.02
792.89	229.99
793.21	229.92
793.54	229.85
793.86	229.68
794.18	229.69
794.50	229.61
794.82	229.50
795.14	229.54
795.47	229.63
795.79	229.59
796.11	229.44
796.43	229.40
796.75	229.43
797.07	229.42
797.39	229.38
797.71	228.96
798.04	228.97
798.36	228.99
798.68	228.93
799.00	228.87
799.32	228.60
799.64	228.61
799.96	228.62
800.28	228.64
800.60	228.62
800.92	228.55
801.24	228.45
801.56	228.50
801.89	228.46
802.21	228.40
802.53	228.30
802.85	228.39
803.17	228.61
803.49	228.49
803.81	228.40
804.13	228.39
804.45	228.31
804.77	228.29
805.09	228.29
805.41	228.24
805.73	228.07
806.05	227.82
806.37	227.83
806.69	227.81
807.01	227.73
807.33	227.78
807.65	227.63
807.97	227.80
808.28	227.71
808.60	227.62
808.92	227.53
809.24	227.80
809.56	227.72
809.88	227.50
810.20	227.49
810.52	227.55
810.84	227.45
811.16	227.41
811.48	227.34
811.80	227.48
812.12	227.39
812.43	227.58
812.75	227.66
813.07	227.59
813.39	227.56
813.71	227.57
814.03	227.56
814.35	227.56
814.67	227.40
814.98	227.35
815.30	227.32
815.62	227.23
815.94	226.98
816.26	227.15
816.58	227.02
816.89	227.00
817.21	226.95
817.53	226.99
817.85	227.03
818.17	227.04
818.48	226.83
818.80	226.98
819.12	226.81
819.44	226.75
819.76	226.71
820.07	226.72
820.39	226.60
820.71	226.59
821.03	226.62
821.34	226.59
821.66	226.67
821.98	226.77
822.30	226.76
822.61	227.07
822.93	226.85
823.25	226.88
823.57	226.93
823.88	227.03
824.20	227.07
824.52	227.15
824.83	227.13
825.15	227.12
825.47	227.08
825.79	227.21
826.10	227.18
826.42	227.17
826.74	227.21
827.05	227.28
827.37	227.38
827.69	227.35
828.00	227.34
828.32	227.28
828.64	227.26
828.95	227.54
829.27	227.30
829.58	227.27
829.90	227.41
830.22	227.45
830.53	227.38
830.85	227.30
831.17	227.11
831.48	227.11
831.80	227.16
832.11	227.21
832.43	227.05
832.75	227.06
833.06	227.37
833.38	227.18
833.69	227.18
834.01	227.08
834.32	227.11
834.64	227.10
834.96	227.14
835.27	227.12
835.59	227.01
835.90	227.01
836.22	227.04
836.53	226.94
836.85	226.83
837.16	227.22
837.48	227.20
837.79	227.36
838.11	227.31
838.42	227.29
838.74	227.19
839.05	227.19
839.37	227.14
839.68	226.87
840.00	226.92
840.31	226.94
840.63	226.96
840.94	226.85
841.26	226.82
841.57	226.75
841.88	226.82
842.20	226.71
842.51	226.63
842.83	226.59
843.14	226.96
843.46	226.99
843.77	226.76
844.08	226.74
844.40	226.60
844.71	226.60
845.03	226.54
845.34	226.55
845.65	226.52
845.97	226.48
846.28	226.47
846.60	226.43
846.91	226.34
847.22	226.28
847.54	226.39
847.85	226.38
848.16	226.41
848.48	226.22
848.79	226.39
849.10	226.49
849.42	226.53
849.73	226.11
850.04	226.01
850.36	225.78
850.67	225.91
850.98	225.92
851.30	225.93
851.61	225.90
851.92	225.93
852.23	226.06
852.55	226.16
852.86	226.17
853.17	226.25
853.49	226.36
853.80	226.38
854.11	226.37
854.42	226.44
854.74	226.35
855.05	226.37
855.36	226.12
855.67	226.02
855.99	226.00
856.30	226.58
856.61	226.63
856.92	226.70
857.23	226.63
857.55	226.62
857.86	226.63
858.17	226.67
858.48	226.58
858.79	226.44
859.11	226.44
859.42	226.34
859.73	226.23
860.04	226.21
860.35	226.15
860.66	226.08
860.98	226.07
861.29	226.21
861.60	226.19
861.91	226.28
862.22	226.31
862.53	226.21
862.84	225.59
863.16	225.68
863.47	225.57
863.78	225.60
864.09	225.57
864.40	225.60
864.71	225.61
865.02	225.63
865.33	225.59
865.64	225.56
865.95	225.61
866.27	225.95
866.58	225.89
866.89	225.92
867.20	225.81
867.51	225.67
867.82	225.61
868.13	225.83
868.44	225.79
868.75	225.87
869.06	225.94
869.37	226.02
869.68	225.90
869.99	226.00
870.30	225.94
870.61	226.00
870.92	225.98
871.23	225.97
871.54	226.08
871.85	226.26
872.16	226.29
872.47	226.27
872.78	225.95
873.09	226.01
873.40	225.95
873.71	226.10
874.02	226.17
874.33	226.10
874.64	225.96
874.95	226.01
875.26	225.87
875.56	225.86
875.87	225.87
876.18	225.90
876.49	226.36
876.80	226.47
877.11	226.47
877.42	226.44
877.73	226.49
878.04	226.42
878.35	226.37
878.66	226.45
878.96	226.43
879.27	226.45
879.58	226.53
879.89	226.52
880.20	226.62
880.51	226.65
880.82	226.62
881.12	226.61
881.43	226.52
881.74	226.49
882.05	226.40
882.36	226.36
882.67	226.34
882.97	225.82
883.28	225.71
883.59	225.73
883.90	225.75
884.21	225.79
884.51	225.79
884.82	225.76
885.13	225.73
885.44	225.83
885.74	225.81
886.05	225.70
886.36	225.74
886.67	225.55
886.98	225.80
887.28	225.92
887.59	225.94
887.90	225.98
888.20	225.97
888.51	226.21
888.82	226.19
889.13	226.30
889.43	226.72
889.74	226.65
890.05	226.62
890.35	226.60
890.66	226.53
890.97	226.46
891.28	226.41
891.58	226.42
891.89	226.30
892.20	226.31
892.50	226.27
892.81	226.19
893.12	226.22
893.42	225.92
893.73	225.84
894.04	225.83
894.34	225.91
894.65	225.86
894.95	225.69
895.26	225.70
895.57	225.81
895.87	225.34
896.18	225.47
896.48	225.47
896.79	225.49
897.10	225.52
897.40	225.48
897.71	225.49
898.01	225.48
898.32	225.51
898.63	225.48
898.93	225.49
899.24	225.50
899.54	225.41
899.85	225.42
900.15	225.40
900.46	225.40
900.76	225.41
901.07	225.44
901.38	225.42
901.68	225.46
901.99	225.27
902.29	225.31
902.60	225.22
902.90	225.16
903.21	225.17
903.51	225.12
903.82	225.23
904.12	225.27
904.43	225.24
904.73	225.28
905.03	225.28
905.34	225.68
905.64	225.70
905.95	225.72
906.25	225.66
906.56	225.67
906.86	225.67
907.17	225.55
907.47	225.56
907.77	225.58
908.08	225.46
908.38	225.54
908.69	225.53
908.99	225.65
909.30	225.73
909.60	225.64
909.90	225.69
910.21	225.56
910.51	225.47
910.81	225.46
911.12	225.48
911.42	225.51
911.73	225.02
912.03	225.14
912.33	225.29
912.64	225.37
912.94	225.39
913.24	225.33
913.55	225.34
913.85	225.32
914.15	225.43
914.46	225.55
914.76	225.45
915.06	225.54
915.37	225.46
915.67	225.46
915.97	225.47
916.27	225.34
916.58	225.40
916.88	225.44
917.18	225.37
917.49	225.68
917.79	225.72
918.09	225.89
918.39	226.01
918.70	225.95
919.00	225.93
919.30	226.10
919.60	226.15
919.91	226.16
920.21	226.21
920.51	226.11
920.81	226.10
921.12	226.21
921.42	226.16
921.72	226.20
922.02	226.20
922.32	226.33
922.63	226.44
922.93	226.69
923.23	226.65
923.53	226.68
923.83	226.35
924.13	226.38
924.44	226.38
924.74	226.48
925.04	226.65
925.34	226.64
925.64	226.48
925.94	226.37
926.24	226.66
926.55	226.67
926.85	226.76
927.15	226.74
927.45	226.73
927.75	226.72
928.05	226.73
928.35	226.62
928.65	226.66
928.95	226.71
929.26	226.56
929.56	226.66
929.86	226.71
930.16	226.69
930.46	226.67
930.76	226.68
931.06	226.38
931.36	226.20
931.66	226.35
931.96	226.40
932.26	226.49
932.56	226.24
932.86	226.24
933.16	226.19
933.46	226.06
933.76	226.01
934.06	226.09
934.36	226.28
934.66	226.33
934.96	226.23
935.26	226.20
935.56	226.18
935.86	226.06
936.16	226.00
936.46	226.00
936.76	225.94
937.06	225.85
937.36	225.90
937.66	225.90
937.96	225.82
938.26	225.66
938.56	225.64
938.86	225.66
939.16	225.67
939.46	225.72
939.76	225.86
940.06	225.82
940.35	225.72
940.65	225.33
940.95	225.38
941.25	225.29
941.55	225.20
941.85	225.17
942.15	225.23
942.45	225.36
942.75	225.26
943.04	225.27
943.34	225.33
943.64	225.30
943.94	225.22
944.24	225.20
944.54	225.24
944.84	225.22
945.13	225.17
945.43	225.14
945.73	225.07
946.03	224.97
946.33	224.94
946.62	224.88
946.92	225.00
947.22	225.01
947.52	225.13
947.82	225.13
948.11	225.07
948.41	224.99
948.71	224.86
949.01	224.88
949.31	224.81
949.60	224.80
949.90	224.86
950.20	224.90
950.50	224.87
950.79	224.86
951.09	224.90
951.39	224.89
951.69	224.78
951.98	224.94
952.28	224.98
952.58	224.96
952.87	224.99
953.17	225.07
953.47	225.06
953.76	224.96
954.06	224.90
954.36	224.90
954.66	224.94
954.95	225.11
955.25	225.16
955.55	225.22
955.84	225.13
956.14	225.14
956.44	225.18
956.73	225.19
957.03	225.27
957.32	225.27
957.62	225.25
957.92	225.43
958.21	225.32
958.51	225.89
958.81	226.00
959.10	226.05
959.40	226.19
959.69	226.20
959.99	226.32
960.29	226.41
960.58	226.43
960.88	226.68
961.17	226.64
961.47	226.68
961.76	226.73
962.06	226.88
962.36	226.88
962.65	226.90
962.95	226.88
963.24	226.82
963.54	226.89
963.83	226.99
964.13	227.01
964.42	226.96
964.72	226.52
965.01	226.58
965.31	226.60
965.60	226.40
965.90	226.72
966.19	226.64
966.49	226.67
966.78	226.71
967.08	226.61
967.37	226.60
967.67	226.59
967.96	226.61
968.26	226.54
968.55	226.63
968.85	226.61
969.14	226.65
969.43	226.67
969.73	226.62
970.02	226.60
970.32	226.48
970.61	226.46
970.91	226.42
971.20	226.28
971.49	226.25
971.79	226.38
972.08	226.05
972.38	226.08
972.67	226.08
972.96	226.09
973.26	226.03
973.55	226.18
973.85	226.11
974.14	226.10
974.43	226.13
974.73	225.99
975.02	226.00
975.31	225.96
975.61	225.97
975.90	225.89
976.19	225.87
976.49	225.90
976.78	225.97
977.07	225.91
977.37	225.97
977.66	226.00
977.95	225.86
978.24	225.90
978.54	225.93
978.83	225.82
979.12	225.79
979.42	225.76
979.71	225.60
980.00	225.60
980.29	225.56
980.59	225.47
980.88	225.55
981.17	225.48
981.46	225.45
981.76	225.47
982.05	225.58
982.34	225.63
982.63	225.65
982.93	225.61
983.22	225.74
983.51	225.70
983.80	225.72
984.09	225.80
984.39	225.73
984.68	225.69
984.97	225.71
985.26	225.68
985.55	225.71
985.85	225.61
986.14	225.61
986.43	225.69
986.72	225.69
987.01	225.58
987.30	225.55
987.59	225.52
987.89	225.46
988.18	225.35
988.47	225.23
988.76	225.19
989.05	225.10
989.34	224.99
989.63	225.08
989.92	224.95
990.22	224.94
990.51	224.89
990.80	224.85
991.09	224.95
991.38	224.99
991.67	224.88
991.96	224.88
992.25	224.95
992.54	224.83
992.83	224.85
993.12	224.82
993.41	224.93
993.70	225.16
993.99	225.33
994.28	225.40
994.58	225.50
994.87	225.44
995.16	225.44
995.45	225.42
995.74	225.36
996.03	225.54
996.32	225.62
996.61	225.80
996.90	225.77
997.19	225.74
997.48	225.70
997.77	225.71
998.06	225.68
998.34	225.66
998.63	225.69
998.92	225.72
999.21	225.74
999.50	225.76
999.79	225.60
1000.08	225.54
1000.37	225.57
1000.66	225.49
1000.95	225.65
1001.24	225.76
1001.53	225.88
1001.82	225.77
1002.11	225.64
1002.40	225.62
1002.68	225.76
1002.97	226.11
1003.26	226.09
1003.55	226.09
1003.84	226.13
1004.13	226.38
1004.42	226.38
1004.71	226.37
1004.99	226.35
1005.28	226.49
1005.57	226.43
1005.86	226.34
1006.15	226.26
1006.44	226.19
1006.72	226.25
1007.01	226.20
1007.30	226.18
1007.59	226.09
1007.88	226.22
1008.17	226.29
1008.45	226.11
1008.74	225.85
1009.03	225.65
1009.32	225.63
1009.60	225.59
1009.89	225.54
1010.18	225.30
1010.47	225.23
1010.76	225.25
1011.04	225.19
1011.33	225.21
1011.62	225.29
1011.91	225.37
1012.19	225.38
1012.48	225.40
1012.77	225.41
1013.05	225.55
1013.34	225.56
1013.63	225.54
1013.92	225.43
1014.20	225.35
1014.49	225.46
1014.78	225.47
1015.06	225.31
1015.35	225.27
1015.64	225.37
1015.92	225.46
1016.21	225.51
1016.50	225.52
1016.78	225.54
1017.07	225.62
1017.36	225.50
1017.64	225.30
1017.93	225.36
1018.22	225.28
1018.50	225.26
1018.79	225.16
1019.08	224.95
1019.36	224.92
1019.65	224.85
1019.93	225.08
1020.22	225.13
1020.51	225.37
1020.79	225.31
1021.08	223.15
1021.36	224.75
1021.65	223.95
1021.94	225.05
1022.22	225.00
1022.51	223.65
1022.79	228.65
1023.08	225.60
1023.36	231.10
1023.65	224.05
>>>>>End Processed Spectral Data<<<<<
