SpectraSuite Data File
++++++++++++++++++++++++++++++++++++
Date: Wed Sep 04 18:03:01 EDT 2013
User: lab3
Dark Spectrum Present: Yes
Reference Spectrum Present: No
Number of Sampled Component Spectra: 1
Spectrometers: USB2E7196
Integration Time (usec): 170000 (USB2E7196)
Spectra Averaged: 20 (USB2E7196)
Boxcar Smoothing: 10 (USB2E7196)
Correct for Electrical Dark: No (USB2E7196)
Strobe/Lamp Enabled: No (USB2E7196)
Correct for Detector Non-linearity: No (USB2E7196)
Correct for Stray Light: No (USB2E7196)
Number of Pixels in Processed Spectrum: 2048
>>>>>Begin Processed Spectral Data<<<<<
339.09	0.00
339.48	213.50
339.86	213.75
340.24	217.35
340.63	217.60
341.01	225.75
341.39	219.70
341.78	222.05
342.16	224.10
342.54	222.80
342.93	212.56
343.31	223.29
343.69	223.84
344.07	224.31
344.46	224.75
344.84	225.17
345.22	225.18
345.60	225.52
345.99	225.69
346.37	225.80
346.75	225.90
347.13	225.98
347.52	226.10
347.90	226.26
348.28	226.23
348.66	226.28
349.05	226.16
349.43	226.23
349.81	226.28
350.19	226.29
350.57	226.37
350.96	226.49
351.34	226.60
351.72	226.70
352.10	226.81
352.48	226.79
352.87	226.78
353.25	226.85
353.63	226.80
354.01	226.89
354.39	226.94
354.77	227.00
355.15	227.19
355.54	227.21
355.92	227.17
356.30	227.32
356.68	227.69
357.06	227.78
357.44	227.79
357.82	227.81
358.20	228.26
358.58	228.33
358.97	228.39
359.35	228.47
359.73	228.61
360.11	228.68
360.49	228.80
360.87	228.83
361.25	228.96
361.63	229.23
362.01	229.30
362.39	229.30
362.77	229.43
363.15	229.48
363.53	229.49
363.91	229.58
364.29	229.58
364.67	229.21
365.05	229.28
365.43	229.28
365.81	229.36
366.19	229.26
366.57	229.43
366.95	229.41
367.33	229.36
367.71	229.33
368.09	229.44
368.47	229.56
368.85	229.61
369.23	229.67
369.61	229.55
369.99	229.70
370.37	229.76
370.75	229.96
371.13	229.79
371.51	229.70
371.89	229.70
372.27	229.70
372.65	229.63
373.03	229.57
373.41	229.60
373.78	229.55
374.16	229.22
374.54	229.13
374.92	229.11
375.30	229.12
375.68	228.97
376.06	228.88
376.44	228.70
376.82	228.62
377.19	228.50
377.57	228.34
377.95	228.14
378.33	228.06
378.71	227.69
379.09	227.73
379.47	227.76
379.84	227.71
380.22	227.55
380.60	227.43
380.98	227.32
381.36	227.16
381.73	226.98
382.11	226.95
382.49	226.86
382.87	226.69
383.25	226.59
383.62	227.08
384.00	226.97
384.38	226.95
384.76	227.05
385.13	227.11
385.51	227.10
385.89	226.92
386.27	226.94
386.64	226.97
387.02	226.92
387.40	226.78
387.78	226.68
388.15	226.71
388.53	226.70
388.91	226.69
389.29	226.65
389.66	226.75
390.04	226.70
390.42	226.82
390.79	226.82
391.17	226.81
391.55	226.21
391.92	226.16
392.30	226.20
392.68	226.10
393.05	226.15
393.43	226.13
393.81	226.21
394.18	226.19
394.56	226.21
394.94	226.30
395.31	226.23
395.69	226.48
396.06	226.55
396.44	226.63
396.82	226.69
397.19	227.05
397.57	227.05
397.95	227.17
398.32	227.03
398.70	227.25
399.07	227.43
399.45	227.64
399.82	227.79
400.20	227.74
400.58	227.88
400.95	227.79
401.33	228.05
401.70	228.49
402.08	228.59
402.45	228.75
402.83	229.00
403.20	229.25
403.58	229.25
403.95	229.48
404.33	229.80
404.71	229.98
405.08	230.48
405.46	230.72
405.83	231.06
406.21	231.33
406.58	231.53
406.96	231.75
407.33	232.06
407.70	232.47
408.08	233.30
408.45	233.73
408.83	234.20
409.20	234.56
409.58	234.76
409.95	235.32
410.33	235.89
410.70	236.22
411.08	236.94
411.45	237.57
411.82	238.07
412.20	238.79
412.57	239.80
412.95	240.06
413.32	240.92
413.69	241.66
414.07	242.56
414.44	243.57
414.82	244.64
415.19	245.80
415.56	246.91
415.94	247.95
416.31	249.38
416.68	250.87
417.06	252.48
417.43	254.15
417.81	255.96
418.18	257.74
418.55	259.74
418.93	261.73
419.30	263.85
419.67	266.18
420.04	268.40
420.42	270.78
420.79	273.80
421.16	276.63
421.54	279.76
421.91	282.81
422.28	285.94
422.66	289.20
423.03	292.72
423.40	296.11
423.77	299.59
424.15	303.11
424.52	306.95
424.89	311.13
425.26	315.05
425.64	318.70
426.01	323.02
426.38	327.45
426.75	332.00
427.13	336.52
427.50	341.33
427.87	346.26
428.24	351.15
428.61	355.67
428.99	360.98
429.36	366.35
429.73	371.92
430.10	377.47
430.47	383.21
430.85	388.80
431.22	395.02
431.59	401.88
431.96	408.17
432.33	415.05
432.70	421.77
433.08	429.49
433.45	437.12
433.82	444.43
434.19	452.75
434.56	460.90
434.93	468.69
435.30	476.46
435.68	485.18
436.05	493.67
436.42	502.14
436.79	509.97
437.16	518.42
437.53	527.30
437.90	536.03
438.27	544.68
438.64	553.77
439.01	562.16
439.38	569.36
439.75	576.45
440.13	584.69
440.50	592.19
440.87	598.59
441.24	605.05
441.61	612.02
441.98	617.15
442.35	622.96
442.72	629.07
443.09	634.98
443.46	638.45
443.83	640.75
444.20	642.74
444.57	645.34
444.94	646.44
445.31	647.58
445.68	648.93
446.05	649.22
446.42	647.85
446.79	646.35
447.16	644.73
447.53	643.55
447.90	639.70
448.27	636.13
448.64	631.30
449.01	627.54
449.37	621.32
449.74	615.07
450.11	608.21
450.48	600.46
450.85	592.36
451.22	585.45
451.59	578.90
451.96	572.62
452.33	564.54
452.70	557.15
453.07	548.35
453.43	539.26
453.80	530.76
454.17	522.80
454.54	515.06
454.91	506.82
455.28	498.78
455.65	491.40
456.02	484.39
456.38	477.86
456.75	469.95
457.12	463.45
457.49	457.20
457.86	450.79
458.23	445.60
458.59	439.78
458.96	433.87
459.33	428.69
459.70	423.44
460.07	419.31
460.43	414.54
460.80	410.23
461.17	406.37
461.54	402.29
461.91	398.27
462.27	394.42
462.64	391.15
463.01	387.60
463.38	384.12
463.74	380.11
464.11	377.05
464.48	374.43
464.85	371.55
465.21	369.42
465.58	367.07
465.95	364.06
466.32	361.89
466.68	359.63
467.05	357.36
467.42	355.20
467.78	352.81
468.15	350.70
468.52	349.13
468.88	346.93
469.25	345.00
469.62	343.63
469.98	341.96
470.35	340.45
470.72	338.96
471.08	337.28
471.45	336.09
471.82	334.83
472.18	333.30
472.55	332.31
472.92	330.94
473.28	329.81
473.65	328.80
474.02	327.73
474.38	326.89
474.75	326.09
475.11	325.09
475.48	324.45
475.85	323.87
476.21	323.12
476.58	322.65
476.94	322.22
477.31	321.62
477.67	321.18
478.04	320.79
478.41	320.59
478.77	320.91
479.14	320.60
479.50	320.48
479.87	320.61
480.23	320.52
480.60	320.43
480.96	320.49
481.33	320.84
481.69	321.08
482.06	321.19
482.42	321.57
482.79	321.97
483.15	322.38
483.52	322.94
483.88	323.52
484.25	323.94
484.61	324.51
484.98	325.19
485.34	326.16
485.71	327.21
486.07	328.17
486.44	328.70
486.80	329.83
487.17	330.97
487.53	332.26
487.90	333.70
488.26	335.41
488.62	337.07
488.99	338.60
489.35	340.42
489.72	342.36
490.08	344.31
490.44	346.46
490.81	348.70
491.17	350.95
491.54	353.52
491.90	356.11
492.26	358.81
492.63	361.63
492.99	364.39
493.36	367.32
493.72	370.66
494.08	374.13
494.45	377.74
494.81	381.66
495.17	385.69
495.54	389.94
495.90	394.09
496.26	398.53
496.63	403.20
496.99	407.98
497.35	413.09
497.72	418.32
498.08	423.81
498.44	429.44
498.80	435.52
499.17	441.46
499.53	447.78
499.89	454.61
500.26	461.48
500.62	468.60
500.98	476.16
501.34	483.59
501.71	491.44
502.07	499.34
502.43	507.38
502.79	515.79
503.16	524.46
503.52	533.60
503.88	542.90
504.24	552.67
504.60	562.64
504.97	573.05
505.33	583.52
505.69	594.71
506.05	605.70
506.41	616.91
506.78	628.53
507.14	640.75
507.50	652.95
507.86	665.67
508.22	678.59
508.59	691.52
508.95	705.26
509.31	719.32
509.67	733.66
510.03	748.04
510.39	762.71
510.75	777.74
511.12	792.85
511.48	808.48
511.84	824.05
512.20	840.04
512.56	856.09
512.92	872.99
513.28	889.47
513.64	906.95
514.00	924.50
514.37	942.70
514.73	960.82
515.09	979.15
515.45	997.54
515.81	1016.09
516.17	1035.02
516.53	1053.85
516.89	1072.52
517.25	1092.04
517.61	1112.37
517.97	1132.83
518.33	1152.78
518.69	1173.36
519.05	1193.94
519.41	1214.76
519.77	1236.01
520.13	1257.07
520.49	1277.92
520.85	1300.45
521.21	1321.94
521.57	1343.31
521.93	1363.83
522.29	1385.03
522.65	1405.83
523.01	1426.81
523.37	1447.39
523.73	1468.65
524.09	1489.12
524.45	1510.30
524.81	1531.40
525.17	1552.13
525.53	1572.55
525.89	1593.54
526.25	1614.29
526.61	1634.80
526.97	1655.99
527.33	1677.22
527.68	1699.11
528.04	1720.36
528.40	1740.12
528.76	1761.08
529.12	1781.42
529.48	1802.61
529.84	1822.97
530.20	1844.18
530.56	1865.43
530.91	1886.60
531.27	1907.03
531.63	1928.04
531.99	1948.53
532.35	1968.55
532.71	1988.94
533.07	2009.92
533.42	2029.88
533.78	2049.98
534.14	2069.95
534.50	2089.20
534.86	2108.45
535.21	2126.04
535.57	2144.90
535.93	2162.82
536.29	2180.57
536.65	2199.07
537.00	2216.66
537.36	2234.39
537.72	2251.14
538.08	2268.22
538.44	2284.93
538.79	2301.36
539.15	2317.85
539.51	2333.96
539.87	2349.09
540.22	2363.02
540.58	2377.31
540.94	2391.20
541.29	2404.36
541.65	2417.25
542.01	2429.92
542.37	2440.76
542.72	2451.97
543.08	2462.65
543.44	2474.44
543.79	2484.74
544.15	2494.93
544.51	2505.07
544.87	2514.60
545.22	2523.08
545.58	2530.80
545.94	2538.48
546.29	2545.38
546.65	2551.49
547.01	2557.31
547.36	2563.12
547.72	2568.94
548.07	2573.22
548.43	2578.47
548.79	2582.90
549.14	2587.00
549.50	2590.74
549.86	2594.95
550.21	2598.57
550.57	2601.72
550.92	2603.18
551.28	2604.73
551.64	2606.83
551.99	2608.78
552.35	2610.70
552.70	2613.12
553.06	2614.92
553.41	2616.07
553.77	2617.92
554.13	2620.24
554.48	2621.90
554.84	2623.22
555.19	2624.42
555.55	2625.74
555.90	2624.84
556.26	2624.23
556.61	2622.57
556.97	2620.69
557.32	2620.07
557.68	2619.19
558.03	2618.20
558.39	2617.19
558.74	2616.02
559.10	2612.87
559.45	2609.40
559.81	2604.84
560.16	2599.89
560.52	2595.22
560.87	2591.07
561.23	2585.52
561.58	2579.04
561.94	2572.03
562.29	2564.74
562.64	2557.76
563.00	2549.79
563.35	2543.63
563.71	2536.90
564.06	2530.92
564.42	2524.77
564.77	2517.85
565.12	2510.43
565.48	2502.60
565.83	2494.86
566.19	2486.90
566.54	2479.18
566.89	2470.77
567.25	2463.29
567.60	2456.14
567.96	2448.58
568.31	2440.56
568.66	2432.02
569.02	2423.43
569.37	2415.44
569.72	2407.70
570.08	2398.36
570.43	2389.20
570.78	2380.06
571.14	2370.78
571.49	2360.45
571.84	2350.65
572.20	2339.45
572.55	2329.40
572.90	2318.47
573.26	2307.96
573.61	2297.03
573.96	2285.79
574.31	2274.07
574.67	2262.40
575.02	2249.40
575.37	2236.41
575.72	2223.03
576.08	2210.59
576.43	2197.93
576.78	2184.70
577.13	2171.22
577.49	2158.85
577.84	2146.69
578.19	2134.40
578.54	2121.61
578.90	2109.88
579.25	2097.51
579.60	2085.05
579.95	2071.87
580.30	2058.34
580.66	2044.62
581.01	2031.07
581.36	2017.30
581.71	2004.65
582.06	1991.22
582.42	1978.61
582.77	1965.98
583.12	1954.15
583.47	1941.85
583.82	1929.90
584.17	1917.87
584.53	1905.91
584.88	1892.99
585.23	1879.66
585.58	1865.32
585.93	1852.13
586.28	1838.47
586.63	1824.23
586.98	1810.00
587.34	1796.96
587.69	1783.98
588.04	1771.36
588.39	1759.18
588.74	1746.71
589.09	1734.37
589.44	1721.45
589.79	1709.64
590.14	1697.69
590.49	1685.12
590.84	1672.81
591.19	1660.41
591.54	1647.86
591.89	1635.55
592.25	1624.86
592.60	1613.49
592.95	1602.00
593.30	1589.67
593.65	1577.77
594.00	1565.69
594.35	1555.84
594.70	1543.61
595.05	1532.18
595.40	1519.95
595.75	1507.72
596.10	1496.44
596.45	1484.80
596.80	1474.02
597.15	1462.03
597.50	1450.05
597.85	1438.80
598.19	1427.17
598.54	1415.30
598.89	1403.90
599.24	1393.24
599.59	1381.62
599.94	1370.77
600.29	1360.41
600.64	1350.17
600.99	1339.36
601.34	1329.76
601.69	1318.45
602.04	1308.54
602.39	1298.66
602.74	1289.30
603.08	1280.07
603.43	1270.54
603.78	1260.85
604.13	1251.20
604.48	1241.56
604.83	1231.85
605.18	1221.95
605.53	1212.42
605.87	1203.42
606.22	1194.78
606.57	1185.33
606.92	1175.68
607.27	1166.33
607.62	1157.32
607.96	1148.66
608.31	1140.57
608.66	1132.08
609.01	1123.39
609.36	1114.65
609.70	1105.94
610.05	1097.22
610.40	1088.45
610.75	1079.83
611.10	1071.53
611.44	1062.64
611.79	1054.40
612.14	1046.45
612.49	1038.51
612.83	1030.97
613.18	1023.06
613.53	1015.16
613.88	1007.28
614.22	999.52
614.57	991.65
614.92	983.73
615.27	976.08
615.61	968.10
615.96	960.38
616.31	952.80
616.65	945.96
617.00	938.55
617.35	931.46
617.70	924.14
618.04	916.90
618.39	909.76
618.74	903.34
619.08	896.42
619.43	889.20
619.78	881.95
620.12	874.69
620.47	867.77
620.82	860.67
621.16	853.70
621.51	847.44
621.85	841.12
622.20	834.56
622.55	827.86
622.89	821.31
623.24	814.76
623.59	808.38
623.93	801.89
624.28	795.77
624.62	789.83
624.97	784.16
625.32	778.18
625.66	771.98
626.01	765.68
626.35	760.04
626.70	754.57
627.04	749.41
627.39	743.84
627.73	738.45
628.08	733.20
628.43	727.80
628.77	722.18
629.12	716.70
629.46	711.78
629.81	707.05
630.15	702.39
630.50	697.33
630.84	692.45
631.19	687.54
631.53	682.87
631.88	677.65
632.22	672.70
632.57	668.37
632.91	663.96
633.26	659.73
633.60	655.18
633.95	650.46
634.29	645.63
634.64	641.26
634.98	636.42
635.32	632.08
635.67	627.96
636.01	623.74
636.36	619.47
636.70	615.35
637.05	611.10
637.39	606.93
637.73	602.87
638.08	598.84
638.42	594.64
638.77	590.24
639.11	585.95
639.45	581.51
639.80	576.95
640.14	572.84
640.49	568.89
640.83	565.00
641.17	561.37
641.52	557.56
641.86	553.91
642.20	550.75
642.55	547.01
642.89	543.40
643.23	539.81
643.58	536.55
643.92	532.85
644.26	529.45
644.61	526.09
644.95	522.77
645.29	519.35
645.64	516.15
645.98	513.15
646.32	510.17
646.66	507.19
647.01	504.15
647.35	501.29
647.69	498.29
648.04	495.42
648.38	492.53
648.72	489.65
649.06	486.56
649.41	483.43
649.75	480.49
650.09	477.65
650.43	474.74
650.78	471.80
651.12	468.96
651.46	466.16
651.80	463.30
652.14	460.53
652.49	457.99
652.83	455.37
653.17	452.78
653.51	449.98
653.85	447.46
654.20	445.01
654.54	442.41
654.88	439.77
655.22	437.47
655.56	435.08
655.90	432.74
656.25	430.48
656.59	428.26
656.93	426.01
657.27	423.88
657.61	421.62
657.95	419.35
658.29	417.26
658.64	415.06
658.98	412.85
659.32	410.68
659.66	408.47
660.00	406.37
660.34	404.22
660.68	402.27
661.02	400.27
661.36	398.29
661.70	396.26
662.05	394.25
662.39	392.23
662.73	390.28
663.07	388.70
663.41	386.86
663.75	384.86
664.09	382.97
664.43	380.89
664.77	379.14
665.11	377.35
665.45	375.59
665.79	373.98
666.13	372.23
666.47	370.51
666.81	368.85
667.15	366.99
667.49	365.43
667.83	364.01
668.17	362.40
668.51	361.00
668.85	359.56
669.19	358.46
669.53	356.83
669.87	355.29
670.21	353.63
670.55	352.21
670.89	351.13
671.23	349.83
671.57	348.62
671.91	347.20
672.25	345.90
672.58	344.77
672.92	343.27
673.26	342.09
673.60	340.92
673.94	339.76
674.28	338.79
674.62	337.67
674.96	336.45
675.30	335.36
675.64	334.09
675.97	332.86
676.31	331.51
676.65	330.36
676.99	329.50
677.33	328.31
677.67	327.18
678.01	325.85
678.34	324.82
678.68	323.77
679.02	322.78
679.36	321.75
679.70	320.57
680.04	319.65
680.37	318.78
680.71	317.77
681.05	316.77
681.39	315.80
681.73	314.77
682.06	313.81
682.40	312.95
682.74	312.13
683.08	311.37
683.42	310.47
683.75	309.63
684.09	308.54
684.43	307.73
684.77	306.87
685.10	306.07
685.44	305.22
685.78	304.42
686.12	303.66
686.45	302.95
686.79	302.17
687.13	301.48
687.46	300.64
687.80	299.98
688.14	299.15
688.48	298.38
688.81	297.60
689.15	296.98
689.49	296.22
689.82	295.48
690.16	294.59
690.50	293.91
690.83	293.21
691.17	292.52
691.51	291.88
691.84	291.28
692.18	290.60
692.52	289.95
692.85	289.32
693.19	288.87
693.52	288.16
693.86	287.44
694.20	286.77
694.53	286.19
694.87	285.55
695.21	285.02
695.54	284.39
695.88	283.77
696.21	282.95
696.55	282.37
696.88	281.70
697.22	281.16
697.56	280.59
697.89	279.98
698.23	279.44
698.56	278.88
698.90	278.41
699.23	277.86
699.57	277.34
699.90	276.83
700.24	276.07
700.58	275.66
700.91	275.26
701.25	275.09
701.58	274.91
701.92	274.47
702.25	273.96
702.59	273.56
702.92	273.18
703.26	272.81
703.59	272.28
703.93	272.33
704.26	271.93
704.60	271.51
704.93	271.08
705.26	270.55
705.60	270.15
705.93	269.62
706.27	269.37
706.60	269.05
706.94	268.85
707.27	268.53
707.61	268.17
707.94	267.74
708.27	267.04
708.61	266.33
708.94	265.91
709.28	265.57
709.61	265.10
709.94	264.71
710.28	264.36
710.61	264.08
710.95	263.33
711.28	263.27
711.61	262.91
711.95	262.75
712.28	262.43
712.61	262.10
712.95	262.01
713.28	261.83
713.61	261.41
713.95	260.93
714.28	260.64
714.61	260.20
714.95	259.99
715.28	259.60
715.61	259.21
715.95	258.95
716.28	258.60
716.61	258.35
716.95	258.05
717.28	257.71
717.61	257.35
717.94	257.07
718.28	256.47
718.61	256.09
718.94	255.65
719.27	255.39
719.61	255.08
719.94	254.68
720.27	254.17
720.60	253.93
720.94	253.59
721.27	253.30
721.60	253.22
721.93	252.87
722.27	252.90
722.60	252.76
722.93	252.52
723.26	252.35
723.59	252.08
723.93	251.95
724.26	251.73
724.59	251.60
724.92	251.35
725.25	251.32
725.59	251.19
725.92	251.02
726.25	250.85
726.58	250.73
726.91	250.50
727.24	250.40
727.57	250.23
727.91	250.04
728.24	249.83
728.57	249.50
728.90	249.40
729.23	248.90
729.56	248.96
729.89	248.74
730.22	248.51
730.55	248.32
730.89	248.07
731.22	247.90
731.55	247.58
731.88	247.53
732.21	247.22
732.54	246.96
732.87	246.81
733.20	246.61
733.53	246.41
733.86	246.31
734.19	245.99
734.52	245.90
734.85	246.03
735.18	245.90
735.51	245.88
735.84	245.67
736.17	245.74
736.50	245.27
736.83	245.67
737.16	245.51
737.49	245.42
737.82	245.25
738.15	245.16
738.48	245.02
738.81	244.82
739.14	244.61
739.47	244.44
739.80	244.33
740.13	244.20
740.46	243.99
740.79	243.67
741.12	243.51
741.45	243.18
741.78	242.76
742.11	242.67
742.44	242.43
742.77	242.37
743.10	242.07
743.43	241.87
743.75	241.18
744.08	241.62
744.41	241.44
744.74	241.28
745.07	241.06
745.40	241.08
745.73	241.08
746.06	240.96
746.39	240.90
746.71	240.69
747.04	240.50
747.37	240.25
747.70	240.26
748.03	240.16
748.36	240.18
748.68	240.03
749.01	239.75
749.34	239.64
749.67	239.55
750.00	239.55
750.33	239.86
750.65	239.81
750.98	239.15
751.31	239.07
751.64	239.00
751.97	239.07
752.29	238.88
752.62	238.57
752.95	238.38
753.28	238.22
753.60	238.10
753.93	238.19
754.26	238.26
754.59	238.07
754.91	237.85
755.24	237.70
755.57	237.60
755.90	237.51
756.22	237.39
756.55	237.18
756.88	236.97
757.20	236.49
757.53	236.28
757.86	236.17
758.19	236.06
758.51	235.99
758.84	235.72
759.17	235.57
759.49	235.49
759.82	235.67
760.15	235.68
760.47	235.60
760.80	235.33
761.13	235.32
761.45	235.21
761.78	235.29
762.11	235.14
762.43	235.03
762.76	234.95
763.08	234.91
763.41	234.85
763.74	234.85
764.06	234.87
764.39	234.80
764.71	234.75
765.04	234.63
765.37	234.45
765.69	234.41
766.02	234.32
766.34	234.23
766.67	234.01
767.00	233.99
767.32	234.20
767.65	234.46
767.97	234.29
768.30	234.26
768.62	234.23
768.95	234.15
769.27	234.07
769.60	234.13
769.92	234.00
770.25	233.86
770.57	233.63
770.90	233.45
771.22	233.41
771.55	233.29
771.87	233.30
772.20	233.26
772.52	233.58
772.85	234.17
773.17	234.14
773.50	234.06
773.82	233.91
774.15	233.60
774.47	233.20
774.80	233.08
775.12	232.96
775.45	232.79
775.77	232.76
776.09	232.74
776.42	232.63
776.74	232.72
777.07	232.65
777.39	232.61
777.72	232.56
778.04	232.46
778.36	232.42
778.69	232.35
779.01	232.32
779.33	231.86
779.66	231.24
779.98	231.23
780.31	231.18
780.63	231.35
780.95	231.38
781.28	231.32
781.60	231.30
781.92	231.30
782.25	231.25
782.57	231.23
782.89	231.20
783.22	231.19
783.54	231.02
783.86	231.04
784.19	231.01
784.51	231.15
784.83	231.10
785.16	231.05
785.48	230.96
785.80	230.95
786.12	230.95
786.45	230.88
786.77	230.77
787.09	230.73
787.42	230.54
787.74	230.47
788.06	230.47
788.38	230.47
788.71	230.40
789.03	230.41
789.35	230.41
789.67	230.28
789.99	230.18
790.32	230.05
790.64	230.10
790.96	230.50
791.28	230.32
791.61	230.27
791.93	230.33
792.25	230.35
792.57	230.63
792.89	230.52
793.21	230.58
793.54	230.56
793.86	230.48
794.18	230.42
794.50	230.41
794.82	230.45
795.14	230.44
795.47	230.49
795.79	230.44
796.11	230.36
796.43	230.36
796.75	230.42
797.07	230.51
797.39	230.44
797.71	230.07
798.04	230.05
798.36	230.00
798.68	229.94
799.00	229.92
799.32	229.67
799.64	229.76
799.96	229.79
800.28	229.92
800.60	229.91
800.92	229.88
801.24	229.81
801.56	229.81
801.89	229.74
802.21	229.75
802.53	229.74
802.85	229.80
803.17	230.11
803.49	229.97
803.81	229.90
804.13	229.87
804.45	229.86
804.77	229.85
805.09	229.90
805.41	229.86
805.73	229.76
806.05	229.67
806.37	229.59
806.69	229.42
807.01	229.32
807.33	229.34
807.65	229.29
807.97	229.46
808.28	229.40
808.60	229.41
808.92	229.35
809.24	229.64
809.56	229.60
809.88	229.37
810.20	229.42
810.52	229.51
810.84	229.40
811.16	229.28
811.48	229.29
811.80	229.44
812.12	229.33
812.43	229.47
812.75	229.49
813.07	229.42
813.39	229.51
813.71	229.42
814.03	229.39
814.35	229.35
814.67	229.16
814.98	229.14
815.30	229.08
815.62	228.98
815.94	228.61
816.26	228.74
816.58	228.53
816.89	228.53
817.21	228.36
817.53	228.42
817.85	228.55
818.17	228.52
818.48	228.30
818.80	228.41
819.12	228.27
819.44	228.10
819.76	228.02
820.07	227.98
820.39	227.98
820.71	227.96
821.03	227.91
821.34	227.90
821.66	227.94
821.98	228.03
822.30	228.00
822.61	228.29
822.93	228.14
823.25	228.21
823.57	228.15
823.88	228.30
824.20	228.30
824.52	228.29
824.83	228.27
825.15	228.20
825.47	228.18
825.79	228.31
826.10	228.31
826.42	228.33
826.74	228.28
827.05	228.20
827.37	228.19
827.69	228.24
828.00	228.19
828.32	228.17
828.64	228.09
828.95	228.31
829.27	228.16
829.58	228.16
829.90	228.20
830.22	228.23
830.53	228.06
830.85	228.03
831.17	227.86
831.48	227.85
831.80	227.95
832.11	227.93
832.43	227.86
832.75	227.84
833.06	228.13
833.38	228.06
833.69	228.07
834.01	228.08
834.32	228.07
834.64	228.00
834.96	227.95
835.27	227.95
835.59	227.77
835.90	227.73
836.22	227.61
836.53	227.57
836.85	227.53
837.16	228.06
837.48	228.00
837.79	228.21
838.11	228.27
838.42	228.24
838.74	228.31
839.05	228.23
839.37	228.27
839.68	227.97
840.00	227.95
840.31	228.10
840.63	228.14
840.94	228.11
841.26	228.08
841.57	228.16
841.88	228.21
842.20	228.20
842.51	228.09
842.83	228.15
843.14	228.54
843.46	228.59
843.77	228.22
844.08	228.28
844.40	228.14
844.71	228.06
845.03	228.05
845.34	227.92
845.65	227.92
845.97	227.93
846.28	227.99
846.60	228.05
846.91	227.90
847.22	227.88
847.54	228.00
847.85	228.09
848.16	227.95
848.48	227.88
848.79	228.10
849.10	228.18
849.42	228.13
849.73	227.71
850.04	227.68
850.36	227.61
850.67	227.67
850.98	227.68
851.30	227.78
851.61	227.72
851.92	227.74
852.23	227.85
852.55	227.91
852.86	227.90
853.17	227.88
853.49	228.01
853.80	228.11
854.11	228.11
854.42	228.12
854.74	228.08
855.05	228.06
855.36	227.77
855.67	227.80
855.99	227.81
856.30	228.38
856.61	228.30
856.92	228.30
857.23	228.26
857.55	228.20
857.86	228.08
858.17	228.19
858.48	228.14
858.79	228.10
859.11	228.07
859.42	228.02
859.73	227.90
860.04	227.84
860.35	227.59
860.66	227.38
860.98	227.35
861.29	227.42
861.60	227.33
861.91	227.45
862.22	227.30
862.53	227.24
862.84	226.62
863.16	226.78
863.47	226.66
863.78	226.57
864.09	226.64
864.40	226.71
864.71	226.67
865.02	226.71
865.33	226.60
865.64	226.48
865.95	226.48
866.27	226.84
866.58	226.75
866.89	226.83
867.20	226.88
867.51	226.78
867.82	226.74
868.13	226.94
868.44	226.80
868.75	226.99
869.06	226.97
869.37	227.05
869.68	226.88
869.99	226.96
870.30	227.09
870.61	227.11
870.92	227.05
871.23	226.93
871.54	226.96
871.85	227.04
872.16	227.16
872.47	227.13
872.78	226.77
873.09	226.89
873.40	226.80
873.71	226.87
874.02	226.93
874.33	226.91
874.64	226.80
874.95	226.92
875.26	226.80
875.56	226.84
875.87	226.87
876.18	226.83
876.49	227.24
876.80	227.10
877.11	226.94
877.42	226.92
877.73	227.03
878.04	226.98
878.35	227.07
878.66	227.08
878.96	227.10
879.27	227.24
879.58	227.13
879.89	227.24
880.20	227.32
880.51	227.31
880.82	227.33
881.12	227.37
881.43	227.20
881.74	227.09
882.05	227.16
882.36	227.19
882.67	227.27
882.97	226.82
883.28	226.83
883.59	226.90
883.90	226.93
884.21	226.99
884.51	226.96
884.82	226.92
885.13	226.91
885.44	226.93
885.74	226.86
886.05	226.91
886.36	226.89
886.67	226.78
886.98	227.05
887.28	227.12
887.59	227.07
887.90	227.12
888.20	227.15
888.51	227.10
888.82	226.93
889.13	226.99
889.43	227.43
889.74	227.42
890.05	227.42
890.35	227.35
890.66	227.24
890.97	227.20
891.28	227.10
891.58	227.08
891.89	227.07
892.20	227.03
892.50	226.95
892.81	226.90
893.12	226.86
893.42	226.59
893.73	226.60
894.04	226.59
894.34	226.65
894.65	226.64
894.95	226.62
895.26	226.66
895.57	226.79
895.87	226.31
896.18	226.36
896.48	226.37
896.79	226.39
897.10	226.52
897.40	226.56
897.71	226.60
898.01	226.59
898.32	226.56
898.63	226.55
898.93	226.69
899.24	226.75
899.54	226.75
899.85	226.83
900.15	226.75
900.46	226.80
900.76	226.87
901.07	226.85
901.38	226.89
901.68	226.97
901.99	226.70
902.29	226.73
902.60	226.68
902.90	226.62
903.21	226.59
903.51	226.48
903.82	226.53
904.12	226.52
904.43	226.52
904.73	226.54
905.03	226.59
905.34	226.92
905.64	226.90
905.95	226.83
906.25	226.75
906.56	226.76
906.86	226.72
907.17	226.64
907.47	226.75
907.77	226.68
908.08	226.60
908.38	226.70
908.69	226.74
908.99	226.86
909.30	226.94
909.60	226.98
909.90	227.02
910.21	226.95
910.51	226.90
910.81	226.89
911.12	226.91
911.42	226.90
911.73	226.42
912.03	226.43
912.33	226.63
912.64	226.61
912.94	226.56
913.24	226.50
913.55	226.52
913.85	226.44
914.15	226.56
914.46	226.63
914.76	226.61
915.06	226.56
915.37	226.49
915.67	226.47
915.97	226.46
916.27	226.35
916.58	226.39
916.88	226.40
917.18	226.42
917.49	226.76
917.79	226.76
918.09	226.86
918.39	227.00
918.70	226.99
919.00	227.00
919.30	227.30
919.60	227.30
919.91	227.25
920.21	227.31
920.51	227.20
920.81	227.13
921.12	227.17
921.42	227.19
921.72	227.19
922.02	227.22
922.32	227.29
922.63	227.35
922.93	227.47
923.23	227.57
923.53	227.56
923.83	227.28
924.13	227.36
924.44	227.47
924.74	227.50
925.04	227.54
925.34	227.56
925.64	227.33
925.94	227.32
926.24	227.55
926.55	227.45
926.85	227.54
927.15	227.57
927.45	227.55
927.75	227.57
928.05	227.61
928.35	227.50
928.65	227.55
928.95	227.58
929.26	227.47
929.56	227.49
929.86	227.47
930.16	227.38
930.46	227.35
930.76	227.28
931.06	227.03
931.36	226.86
931.66	226.97
931.96	227.01
932.26	227.04
932.56	226.82
932.86	226.86
933.16	226.85
933.46	226.78
933.76	226.72
934.06	226.81
934.36	226.86
934.66	226.93
934.96	226.88
935.26	226.83
935.56	226.88
935.86	226.69
936.16	226.62
936.46	226.59
936.76	226.53
937.06	226.40
937.36	226.43
937.66	226.56
937.96	226.46
938.26	226.32
938.56	226.21
938.86	226.28
939.16	226.33
939.46	226.33
939.76	226.34
940.06	226.42
940.35	226.27
940.65	226.04
940.95	225.97
941.25	225.81
941.55	225.76
941.85	225.69
942.15	225.78
942.45	225.96
942.75	225.98
943.04	225.90
943.34	226.01
943.64	225.97
943.94	225.78
944.24	225.73
944.54	225.79
944.84	225.82
945.13	225.70
945.43	225.64
945.73	225.58
946.03	225.57
946.33	225.45
946.62	225.40
946.92	225.41
947.22	225.50
947.52	225.55
947.82	225.60
948.11	225.59
948.41	225.57
948.71	225.37
949.01	225.32
949.31	225.43
949.60	225.39
949.90	225.49
950.20	225.45
950.50	225.56
950.79	225.54
951.09	225.61
951.39	225.62
951.69	225.60
951.98	225.74
952.28	225.72
952.58	225.73
952.87	225.77
953.17	225.90
953.47	225.83
953.76	225.87
954.06	225.88
954.36	225.82
954.66	225.84
954.95	225.99
955.25	226.11
955.55	226.11
955.84	226.02
956.14	226.06
956.44	226.16
956.73	226.07
957.03	226.15
957.32	226.18
957.62	226.17
957.92	226.35
958.21	226.35
958.51	226.98
958.81	227.02
959.10	227.07
959.40	227.16
959.69	227.30
959.99	227.39
960.29	227.39
960.58	227.41
960.88	227.58
961.17	227.57
961.47	227.62
961.76	227.59
962.06	227.73
962.36	227.70
962.65	227.72
962.95	227.79
963.24	227.77
963.54	227.76
963.83	227.85
964.13	227.79
964.42	227.64
964.72	227.16
965.01	227.21
965.31	227.18
965.60	227.08
965.90	227.32
966.19	227.19
966.49	227.24
966.78	227.26
967.08	227.17
967.37	227.16
967.67	227.11
967.96	227.17
968.26	227.07
968.55	227.09
968.85	227.16
969.14	227.13
969.43	227.13
969.73	227.14
970.02	227.04
970.32	226.99
970.61	226.98
970.91	226.94
971.20	226.83
971.49	226.75
971.79	226.76
972.08	226.37
972.38	226.42
972.67	226.33
972.96	226.35
973.26	226.27
973.55	226.37
973.85	226.28
974.14	226.21
974.43	226.32
974.73	226.29
975.02	226.18
975.31	226.21
975.61	226.11
975.90	226.04
976.19	226.04
976.49	226.05
976.78	226.02
977.07	226.01
977.37	226.03
977.66	226.13
977.95	226.00
978.24	226.04
978.54	226.08
978.83	226.06
979.12	226.10
979.42	226.06
979.71	225.98
980.00	225.99
980.29	226.02
980.59	225.87
980.88	225.87
981.17	225.79
981.46	225.72
981.76	225.72
982.05	225.85
982.34	225.78
982.63	225.80
982.93	225.78
983.22	225.88
983.51	225.89
983.80	225.89
984.09	226.02
984.39	226.00
984.68	225.97
984.97	225.99
985.26	225.91
985.55	225.99
985.85	225.87
986.14	225.93
986.43	225.99
986.72	226.04
987.01	225.95
987.30	226.02
987.59	225.98
987.89	226.02
988.18	225.95
988.47	225.98
988.76	225.98
989.05	225.99
989.34	225.87
989.63	226.02
989.92	225.99
990.22	225.94
990.51	225.95
990.80	225.87
991.09	225.88
991.38	225.89
991.67	225.87
991.96	225.80
992.25	225.78
992.54	225.68
992.83	225.68
993.12	225.69
993.41	225.79
993.70	226.05
993.99	226.17
994.28	226.21
994.58	226.29
994.87	226.27
995.16	226.33
995.45	226.33
995.74	226.24
996.03	226.30
996.32	226.37
996.61	226.48
996.90	226.55
997.19	226.57
997.48	226.60
997.77	226.54
998.06	226.62
998.34	226.60
998.63	226.67
998.92	226.70
999.21	226.73
999.50	226.71
999.79	226.57
1000.08	226.50
1000.37	226.49
1000.66	226.39
1000.95	226.49
1001.24	226.53
1001.53	226.55
1001.82	226.51
1002.11	226.42
1002.40	226.43
1002.68	226.57
1002.97	226.91
1003.26	226.90
1003.55	226.82
1003.84	226.89
1004.13	227.01
1004.42	227.01
1004.71	226.92
1004.99	226.87
1005.28	226.95
1005.57	226.91
1005.86	226.82
1006.15	226.82
1006.44	226.80
1006.72	226.90
1007.01	226.81
1007.30	226.77
1007.59	226.72
1007.88	226.65
1008.17	226.68
1008.45	226.53
1008.74	226.27
1009.03	226.02
1009.32	225.98
1009.60	226.00
1009.89	225.92
1010.18	225.78
1010.47	225.77
1010.76	225.76
1011.04	225.75
1011.33	225.75
1011.62	225.72
1011.91	225.75
1012.19	225.72
1012.48	225.70
1012.77	225.69
1013.05	225.86
1013.34	225.84
1013.63	225.76
1013.92	225.80
1014.20	225.80
1014.49	225.92
1014.78	225.97
1015.06	225.75
1015.35	225.76
1015.64	225.86
1015.92	225.84
1016.21	225.78
1016.50	225.77
1016.78	225.76
1017.07	225.78
1017.36	225.75
1017.64	225.65
1017.93	225.64
1018.22	225.61
1018.50	225.55
1018.79	225.47
1019.08	225.27
1019.36	225.28
1019.65	225.31
1019.93	225.45
1020.22	225.48
1020.51	225.70
1020.79	225.67
1021.08	225.40
1021.36	224.75
1021.65	224.80
1021.94	225.55
1022.22	225.50
1022.51	224.90
1022.79	228.20
1023.08	226.60
1023.36	231.55
1023.65	225.35
>>>>>End Processed Spectral Data<<<<<
