SpectraSuite Data File
++++++++++++++++++++++++++++++++++++
Date: Wed Sep 04 17:53:37 EDT 2013
User: lab3
Dark Spectrum Present: Yes
Reference Spectrum Present: No
Number of Sampled Component Spectra: 1
Spectrometers: USB2E7196
Integration Time (usec): 170000 (USB2E7196)
Spectra Averaged: 20 (USB2E7196)
Boxcar Smoothing: 10 (USB2E7196)
Correct for Electrical Dark: No (USB2E7196)
Strobe/Lamp Enabled: No (USB2E7196)
Correct for Detector Non-linearity: No (USB2E7196)
Correct for Stray Light: No (USB2E7196)
Number of Pixels in Processed Spectrum: 2048
>>>>>Begin Processed Spectral Data<<<<<
339.09	0.00
339.48	213.30
339.86	213.85
340.24	216.65
340.63	217.90
341.01	226.25
341.39	218.85
341.78	221.85
342.16	224.25
342.54	223.70
342.93	212.53
343.31	223.22
343.69	223.82
344.07	224.31
344.46	224.77
344.84	225.14
345.22	225.12
345.60	225.52
345.99	225.75
346.37	225.84
346.75	225.95
347.13	225.99
347.52	226.09
347.90	226.28
348.28	226.32
348.66	226.41
349.05	226.27
349.43	226.35
349.81	226.45
350.19	226.46
350.57	226.55
350.96	226.74
351.34	226.85
351.72	226.85
352.10	227.00
352.48	227.00
352.87	227.05
353.25	226.99
353.63	226.97
354.01	227.01
354.39	227.05
354.77	227.14
355.15	227.32
355.54	227.38
355.92	227.25
356.30	227.35
356.68	227.67
357.06	227.73
357.44	227.68
357.82	227.75
358.20	228.20
358.58	228.15
358.97	228.17
359.35	228.34
359.73	228.53
360.11	228.53
360.49	228.56
360.87	228.69
361.25	228.89
361.63	229.11
362.01	229.17
362.39	229.21
362.77	229.31
363.15	229.31
363.53	229.30
363.91	229.38
364.29	229.40
364.67	228.98
365.05	229.03
365.43	229.25
365.81	229.30
366.19	229.23
366.57	229.47
366.95	229.47
367.33	229.30
367.71	229.21
368.09	229.30
368.47	229.37
368.85	229.28
369.23	229.30
369.61	229.11
369.99	229.29
370.37	229.31
370.75	229.47
371.13	229.36
371.51	229.33
371.89	229.38
372.27	229.43
372.65	229.46
373.03	229.43
373.41	229.30
373.78	229.19
374.16	228.90
374.54	228.73
374.92	228.60
375.30	228.64
375.68	228.55
376.06	228.51
376.44	228.42
376.82	228.41
377.19	228.34
377.57	228.28
377.95	227.97
378.33	227.91
378.71	227.59
379.09	227.60
379.47	227.60
379.84	227.42
380.22	227.28
380.60	227.08
380.98	226.92
381.36	226.87
381.73	226.76
382.11	226.78
382.49	226.71
382.87	226.63
383.25	226.59
383.62	227.07
384.00	226.93
384.38	226.85
384.76	226.88
385.13	227.07
385.51	227.02
385.89	226.95
386.27	226.95
386.64	226.95
387.02	226.86
387.40	226.77
387.78	226.81
388.15	226.77
388.53	226.80
388.91	226.84
389.29	226.72
389.66	226.78
390.04	226.61
390.42	226.68
390.79	226.67
391.17	226.62
391.55	226.18
391.92	226.20
392.30	226.35
392.68	226.24
393.05	226.18
393.43	226.22
393.81	226.25
394.18	226.15
394.56	226.11
394.94	226.19
395.31	226.12
395.69	226.22
396.06	226.42
396.44	226.51
396.82	226.55
397.19	226.94
397.57	226.95
397.95	227.11
398.32	227.04
398.70	227.19
399.07	227.46
399.45	227.42
399.82	227.52
400.20	227.53
400.58	227.71
400.95	227.62
401.33	227.83
401.70	228.32
402.08	228.49
402.45	228.64
402.83	228.90
403.20	229.20
403.58	229.36
403.95	229.44
404.33	229.69
404.71	229.89
405.08	230.29
405.46	230.51
405.83	230.82
406.21	231.05
406.58	231.37
406.96	231.47
407.33	231.86
407.70	232.30
408.08	232.95
408.45	233.38
408.83	233.94
409.20	234.30
409.58	234.49
409.95	235.09
410.33	235.57
410.70	236.04
411.08	236.59
411.45	237.18
411.82	237.76
412.20	238.51
412.57	239.47
412.95	239.79
413.32	240.68
413.69	241.54
414.07	242.46
414.44	243.41
414.82	244.52
415.19	245.73
415.56	246.81
415.94	247.92
416.31	249.33
416.68	250.72
417.06	252.36
417.43	253.96
417.81	255.66
418.18	257.52
418.55	259.43
418.93	261.45
419.30	263.46
419.67	265.76
420.04	267.98
420.42	270.28
420.79	273.36
421.16	276.09
421.54	279.00
421.91	281.98
422.28	285.09
422.66	288.31
423.03	291.69
423.40	295.00
423.77	298.45
424.15	301.97
424.52	305.64
424.89	309.79
425.26	313.74
425.64	317.58
426.01	321.71
426.38	326.04
426.75	330.55
427.13	335.18
427.50	339.79
427.87	344.59
428.24	349.48
428.61	353.88
428.99	359.16
429.36	364.61
429.73	370.20
430.10	375.58
430.47	381.27
430.85	386.89
431.22	393.10
431.59	399.83
431.96	406.05
432.33	413.07
432.70	419.68
433.08	427.49
433.45	434.80
433.82	442.17
434.19	450.34
434.56	458.34
434.93	465.95
435.30	473.65
435.68	482.34
436.05	490.70
436.42	499.07
436.79	506.85
437.16	515.18
437.53	523.84
437.90	532.44
438.27	540.89
438.64	549.73
439.01	557.98
439.38	565.26
439.75	572.38
440.13	580.21
440.50	587.71
440.87	593.75
441.24	600.09
441.61	607.03
441.98	612.12
442.35	617.98
442.72	624.15
443.09	629.97
443.46	633.42
443.83	635.92
444.20	638.01
444.57	640.63
444.94	641.78
445.31	642.87
445.68	644.28
446.05	644.57
446.42	643.37
446.79	642.00
447.16	640.25
447.53	639.09
447.90	635.57
448.27	631.83
448.64	626.97
449.01	623.29
449.37	617.20
449.74	611.13
450.11	604.37
450.48	596.48
450.85	588.47
451.22	581.54
451.59	574.87
451.96	568.44
452.33	560.36
452.70	552.99
453.07	544.41
453.43	535.43
453.80	527.09
454.17	518.91
454.54	511.18
454.91	503.05
455.28	495.06
455.65	487.54
456.02	480.85
456.38	474.56
456.75	466.83
457.12	460.28
457.49	453.99
457.86	447.52
458.23	442.44
458.59	436.81
458.96	431.12
459.33	426.00
459.70	420.90
460.07	416.81
460.43	412.26
460.80	408.05
461.17	404.34
461.54	400.37
461.91	396.64
462.27	392.78
462.64	389.47
463.01	385.99
463.38	382.74
463.74	378.63
464.11	375.58
464.48	373.09
464.85	370.36
465.21	368.29
465.58	366.01
465.95	363.23
466.32	361.05
466.68	358.72
467.05	356.51
467.42	354.30
467.78	351.94
468.15	349.77
468.52	348.14
468.88	345.83
469.25	343.87
469.62	342.50
469.98	340.85
470.35	339.41
470.72	337.91
471.08	336.21
471.45	334.92
471.82	333.65
472.18	332.11
472.55	330.97
472.92	329.63
473.28	328.48
473.65	327.35
474.02	326.29
474.38	325.47
474.75	324.72
475.11	323.83
475.48	323.22
475.85	322.45
476.21	321.63
476.58	321.16
476.94	320.74
477.31	320.17
477.67	319.78
478.04	319.49
478.41	319.18
478.77	319.43
479.14	319.25
479.50	319.10
479.87	319.18
480.23	319.20
480.60	319.12
480.96	319.18
481.33	319.54
481.69	319.83
482.06	320.05
482.42	320.21
482.79	320.65
483.15	321.07
483.52	321.78
483.88	322.32
484.25	322.90
484.61	323.51
484.98	324.20
485.34	325.12
485.71	325.95
486.07	326.90
486.44	327.52
486.80	328.54
487.17	329.69
487.53	330.98
487.90	332.45
488.26	334.17
488.62	335.97
488.99	337.37
489.35	338.99
489.72	340.85
490.08	342.92
490.44	344.90
490.81	347.04
491.17	349.25
491.54	351.83
491.90	354.35
492.26	356.99
492.63	359.78
492.99	362.62
493.36	365.72
493.72	369.16
494.08	372.57
494.45	376.23
494.81	380.19
495.17	384.01
495.54	388.05
495.90	392.27
496.26	396.57
496.63	401.41
496.99	406.30
497.35	411.42
497.72	416.62
498.08	422.14
498.44	427.91
498.80	433.88
499.17	439.78
499.53	446.02
499.89	452.79
500.26	459.65
500.62	466.65
500.98	474.03
501.34	481.31
501.71	489.18
502.07	497.08
502.43	505.18
502.79	513.63
503.16	522.43
503.52	531.40
503.88	540.67
504.24	550.41
504.60	560.32
504.97	570.68
505.33	581.23
505.69	592.29
506.05	603.33
506.41	614.54
506.78	626.43
507.14	638.51
507.50	650.77
507.86	663.29
508.22	676.30
508.59	689.42
508.95	702.89
509.31	716.93
509.67	731.10
510.03	745.28
510.39	759.97
510.75	774.82
511.12	789.92
511.48	805.58
511.84	821.08
512.20	836.94
512.56	853.09
512.92	869.63
513.28	886.43
513.64	903.46
514.00	921.14
514.37	938.66
514.73	956.70
515.09	974.85
515.45	993.25
515.81	1011.50
516.17	1030.33
516.53	1049.06
516.89	1067.65
517.25	1087.09
517.61	1107.22
517.97	1127.28
518.33	1147.20
518.69	1167.43
519.05	1187.77
519.41	1208.37
519.77	1229.32
520.13	1249.75
520.49	1270.53
520.85	1292.68
521.21	1313.67
521.57	1334.80
521.93	1355.60
522.29	1376.63
522.65	1397.17
523.01	1418.17
523.37	1438.93
523.73	1459.89
524.09	1480.50
524.45	1501.00
524.81	1521.59
525.17	1542.19
525.53	1562.89
525.89	1583.86
526.25	1604.70
526.61	1624.86
526.97	1645.88
527.33	1667.01
527.68	1688.96
528.04	1709.89
528.40	1729.67
528.76	1750.94
529.12	1771.17
529.48	1792.09
529.84	1812.08
530.20	1833.46
530.56	1854.00
530.91	1874.53
531.27	1894.84
531.63	1915.47
531.99	1936.15
532.35	1956.28
532.71	1976.36
533.07	1996.92
533.42	2016.65
533.78	2036.23
534.14	2056.12
534.50	2075.22
534.86	2094.50
535.21	2111.95
535.57	2130.18
535.93	2147.66
536.29	2165.12
536.65	2183.42
537.00	2200.80
537.36	2218.25
537.72	2234.26
538.08	2251.32
538.44	2268.23
538.79	2284.50
539.15	2300.98
539.51	2316.79
539.87	2331.97
540.22	2345.85
540.58	2360.07
540.94	2373.36
541.29	2386.25
541.65	2399.12
542.01	2411.36
542.37	2421.33
542.72	2431.99
543.08	2442.86
543.44	2454.67
543.79	2464.70
544.15	2474.42
544.51	2484.40
544.87	2494.21
545.22	2502.95
545.58	2510.76
545.94	2518.10
546.29	2524.80
546.65	2530.90
547.01	2536.70
547.36	2541.97
547.72	2547.36
548.07	2551.40
548.43	2556.25
548.79	2560.79
549.14	2564.55
549.50	2568.66
549.86	2573.08
550.21	2577.25
550.57	2580.60
550.92	2581.62
551.28	2582.74
551.64	2584.93
551.99	2586.51
552.35	2588.00
552.70	2590.65
553.06	2592.40
553.41	2593.24
553.77	2594.84
554.13	2596.33
554.48	2598.13
554.84	2599.77
555.19	2600.99
555.55	2602.63
555.90	2602.39
556.26	2601.32
556.61	2599.73
556.97	2597.14
557.32	2596.49
557.68	2595.23
558.03	2593.53
558.39	2592.27
558.74	2591.70
559.10	2588.15
559.45	2584.53
559.81	2580.22
560.16	2574.26
560.52	2568.99
560.87	2564.70
561.23	2559.03
561.58	2553.25
561.94	2545.90
562.29	2538.48
562.64	2531.71
563.00	2523.41
563.35	2516.95
563.71	2510.61
564.06	2504.16
564.42	2497.87
564.77	2490.89
565.12	2483.19
565.48	2475.86
565.83	2467.91
566.19	2459.94
566.54	2452.37
566.89	2444.76
567.25	2436.81
567.60	2430.05
567.96	2422.77
568.31	2414.55
568.66	2406.07
569.02	2397.03
569.37	2389.19
569.72	2381.50
570.08	2372.17
570.43	2362.59
570.78	2353.45
571.14	2343.91
571.49	2334.26
571.84	2324.84
572.20	2313.85
572.55	2303.84
572.90	2292.80
573.26	2282.46
573.61	2271.19
573.96	2260.20
574.31	2248.21
574.67	2236.55
575.02	2223.92
575.37	2211.09
575.72	2198.20
576.08	2186.22
576.43	2173.74
576.78	2160.50
577.13	2146.68
577.49	2134.16
577.84	2122.19
578.19	2110.01
578.54	2097.62
578.90	2085.28
579.25	2072.62
579.60	2060.12
579.95	2047.20
580.30	2034.13
580.66	2020.94
581.01	2007.47
581.36	1993.38
581.71	1980.81
582.06	1967.93
582.42	1955.54
582.77	1943.18
583.12	1931.23
583.47	1918.82
583.82	1906.90
584.17	1894.84
584.53	1883.27
584.88	1870.10
585.23	1857.11
585.58	1843.08
585.93	1829.93
586.28	1817.00
586.63	1803.38
586.98	1789.58
587.34	1776.46
587.69	1763.47
588.04	1750.82
588.39	1738.88
588.74	1726.98
589.09	1714.85
589.44	1702.01
589.79	1689.81
590.14	1677.98
590.49	1666.09
590.84	1654.26
591.19	1642.22
591.54	1629.86
591.89	1617.76
592.25	1607.82
592.60	1596.54
592.95	1585.10
593.30	1573.11
593.65	1560.98
594.00	1548.99
594.35	1539.14
594.70	1527.31
595.05	1515.92
595.40	1503.90
595.75	1491.96
596.10	1480.50
596.45	1468.94
596.80	1458.20
597.15	1446.81
597.50	1434.83
597.85	1423.39
598.19	1411.56
598.54	1399.87
598.89	1388.98
599.24	1378.35
599.59	1366.62
599.94	1355.77
600.29	1345.28
600.64	1335.04
600.99	1324.39
601.34	1314.95
601.69	1303.60
602.04	1293.89
602.39	1284.18
602.74	1275.03
603.08	1265.77
603.43	1256.74
603.78	1246.87
604.13	1237.40
604.48	1227.77
604.83	1218.33
605.18	1208.48
605.53	1199.05
605.87	1189.92
606.22	1181.37
606.57	1172.20
606.92	1162.97
607.27	1154.04
607.62	1145.44
607.96	1136.82
608.31	1128.88
608.66	1120.44
609.01	1112.01
609.36	1103.43
609.70	1094.79
610.05	1086.33
610.40	1077.77
610.75	1069.07
611.10	1061.11
611.44	1052.44
611.79	1044.13
612.14	1036.20
612.49	1028.45
612.83	1020.90
613.18	1013.44
613.53	1005.48
613.88	997.56
614.22	989.97
614.57	982.10
614.92	974.27
615.27	966.89
615.61	959.16
615.96	951.45
616.31	944.00
616.65	937.14
617.00	929.92
617.35	922.42
617.70	915.37
618.04	908.23
618.39	900.93
618.74	894.63
619.08	887.92
619.43	880.97
619.78	873.94
620.12	866.74
620.47	859.76
620.82	852.63
621.16	845.85
621.51	839.38
621.85	833.19
622.20	826.71
622.55	820.11
622.89	813.72
623.24	807.47
623.59	801.12
623.93	794.57
624.28	788.54
624.62	783.02
624.97	777.27
625.32	771.49
625.66	765.70
626.01	759.51
626.35	753.95
626.70	748.31
627.04	743.04
627.39	737.58
627.73	732.08
628.08	727.03
628.43	721.65
628.77	716.19
629.12	710.83
629.46	706.12
629.81	701.41
630.15	696.62
630.50	691.72
630.84	687.01
631.19	682.39
631.53	677.79
631.88	672.50
632.22	667.62
632.57	663.17
632.91	658.61
633.26	654.33
633.60	649.58
633.95	644.99
634.29	640.27
634.64	635.91
634.98	631.32
635.32	626.99
635.67	623.00
636.01	618.87
636.36	614.49
636.70	610.34
637.05	606.03
637.39	601.90
637.73	597.79
638.08	593.84
638.42	589.61
638.77	585.30
639.11	581.16
639.45	576.81
639.80	572.53
640.14	568.50
640.49	564.49
640.83	560.71
641.17	556.98
641.52	553.36
641.86	549.72
642.20	546.60
642.55	542.93
642.89	539.24
643.23	535.77
643.58	532.72
643.92	529.00
644.26	525.67
644.61	522.57
644.95	519.33
645.29	516.06
645.64	512.93
645.98	509.84
646.32	506.99
646.66	504.03
647.01	501.01
647.35	498.25
647.69	495.37
648.04	492.52
648.38	489.81
648.72	486.95
649.06	484.01
649.41	481.01
649.75	477.96
650.09	475.18
650.43	472.20
650.78	469.13
651.12	466.41
651.46	463.66
651.80	460.74
652.14	457.97
652.49	455.44
652.83	452.76
653.17	450.14
653.51	447.46
653.85	444.99
654.20	442.61
654.54	439.97
654.88	437.41
655.22	435.27
655.56	432.75
655.90	430.41
656.25	428.20
656.59	425.98
656.93	423.84
657.27	421.71
657.61	419.37
657.95	417.29
658.29	415.05
658.64	412.92
658.98	410.80
659.32	408.60
659.66	406.32
660.00	404.28
660.34	402.19
660.68	400.18
661.02	398.23
661.36	396.18
661.70	394.34
662.05	392.40
662.39	390.33
662.73	388.50
663.07	386.79
663.41	384.93
663.75	382.88
664.09	381.12
664.43	379.19
664.77	377.54
665.11	375.81
665.45	374.18
665.79	372.50
666.13	370.81
666.47	369.16
666.81	367.48
667.15	365.84
667.49	364.38
667.83	362.97
668.17	361.43
668.51	359.96
668.85	358.53
669.19	357.43
669.53	355.83
669.87	354.46
670.21	353.01
670.55	351.76
670.89	350.70
671.23	349.35
671.57	348.05
671.91	346.85
672.25	345.43
672.58	344.16
672.92	342.73
673.26	341.53
673.60	340.35
673.94	339.18
674.28	338.10
674.62	337.06
674.96	335.77
675.30	334.65
675.64	333.48
675.97	332.22
676.31	330.78
676.65	329.63
676.99	328.65
677.33	327.39
677.67	326.24
678.01	324.92
678.34	323.90
678.68	322.95
679.02	321.74
679.36	320.76
679.70	319.75
680.04	318.86
680.37	317.88
680.71	316.88
681.05	315.94
681.39	314.88
681.73	313.75
682.06	312.75
682.40	311.78
682.74	310.95
683.08	310.25
683.42	309.43
683.75	308.73
684.09	307.71
684.43	306.98
684.77	306.06
685.10	305.33
685.44	304.44
685.78	303.55
686.12	302.93
686.45	302.15
686.79	301.26
687.13	300.54
687.46	299.74
687.80	299.14
688.14	298.27
688.48	297.58
688.81	296.91
689.15	296.38
689.49	295.69
689.82	295.00
690.16	293.99
690.50	293.29
690.83	292.55
691.17	291.83
691.51	291.09
691.84	290.50
692.18	289.70
692.52	289.02
692.85	288.48
693.19	287.93
693.52	287.35
693.86	286.69
694.20	285.98
694.53	285.42
694.87	284.67
695.21	284.13
695.54	283.56
695.88	282.86
696.21	282.07
696.55	281.49
696.88	280.85
697.22	280.27
697.56	279.62
697.89	278.98
698.23	278.43
698.56	277.78
698.90	277.29
699.23	276.72
699.57	276.28
699.90	275.63
700.24	274.91
700.58	274.40
700.91	274.06
701.25	273.97
701.58	273.77
701.92	273.49
702.25	273.03
702.59	272.54
702.92	272.13
703.26	271.82
703.59	271.40
703.93	271.35
704.26	271.05
704.60	270.76
704.93	270.42
705.26	269.96
705.60	269.69
705.93	269.16
706.27	268.94
706.60	268.61
706.94	268.47
707.27	268.04
707.61	267.75
707.94	267.26
708.27	266.46
708.61	265.81
708.94	265.37
709.28	264.99
709.61	264.55
709.94	264.26
710.28	263.81
710.61	263.41
710.95	262.62
711.28	262.60
711.61	262.16
711.95	261.82
712.28	261.46
712.61	261.10
712.95	260.97
713.28	260.77
713.61	260.27
713.95	259.72
714.28	259.52
714.61	259.03
714.95	258.73
715.28	258.40
715.61	257.98
715.95	257.66
716.28	257.33
716.61	257.05
716.95	256.64
717.28	256.34
717.61	256.00
717.94	255.71
718.28	255.07
718.61	254.76
718.94	254.46
719.27	254.22
719.61	253.93
719.94	253.60
720.27	253.17
720.60	253.01
720.94	252.77
721.27	252.50
721.60	252.40
721.93	252.14
722.27	252.11
722.60	252.01
722.93	251.69
723.26	251.52
723.59	251.30
723.93	251.20
724.26	251.03
724.59	250.82
724.92	250.61
725.25	250.53
725.59	250.27
725.92	250.18
726.25	249.95
726.58	249.81
726.91	249.58
727.24	249.46
727.57	249.20
727.91	248.99
728.24	248.82
728.57	248.49
728.90	248.34
729.23	248.02
729.56	248.04
729.89	247.89
730.22	247.66
730.55	247.46
730.89	247.25
731.22	247.10
731.55	246.92
731.88	246.75
732.21	246.43
732.54	246.30
732.87	246.02
733.20	245.88
733.53	245.70
733.86	245.55
734.19	245.33
734.52	245.26
734.85	245.38
735.18	245.24
735.51	245.28
735.84	245.16
736.17	245.13
736.50	244.68
736.83	245.06
737.16	244.92
737.49	244.87
737.82	244.67
738.15	244.50
738.48	244.42
738.81	244.29
739.14	244.11
739.47	243.90
739.80	243.77
740.13	243.64
740.46	243.44
740.79	243.19
741.12	243.02
741.45	242.73
741.78	242.41
742.11	242.35
742.44	242.10
742.77	241.99
743.10	241.76
743.43	241.59
743.75	240.94
744.08	241.42
744.41	241.24
744.74	241.12
745.07	240.89
745.40	240.78
745.73	240.86
746.06	240.75
746.39	240.72
746.71	240.55
747.04	240.35
747.37	240.19
747.70	240.18
748.03	240.05
748.36	240.10
748.68	239.94
749.01	239.69
749.34	239.58
749.67	239.52
750.00	239.51
750.33	239.87
750.65	239.75
750.98	239.07
751.31	238.99
751.64	238.92
751.97	239.10
752.29	239.01
752.62	238.75
752.95	238.63
753.28	238.49
753.60	238.43
753.93	238.47
754.26	238.42
754.59	238.25
754.91	238.10
755.24	237.92
755.57	237.82
755.90	237.73
756.22	237.58
756.55	237.41
756.88	237.19
757.20	236.67
757.53	236.54
757.86	236.45
758.19	236.35
758.51	236.26
758.84	235.94
759.17	235.73
759.49	235.59
759.82	235.70
760.15	235.67
760.47	235.51
760.80	235.29
761.13	235.27
761.45	235.17
761.78	235.08
762.11	235.06
762.43	234.99
762.76	234.88
763.08	234.82
763.41	234.77
763.74	234.71
764.06	234.63
764.39	234.53
764.71	234.39
765.04	234.33
765.37	234.20
765.69	234.15
766.02	234.08
766.34	233.98
766.67	233.76
767.00	233.75
767.32	233.98
767.65	234.18
767.97	234.05
768.30	234.02
768.62	234.00
768.95	233.85
769.27	233.73
769.60	233.78
769.92	233.64
770.25	233.49
770.57	233.39
770.90	233.31
771.22	233.20
771.55	233.20
771.87	233.11
772.20	233.05
772.52	233.40
772.85	233.88
773.17	233.88
773.50	233.82
773.82	233.69
774.15	233.45
774.47	233.13
774.80	233.10
775.12	232.95
775.45	232.94
775.77	232.90
776.09	232.90
776.42	232.80
776.74	232.90
777.07	232.83
777.39	232.76
777.72	232.70
778.04	232.70
778.36	232.64
778.69	232.64
779.01	232.55
779.33	232.05
779.66	231.47
779.98	231.34
780.31	231.32
780.63	231.40
780.95	231.34
781.28	231.31
781.60	231.17
781.92	231.12
782.25	231.04
782.57	230.92
782.89	230.84
783.22	230.70
783.54	230.57
783.86	230.56
784.19	230.49
784.51	230.64
784.83	230.54
785.16	230.37
785.48	230.29
785.80	230.30
786.12	230.32
786.45	230.30
786.77	230.32
787.09	230.30
787.42	230.10
787.74	230.12
788.06	230.10
788.38	230.12
788.71	230.06
789.03	230.08
789.35	230.17
789.67	230.05
789.99	230.09
790.32	230.02
790.64	230.07
790.96	230.38
791.28	230.18
791.61	230.20
791.93	230.32
792.25	230.27
792.57	230.63
792.89	230.49
793.21	230.53
793.54	230.48
793.86	230.37
794.18	230.46
794.50	230.37
794.82	230.30
795.14	230.23
795.47	230.34
795.79	230.31
796.11	230.22
796.43	230.18
796.75	230.21
797.07	230.18
797.39	230.06
797.71	229.76
798.04	229.72
798.36	229.66
798.68	229.58
799.00	229.60
799.32	229.25
799.64	229.35
799.96	229.27
800.28	229.31
800.60	229.28
800.92	229.18
801.24	229.11
801.56	229.19
801.89	229.22
802.21	229.16
802.53	229.06
802.85	229.10
803.17	229.35
803.49	229.15
803.81	229.14
804.13	229.16
804.45	229.11
804.77	229.10
805.09	229.11
805.41	229.02
805.73	228.86
806.05	228.77
806.37	228.70
806.69	228.68
807.01	228.65
807.33	228.59
807.65	228.48
807.97	228.70
808.28	228.59
808.60	228.59
808.92	228.52
809.24	228.80
809.56	228.71
809.88	228.52
810.20	228.63
810.52	228.76
810.84	228.59
811.16	228.56
811.48	228.59
811.80	228.76
812.12	228.78
812.43	228.85
812.75	228.86
813.07	228.85
813.39	228.84
813.71	228.72
814.03	228.72
814.35	228.69
814.67	228.49
814.98	228.45
815.30	228.35
815.62	228.26
815.94	227.94
816.26	228.19
816.58	228.15
816.89	228.12
817.21	227.94
817.53	228.03
817.85	228.10
818.17	228.00
818.48	227.84
818.80	227.88
819.12	227.88
819.44	227.84
819.76	227.74
820.07	227.82
820.39	227.86
820.71	227.85
821.03	227.92
821.34	227.86
821.66	227.94
821.98	227.98
822.30	228.02
822.61	228.34
822.93	228.07
823.25	228.01
823.57	228.01
823.88	228.12
824.20	228.10
824.52	228.18
824.83	228.22
825.15	228.10
825.47	228.11
825.79	228.11
826.10	228.10
826.42	228.14
826.74	228.09
827.05	228.03
827.37	228.09
827.69	228.04
828.00	228.10
828.32	228.09
828.64	228.06
828.95	228.27
829.27	228.06
829.58	228.05
829.90	228.15
830.22	228.18
830.53	227.97
830.85	227.91
831.17	227.70
831.48	227.65
831.80	227.72
832.11	227.64
832.43	227.60
832.75	227.56
833.06	227.80
833.38	227.66
833.69	227.70
834.01	227.64
834.32	227.65
834.64	227.59
834.96	227.55
835.27	227.47
835.59	227.28
835.90	227.20
836.22	227.19
836.53	227.05
836.85	227.02
837.16	227.59
837.48	227.65
837.79	227.77
838.11	227.85
838.42	227.81
838.74	227.92
839.05	227.85
839.37	227.87
839.68	227.56
840.00	227.60
840.31	227.65
840.63	227.69
840.94	227.68
841.26	227.63
841.57	227.67
841.88	227.78
842.20	227.80
842.51	227.85
842.83	227.89
843.14	228.36
843.46	228.33
843.77	228.05
844.08	228.09
844.40	227.93
844.71	227.86
845.03	227.82
845.34	227.71
845.65	227.73
845.97	227.73
846.28	227.78
846.60	227.73
846.91	227.58
847.22	227.57
847.54	227.63
847.85	227.67
848.16	227.60
848.48	227.50
848.79	227.65
849.10	227.61
849.42	227.55
849.73	227.07
850.04	227.02
850.36	226.83
850.67	226.80
850.98	226.85
851.30	226.92
851.61	226.90
851.92	226.97
852.23	227.10
852.55	227.06
852.86	227.05
853.17	227.10
853.49	227.23
853.80	227.33
854.11	227.35
854.42	227.42
854.74	227.32
855.05	227.32
855.36	227.00
855.67	227.00
855.99	227.09
856.30	227.65
856.61	227.60
856.92	227.60
857.23	227.61
857.55	227.60
857.86	227.45
858.17	227.50
858.48	227.43
858.79	227.34
859.11	227.43
859.42	227.44
859.73	227.31
860.04	227.26
860.35	227.10
860.66	226.93
860.98	226.87
861.29	226.97
861.60	226.95
861.91	227.12
862.22	227.06
862.53	226.91
862.84	226.36
863.16	226.51
863.47	226.46
863.78	226.41
864.09	226.41
864.40	226.47
864.71	226.52
865.02	226.55
865.33	226.52
865.64	226.42
865.95	226.38
866.27	226.81
866.58	226.82
866.89	226.93
867.20	226.94
867.51	226.82
867.82	226.84
868.13	227.08
868.44	227.04
868.75	227.14
869.06	227.26
869.37	227.27
869.68	227.17
869.99	227.30
870.30	227.31
870.61	227.39
870.92	227.36
871.23	227.31
871.54	227.38
871.85	227.52
872.16	227.55
872.47	227.55
872.78	227.28
873.09	227.33
873.40	227.26
873.71	227.40
874.02	227.46
874.33	227.42
874.64	227.21
874.95	227.24
875.26	227.16
875.56	227.06
875.87	227.10
876.18	227.09
876.49	227.51
876.80	227.48
877.11	227.41
877.42	227.50
877.73	227.48
878.04	227.41
878.35	227.30
878.66	227.38
878.96	227.42
879.27	227.39
879.58	227.36
879.89	227.27
880.20	227.33
880.51	227.29
880.82	227.28
881.12	227.31
881.43	227.21
881.74	227.17
882.05	227.22
882.36	227.20
882.67	227.23
882.97	226.70
883.28	226.64
883.59	226.62
883.90	226.56
884.21	226.60
884.51	226.51
884.82	226.46
885.13	226.43
885.44	226.37
885.74	226.41
886.05	226.42
886.36	226.48
886.67	226.30
886.98	226.53
887.28	226.51
887.59	226.58
887.90	226.59
888.20	226.51
888.51	226.58
888.82	226.51
889.13	226.55
889.43	226.90
889.74	226.95
890.05	226.88
890.35	226.86
890.66	226.78
890.97	226.81
891.28	226.78
891.58	226.74
891.89	226.70
892.20	226.60
892.50	226.49
892.81	226.45
893.12	226.48
893.42	226.31
893.73	226.35
894.04	226.29
894.34	226.33
894.65	226.38
894.95	226.33
895.26	226.35
895.57	226.52
895.87	226.15
896.18	226.20
896.48	226.25
896.79	226.25
897.10	226.28
897.40	226.31
897.71	226.37
898.01	226.39
898.32	226.39
898.63	226.35
898.93	226.37
899.24	226.43
899.54	226.42
899.85	226.36
900.15	226.40
900.46	226.39
900.76	226.42
901.07	226.40
901.38	226.34
901.68	226.40
901.99	226.18
902.29	226.16
902.60	226.15
902.90	226.12
903.21	226.05
903.51	226.09
903.82	226.16
904.12	226.13
904.43	226.19
904.73	226.20
905.03	226.34
905.34	226.81
905.64	226.71
905.95	226.63
906.25	226.69
906.56	226.69
906.86	226.71
907.17	226.65
907.47	226.68
907.77	226.67
908.08	226.60
908.38	226.61
908.69	226.63
908.99	226.73
909.30	226.79
909.60	226.87
909.90	226.94
910.21	226.82
910.51	226.85
910.81	226.71
911.12	226.81
911.42	226.75
911.73	226.29
912.03	226.32
912.33	226.47
912.64	226.40
912.94	226.34
913.24	226.28
913.55	226.29
913.85	226.34
914.15	226.36
914.46	226.42
914.76	226.44
915.06	226.48
915.37	226.40
915.67	226.31
915.97	226.34
916.27	226.11
916.58	226.13
916.88	226.07
917.18	226.08
917.49	226.37
917.79	226.38
918.09	226.46
918.39	226.61
918.70	226.59
919.00	226.64
919.30	226.86
919.60	226.84
919.91	226.79
920.21	226.77
920.51	226.69
920.81	226.65
921.12	226.70
921.42	226.67
921.72	226.66
922.02	226.69
922.32	226.75
922.63	226.85
922.93	227.06
923.23	227.11
923.53	227.14
923.83	226.81
924.13	226.81
924.44	226.79
924.74	226.87
925.04	227.00
925.34	227.04
925.64	226.83
925.94	226.83
926.24	227.11
926.55	227.06
926.85	227.15
927.15	227.17
927.45	227.06
927.75	227.02
928.05	226.95
928.35	226.88
928.65	226.93
928.95	226.98
929.26	226.75
929.56	226.77
929.86	226.82
930.16	226.76
930.46	226.67
930.76	226.70
931.06	226.48
931.36	226.39
931.66	226.43
931.96	226.48
932.26	226.53
932.56	226.34
932.86	226.34
933.16	226.37
933.46	226.23
933.76	226.25
934.06	226.36
934.36	226.60
934.66	226.56
934.96	226.50
935.26	226.48
935.56	226.61
935.86	226.51
936.16	226.47
936.46	226.44
936.76	226.45
937.06	226.34
937.36	226.38
937.66	226.33
937.96	226.28
938.26	226.09
938.56	225.99
938.86	225.93
939.16	226.02
939.46	225.97
939.76	226.05
940.06	226.06
940.35	225.93
940.65	225.67
940.95	225.69
941.25	225.53
941.55	225.52
941.85	225.42
942.15	225.52
942.45	225.64
942.75	225.59
943.04	225.67
943.34	225.79
943.64	225.70
943.94	225.60
944.24	225.57
944.54	225.69
944.84	225.74
945.13	225.76
945.43	225.70
945.73	225.71
946.03	225.62
946.33	225.58
946.62	225.60
946.92	225.60
947.22	225.69
947.52	225.77
947.82	225.80
948.11	225.77
948.41	225.75
948.71	225.55
949.01	225.64
949.31	225.49
949.60	225.41
949.90	225.58
950.20	225.61
950.50	225.58
950.79	225.58
951.09	225.58
951.39	225.49
951.69	225.43
951.98	225.52
952.28	225.68
952.58	225.67
952.87	225.66
953.17	225.81
953.47	225.82
953.76	225.83
954.06	225.77
954.36	225.75
954.66	225.73
954.95	225.92
955.25	226.00
955.55	226.11
955.84	226.06
956.14	226.02
956.44	226.01
956.73	226.02
957.03	226.04
957.32	226.05
957.62	226.11
957.92	226.20
958.21	226.12
958.51	226.65
958.81	226.67
959.10	226.77
959.40	226.88
959.69	226.84
959.99	226.89
960.29	226.91
960.58	226.84
960.88	227.02
961.17	226.95
961.47	226.97
961.76	227.00
962.06	227.09
962.36	227.00
962.65	227.13
962.95	227.10
963.24	227.08
963.54	227.04
963.83	227.10
964.13	227.11
964.42	227.10
964.72	226.65
965.01	226.69
965.31	226.69
965.60	226.52
965.90	226.87
966.19	226.77
966.49	226.82
966.78	226.85
967.08	226.75
967.37	226.74
967.67	226.60
967.96	226.64
968.26	226.60
968.55	226.69
968.85	226.65
969.14	226.64
969.43	226.61
969.73	226.59
970.02	226.52
970.32	226.46
970.61	226.32
970.91	226.19
971.20	226.08
971.49	226.00
971.79	226.07
972.08	225.71
972.38	225.74
972.67	225.70
972.96	225.73
973.26	225.71
973.55	225.84
973.85	225.84
974.14	225.82
974.43	225.88
974.73	225.72
975.02	225.67
975.31	225.70
975.61	225.70
975.90	225.65
976.19	225.61
976.49	225.66
976.78	225.83
977.07	225.84
977.37	225.84
977.66	225.89
977.95	225.80
978.24	225.84
978.54	225.97
978.83	225.92
979.12	225.97
979.42	225.91
979.71	225.83
980.00	225.83
980.29	225.80
980.59	225.73
980.88	225.87
981.17	225.85
981.46	225.88
981.76	225.94
982.05	226.13
982.34	226.14
982.63	226.17
982.93	226.04
983.22	226.21
983.51	226.29
983.80	226.37
984.09	226.39
984.39	226.40
984.68	226.29
984.97	226.30
985.26	226.26
985.55	226.34
985.85	226.25
986.14	226.30
986.43	226.35
986.72	226.32
987.01	226.26
987.30	226.26
987.59	226.18
987.89	226.13
988.18	225.97
988.47	225.99
988.76	225.87
989.05	225.91
989.34	225.77
989.63	225.83
989.92	225.67
990.22	225.58
990.51	225.56
990.80	225.56
991.09	225.56
991.38	225.63
991.67	225.60
991.96	225.59
992.25	225.62
992.54	225.53
992.83	225.53
993.12	225.50
993.41	225.57
993.70	225.75
993.99	225.82
994.28	225.97
994.58	226.02
994.87	226.05
995.16	226.06
995.45	226.04
995.74	225.96
996.03	226.09
996.32	226.20
996.61	226.31
996.90	226.27
997.19	226.32
997.48	226.36
997.77	226.29
998.06	226.28
998.34	226.26
998.63	226.25
998.92	226.22
999.21	226.23
999.50	226.25
999.79	226.18
1000.08	226.16
1000.37	226.14
1000.66	226.10
1000.95	226.17
1001.24	226.11
1001.53	226.15
1001.82	226.15
1002.11	226.04
1002.40	226.13
1002.68	226.22
1002.97	226.57
1003.26	226.56
1003.55	226.39
1003.84	226.50
1004.13	226.71
1004.42	226.65
1004.71	226.65
1004.99	226.63
1005.28	226.79
1005.57	226.72
1005.86	226.58
1006.15	226.50
1006.44	226.35
1006.72	226.39
1007.01	226.34
1007.30	226.42
1007.59	226.39
1007.88	226.30
1008.17	226.29
1008.45	226.11
1008.74	225.81
1009.03	225.61
1009.32	225.58
1009.60	225.59
1009.89	225.50
1010.18	225.27
1010.47	225.24
1010.76	225.23
1011.04	225.29
1011.33	225.34
1011.62	225.41
1011.91	225.41
1012.19	225.52
1012.48	225.55
1012.77	225.52
1013.05	225.80
1013.34	225.86
1013.63	225.80
1013.92	225.86
1014.20	225.86
1014.49	225.85
1014.78	225.94
1015.06	225.69
1015.35	225.55
1015.64	225.63
1015.92	225.65
1016.21	225.70
1016.50	225.73
1016.78	225.79
1017.07	225.79
1017.36	225.69
1017.64	225.56
1017.93	225.67
1018.22	225.60
1018.50	225.54
1018.79	225.53
1019.08	225.22
1019.36	225.10
1019.65	225.07
1019.93	225.23
1020.22	225.29
1020.51	225.54
1020.79	225.50
1021.08	225.00
1021.36	223.50
1021.65	225.45
1021.94	225.20
1022.22	224.45
1022.51	224.25
1022.79	228.40
1023.08	225.75
1023.36	230.75
1023.65	224.15
>>>>>End Processed Spectral Data<<<<<
