SpectraSuite Data File
++++++++++++++++++++++++++++++++++++
Date: Wed Sep 04 17:56:00 EDT 2013
User: lab3
Dark Spectrum Present: Yes
Reference Spectrum Present: No
Number of Sampled Component Spectra: 1
Spectrometers: USB2E7196
Integration Time (usec): 170000 (USB2E7196)
Spectra Averaged: 20 (USB2E7196)
Boxcar Smoothing: 10 (USB2E7196)
Correct for Electrical Dark: No (USB2E7196)
Strobe/Lamp Enabled: No (USB2E7196)
Correct for Detector Non-linearity: No (USB2E7196)
Correct for Stray Light: No (USB2E7196)
Number of Pixels in Processed Spectrum: 2048
>>>>>Begin Processed Spectral Data<<<<<
339.09	0.00
339.48	212.90
339.86	214.35
340.24	216.80
340.63	216.70
341.01	225.15
341.39	220.95
341.78	222.45
342.16	224.10
342.54	223.90
342.93	212.46
343.31	223.13
343.69	223.65
344.07	224.14
344.46	224.60
344.84	225.01
345.22	225.00
345.60	225.27
345.99	225.44
346.37	225.53
346.75	225.57
347.13	225.67
347.52	225.70
347.90	225.98
348.28	226.12
348.66	226.23
349.05	226.08
349.43	226.24
349.81	226.31
350.19	226.31
350.57	226.34
350.96	226.54
351.34	226.61
351.72	226.75
352.10	226.86
352.48	226.83
352.87	226.86
353.25	226.94
353.63	227.01
354.01	227.02
354.39	227.12
354.77	227.20
355.15	227.36
355.54	227.45
355.92	227.37
356.30	227.33
356.68	227.72
357.06	227.85
357.44	227.79
357.82	227.73
358.20	228.19
358.58	228.22
358.97	228.19
359.35	228.44
359.73	228.51
360.11	228.63
360.49	228.78
360.87	228.90
361.25	229.00
361.63	229.19
362.01	229.32
362.39	229.32
362.77	229.46
363.15	229.44
363.53	229.43
363.91	229.46
364.29	229.62
364.67	229.17
365.05	229.20
365.43	229.39
365.81	229.51
366.19	229.39
366.57	229.60
366.95	229.71
367.33	229.58
367.71	229.70
368.09	229.76
368.47	229.82
368.85	229.74
369.23	229.89
369.61	229.71
369.99	229.81
370.37	229.83
370.75	230.05
371.13	229.99
371.51	229.93
371.89	229.96
372.27	229.89
372.65	229.92
373.03	229.89
373.41	229.74
373.78	229.68
374.16	229.39
374.54	229.27
374.92	229.17
375.30	229.23
375.68	229.07
376.06	229.07
376.44	228.90
376.82	228.89
377.19	228.77
377.57	228.60
377.95	228.45
378.33	228.37
378.71	227.98
379.09	227.97
379.47	227.98
379.84	227.91
380.22	227.78
380.60	227.58
380.98	227.45
381.36	227.36
381.73	227.30
382.11	227.35
382.49	227.25
382.87	227.12
383.25	226.97
383.62	227.49
384.00	227.26
384.38	227.26
384.76	227.33
385.13	227.48
385.51	227.57
385.89	227.46
386.27	227.50
386.64	227.55
387.02	227.46
387.40	227.34
387.78	227.27
388.15	227.28
388.53	227.30
388.91	227.30
389.29	227.25
389.66	227.26
390.04	227.12
390.42	227.17
390.79	227.16
391.17	227.17
391.55	226.63
391.92	226.57
392.30	226.58
392.68	226.53
393.05	226.47
393.43	226.41
393.81	226.44
394.18	226.32
394.56	226.29
394.94	226.37
395.31	226.34
395.69	226.49
396.06	226.58
396.44	226.62
396.82	226.61
397.19	226.89
397.57	226.82
397.95	226.95
398.32	226.84
398.70	227.01
399.07	227.18
399.45	227.20
399.82	227.29
400.20	227.30
400.58	227.34
400.95	227.20
401.33	227.47
401.70	227.86
402.08	228.02
402.45	228.12
402.83	228.36
403.20	228.58
403.58	228.66
403.95	228.98
404.33	229.19
404.71	229.46
405.08	229.91
405.46	230.20
405.83	230.53
406.21	230.83
406.58	231.06
406.96	231.25
407.33	231.54
407.70	231.99
408.08	232.76
408.45	233.18
408.83	233.65
409.20	233.98
409.58	234.19
409.95	234.77
410.33	235.45
410.70	235.80
411.08	236.48
411.45	237.15
411.82	237.60
412.20	238.45
412.57	239.36
412.95	239.71
413.32	240.59
413.69	241.34
414.07	242.33
414.44	243.27
414.82	244.36
415.19	245.62
415.56	246.80
415.94	247.81
416.31	249.29
416.68	250.66
417.06	252.23
417.43	253.90
417.81	255.68
418.18	257.38
418.55	259.33
418.93	261.32
419.30	263.38
419.67	265.67
420.04	267.85
420.42	270.20
420.79	273.30
421.16	276.04
421.54	279.11
421.91	282.06
422.28	285.30
422.66	288.53
423.03	292.03
423.40	295.31
423.77	298.87
424.15	302.40
424.52	306.22
424.89	310.47
425.26	314.42
425.64	318.15
426.01	322.43
426.38	326.86
426.75	331.45
427.13	336.04
427.50	340.81
427.87	345.85
428.24	350.82
428.61	355.32
428.99	360.68
429.36	366.10
429.73	371.52
430.10	376.88
430.47	382.51
430.85	388.00
431.22	394.21
431.59	400.96
431.96	407.21
432.33	414.25
432.70	420.90
433.08	428.78
433.45	436.23
433.82	443.63
434.19	451.90
434.56	459.93
434.93	467.61
435.30	475.38
435.68	483.95
436.05	492.43
436.42	500.84
436.79	508.55
437.16	516.93
437.53	525.90
437.90	534.73
438.27	543.30
438.64	552.32
439.01	560.72
439.38	567.91
439.75	575.08
440.13	583.04
440.50	590.64
440.87	596.74
441.24	603.15
441.61	610.16
441.98	615.21
442.35	621.07
442.72	627.14
443.09	633.05
443.46	636.51
443.83	638.86
444.20	640.68
444.57	643.39
444.94	644.51
445.31	645.58
445.68	646.97
446.05	647.11
446.42	645.80
446.79	644.36
447.16	642.68
447.53	641.51
447.90	637.80
448.27	634.04
448.64	629.16
449.01	625.44
449.37	619.08
449.74	612.95
450.11	606.15
450.48	598.36
450.85	590.16
451.22	583.23
451.59	576.48
451.96	570.25
452.33	562.22
452.70	554.77
453.07	546.08
453.43	536.80
453.80	528.51
454.17	520.50
454.54	512.68
454.91	504.62
455.28	496.54
455.65	489.06
456.02	482.23
456.38	475.72
456.75	467.95
457.12	461.47
457.49	455.22
457.86	448.68
458.23	443.46
458.59	437.83
458.96	432.03
459.33	426.98
459.70	421.91
460.07	417.71
460.43	413.07
460.80	408.83
461.17	405.12
461.54	401.18
461.91	397.35
462.27	393.49
462.64	390.18
463.01	386.59
463.38	383.28
463.74	379.32
464.11	376.29
464.48	373.65
464.85	370.84
465.21	368.67
465.58	366.42
465.95	363.73
466.32	361.54
466.68	359.38
467.05	357.08
467.42	354.81
467.78	352.45
468.15	350.30
468.52	348.72
468.88	346.52
469.25	344.57
469.62	343.08
469.98	341.45
470.35	339.92
470.72	338.50
471.08	336.90
471.45	335.59
471.82	334.37
472.18	332.90
472.55	331.89
472.92	330.60
473.28	329.49
473.65	328.39
474.02	327.27
474.38	326.29
474.75	325.48
475.11	324.58
475.48	323.99
475.85	323.41
476.21	322.61
476.58	322.12
476.94	321.78
477.31	321.32
477.67	320.94
478.04	320.50
478.41	320.26
478.77	320.41
479.14	320.10
479.50	320.01
479.87	319.98
480.23	319.85
480.60	319.79
480.96	319.77
481.33	320.02
481.69	320.23
482.06	320.45
482.42	320.76
482.79	321.13
483.15	321.53
483.52	322.11
483.88	322.60
484.25	323.15
484.61	323.62
484.98	324.19
485.34	325.15
485.71	326.13
486.07	327.13
486.44	327.80
486.80	328.91
487.17	330.04
487.53	331.48
487.90	332.96
488.26	334.64
488.62	336.32
488.99	337.79
489.35	339.42
489.72	341.31
490.08	343.31
490.44	345.28
490.81	347.43
491.17	349.64
491.54	352.12
491.90	354.71
492.26	357.44
492.63	360.26
492.99	363.05
493.36	366.10
493.72	369.40
494.08	372.86
494.45	376.54
494.81	380.44
495.17	384.21
495.54	388.31
495.90	392.58
496.26	396.89
496.63	401.57
496.99	406.50
497.35	411.50
497.72	416.75
498.08	422.31
498.44	428.02
498.80	434.11
499.17	440.15
499.53	446.43
499.89	453.18
500.26	460.09
500.62	467.10
500.98	474.56
501.34	481.98
501.71	489.69
502.07	497.58
502.43	505.79
502.79	514.24
503.16	523.08
503.52	532.02
503.88	541.20
504.24	550.80
504.60	560.70
504.97	571.13
505.33	581.59
505.69	592.74
506.05	603.79
506.41	614.95
506.78	626.85
507.14	638.95
507.50	651.45
507.86	663.85
508.22	676.94
508.59	689.91
508.95	703.73
509.31	717.77
509.67	731.90
510.03	746.09
510.39	760.83
510.75	775.75
511.12	790.96
511.48	806.95
511.84	822.79
512.20	838.72
512.56	854.83
512.92	871.55
513.28	888.32
513.64	905.46
514.00	923.04
514.37	940.55
514.73	958.64
515.09	976.60
515.45	994.93
515.81	1013.33
516.17	1032.34
516.53	1050.86
516.89	1069.58
517.25	1089.09
517.61	1109.37
517.97	1129.72
518.33	1149.85
518.69	1170.39
519.05	1190.87
519.41	1211.45
519.77	1232.94
520.13	1253.92
520.49	1274.65
520.85	1296.92
521.21	1318.26
521.57	1339.47
521.93	1360.14
522.29	1381.32
522.65	1402.16
523.01	1423.46
523.37	1444.22
523.73	1465.14
524.09	1485.62
524.45	1506.45
524.81	1527.51
525.17	1547.88
525.53	1568.30
525.89	1589.12
526.25	1609.46
526.61	1629.63
526.97	1650.97
527.33	1671.90
527.68	1693.70
528.04	1715.00
528.40	1734.71
528.76	1755.69
529.12	1776.27
529.48	1797.37
529.84	1817.67
530.20	1839.07
530.56	1859.84
530.91	1880.62
531.27	1901.11
531.63	1921.89
531.99	1942.66
532.35	1962.57
532.71	1982.99
533.07	2003.54
533.42	2023.51
533.78	2043.68
534.14	2063.89
534.50	2082.78
534.86	2102.11
535.21	2119.74
535.57	2138.45
535.93	2156.05
536.29	2173.51
536.65	2191.73
537.00	2209.26
537.36	2226.68
537.72	2242.82
538.08	2259.84
538.44	2276.60
538.79	2293.00
539.15	2309.51
539.51	2325.21
539.87	2340.47
540.22	2354.21
540.58	2368.64
540.94	2381.85
541.29	2394.67
541.65	2407.12
542.01	2419.70
542.37	2430.08
542.72	2441.16
543.08	2451.56
543.44	2463.38
543.79	2473.80
544.15	2483.74
544.51	2493.92
544.87	2503.63
545.22	2512.19
545.58	2519.81
545.94	2527.24
546.29	2533.32
546.65	2539.77
547.01	2545.56
547.36	2551.08
547.72	2556.92
548.07	2560.97
548.43	2566.32
548.79	2570.82
549.14	2574.73
549.50	2578.40
549.86	2582.63
550.21	2586.37
550.57	2589.82
550.92	2591.26
551.28	2592.59
551.64	2594.72
551.99	2596.20
552.35	2597.60
552.70	2599.76
553.06	2601.58
553.41	2602.75
553.77	2604.91
554.13	2606.67
554.48	2608.33
554.84	2609.82
555.19	2611.06
555.55	2612.86
555.90	2612.13
556.26	2611.55
556.61	2610.13
556.97	2608.11
557.32	2607.14
557.68	2605.84
558.03	2604.30
558.39	2602.87
558.74	2601.92
559.10	2598.74
559.45	2595.51
559.81	2591.20
560.16	2586.01
560.52	2581.20
560.87	2577.07
561.23	2571.59
561.58	2565.27
561.94	2558.47
562.29	2550.83
562.64	2543.77
563.00	2535.24
563.35	2528.70
563.71	2522.04
564.06	2515.82
564.42	2509.10
564.77	2502.30
565.12	2494.77
565.48	2487.20
565.83	2479.00
566.19	2471.21
566.54	2463.30
566.89	2455.20
567.25	2447.72
567.60	2440.90
567.96	2433.40
568.31	2425.08
568.66	2416.75
569.02	2407.87
569.37	2399.63
569.72	2392.49
570.08	2383.42
570.43	2374.24
570.78	2365.11
571.14	2355.61
571.49	2345.52
571.84	2336.08
572.20	2324.99
572.55	2314.81
572.90	2303.77
573.26	2293.80
573.61	2282.18
573.96	2271.02
574.31	2259.17
574.67	2247.40
575.02	2234.51
575.37	2221.82
575.72	2208.48
576.08	2196.34
576.43	2183.97
576.78	2170.53
577.13	2156.43
577.49	2143.51
577.84	2131.44
578.19	2119.52
578.54	2106.95
578.90	2095.03
579.25	2082.66
579.60	2070.18
579.95	2056.95
580.30	2043.90
580.66	2030.42
581.01	2017.21
581.36	2003.08
581.71	1990.36
582.06	1977.03
582.42	1964.65
582.77	1951.99
583.12	1940.01
583.47	1927.38
583.82	1915.37
584.17	1903.52
584.53	1891.60
584.88	1878.82
585.23	1865.80
585.58	1851.49
585.93	1838.25
586.28	1824.74
586.63	1810.90
586.98	1796.91
587.34	1783.85
587.69	1770.50
588.04	1757.64
588.39	1745.41
588.74	1733.41
589.09	1721.08
589.44	1708.47
589.79	1696.20
590.14	1683.96
590.49	1671.85
590.84	1659.80
591.19	1647.39
591.54	1635.00
591.89	1623.08
592.25	1613.06
592.60	1601.58
592.95	1590.19
593.30	1578.13
593.65	1566.17
594.00	1554.05
594.35	1544.30
594.70	1532.60
595.05	1521.37
595.40	1509.30
595.75	1497.44
596.10	1486.15
596.45	1474.65
596.80	1463.70
597.15	1452.16
597.50	1440.46
597.85	1429.23
598.19	1417.43
598.54	1405.85
598.89	1394.67
599.24	1383.99
599.59	1372.10
599.94	1361.30
600.29	1351.06
600.64	1340.74
600.99	1330.07
601.34	1320.64
601.69	1309.46
602.04	1299.85
602.39	1289.90
602.74	1280.97
603.08	1271.71
603.43	1262.35
603.78	1252.78
604.13	1243.12
604.48	1233.55
604.83	1224.07
605.18	1214.09
605.53	1204.75
605.87	1195.65
606.22	1187.16
606.57	1177.77
606.92	1168.35
607.27	1159.37
607.62	1150.38
607.96	1141.97
608.31	1134.00
608.66	1125.39
609.01	1116.83
609.36	1107.90
609.70	1099.33
610.05	1090.48
610.40	1081.98
610.75	1073.43
611.10	1064.87
611.44	1056.38
611.79	1048.20
612.14	1040.15
612.49	1032.20
612.83	1024.70
613.18	1016.99
613.53	1009.00
613.88	1001.21
614.22	993.42
614.57	985.42
614.92	977.45
615.27	969.80
615.61	961.98
615.96	954.50
616.31	946.99
616.65	940.06
617.00	932.99
617.35	925.88
617.70	918.62
618.04	911.32
618.39	904.72
618.74	898.33
619.08	891.42
619.43	884.55
619.78	877.55
620.12	870.50
620.47	863.51
620.82	856.33
621.16	849.37
621.51	843.04
621.85	836.61
622.20	829.87
622.55	823.08
622.89	816.62
623.24	810.12
623.59	803.77
623.93	797.37
624.28	791.24
624.62	785.65
624.97	779.89
625.32	774.32
625.66	768.22
626.01	761.97
626.35	756.39
626.70	750.72
627.04	745.43
627.39	739.71
627.73	734.45
628.08	729.41
628.43	724.05
628.77	718.55
629.12	713.34
629.46	708.79
629.81	704.15
630.15	699.24
630.50	694.49
630.84	689.61
631.19	684.78
631.53	680.03
631.88	674.78
632.22	669.90
632.57	665.29
632.91	660.63
633.26	656.27
633.60	651.59
633.95	646.95
634.29	642.25
634.64	637.83
634.98	632.99
635.32	628.62
635.67	624.68
636.01	620.54
636.36	616.26
636.70	612.21
637.05	607.98
637.39	604.07
637.73	599.84
638.08	595.72
638.42	591.53
638.77	587.17
639.11	582.74
639.45	578.31
639.80	573.79
640.14	569.63
640.49	565.64
640.83	561.92
641.17	558.35
641.52	554.70
641.86	551.13
642.20	548.07
642.55	544.39
642.89	540.68
643.23	537.08
643.58	533.91
643.92	530.05
644.26	526.58
644.61	523.27
644.95	520.04
645.29	516.67
645.64	513.54
645.98	510.51
646.32	507.73
646.66	504.68
647.01	501.93
647.35	499.25
647.69	496.20
648.04	493.30
648.38	490.52
648.72	487.62
649.06	484.66
649.41	481.50
649.75	478.46
650.09	475.64
650.43	472.76
650.78	469.82
651.12	467.11
651.46	464.35
651.80	461.61
652.14	458.76
652.49	456.28
652.83	453.81
653.17	451.15
653.51	448.30
653.85	445.99
654.20	443.36
654.54	440.78
654.88	438.33
655.22	436.05
655.56	433.48
655.90	431.11
656.25	428.85
656.59	426.79
656.93	424.73
657.27	422.62
657.61	420.36
657.95	418.15
658.29	415.97
658.64	413.96
658.98	411.64
659.32	409.53
659.66	407.24
660.00	404.92
660.34	402.94
660.68	400.92
661.02	398.86
661.36	396.93
661.70	394.88
662.05	392.93
662.39	391.00
662.73	389.31
663.07	387.73
663.41	385.79
663.75	383.67
664.09	381.89
664.43	380.07
664.77	378.39
665.11	376.61
665.45	375.05
665.79	373.32
666.13	371.67
666.47	370.03
666.81	368.42
667.15	366.83
667.49	365.28
667.83	364.02
668.17	362.52
668.51	361.11
668.85	359.82
669.19	358.63
669.53	356.94
669.87	355.27
670.21	353.68
670.55	352.41
670.89	351.33
671.23	349.87
671.57	348.28
671.91	346.91
672.25	345.52
672.58	344.28
672.92	342.92
673.26	341.70
673.60	340.46
673.94	339.28
674.28	338.17
674.62	337.10
674.96	335.80
675.30	334.65
675.64	333.45
675.97	332.15
676.31	330.80
676.65	329.63
676.99	328.71
677.33	327.46
677.67	326.38
678.01	325.10
678.34	324.12
678.68	323.19
679.02	322.07
679.36	321.04
679.70	319.95
680.04	318.99
680.37	317.99
680.71	317.04
681.05	316.10
681.39	315.17
681.73	314.10
682.06	313.16
682.40	312.27
682.74	311.46
683.08	310.82
683.42	309.88
683.75	309.14
684.09	308.17
684.43	307.53
684.77	306.65
685.10	305.85
685.44	305.01
685.78	304.15
686.12	303.44
686.45	302.69
686.79	301.89
687.13	301.17
687.46	300.40
687.80	299.82
688.14	299.08
688.48	298.32
688.81	297.58
689.15	297.01
689.49	296.14
689.82	295.29
690.16	294.30
690.50	293.65
690.83	292.88
691.17	292.07
691.51	291.32
691.84	290.65
692.18	289.98
692.52	289.20
692.85	288.72
693.19	288.27
693.52	287.71
693.86	287.07
694.20	286.39
694.53	285.82
694.87	285.05
695.21	284.39
695.54	283.78
695.88	283.12
696.21	282.30
696.55	281.86
696.88	281.28
697.22	280.69
697.56	280.20
697.89	279.61
698.23	279.11
698.56	278.55
698.90	278.06
699.23	277.47
699.57	277.00
699.90	276.37
700.24	275.65
700.58	275.11
700.91	274.68
701.25	274.53
701.58	274.38
701.92	274.08
702.25	273.67
702.59	273.12
702.92	272.70
703.26	272.40
703.59	271.96
703.93	272.01
704.26	271.62
704.60	271.21
704.93	270.77
705.26	270.30
705.60	269.93
705.93	269.43
706.27	269.21
706.60	268.97
706.94	268.74
707.27	268.40
707.61	268.10
707.94	267.65
708.27	266.93
708.61	266.19
708.94	265.69
709.28	265.31
709.61	264.96
709.94	264.66
710.28	264.33
710.61	263.92
710.95	263.05
711.28	263.09
711.61	262.66
711.95	262.50
712.28	262.11
712.61	261.72
712.95	261.66
713.28	261.48
713.61	261.10
713.95	260.55
714.28	260.22
714.61	259.72
714.95	259.36
715.28	259.00
715.61	258.63
715.95	258.29
716.28	257.89
716.61	257.70
716.95	257.38
717.28	256.95
717.61	256.64
717.94	256.35
718.28	255.66
718.61	255.32
718.94	254.89
719.27	254.66
719.61	254.40
719.94	254.00
720.27	253.49
720.60	253.09
720.94	252.96
721.27	252.72
721.60	252.61
721.93	252.37
722.27	252.29
722.60	252.20
722.93	251.89
723.26	251.69
723.59	251.40
723.93	251.30
724.26	251.14
724.59	250.97
724.92	250.83
725.25	250.81
725.59	250.59
725.92	250.42
726.25	250.25
726.58	250.05
726.91	249.83
727.24	249.67
727.57	249.53
727.91	249.26
728.24	249.02
728.57	248.78
728.90	248.66
729.23	248.41
729.56	248.44
729.89	248.34
730.22	248.12
730.55	247.92
730.89	247.66
731.22	247.43
731.55	247.22
731.88	247.05
732.21	246.76
732.54	246.59
732.87	246.47
733.20	246.25
733.53	246.12
733.86	245.89
734.19	245.70
734.52	245.61
734.85	245.71
735.18	245.59
735.51	245.57
735.84	245.39
736.17	245.39
736.50	244.97
736.83	245.39
737.16	245.31
737.49	245.17
737.82	244.99
738.15	245.01
738.48	244.82
738.81	244.63
739.14	244.42
739.47	244.32
739.80	244.09
740.13	243.97
740.46	243.70
740.79	243.51
741.12	243.37
741.45	243.18
741.78	242.78
742.11	242.79
742.44	242.59
742.77	242.55
743.10	242.27
743.43	242.08
743.75	241.35
744.08	241.81
744.41	241.69
744.74	241.52
745.07	241.25
745.40	241.20
745.73	241.31
746.06	241.21
746.39	241.09
746.71	240.95
747.04	240.91
747.37	240.78
747.70	240.82
748.03	240.69
748.36	240.63
748.68	240.54
749.01	240.24
749.34	240.05
749.67	239.90
750.00	239.88
750.33	240.19
750.65	240.21
750.98	239.54
751.31	239.48
751.64	239.41
751.97	239.47
752.29	239.35
752.62	239.01
752.95	238.92
753.28	238.80
753.60	238.76
753.93	238.66
754.26	238.73
754.59	238.42
754.91	238.29
755.24	238.17
755.57	238.11
755.90	238.05
756.22	237.91
756.55	237.73
756.88	237.52
757.20	237.06
757.53	236.81
757.86	236.65
758.19	236.56
758.51	236.46
758.84	236.12
759.17	235.93
759.49	235.85
759.82	235.98
760.15	235.88
760.47	235.74
760.80	235.52
761.13	235.46
761.45	235.39
761.78	235.32
762.11	235.27
762.43	235.06
762.76	234.93
763.08	234.88
763.41	234.83
763.74	234.74
764.06	234.62
764.39	234.56
764.71	234.45
765.04	234.26
765.37	234.11
765.69	234.05
766.02	233.94
766.34	233.82
766.67	233.58
767.00	233.67
767.32	233.87
767.65	234.11
767.97	234.01
768.30	234.00
768.62	233.92
768.95	233.70
769.27	233.70
769.60	233.75
769.92	233.64
770.25	233.50
770.57	233.37
770.90	233.35
771.22	233.23
771.55	233.22
771.87	233.19
772.20	233.12
772.52	233.50
772.85	234.13
773.17	234.13
773.50	234.00
773.82	233.88
774.15	233.56
774.47	233.19
774.80	233.10
775.12	232.97
775.45	232.92
775.77	232.94
776.09	232.93
776.42	232.79
776.74	232.82
777.07	232.71
777.39	232.65
777.72	232.53
778.04	232.58
778.36	232.51
778.69	232.54
779.01	232.58
779.33	232.12
779.66	231.53
779.98	231.45
780.31	231.51
780.63	231.58
780.95	231.68
781.28	231.65
781.60	231.52
781.92	231.52
782.25	231.40
782.57	231.36
782.89	231.26
783.22	231.25
783.54	231.21
783.86	231.25
784.19	231.21
784.51	231.27
784.83	231.09
785.16	231.01
785.48	230.93
785.80	230.83
786.12	230.85
786.45	230.73
786.77	230.77
787.09	230.69
787.42	230.48
787.74	230.45
788.06	230.49
788.38	230.45
788.71	230.36
789.03	230.40
789.35	230.39
789.67	230.25
789.99	230.25
790.32	230.19
790.64	230.28
790.96	230.57
791.28	230.39
791.61	230.31
791.93	230.37
792.25	230.30
792.57	230.59
792.89	230.49
793.21	230.55
793.54	230.44
793.86	230.32
794.18	230.37
794.50	230.20
794.82	230.17
795.14	230.24
795.47	230.41
795.79	230.41
796.11	230.34
796.43	230.37
796.75	230.37
797.07	230.25
797.39	230.10
797.71	229.82
798.04	229.86
798.36	229.95
798.68	229.81
799.00	229.86
799.32	229.63
799.64	229.68
799.96	229.61
800.28	229.62
800.60	229.64
800.92	229.65
801.24	229.63
801.56	229.63
801.89	229.50
802.21	229.47
802.53	229.32
802.85	229.43
803.17	229.63
803.49	229.50
803.81	229.55
804.13	229.49
804.45	229.50
804.77	229.48
805.09	229.46
805.41	229.45
805.73	229.38
806.05	229.26
806.37	229.19
806.69	229.14
807.01	229.11
807.33	229.08
807.65	228.93
807.97	229.09
808.28	229.04
808.60	229.11
808.92	228.94
809.24	229.32
809.56	229.23
809.88	229.07
810.20	229.12
810.52	229.17
810.84	229.16
811.16	229.04
811.48	229.04
811.80	229.20
812.12	229.26
812.43	229.29
812.75	229.37
813.07	229.37
813.39	229.42
813.71	229.32
814.03	229.24
814.35	229.15
814.67	228.97
814.98	228.89
815.30	228.87
815.62	228.81
815.94	228.42
816.26	228.58
816.58	228.48
816.89	228.49
817.21	228.40
817.53	228.40
817.85	228.40
818.17	228.40
818.48	228.23
818.80	228.28
819.12	228.22
819.44	228.04
819.76	227.90
820.07	227.86
820.39	227.89
820.71	228.01
821.03	228.08
821.34	228.05
821.66	228.08
821.98	228.13
822.30	228.12
822.61	228.45
822.93	228.23
823.25	228.20
823.57	228.13
823.88	228.16
824.20	228.15
824.52	228.22
824.83	228.23
825.15	228.15
825.47	228.06
825.79	228.12
826.10	228.15
826.42	228.14
826.74	228.18
827.05	228.15
827.37	228.11
827.69	228.04
828.00	228.08
828.32	228.12
828.64	227.95
828.95	228.21
829.27	228.05
829.58	228.01
829.90	228.12
830.22	228.15
830.53	228.04
830.85	228.01
831.17	227.87
831.48	227.81
831.80	227.85
832.11	227.80
832.43	227.71
832.75	227.69
833.06	227.93
833.38	227.80
833.69	227.82
834.01	227.83
834.32	227.86
834.64	227.79
834.96	227.75
835.27	227.78
835.59	227.54
835.90	227.45
836.22	227.46
836.53	227.30
836.85	227.30
837.16	227.80
837.48	227.80
837.79	227.96
838.11	228.01
838.42	228.06
838.74	228.20
839.05	228.11
839.37	228.06
839.68	227.82
840.00	227.86
840.31	227.84
840.63	227.81
840.94	227.70
841.26	227.61
841.57	227.61
841.88	227.68
842.20	227.68
842.51	227.64
842.83	227.61
843.14	228.10
843.46	228.03
843.77	227.71
844.08	227.72
844.40	227.57
844.71	227.55
845.03	227.45
845.34	227.36
845.65	227.39
845.97	227.41
846.28	227.47
846.60	227.42
846.91	227.38
847.22	227.30
847.54	227.46
847.85	227.55
848.16	227.56
848.48	227.41
848.79	227.65
849.10	227.74
849.42	227.78
849.73	227.35
850.04	227.29
850.36	227.11
850.67	227.24
850.98	227.25
851.30	227.21
851.61	227.20
851.92	227.19
852.23	227.30
852.55	227.31
852.86	227.33
853.17	227.37
853.49	227.51
853.80	227.61
854.11	227.64
854.42	227.66
854.74	227.53
855.05	227.65
855.36	227.30
855.67	227.22
855.99	227.16
856.30	227.74
856.61	227.83
856.92	227.84
857.23	227.77
857.55	227.72
857.86	227.75
858.17	227.85
858.48	227.75
858.79	227.70
859.11	227.72
859.42	227.68
859.73	227.61
860.04	227.53
860.35	227.49
860.66	227.29
860.98	227.22
861.29	227.36
861.60	227.23
861.91	227.39
862.22	227.31
862.53	227.27
862.84	226.63
863.16	226.72
863.47	226.65
863.78	226.55
864.09	226.64
864.40	226.62
864.71	226.62
865.02	226.74
865.33	226.65
865.64	226.63
865.95	226.59
866.27	226.92
866.58	226.90
866.89	226.88
867.20	226.92
867.51	226.88
867.82	226.74
868.13	226.89
868.44	226.79
868.75	226.94
869.06	226.94
869.37	227.00
869.68	226.86
869.99	226.96
870.30	227.02
870.61	227.01
870.92	226.91
871.23	226.84
871.54	226.82
871.85	226.92
872.16	226.98
872.47	226.95
872.78	226.66
873.09	226.67
873.40	226.64
873.71	226.72
874.02	226.75
874.33	226.77
874.64	226.69
874.95	226.76
875.26	226.63
875.56	226.64
875.87	226.59
876.18	226.54
876.49	227.04
876.80	227.00
877.11	226.92
877.42	227.00
877.73	227.00
878.04	226.96
878.35	226.95
878.66	226.95
878.96	227.03
879.27	226.98
879.58	226.98
879.89	226.91
880.20	227.04
880.51	227.04
880.82	227.08
881.12	227.08
881.43	227.05
881.74	227.01
882.05	226.95
882.36	226.99
882.67	227.07
882.97	226.55
883.28	226.51
883.59	226.54
883.90	226.60
884.21	226.65
884.51	226.62
884.82	226.58
885.13	226.59
885.44	226.52
885.74	226.53
886.05	226.51
886.36	226.57
886.67	226.36
886.98	226.66
887.28	226.66
887.59	226.69
887.90	226.61
888.20	226.67
888.51	226.77
888.82	226.72
889.13	226.70
889.43	227.07
889.74	227.09
890.05	227.07
890.35	226.98
890.66	226.91
890.97	226.91
891.28	226.91
891.58	226.90
891.89	226.91
892.20	226.96
892.50	226.94
892.81	226.87
893.12	226.88
893.42	226.62
893.73	226.62
894.04	226.67
894.34	226.73
894.65	226.65
894.95	226.60
895.26	226.59
895.57	226.76
895.87	226.27
896.18	226.31
896.48	226.34
896.79	226.36
897.10	226.45
897.40	226.51
897.71	226.50
898.01	226.49
898.32	226.59
898.63	226.49
898.93	226.47
899.24	226.53
899.54	226.51
899.85	226.50
900.15	226.52
900.46	226.55
900.76	226.66
901.07	226.69
901.38	226.71
901.68	226.87
901.99	226.71
902.29	226.76
902.60	226.76
902.90	226.71
903.21	226.74
903.51	226.67
903.82	226.69
904.12	226.73
904.43	226.74
904.73	226.65
905.03	226.77
905.34	227.24
905.64	227.16
905.95	227.20
906.25	227.20
906.56	227.15
906.86	227.00
907.17	226.87
907.47	226.87
907.77	226.80
908.08	226.61
908.38	226.62
908.69	226.69
908.99	226.74
909.30	226.76
909.60	226.76
909.90	226.74
910.21	226.60
910.51	226.52
910.81	226.48
911.12	226.48
911.42	226.44
911.73	225.94
912.03	226.00
912.33	226.01
912.64	226.00
912.94	225.93
913.24	225.95
913.55	225.92
913.85	225.95
914.15	226.04
914.46	226.16
914.76	226.13
915.06	226.05
915.37	226.00
915.67	225.99
915.97	225.97
916.27	225.96
916.58	225.99
916.88	225.97
917.18	225.97
917.49	226.34
917.79	226.25
918.09	226.35
918.39	226.50
918.70	226.55
919.00	226.51
919.30	226.82
919.60	226.80
919.91	226.79
920.21	226.77
920.51	226.67
920.81	226.67
921.12	226.72
921.42	226.75
921.72	226.80
922.02	226.81
922.32	226.89
922.63	226.89
922.93	227.14
923.23	227.19
923.53	227.22
923.83	226.91
924.13	227.05
924.44	227.04
924.74	227.10
925.04	227.21
925.34	227.27
925.64	227.03
925.94	226.99
926.24	227.31
926.55	227.31
926.85	227.37
927.15	227.32
927.45	227.32
927.75	227.31
928.05	227.19
928.35	227.22
928.65	227.28
928.95	227.35
929.26	227.23
929.56	227.29
929.86	227.40
930.16	227.34
930.46	227.33
930.76	227.31
931.06	227.07
931.36	226.90
931.66	227.01
931.96	227.16
932.26	227.24
932.56	227.07
932.86	227.14
933.16	227.20
933.46	227.19
933.76	227.12
934.06	227.32
934.36	227.56
934.66	227.53
934.96	227.47
935.26	227.46
935.56	227.47
935.86	227.37
936.16	227.29
936.46	227.25
936.76	227.20
937.06	227.14
937.36	227.19
937.66	227.24
937.96	227.20
938.26	227.05
938.56	227.09
938.86	227.03
939.16	227.07
939.46	227.15
939.76	227.18
940.06	227.23
940.35	227.08
940.65	226.83
940.95	226.83
941.25	226.70
941.55	226.63
941.85	226.60
942.15	226.71
942.45	226.77
942.75	226.81
943.04	226.86
943.34	226.97
943.64	227.02
943.94	226.96
944.24	226.89
944.54	226.91
944.84	226.84
945.13	226.80
945.43	226.69
945.73	226.64
946.03	226.63
946.33	226.60
946.62	226.50
946.92	226.55
947.22	226.62
947.52	226.71
947.82	226.79
948.11	226.75
948.41	226.65
948.71	226.51
949.01	226.45
949.31	226.38
949.60	226.38
949.90	226.40
950.20	226.38
950.50	226.35
950.79	226.25
951.09	226.37
951.39	226.33
951.69	226.31
951.98	226.32
952.28	226.34
952.58	226.34
952.87	226.45
953.17	226.51
953.47	226.49
953.76	226.47
954.06	226.39
954.36	226.35
954.66	226.35
954.95	226.52
955.25	226.57
955.55	226.61
955.84	226.48
956.14	226.45
956.44	226.46
956.73	226.37
957.03	226.51
957.32	226.39
957.62	226.40
957.92	226.46
958.21	226.40
958.51	226.90
958.81	226.91
959.10	226.87
959.40	226.95
959.69	226.94
959.99	227.00
960.29	227.02
960.58	226.99
960.88	227.12
961.17	227.00
961.47	227.05
961.76	227.03
962.06	227.13
962.36	227.07
962.65	227.07
962.95	227.20
963.24	227.13
963.54	227.19
963.83	227.19
964.13	227.17
964.42	227.09
964.72	226.70
965.01	226.68
965.31	226.60
965.60	226.52
965.90	226.78
966.19	226.63
966.49	226.63
966.78	226.57
967.08	226.58
967.37	226.61
967.67	226.49
967.96	226.51
968.26	226.43
968.55	226.50
968.85	226.52
969.14	226.47
969.43	226.45
969.73	226.39
970.02	226.46
970.32	226.45
970.61	226.45
970.91	226.29
971.20	226.21
971.49	226.21
971.79	226.22
972.08	225.77
972.38	225.87
972.67	225.81
972.96	225.92
973.26	225.80
973.55	225.89
973.85	225.96
974.14	226.02
974.43	226.11
974.73	226.09
975.02	225.99
975.31	225.97
975.61	225.95
975.90	225.86
976.19	225.72
976.49	225.77
976.78	225.81
977.07	225.86
977.37	225.90
977.66	225.99
977.95	225.91
978.24	226.03
978.54	226.08
978.83	226.07
979.12	225.99
979.42	225.97
979.71	225.92
980.00	225.82
980.29	225.72
980.59	225.68
980.88	225.80
981.17	225.84
981.46	225.83
981.76	225.86
982.05	226.03
982.34	226.08
982.63	226.08
982.93	225.99
983.22	226.19
983.51	226.18
983.80	226.21
984.09	226.28
984.39	226.30
984.68	226.22
984.97	226.28
985.26	226.29
985.55	226.35
985.85	226.29
986.14	226.39
986.43	226.53
986.72	226.43
987.01	226.28
987.30	226.23
987.59	226.17
987.89	226.14
988.18	226.00
988.47	226.00
988.76	225.99
989.05	225.96
989.34	225.83
989.63	226.01
989.92	226.00
990.22	225.96
990.51	225.92
990.80	225.95
991.09	226.02
991.38	226.10
991.67	226.05
991.96	225.99
992.25	226.02
992.54	225.92
992.83	225.98
993.12	225.89
993.41	226.07
993.70	226.30
993.99	226.45
994.28	226.56
994.58	226.71
994.87	226.67
995.16	226.77
995.45	226.71
995.74	226.51
996.03	226.56
996.32	226.64
996.61	226.76
996.90	226.70
997.19	226.66
997.48	226.70
997.77	226.66
998.06	226.71
998.34	226.68
998.63	226.72
998.92	226.73
999.21	226.84
999.50	226.81
999.79	226.68
1000.08	226.64
1000.37	226.68
1000.66	226.55
1000.95	226.60
1001.24	226.58
1001.53	226.67
1001.82	226.63
1002.11	226.45
1002.40	226.50
1002.68	226.65
1002.97	226.94
1003.26	226.87
1003.55	226.75
1003.84	226.84
1004.13	226.97
1004.42	226.94
1004.71	226.88
1004.99	226.83
1005.28	226.98
1005.57	226.90
1005.86	226.86
1006.15	226.78
1006.44	226.68
1006.72	226.74
1007.01	226.69
1007.30	226.73
1007.59	226.66
1007.88	226.66
1008.17	226.71
1008.45	226.56
1008.74	226.33
1009.03	226.18
1009.32	226.26
1009.60	226.25
1009.89	226.14
1010.18	225.94
1010.47	225.87
1010.76	225.84
1011.04	225.88
1011.33	225.84
1011.62	225.90
1011.91	225.94
1012.19	225.96
1012.48	225.97
1012.77	225.90
1013.05	226.11
1013.34	226.02
1013.63	225.96
1013.92	226.00
1014.20	225.96
1014.49	225.99
1014.78	226.01
1015.06	225.80
1015.35	225.73
1015.64	225.79
1015.92	225.92
1016.21	226.02
1016.50	226.07
1016.78	226.12
1017.07	226.05
1017.36	226.03
1017.64	225.96
1017.93	225.99
1018.22	225.90
1018.50	225.89
1018.79	225.85
1019.08	225.64
1019.36	225.69
1019.65	225.72
1019.93	225.89
1020.22	226.02
1020.51	226.22
1020.79	226.13
1021.08	224.20
1021.36	225.35
1021.65	224.05
1021.94	226.15
1022.22	225.90
1022.51	225.95
1022.79	229.00
1023.08	227.20
1023.36	230.75
1023.65	223.85
>>>>>End Processed Spectral Data<<<<<
