SpectraSuite Data File
++++++++++++++++++++++++++++++++++++
Date: Wed Sep 04 17:47:35 EDT 2013
User: lab3
Dark Spectrum Present: Yes
Reference Spectrum Present: No
Number of Sampled Component Spectra: 1
Spectrometers: USB2E7196
Integration Time (usec): 170000 (USB2E7196)
Spectra Averaged: 20 (USB2E7196)
Boxcar Smoothing: 10 (USB2E7196)
Correct for Electrical Dark: No (USB2E7196)
Strobe/Lamp Enabled: No (USB2E7196)
Correct for Detector Non-linearity: No (USB2E7196)
Correct for Stray Light: No (USB2E7196)
Number of Pixels in Processed Spectrum: 2048
>>>>>Begin Processed Spectral Data<<<<<
339.09	0.00
339.48	213.25
339.86	215.00
340.24	215.05
340.63	216.45
341.01	224.40
341.39	218.95
341.78	221.60
342.16	223.70
342.54	223.35
342.93	211.90
343.31	222.60
343.69	223.15
344.07	223.62
344.46	224.14
344.84	224.55
345.22	224.56
345.60	224.85
345.99	225.07
346.37	225.14
346.75	225.19
347.13	225.27
347.52	225.36
347.90	225.51
348.28	225.56
348.66	225.65
349.05	225.60
349.43	225.72
349.81	225.87
350.19	225.90
350.57	225.92
350.96	226.03
351.34	226.12
351.72	226.12
352.10	226.21
352.48	226.20
352.87	226.30
353.25	226.43
353.63	226.49
354.01	226.57
354.39	226.65
354.77	226.78
355.15	226.93
355.54	226.95
355.92	226.87
356.30	226.92
356.68	227.29
357.06	227.32
357.44	227.30
357.82	227.30
358.20	227.80
358.58	227.85
358.97	227.92
359.35	228.09
359.73	228.28
360.11	228.28
360.49	228.36
360.87	228.37
361.25	228.43
361.63	228.65
362.01	228.65
362.39	228.66
362.77	228.75
363.15	228.79
363.53	228.82
363.91	228.95
364.29	228.98
364.67	228.57
365.05	228.62
365.43	228.73
365.81	228.87
366.19	228.71
366.57	228.95
366.95	228.96
367.33	228.81
367.71	228.84
368.09	228.97
368.47	229.00
368.85	228.97
369.23	229.07
369.61	228.93
369.99	229.10
370.37	229.15
370.75	229.38
371.13	229.32
371.51	229.28
371.89	229.28
372.27	229.30
372.65	229.34
373.03	229.38
373.41	229.25
373.78	229.11
374.16	228.85
374.54	228.64
374.92	228.56
375.30	228.53
375.68	228.39
376.06	228.31
376.44	228.15
376.82	228.09
377.19	227.98
377.57	227.87
377.95	227.55
378.33	227.49
378.71	227.07
379.09	226.99
379.47	227.01
379.84	226.85
380.22	226.75
380.60	226.60
380.98	226.45
381.36	226.48
381.73	226.33
382.11	226.31
382.49	226.25
382.87	226.08
383.25	226.00
383.62	226.52
384.00	226.39
384.38	226.47
384.76	226.51
385.13	226.65
385.51	226.61
385.89	226.64
386.27	226.54
386.64	226.63
387.02	226.58
387.40	226.48
387.78	226.50
388.15	226.43
388.53	226.38
388.91	226.34
389.29	226.15
389.66	226.22
390.04	226.15
390.42	226.20
390.79	226.18
391.17	226.26
391.55	225.71
391.92	225.78
392.30	225.70
392.68	225.71
393.05	225.61
393.43	225.60
393.81	225.61
394.18	225.60
394.56	225.59
394.94	225.66
395.31	225.60
395.69	225.69
396.06	225.84
396.44	225.86
396.82	225.87
397.19	226.25
397.57	226.26
397.95	226.39
398.32	226.21
398.70	226.39
399.07	226.57
399.45	226.57
399.82	226.64
400.20	226.78
400.58	226.78
400.95	226.66
401.33	226.95
401.70	227.42
402.08	227.59
402.45	227.70
402.83	228.03
403.20	228.31
403.58	228.41
403.95	228.64
404.33	228.87
404.71	229.10
405.08	229.51
405.46	229.72
405.83	229.94
406.21	230.28
406.58	230.57
406.96	230.79
407.33	231.19
407.70	231.58
408.08	232.30
408.45	232.76
408.83	233.35
409.20	233.67
409.58	233.77
409.95	234.25
410.33	234.84
410.70	235.23
411.08	235.84
411.45	236.50
411.82	237.02
412.20	237.81
412.57	238.80
412.95	239.20
413.32	240.10
413.69	240.96
414.07	241.91
414.44	242.91
414.82	243.89
415.19	245.08
415.56	246.13
415.94	247.09
416.31	248.60
416.68	249.98
417.06	251.60
417.43	253.29
417.81	255.07
418.18	256.84
418.55	258.70
418.93	260.70
419.30	262.74
419.67	265.00
420.04	267.24
420.42	269.53
420.79	272.55
421.16	275.34
421.54	278.40
421.91	281.35
422.28	284.30
422.66	287.52
423.03	290.91
423.40	294.34
423.77	297.82
424.15	301.20
424.52	304.87
424.89	308.98
425.26	312.85
425.64	316.56
426.01	320.67
426.38	324.99
426.75	329.38
427.13	333.94
427.50	338.57
427.87	343.47
428.24	348.27
428.61	352.64
428.99	357.83
429.36	363.10
429.73	368.40
430.10	373.91
430.47	379.53
430.85	385.10
431.22	391.17
431.59	397.79
431.96	404.01
432.33	410.84
432.70	417.35
433.08	425.07
433.45	432.35
433.82	439.54
434.19	447.61
434.56	455.61
434.93	463.10
435.30	470.79
435.68	479.16
436.05	487.31
436.42	495.65
436.79	503.22
437.16	511.45
437.53	520.20
437.90	528.68
438.27	537.07
438.64	545.89
439.01	553.89
439.38	561.07
439.75	568.08
440.13	576.17
440.50	583.54
440.87	589.59
441.24	595.80
441.61	602.59
441.98	607.61
442.35	613.39
442.72	619.46
443.09	625.12
443.46	628.55
443.83	630.82
444.20	632.59
444.57	635.29
444.94	636.48
445.31	637.57
445.68	638.95
446.05	639.14
446.42	637.75
446.79	636.42
447.16	634.74
447.53	633.46
447.90	629.74
448.27	626.19
448.64	621.29
449.01	617.73
449.37	611.87
449.74	605.93
450.11	599.15
450.48	591.39
450.85	583.61
451.22	576.80
451.59	570.64
451.96	564.56
452.33	556.58
452.70	549.37
453.07	540.90
453.43	531.95
453.80	523.70
454.17	515.69
454.54	508.25
454.91	500.28
455.28	492.50
455.65	485.18
456.02	478.47
456.38	472.37
456.75	464.81
457.12	458.33
457.49	452.10
457.86	445.79
458.23	440.71
458.59	434.98
458.96	429.32
459.33	424.15
459.70	419.12
460.07	415.02
460.43	410.22
460.80	406.00
461.17	402.37
461.54	398.50
461.91	394.91
462.27	390.95
462.64	387.83
463.01	384.32
463.38	381.13
463.74	377.15
464.11	374.07
464.48	371.45
464.85	368.65
465.21	366.51
465.58	364.20
465.95	361.37
466.32	359.23
466.68	357.05
467.05	354.84
467.42	352.69
467.78	350.37
468.15	348.31
468.52	346.70
468.88	344.45
469.25	342.54
469.62	341.08
469.98	339.49
470.35	337.87
470.72	336.42
471.08	334.55
471.45	333.24
471.82	331.97
472.18	330.56
472.55	329.58
472.92	328.32
473.28	327.26
473.65	326.23
474.02	325.16
474.38	324.29
474.75	323.44
475.11	322.53
475.48	321.94
475.85	321.41
476.21	320.77
476.58	320.33
476.94	319.94
477.31	319.39
477.67	319.01
478.04	318.62
478.41	318.42
478.77	318.78
479.14	318.61
479.50	318.57
479.87	318.63
480.23	318.62
480.60	318.58
480.96	318.61
481.33	319.05
481.69	319.22
482.06	319.42
482.42	319.75
482.79	320.06
483.15	320.43
483.52	320.98
483.88	321.49
484.25	322.06
484.61	322.69
484.98	323.42
485.34	324.44
485.71	325.44
486.07	326.33
486.44	326.88
486.80	327.85
487.17	328.98
487.53	330.35
487.90	331.62
488.26	333.33
488.62	335.00
488.99	336.32
489.35	338.13
489.72	340.07
490.08	341.94
490.44	343.94
490.81	346.16
491.17	348.35
491.54	350.74
491.90	353.28
492.26	355.93
492.63	358.69
492.99	361.51
493.36	364.61
493.72	367.91
494.08	371.40
494.45	375.17
494.81	378.98
495.17	382.73
495.54	387.02
495.90	391.19
496.26	395.60
496.63	400.28
496.99	404.99
497.35	409.97
497.72	415.23
498.08	420.60
498.44	426.28
498.80	432.21
499.17	438.30
499.53	444.48
499.89	451.13
500.26	457.99
500.62	464.92
500.98	472.18
501.34	479.55
501.71	487.29
502.07	494.99
502.43	503.06
502.79	511.38
503.16	520.03
503.52	528.98
503.88	538.19
504.24	547.68
504.60	557.68
504.97	567.88
505.33	578.31
505.69	589.56
506.05	600.54
506.41	611.79
506.78	623.27
507.14	635.27
507.50	647.44
507.86	659.93
508.22	672.70
508.59	685.75
508.95	699.31
509.31	713.11
509.67	727.36
510.03	741.45
510.39	756.07
510.75	770.75
511.12	785.74
511.48	801.18
511.84	816.80
512.20	832.67
512.56	848.80
512.92	865.39
513.28	881.91
513.64	898.81
514.00	916.09
514.37	933.63
514.73	951.45
515.09	969.39
515.45	987.47
515.81	1005.57
516.17	1024.08
516.53	1042.49
516.89	1061.05
517.25	1080.07
517.61	1100.16
517.97	1120.06
518.33	1139.79
518.69	1159.65
519.05	1179.85
519.41	1200.30
519.77	1221.06
520.13	1241.49
520.49	1261.89
520.85	1283.70
521.21	1304.68
521.57	1325.72
521.93	1346.51
522.29	1367.54
522.65	1387.88
523.01	1408.64
523.37	1429.01
523.73	1449.64
524.09	1470.23
524.45	1490.59
524.81	1511.39
525.17	1531.67
525.53	1552.09
525.89	1572.90
526.25	1593.81
526.61	1613.74
526.97	1634.24
527.33	1654.98
527.68	1676.37
528.04	1697.24
528.40	1716.75
528.76	1737.28
529.12	1757.48
529.48	1777.70
529.84	1797.34
530.20	1818.38
530.56	1838.82
530.91	1859.53
531.27	1879.80
531.63	1899.87
531.99	1920.23
532.35	1939.72
532.71	1959.22
533.07	1979.60
533.42	1999.23
533.78	2018.40
534.14	2038.16
534.50	2057.05
534.86	2076.02
535.21	2092.98
535.57	2110.94
535.93	2128.26
536.29	2145.83
536.65	2163.40
537.00	2180.90
537.36	2198.09
537.72	2213.94
538.08	2230.39
538.44	2246.95
538.79	2262.71
539.15	2278.95
539.51	2294.55
539.87	2309.29
540.22	2323.26
540.58	2337.07
540.94	2349.53
541.29	2362.15
541.65	2374.25
542.01	2386.50
542.37	2396.45
542.72	2407.17
543.08	2417.50
543.44	2428.68
543.79	2438.01
544.15	2447.34
544.51	2456.72
544.87	2466.17
545.22	2474.56
545.58	2481.93
545.94	2488.50
546.29	2494.60
546.65	2500.21
547.01	2505.48
547.36	2510.90
547.72	2515.94
548.07	2519.53
548.43	2524.66
548.79	2529.13
549.14	2532.84
549.50	2536.36
549.86	2540.20
550.21	2543.99
550.57	2547.18
550.92	2548.55
551.28	2550.07
551.64	2552.39
551.99	2553.84
552.35	2555.04
552.70	2557.02
553.06	2558.79
553.41	2559.64
553.77	2561.26
554.13	2562.58
554.48	2563.90
554.84	2564.42
555.19	2565.67
555.55	2567.02
555.90	2566.14
556.26	2564.83
556.61	2563.04
556.97	2560.50
557.32	2559.46
557.68	2557.94
558.03	2556.42
558.39	2554.62
558.74	2553.44
559.10	2549.86
559.45	2546.27
559.81	2541.30
560.16	2535.72
560.52	2530.53
560.87	2526.00
561.23	2520.54
561.58	2514.51
561.94	2507.45
562.29	2500.33
562.64	2492.69
563.00	2484.70
563.35	2478.05
563.71	2471.11
564.06	2464.91
564.42	2458.52
564.77	2451.76
565.12	2444.33
565.48	2436.62
565.83	2428.90
566.19	2420.76
566.54	2412.95
566.89	2404.99
567.25	2397.52
567.60	2390.88
567.96	2383.02
568.31	2375.05
568.66	2366.82
569.02	2357.97
569.37	2349.94
569.72	2342.42
570.08	2333.63
570.43	2324.08
570.78	2315.20
571.14	2305.91
571.49	2295.75
571.84	2286.30
572.20	2275.45
572.55	2265.49
572.90	2254.47
573.26	2243.89
573.61	2233.00
573.96	2221.77
574.31	2209.90
574.67	2198.42
575.02	2185.20
575.37	2172.92
575.72	2159.98
576.08	2147.82
576.43	2135.59
576.78	2122.51
577.13	2109.08
577.49	2096.45
577.84	2084.68
578.19	2072.56
578.54	2060.26
578.90	2048.64
579.25	2036.33
579.60	2023.76
579.95	2010.97
580.30	1998.16
580.66	1985.35
581.01	1971.89
581.36	1958.11
581.71	1945.77
582.06	1932.94
582.42	1921.26
582.77	1909.01
583.12	1897.20
583.47	1885.03
583.82	1873.23
584.17	1861.39
584.53	1849.80
584.88	1837.07
585.23	1824.15
585.58	1810.39
585.93	1797.41
586.28	1784.29
586.63	1770.84
586.98	1757.44
587.34	1744.34
587.69	1731.66
588.04	1719.08
588.39	1707.56
588.74	1696.17
589.09	1684.20
589.44	1671.58
589.79	1659.61
590.14	1647.69
590.49	1635.90
590.84	1623.99
591.19	1612.18
591.54	1600.22
591.89	1588.35
592.25	1578.44
592.60	1567.40
592.95	1556.15
593.30	1544.59
593.65	1532.82
594.00	1521.00
594.35	1511.44
594.70	1499.93
595.05	1488.48
595.40	1476.69
595.75	1465.06
596.10	1453.92
596.45	1442.75
596.80	1432.21
597.15	1420.91
597.50	1409.73
597.85	1398.73
598.19	1387.47
598.54	1376.06
598.89	1365.07
599.24	1354.83
599.59	1343.58
599.94	1332.57
600.29	1322.64
600.64	1312.60
600.99	1302.10
601.34	1292.90
601.69	1281.64
602.04	1272.20
602.39	1262.87
602.74	1253.98
603.08	1244.56
603.43	1235.48
603.78	1225.86
604.13	1216.76
604.48	1207.00
604.83	1197.25
605.18	1187.71
605.53	1178.41
605.87	1169.42
606.22	1161.09
606.57	1152.01
606.92	1142.65
607.27	1134.43
607.62	1125.80
607.96	1117.48
608.31	1109.94
608.66	1101.67
609.01	1093.45
609.36	1084.95
609.70	1076.60
610.05	1068.21
610.40	1060.08
610.75	1051.56
611.10	1043.56
611.44	1034.89
611.79	1027.36
612.14	1019.92
612.49	1012.24
612.83	1004.98
613.18	997.43
613.53	989.81
613.88	981.82
614.22	974.56
614.57	966.65
614.92	958.92
615.27	951.56
615.61	944.05
615.96	936.69
616.31	929.27
616.65	922.58
617.00	915.36
617.35	908.28
617.70	901.16
618.04	894.27
618.39	887.48
618.74	881.48
619.08	874.65
619.43	867.69
619.78	860.88
620.12	853.80
620.47	847.27
620.82	840.38
621.16	834.00
621.51	827.82
621.85	821.56
622.20	815.16
622.55	808.66
622.89	802.49
623.24	796.29
623.59	790.13
623.93	783.75
624.28	777.78
624.62	772.30
624.97	766.84
625.32	761.24
625.66	755.39
626.01	749.25
626.35	743.92
626.70	738.55
627.04	733.32
627.39	728.08
627.73	722.72
628.08	717.76
628.43	712.35
628.77	706.78
629.12	701.71
629.46	697.10
629.81	692.66
630.15	687.86
630.50	683.03
630.84	678.40
631.19	673.72
631.53	669.25
631.88	664.19
632.22	659.47
632.57	655.11
632.91	650.72
633.26	646.61
633.60	642.05
633.95	637.63
634.29	633.09
634.64	628.67
634.98	624.08
635.32	619.74
635.67	616.00
636.01	612.17
636.36	607.91
636.70	603.76
637.05	599.47
637.39	595.44
637.73	591.36
638.08	587.48
638.42	583.40
638.77	579.34
639.11	575.14
639.45	570.75
639.80	566.44
640.14	562.52
640.49	558.56
640.83	554.72
641.17	550.99
641.52	547.35
641.86	543.89
642.20	540.89
642.55	537.27
642.89	533.70
643.23	530.16
643.58	527.24
643.92	523.57
644.26	520.17
644.61	516.95
644.95	513.70
645.29	510.30
645.64	507.31
645.98	504.15
646.32	501.29
646.66	498.39
647.01	495.50
647.35	492.69
647.69	489.75
648.04	487.11
648.38	484.31
648.72	481.52
649.06	478.51
649.41	475.47
649.75	472.56
650.09	469.67
650.43	466.92
650.78	463.95
651.12	461.40
651.46	458.71
651.80	455.98
652.14	453.32
652.49	450.90
652.83	448.28
653.17	445.68
653.51	443.00
653.85	440.61
654.20	438.23
654.54	435.61
654.88	433.09
655.22	430.82
655.56	428.55
655.90	426.20
656.25	424.11
656.59	421.78
656.93	419.76
657.27	417.75
657.61	415.34
657.95	413.13
658.29	410.97
658.64	408.93
658.98	406.70
659.32	404.48
659.66	402.33
660.00	400.19
660.34	398.27
660.68	396.43
661.02	394.48
661.36	392.59
661.70	390.71
662.05	388.88
662.39	386.92
662.73	385.19
663.07	383.65
663.41	381.85
663.75	380.09
664.09	378.28
664.43	376.32
664.77	374.81
665.11	373.11
665.45	371.55
665.79	370.01
666.13	368.46
666.47	366.94
666.81	365.30
667.15	363.72
667.49	362.30
667.83	360.91
668.17	359.41
668.51	357.91
668.85	356.67
669.19	355.60
669.53	354.12
669.87	352.55
670.21	351.05
670.55	349.54
670.89	348.49
671.23	347.10
671.57	345.83
671.91	344.52
672.25	343.27
672.58	342.06
672.92	340.60
673.26	339.28
673.60	338.14
673.94	337.05
674.28	336.11
674.62	334.94
674.96	333.72
675.30	332.65
675.64	331.51
675.97	330.25
676.31	328.91
676.65	327.73
676.99	326.84
677.33	325.56
677.67	324.55
678.01	323.25
678.34	322.23
678.68	321.29
679.02	320.14
679.36	319.17
679.70	318.09
680.04	317.22
680.37	316.36
680.71	315.35
681.05	314.45
681.39	313.47
681.73	312.45
682.06	311.48
682.40	310.58
682.74	309.78
683.08	309.07
683.42	308.04
683.75	307.38
684.09	306.33
684.43	305.56
684.77	304.74
685.10	303.90
685.44	303.11
685.78	302.28
686.12	301.63
686.45	300.78
686.79	299.93
687.13	299.25
687.46	298.53
687.80	297.88
688.14	297.10
688.48	296.33
688.81	295.58
689.15	294.95
689.49	294.20
689.82	293.41
690.16	292.52
690.50	291.98
690.83	291.14
691.17	290.40
691.51	289.82
691.84	289.14
692.18	288.55
692.52	287.90
692.85	287.38
693.19	286.89
693.52	286.27
693.86	285.65
694.20	285.00
694.53	284.32
694.87	283.62
695.21	282.98
695.54	282.41
695.88	281.74
696.21	281.08
696.55	280.41
696.88	279.82
697.22	279.24
697.56	278.71
697.89	278.15
698.23	277.75
698.56	277.15
698.90	276.73
699.23	276.13
699.57	275.65
699.90	274.98
700.24	274.27
700.58	273.91
700.91	273.54
701.25	273.39
701.58	273.26
701.92	272.91
702.25	272.54
702.59	272.11
702.92	271.84
703.26	271.32
703.59	270.95
703.93	270.98
704.26	270.62
704.60	270.16
704.93	269.75
705.26	269.25
705.60	268.96
705.93	268.44
706.27	268.23
706.60	267.94
706.94	267.82
707.27	267.50
707.61	267.10
707.94	266.75
708.27	266.03
708.61	265.39
708.94	264.95
709.28	264.48
709.61	263.99
709.94	263.59
710.28	263.36
710.61	263.03
710.95	262.25
711.28	262.28
711.61	261.93
711.95	261.70
712.28	261.41
712.61	261.01
712.95	260.86
713.28	260.68
713.61	260.29
713.95	259.77
714.28	259.49
714.61	259.06
714.95	258.64
715.28	258.20
715.61	257.85
715.95	257.60
716.28	257.28
716.61	257.10
716.95	256.68
717.28	256.40
717.61	256.05
717.94	255.77
718.28	255.05
718.61	254.70
718.94	254.36
719.27	254.01
719.61	253.80
719.94	253.50
720.27	253.05
720.60	252.79
720.94	252.56
721.27	252.41
721.60	252.31
721.93	252.11
722.27	252.15
722.60	251.93
722.93	251.71
723.26	251.57
723.59	251.26
723.93	251.22
724.26	250.91
724.59	250.71
724.92	250.51
725.25	250.53
725.59	250.42
725.92	250.24
726.25	250.13
726.58	249.97
726.91	249.74
727.24	249.54
727.57	249.33
727.91	249.08
728.24	248.90
728.57	248.65
728.90	248.48
729.23	248.10
729.56	248.19
729.89	247.97
730.22	247.71
730.55	247.53
730.89	247.29
731.22	247.22
731.55	247.03
731.88	246.86
732.21	246.44
732.54	246.23
732.87	246.10
733.20	245.94
733.53	245.72
733.86	245.60
734.19	245.41
734.52	245.27
734.85	245.41
735.18	245.10
735.51	245.06
735.84	244.95
736.17	244.90
736.50	244.47
736.83	244.82
737.16	244.74
737.49	244.56
737.82	244.38
738.15	244.18
738.48	244.03
738.81	243.83
739.14	243.73
739.47	243.51
739.80	243.30
740.13	243.14
740.46	242.91
740.79	242.67
741.12	242.48
741.45	242.29
741.78	241.90
742.11	241.86
742.44	241.57
742.77	241.51
743.10	241.30
743.43	241.11
743.75	240.37
744.08	240.84
744.41	240.71
744.74	240.60
745.07	240.44
745.40	240.36
745.73	240.47
746.06	240.42
746.39	240.40
746.71	240.26
747.04	240.12
747.37	240.00
747.70	239.97
748.03	239.90
748.36	239.85
748.68	239.70
749.01	239.41
749.34	239.30
749.67	239.15
750.00	239.15
750.33	239.46
750.65	239.49
750.98	238.75
751.31	238.65
751.64	238.59
751.97	238.72
752.29	238.54
752.62	238.22
752.95	238.03
753.28	237.80
753.60	237.64
753.93	237.56
754.26	237.58
754.59	237.36
754.91	237.15
755.24	237.00
755.57	237.01
755.90	236.97
756.22	236.84
756.55	236.66
756.88	236.47
757.20	236.03
757.53	235.76
757.86	235.72
758.19	235.71
758.51	235.57
758.84	235.24
759.17	235.18
759.49	235.12
759.82	235.23
760.15	235.32
760.47	235.28
760.80	235.12
761.13	235.07
761.45	235.00
761.78	234.93
762.11	234.89
762.43	234.65
762.76	234.55
763.08	234.63
763.41	234.65
763.74	234.60
764.06	234.54
764.39	234.57
764.71	234.45
765.04	234.29
765.37	234.22
765.69	234.16
766.02	234.07
766.34	234.01
766.67	233.79
767.00	233.72
767.32	233.90
767.65	234.09
767.97	234.00
768.30	233.98
768.62	233.98
768.95	233.84
769.27	233.80
769.60	233.82
769.92	233.62
770.25	233.39
770.57	233.15
770.90	233.09
771.22	232.93
771.55	232.87
771.87	232.84
772.20	232.74
772.52	233.08
772.85	233.59
773.17	233.56
773.50	233.48
773.82	233.39
774.15	233.10
774.47	232.75
774.80	232.61
775.12	232.56
775.45	232.47
775.77	232.47
776.09	232.44
776.42	232.38
776.74	232.49
777.07	232.48
777.39	232.50
777.72	232.44
778.04	232.51
778.36	232.48
778.69	232.47
779.01	232.43
779.33	231.98
779.66	231.49
779.98	231.34
780.31	231.35
780.63	231.50
780.95	231.56
781.28	231.53
781.60	231.45
781.92	231.39
782.25	231.34
782.57	231.29
782.89	231.19
783.22	231.15
783.54	230.97
783.86	230.87
784.19	230.85
784.51	230.85
784.83	230.72
785.16	230.60
785.48	230.55
785.80	230.49
786.12	230.49
786.45	230.36
786.77	230.37
787.09	230.19
787.42	229.89
787.74	229.85
788.06	229.81
788.38	229.70
788.71	229.53
789.03	229.51
789.35	229.53
789.67	229.45
789.99	229.45
790.32	229.40
790.64	229.51
790.96	229.81
791.28	229.67
791.61	229.59
791.93	229.63
792.25	229.59
792.57	229.90
792.89	229.76
793.21	229.72
793.54	229.70
793.86	229.72
794.18	229.82
794.50	229.73
794.82	229.70
795.14	229.85
795.47	229.96
795.79	229.97
796.11	229.91
796.43	229.90
796.75	229.89
797.07	229.86
797.39	229.85
797.71	229.52
798.04	229.60
798.36	229.61
798.68	229.62
799.00	229.65
799.32	229.36
799.64	229.49
799.96	229.50
800.28	229.49
800.60	229.44
800.92	229.48
801.24	229.39
801.56	229.47
801.89	229.38
802.21	229.37
802.53	229.25
802.85	229.36
803.17	229.58
803.49	229.48
803.81	229.35
804.13	229.26
804.45	229.15
804.77	229.08
805.09	229.15
805.41	229.04
805.73	228.97
806.05	228.96
806.37	228.93
806.69	228.92
807.01	228.94
807.33	228.92
807.65	228.66
807.97	228.91
808.28	228.81
808.60	228.77
808.92	228.66
809.24	228.99
809.56	228.84
809.88	228.70
810.20	228.68
810.52	228.83
810.84	228.82
811.16	228.82
811.48	228.80
811.80	228.89
812.12	228.86
812.43	228.94
812.75	228.89
813.07	228.83
813.39	228.83
813.71	228.74
814.03	228.76
814.35	228.80
814.67	228.61
814.98	228.59
815.30	228.62
815.62	228.55
815.94	228.19
816.26	228.43
816.58	228.27
816.89	228.22
817.21	228.14
817.53	228.07
817.85	228.09
818.17	228.14
818.48	227.98
818.80	228.05
819.12	227.89
819.44	227.86
819.76	227.74
820.07	227.73
820.39	227.67
820.71	227.65
821.03	227.62
821.34	227.53
821.66	227.59
821.98	227.57
822.30	227.63
822.61	227.90
822.93	227.61
823.25	227.65
823.57	227.65
823.88	227.71
824.20	227.75
824.52	227.84
824.83	227.70
825.15	227.62
825.47	227.64
825.79	227.65
826.10	227.58
826.42	227.61
826.74	227.63
827.05	227.68
827.37	227.62
827.69	227.69
828.00	227.78
828.32	227.70
828.64	227.58
828.95	227.78
829.27	227.65
829.58	227.64
829.90	227.70
830.22	227.74
830.53	227.58
830.85	227.53
831.17	227.37
831.48	227.37
831.80	227.37
832.11	227.20
832.43	227.15
832.75	227.10
833.06	227.36
833.38	227.16
833.69	227.10
834.01	227.17
834.32	227.05
834.64	226.97
834.96	227.00
835.27	227.06
835.59	226.85
835.90	226.80
836.22	226.76
836.53	226.59
836.85	226.54
837.16	227.03
837.48	227.06
837.79	227.28
838.11	227.33
838.42	227.37
838.74	227.47
839.05	227.37
839.37	227.43
839.68	227.15
840.00	227.13
840.31	227.17
840.63	227.08
840.94	227.08
841.26	226.97
841.57	226.95
841.88	226.97
842.20	226.93
842.51	226.82
842.83	226.83
843.14	227.29
843.46	227.27
843.77	227.08
844.08	227.06
844.40	226.86
844.71	226.79
845.03	226.76
845.34	226.75
845.65	226.87
845.97	226.86
846.28	226.92
846.60	227.05
846.91	227.05
847.22	227.06
847.54	227.14
847.85	227.18
848.16	227.21
848.48	227.17
848.79	227.34
849.10	227.42
849.42	227.41
849.73	226.94
850.04	226.99
850.36	226.74
850.67	226.82
850.98	226.89
851.30	226.96
851.61	226.91
851.92	226.95
852.23	227.08
852.55	227.12
852.86	227.13
853.17	227.18
853.49	227.25
853.80	227.33
854.11	227.41
854.42	227.55
854.74	227.46
855.05	227.50
855.36	227.25
855.67	227.28
855.99	227.35
856.30	227.97
856.61	227.90
856.92	227.92
857.23	227.83
857.55	227.78
857.86	227.69
858.17	227.75
858.48	227.65
858.79	227.52
859.11	227.55
859.42	227.48
859.73	227.34
860.04	227.31
860.35	227.19
860.66	227.02
860.98	226.90
861.29	226.98
861.60	226.81
861.91	226.98
862.22	226.90
862.53	226.72
862.84	226.17
863.16	226.25
863.47	226.16
863.78	226.18
864.09	226.17
864.40	226.22
864.71	226.23
865.02	226.23
865.33	226.14
865.64	226.09
865.95	226.11
866.27	226.47
866.58	226.43
866.89	226.54
867.20	226.60
867.51	226.53
867.82	226.54
868.13	226.81
868.44	226.68
868.75	226.76
869.06	226.87
869.37	226.86
869.68	226.70
869.99	226.86
870.30	226.88
870.61	226.96
870.92	226.84
871.23	226.88
871.54	226.96
871.85	227.09
872.16	227.12
872.47	227.07
872.78	226.73
873.09	226.70
873.40	226.61
873.71	226.60
874.02	226.69
874.33	226.60
874.64	226.41
874.95	226.55
875.26	226.35
875.56	226.34
875.87	226.39
876.18	226.40
876.49	226.88
876.80	226.90
877.11	226.77
877.42	226.90
877.73	226.81
878.04	226.78
878.35	226.78
878.66	226.82
878.96	226.78
879.27	226.80
879.58	226.75
879.89	226.75
880.20	226.87
880.51	226.82
880.82	226.87
881.12	226.97
881.43	226.82
881.74	226.89
882.05	226.86
882.36	226.87
882.67	226.98
882.97	226.40
883.28	226.31
883.59	226.33
883.90	226.33
884.21	226.43
884.51	226.43
884.82	226.42
885.13	226.37
885.44	226.40
885.74	226.43
886.05	226.43
886.36	226.43
886.67	226.23
886.98	226.44
887.28	226.45
887.59	226.44
887.90	226.48
888.20	226.55
888.51	226.70
888.82	226.60
889.13	226.65
889.43	227.10
889.74	227.05
890.05	227.00
890.35	226.95
890.66	226.87
890.97	226.82
891.28	226.72
891.58	226.77
891.89	226.80
892.20	226.79
892.50	226.83
892.81	226.81
893.12	226.78
893.42	226.58
893.73	226.63
894.04	226.59
894.34	226.56
894.65	226.50
894.95	226.39
895.26	226.44
895.57	226.55
895.87	226.06
896.18	226.17
896.48	226.22
896.79	226.21
897.10	226.26
897.40	226.29
897.71	226.37
898.01	226.31
898.32	226.30
898.63	226.24
898.93	226.23
899.24	226.23
899.54	226.35
899.85	226.31
900.15	226.27
900.46	226.29
900.76	226.34
901.07	226.33
901.38	226.37
901.68	226.42
901.99	226.29
902.29	226.30
902.60	226.28
902.90	226.30
903.21	226.29
903.51	226.29
903.82	226.42
904.12	226.41
904.43	226.48
904.73	226.57
905.03	226.57
905.34	227.05
905.64	227.04
905.95	226.97
906.25	226.96
906.56	226.93
906.86	226.93
907.17	226.90
907.47	226.91
907.77	226.88
908.08	226.80
908.38	226.76
908.69	226.85
908.99	226.90
909.30	226.83
909.60	226.81
909.90	226.82
910.21	226.65
910.51	226.54
910.81	226.50
911.12	226.42
911.42	226.42
911.73	225.83
912.03	225.92
912.33	226.05
912.64	226.02
912.94	225.96
913.24	225.89
913.55	225.87
913.85	225.78
914.15	225.91
914.46	225.92
914.76	225.89
915.06	225.76
915.37	225.63
915.67	225.60
915.97	225.59
916.27	225.48
916.58	225.50
916.88	225.48
917.18	225.47
917.49	225.80
917.79	225.78
918.09	225.92
918.39	225.95
918.70	225.92
919.00	225.93
919.30	226.12
919.60	226.16
919.91	226.10
920.21	226.16
920.51	225.97
920.81	225.91
921.12	225.95
921.42	226.04
921.72	226.12
922.02	226.16
922.32	226.28
922.63	226.24
922.93	226.50
923.23	226.56
923.53	226.50
923.83	226.22
924.13	226.26
924.44	226.28
924.74	226.32
925.04	226.47
925.34	226.50
925.64	226.32
925.94	226.31
926.24	226.61
926.55	226.59
926.85	226.70
927.15	226.75
927.45	226.76
927.75	226.77
928.05	226.73
928.35	226.69
928.65	226.78
928.95	226.87
929.26	226.66
929.56	226.73
929.86	226.85
930.16	226.77
930.46	226.77
930.76	226.73
931.06	226.55
931.36	226.36
931.66	226.46
931.96	226.51
932.26	226.52
932.56	226.33
932.86	226.40
933.16	226.40
933.46	226.36
933.76	226.27
934.06	226.39
934.36	226.59
934.66	226.60
934.96	226.55
935.26	226.57
935.56	226.58
935.86	226.47
936.16	226.40
936.46	226.31
936.76	226.23
937.06	226.14
937.36	226.13
937.66	226.19
937.96	226.14
938.26	225.95
938.56	225.96
938.86	225.93
939.16	226.00
939.46	226.00
939.76	226.01
940.06	226.06
940.35	225.89
940.65	225.70
940.95	225.74
941.25	225.54
941.55	225.46
941.85	225.44
942.15	225.48
942.45	225.51
942.75	225.57
943.04	225.63
943.34	225.74
943.64	225.72
943.94	225.58
944.24	225.59
944.54	225.69
944.84	225.60
945.13	225.55
945.43	225.41
945.73	225.37
946.03	225.27
946.33	225.14
946.62	225.13
946.92	225.08
947.22	225.04
947.52	225.11
947.82	225.18
948.11	225.19
948.41	225.13
948.71	225.06
949.01	224.99
949.31	224.96
949.60	224.94
949.90	225.00
950.20	224.99
950.50	224.90
950.79	224.87
951.09	224.93
951.39	224.89
951.69	224.85
951.98	224.98
952.28	225.09
952.58	225.13
952.87	225.10
953.17	225.20
953.47	225.15
953.76	225.15
954.06	225.05
954.36	224.96
954.66	224.96
954.95	225.07
955.25	225.20
955.55	225.25
955.84	225.15
956.14	225.25
956.44	225.24
956.73	225.21
957.03	225.22
957.32	225.24
957.62	225.32
957.92	225.44
958.21	225.33
958.51	225.88
958.81	225.92
959.10	226.03
959.40	226.14
959.69	226.22
959.99	226.26
960.29	226.29
960.58	226.36
960.88	226.61
961.17	226.55
961.47	226.56
961.76	226.50
962.06	226.64
962.36	226.53
962.65	226.62
962.95	226.67
963.24	226.72
963.54	226.75
963.83	226.76
964.13	226.75
964.42	226.68
964.72	226.32
965.01	226.37
965.31	226.28
965.60	226.14
965.90	226.45
966.19	226.38
966.49	226.41
966.78	226.39
967.08	226.31
967.37	226.31
967.67	226.25
967.96	226.33
968.26	226.30
968.55	226.39
968.85	226.35
969.14	226.41
969.43	226.40
969.73	226.27
970.02	226.26
970.32	226.30
970.61	226.30
970.91	226.14
971.20	226.12
971.49	226.12
971.79	226.19
972.08	225.83
972.38	225.94
972.67	225.90
972.96	225.97
973.26	225.93
973.55	226.09
973.85	226.15
974.14	226.12
974.43	226.20
974.73	226.16
975.02	226.15
975.31	226.15
975.61	226.17
975.90	226.25
976.19	226.20
976.49	226.19
976.78	226.24
977.07	226.29
977.37	226.25
977.66	226.32
977.95	226.21
978.24	226.30
978.54	226.31
978.83	226.35
979.12	226.27
979.42	226.26
979.71	226.11
980.00	226.06
980.29	226.12
980.59	225.98
980.88	226.06
981.17	226.04
981.46	225.98
981.76	225.99
982.05	226.10
982.34	226.19
982.63	226.20
982.93	226.19
983.22	226.26
983.51	226.34
983.80	226.46
984.09	226.59
984.39	226.51
984.68	226.42
984.97	226.35
985.26	226.35
985.55	226.31
985.85	226.26
986.14	226.30
986.43	226.29
986.72	226.31
987.01	226.09
987.30	226.08
987.59	226.08
987.89	226.03
988.18	225.89
988.47	225.79
988.76	225.72
989.05	225.69
989.34	225.56
989.63	225.67
989.92	225.50
990.22	225.41
990.51	225.46
990.80	225.53
991.09	225.62
991.38	225.73
991.67	225.70
991.96	225.71
992.25	225.69
992.54	225.56
992.83	225.51
993.12	225.57
993.41	225.68
993.70	225.91
993.99	226.01
994.28	226.06
994.58	226.13
994.87	225.98
995.16	225.98
995.45	225.89
995.74	225.69
996.03	225.77
996.32	225.85
996.61	225.91
996.90	225.87
997.19	225.86
997.48	225.80
997.77	225.69
998.06	225.68
998.34	225.64
998.63	225.68
998.92	225.70
999.21	225.77
999.50	225.68
999.79	225.48
1000.08	225.38
1000.37	225.36
1000.66	225.30
1000.95	225.60
1001.24	225.63
1001.53	225.72
1001.82	225.69
1002.11	225.60
1002.40	225.59
1002.68	225.75
1002.97	226.06
1003.26	225.98
1003.55	225.90
1003.84	226.02
1004.13	226.13
1004.42	226.12
1004.71	226.14
1004.99	226.13
1005.28	226.26
1005.57	226.29
1005.86	226.26
1006.15	226.30
1006.44	226.24
1006.72	226.28
1007.01	226.12
1007.30	226.08
1007.59	226.09
1007.88	226.10
1008.17	226.09
1008.45	226.05
1008.74	225.79
1009.03	225.58
1009.32	225.60
1009.60	225.60
1009.89	225.57
1010.18	225.45
1010.47	225.48
1010.76	225.46
1011.04	225.50
1011.33	225.55
1011.62	225.63
1011.91	225.71
1012.19	225.73
1012.48	225.74
1012.77	225.83
1013.05	226.09
1013.34	226.17
1013.63	226.20
1013.92	226.24
1014.20	226.22
1014.49	226.21
1014.78	226.31
1015.06	226.16
1015.35	226.13
1015.64	226.23
1015.92	226.28
1016.21	226.38
1016.50	226.34
1016.78	226.42
1017.07	226.46
1017.36	226.32
1017.64	226.19
1017.93	226.21
1018.22	226.19
1018.50	226.19
1018.79	226.11
1019.08	225.84
1019.36	225.84
1019.65	225.70
1019.93	225.81
1020.22	225.90
1020.51	226.16
1020.79	226.10
1021.08	224.95
1021.36	224.75
1021.65	225.85
1021.94	225.55
1022.22	226.25
1022.51	224.05
1022.79	227.80
1023.08	226.35
1023.36	231.85
1023.65	225.50
>>>>>End Processed Spectral Data<<<<<
