SpectraSuite Data File
++++++++++++++++++++++++++++++++++++
Date: Wed Sep 04 17:54:29 EDT 2013
User: lab3
Dark Spectrum Present: Yes
Reference Spectrum Present: No
Number of Sampled Component Spectra: 1
Spectrometers: USB2E7196
Integration Time (usec): 170000 (USB2E7196)
Spectra Averaged: 20 (USB2E7196)
Boxcar Smoothing: 10 (USB2E7196)
Correct for Electrical Dark: No (USB2E7196)
Strobe/Lamp Enabled: No (USB2E7196)
Correct for Detector Non-linearity: No (USB2E7196)
Correct for Stray Light: No (USB2E7196)
Number of Pixels in Processed Spectrum: 2048
>>>>>Begin Processed Spectral Data<<<<<
339.09	0.00
339.48	211.75
339.86	214.80
340.24	216.25
340.63	216.85
341.01	225.35
341.39	220.80
341.78	221.75
342.16	225.65
342.54	224.10
342.93	212.46
343.31	223.14
343.69	223.72
344.07	224.22
344.46	224.73
344.84	225.23
345.22	225.26
345.60	225.55
345.99	225.80
346.37	225.79
346.75	225.82
347.13	225.91
347.52	225.97
347.90	226.27
348.28	226.28
348.66	226.42
349.05	226.32
349.43	226.35
349.81	226.50
350.19	226.55
350.57	226.58
350.96	226.69
351.34	226.81
351.72	226.90
352.10	226.95
352.48	226.98
352.87	226.94
353.25	227.00
353.63	227.00
354.01	227.06
354.39	227.22
354.77	227.31
355.15	227.47
355.54	227.46
355.92	227.30
356.30	227.37
356.68	227.70
357.06	227.82
357.44	227.80
357.82	227.69
358.20	228.15
358.58	228.25
358.97	228.33
359.35	228.51
359.73	228.65
360.11	228.70
360.49	228.75
360.87	228.83
361.25	228.90
361.63	229.11
362.01	229.14
362.39	229.12
362.77	229.21
363.15	229.24
363.53	229.27
363.91	229.30
364.29	229.33
364.67	228.92
365.05	228.93
365.43	229.04
365.81	229.21
366.19	229.03
366.57	229.25
366.95	229.26
367.33	229.12
367.71	229.19
368.09	229.33
368.47	229.29
368.85	229.25
369.23	229.26
369.61	229.09
369.99	229.29
370.37	229.34
370.75	229.51
371.13	229.35
371.51	229.33
371.89	229.42
372.27	229.43
372.65	229.44
373.03	229.40
373.41	229.34
373.78	229.25
374.16	229.02
374.54	228.77
374.92	228.66
375.30	228.70
375.68	228.59
376.06	228.51
376.44	228.44
376.82	228.43
377.19	228.40
377.57	228.37
377.95	228.11
378.33	228.00
378.71	227.68
379.09	227.70
379.47	227.70
379.84	227.50
380.22	227.44
380.60	227.25
380.98	227.23
381.36	227.08
381.73	226.95
382.11	226.97
382.49	226.96
382.87	226.86
383.25	226.72
383.62	227.19
384.00	227.05
384.38	227.07
384.76	227.10
385.13	227.25
385.51	227.15
385.89	227.02
386.27	226.96
386.64	226.98
387.02	226.95
387.40	226.88
387.78	226.89
388.15	226.94
388.53	226.90
388.91	226.83
389.29	226.84
389.66	226.89
390.04	226.79
390.42	226.85
390.79	226.84
391.17	226.81
391.55	226.25
391.92	226.26
392.30	226.27
392.68	226.16
393.05	226.15
393.43	226.20
393.81	226.25
394.18	226.22
394.56	226.30
394.94	226.43
395.31	226.38
395.69	226.56
396.06	226.58
396.44	226.77
396.82	226.78
397.19	227.08
397.57	227.12
397.95	227.30
398.32	227.20
398.70	227.37
399.07	227.59
399.45	227.65
399.82	227.79
400.20	227.82
400.58	227.95
400.95	227.78
401.33	227.99
401.70	228.48
402.08	228.65
402.45	228.73
402.83	228.90
403.20	229.05
403.58	229.08
403.95	229.33
404.33	229.50
404.71	229.72
405.08	230.13
405.46	230.38
405.83	230.51
406.21	230.80
406.58	231.05
406.96	231.23
407.33	231.63
407.70	231.90
408.08	232.64
408.45	233.00
408.83	233.52
409.20	233.85
409.58	233.97
409.95	234.52
410.33	235.13
410.70	235.54
411.08	236.23
411.45	236.87
411.82	237.43
412.20	238.23
412.57	239.26
412.95	239.67
413.32	240.51
413.69	241.46
414.07	242.41
414.44	243.38
414.82	244.51
415.19	245.74
415.56	247.01
415.94	248.00
416.31	249.47
416.68	250.93
417.06	252.58
417.43	254.19
417.81	255.88
418.18	257.66
418.55	259.50
418.93	261.49
419.30	263.52
419.67	265.75
420.04	267.93
420.42	270.18
420.79	273.25
421.16	275.99
421.54	278.98
421.91	281.88
422.28	284.99
422.66	288.17
423.03	291.62
423.40	294.75
423.77	298.28
424.15	301.82
424.52	305.55
424.89	309.72
425.26	313.73
425.64	317.58
426.01	321.70
426.38	326.18
426.75	330.70
427.13	335.39
427.50	340.12
427.87	345.03
428.24	349.96
428.61	354.37
428.99	359.69
429.36	365.06
429.73	370.61
430.10	376.05
430.47	381.75
430.85	387.21
431.22	393.48
431.59	400.33
431.96	406.50
432.33	413.31
432.70	419.91
433.08	427.76
433.45	435.22
433.82	442.61
434.19	450.78
434.56	458.82
434.93	466.29
435.30	474.13
435.68	482.75
436.05	491.05
436.42	499.38
436.79	507.03
437.16	515.39
437.53	524.11
437.90	532.86
438.27	541.48
438.64	550.49
439.01	558.72
439.38	565.68
439.75	572.83
440.13	581.05
440.50	588.51
440.87	594.66
441.24	600.95
441.61	608.06
441.98	613.16
442.35	618.93
442.72	625.00
443.09	630.67
443.46	634.01
443.83	636.36
444.20	638.38
444.57	641.12
444.94	642.35
445.31	643.47
445.68	644.86
446.05	644.88
446.42	643.40
446.79	642.16
447.16	640.73
447.53	639.50
447.90	635.84
448.27	632.30
448.64	627.40
449.01	623.54
449.37	617.34
449.74	611.22
450.11	604.41
450.48	596.65
450.85	588.63
451.22	581.83
451.59	575.23
451.96	568.84
452.33	560.73
452.70	553.27
453.07	544.68
453.43	535.63
453.80	527.48
454.17	519.55
454.54	511.84
454.91	503.67
455.28	495.68
455.65	488.18
456.02	481.32
456.38	474.88
456.75	467.37
457.12	460.83
457.49	454.57
457.86	448.18
458.23	443.16
458.59	437.63
458.96	431.88
459.33	426.88
459.70	421.83
460.07	417.73
460.43	413.05
460.80	408.75
461.17	404.93
461.54	400.77
461.91	397.02
462.27	393.11
462.64	389.85
463.01	386.26
463.38	382.95
463.74	379.01
464.11	376.05
464.48	373.40
464.85	370.52
465.21	368.35
465.58	366.06
465.95	363.17
466.32	360.85
466.68	358.60
467.05	356.36
467.42	354.26
467.78	351.95
468.15	349.81
468.52	348.29
468.88	346.13
469.25	344.28
469.62	342.79
469.98	341.18
470.35	339.73
470.72	338.39
471.08	336.71
471.45	335.39
471.82	334.07
472.18	332.53
472.55	331.49
472.92	330.27
473.28	329.22
473.65	328.13
474.02	327.04
474.38	326.23
474.75	325.45
475.11	324.43
475.48	323.80
475.85	323.22
476.21	322.51
476.58	322.04
476.94	321.65
477.31	321.17
477.67	320.68
478.04	320.23
478.41	319.98
478.77	320.22
479.14	319.79
479.50	319.67
479.87	319.71
480.23	319.76
480.60	319.64
480.96	319.63
481.33	320.05
481.69	320.34
482.06	320.47
482.42	320.69
482.79	321.09
483.15	321.55
483.52	322.19
483.88	322.70
484.25	323.20
484.61	323.83
484.98	324.51
485.34	325.48
485.71	326.51
486.07	327.57
486.44	328.10
486.80	329.23
487.17	330.38
487.53	331.85
487.90	333.14
488.26	334.80
488.62	336.48
488.99	338.05
489.35	339.82
489.72	341.63
490.08	343.74
490.44	345.79
490.81	347.98
491.17	350.09
491.54	352.52
491.90	355.15
492.26	357.88
492.63	360.69
492.99	363.52
493.36	366.56
493.72	369.88
494.08	373.40
494.45	377.20
494.81	381.04
495.17	384.75
495.54	388.92
495.90	393.10
496.26	397.61
496.63	402.25
496.99	406.91
497.35	412.10
497.72	417.30
498.08	422.82
498.44	428.52
498.80	434.54
499.17	440.58
499.53	446.84
499.89	453.52
500.26	460.25
500.62	467.22
500.98	474.64
501.34	481.99
501.71	489.79
502.07	497.55
502.43	505.74
502.79	514.09
503.16	522.89
503.52	531.85
503.88	541.04
504.24	550.60
504.60	560.72
504.97	570.87
505.33	581.10
505.69	592.24
506.05	603.18
506.41	614.40
506.78	626.07
507.14	637.98
507.50	650.29
507.86	663.12
508.22	676.31
508.59	689.33
508.95	702.93
509.31	716.95
509.67	731.28
510.03	745.44
510.39	760.21
510.75	775.18
511.12	790.52
511.48	806.08
511.84	821.84
512.20	837.76
512.56	854.01
512.92	870.92
513.28	887.56
513.64	904.70
514.00	922.06
514.37	939.65
514.73	957.79
515.09	975.97
515.45	994.20
515.81	1012.36
516.17	1031.16
516.53	1049.73
516.89	1068.25
517.25	1087.75
517.61	1107.90
517.97	1128.08
518.33	1148.04
518.69	1168.37
519.05	1188.95
519.41	1209.70
519.77	1230.84
520.13	1251.67
520.49	1272.41
520.85	1294.61
521.21	1315.58
521.57	1337.02
521.93	1357.87
522.29	1379.01
522.65	1399.48
523.01	1420.30
523.37	1441.04
523.73	1461.97
524.09	1482.54
524.45	1503.48
524.81	1524.38
525.17	1545.16
525.53	1565.62
525.89	1586.59
526.25	1607.24
526.61	1627.58
526.97	1648.43
527.33	1669.45
527.68	1691.08
528.04	1712.38
528.40	1732.04
528.76	1753.20
529.12	1773.68
529.48	1794.56
529.84	1814.43
530.20	1835.73
530.56	1856.36
530.91	1877.75
531.27	1897.89
531.63	1918.40
531.99	1938.76
532.35	1958.51
532.71	1978.36
533.07	1999.14
533.42	2018.80
533.78	2038.63
534.14	2058.49
534.50	2077.61
534.86	2096.63
535.21	2114.18
535.57	2132.42
535.93	2149.87
536.29	2167.58
536.65	2185.77
537.00	2203.10
537.36	2220.64
537.72	2236.86
538.08	2254.30
538.44	2270.36
538.79	2286.72
539.15	2303.56
539.51	2319.63
539.87	2334.63
540.22	2349.41
540.58	2363.67
540.94	2377.01
541.29	2389.58
541.65	2401.60
542.01	2414.31
542.37	2424.75
542.72	2435.77
543.08	2446.77
543.44	2458.63
543.79	2468.58
544.15	2478.18
544.51	2488.26
544.87	2498.14
545.22	2506.82
545.58	2514.07
545.94	2521.41
546.29	2528.21
546.65	2534.38
547.01	2539.60
547.36	2545.39
547.72	2549.99
548.07	2553.98
548.43	2559.34
548.79	2563.90
549.14	2568.50
549.50	2571.95
549.86	2575.92
550.21	2579.83
550.57	2582.80
550.92	2584.27
551.28	2585.54
551.64	2587.62
551.99	2589.42
552.35	2590.85
552.70	2593.15
553.06	2594.94
553.41	2595.78
553.77	2597.27
554.13	2598.85
554.48	2600.66
554.84	2601.89
555.19	2603.22
555.55	2604.82
555.90	2604.02
556.26	2603.21
556.61	2601.67
556.97	2599.78
557.32	2599.24
557.68	2597.96
558.03	2596.25
558.39	2594.67
558.74	2594.03
559.10	2590.93
559.45	2587.47
559.81	2583.07
560.16	2577.87
560.52	2573.14
560.87	2568.98
561.23	2563.53
561.58	2557.33
561.94	2550.57
562.29	2543.22
562.64	2536.20
563.00	2528.06
563.35	2521.54
563.71	2515.09
564.06	2508.71
564.42	2502.02
564.77	2495.05
565.12	2487.48
565.48	2479.98
565.83	2472.03
566.19	2463.86
566.54	2455.96
566.89	2448.01
567.25	2440.48
567.60	2433.03
567.96	2425.59
568.31	2417.38
568.66	2409.17
569.02	2400.22
569.37	2391.92
569.72	2384.51
570.08	2375.22
570.43	2365.58
570.78	2356.26
571.14	2346.73
571.49	2336.67
571.84	2326.79
572.20	2315.91
572.55	2305.87
572.90	2295.17
573.26	2285.14
573.61	2274.09
573.96	2263.06
574.31	2250.95
574.67	2238.97
575.02	2226.60
575.37	2213.77
575.72	2200.75
576.08	2188.42
576.43	2175.69
576.78	2162.64
577.13	2149.22
577.49	2136.55
577.84	2124.84
578.19	2112.70
578.54	2100.25
578.90	2088.51
579.25	2076.41
579.60	2064.00
579.95	2050.94
580.30	2037.52
580.66	2023.77
581.01	2010.24
581.36	1996.15
581.71	1983.58
582.06	1970.53
582.42	1957.92
582.77	1945.27
583.12	1933.43
583.47	1920.87
583.82	1909.04
584.17	1897.21
584.53	1885.18
584.88	1872.37
585.23	1859.13
585.58	1845.36
585.93	1832.01
586.28	1818.27
586.63	1804.30
586.98	1789.88
587.34	1776.88
587.69	1763.86
588.04	1751.45
588.39	1739.51
588.74	1727.71
589.09	1715.58
589.44	1702.94
589.79	1690.83
590.14	1679.04
590.49	1667.05
590.84	1655.39
591.19	1643.46
591.54	1631.11
591.89	1618.86
592.25	1609.01
592.60	1597.51
592.95	1586.33
593.30	1574.52
593.65	1563.12
594.00	1551.36
594.35	1541.85
594.70	1529.86
595.05	1518.39
595.40	1506.48
595.75	1494.34
596.10	1482.98
596.45	1471.45
596.80	1460.63
597.15	1449.12
597.50	1437.17
597.85	1425.68
598.19	1414.00
598.54	1402.37
598.89	1390.96
599.24	1380.25
599.59	1368.52
599.94	1357.98
600.29	1347.25
600.64	1336.94
600.99	1325.78
601.34	1316.21
601.69	1304.93
602.04	1295.32
602.39	1285.71
602.74	1276.50
603.08	1267.44
603.43	1258.22
603.78	1248.80
604.13	1239.12
604.48	1229.41
604.83	1219.89
605.18	1210.07
605.53	1200.56
605.87	1191.46
606.22	1182.96
606.57	1173.55
606.92	1163.89
607.27	1154.63
607.62	1145.82
607.96	1137.24
608.31	1129.35
608.66	1120.88
609.01	1112.64
609.36	1103.91
609.70	1095.50
610.05	1086.79
610.40	1078.22
610.75	1069.31
611.10	1060.73
611.44	1052.13
611.79	1044.20
612.14	1036.34
612.49	1028.39
612.83	1020.81
613.18	1013.15
613.53	1005.53
613.88	997.75
614.22	990.28
614.57	982.57
614.92	974.81
615.27	967.37
615.61	959.69
615.96	951.88
616.31	944.41
616.65	937.35
617.00	929.99
617.35	922.91
617.70	915.83
618.04	908.90
618.39	901.97
618.74	895.76
619.08	888.88
619.43	881.90
619.78	875.02
620.12	867.80
620.47	860.77
620.82	853.40
621.16	846.65
621.51	840.26
621.85	833.89
622.20	827.31
622.55	820.59
622.89	814.16
623.24	808.09
623.59	801.53
623.93	795.19
624.28	789.10
624.62	783.27
624.97	777.40
625.32	771.71
625.66	765.89
626.01	759.75
626.35	754.07
626.70	748.42
627.04	743.10
627.39	737.63
627.73	732.48
628.08	727.45
628.43	722.08
628.77	716.62
629.12	711.43
629.46	706.60
629.81	702.05
630.15	697.30
630.50	692.36
630.84	687.60
631.19	682.84
631.53	678.28
631.88	673.31
632.22	668.27
632.57	663.70
632.91	659.08
633.26	654.69
633.60	650.10
633.95	645.59
634.29	640.88
634.64	636.54
634.98	631.92
635.32	627.71
635.67	623.74
636.01	619.67
636.36	615.31
636.70	611.15
637.05	606.87
637.39	602.80
637.73	598.68
638.08	594.82
638.42	590.55
638.77	586.20
639.11	581.82
639.45	577.81
639.80	573.52
640.14	569.50
640.49	565.50
640.83	561.83
641.17	558.03
641.52	554.40
641.86	550.90
642.20	547.61
642.55	543.90
642.89	540.29
643.23	536.81
643.58	533.72
643.92	530.19
644.26	526.79
644.61	523.47
644.95	520.10
645.29	516.50
645.64	513.54
645.98	510.45
646.32	507.56
646.66	504.41
647.01	501.41
647.35	498.59
647.69	495.54
648.04	492.67
648.38	489.90
648.72	486.94
649.06	483.91
649.41	480.74
649.75	477.68
650.09	474.80
650.43	471.82
650.78	468.80
651.12	466.08
651.46	463.24
651.80	460.43
652.14	457.74
652.49	455.32
652.83	452.63
653.17	450.11
653.51	447.40
653.85	445.01
654.20	442.49
654.54	439.94
654.88	437.51
655.22	435.29
655.56	432.98
655.90	430.74
656.25	428.45
656.59	426.25
656.93	424.20
657.27	422.11
657.61	419.70
657.95	417.50
658.29	415.15
658.64	413.11
658.98	410.99
659.32	408.70
659.66	406.55
660.00	404.49
660.34	402.34
660.68	400.33
661.02	398.31
661.36	396.42
661.70	394.36
662.05	392.37
662.39	390.37
662.73	388.47
663.07	386.80
663.41	384.86
663.75	382.96
664.09	381.10
664.43	379.10
664.77	377.59
665.11	375.83
665.45	374.28
665.79	372.54
666.13	370.87
666.47	369.36
666.81	367.68
667.15	366.03
667.49	364.57
667.83	363.25
668.17	361.66
668.51	360.19
668.85	358.90
669.19	357.78
669.53	356.16
669.87	354.65
670.21	353.05
670.55	351.83
670.89	350.80
671.23	349.43
671.57	348.10
671.91	346.75
672.25	345.43
672.58	344.20
672.92	342.85
673.26	341.54
673.60	340.35
673.94	339.19
674.28	338.03
674.62	336.92
674.96	335.60
675.30	334.49
675.64	333.31
675.97	332.11
676.31	330.72
676.65	329.55
676.99	328.58
677.33	327.41
677.67	326.30
678.01	324.90
678.34	323.85
678.68	322.94
679.02	321.80
679.36	320.82
679.70	319.75
680.04	318.86
680.37	317.89
680.71	316.90
681.05	315.94
681.39	315.06
681.73	314.07
682.06	313.12
682.40	312.14
682.74	311.27
683.08	310.53
683.42	309.67
683.75	308.97
684.09	308.04
684.43	307.37
684.77	306.53
685.10	305.80
685.44	304.88
685.78	304.06
686.12	303.24
686.45	302.45
686.79	301.63
687.13	300.91
687.46	300.11
687.80	299.44
688.14	298.68
688.48	297.87
688.81	297.00
689.15	296.35
689.49	295.75
689.82	295.15
690.16	294.25
690.50	293.56
690.83	292.80
691.17	292.02
691.51	291.21
691.84	290.50
692.18	289.74
692.52	289.19
692.85	288.55
693.19	288.15
693.52	287.46
693.86	286.81
694.20	286.10
694.53	285.59
694.87	284.87
695.21	284.23
695.54	283.67
695.88	283.11
696.21	282.43
696.55	281.82
696.88	281.04
697.22	280.45
697.56	279.92
697.89	279.22
698.23	278.73
698.56	278.15
698.90	277.71
699.23	277.21
699.57	276.69
699.90	276.05
700.24	275.37
700.58	274.95
700.91	274.60
701.25	274.45
701.58	274.25
701.92	274.00
702.25	273.57
702.59	273.05
702.92	272.65
703.26	272.27
703.59	271.81
703.93	271.82
704.26	271.43
704.60	271.08
704.93	270.74
705.26	270.25
705.60	269.85
705.93	269.36
706.27	269.11
706.60	268.86
706.94	268.70
707.27	268.32
707.61	267.99
707.94	267.53
708.27	266.84
708.61	266.16
708.94	265.71
709.28	265.38
709.61	264.98
709.94	264.63
710.28	264.27
710.61	263.90
710.95	263.13
711.28	263.07
711.61	262.65
711.95	262.44
712.28	262.12
712.61	261.91
712.95	261.84
713.28	261.68
713.61	261.17
713.95	260.70
714.28	260.42
714.61	260.03
714.95	259.67
715.28	259.27
715.61	258.91
715.95	258.45
716.28	258.06
716.61	257.81
716.95	257.45
717.28	257.11
717.61	256.82
717.94	256.59
718.28	255.97
718.61	255.64
718.94	255.24
719.27	254.98
719.61	254.69
719.94	254.31
720.27	253.75
720.60	253.47
720.94	253.20
721.27	252.97
721.60	252.80
721.93	252.57
722.27	252.54
722.60	252.38
722.93	252.15
723.26	251.96
723.59	251.74
723.93	251.60
724.26	251.44
724.59	251.19
724.92	250.98
725.25	250.91
725.59	250.72
725.92	250.68
726.25	250.49
726.58	250.31
726.91	250.05
727.24	249.97
727.57	249.82
727.91	249.54
728.24	249.33
728.57	249.14
728.90	249.02
729.23	248.70
729.56	248.68
729.89	248.55
730.22	248.31
730.55	248.14
730.89	247.88
731.22	247.62
731.55	247.40
731.88	247.26
732.21	247.00
732.54	246.78
732.87	246.51
733.20	246.36
733.53	246.16
733.86	246.05
734.19	245.74
734.52	245.59
734.85	245.79
735.18	245.57
735.51	245.51
735.84	245.38
736.17	245.33
736.50	244.94
736.83	245.33
737.16	245.22
737.49	245.05
737.82	244.91
738.15	244.83
738.48	244.78
738.81	244.57
739.14	244.33
739.47	244.23
739.80	244.02
740.13	243.87
740.46	243.67
740.79	243.40
741.12	243.40
741.45	243.25
741.78	242.88
742.11	242.81
742.44	242.54
742.77	242.42
743.10	242.25
743.43	242.13
743.75	241.46
744.08	241.99
744.41	241.83
744.74	241.63
745.07	241.41
745.40	241.33
745.73	241.39
746.06	241.34
746.39	241.16
746.71	241.06
747.04	240.85
747.37	240.68
747.70	240.72
748.03	240.50
748.36	240.40
748.68	240.21
749.01	239.98
749.34	239.91
749.67	239.82
750.00	239.67
750.33	239.85
750.65	239.78
750.98	239.03
751.31	238.92
751.64	238.88
751.97	239.09
752.29	238.93
752.62	238.62
752.95	238.41
753.28	238.34
753.60	238.16
753.93	238.21
754.26	238.24
754.59	237.95
754.91	237.82
755.24	237.71
755.57	237.66
755.90	237.60
756.22	237.47
756.55	237.25
756.88	237.12
757.20	236.81
757.53	236.58
757.86	236.43
758.19	236.37
758.51	236.28
758.84	235.95
759.17	235.75
759.49	235.67
759.82	235.88
760.15	235.83
760.47	235.78
760.80	235.52
761.13	235.51
761.45	235.44
761.78	235.34
762.11	235.22
762.43	235.07
762.76	235.00
763.08	234.97
763.41	235.02
763.74	234.95
764.06	234.76
764.39	234.74
764.71	234.68
765.04	234.60
765.37	234.51
765.69	234.34
766.02	234.31
766.34	234.23
766.67	233.89
767.00	233.90
767.32	234.10
767.65	234.32
767.97	234.17
768.30	234.13
768.62	234.08
768.95	233.97
769.27	233.91
769.60	233.89
769.92	233.75
770.25	233.57
770.57	233.38
770.90	233.41
771.22	233.31
771.55	233.24
771.87	233.14
772.20	232.98
772.52	233.35
772.85	233.93
773.17	233.87
773.50	233.86
773.82	233.70
774.15	233.39
774.47	233.05
774.80	232.91
775.12	232.82
775.45	232.74
775.77	232.71
776.09	232.76
776.42	232.71
776.74	232.74
777.07	232.61
777.39	232.65
777.72	232.49
778.04	232.48
778.36	232.43
778.69	232.43
779.01	232.47
779.33	231.97
779.66	231.34
779.98	231.22
780.31	231.16
780.63	231.30
780.95	231.31
781.28	231.28
781.60	231.17
781.92	231.16
782.25	231.15
782.57	231.05
782.89	230.92
783.22	230.81
783.54	230.76
783.86	230.80
784.19	230.73
784.51	230.95
784.83	230.83
785.16	230.77
785.48	230.76
785.80	230.78
786.12	230.90
786.45	230.87
786.77	230.92
787.09	230.92
787.42	230.75
787.74	230.77
788.06	230.79
788.38	230.77
788.71	230.67
789.03	230.66
789.35	230.78
789.67	230.71
789.99	230.68
790.32	230.51
790.64	230.53
790.96	230.89
791.28	230.62
791.61	230.64
791.93	230.69
792.25	230.68
792.57	230.91
792.89	230.72
793.21	230.75
793.54	230.68
793.86	230.59
794.18	230.63
794.50	230.44
794.82	230.36
795.14	230.34
795.47	230.48
795.79	230.45
796.11	230.27
796.43	230.24
796.75	230.19
797.07	230.25
797.39	230.24
797.71	229.79
798.04	229.80
798.36	229.75
798.68	229.64
799.00	229.59
799.32	229.33
799.64	229.42
799.96	229.37
800.28	229.40
800.60	229.34
800.92	229.29
801.24	229.29
801.56	229.31
801.89	229.34
802.21	229.28
802.53	229.11
802.85	229.16
803.17	229.28
803.49	229.21
803.81	229.15
804.13	228.98
804.45	228.95
804.77	229.00
805.09	228.98
805.41	228.94
805.73	228.86
806.05	228.72
806.37	228.66
806.69	228.59
807.01	228.53
807.33	228.54
807.65	228.31
807.97	228.49
808.28	228.42
808.60	228.39
808.92	228.32
809.24	228.70
809.56	228.58
809.88	228.41
810.20	228.41
810.52	228.48
810.84	228.47
811.16	228.41
811.48	228.23
811.80	228.40
812.12	228.39
812.43	228.41
812.75	228.37
813.07	228.22
813.39	228.23
813.71	228.17
814.03	228.10
814.35	228.15
814.67	227.95
814.98	227.89
815.30	227.81
815.62	227.70
815.94	227.35
816.26	227.62
816.58	227.57
816.89	227.61
817.21	227.44
817.53	227.47
817.85	227.53
818.17	227.61
818.48	227.41
818.80	227.43
819.12	227.34
819.44	227.33
819.76	227.39
820.07	227.34
820.39	227.26
820.71	227.27
821.03	227.33
821.34	227.27
821.66	227.37
821.98	227.40
822.30	227.41
822.61	227.71
822.93	227.48
823.25	227.48
823.57	227.48
823.88	227.64
824.20	227.61
824.52	227.70
824.83	227.62
825.15	227.58
825.47	227.55
825.79	227.55
826.10	227.52
826.42	227.42
826.74	227.45
827.05	227.46
827.37	227.52
827.69	227.49
828.00	227.47
828.32	227.45
828.64	227.40
828.95	227.64
829.27	227.44
829.58	227.38
829.90	227.45
830.22	227.40
830.53	227.22
830.85	227.22
831.17	227.07
831.48	227.10
831.80	227.11
832.11	227.13
832.43	227.10
832.75	227.05
833.06	227.41
833.38	227.36
833.69	227.37
834.01	227.32
834.32	227.23
834.64	227.23
834.96	227.23
835.27	227.24
835.59	227.07
835.90	227.03
836.22	226.98
836.53	226.87
836.85	226.85
837.16	227.34
837.48	227.28
837.79	227.40
838.11	227.42
838.42	227.47
838.74	227.45
839.05	227.38
839.37	227.41
839.68	227.09
840.00	227.10
840.31	227.21
840.63	227.23
840.94	227.32
841.26	227.33
841.57	227.33
841.88	227.43
842.20	227.32
842.51	227.26
842.83	227.31
843.14	227.80
843.46	227.84
843.77	227.60
844.08	227.61
844.40	227.49
844.71	227.40
845.03	227.33
845.34	227.41
845.65	227.45
845.97	227.53
846.28	227.55
846.60	227.53
846.91	227.39
847.22	227.34
847.54	227.31
847.85	227.31
848.16	227.25
848.48	227.13
848.79	227.33
849.10	227.41
849.42	227.47
849.73	226.98
850.04	226.94
850.36	226.70
850.67	226.73
850.98	226.68
851.30	226.79
851.61	226.71
851.92	226.64
852.23	226.76
852.55	226.72
852.86	226.73
853.17	226.73
853.49	226.82
853.80	226.91
854.11	226.95
854.42	227.01
854.74	226.89
855.05	226.94
855.36	226.68
855.67	226.63
855.99	226.58
856.30	227.14
856.61	227.13
856.92	227.22
857.23	227.25
857.55	227.25
857.86	227.17
858.17	227.30
858.48	227.20
858.79	227.09
859.11	227.07
859.42	227.03
859.73	226.99
860.04	227.04
860.35	226.97
860.66	226.84
860.98	226.80
861.29	226.91
861.60	226.87
861.91	227.02
862.22	227.00
862.53	226.97
862.84	226.37
863.16	226.51
863.47	226.36
863.78	226.34
864.09	226.47
864.40	226.47
864.71	226.46
865.02	226.55
865.33	226.52
865.64	226.47
865.95	226.56
866.27	226.92
866.58	226.91
866.89	226.94
867.20	226.99
867.51	226.94
867.82	226.91
868.13	227.01
868.44	226.96
868.75	227.05
869.06	227.05
869.37	227.15
869.68	226.97
869.99	227.14
870.30	227.19
870.61	227.14
870.92	227.13
871.23	227.12
871.54	227.17
871.85	227.30
872.16	227.40
872.47	227.29
872.78	226.96
873.09	226.99
873.40	226.90
873.71	226.92
874.02	226.93
874.33	226.89
874.64	226.85
874.95	226.98
875.26	226.92
875.56	227.00
875.87	227.00
876.18	227.03
876.49	227.51
876.80	227.51
877.11	227.44
877.42	227.43
877.73	227.47
878.04	227.38
878.35	227.37
878.66	227.44
878.96	227.45
879.27	227.42
879.58	227.41
879.89	227.45
880.20	227.57
880.51	227.63
880.82	227.72
881.12	227.75
881.43	227.57
881.74	227.47
882.05	227.35
882.36	227.37
882.67	227.41
882.97	226.82
883.28	226.71
883.59	226.67
883.90	226.73
884.21	226.80
884.51	226.77
884.82	226.73
885.13	226.64
885.44	226.68
885.74	226.72
886.05	226.61
886.36	226.58
886.67	226.39
886.98	226.66
887.28	226.59
887.59	226.52
887.90	226.50
888.20	226.50
888.51	226.62
888.82	226.43
889.13	226.41
889.43	226.81
889.74	226.77
890.05	226.77
890.35	226.69
890.66	226.52
890.97	226.47
891.28	226.39
891.58	226.43
891.89	226.44
892.20	226.40
892.50	226.39
892.81	226.37
893.12	226.39
893.42	226.08
893.73	226.12
894.04	226.14
894.34	226.19
894.65	226.17
894.95	226.06
895.26	226.15
895.57	226.35
895.87	225.95
896.18	226.04
896.48	226.11
896.79	226.13
897.10	226.27
897.40	226.31
897.71	226.45
898.01	226.38
898.32	226.34
898.63	226.30
898.93	226.31
899.24	226.33
899.54	226.26
899.85	226.30
900.15	226.27
900.46	226.28
900.76	226.37
901.07	226.36
901.38	226.38
901.68	226.43
901.99	226.15
902.29	226.17
902.60	226.15
902.90	226.15
903.21	226.15
903.51	226.06
903.82	226.18
904.12	226.21
904.43	226.28
904.73	226.24
905.03	226.31
905.34	226.78
905.64	226.75
905.95	226.81
906.25	226.72
906.56	226.75
906.86	226.80
907.17	226.78
907.47	226.83
907.77	226.84
908.08	226.79
908.38	226.89
908.69	226.94
908.99	227.04
909.30	227.03
909.60	227.01
909.90	227.10
910.21	226.95
910.51	226.80
910.81	226.81
911.12	226.87
911.42	226.89
911.73	226.40
912.03	226.47
912.33	226.60
912.64	226.59
912.94	226.53
913.24	226.43
913.55	226.39
913.85	226.36
914.15	226.47
914.46	226.55
914.76	226.51
915.06	226.52
915.37	226.42
915.67	226.37
915.97	226.42
916.27	226.33
916.58	226.41
916.88	226.42
917.18	226.43
917.49	226.83
917.79	226.78
918.09	226.89
918.39	227.00
918.70	226.95
919.00	227.02
919.30	227.27
919.60	227.23
919.91	227.22
920.21	227.23
920.51	227.12
920.81	227.06
921.12	227.15
921.42	227.09
921.72	227.07
922.02	227.15
922.32	227.20
922.63	227.25
922.93	227.46
923.23	227.45
923.53	227.36
923.83	227.03
924.13	227.12
924.44	227.09
924.74	227.16
925.04	227.31
925.34	227.28
925.64	227.04
925.94	227.00
926.24	227.19
926.55	227.16
926.85	227.24
927.15	227.24
927.45	227.20
927.75	227.20
928.05	227.26
928.35	227.22
928.65	227.22
928.95	227.14
929.26	226.94
929.56	227.11
929.86	227.15
930.16	227.08
930.46	227.01
930.76	227.02
931.06	226.75
931.36	226.57
931.66	226.65
931.96	226.78
932.26	226.82
932.56	226.66
932.86	226.68
933.16	226.63
933.46	226.55
933.76	226.51
934.06	226.59
934.36	226.70
934.66	226.64
934.96	226.62
935.26	226.70
935.56	226.71
935.86	226.47
936.16	226.40
936.46	226.39
936.76	226.36
937.06	226.21
937.36	226.30
937.66	226.30
937.96	226.27
938.26	226.10
938.56	226.04
938.86	226.06
939.16	226.21
939.46	226.20
939.76	226.30
940.06	226.28
940.35	226.16
940.65	225.90
940.95	226.01
941.25	225.93
941.55	225.94
941.85	225.98
942.15	226.08
942.45	226.25
942.75	226.22
943.04	226.26
943.34	226.43
943.64	226.39
943.94	226.33
944.24	226.24
944.54	226.28
944.84	226.37
945.13	226.24
945.43	226.13
945.73	226.15
946.03	226.08
946.33	226.03
946.62	226.05
946.92	226.12
947.22	226.12
947.52	226.17
947.82	226.16
948.11	226.03
948.41	226.00
948.71	225.86
949.01	225.86
949.31	225.76
949.60	225.71
949.90	225.82
950.20	225.85
950.50	225.97
950.79	225.95
951.09	226.02
951.39	226.07
951.69	226.05
951.98	226.17
952.28	226.22
952.58	226.25
952.87	226.26
953.17	226.34
953.47	226.19
953.76	226.14
954.06	226.09
954.36	226.10
954.66	226.10
954.95	226.24
955.25	226.29
955.55	226.31
955.84	226.23
956.14	226.20
956.44	226.24
956.73	226.13
957.03	226.18
957.32	226.10
957.62	226.13
957.92	226.21
958.21	226.09
958.51	226.60
958.81	226.64
959.10	226.65
959.40	226.71
959.69	226.79
959.99	226.92
960.29	226.95
960.58	226.92
960.88	227.11
961.17	227.09
961.47	227.10
961.76	227.12
962.06	227.25
962.36	227.23
962.65	227.21
962.95	227.21
963.24	227.19
963.54	227.21
963.83	227.15
964.13	227.08
964.42	226.97
964.72	226.61
965.01	226.64
965.31	226.59
965.60	226.42
965.90	226.75
966.19	226.61
966.49	226.59
966.78	226.57
967.08	226.51
967.37	226.45
967.67	226.42
967.96	226.55
968.26	226.51
968.55	226.58
968.85	226.56
969.14	226.59
969.43	226.54
969.73	226.52
970.02	226.58
970.32	226.59
970.61	226.64
970.91	226.46
971.20	226.36
971.49	226.37
971.79	226.43
972.08	226.07
972.38	226.13
972.67	226.12
972.96	226.22
973.26	226.05
973.55	226.23
973.85	226.14
974.14	226.03
974.43	226.03
974.73	225.88
975.02	225.86
975.31	225.81
975.61	225.82
975.90	225.70
976.19	225.61
976.49	225.69
976.78	225.74
977.07	225.70
977.37	225.77
977.66	225.83
977.95	225.82
978.24	225.86
978.54	225.93
978.83	225.94
979.12	225.89
979.42	225.92
979.71	225.80
980.00	225.82
980.29	225.83
980.59	225.75
980.88	225.87
981.17	225.84
981.46	225.87
981.76	225.87
982.05	226.13
982.34	226.20
982.63	226.15
982.93	226.09
983.22	226.30
983.51	226.30
983.80	226.38
984.09	226.41
984.39	226.38
984.68	226.32
984.97	226.29
985.26	226.26
985.55	226.35
985.85	226.23
986.14	226.37
986.43	226.36
986.72	226.35
987.01	226.25
987.30	226.30
987.59	226.29
987.89	226.40
988.18	226.26
988.47	226.23
988.76	226.15
989.05	226.15
989.34	226.09
989.63	226.23
989.92	226.11
990.22	226.05
990.51	226.07
990.80	226.08
991.09	226.17
991.38	226.24
991.67	226.15
991.96	226.24
992.25	226.18
992.54	226.21
992.83	226.22
993.12	226.16
993.41	226.25
993.70	226.48
993.99	226.52
994.28	226.60
994.58	226.65
994.87	226.63
995.16	226.63
995.45	226.56
995.74	226.41
996.03	226.51
996.32	226.53
996.61	226.65
996.90	226.67
997.19	226.63
997.48	226.61
997.77	226.64
998.06	226.55
998.34	226.57
998.63	226.50
998.92	226.55
999.21	226.67
999.50	226.70
999.79	226.51
1000.08	226.50
1000.37	226.44
1000.66	226.42
1000.95	226.57
1001.24	226.62
1001.53	226.67
1001.82	226.58
1002.11	226.46
1002.40	226.56
1002.68	226.65
1002.97	226.97
1003.26	226.90
1003.55	226.78
1003.84	226.79
1004.13	227.00
1004.42	226.98
1004.71	226.99
1004.99	226.90
1005.28	226.96
1005.57	226.85
1005.86	226.77
1006.15	226.71
1006.44	226.62
1006.72	226.61
1007.01	226.48
1007.30	226.48
1007.59	226.43
1007.88	226.42
1008.17	226.43
1008.45	226.32
1008.74	226.09
1009.03	225.76
1009.32	225.78
1009.60	225.82
1009.89	225.70
1010.18	225.45
1010.47	225.38
1010.76	225.34
1011.04	225.32
1011.33	225.31
1011.62	225.37
1011.91	225.40
1012.19	225.34
1012.48	225.37
1012.77	225.32
1013.05	225.59
1013.34	225.55
1013.63	225.52
1013.92	225.57
1014.20	225.57
1014.49	225.63
1014.78	225.62
1015.06	225.54
1015.35	225.55
1015.64	225.63
1015.92	225.78
1016.21	225.79
1016.50	225.81
1016.78	225.86
1017.07	225.89
1017.36	225.82
1017.64	225.74
1017.93	225.82
1018.22	225.80
1018.50	225.86
1018.79	225.90
1019.08	225.64
1019.36	225.66
1019.65	225.60
1019.93	225.69
1020.22	225.79
1020.51	226.02
1020.79	226.02
1021.08	224.80
1021.36	226.00
1021.65	225.60
1021.94	225.55
1022.22	226.05
1022.51	224.30
1022.79	226.85
1023.08	227.90
1023.36	231.90
1023.65	225.25
>>>>>End Processed Spectral Data<<<<<
