SpectraSuite Data File
++++++++++++++++++++++++++++++++++++
Date: Wed Sep 04 17:49:37 EDT 2013
User: lab3
Dark Spectrum Present: Yes
Reference Spectrum Present: No
Number of Sampled Component Spectra: 1
Spectrometers: USB2E7196
Integration Time (usec): 170000 (USB2E7196)
Spectra Averaged: 20 (USB2E7196)
Boxcar Smoothing: 10 (USB2E7196)
Correct for Electrical Dark: No (USB2E7196)
Strobe/Lamp Enabled: No (USB2E7196)
Correct for Detector Non-linearity: No (USB2E7196)
Correct for Stray Light: No (USB2E7196)
Number of Pixels in Processed Spectrum: 2048
>>>>>Begin Processed Spectral Data<<<<<
339.09	0.00
339.48	213.80
339.86	214.45
340.24	215.90
340.63	216.10
341.01	225.65
341.39	221.15
341.78	222.00
342.16	224.60
342.54	222.30
342.93	212.20
343.31	222.88
343.69	223.34
344.07	223.80
344.46	224.30
344.84	224.70
345.22	224.69
345.60	224.91
345.99	225.13
346.37	225.19
346.75	225.26
347.13	225.30
347.52	225.41
347.90	225.66
348.28	225.60
348.66	225.74
349.05	225.50
349.43	225.53
349.81	225.60
350.19	225.66
350.57	225.72
350.96	225.86
351.34	226.00
351.72	226.14
352.10	226.26
352.48	226.22
352.87	226.32
353.25	226.40
353.63	226.45
354.01	226.48
354.39	226.57
354.77	226.68
355.15	226.89
355.54	226.90
355.92	226.76
356.30	226.92
356.68	227.25
357.06	227.37
357.44	227.43
357.82	227.42
358.20	227.86
358.58	227.93
358.97	227.97
359.35	228.09
359.73	228.24
360.11	228.20
360.49	228.31
360.87	228.37
361.25	228.39
361.63	228.61
362.01	228.73
362.39	228.75
362.77	228.84
363.15	228.82
363.53	228.90
363.91	229.04
364.29	229.04
364.67	228.59
365.05	228.65
365.43	228.71
365.81	228.88
366.19	228.81
366.57	228.99
366.95	229.01
367.33	228.89
367.71	228.90
368.09	228.97
368.47	228.98
368.85	228.97
369.23	229.17
369.61	229.01
369.99	229.13
370.37	229.21
370.75	229.41
371.13	229.34
371.51	229.28
371.89	229.27
372.27	229.26
372.65	229.26
373.03	229.23
373.41	229.14
373.78	229.01
374.16	228.65
374.54	228.46
374.92	228.35
375.30	228.39
375.68	228.25
376.06	228.35
376.44	228.27
376.82	228.24
377.19	228.10
377.57	228.01
377.95	227.78
378.33	227.62
378.71	227.32
379.09	227.32
379.47	227.30
379.84	227.21
380.22	227.13
380.60	227.03
380.98	226.94
381.36	226.85
381.73	226.78
382.11	226.84
382.49	226.83
382.87	226.75
383.25	226.68
383.62	227.12
384.00	226.94
384.38	226.88
384.76	226.94
385.13	227.03
385.51	226.95
385.89	226.77
386.27	226.80
386.64	226.86
387.02	226.77
387.40	226.65
387.78	226.59
388.15	226.57
388.53	226.52
388.91	226.51
389.29	226.45
389.66	226.50
390.04	226.45
390.42	226.50
390.79	226.45
391.17	226.34
391.55	225.77
391.92	225.80
392.30	225.85
392.68	225.73
393.05	225.68
393.43	225.72
393.81	225.85
394.18	225.76
394.56	225.75
394.94	225.82
395.31	225.79
395.69	225.92
396.06	225.94
396.44	226.00
396.82	225.99
397.19	226.27
397.57	226.21
397.95	226.30
398.32	226.23
398.70	226.40
399.07	226.64
399.45	226.84
399.82	226.91
400.20	226.96
400.58	226.99
400.95	226.92
401.33	227.16
401.70	227.60
402.08	227.79
402.45	227.94
402.83	228.16
403.20	228.46
403.58	228.56
403.95	228.84
404.33	229.11
404.71	229.29
405.08	229.74
405.46	230.00
405.83	230.28
406.21	230.48
406.58	230.84
406.96	231.07
407.33	231.30
407.70	231.70
408.08	232.38
408.45	232.89
408.83	233.41
409.20	233.68
409.58	233.81
409.95	234.36
410.33	234.82
410.70	235.17
411.08	235.73
411.45	236.32
411.82	236.84
412.20	237.60
412.57	238.62
412.95	238.95
413.32	239.84
413.69	240.66
414.07	241.61
414.44	242.48
414.82	243.47
415.19	244.78
415.56	245.90
415.94	247.00
416.31	248.37
416.68	249.80
417.06	251.48
417.43	253.07
417.81	254.72
418.18	256.59
418.55	258.60
418.93	260.60
419.30	262.72
419.67	264.97
420.04	267.22
420.42	269.47
420.79	272.51
421.16	275.23
421.54	278.22
421.91	281.24
422.28	284.39
422.66	287.70
423.03	291.06
423.40	294.46
423.77	297.91
424.15	301.53
424.52	305.28
424.89	309.38
425.26	313.29
425.64	317.06
426.01	321.18
426.38	325.47
426.75	329.93
427.13	334.43
427.50	339.19
427.87	344.02
428.24	348.83
428.61	353.31
428.99	358.50
429.36	363.89
429.73	369.34
430.10	374.75
430.47	380.41
430.85	385.91
431.22	391.82
431.59	398.50
431.96	404.60
432.33	411.45
432.70	418.03
433.08	425.87
433.45	433.26
433.82	440.58
434.19	448.77
434.56	456.91
434.93	464.52
435.30	472.23
435.68	480.78
436.05	489.17
436.42	497.51
436.79	505.25
437.16	513.58
437.53	522.26
437.90	530.92
438.27	539.32
438.64	548.06
439.01	556.33
439.38	563.62
439.75	570.73
440.13	578.60
440.50	586.08
440.87	592.10
441.24	598.38
441.61	605.28
441.98	610.26
442.35	615.91
442.72	621.97
443.09	627.72
443.46	631.22
443.83	633.54
444.20	635.23
444.57	638.00
444.94	639.01
445.31	640.10
445.68	641.41
446.05	641.61
446.42	640.52
446.79	639.17
447.16	637.47
447.53	636.24
447.90	632.65
448.27	629.00
448.64	624.02
449.01	620.39
449.37	614.24
449.74	608.33
450.11	601.41
450.48	593.70
450.85	585.62
451.22	578.69
451.59	572.09
451.96	566.06
452.33	557.85
452.70	550.66
453.07	542.16
453.43	533.17
453.80	524.75
454.17	516.71
454.54	509.08
454.91	500.90
455.28	492.86
455.65	485.38
456.02	478.62
456.38	472.43
456.75	464.74
457.12	458.42
457.49	452.19
457.86	445.98
458.23	440.88
458.59	435.36
458.96	429.69
459.33	424.79
459.70	419.68
460.07	415.66
460.43	410.96
460.80	406.69
461.17	402.92
461.54	399.02
461.91	395.33
462.27	391.58
462.64	388.49
463.01	385.04
463.38	381.80
463.74	377.80
464.11	374.82
464.48	372.22
464.85	369.35
465.21	367.15
465.58	364.85
465.95	361.98
466.32	359.67
466.68	357.34
467.05	355.06
467.42	352.92
467.78	350.65
468.15	348.54
468.52	346.90
468.88	344.69
469.25	342.81
469.62	341.31
469.98	339.65
470.35	338.00
470.72	336.53
471.08	334.87
471.45	333.61
471.82	332.42
472.18	331.02
472.55	329.93
472.92	328.66
473.28	327.64
473.65	326.56
474.02	325.58
474.38	324.78
474.75	324.04
475.11	323.19
475.48	322.52
475.85	321.91
476.21	321.35
476.58	320.95
476.94	320.56
477.31	320.15
477.67	319.75
478.04	319.55
478.41	319.45
478.77	319.80
479.14	319.57
479.50	319.40
479.87	319.43
480.23	319.48
480.60	319.34
480.96	319.30
481.33	319.74
481.69	319.97
482.06	320.20
482.42	320.44
482.79	320.81
483.15	321.24
483.52	321.80
483.88	322.20
484.25	322.68
484.61	323.39
484.98	323.93
485.34	324.80
485.71	325.67
486.07	326.62
486.44	327.23
486.80	328.25
487.17	329.46
487.53	330.75
487.90	332.10
488.26	333.84
488.62	335.57
488.99	337.02
489.35	338.70
489.72	340.50
490.08	342.45
490.44	344.48
490.81	346.67
491.17	348.94
491.54	351.43
491.90	353.95
492.26	356.54
492.63	359.46
492.99	362.37
493.36	365.42
493.72	368.61
494.08	371.96
494.45	375.78
494.81	379.64
495.17	383.47
495.54	387.66
495.90	391.78
496.26	396.24
496.63	400.88
496.99	405.67
497.35	410.67
497.72	415.96
498.08	421.37
498.44	427.01
498.80	432.89
499.17	438.99
499.53	445.26
499.89	451.88
500.26	458.70
500.62	465.70
500.98	473.10
501.34	480.63
501.71	488.40
502.07	495.95
502.43	503.98
502.79	512.30
503.16	521.06
503.52	530.29
503.88	539.43
504.24	549.04
504.60	559.09
504.97	569.36
505.33	579.77
505.69	590.67
506.05	601.72
506.41	613.03
506.78	624.55
507.14	636.67
507.50	648.85
507.86	661.40
508.22	674.28
508.59	687.41
508.95	701.03
509.31	715.04
509.67	729.35
510.03	743.52
510.39	758.07
510.75	772.89
511.12	787.84
511.48	803.43
511.84	819.12
512.20	834.83
512.56	850.95
512.92	867.52
513.28	884.37
513.64	901.60
514.00	919.07
514.37	936.84
514.73	954.74
515.09	973.13
515.45	991.21
515.81	1009.60
516.17	1028.13
516.53	1046.64
516.89	1065.13
517.25	1084.43
517.61	1104.59
517.97	1124.85
518.33	1144.75
518.69	1164.89
519.05	1185.27
519.41	1205.56
519.77	1226.48
520.13	1247.27
520.49	1267.74
520.85	1289.88
521.21	1310.83
521.57	1332.01
521.93	1352.61
522.29	1373.68
522.65	1393.93
523.01	1414.94
523.37	1435.08
523.73	1455.96
524.09	1476.45
524.45	1497.16
524.81	1518.07
525.17	1538.50
525.53	1559.20
525.89	1579.85
526.25	1600.35
526.61	1620.58
526.97	1641.69
527.33	1662.78
527.68	1684.19
528.04	1705.37
528.40	1724.82
528.76	1745.51
529.12	1765.55
529.48	1786.25
529.84	1806.12
530.20	1827.29
530.56	1847.82
530.91	1869.04
531.27	1889.09
531.63	1909.42
531.99	1929.62
532.35	1949.18
532.71	1969.25
533.07	1989.30
533.42	2008.91
533.78	2028.65
534.14	2048.34
534.50	2067.17
534.86	2086.06
535.21	2103.56
535.57	2121.88
535.93	2139.09
536.29	2156.60
536.65	2174.62
537.00	2191.91
537.36	2209.32
537.72	2225.49
538.08	2242.45
538.44	2258.49
538.79	2274.70
539.15	2291.20
539.51	2306.89
539.87	2321.68
540.22	2335.53
540.58	2349.66
540.94	2362.63
541.29	2375.45
541.65	2387.78
542.01	2400.11
542.37	2410.28
542.72	2421.01
543.08	2431.38
543.44	2443.07
543.79	2452.89
544.15	2462.51
544.51	2472.25
544.87	2481.56
545.22	2490.01
545.58	2497.29
545.94	2504.37
546.29	2510.81
546.65	2516.54
547.01	2522.05
547.36	2527.68
547.72	2532.69
548.07	2536.42
548.43	2541.54
548.79	2545.34
549.14	2549.26
549.50	2552.71
549.86	2556.64
550.21	2560.27
550.57	2563.20
550.92	2564.14
551.28	2565.46
551.64	2567.66
551.99	2569.10
552.35	2570.40
552.70	2572.35
553.06	2573.85
553.41	2574.94
553.77	2576.42
554.13	2578.07
554.48	2579.68
554.84	2580.75
555.19	2582.03
555.55	2583.56
555.90	2582.78
556.26	2582.32
556.61	2580.69
556.97	2578.87
557.32	2578.20
557.68	2576.90
558.03	2575.46
558.39	2574.09
558.74	2573.20
559.10	2569.67
559.45	2566.35
559.81	2562.09
560.16	2556.78
560.52	2551.97
560.87	2547.56
561.23	2542.17
561.58	2535.95
561.94	2528.93
562.29	2521.50
562.64	2514.25
563.00	2505.86
563.35	2499.34
563.71	2492.56
564.06	2486.22
564.42	2479.45
564.77	2472.43
565.12	2464.95
565.48	2457.44
565.83	2449.73
566.19	2441.39
566.54	2433.94
566.89	2425.81
567.25	2417.99
567.60	2410.68
567.96	2403.18
568.31	2395.25
568.66	2386.55
569.02	2377.53
569.37	2369.43
569.72	2362.11
570.08	2353.08
570.43	2343.74
570.78	2334.64
571.14	2325.36
571.49	2315.02
571.84	2305.16
572.20	2294.23
572.55	2284.03
572.90	2273.07
573.26	2262.85
573.61	2251.97
573.96	2240.76
574.31	2228.97
574.67	2217.43
575.02	2204.95
575.37	2192.13
575.72	2179.14
576.08	2167.04
576.43	2154.99
576.78	2142.04
577.13	2128.14
577.49	2115.57
577.84	2104.06
578.19	2092.16
578.54	2079.70
578.90	2067.92
579.25	2055.93
579.60	2043.65
579.95	2030.78
580.30	2017.95
580.66	2004.21
581.01	1990.75
581.36	1976.79
581.71	1964.27
582.06	1951.25
582.42	1938.80
582.77	1926.52
583.12	1914.53
583.47	1902.38
583.82	1890.46
584.17	1878.37
584.53	1866.79
584.88	1853.74
585.23	1840.58
585.58	1826.43
585.93	1813.10
586.28	1799.99
586.63	1785.99
586.98	1772.09
587.34	1759.07
587.69	1745.73
588.04	1733.80
588.39	1721.98
588.74	1709.81
589.09	1697.57
589.44	1684.95
589.79	1673.12
590.14	1661.36
590.49	1649.23
590.84	1637.24
591.19	1625.14
591.54	1613.08
591.89	1601.16
592.25	1591.20
592.60	1580.05
592.95	1568.69
593.30	1557.12
593.65	1545.09
594.00	1533.20
594.35	1523.30
594.70	1511.77
595.05	1500.54
595.40	1488.37
595.75	1476.61
596.10	1465.68
596.45	1454.54
596.80	1443.90
597.15	1432.75
597.50	1420.67
597.85	1409.70
598.19	1398.23
598.54	1386.72
598.89	1375.62
599.24	1364.99
599.59	1353.47
599.94	1342.63
600.29	1332.59
600.64	1322.49
600.99	1312.17
601.34	1302.86
601.69	1292.04
602.04	1282.17
602.39	1272.67
602.74	1263.81
603.08	1254.55
603.43	1245.26
603.78	1235.84
604.13	1226.22
604.48	1216.34
604.83	1206.94
605.18	1197.05
605.53	1187.80
605.87	1178.71
606.22	1170.33
606.57	1161.13
606.92	1151.75
607.27	1143.09
607.62	1134.43
607.96	1125.84
608.31	1118.05
608.66	1109.87
609.01	1101.47
609.36	1093.36
609.70	1085.04
610.05	1076.39
610.40	1067.88
610.75	1059.39
611.10	1051.11
611.44	1042.74
611.79	1034.81
612.14	1027.10
612.49	1019.37
612.83	1012.06
613.18	1004.50
613.53	996.84
613.88	989.27
614.22	982.00
614.57	974.07
614.92	966.30
615.27	958.86
615.61	951.14
615.96	943.70
616.31	936.35
616.65	929.13
617.00	921.80
617.35	914.51
617.70	907.53
618.04	900.62
618.39	893.69
618.74	887.46
619.08	880.82
619.43	874.01
619.78	867.19
620.12	860.16
620.47	853.36
620.82	846.28
621.16	839.60
621.51	833.19
621.85	827.09
622.20	820.67
622.55	814.17
622.89	807.80
623.24	801.37
623.59	795.10
623.93	788.76
624.28	782.76
624.62	777.53
624.97	771.78
625.32	766.04
625.66	760.06
626.01	753.90
626.35	748.35
626.70	742.97
627.04	737.73
627.39	732.25
627.73	726.97
628.08	721.93
628.43	716.60
628.77	711.13
629.12	705.94
629.46	701.15
629.81	696.41
630.15	691.71
630.50	687.02
630.84	682.12
631.19	677.50
631.53	673.11
631.88	667.74
632.22	662.95
632.57	658.60
632.91	654.11
633.26	649.78
633.60	645.30
633.95	640.62
634.29	635.93
634.64	631.55
634.98	626.94
635.32	622.60
635.67	618.50
636.01	614.46
636.36	610.02
636.70	605.91
637.05	601.74
637.39	597.68
637.73	593.65
638.08	589.77
638.42	585.54
638.77	581.15
639.11	577.02
639.45	572.83
639.80	568.48
640.14	564.50
640.49	560.70
640.83	556.87
641.17	553.48
641.52	549.81
641.86	546.29
642.20	543.20
642.55	539.56
642.89	536.13
643.23	532.59
643.58	529.52
643.92	526.07
644.26	522.68
644.61	519.47
644.95	516.06
645.29	512.78
645.64	509.89
645.98	506.88
646.32	504.06
646.66	500.96
647.01	498.10
647.35	495.41
647.69	492.46
648.04	489.69
648.38	486.75
648.72	483.94
649.06	480.91
649.41	477.84
649.75	474.88
650.09	472.00
650.43	469.20
650.78	466.23
651.12	463.40
651.46	460.81
651.80	458.13
652.14	455.48
652.49	453.01
652.83	450.44
653.17	447.86
653.51	445.20
653.85	442.94
654.20	440.44
654.54	437.84
654.88	435.37
655.22	433.10
655.56	430.65
655.90	428.42
656.25	426.26
656.59	424.09
656.93	422.06
657.27	419.97
657.61	417.71
657.95	415.56
658.29	413.43
658.64	411.29
658.98	409.01
659.32	406.89
659.66	404.75
660.00	402.66
660.34	400.76
660.68	398.86
661.02	396.86
661.36	394.90
661.70	392.92
662.05	391.05
662.39	389.06
662.73	387.32
663.07	385.72
663.41	383.95
663.75	381.98
664.09	380.06
664.43	378.10
664.77	376.50
665.11	374.72
665.45	373.22
665.79	371.74
666.13	370.19
666.47	368.48
666.81	366.74
667.15	365.08
667.49	363.54
667.83	362.10
668.17	360.61
668.51	359.17
668.85	357.91
669.19	356.67
669.53	355.18
669.87	353.62
670.21	352.00
670.55	350.52
670.89	349.45
671.23	348.15
671.57	346.85
671.91	345.50
672.25	344.22
672.58	342.90
672.92	341.39
673.26	340.08
673.60	338.97
673.94	337.86
674.28	336.69
674.62	335.50
674.96	334.17
675.30	333.00
675.64	331.71
675.97	330.42
676.31	329.04
676.65	327.83
676.99	326.95
677.33	325.79
677.67	324.73
678.01	323.41
678.34	322.35
678.68	321.45
679.02	320.34
679.36	319.25
679.70	318.20
680.04	317.26
680.37	316.21
680.71	315.22
681.05	314.31
681.39	313.44
681.73	312.49
682.06	311.63
682.40	310.73
682.74	309.95
683.08	309.17
683.42	308.35
683.75	307.64
684.09	306.64
684.43	305.84
684.77	304.93
685.10	304.19
685.44	303.34
685.78	302.45
686.12	301.76
686.45	301.09
686.79	300.22
687.13	299.59
687.46	298.90
687.80	298.29
688.14	297.46
688.48	296.63
688.81	295.90
689.15	295.20
689.49	294.51
689.82	293.85
690.16	292.99
690.50	292.31
690.83	291.45
691.17	290.68
691.51	290.00
691.84	289.43
692.18	288.75
692.52	288.17
692.85	287.61
693.19	287.06
693.52	286.50
693.86	285.90
694.20	285.14
694.53	284.49
694.87	283.78
695.21	283.09
695.54	282.49
695.88	281.76
696.21	281.06
696.55	280.38
696.88	279.70
697.22	279.07
697.56	278.57
697.89	278.06
698.23	277.66
698.56	277.16
698.90	276.74
699.23	276.19
699.57	275.62
699.90	275.05
700.24	274.43
700.58	273.94
700.91	273.59
701.25	273.50
701.58	273.46
701.92	273.11
702.25	272.71
702.59	272.21
702.92	271.85
703.26	271.48
703.59	271.10
703.93	271.16
704.26	270.94
704.60	270.56
704.93	270.13
705.26	269.64
705.60	269.31
705.93	268.83
706.27	268.63
706.60	268.30
706.94	268.12
707.27	267.72
707.61	267.34
707.94	266.88
708.27	266.13
708.61	265.39
708.94	264.98
709.28	264.70
709.61	264.30
709.94	263.95
710.28	263.58
710.61	263.25
710.95	262.39
711.28	262.28
711.61	261.86
711.95	261.65
712.28	261.22
712.61	260.80
712.95	260.67
713.28	260.45
713.61	260.05
713.95	259.54
714.28	259.28
714.61	258.91
714.95	258.49
715.28	258.15
715.61	257.79
715.95	257.50
716.28	257.10
716.61	256.91
716.95	256.51
717.28	256.21
717.61	255.90
717.94	255.65
718.28	255.01
718.61	254.69
718.94	254.29
719.27	254.08
719.61	253.92
719.94	253.55
720.27	253.09
720.60	252.90
720.94	252.58
721.27	252.35
721.60	252.17
721.93	252.00
722.27	251.91
722.60	251.73
722.93	251.40
723.26	251.27
723.59	251.02
723.93	250.96
724.26	250.81
724.59	250.61
724.92	250.36
725.25	250.29
725.59	250.09
725.92	249.97
726.25	249.79
726.58	249.55
726.91	249.34
727.24	249.19
727.57	249.00
727.91	248.83
728.24	248.63
728.57	248.37
728.90	248.22
729.23	247.90
729.56	247.98
729.89	247.90
730.22	247.68
730.55	247.48
730.89	247.30
731.22	247.03
731.55	246.78
731.88	246.75
732.21	246.48
732.54	246.25
732.87	246.10
733.20	246.01
733.53	245.86
733.86	245.68
734.19	245.46
734.52	245.30
734.85	245.45
735.18	245.25
735.51	245.27
735.84	245.16
736.17	245.14
736.50	244.74
736.83	245.12
737.16	245.00
737.49	244.91
737.82	244.73
738.15	244.69
738.48	244.64
738.81	244.40
739.14	244.20
739.47	244.06
739.80	243.89
740.13	243.72
740.46	243.46
740.79	243.23
741.12	243.05
741.45	242.90
741.78	242.54
742.11	242.53
742.44	242.27
742.77	242.25
743.10	242.10
743.43	241.92
743.75	241.24
744.08	241.70
744.41	241.41
744.74	241.25
745.07	240.99
745.40	240.88
745.73	240.93
746.06	240.87
746.39	240.78
746.71	240.60
747.04	240.43
747.37	240.33
747.70	240.30
748.03	240.17
748.36	240.12
748.68	239.95
749.01	239.65
749.34	239.57
749.67	239.42
750.00	239.32
750.33	239.50
750.65	239.41
750.98	238.64
751.31	238.64
751.64	238.51
751.97	238.65
752.29	238.51
752.62	238.23
752.95	238.04
753.28	237.90
753.60	237.76
753.93	237.77
754.26	237.75
754.59	237.58
754.91	237.42
755.24	237.28
755.57	237.18
755.90	237.07
756.22	236.88
756.55	236.60
756.88	236.41
757.20	236.04
757.53	235.87
757.86	235.78
758.19	235.71
758.51	235.62
758.84	235.37
759.17	235.21
759.49	235.11
759.82	235.32
760.15	235.34
760.47	235.26
760.80	235.01
761.13	234.99
761.45	234.93
761.78	234.92
762.11	234.81
762.43	234.68
762.76	234.65
763.08	234.64
763.41	234.64
763.74	234.55
764.06	234.50
764.39	234.47
764.71	234.46
765.04	234.34
765.37	234.26
765.69	234.19
766.02	234.13
766.34	234.04
766.67	233.67
767.00	233.60
767.32	233.81
767.65	234.05
767.97	233.96
768.30	233.89
768.62	233.79
768.95	233.64
769.27	233.61
769.60	233.61
769.92	233.46
770.25	233.37
770.57	233.32
770.90	233.21
771.22	233.02
771.55	232.95
771.87	233.01
772.20	232.93
772.52	233.26
772.85	233.84
773.17	233.79
773.50	233.77
773.82	233.65
774.15	233.35
774.47	233.02
774.80	232.87
775.12	232.79
775.45	232.73
775.77	232.71
776.09	232.81
776.42	232.77
776.74	232.90
777.07	232.81
777.39	232.71
777.72	232.66
778.04	232.76
778.36	232.61
778.69	232.51
779.01	232.46
779.33	232.06
779.66	231.39
779.98	231.36
780.31	231.37
780.63	231.64
780.95	231.71
781.28	231.61
781.60	231.53
781.92	231.55
782.25	231.54
782.57	231.54
782.89	231.35
783.22	231.28
783.54	231.10
783.86	231.10
784.19	231.12
784.51	231.22
784.83	231.08
785.16	231.02
785.48	230.98
785.80	231.02
786.12	231.01
786.45	231.00
786.77	230.90
787.09	230.81
787.42	230.48
787.74	230.42
788.06	230.47
788.38	230.35
788.71	230.17
789.03	230.08
789.35	230.06
789.67	229.97
789.99	230.00
790.32	229.91
790.64	229.93
790.96	230.18
791.28	229.99
791.61	229.89
791.93	229.99
792.25	229.93
792.57	230.14
792.89	229.95
793.21	229.95
793.54	229.89
793.86	229.75
794.18	229.76
794.50	229.61
794.82	229.57
795.14	229.68
795.47	229.75
795.79	229.71
796.11	229.58
796.43	229.50
796.75	229.40
797.07	229.40
797.39	229.26
797.71	228.91
798.04	228.86
798.36	228.89
798.68	228.74
799.00	228.68
799.32	228.38
799.64	228.48
799.96	228.46
800.28	228.52
800.60	228.55
800.92	228.47
801.24	228.35
801.56	228.35
801.89	228.22
802.21	228.25
802.53	228.16
802.85	228.24
803.17	228.49
803.49	228.37
803.81	228.32
804.13	228.30
804.45	228.20
804.77	228.25
805.09	228.23
805.41	228.24
805.73	228.19
806.05	228.14
806.37	228.05
806.69	228.02
807.01	228.01
807.33	227.97
807.65	227.86
807.97	228.17
808.28	228.09
808.60	228.12
808.92	228.06
809.24	228.37
809.56	228.25
809.88	228.05
810.20	228.07
810.52	228.16
810.84	228.19
811.16	228.14
811.48	228.11
811.80	228.34
812.12	228.31
812.43	228.41
812.75	228.45
813.07	228.40
813.39	228.40
813.71	228.35
814.03	228.35
814.35	228.40
814.67	228.24
814.98	228.16
815.30	228.15
815.62	228.09
815.94	227.72
816.26	227.95
816.58	227.93
816.89	227.97
817.21	227.85
817.53	227.83
817.85	227.93
818.17	227.91
818.48	227.62
818.80	227.72
819.12	227.65
819.44	227.61
819.76	227.58
820.07	227.55
820.39	227.52
820.71	227.55
821.03	227.48
821.34	227.41
821.66	227.55
821.98	227.65
822.30	227.59
822.61	227.97
822.93	227.80
823.25	227.82
823.57	227.82
823.88	227.93
824.20	227.97
824.52	227.99
824.83	227.98
825.15	228.00
825.47	227.92
825.79	227.94
826.10	227.91
826.42	227.95
826.74	227.93
827.05	227.93
827.37	227.97
827.69	228.06
828.00	228.09
828.32	228.13
828.64	227.93
828.95	228.19
829.27	228.03
829.58	227.96
829.90	228.03
830.22	228.03
830.53	227.88
830.85	227.73
831.17	227.63
831.48	227.58
831.80	227.60
832.11	227.57
832.43	227.48
832.75	227.43
833.06	227.70
833.38	227.59
833.69	227.55
834.01	227.56
834.32	227.47
834.64	227.38
834.96	227.26
835.27	227.35
835.59	227.18
835.90	227.08
836.22	227.06
836.53	226.84
836.85	226.84
837.16	227.36
837.48	227.38
837.79	227.51
838.11	227.57
838.42	227.56
838.74	227.61
839.05	227.54
839.37	227.49
839.68	227.11
840.00	227.15
840.31	227.22
840.63	227.19
840.94	227.20
841.26	227.15
841.57	227.20
841.88	227.18
842.20	227.11
842.51	227.09
842.83	227.08
843.14	227.57
843.46	227.53
843.77	227.19
844.08	227.27
844.40	227.12
844.71	227.08
845.03	227.01
845.34	226.98
845.65	227.07
845.97	227.13
846.28	227.25
846.60	227.25
846.91	227.22
847.22	227.25
847.54	227.27
847.85	227.33
848.16	227.33
848.48	227.25
848.79	227.51
849.10	227.51
849.42	227.65
849.73	227.20
850.04	227.15
850.36	227.06
850.67	227.05
850.98	227.13
851.30	227.21
851.61	227.32
851.92	227.30
852.23	227.45
852.55	227.45
852.86	227.40
853.17	227.49
853.49	227.52
853.80	227.55
854.11	227.64
854.42	227.77
854.74	227.68
855.05	227.70
855.36	227.45
855.67	227.53
855.99	227.44
856.30	228.02
856.61	228.11
856.92	228.05
857.23	228.06
857.55	227.96
857.86	227.85
858.17	227.82
858.48	227.76
858.79	227.64
859.11	227.71
859.42	227.61
859.73	227.43
860.04	227.40
860.35	227.20
860.66	227.00
860.98	226.88
861.29	226.94
861.60	226.89
861.91	226.86
862.22	226.74
862.53	226.69
862.84	226.05
863.16	226.10
863.47	226.09
863.78	226.05
864.09	226.07
864.40	226.07
864.71	226.12
865.02	226.18
865.33	226.08
865.64	225.92
865.95	225.98
866.27	226.35
866.58	226.26
866.89	226.37
867.20	226.37
867.51	226.33
867.82	226.27
868.13	226.43
868.44	226.39
868.75	226.50
869.06	226.46
869.37	226.57
869.68	226.35
869.99	226.40
870.30	226.44
870.61	226.57
870.92	226.51
871.23	226.40
871.54	226.50
871.85	226.71
872.16	226.80
872.47	226.76
872.78	226.47
873.09	226.60
873.40	226.58
873.71	226.60
874.02	226.62
874.33	226.59
874.64	226.47
874.95	226.58
875.26	226.46
875.56	226.45
875.87	226.43
876.18	226.52
876.49	226.99
876.80	227.00
877.11	226.91
877.42	226.94
877.73	226.93
878.04	226.81
878.35	226.72
878.66	226.67
878.96	226.68
879.27	226.70
879.58	226.65
879.89	226.61
880.20	226.73
880.51	226.73
880.82	226.77
881.12	226.81
881.43	226.71
881.74	226.72
882.05	226.77
882.36	226.81
882.67	226.87
882.97	226.33
883.28	226.25
883.59	226.21
883.90	226.29
884.21	226.37
884.51	226.35
884.82	226.31
885.13	226.37
885.44	226.42
885.74	226.43
886.05	226.45
886.36	226.44
886.67	226.33
886.98	226.59
887.28	226.57
887.59	226.61
887.90	226.63
888.20	226.54
888.51	226.64
888.82	226.57
889.13	226.56
889.43	227.01
889.74	227.00
890.05	226.96
890.35	226.90
890.66	226.87
890.97	226.85
891.28	226.84
891.58	226.85
891.89	226.81
892.20	226.73
892.50	226.64
892.81	226.60
893.12	226.68
893.42	226.44
893.73	226.52
894.04	226.47
894.34	226.50
894.65	226.55
894.95	226.48
895.26	226.46
895.57	226.66
895.87	226.20
896.18	226.29
896.48	226.34
896.79	226.37
897.10	226.39
897.40	226.40
897.71	226.47
898.01	226.42
898.32	226.51
898.63	226.46
898.93	226.54
899.24	226.56
899.54	226.46
899.85	226.40
900.15	226.35
900.46	226.39
900.76	226.43
901.07	226.38
901.38	226.37
901.68	226.41
901.99	226.15
902.29	226.17
902.60	226.05
902.90	226.04
903.21	225.99
903.51	225.93
903.82	226.03
904.12	225.95
904.43	225.99
904.73	225.91
905.03	226.04
905.34	226.43
905.64	226.41
905.95	226.42
906.25	226.43
906.56	226.44
906.86	226.38
907.17	226.37
907.47	226.43
907.77	226.42
908.08	226.34
908.38	226.38
908.69	226.45
908.99	226.51
909.30	226.51
909.60	226.50
909.90	226.47
910.21	226.36
910.51	226.26
910.81	226.25
911.12	226.24
911.42	226.19
911.73	225.72
912.03	225.76
912.33	225.86
912.64	225.86
912.94	225.86
913.24	225.77
913.55	225.75
913.85	225.64
914.15	225.65
914.46	225.67
914.76	225.63
915.06	225.57
915.37	225.58
915.67	225.53
915.97	225.52
916.27	225.51
916.58	225.55
916.88	225.56
917.18	225.60
917.49	225.92
917.79	225.93
918.09	225.99
918.39	226.12
918.70	226.06
919.00	226.09
919.30	226.26
919.60	226.32
919.91	226.24
920.21	226.37
920.51	226.29
920.81	226.27
921.12	226.30
921.42	226.27
921.72	226.25
922.02	226.33
922.32	226.35
922.63	226.40
922.93	226.57
923.23	226.61
923.53	226.56
923.83	226.29
924.13	226.32
924.44	226.35
924.74	226.44
925.04	226.59
925.34	226.55
925.64	226.34
925.94	226.34
926.24	226.66
926.55	226.53
926.85	226.60
927.15	226.71
927.45	226.75
927.75	226.73
928.05	226.73
928.35	226.66
928.65	226.82
928.95	226.86
929.26	226.73
929.56	226.86
929.86	226.87
930.16	226.87
930.46	226.85
930.76	226.90
931.06	226.60
931.36	226.48
931.66	226.57
931.96	226.69
932.26	226.66
932.56	226.47
932.86	226.62
933.16	226.64
933.46	226.54
933.76	226.53
934.06	226.75
934.36	226.97
934.66	226.92
934.96	226.87
935.26	226.88
935.56	226.91
935.86	226.78
936.16	226.74
936.46	226.65
936.76	226.66
937.06	226.49
937.36	226.59
937.66	226.56
937.96	226.49
938.26	226.35
938.56	226.34
938.86	226.29
939.16	226.33
939.46	226.38
939.76	226.37
940.06	226.28
940.35	226.07
940.65	225.77
940.95	225.87
941.25	225.67
941.55	225.55
941.85	225.54
942.15	225.60
942.45	225.69
942.75	225.72
943.04	225.60
943.34	225.75
943.64	225.70
943.94	225.67
944.24	225.67
944.54	225.70
944.84	225.69
945.13	225.62
945.43	225.50
945.73	225.46
946.03	225.44
946.33	225.45
946.62	225.46
946.92	225.47
947.22	225.51
947.52	225.61
947.82	225.70
948.11	225.64
948.41	225.57
948.71	225.40
949.01	225.45
949.31	225.44
949.60	225.45
949.90	225.54
950.20	225.51
950.50	225.53
950.79	225.53
951.09	225.57
951.39	225.59
951.69	225.58
951.98	225.64
952.28	225.66
952.58	225.66
952.87	225.63
953.17	225.68
953.47	225.61
953.76	225.57
954.06	225.48
954.36	225.36
954.66	225.37
954.95	225.57
955.25	225.58
955.55	225.65
955.84	225.48
956.14	225.49
956.44	225.51
956.73	225.46
957.03	225.47
957.32	225.45
957.62	225.42
957.92	225.55
958.21	225.49
958.51	226.02
958.81	226.04
959.10	226.13
959.40	226.21
959.69	226.22
959.99	226.24
960.29	226.29
960.58	226.31
960.88	226.53
961.17	226.45
961.47	226.50
961.76	226.42
962.06	226.55
962.36	226.46
962.65	226.49
962.95	226.55
963.24	226.53
963.54	226.58
963.83	226.67
964.13	226.58
964.42	226.49
964.72	226.15
965.01	226.22
965.31	226.22
965.60	226.11
965.90	226.46
966.19	226.47
966.49	226.44
966.78	226.45
967.08	226.41
967.37	226.38
967.67	226.24
967.96	226.43
968.26	226.45
968.55	226.53
968.85	226.60
969.14	226.59
969.43	226.64
969.73	226.67
970.02	226.66
970.32	226.61
970.61	226.63
970.91	226.48
971.20	226.38
971.49	226.32
971.79	226.40
972.08	226.01
972.38	225.94
972.67	225.95
972.96	226.06
973.26	225.88
973.55	226.07
973.85	226.13
974.14	226.04
974.43	226.01
974.73	225.98
975.02	225.85
975.31	225.87
975.61	225.84
975.90	225.79
976.19	225.75
976.49	225.84
976.78	225.82
977.07	225.81
977.37	225.87
977.66	225.94
977.95	225.86
978.24	225.96
978.54	226.13
978.83	226.10
979.12	226.01
979.42	226.07
979.71	225.97
980.00	225.96
980.29	226.00
980.59	226.01
980.88	226.14
981.17	226.15
981.46	226.18
981.76	226.13
982.05	226.24
982.34	226.26
982.63	226.31
982.93	226.37
983.22	226.52
983.51	226.52
983.80	226.56
984.09	226.58
984.39	226.52
984.68	226.42
984.97	226.51
985.26	226.47
985.55	226.46
985.85	226.36
986.14	226.40
986.43	226.42
986.72	226.37
987.01	226.24
987.30	226.29
987.59	226.23
987.89	226.31
988.18	226.15
988.47	226.10
988.76	226.02
989.05	225.97
989.34	225.88
989.63	225.95
989.92	225.88
990.22	225.94
990.51	225.90
990.80	225.93
991.09	225.91
991.38	226.01
991.67	226.00
991.96	226.00
992.25	226.03
992.54	225.94
992.83	225.90
993.12	225.80
993.41	225.90
993.70	225.96
993.99	226.05
994.28	226.16
994.58	226.22
994.87	226.16
995.16	226.11
995.45	226.01
995.74	225.87
996.03	225.97
996.32	225.98
996.61	226.13
996.90	226.13
997.19	226.13
997.48	226.19
997.77	226.11
998.06	226.11
998.34	226.04
998.63	226.06
998.92	226.03
999.21	226.18
999.50	226.12
999.79	226.01
1000.08	226.00
1000.37	225.97
1000.66	225.93
1000.95	226.01
1001.24	226.10
1001.53	226.16
1001.82	226.13
1002.11	225.96
1002.40	225.97
1002.68	226.00
1002.97	226.25
1003.26	226.15
1003.55	226.10
1003.84	226.08
1004.13	226.29
1004.42	226.29
1004.71	226.25
1004.99	226.25
1005.28	226.28
1005.57	226.20
1005.86	226.16
1006.15	226.01
1006.44	225.94
1006.72	225.98
1007.01	225.90
1007.30	225.91
1007.59	225.90
1007.88	225.86
1008.17	225.86
1008.45	225.78
1008.74	225.55
1009.03	225.31
1009.32	225.30
1009.60	225.23
1009.89	225.25
1010.18	224.96
1010.47	224.95
1010.76	224.97
1011.04	224.92
1011.33	224.91
1011.62	225.00
1011.91	225.05
1012.19	225.05
1012.48	225.04
1012.77	224.96
1013.05	225.25
1013.34	225.28
1013.63	225.24
1013.92	225.27
1014.20	225.26
1014.49	225.27
1014.78	225.37
1015.06	225.18
1015.35	225.21
1015.64	225.29
1015.92	225.28
1016.21	225.34
1016.50	225.41
1016.78	225.42
1017.07	225.55
1017.36	225.43
1017.64	225.38
1017.93	225.39
1018.22	225.43
1018.50	225.38
1018.79	225.38
1019.08	225.09
1019.36	225.08
1019.65	225.00
1019.93	225.17
1020.22	225.16
1020.51	225.40
1020.79	225.34
1021.08	225.60
1021.36	223.40
1021.65	224.60
1021.94	224.60
1022.22	226.55
1022.51	223.20
1022.79	227.70
1023.08	224.25
1023.36	230.90
1023.65	224.30
>>>>>End Processed Spectral Data<<<<<
