SpectraSuite Data File
++++++++++++++++++++++++++++++++++++
Date: Wed Sep 04 17:50:05 EDT 2013
User: lab3
Dark Spectrum Present: Yes
Reference Spectrum Present: No
Number of Sampled Component Spectra: 1
Spectrometers: USB2E7196
Integration Time (usec): 170000 (USB2E7196)
Spectra Averaged: 20 (USB2E7196)
Boxcar Smoothing: 10 (USB2E7196)
Correct for Electrical Dark: No (USB2E7196)
Strobe/Lamp Enabled: No (USB2E7196)
Correct for Detector Non-linearity: No (USB2E7196)
Correct for Stray Light: No (USB2E7196)
Number of Pixels in Processed Spectrum: 2048
>>>>>Begin Processed Spectral Data<<<<<
339.09	0.00
339.48	212.60
339.86	213.90
340.24	215.75
340.63	217.05
341.01	224.90
341.39	218.50
341.78	223.15
342.16	223.80
342.54	223.70
342.93	212.07
343.31	222.71
343.69	223.24
344.07	223.70
344.46	224.18
344.84	224.59
345.22	224.58
345.60	224.90
345.99	225.11
346.37	225.19
346.75	225.25
347.13	225.36
347.52	225.43
347.90	225.61
348.28	225.61
348.66	225.77
349.05	225.71
349.43	225.80
349.81	225.87
350.19	225.86
350.57	225.86
350.96	225.95
351.34	226.12
351.72	226.24
352.10	226.44
352.48	226.34
352.87	226.41
353.25	226.52
353.63	226.53
354.01	226.41
354.39	226.44
354.77	226.53
355.15	226.69
355.54	226.65
355.92	226.58
356.30	226.73
356.68	227.00
357.06	227.05
357.44	227.06
357.82	227.05
358.20	227.60
358.58	227.67
358.97	227.72
359.35	227.84
359.73	228.04
360.11	228.00
360.49	228.17
360.87	228.22
361.25	228.31
361.63	228.62
362.01	228.80
362.39	228.84
362.77	228.90
363.15	228.90
363.53	229.01
363.91	229.13
364.29	229.07
364.67	228.68
365.05	228.70
365.43	228.84
365.81	228.91
366.19	228.67
366.57	228.85
366.95	228.88
367.33	228.79
367.71	228.70
368.09	228.85
368.47	228.98
368.85	228.95
369.23	229.08
369.61	228.87
369.99	229.04
370.37	229.14
370.75	229.41
371.13	229.36
371.51	229.33
371.89	229.31
372.27	229.36
372.65	229.33
373.03	229.34
373.41	229.23
373.78	229.21
374.16	228.98
374.54	228.82
374.92	228.75
375.30	228.69
375.68	228.59
376.06	228.54
376.44	228.35
376.82	228.32
377.19	228.21
377.57	228.12
377.95	227.87
378.33	227.77
378.71	227.40
379.09	227.37
379.47	227.36
379.84	227.23
380.22	227.13
380.60	227.00
380.98	226.94
381.36	226.93
381.73	226.81
382.11	226.80
382.49	226.73
382.87	226.58
383.25	226.50
383.62	227.06
384.00	226.90
384.38	226.85
384.76	226.89
385.13	226.96
385.51	226.93
385.89	226.81
386.27	226.72
386.64	226.68
387.02	226.62
387.40	226.56
387.78	226.56
388.15	226.50
388.53	226.54
388.91	226.48
389.29	226.47
389.66	226.49
390.04	226.42
390.42	226.52
390.79	226.56
391.17	226.59
391.55	225.96
391.92	225.91
392.30	225.96
392.68	225.90
393.05	225.82
393.43	225.86
393.81	225.96
394.18	225.89
394.56	226.00
394.94	226.13
395.31	226.03
395.69	226.18
396.06	226.20
396.44	226.28
396.82	226.29
397.19	226.51
397.57	226.55
397.95	226.72
398.32	226.60
398.70	226.78
399.07	226.96
399.45	227.11
399.82	227.25
400.20	227.30
400.58	227.40
400.95	227.33
401.33	227.49
401.70	227.87
402.08	228.10
402.45	228.24
402.83	228.50
403.20	228.70
403.58	228.77
403.95	229.08
404.33	229.25
404.71	229.48
405.08	229.90
405.46	230.10
405.83	230.33
406.21	230.61
406.58	230.87
406.96	231.16
407.33	231.50
407.70	231.97
408.08	232.72
408.45	233.19
408.83	233.73
409.20	234.16
409.58	234.40
409.95	234.95
410.33	235.41
410.70	235.65
411.08	236.33
411.45	237.02
411.82	237.56
412.20	238.38
412.57	239.31
412.95	239.66
413.32	240.57
413.69	241.37
414.07	242.31
414.44	243.27
414.82	244.26
415.19	245.40
415.56	246.50
415.94	247.44
416.31	248.78
416.68	250.14
417.06	251.69
417.43	253.33
417.81	254.98
418.18	256.83
418.55	258.81
418.93	260.74
419.30	262.83
419.67	265.14
420.04	267.29
420.42	269.56
420.79	272.51
421.16	275.18
421.54	278.23
421.91	281.19
422.28	284.24
422.66	287.43
423.03	290.89
423.40	294.19
423.77	297.78
424.15	301.32
424.52	305.04
424.89	309.22
425.26	313.08
425.64	316.92
426.01	320.97
426.38	325.42
426.75	329.99
427.13	334.48
427.50	339.11
427.87	343.98
428.24	348.90
428.61	353.55
428.99	358.87
429.36	364.38
429.73	369.78
430.10	375.15
430.47	380.93
430.85	386.35
431.22	392.44
431.59	399.06
431.96	405.22
432.33	412.18
432.70	418.77
433.08	426.49
433.45	433.72
433.82	441.12
434.19	449.32
434.56	457.31
434.93	464.82
435.30	472.57
435.68	481.14
436.05	489.55
436.42	497.71
436.79	505.44
437.16	513.60
437.53	522.32
437.90	531.05
438.27	539.33
438.64	548.45
439.01	556.77
439.38	563.81
439.75	571.05
440.13	579.02
440.50	586.39
440.87	592.59
441.24	599.13
441.61	606.07
441.98	610.94
442.35	616.68
442.72	622.79
443.09	628.57
443.46	631.94
443.83	634.22
444.20	636.17
444.57	638.83
444.94	640.05
445.31	641.23
445.68	642.51
446.05	642.86
446.42	641.37
446.79	639.98
447.16	638.42
447.53	637.20
447.90	633.46
448.27	630.01
448.64	625.05
449.01	621.30
449.37	615.24
449.74	609.33
450.11	602.52
450.48	594.81
450.85	586.82
451.22	580.08
451.59	573.43
451.96	567.28
452.33	559.14
452.70	551.64
453.07	543.07
453.43	534.05
453.80	525.73
454.17	517.82
454.54	510.16
454.91	502.11
455.28	494.13
455.65	486.76
456.02	479.90
456.38	473.64
456.75	465.98
457.12	459.42
457.49	453.11
457.86	446.75
458.23	441.63
458.59	435.98
458.96	430.20
459.33	425.12
459.70	419.98
460.07	416.06
460.43	411.49
460.80	407.17
461.17	403.56
461.54	399.45
461.91	395.63
462.27	391.76
462.64	388.56
463.01	384.90
463.38	381.57
463.74	377.50
464.11	374.58
464.48	371.92
464.85	369.05
465.21	366.93
465.58	364.68
465.95	361.90
466.32	359.74
466.68	357.46
467.05	355.43
467.42	353.27
467.78	350.76
468.15	348.60
468.52	347.00
468.88	344.67
469.25	342.84
469.62	341.32
469.98	339.67
470.35	338.08
470.72	336.70
471.08	335.12
471.45	333.89
471.82	332.60
472.18	331.16
472.55	330.18
472.92	328.84
473.28	327.72
473.65	326.63
474.02	325.43
474.38	324.67
474.75	323.78
475.11	322.93
475.48	322.33
475.85	321.77
476.21	321.09
476.58	320.62
476.94	320.25
477.31	319.86
477.67	319.51
478.04	319.21
478.41	319.01
478.77	319.25
479.14	318.92
479.50	318.73
479.87	318.76
480.23	318.86
480.60	318.85
480.96	318.83
481.33	319.16
481.69	319.43
482.06	319.55
482.42	319.81
482.79	320.15
483.15	320.62
483.52	321.25
483.88	321.73
484.25	322.36
484.61	323.02
484.98	323.63
485.34	324.57
485.71	325.52
486.07	326.50
486.44	327.11
486.80	328.25
487.17	329.42
487.53	330.85
487.90	332.21
488.26	333.93
488.62	335.70
488.99	337.19
489.35	338.92
489.72	340.87
490.08	342.88
490.44	344.86
490.81	347.19
491.17	349.43
491.54	352.09
491.90	354.65
492.26	357.35
492.63	360.08
492.99	362.89
493.36	366.03
493.72	369.33
494.08	372.82
494.45	376.61
494.81	380.53
495.17	384.30
495.54	388.50
495.90	392.74
496.26	397.18
496.63	401.87
496.99	406.66
497.35	411.74
497.72	417.03
498.08	422.48
498.44	428.05
498.80	434.11
499.17	440.00
499.53	446.30
499.89	453.03
500.26	460.03
500.62	467.07
500.98	474.50
501.34	481.89
501.71	489.54
502.07	497.35
502.43	505.44
502.79	513.80
503.16	522.33
503.52	531.29
503.88	540.45
504.24	549.99
504.60	559.96
504.97	570.29
505.33	580.60
505.69	591.67
506.05	602.67
506.41	613.70
506.78	625.34
507.14	637.38
507.50	649.43
507.86	661.85
508.22	674.66
508.59	687.43
508.95	701.05
509.31	714.96
509.67	729.10
510.03	743.30
510.39	758.17
510.75	773.12
511.12	788.18
511.48	803.71
511.84	819.50
512.20	835.35
512.56	851.32
512.92	868.05
513.28	884.84
513.64	902.08
514.00	919.60
514.37	937.21
514.73	955.09
515.09	973.40
515.45	991.88
515.81	1010.10
516.17	1028.76
516.53	1047.24
516.89	1065.91
517.25	1085.23
517.61	1105.41
517.97	1125.09
518.33	1145.05
518.69	1165.26
519.05	1185.86
519.41	1206.28
519.77	1227.26
520.13	1248.10
520.49	1268.53
520.85	1290.57
521.21	1311.48
521.57	1332.75
521.93	1353.42
522.29	1374.39
522.65	1394.80
523.01	1415.36
523.37	1435.93
523.73	1456.79
524.09	1477.29
524.45	1497.83
524.81	1518.27
525.17	1538.72
525.53	1559.23
525.89	1579.72
526.25	1600.34
526.61	1620.28
526.97	1641.32
527.33	1662.55
527.68	1684.00
528.04	1705.36
528.40	1724.74
528.76	1745.50
529.12	1765.63
529.48	1786.23
529.84	1806.26
530.20	1827.29
530.56	1847.87
530.91	1868.75
531.27	1889.13
531.63	1909.75
531.99	1930.15
532.35	1950.29
532.71	1969.89
533.07	1990.51
533.42	2010.73
533.78	2030.26
534.14	2050.03
534.50	2068.80
534.86	2087.40
535.21	2104.61
535.57	2122.96
535.93	2140.42
536.29	2157.99
536.65	2176.04
537.00	2193.65
537.36	2210.88
537.72	2227.18
538.08	2244.16
538.44	2260.79
538.79	2276.91
539.15	2293.00
539.51	2309.05
539.87	2323.77
540.22	2337.98
540.58	2352.31
540.94	2365.20
541.29	2377.99
541.65	2390.35
542.01	2402.50
542.37	2412.96
542.72	2423.81
543.08	2433.76
543.44	2445.37
543.79	2455.08
544.15	2464.60
544.51	2474.22
544.87	2483.75
545.22	2492.34
545.58	2499.95
545.94	2506.60
546.29	2512.99
546.65	2519.01
547.01	2524.48
547.36	2529.90
547.72	2534.93
548.07	2538.24
548.43	2543.21
548.79	2547.59
549.14	2551.35
549.50	2555.37
549.86	2559.06
550.21	2562.73
550.57	2565.99
550.92	2567.27
551.28	2568.38
551.64	2570.52
551.99	2572.31
552.35	2573.79
552.70	2575.47
553.06	2577.00
553.41	2578.31
553.77	2579.67
554.13	2581.08
554.48	2582.36
554.84	2583.64
555.19	2584.80
555.55	2586.63
555.90	2585.84
556.26	2584.68
556.61	2583.40
556.97	2580.84
557.32	2580.19
557.68	2579.12
558.03	2577.56
558.39	2576.03
558.74	2575.60
559.10	2572.30
559.45	2568.44
559.81	2564.05
560.16	2558.83
560.52	2553.48
560.87	2548.96
561.23	2543.63
561.58	2537.86
561.94	2530.52
562.29	2523.39
562.64	2516.07
563.00	2507.56
563.35	2500.78
563.71	2494.21
564.06	2487.65
564.42	2481.22
564.77	2474.00
565.12	2466.48
565.48	2459.03
565.83	2450.88
566.19	2442.32
566.54	2434.48
566.89	2426.52
567.25	2418.60
567.60	2411.74
567.96	2404.59
568.31	2396.54
568.66	2387.74
569.02	2378.49
569.37	2370.75
569.72	2362.99
570.08	2354.05
570.43	2344.56
570.78	2335.60
571.14	2326.30
571.49	2316.11
571.84	2306.55
572.20	2296.21
572.55	2285.85
572.90	2274.66
573.26	2264.57
573.61	2253.86
573.96	2242.60
574.31	2230.61
574.67	2218.68
575.02	2205.96
575.37	2193.31
575.72	2180.19
576.08	2168.27
576.43	2156.04
576.78	2142.66
577.13	2129.07
577.49	2116.65
577.84	2105.05
578.19	2093.09
578.54	2080.42
578.90	2068.70
579.25	2056.39
579.60	2043.87
579.95	2030.96
580.30	2018.15
580.66	2004.75
581.01	1991.02
581.36	1977.36
581.71	1964.84
582.06	1952.15
582.42	1939.61
582.77	1926.92
583.12	1915.12
583.47	1903.20
583.82	1891.31
584.17	1879.56
584.53	1867.67
584.88	1854.81
585.23	1841.68
585.58	1827.63
585.93	1814.38
586.28	1801.19
586.63	1787.30
586.98	1773.11
587.34	1760.02
587.69	1747.08
588.04	1734.67
588.39	1722.94
588.74	1710.87
589.09	1699.08
589.44	1686.62
589.79	1674.69
590.14	1662.99
590.49	1650.85
590.84	1638.68
591.19	1626.85
591.54	1614.74
591.89	1602.79
592.25	1592.46
592.60	1581.00
592.95	1569.49
593.30	1557.75
593.65	1545.77
594.00	1533.97
594.35	1524.42
594.70	1512.93
595.05	1501.66
595.40	1489.83
595.75	1478.07
596.10	1467.09
596.45	1455.48
596.80	1444.59
597.15	1433.25
597.50	1421.40
597.85	1410.25
598.19	1399.11
598.54	1387.32
598.89	1376.27
599.24	1365.76
599.59	1354.35
599.94	1343.85
600.29	1333.76
600.64	1324.09
600.99	1313.79
601.34	1304.33
601.69	1293.31
602.04	1283.59
602.39	1273.95
602.74	1264.89
603.08	1255.60
603.43	1246.14
603.78	1236.84
604.13	1227.25
604.48	1217.66
604.83	1208.37
605.18	1198.85
605.53	1189.25
605.87	1180.51
606.22	1172.03
606.57	1163.07
606.92	1153.90
607.27	1145.20
607.62	1136.73
607.96	1128.04
608.31	1120.10
608.66	1111.95
609.01	1103.51
609.36	1095.16
609.70	1086.79
610.05	1078.36
610.40	1070.15
610.75	1061.73
611.10	1053.58
611.44	1045.23
611.79	1037.08
612.14	1029.17
612.49	1021.32
612.83	1014.14
613.18	1006.21
613.53	998.63
613.88	990.70
614.22	983.27
614.57	975.41
614.92	967.66
615.27	960.13
615.61	952.25
615.96	944.63
616.31	937.07
616.65	930.06
617.00	922.87
617.35	915.67
617.70	908.44
618.04	901.31
618.39	894.18
618.74	888.07
619.08	881.34
619.43	874.52
619.78	867.60
620.12	860.19
620.47	853.43
620.82	846.28
621.16	839.65
621.51	833.20
621.85	827.03
622.20	820.47
622.55	814.22
622.89	808.12
623.24	801.99
623.59	795.78
623.93	789.32
624.28	783.13
624.62	777.55
624.97	771.82
625.32	766.11
625.66	760.18
626.01	754.06
626.35	748.62
626.70	743.09
627.04	737.83
627.39	732.51
627.73	727.53
628.08	722.32
628.43	716.93
628.77	711.50
629.12	706.30
629.46	701.62
629.81	696.73
630.15	692.00
630.50	687.00
630.84	682.21
631.19	677.67
631.53	673.15
631.88	667.86
632.22	662.98
632.57	658.55
632.91	654.10
633.26	649.73
633.60	645.09
633.95	640.49
634.29	635.77
634.64	631.42
634.98	626.42
635.32	622.26
635.67	618.29
636.01	614.17
636.36	609.77
636.70	605.60
637.05	601.46
637.39	597.40
637.73	593.50
638.08	589.61
638.42	585.40
638.77	581.25
639.11	577.21
639.45	573.02
639.80	568.70
640.14	564.68
640.49	560.75
640.83	557.13
641.17	553.62
641.52	550.04
641.86	546.53
642.20	543.47
642.55	539.86
642.89	536.33
643.23	532.98
643.58	529.89
643.92	526.31
644.26	522.92
644.61	519.67
644.95	516.37
645.29	513.06
645.64	510.13
645.98	507.11
646.32	504.25
646.66	501.14
647.01	498.30
647.35	495.57
647.69	492.69
648.04	489.84
648.38	487.08
648.72	484.38
649.06	481.42
649.41	478.45
649.75	475.54
650.09	472.63
650.43	469.74
650.78	466.89
651.12	464.15
651.46	461.43
651.80	458.66
652.14	456.12
652.49	453.72
652.83	451.00
653.17	448.47
653.51	445.60
653.85	443.39
654.20	440.98
654.54	438.50
654.88	436.00
655.22	433.71
655.56	431.32
655.90	428.95
656.25	426.64
656.59	424.44
656.93	422.27
657.27	420.33
657.61	417.97
657.95	415.76
658.29	413.68
658.64	411.62
658.98	409.54
659.32	407.12
659.66	404.91
660.00	402.95
660.34	400.81
660.68	398.95
661.02	396.71
661.36	394.80
661.70	392.79
662.05	390.87
662.39	388.97
662.73	387.27
663.07	385.67
663.41	383.92
663.75	381.97
664.09	380.20
664.43	378.21
664.77	376.61
665.11	374.80
665.45	373.07
665.79	371.42
666.13	369.59
666.47	368.08
666.81	366.47
667.15	364.67
667.49	363.27
667.83	362.02
668.17	360.74
668.51	359.23
668.85	357.96
669.19	356.80
669.53	355.20
669.87	353.60
670.21	352.06
670.55	350.68
670.89	349.67
671.23	348.20
671.57	346.74
671.91	345.38
672.25	344.09
672.58	342.96
672.92	341.52
673.26	340.27
673.60	339.10
673.94	337.95
674.28	336.84
674.62	335.52
674.96	334.11
675.30	332.84
675.64	331.67
675.97	330.46
676.31	329.18
676.65	328.03
676.99	327.12
677.33	325.97
677.67	324.90
678.01	323.53
678.34	322.69
678.68	321.97
679.02	320.91
679.36	319.91
679.70	318.85
680.04	317.98
680.37	317.08
680.71	316.04
681.05	315.06
681.39	314.29
681.73	313.43
682.06	312.60
682.40	311.78
682.74	310.90
683.08	310.14
683.42	309.24
683.75	308.56
684.09	307.50
684.43	306.70
684.77	305.86
685.10	305.09
685.44	304.21
685.78	303.31
686.12	302.56
686.45	301.72
686.79	300.85
687.13	300.19
687.46	299.45
687.80	298.78
688.14	297.96
688.48	297.11
688.81	296.34
689.15	295.61
689.49	294.84
689.82	294.19
690.16	293.29
690.50	292.54
690.83	291.78
691.17	291.01
691.51	290.30
691.84	289.67
692.18	289.03
692.52	288.33
692.85	287.70
693.19	287.31
693.52	286.73
693.86	286.08
694.20	285.37
694.53	284.76
694.87	284.16
695.21	283.57
695.54	283.07
695.88	282.43
696.21	281.73
696.55	281.29
696.88	280.69
697.22	280.00
697.56	279.53
697.89	278.88
698.23	278.47
698.56	277.89
698.90	277.38
699.23	276.84
699.57	276.37
699.90	275.83
700.24	275.10
700.58	274.65
700.91	274.29
701.25	274.15
701.58	274.02
701.92	273.62
702.25	273.22
702.59	272.66
702.92	272.23
703.26	271.85
703.59	271.35
703.93	271.32
704.26	271.08
704.60	270.61
704.93	270.19
705.26	269.68
705.60	269.29
705.93	268.81
706.27	268.59
706.60	268.28
706.94	268.10
707.27	267.74
707.61	267.45
707.94	267.03
708.27	266.32
708.61	265.59
708.94	265.11
709.28	264.70
709.61	264.35
709.94	264.01
710.28	263.68
710.61	263.34
710.95	262.61
711.28	262.51
711.61	262.14
711.95	262.02
712.28	261.66
712.61	261.35
712.95	261.27
713.28	261.08
713.61	260.68
713.95	260.24
714.28	259.96
714.61	259.57
714.95	259.25
715.28	258.88
715.61	258.54
715.95	258.29
716.28	257.96
716.61	257.75
716.95	257.39
717.28	257.07
717.61	256.71
717.94	256.40
718.28	255.83
718.61	255.51
718.94	255.10
719.27	254.83
719.61	254.55
719.94	254.14
720.27	253.61
720.60	253.33
720.94	253.05
721.27	252.85
721.60	252.75
721.93	252.42
722.27	252.38
722.60	252.24
722.93	251.96
723.26	251.79
723.59	251.47
723.93	251.37
724.26	251.16
724.59	251.01
724.92	250.88
725.25	250.78
725.59	250.54
725.92	250.34
726.25	250.17
726.58	250.01
726.91	249.79
727.24	249.63
727.57	249.41
727.91	249.07
728.24	248.89
728.57	248.54
728.90	248.47
729.23	248.07
729.56	248.04
729.89	247.81
730.22	247.63
730.55	247.34
730.89	247.16
731.22	246.98
731.55	246.70
731.88	246.35
732.21	246.06
732.54	245.97
732.87	245.82
733.20	245.68
733.53	245.48
733.86	245.37
734.19	245.20
734.52	245.09
734.85	245.25
735.18	244.94
735.51	244.95
735.84	244.79
736.17	244.85
736.50	244.48
736.83	244.93
737.16	244.74
737.49	244.65
737.82	244.47
738.15	244.36
738.48	244.26
738.81	244.24
739.14	244.07
739.47	243.86
739.80	243.63
740.13	243.52
740.46	243.37
740.79	243.10
741.12	242.90
741.45	242.64
741.78	242.31
742.11	242.33
742.44	242.03
742.77	241.92
743.10	241.72
743.43	241.56
743.75	240.87
744.08	241.34
744.41	241.24
744.74	240.99
745.07	240.76
745.40	240.73
745.73	240.81
746.06	240.73
746.39	240.71
746.71	240.59
747.04	240.38
747.37	240.16
747.70	240.18
748.03	240.07
748.36	240.05
748.68	239.91
749.01	239.70
749.34	239.55
749.67	239.45
750.00	239.34
750.33	239.58
750.65	239.55
750.98	238.87
751.31	238.76
751.64	238.72
751.97	238.94
752.29	238.83
752.62	238.50
752.95	238.32
753.28	238.17
753.60	238.10
753.93	238.13
754.26	238.16
754.59	237.88
754.91	237.72
755.24	237.63
755.57	237.57
755.90	237.43
756.22	237.36
756.55	237.22
756.88	237.00
757.20	236.64
757.53	236.50
757.86	236.36
758.19	236.36
758.51	236.24
758.84	235.84
759.17	235.59
759.49	235.51
759.82	235.64
760.15	235.57
760.47	235.44
760.80	235.18
761.13	235.11
761.45	235.06
761.78	235.06
762.11	234.95
762.43	234.69
762.76	234.58
763.08	234.58
763.41	234.54
763.74	234.50
764.06	234.38
764.39	234.26
764.71	234.14
765.04	233.99
765.37	233.90
765.69	233.85
766.02	233.84
766.34	233.71
766.67	233.43
767.00	233.46
767.32	233.67
767.65	233.90
767.97	233.80
768.30	233.69
768.62	233.50
768.95	233.43
769.27	233.49
769.60	233.56
769.92	233.39
770.25	233.25
770.57	233.13
770.90	233.10
771.22	233.02
771.55	233.01
771.87	232.92
772.20	232.91
772.52	233.25
772.85	233.75
773.17	233.64
773.50	233.61
773.82	233.44
774.15	233.06
774.47	232.75
774.80	232.68
775.12	232.65
775.45	232.60
775.77	232.57
776.09	232.48
776.42	232.32
776.74	232.41
777.07	232.32
777.39	232.26
777.72	232.10
778.04	232.13
778.36	232.10
778.69	232.06
779.01	232.04
779.33	231.63
779.66	231.11
779.98	231.13
780.31	231.01
780.63	231.13
780.95	231.20
781.28	231.15
781.60	231.06
781.92	231.07
782.25	231.11
782.57	230.99
782.89	230.97
783.22	230.98
783.54	230.85
783.86	230.87
784.19	230.88
784.51	231.00
784.83	230.91
785.16	230.85
785.48	230.77
785.80	230.77
786.12	230.73
786.45	230.72
786.77	230.69
787.09	230.78
787.42	230.60
787.74	230.59
788.06	230.60
788.38	230.62
788.71	230.55
789.03	230.55
789.35	230.55
789.67	230.44
789.99	230.48
790.32	230.39
790.64	230.46
790.96	230.83
791.28	230.62
791.61	230.54
791.93	230.55
792.25	230.58
792.57	230.88
792.89	230.80
793.21	230.75
793.54	230.68
793.86	230.57
794.18	230.54
794.50	230.50
794.82	230.41
795.14	230.34
795.47	230.37
795.79	230.33
796.11	230.26
796.43	230.24
796.75	230.18
797.07	230.19
797.39	230.08
797.71	229.74
798.04	229.75
798.36	229.73
798.68	229.73
799.00	229.73
799.32	229.40
799.64	229.50
799.96	229.46
800.28	229.55
800.60	229.48
800.92	229.56
801.24	229.53
801.56	229.67
801.89	229.62
802.21	229.65
802.53	229.50
802.85	229.63
803.17	229.88
803.49	229.79
803.81	229.78
804.13	229.75
804.45	229.62
804.77	229.74
805.09	229.77
805.41	229.65
805.73	229.56
806.05	229.44
806.37	229.36
806.69	229.28
807.01	229.20
807.33	229.25
807.65	229.04
807.97	229.22
808.28	229.15
808.60	229.13
808.92	229.01
809.24	229.37
809.56	229.23
809.88	229.01
810.20	228.98
810.52	229.00
810.84	228.89
811.16	228.78
811.48	228.68
811.80	228.79
812.12	228.78
812.43	228.83
812.75	228.85
813.07	228.86
813.39	228.88
813.71	228.81
814.03	228.76
814.35	228.81
814.67	228.51
814.98	228.38
815.30	228.33
815.62	228.25
815.94	227.84
816.26	228.04
816.58	227.94
816.89	228.00
817.21	227.89
817.53	227.95
817.85	228.00
818.17	227.92
818.48	227.74
818.80	227.77
819.12	227.68
819.44	227.63
819.76	227.42
820.07	227.39
820.39	227.41
820.71	227.41
821.03	227.43
821.34	227.47
821.66	227.52
821.98	227.58
822.30	227.52
822.61	227.91
822.93	227.65
823.25	227.64
823.57	227.51
823.88	227.58
824.20	227.58
824.52	227.67
824.83	227.66
825.15	227.62
825.47	227.61
825.79	227.65
826.10	227.65
826.42	227.74
826.74	227.73
827.05	227.67
827.37	227.69
827.69	227.60
828.00	227.67
828.32	227.68
828.64	227.64
828.95	227.99
829.27	227.78
829.58	227.75
829.90	227.81
830.22	227.93
830.53	227.80
830.85	227.64
831.17	227.58
831.48	227.54
831.80	227.52
832.11	227.54
832.43	227.50
832.75	227.41
833.06	227.71
833.38	227.62
833.69	227.58
834.01	227.64
834.32	227.68
834.64	227.62
834.96	227.58
835.27	227.63
835.59	227.43
835.90	227.36
836.22	227.43
836.53	227.38
836.85	227.28
837.16	227.84
837.48	227.95
837.79	227.98
838.11	228.00
838.42	228.03
838.74	228.10
839.05	228.05
839.37	228.07
839.68	227.73
840.00	227.78
840.31	227.94
840.63	227.85
840.94	227.73
841.26	227.67
841.57	227.71
841.88	227.68
842.20	227.59
842.51	227.53
842.83	227.48
843.14	227.85
843.46	227.89
843.77	227.56
844.08	227.53
844.40	227.46
844.71	227.44
845.03	227.48
845.34	227.41
845.65	227.44
845.97	227.42
846.28	227.44
846.60	227.44
846.91	227.37
847.22	227.37
847.54	227.51
847.85	227.51
848.16	227.41
848.48	227.35
848.79	227.60
849.10	227.69
849.42	227.71
849.73	227.32
850.04	227.25
850.36	227.06
850.67	227.15
850.98	227.15
851.30	227.18
851.61	227.10
851.92	227.06
852.23	227.19
852.55	227.22
852.86	227.20
853.17	227.25
853.49	227.30
853.80	227.32
854.11	227.32
854.42	227.35
854.74	227.38
855.05	227.40
855.36	227.12
855.67	227.08
855.99	227.09
856.30	227.65
856.61	227.64
856.92	227.65
857.23	227.49
857.55	227.34
857.86	227.30
858.17	227.32
858.48	227.25
858.79	227.19
859.11	227.25
859.42	227.26
859.73	227.21
860.04	227.12
860.35	226.99
860.66	226.81
860.98	226.74
861.29	226.69
861.60	226.69
861.91	226.83
862.22	226.79
862.53	226.72
862.84	226.17
863.16	226.36
863.47	226.30
863.78	226.37
864.09	226.45
864.40	226.56
864.71	226.61
865.02	226.65
865.33	226.56
865.64	226.49
865.95	226.49
866.27	226.69
866.58	226.65
866.89	226.76
867.20	226.83
867.51	226.78
867.82	226.82
868.13	226.92
868.44	226.74
868.75	226.75
869.06	226.81
869.37	226.85
869.68	226.66
869.99	226.75
870.30	226.80
870.61	226.85
870.92	226.69
871.23	226.61
871.54	226.65
871.85	226.71
872.16	226.71
872.47	226.70
872.78	226.48
873.09	226.52
873.40	226.46
873.71	226.51
874.02	226.55
874.33	226.50
874.64	226.42
874.95	226.51
875.26	226.49
875.56	226.43
875.87	226.40
876.18	226.38
876.49	226.84
876.80	226.80
877.11	226.70
877.42	226.72
877.73	226.79
878.04	226.82
878.35	226.82
878.66	226.88
878.96	226.83
879.27	226.80
879.58	226.89
879.89	226.79
880.20	226.87
880.51	226.86
880.82	226.83
881.12	226.84
881.43	226.74
881.74	226.63
882.05	226.59
882.36	226.65
882.67	226.63
882.97	226.11
883.28	226.00
883.59	226.03
883.90	226.08
884.21	226.09
884.51	225.96
884.82	225.87
885.13	225.83
885.44	225.84
885.74	225.91
886.05	225.80
886.36	225.84
886.67	225.70
886.98	225.95
887.28	226.04
887.59	225.98
887.90	226.03
888.20	226.06
888.51	226.19
888.82	226.08
889.13	226.19
889.43	226.55
889.74	226.59
890.05	226.62
890.35	226.55
890.66	226.49
890.97	226.54
891.28	226.55
891.58	226.63
891.89	226.56
892.20	226.43
892.50	226.35
892.81	226.36
893.12	226.34
893.42	226.07
893.73	226.09
894.04	226.11
894.34	226.17
894.65	226.14
894.95	226.01
895.26	226.04
895.57	226.24
895.87	225.83
896.18	225.89
896.48	225.88
896.79	225.90
897.10	225.95
897.40	225.91
897.71	225.96
898.01	225.86
898.32	226.03
898.63	226.02
898.93	226.04
899.24	226.04
899.54	226.08
899.85	226.10
900.15	226.02
900.46	226.06
900.76	226.08
901.07	226.14
901.38	226.21
901.68	226.25
901.99	225.95
902.29	225.98
902.60	225.93
902.90	225.97
903.21	226.04
903.51	226.03
903.82	226.18
904.12	226.16
904.43	226.20
904.73	226.12
905.03	226.16
905.34	226.69
905.64	226.69
905.95	226.67
906.25	226.66
906.56	226.70
906.86	226.68
907.17	226.66
907.47	226.64
907.77	226.53
908.08	226.49
908.38	226.58
908.69	226.59
908.99	226.69
909.30	226.72
909.60	226.73
909.90	226.81
910.21	226.63
910.51	226.58
910.81	226.62
911.12	226.67
911.42	226.74
911.73	226.25
912.03	226.33
912.33	226.48
912.64	226.46
912.94	226.41
913.24	226.37
913.55	226.31
913.85	226.30
914.15	226.49
914.46	226.52
914.76	226.52
915.06	226.53
915.37	226.47
915.67	226.43
915.97	226.37
916.27	226.24
916.58	226.29
916.88	226.25
917.18	226.22
917.49	226.51
917.79	226.48
918.09	226.53
918.39	226.58
918.70	226.50
919.00	226.53
919.30	226.78
919.60	226.75
919.91	226.70
920.21	226.72
920.51	226.65
920.81	226.58
921.12	226.58
921.42	226.59
921.72	226.64
922.02	226.64
922.32	226.70
922.63	226.69
922.93	226.96
923.23	226.96
923.53	226.75
923.83	226.44
924.13	226.47
924.44	226.44
924.74	226.51
925.04	226.64
925.34	226.63
925.64	226.38
925.94	226.40
926.24	226.65
926.55	226.58
926.85	226.50
927.15	226.52
927.45	226.49
927.75	226.44
928.05	226.41
928.35	226.34
928.65	226.33
928.95	226.40
929.26	226.15
929.56	226.21
929.86	226.40
930.16	226.38
930.46	226.29
930.76	226.22
931.06	225.93
931.36	225.73
931.66	225.81
931.96	225.87
932.26	225.86
932.56	225.61
932.86	225.63
933.16	225.63
933.46	225.54
933.76	225.48
934.06	225.58
934.36	225.74
934.66	225.77
934.96	225.71
935.26	225.66
935.56	225.81
935.86	225.73
936.16	225.64
936.46	225.57
936.76	225.59
937.06	225.59
937.36	225.70
937.66	225.78
937.96	225.78
938.26	225.67
938.56	225.66
938.86	225.76
939.16	225.87
939.46	225.98
939.76	226.11
940.06	226.17
940.35	226.06
940.65	225.80
940.95	225.85
941.25	225.80
941.55	225.74
941.85	225.64
942.15	225.77
942.45	225.99
942.75	225.93
943.04	226.00
943.34	226.13
943.64	226.11
943.94	225.98
944.24	225.97
944.54	226.04
944.84	226.06
945.13	225.98
945.43	225.95
945.73	225.93
946.03	225.92
946.33	225.80
946.62	225.76
946.92	225.79
947.22	225.79
947.52	225.89
947.82	226.01
948.11	225.99
948.41	225.89
948.71	225.68
949.01	225.74
949.31	225.70
949.60	225.64
949.90	225.73
950.20	225.74
950.50	225.72
950.79	225.67
951.09	225.72
951.39	225.70
951.69	225.62
951.98	225.76
952.28	225.79
952.58	225.85
952.87	225.96
953.17	226.01
953.47	226.03
953.76	225.94
954.06	225.84
954.36	225.78
954.66	225.77
954.95	225.95
955.25	226.01
955.55	226.05
955.84	226.03
956.14	225.99
956.44	226.00
956.73	225.96
957.03	225.98
957.32	225.90
957.62	225.91
957.92	226.02
958.21	225.98
958.51	226.42
958.81	226.45
959.10	226.44
959.40	226.51
959.69	226.47
959.99	226.58
960.29	226.64
960.58	226.66
960.88	226.85
961.17	226.77
961.47	226.81
961.76	226.70
962.06	226.76
962.36	226.70
962.65	226.74
962.95	226.75
963.24	226.69
963.54	226.84
963.83	226.86
964.13	226.81
964.42	226.65
964.72	226.25
965.01	226.26
965.31	226.19
965.60	226.09
965.90	226.34
966.19	226.27
966.49	226.22
966.78	226.20
967.08	226.15
967.37	226.13
967.67	226.03
967.96	226.11
968.26	226.10
968.55	226.20
968.85	226.18
969.14	226.18
969.43	226.17
969.73	226.01
970.02	226.04
970.32	225.99
970.61	225.93
970.91	225.90
971.20	225.84
971.49	225.89
971.79	225.95
972.08	225.68
972.38	225.67
972.67	225.59
972.96	225.67
973.26	225.54
973.55	225.73
973.85	225.75
974.14	225.73
974.43	225.75
974.73	225.63
975.02	225.55
975.31	225.55
975.61	225.56
975.90	225.53
976.19	225.39
976.49	225.46
976.78	225.53
977.07	225.45
977.37	225.48
977.66	225.47
977.95	225.42
978.24	225.39
978.54	225.54
978.83	225.58
979.12	225.57
979.42	225.57
979.71	225.47
980.00	225.43
980.29	225.47
980.59	225.36
980.88	225.46
981.17	225.50
981.46	225.47
981.76	225.52
982.05	225.72
982.34	225.82
982.63	225.88
982.93	225.89
983.22	226.03
983.51	226.06
983.80	226.11
984.09	226.19
984.39	226.24
984.68	226.11
984.97	226.11
985.26	226.02
985.55	226.06
985.85	226.00
986.14	226.10
986.43	226.18
986.72	226.20
987.01	226.04
987.30	226.04
987.59	226.00
987.89	225.98
988.18	225.87
988.47	225.80
988.76	225.72
989.05	225.70
989.34	225.70
989.63	225.80
989.92	225.73
990.22	225.66
990.51	225.60
990.80	225.56
991.09	225.64
991.38	225.75
991.67	225.75
991.96	225.65
992.25	225.64
992.54	225.55
992.83	225.57
993.12	225.57
993.41	225.74
993.70	225.91
993.99	226.00
994.28	226.03
994.58	226.19
994.87	226.10
995.16	226.05
995.45	225.97
995.74	225.77
996.03	225.86
996.32	225.94
996.61	226.06
996.90	226.11
997.19	226.13
997.48	226.13
997.77	226.02
998.06	226.06
998.34	226.00
998.63	226.00
998.92	226.03
999.21	226.15
999.50	226.06
999.79	225.96
1000.08	225.96
1000.37	225.94
1000.66	225.85
1000.95	226.01
1001.24	226.13
1001.53	226.09
1001.82	226.15
1002.11	226.01
1002.40	226.06
1002.68	226.20
1002.97	226.51
1003.26	226.38
1003.55	226.29
1003.84	226.38
1004.13	226.55
1004.42	226.53
1004.71	226.53
1004.99	226.49
1005.28	226.56
1005.57	226.52
1005.86	226.49
1006.15	226.47
1006.44	226.41
1006.72	226.46
1007.01	226.39
1007.30	226.31
1007.59	226.36
1007.88	226.28
1008.17	226.29
1008.45	226.18
1008.74	225.94
1009.03	225.70
1009.32	225.72
1009.60	225.74
1009.89	225.67
1010.18	225.50
1010.47	225.49
1010.76	225.47
1011.04	225.48
1011.33	225.51
1011.62	225.54
1011.91	225.59
1012.19	225.62
1012.48	225.59
1012.77	225.63
1013.05	225.88
1013.34	225.90
1013.63	225.82
1013.92	225.87
1014.20	225.89
1014.49	225.90
1014.78	225.93
1015.06	225.81
1015.35	225.79
1015.64	225.85
1015.92	225.89
1016.21	225.91
1016.50	225.94
1016.78	225.96
1017.07	225.98
1017.36	225.85
1017.64	225.82
1017.93	225.80
1018.22	225.72
1018.50	225.75
1018.79	225.68
1019.08	225.40
1019.36	225.35
1019.65	225.36
1019.93	225.46
1020.22	225.52
1020.51	225.73
1020.79	225.69
1021.08	224.95
1021.36	225.00
1021.65	225.55
1021.94	225.20
1022.22	224.85
1022.51	224.75
1022.79	227.50
1023.08	225.95
1023.36	230.60
1023.65	224.80
>>>>>End Processed Spectral Data<<<<<
