SpectraSuite Data File
++++++++++++++++++++++++++++++++++++
Date: Wed Sep 04 17:47:18 EDT 2013
User: lab3
Dark Spectrum Present: Yes
Reference Spectrum Present: No
Number of Sampled Component Spectra: 1
Spectrometers: USB2E7196
Integration Time (usec): 170000 (USB2E7196)
Spectra Averaged: 20 (USB2E7196)
Boxcar Smoothing: 10 (USB2E7196)
Correct for Electrical Dark: No (USB2E7196)
Strobe/Lamp Enabled: No (USB2E7196)
Correct for Detector Non-linearity: No (USB2E7196)
Correct for Stray Light: No (USB2E7196)
Number of Pixels in Processed Spectrum: 2048
>>>>>Begin Processed Spectral Data<<<<<
339.09	0.00
339.48	213.55
339.86	214.55
340.24	215.70
340.63	215.40
341.01	226.15
341.39	220.35
341.78	222.35
342.16	222.75
342.54	222.80
342.93	212.02
343.31	222.70
343.69	223.20
344.07	223.64
344.46	224.10
344.84	224.60
345.22	224.59
345.60	224.87
345.99	225.10
346.37	225.20
346.75	225.33
347.13	225.41
347.52	225.53
347.90	225.78
348.28	225.78
348.66	225.92
349.05	225.74
349.43	225.82
349.81	225.89
350.19	225.98
350.57	226.06
350.96	226.15
351.34	226.21
351.72	226.32
352.10	226.42
352.48	226.41
352.87	226.45
353.25	226.50
353.63	226.47
354.01	226.41
354.39	226.52
354.77	226.61
355.15	226.78
355.54	226.66
355.92	226.54
356.30	226.61
356.68	226.96
357.06	227.14
357.44	227.14
357.82	227.21
358.20	227.66
358.58	227.66
358.97	227.71
359.35	227.92
359.73	228.06
360.11	228.14
360.49	228.22
360.87	228.23
361.25	228.25
361.63	228.47
362.01	228.61
362.39	228.61
362.77	228.64
363.15	228.66
363.53	228.80
363.91	228.90
364.29	228.96
364.67	228.55
365.05	228.63
365.43	228.73
365.81	228.82
366.19	228.71
366.57	228.90
366.95	228.97
367.33	228.85
367.71	228.89
368.09	228.92
368.47	228.99
368.85	228.99
369.23	229.20
369.61	229.05
369.99	229.17
370.37	229.26
370.75	229.52
371.13	229.42
371.51	229.31
371.89	229.29
372.27	229.33
372.65	229.35
373.03	229.31
373.41	229.32
373.78	229.22
374.16	228.92
374.54	228.73
374.92	228.66
375.30	228.65
375.68	228.46
376.06	228.46
376.44	228.40
376.82	228.38
377.19	228.16
377.57	228.11
377.95	227.90
378.33	227.77
378.71	227.43
379.09	227.40
379.47	227.38
379.84	227.27
380.22	227.11
380.60	226.93
380.98	226.74
381.36	226.62
381.73	226.45
382.11	226.51
382.49	226.49
382.87	226.35
383.25	226.20
383.62	226.74
384.00	226.61
384.38	226.48
384.76	226.49
385.13	226.65
385.51	226.56
385.89	226.43
386.27	226.42
386.64	226.34
387.02	226.23
387.40	226.09
387.78	226.06
388.15	225.99
388.53	225.99
388.91	226.00
389.29	225.93
389.66	226.06
390.04	225.92
390.42	226.00
390.79	225.97
391.17	226.00
391.55	225.39
391.92	225.36
392.30	225.48
392.68	225.36
393.05	225.36
393.43	225.39
393.81	225.47
394.18	225.42
394.56	225.52
394.94	225.75
395.31	225.84
395.69	225.96
396.06	226.08
396.44	226.11
396.82	226.10
397.19	226.41
397.57	226.38
397.95	226.52
398.32	226.37
398.70	226.56
399.07	226.77
399.45	226.83
399.82	226.93
400.20	226.95
400.58	227.12
400.95	226.99
401.33	227.19
401.70	227.53
402.08	227.63
402.45	227.70
402.83	227.85
403.20	228.06
403.58	228.27
403.95	228.52
404.33	228.77
404.71	229.04
405.08	229.46
405.46	229.73
405.83	230.02
406.21	230.30
406.58	230.54
406.96	230.74
407.33	231.16
407.70	231.50
408.08	232.24
408.45	232.67
408.83	233.26
409.20	233.58
409.58	233.86
409.95	234.50
410.33	235.05
410.70	235.42
411.08	235.94
411.45	236.42
411.82	237.03
412.20	237.86
412.57	238.78
412.95	239.11
413.32	239.93
413.69	240.70
414.07	241.67
414.44	242.61
414.82	243.75
415.19	244.95
415.56	246.21
415.94	247.12
416.31	248.52
416.68	249.76
417.06	251.42
417.43	252.98
417.81	254.65
418.18	256.54
418.55	258.52
418.93	260.48
419.30	262.59
419.67	264.75
420.04	266.86
420.42	269.11
420.79	272.12
421.16	274.88
421.54	277.79
421.91	280.73
422.28	283.85
422.66	287.03
423.03	290.35
423.40	293.50
423.77	297.16
424.15	300.68
424.52	304.44
424.89	308.61
425.26	312.55
425.64	316.28
426.01	320.31
426.38	324.50
426.75	329.08
427.13	333.67
427.50	338.33
427.87	343.16
428.24	347.94
428.61	352.35
428.99	357.56
429.36	363.04
429.73	368.40
430.10	373.74
430.47	379.24
430.85	384.73
431.22	390.94
431.59	397.52
431.96	403.69
432.33	410.59
432.70	417.08
433.08	424.75
433.45	432.07
433.82	439.28
434.19	447.29
434.56	455.07
434.93	462.49
435.30	470.13
435.68	478.54
436.05	486.77
436.42	494.83
436.79	502.27
437.16	510.48
437.53	519.20
437.90	527.76
438.27	536.37
438.64	545.15
439.01	553.27
439.38	560.30
439.75	567.16
440.13	574.97
440.50	582.34
440.87	588.49
441.24	594.78
441.61	601.70
441.98	606.86
442.35	612.79
442.72	618.72
443.09	624.56
443.46	628.11
443.83	630.54
444.20	632.50
444.57	635.38
444.94	636.46
445.31	637.54
445.68	638.95
446.05	639.01
446.42	637.69
446.79	636.35
447.16	634.83
447.53	633.76
447.90	630.22
448.27	626.69
448.64	621.80
449.01	618.27
449.37	612.21
449.74	606.18
450.11	599.47
450.48	591.81
450.85	583.79
451.22	576.98
451.59	570.55
451.96	564.52
452.33	556.32
452.70	549.07
453.07	540.56
453.43	531.51
453.80	523.21
454.17	515.33
454.54	507.68
454.91	499.69
455.28	491.70
455.65	484.34
456.02	477.43
456.38	471.22
456.75	463.55
457.12	457.10
457.49	450.97
457.86	444.51
458.23	439.55
458.59	433.99
458.96	428.24
459.33	423.21
459.70	418.15
460.07	414.27
460.43	409.59
460.80	405.39
461.17	401.82
461.54	397.90
461.91	394.18
462.27	390.41
462.64	387.11
463.01	383.68
463.38	380.45
463.74	376.60
464.11	373.56
464.48	370.93
464.85	368.15
465.21	366.04
465.58	363.81
465.95	361.01
466.32	358.79
466.68	356.59
467.05	354.33
467.42	352.17
467.78	349.86
468.15	347.89
468.52	346.29
468.88	343.99
469.25	342.10
469.62	340.55
469.98	338.90
470.35	337.41
470.72	335.96
471.08	334.24
471.45	332.97
471.82	331.78
472.18	330.39
472.55	329.42
472.92	328.10
473.28	326.97
473.65	325.89
474.02	324.80
474.38	324.00
474.75	323.31
475.11	322.40
475.48	321.82
475.85	321.18
476.21	320.50
476.58	320.07
476.94	319.76
477.31	319.37
477.67	319.07
478.04	318.76
478.41	318.68
478.77	319.02
479.14	318.80
479.50	318.67
479.87	318.63
480.23	318.62
480.60	318.58
480.96	318.69
481.33	319.05
481.69	319.32
482.06	319.54
482.42	319.78
482.79	320.26
483.15	320.58
483.52	321.15
483.88	321.65
484.25	322.16
484.61	322.73
484.98	323.41
485.34	324.29
485.71	325.19
486.07	326.08
486.44	326.63
486.80	327.71
487.17	328.85
487.53	330.28
487.90	331.72
488.26	333.45
488.62	335.15
488.99	336.64
489.35	338.38
489.72	340.25
490.08	342.14
490.44	343.97
490.81	346.18
491.17	348.43
491.54	350.86
491.90	353.50
492.26	356.05
492.63	358.90
492.99	361.67
493.36	364.71
493.72	367.99
494.08	371.36
494.45	375.03
494.81	378.92
495.17	382.70
495.54	386.85
495.90	390.85
496.26	395.31
496.63	399.99
496.99	404.78
497.35	409.79
497.72	415.05
498.08	420.58
498.44	426.29
498.80	432.26
499.17	438.35
499.53	444.60
499.89	451.37
500.26	458.02
500.62	465.07
500.98	472.55
501.34	479.98
501.71	487.73
502.07	495.55
502.43	503.48
502.79	511.89
503.16	520.37
503.52	529.45
503.88	538.51
504.24	548.08
504.60	557.88
504.97	567.99
505.33	578.34
505.69	589.41
506.05	600.40
506.41	611.34
506.78	622.95
507.14	634.92
507.50	647.03
507.86	659.71
508.22	672.44
508.59	685.19
508.95	698.80
509.31	712.74
509.67	726.81
510.03	741.08
510.39	755.46
510.75	770.25
511.12	785.24
511.48	800.73
511.84	816.13
512.20	832.12
512.56	848.43
512.92	865.28
513.28	881.94
513.64	898.82
514.00	916.38
514.37	933.80
514.73	951.35
515.09	969.76
515.45	987.95
515.81	1006.31
516.17	1024.88
516.53	1043.17
516.89	1061.60
517.25	1080.80
517.61	1100.82
517.97	1120.84
518.33	1140.76
518.69	1161.06
519.05	1181.16
519.41	1201.52
519.77	1222.19
520.13	1242.46
520.49	1262.78
520.85	1284.50
521.21	1305.43
521.57	1326.33
521.93	1346.92
522.29	1368.32
522.65	1388.46
523.01	1408.90
523.37	1429.19
523.73	1449.86
524.09	1470.24
524.45	1490.84
524.81	1511.22
525.17	1531.53
525.53	1551.86
525.89	1572.42
526.25	1592.90
526.61	1612.69
526.97	1633.64
527.33	1654.60
527.68	1675.97
528.04	1696.80
528.40	1716.27
528.76	1736.87
529.12	1757.05
529.48	1777.64
529.84	1797.17
530.20	1817.73
530.56	1838.03
530.91	1858.75
531.27	1878.68
531.63	1898.72
531.99	1918.77
532.35	1938.68
532.71	1958.19
533.07	1978.44
533.42	1998.04
533.78	2017.16
534.14	2036.79
534.50	2055.50
534.86	2074.15
535.21	2091.19
535.57	2108.92
535.93	2126.21
536.29	2143.53
536.65	2161.32
537.00	2178.47
537.36	2195.55
537.72	2211.77
538.08	2228.56
538.44	2244.34
538.79	2260.57
539.15	2276.54
539.51	2292.01
539.87	2306.33
540.22	2320.13
540.58	2334.08
540.94	2346.67
541.29	2359.28
541.65	2371.75
542.01	2383.63
542.37	2393.84
542.72	2404.86
543.08	2415.16
543.44	2426.47
543.79	2435.99
544.15	2445.19
544.51	2454.72
544.87	2463.73
545.22	2472.19
545.58	2479.99
545.94	2487.06
546.29	2492.94
546.65	2498.80
547.01	2504.15
547.36	2509.45
547.72	2514.70
548.07	2518.28
548.43	2523.51
548.79	2527.78
549.14	2531.62
549.50	2535.41
549.86	2539.07
550.21	2542.64
550.57	2546.19
550.92	2547.12
551.28	2548.30
551.64	2550.26
551.99	2551.80
552.35	2553.08
552.70	2554.97
553.06	2556.12
553.41	2557.20
553.77	2558.91
554.13	2560.40
554.48	2561.82
554.84	2562.82
555.19	2563.46
555.55	2564.79
555.90	2563.59
556.26	2562.31
556.61	2560.49
556.97	2557.63
557.32	2556.40
557.68	2554.77
558.03	2552.70
558.39	2551.18
558.74	2550.16
559.10	2546.99
559.45	2542.91
559.81	2538.48
560.16	2532.65
560.52	2527.45
560.87	2522.74
561.23	2517.31
561.58	2511.45
561.94	2504.32
562.29	2497.13
562.64	2490.29
563.00	2482.01
563.35	2475.39
563.71	2468.98
564.06	2462.43
564.42	2456.16
564.77	2449.06
565.12	2441.30
565.48	2433.77
565.83	2425.63
566.19	2417.62
566.54	2409.35
566.89	2401.42
567.25	2394.03
567.60	2387.29
567.96	2379.95
568.31	2371.96
568.66	2363.13
569.02	2354.33
569.37	2346.41
569.72	2339.03
570.08	2329.53
570.43	2320.27
570.78	2311.38
571.14	2301.92
571.49	2291.94
571.84	2282.37
572.20	2272.10
572.55	2262.28
572.90	2251.32
573.26	2241.17
573.61	2230.34
573.96	2219.26
574.31	2207.47
574.67	2195.58
575.02	2182.81
575.37	2170.27
575.72	2157.25
576.08	2145.21
576.43	2132.54
576.78	2119.39
577.13	2105.99
577.49	2093.75
577.84	2082.06
578.19	2070.00
578.54	2057.43
578.90	2045.80
579.25	2033.71
579.60	2021.49
579.95	2008.63
580.30	1996.00
580.66	1982.75
581.01	1969.33
581.36	1956.24
581.71	1944.22
582.06	1931.70
582.42	1919.56
582.77	1907.08
583.12	1895.74
583.47	1883.93
583.82	1872.52
584.17	1860.64
584.53	1848.98
584.88	1836.17
585.23	1822.94
585.58	1809.51
585.93	1796.55
586.28	1783.46
586.63	1769.90
586.98	1756.07
587.34	1743.14
587.69	1730.17
588.04	1717.95
588.39	1706.18
588.74	1693.83
589.09	1681.60
589.44	1668.85
589.79	1657.06
590.14	1645.09
590.49	1632.80
590.84	1621.09
591.19	1609.14
591.54	1597.00
591.89	1584.70
592.25	1574.75
592.60	1563.94
592.95	1552.69
593.30	1541.07
593.65	1529.20
594.00	1517.52
594.35	1507.60
594.70	1496.01
595.05	1484.70
595.40	1473.04
595.75	1461.32
596.10	1450.71
596.45	1439.61
596.80	1429.13
597.15	1417.67
597.50	1406.54
597.85	1395.51
598.19	1383.96
598.54	1372.63
598.89	1361.80
599.24	1351.76
599.59	1340.63
599.94	1329.98
600.29	1319.57
600.64	1309.77
600.99	1299.59
601.34	1290.23
601.69	1279.58
602.04	1270.42
602.39	1260.84
602.74	1252.00
603.08	1242.81
603.43	1233.65
603.78	1224.33
604.13	1214.97
604.48	1205.86
604.83	1196.31
605.18	1186.86
605.53	1177.68
605.87	1168.74
606.22	1160.51
606.57	1151.36
606.92	1142.12
607.27	1133.34
607.62	1124.94
607.96	1116.58
608.31	1108.81
608.66	1100.47
609.01	1092.18
609.36	1083.66
609.70	1075.46
610.05	1066.85
610.40	1058.77
610.75	1050.28
611.10	1042.22
611.44	1033.98
611.79	1025.95
612.14	1018.39
612.49	1010.90
612.83	1003.46
613.18	995.80
613.53	988.16
613.88	980.55
614.22	973.02
614.57	965.38
614.92	957.64
615.27	950.22
615.61	942.66
615.96	935.34
616.31	928.05
616.65	920.99
617.00	913.85
617.35	906.84
617.70	899.93
618.04	893.04
618.39	886.13
618.74	879.76
619.08	873.03
619.43	866.28
619.78	859.29
620.12	852.28
620.47	845.66
620.82	838.74
621.16	832.01
621.51	825.84
621.85	819.73
622.20	813.43
622.55	806.81
622.89	800.70
623.24	794.52
623.59	788.30
623.93	782.32
624.28	776.45
624.62	771.17
624.97	765.43
625.32	759.82
625.66	754.06
626.01	748.23
626.35	742.92
626.70	737.42
627.04	732.25
627.39	727.07
627.73	721.89
628.08	716.89
628.43	711.78
628.77	706.53
629.12	701.15
629.46	696.47
629.81	692.02
630.15	687.19
630.50	682.36
630.84	677.67
631.19	673.01
631.53	668.55
631.88	663.27
632.22	658.49
632.57	654.08
632.91	649.59
633.26	645.23
633.60	640.51
633.95	635.94
634.29	631.35
634.64	626.94
634.98	622.22
635.32	618.03
635.67	614.18
636.01	610.12
636.36	606.07
636.70	602.00
637.05	597.79
637.39	593.66
637.73	589.70
638.08	585.73
638.42	581.55
638.77	577.40
639.11	573.35
639.45	569.07
639.80	564.80
640.14	560.90
640.49	557.03
640.83	553.37
641.17	549.91
641.52	546.45
641.86	543.06
642.20	540.09
642.55	536.60
642.89	532.97
643.23	529.43
643.58	526.42
643.92	522.89
644.26	519.66
644.61	516.64
644.95	513.46
645.29	510.22
645.64	507.21
645.98	504.13
646.32	501.28
646.66	498.43
647.01	495.57
647.35	492.70
647.69	489.78
648.04	487.16
648.38	484.43
648.72	481.53
649.06	478.54
649.41	475.51
649.75	472.60
650.09	469.75
650.43	467.02
650.78	464.08
651.12	461.28
651.46	458.49
651.80	455.75
652.14	453.04
652.49	450.47
652.83	447.92
653.17	445.49
653.51	442.91
653.85	440.51
654.20	438.14
654.54	435.71
654.88	433.31
655.22	431.03
655.56	428.50
655.90	426.16
656.25	424.00
656.59	421.87
656.93	419.75
657.27	417.83
657.61	415.51
657.95	413.33
658.29	411.29
658.64	409.27
658.98	407.13
659.32	404.97
659.66	402.91
660.00	400.91
660.34	398.80
660.68	396.83
661.02	394.84
661.36	392.90
661.70	390.87
662.05	388.97
662.39	387.07
662.73	385.43
663.07	384.01
663.41	382.21
663.75	380.24
664.09	378.54
664.43	376.58
664.77	375.00
665.11	373.30
665.45	371.61
665.79	370.05
666.13	368.37
666.47	366.77
666.81	365.18
667.15	363.52
667.49	362.12
667.83	360.84
668.17	359.52
668.51	358.10
668.85	356.88
669.19	355.72
669.53	354.11
669.87	352.58
670.21	351.06
670.55	349.69
670.89	348.64
671.23	347.19
671.57	345.83
671.91	344.57
672.25	343.30
672.58	342.10
672.92	340.67
673.26	339.48
673.60	338.37
673.94	337.25
674.28	336.17
674.62	335.05
674.96	333.66
675.30	332.38
675.64	331.17
675.97	329.94
676.31	328.65
676.65	327.55
676.99	326.49
677.33	325.33
677.67	324.38
678.01	323.05
678.34	322.02
678.68	321.23
679.02	320.11
679.36	319.08
679.70	318.10
680.04	317.22
680.37	316.23
680.71	315.20
681.05	314.35
681.39	313.45
681.73	312.42
682.06	311.55
682.40	310.76
682.74	309.98
683.08	309.30
683.42	308.36
683.75	307.66
684.09	306.83
684.43	305.93
684.77	304.95
685.10	304.20
685.44	303.52
685.78	302.63
686.12	301.87
686.45	301.17
686.79	300.32
687.13	299.69
687.46	299.02
687.80	298.44
688.14	297.55
688.48	296.74
688.81	296.02
689.15	295.44
689.49	294.75
689.82	293.98
690.16	293.08
690.50	292.40
690.83	291.70
691.17	290.92
691.51	290.28
691.84	289.67
692.18	288.99
692.52	288.22
692.85	287.53
693.19	287.10
693.52	286.53
693.86	285.95
694.20	285.20
694.53	284.55
694.87	283.82
695.21	283.13
695.54	282.51
695.88	281.86
696.21	281.09
696.55	280.43
696.88	279.91
697.22	279.27
697.56	278.83
697.89	278.10
698.23	277.61
698.56	277.02
698.90	276.53
699.23	275.99
699.57	275.57
699.90	274.99
700.24	274.34
700.58	273.80
700.91	273.38
701.25	273.29
701.58	273.26
701.92	272.98
702.25	272.67
702.59	272.17
702.92	271.85
703.26	271.49
703.59	271.10
703.93	271.03
704.26	270.77
704.60	270.32
704.93	270.02
705.26	269.60
705.60	269.29
705.93	268.73
706.27	268.42
706.60	268.06
706.94	267.97
707.27	267.54
707.61	267.21
707.94	266.82
708.27	266.06
708.61	265.24
708.94	264.70
709.28	264.34
709.61	264.07
709.94	263.60
710.28	263.27
710.61	262.94
710.95	262.17
711.28	262.01
711.61	261.63
711.95	261.28
712.28	260.91
712.61	260.60
712.95	260.62
713.28	260.50
713.61	260.10
713.95	259.66
714.28	259.43
714.61	259.04
714.95	258.70
715.28	258.30
715.61	257.99
715.95	257.78
716.28	257.37
716.61	257.03
716.95	256.74
717.28	256.43
717.61	256.13
717.94	255.81
718.28	255.28
718.61	255.04
718.94	254.78
719.27	254.53
719.61	254.29
719.94	253.91
720.27	253.42
720.60	253.12
720.94	252.80
721.27	252.55
721.60	252.38
721.93	252.14
722.27	252.14
722.60	251.96
722.93	251.61
723.26	251.47
723.59	251.30
723.93	251.15
724.26	250.92
724.59	250.59
724.92	250.46
725.25	250.30
725.59	250.05
725.92	249.91
726.25	249.67
726.58	249.44
726.91	249.16
727.24	249.07
727.57	248.88
727.91	248.63
728.24	248.44
728.57	248.20
728.90	248.05
729.23	247.69
729.56	247.73
729.89	247.60
730.22	247.32
730.55	247.05
730.89	246.88
731.22	246.71
731.55	246.51
731.88	246.34
732.21	246.05
732.54	245.80
732.87	245.57
733.20	245.45
733.53	245.25
733.86	245.17
734.19	244.88
734.52	244.77
734.85	244.92
735.18	244.61
735.51	244.58
735.84	244.44
736.17	244.42
736.50	244.00
736.83	244.43
737.16	244.28
737.49	244.15
737.82	243.93
738.15	243.77
738.48	243.68
738.81	243.54
739.14	243.41
739.47	243.23
739.80	243.03
740.13	242.94
740.46	242.70
740.79	242.48
741.12	242.41
741.45	242.23
741.78	241.83
742.11	241.91
742.44	241.65
742.77	241.56
743.10	241.37
743.43	241.22
743.75	240.53
744.08	241.10
744.41	240.90
744.74	240.77
745.07	240.65
745.40	240.68
745.73	240.75
746.06	240.63
746.39	240.68
746.71	240.57
747.04	240.33
747.37	240.20
747.70	240.18
748.03	240.04
748.36	239.99
748.68	239.86
749.01	239.58
749.34	239.47
749.67	239.34
750.00	239.27
750.33	239.55
750.65	239.47
750.98	238.74
751.31	238.75
751.64	238.73
751.97	238.89
752.29	238.69
752.62	238.29
752.95	238.20
753.28	237.95
753.60	237.89
753.93	237.97
754.26	237.97
754.59	237.73
754.91	237.51
755.24	237.37
755.57	237.35
755.90	237.24
756.22	237.11
756.55	236.94
756.88	236.75
757.20	236.28
757.53	236.11
757.86	235.97
758.19	235.85
758.51	235.76
758.84	235.32
759.17	235.15
759.49	235.13
759.82	235.23
760.15	235.18
760.47	235.01
760.80	234.71
761.13	234.70
761.45	234.63
761.78	234.65
762.11	234.59
762.43	234.40
762.76	234.33
763.08	234.30
763.41	234.29
763.74	234.28
764.06	234.24
764.39	234.18
764.71	234.17
765.04	234.02
765.37	233.86
765.69	233.79
766.02	233.79
766.34	233.70
766.67	233.52
767.00	233.47
767.32	233.70
767.65	233.95
767.97	233.84
768.30	233.77
768.62	233.66
768.95	233.50
769.27	233.42
769.60	233.41
769.92	233.25
770.25	233.03
770.57	232.88
770.90	232.76
771.22	232.65
771.55	232.50
771.87	232.45
772.20	232.35
772.52	232.67
772.85	233.14
773.17	233.01
773.50	232.90
773.82	232.76
774.15	232.43
774.47	232.11
774.80	231.97
775.12	231.90
775.45	231.82
775.77	231.77
776.09	231.78
776.42	231.73
776.74	231.87
777.07	231.85
777.39	231.82
777.72	231.73
778.04	231.77
778.36	231.79
778.69	231.79
779.01	231.82
779.33	231.48
779.66	230.90
779.98	230.88
780.31	230.83
780.63	231.05
780.95	231.14
781.28	231.11
781.60	231.02
781.92	231.04
782.25	231.01
782.57	231.01
782.89	230.95
783.22	230.85
783.54	230.65
783.86	230.62
784.19	230.52
784.51	230.60
784.83	230.54
785.16	230.46
785.48	230.44
785.80	230.38
786.12	230.36
786.45	230.29
786.77	230.28
787.09	230.30
787.42	230.07
787.74	229.96
788.06	229.94
788.38	229.92
788.71	229.85
789.03	229.88
789.35	229.95
789.67	229.82
789.99	229.86
790.32	229.77
790.64	229.79
790.96	230.20
791.28	229.98
791.61	229.89
791.93	229.86
792.25	229.77
792.57	230.09
792.89	229.94
793.21	230.08
793.54	230.00
793.86	229.82
794.18	229.88
794.50	229.82
794.82	229.79
795.14	229.93
795.47	230.00
795.79	229.88
796.11	229.68
796.43	229.65
796.75	229.63
797.07	229.65
797.39	229.63
797.71	229.19
798.04	229.28
798.36	229.26
798.68	229.30
799.00	229.33
799.32	229.04
799.64	229.15
799.96	229.05
800.28	229.11
800.60	229.15
800.92	229.10
801.24	229.15
801.56	229.18
801.89	229.01
802.21	228.97
802.53	228.98
802.85	229.09
803.17	229.31
803.49	229.24
803.81	229.20
804.13	229.16
804.45	229.19
804.77	229.25
805.09	229.27
805.41	229.21
805.73	229.17
806.05	229.05
806.37	229.05
806.69	228.99
807.01	229.04
807.33	229.08
807.65	228.95
807.97	229.05
808.28	228.97
808.60	228.98
808.92	228.87
809.24	229.05
809.56	228.97
809.88	228.81
810.20	228.77
810.52	228.90
810.84	228.78
811.16	228.65
811.48	228.53
811.80	228.65
812.12	228.53
812.43	228.65
812.75	228.70
813.07	228.62
813.39	228.56
813.71	228.36
814.03	228.26
814.35	228.24
814.67	228.02
814.98	227.96
815.30	227.90
815.62	227.85
815.94	227.53
816.26	227.76
816.58	227.61
816.89	227.63
817.21	227.45
817.53	227.47
817.85	227.51
818.17	227.47
818.48	227.22
818.80	227.38
819.12	227.18
819.44	227.03
819.76	226.92
820.07	226.87
820.39	226.86
820.71	226.91
821.03	226.90
821.34	226.86
821.66	226.93
821.98	226.99
822.30	227.02
822.61	227.39
822.93	227.05
823.25	227.12
823.57	227.05
823.88	227.13
824.20	227.11
824.52	227.13
824.83	227.14
825.15	227.12
825.47	227.10
825.79	227.18
826.10	227.15
826.42	227.20
826.74	227.30
827.05	227.35
827.37	227.40
827.69	227.33
828.00	227.43
828.32	227.46
828.64	227.34
828.95	227.58
829.27	227.38
829.58	227.37
829.90	227.45
830.22	227.60
830.53	227.53
830.85	227.51
831.17	227.45
831.48	227.49
831.80	227.52
832.11	227.42
832.43	227.36
832.75	227.43
833.06	227.69
833.38	227.63
833.69	227.58
834.01	227.55
834.32	227.58
834.64	227.55
834.96	227.50
835.27	227.55
835.59	227.35
835.90	227.33
836.22	227.39
836.53	227.28
836.85	227.21
837.16	227.70
837.48	227.73
837.79	227.94
838.11	227.95
838.42	228.02
838.74	228.18
839.05	228.12
839.37	228.13
839.68	227.81
840.00	227.77
840.31	227.94
840.63	227.89
840.94	227.89
841.26	227.85
841.57	227.85
841.88	227.89
842.20	227.86
842.51	227.74
842.83	227.69
843.14	228.11
843.46	228.13
843.77	227.83
844.08	227.75
844.40	227.58
844.71	227.45
845.03	227.37
845.34	227.24
845.65	227.25
845.97	227.21
846.28	227.24
846.60	227.24
846.91	227.06
847.22	227.08
847.54	227.15
847.85	227.20
848.16	227.11
848.48	227.05
848.79	227.17
849.10	227.27
849.42	227.35
849.73	226.91
850.04	226.86
850.36	226.62
850.67	226.69
850.98	226.66
851.30	226.77
851.61	226.65
851.92	226.67
852.23	226.74
852.55	226.69
852.86	226.67
853.17	226.65
853.49	226.68
853.80	226.69
854.11	226.71
854.42	226.70
854.74	226.67
855.05	226.67
855.36	226.43
855.67	226.37
855.99	226.30
856.30	226.85
856.61	226.83
856.92	226.83
857.23	226.78
857.55	226.72
857.86	226.60
858.17	226.76
858.48	226.67
858.79	226.57
859.11	226.68
859.42	226.62
859.73	226.55
860.04	226.64
860.35	226.51
860.66	226.36
860.98	226.36
861.29	226.46
861.60	226.41
861.91	226.54
862.22	226.49
862.53	226.45
862.84	225.86
863.16	225.95
863.47	225.92
863.78	225.94
864.09	226.01
864.40	226.01
864.71	226.03
865.02	226.11
865.33	226.04
865.64	225.91
865.95	225.89
866.27	226.18
866.58	226.07
866.89	226.17
867.20	226.20
867.51	226.06
867.82	226.00
868.13	226.10
868.44	225.99
868.75	226.17
869.06	226.13
869.37	226.25
869.68	226.10
869.99	226.21
870.30	226.21
870.61	226.27
870.92	226.24
871.23	226.17
871.54	226.22
871.85	226.39
872.16	226.44
872.47	226.52
872.78	226.30
873.09	226.26
873.40	226.18
873.71	226.19
874.02	226.26
874.33	226.31
874.64	226.24
874.95	226.40
875.26	226.28
875.56	226.33
875.87	226.28
876.18	226.27
876.49	226.73
876.80	226.70
877.11	226.64
877.42	226.71
877.73	226.78
878.04	226.69
878.35	226.72
878.66	226.77
878.96	226.78
879.27	226.79
879.58	226.87
879.89	226.85
880.20	227.01
880.51	227.01
880.82	226.95
881.12	226.95
881.43	226.82
881.74	226.78
882.05	226.74
882.36	226.80
882.67	226.85
882.97	226.32
883.28	226.27
883.59	226.24
883.90	226.32
884.21	226.34
884.51	226.31
884.82	226.17
885.13	226.15
885.44	226.11
885.74	226.17
886.05	226.14
886.36	226.11
886.67	225.90
886.98	226.10
887.28	226.10
887.59	226.14
887.90	226.14
888.20	226.13
888.51	226.23
888.82	226.15
889.13	226.18
889.43	226.58
889.74	226.54
890.05	226.52
890.35	226.42
890.66	226.34
890.97	226.32
891.28	226.29
891.58	226.29
891.89	226.32
892.20	226.18
892.50	226.11
892.81	226.13
893.12	226.17
893.42	225.97
893.73	226.00
894.04	226.06
894.34	226.09
894.65	226.04
894.95	225.96
895.26	225.98
895.57	226.15
895.87	225.71
896.18	225.85
896.48	225.93
896.79	225.93
897.10	226.06
897.40	226.09
897.71	226.16
898.01	226.09
898.32	226.15
898.63	226.25
898.93	226.30
899.24	226.33
899.54	226.25
899.85	226.25
900.15	226.29
900.46	226.17
900.76	226.30
901.07	226.32
901.38	226.36
901.68	226.38
901.99	226.13
902.29	226.20
902.60	226.17
902.90	226.10
903.21	226.13
903.51	225.98
903.82	226.12
904.12	226.11
904.43	226.21
904.73	226.18
905.03	226.15
905.34	226.63
905.64	226.57
905.95	226.67
906.25	226.61
906.56	226.54
906.86	226.62
907.17	226.47
907.47	226.50
907.77	226.45
908.08	226.30
908.38	226.39
908.69	226.40
908.99	226.46
909.30	226.53
909.60	226.50
909.90	226.51
910.21	226.37
910.51	226.28
910.81	226.27
911.12	226.26
911.42	226.24
911.73	225.72
912.03	225.77
912.33	225.80
912.64	225.85
912.94	225.81
913.24	225.71
913.55	225.72
913.85	225.73
914.15	225.80
914.46	225.91
914.76	225.81
915.06	225.76
915.37	225.68
915.67	225.61
915.97	225.65
916.27	225.64
916.58	225.67
916.88	225.75
917.18	225.69
917.49	226.08
917.79	226.12
918.09	226.16
918.39	226.30
918.70	226.31
919.00	226.32
919.30	226.55
919.60	226.54
919.91	226.47
920.21	226.49
920.51	226.35
920.81	226.39
921.12	226.55
921.42	226.55
921.72	226.55
922.02	226.59
922.32	226.63
922.63	226.61
922.93	226.79
923.23	226.76
923.53	226.72
923.83	226.37
924.13	226.36
924.44	226.42
924.74	226.56
925.04	226.60
925.34	226.56
925.64	226.37
925.94	226.45
926.24	226.68
926.55	226.65
926.85	226.72
927.15	226.67
927.45	226.66
927.75	226.61
928.05	226.70
928.35	226.63
928.65	226.62
928.95	226.67
929.26	226.57
929.56	226.64
929.86	226.71
930.16	226.71
930.46	226.65
930.76	226.62
931.06	226.31
931.36	226.25
931.66	226.37
931.96	226.41
932.26	226.34
932.56	226.16
932.86	226.25
933.16	226.28
933.46	226.31
933.76	226.16
934.06	226.28
934.36	226.43
934.66	226.45
934.96	226.48
935.26	226.51
935.56	226.51
935.86	226.39
936.16	226.29
936.46	226.23
936.76	226.24
937.06	226.17
937.36	226.26
937.66	226.28
937.96	226.23
938.26	226.15
938.56	226.08
938.86	226.14
939.16	226.21
939.46	226.36
939.76	226.35
940.06	226.43
940.35	226.39
940.65	226.14
940.95	226.19
941.25	226.08
941.55	225.99
941.85	225.94
942.15	226.09
942.45	226.30
942.75	226.29
943.04	226.28
943.34	226.40
943.64	226.36
943.94	226.24
944.24	226.21
944.54	226.26
944.84	226.21
945.13	226.19
945.43	226.10
945.73	225.95
946.03	225.91
946.33	225.86
946.62	225.81
946.92	225.80
947.22	225.82
947.52	225.84
947.82	225.91
948.11	225.90
948.41	225.76
948.71	225.61
949.01	225.62
949.31	225.56
949.60	225.49
949.90	225.62
950.20	225.63
950.50	225.74
950.79	225.74
951.09	225.90
951.39	225.89
951.69	225.74
951.98	225.82
952.28	225.85
952.58	225.84
952.87	225.82
953.17	225.88
953.47	225.79
953.76	225.80
954.06	225.77
954.36	225.76
954.66	225.77
954.95	225.88
955.25	225.96
955.55	226.04
955.84	226.01
956.14	226.00
956.44	226.01
956.73	225.87
957.03	225.92
957.32	225.89
957.62	225.86
957.92	226.05
958.21	226.03
958.51	226.51
958.81	226.53
959.10	226.56
959.40	226.68
959.69	226.76
959.99	226.81
960.29	226.76
960.58	226.72
960.88	226.94
961.17	226.88
961.47	226.88
961.76	226.85
962.06	226.93
962.36	226.86
962.65	226.91
962.95	226.89
963.24	226.77
963.54	226.84
963.83	226.87
964.13	226.81
964.42	226.69
964.72	226.26
965.01	226.24
965.31	226.19
965.60	226.10
965.90	226.33
966.19	226.17
966.49	226.25
966.78	226.24
967.08	226.12
967.37	226.16
967.67	226.09
967.96	226.19
968.26	226.08
968.55	226.14
968.85	226.09
969.14	226.16
969.43	226.15
969.73	226.10
970.02	226.07
970.32	226.05
970.61	226.00
970.91	225.91
971.20	225.90
971.49	225.91
971.79	225.96
972.08	225.67
972.38	225.79
972.67	225.74
972.96	225.83
973.26	225.79
973.55	225.91
973.85	225.86
974.14	225.81
974.43	225.88
974.73	225.80
975.02	225.73
975.31	225.71
975.61	225.84
975.90	225.77
976.19	225.76
976.49	225.82
976.78	225.94
977.07	225.96
977.37	226.00
977.66	226.02
977.95	225.86
978.24	225.91
978.54	226.00
978.83	225.95
979.12	225.87
979.42	225.85
979.71	225.74
980.00	225.76
980.29	225.79
980.59	225.74
980.88	225.86
981.17	225.93
981.46	225.87
981.76	225.81
982.05	225.96
982.34	225.96
982.63	226.00
982.93	225.98
983.22	226.14
983.51	226.12
983.80	226.18
984.09	226.28
984.39	226.14
984.68	226.08
984.97	226.15
985.26	226.17
985.55	226.24
985.85	226.15
986.14	226.20
986.43	226.20
986.72	226.16
987.01	225.97
987.30	225.97
987.59	225.96
987.89	225.94
988.18	225.83
988.47	225.80
988.76	225.71
989.05	225.65
989.34	225.58
989.63	225.76
989.92	225.71
990.22	225.71
990.51	225.77
990.80	225.68
991.09	225.67
991.38	225.71
991.67	225.65
991.96	225.54
992.25	225.60
992.54	225.45
992.83	225.47
993.12	225.44
993.41	225.49
993.70	225.69
993.99	225.74
994.28	225.73
994.58	225.80
994.87	225.73
995.16	225.71
995.45	225.63
995.74	225.42
996.03	225.52
996.32	225.50
996.61	225.57
996.90	225.52
997.19	225.52
997.48	225.55
997.77	225.45
998.06	225.51
998.34	225.44
998.63	225.53
998.92	225.58
999.21	225.67
999.50	225.68
999.79	225.53
1000.08	225.50
1000.37	225.52
1000.66	225.44
1000.95	225.60
1001.24	225.62
1001.53	225.69
1001.82	225.68
1002.11	225.52
1002.40	225.60
1002.68	225.72
1002.97	226.10
1003.26	225.98
1003.55	225.88
1003.84	225.96
1004.13	226.12
1004.42	226.07
1004.71	226.15
1004.99	226.07
1005.28	226.19
1005.57	226.14
1005.86	226.09
1006.15	226.07
1006.44	226.02
1006.72	226.09
1007.01	226.02
1007.30	226.04
1007.59	225.97
1007.88	225.95
1008.17	225.98
1008.45	225.86
1008.74	225.62
1009.03	225.44
1009.32	225.50
1009.60	225.54
1009.89	225.50
1010.18	225.35
1010.47	225.37
1010.76	225.26
1011.04	225.30
1011.33	225.28
1011.62	225.36
1011.91	225.41
1012.19	225.42
1012.48	225.47
1012.77	225.47
1013.05	225.64
1013.34	225.65
1013.63	225.66
1013.92	225.72
1014.20	225.76
1014.49	225.81
1014.78	225.94
1015.06	225.74
1015.35	225.72
1015.64	225.68
1015.92	225.77
1016.21	225.77
1016.50	225.80
1016.78	225.96
1017.07	225.95
1017.36	225.85
1017.64	225.75
1017.93	225.75
1018.22	225.74
1018.50	225.77
1018.79	225.67
1019.08	225.47
1019.36	225.45
1019.65	225.41
1019.93	225.53
1020.22	225.62
1020.51	225.88
1020.79	225.79
1021.08	224.75
1021.36	226.10
1021.65	224.20
1021.94	225.80
1022.22	225.30
1022.51	224.70
1022.79	227.90
1023.08	227.75
1023.36	231.80
1023.65	224.10
>>>>>End Processed Spectral Data<<<<<
