SpectraSuite Data File
++++++++++++++++++++++++++++++++++++
Date: Wed Sep 04 17:58:54 EDT 2013
User: lab3
Dark Spectrum Present: Yes
Reference Spectrum Present: No
Number of Sampled Component Spectra: 1
Spectrometers: USB2E7196
Integration Time (usec): 170000 (USB2E7196)
Spectra Averaged: 20 (USB2E7196)
Boxcar Smoothing: 10 (USB2E7196)
Correct for Electrical Dark: No (USB2E7196)
Strobe/Lamp Enabled: No (USB2E7196)
Correct for Detector Non-linearity: No (USB2E7196)
Correct for Stray Light: No (USB2E7196)
Number of Pixels in Processed Spectrum: 2048
>>>>>Begin Processed Spectral Data<<<<<
339.09	0.00
339.48	214.05
339.86	214.20
340.24	216.75
340.63	217.35
341.01	225.40
341.39	220.25
341.78	221.65
342.16	223.20
342.54	223.35
342.93	212.82
343.31	223.51
343.69	223.99
344.07	224.46
344.46	224.88
344.84	225.29
345.22	225.23
345.60	225.55
345.99	225.81
346.37	225.95
346.75	226.07
347.13	226.16
347.52	226.18
347.90	226.35
348.28	226.39
348.66	226.55
349.05	226.39
349.43	226.49
349.81	226.55
350.19	226.57
350.57	226.64
350.96	226.69
351.34	226.80
351.72	226.95
352.10	227.05
352.48	227.08
352.87	227.20
353.25	227.29
353.63	227.37
354.01	227.46
354.39	227.62
354.77	227.65
355.15	227.78
355.54	227.78
355.92	227.66
356.30	227.70
356.68	228.02
357.06	228.18
357.44	228.04
357.82	228.14
358.20	228.61
358.58	228.58
358.97	228.71
359.35	228.92
359.73	229.01
360.11	229.15
360.49	229.30
360.87	229.32
361.25	229.55
361.63	229.68
362.01	229.71
362.39	229.69
362.77	229.83
363.15	229.87
363.53	229.89
363.91	229.96
364.29	230.04
364.67	229.62
365.05	229.55
365.43	229.63
365.81	229.68
366.19	229.53
366.57	229.76
366.95	229.70
367.33	229.59
367.71	229.64
368.09	229.68
368.47	229.65
368.85	229.61
369.23	229.58
369.61	229.41
369.99	229.58
370.37	229.60
370.75	229.80
371.13	229.60
371.51	229.49
371.89	229.56
372.27	229.56
372.65	229.60
373.03	229.70
373.41	229.65
373.78	229.63
374.16	229.37
374.54	229.11
374.92	229.09
375.30	229.02
375.68	228.84
376.06	228.85
376.44	228.76
376.82	228.77
377.19	228.71
377.57	228.68
377.95	228.45
378.33	228.39
378.71	228.06
379.09	228.13
379.47	228.24
379.84	228.12
380.22	227.96
380.60	227.76
380.98	227.59
381.36	227.60
381.73	227.43
382.11	227.46
382.49	227.51
382.87	227.38
383.25	227.39
383.62	227.92
384.00	227.71
384.38	227.66
384.76	227.68
385.13	227.78
385.51	227.78
385.89	227.64
386.27	227.59
386.64	227.62
387.02	227.54
387.40	227.39
387.78	227.36
388.15	227.36
388.53	227.38
388.91	227.33
389.29	227.21
389.66	227.27
390.04	227.13
390.42	227.22
390.79	227.19
391.17	227.14
391.55	226.58
391.92	226.59
392.30	226.67
392.68	226.50
393.05	226.52
393.43	226.52
393.81	226.52
394.18	226.47
394.56	226.53
394.94	226.65
395.31	226.65
395.69	226.75
396.06	226.91
396.44	226.91
396.82	227.00
397.19	227.33
397.57	227.32
397.95	227.48
398.32	227.33
398.70	227.49
399.07	227.57
399.45	227.64
399.82	227.75
400.20	227.80
400.58	227.95
400.95	227.79
401.33	227.91
401.70	228.44
402.08	228.53
402.45	228.61
402.83	228.76
403.20	228.99
403.58	229.11
403.95	229.32
404.33	229.59
404.71	229.75
405.08	230.18
405.46	230.41
405.83	230.65
406.21	230.94
406.58	231.19
406.96	231.48
407.33	231.83
407.70	232.22
408.08	232.90
408.45	233.31
408.83	233.79
409.20	234.20
409.58	234.27
409.95	234.81
410.33	235.37
410.70	235.77
411.08	236.37
411.45	237.06
411.82	237.63
412.20	238.40
412.57	239.41
412.95	239.81
413.32	240.73
413.69	241.54
414.07	242.51
414.44	243.47
414.82	244.46
415.19	245.68
415.56	246.84
415.94	247.86
416.31	249.29
416.68	250.82
417.06	252.36
417.43	254.03
417.81	255.78
418.18	257.59
418.55	259.56
418.93	261.55
419.30	263.56
419.67	265.73
420.04	267.96
420.42	270.25
420.79	273.25
421.16	275.99
421.54	279.04
421.91	281.99
422.28	285.09
422.66	288.44
423.03	291.85
423.40	295.21
423.77	298.80
424.15	302.39
424.52	306.12
424.89	310.35
425.26	314.29
425.64	318.10
426.01	322.25
426.38	326.59
426.75	331.17
427.13	335.69
427.50	340.59
427.87	345.51
428.24	350.49
428.61	354.97
428.99	360.48
429.36	365.96
429.73	371.53
430.10	377.13
430.47	382.82
430.85	388.57
431.22	394.70
431.59	401.43
431.96	407.67
432.33	414.60
432.70	421.29
433.08	429.23
433.45	436.61
433.82	444.03
434.19	452.49
434.56	460.66
434.93	468.53
435.30	476.25
435.68	484.92
436.05	494.01
436.42	502.42
436.79	510.10
437.16	518.54
437.53	527.38
437.90	536.09
438.27	544.77
438.64	553.66
439.01	562.15
439.38	569.51
439.75	576.73
440.13	584.92
440.50	592.57
440.87	598.54
441.24	605.14
441.61	612.18
441.98	617.08
442.35	622.80
442.72	628.96
443.09	634.75
443.46	638.25
443.83	639.92
444.20	641.85
444.57	644.54
444.94	645.74
445.31	646.76
445.68	648.17
446.05	648.24
446.42	646.92
446.79	645.53
447.16	643.74
447.53	642.40
447.90	638.60
448.27	634.84
448.64	630.04
449.01	626.28
449.37	620.04
449.74	614.13
450.11	607.24
450.48	599.21
450.85	591.21
451.22	584.22
451.59	577.60
451.96	571.33
452.33	563.06
452.70	555.55
453.07	546.85
453.43	537.66
453.80	529.32
454.17	521.26
454.54	513.46
454.91	505.32
455.28	497.36
455.65	489.80
456.02	482.90
456.38	476.53
456.75	468.69
457.12	462.11
457.49	455.69
457.86	449.32
458.23	444.10
458.59	438.40
458.96	432.62
459.33	427.44
459.70	422.25
460.07	418.16
460.43	413.38
460.80	409.17
461.17	405.43
461.54	401.33
461.91	397.45
462.27	393.47
462.64	390.24
463.01	386.73
463.38	383.50
463.74	379.57
464.11	376.53
464.48	374.00
464.85	371.22
465.21	369.05
465.58	366.73
465.95	363.99
466.32	361.66
466.68	359.37
467.05	357.13
467.42	354.98
467.78	352.66
468.15	350.60
468.52	348.91
468.88	346.65
469.25	344.73
469.62	343.29
469.98	341.79
470.35	340.24
470.72	338.75
471.08	336.96
471.45	335.65
471.82	334.37
472.18	332.79
472.55	331.71
472.92	330.35
473.28	329.19
473.65	328.05
474.02	327.12
474.38	326.30
474.75	325.59
475.11	324.61
475.48	323.93
475.85	323.23
476.21	322.59
476.58	322.10
476.94	321.71
477.31	321.21
477.67	320.73
478.04	320.42
478.41	320.18
478.77	320.48
479.14	320.14
479.50	319.99
479.87	320.06
480.23	320.09
480.60	320.05
480.96	320.11
481.33	320.59
481.69	320.73
482.06	320.97
482.42	321.30
482.79	321.72
483.15	322.18
483.52	322.90
483.88	323.38
484.25	324.00
484.61	324.60
484.98	325.32
485.34	326.23
485.71	327.13
486.07	328.07
486.44	328.68
486.80	329.77
487.17	330.92
487.53	332.37
487.90	333.88
488.26	335.56
488.62	337.26
488.99	338.76
489.35	340.56
489.72	342.40
490.08	344.26
490.44	346.30
490.81	348.49
491.17	350.57
491.54	353.05
491.90	355.60
492.26	358.34
492.63	361.15
492.99	363.93
493.36	367.04
493.72	370.42
494.08	373.96
494.45	377.73
494.81	381.69
495.17	385.43
495.54	389.61
495.90	393.80
496.26	398.32
496.63	403.02
496.99	407.83
497.35	412.91
497.72	418.37
498.08	423.97
498.44	429.75
498.80	435.89
499.17	442.01
499.53	448.32
499.89	454.99
500.26	461.79
500.62	468.83
500.98	476.28
501.34	483.60
501.71	491.30
502.07	499.05
502.43	507.09
502.79	515.52
503.16	524.25
503.52	533.28
503.88	542.41
504.24	551.87
504.60	561.95
504.97	572.52
505.33	583.01
505.69	594.11
506.05	605.30
506.41	616.60
506.78	628.52
507.14	640.69
507.50	653.17
507.86	665.97
508.22	679.26
508.59	692.28
508.95	705.98
509.31	720.19
509.67	734.75
510.03	749.17
510.39	764.00
510.75	779.07
511.12	794.54
511.48	810.27
511.84	826.07
512.20	841.99
512.56	857.91
512.92	874.59
513.28	891.34
513.64	908.45
514.00	925.95
514.37	943.64
514.73	961.66
515.09	979.73
515.45	998.03
515.81	1016.20
516.17	1035.28
516.53	1054.18
516.89	1072.76
517.25	1091.93
517.61	1112.28
517.97	1132.63
518.33	1152.68
518.69	1172.83
519.05	1193.35
519.41	1214.23
519.77	1235.40
520.13	1256.35
520.49	1277.20
520.85	1298.98
521.21	1320.15
521.57	1341.56
521.93	1362.30
522.29	1383.78
522.65	1404.56
523.01	1425.84
523.37	1446.67
523.73	1467.62
524.09	1488.29
524.45	1509.42
524.81	1530.55
525.17	1550.96
525.53	1571.53
525.89	1592.48
526.25	1613.43
526.61	1633.98
526.97	1654.90
527.33	1676.03
527.68	1698.15
528.04	1719.52
528.40	1739.65
528.76	1760.72
529.12	1781.17
529.48	1802.31
529.84	1822.37
530.20	1843.84
530.56	1864.45
530.91	1885.53
531.27	1905.96
531.63	1926.66
531.99	1947.23
532.35	1967.55
532.71	1988.06
533.07	2008.80
533.42	2028.75
533.78	2049.18
534.14	2069.04
534.50	2088.28
534.86	2107.89
535.21	2125.53
535.57	2144.28
535.93	2162.41
536.29	2180.57
536.65	2198.43
537.00	2215.88
537.36	2233.57
537.72	2250.09
538.08	2267.36
538.44	2284.45
538.79	2300.97
539.15	2317.62
539.51	2333.58
539.87	2348.88
540.22	2363.17
540.58	2377.46
540.94	2390.98
541.29	2403.43
541.65	2416.22
542.01	2429.17
542.37	2439.78
542.72	2450.76
543.08	2461.15
543.44	2472.87
543.79	2482.98
544.15	2493.24
544.51	2503.25
544.87	2512.80
545.22	2521.50
545.58	2529.26
545.94	2536.12
546.29	2542.78
546.65	2548.98
547.01	2554.59
547.36	2559.92
547.72	2565.26
548.07	2569.55
548.43	2574.86
548.79	2579.52
549.14	2583.87
549.50	2587.50
549.86	2591.44
550.21	2595.32
550.57	2598.74
550.92	2600.07
551.28	2601.18
551.64	2603.35
551.99	2605.44
552.35	2607.21
552.70	2609.08
553.06	2610.72
553.41	2612.02
553.77	2613.75
554.13	2615.40
554.48	2617.30
554.84	2618.91
555.19	2620.11
555.55	2621.58
555.90	2620.89
556.26	2620.43
556.61	2619.11
556.97	2617.21
557.32	2616.66
557.68	2615.51
558.03	2614.30
558.39	2613.25
558.74	2612.63
559.10	2609.74
559.45	2606.37
559.81	2601.72
560.16	2596.66
560.52	2592.23
560.87	2587.97
561.23	2582.90
561.58	2576.92
561.94	2569.93
562.29	2562.31
562.64	2555.73
563.00	2547.75
563.35	2541.33
563.71	2534.45
564.06	2527.90
564.42	2521.08
564.77	2513.97
565.12	2506.35
565.48	2498.69
565.83	2490.85
566.19	2483.00
566.54	2474.94
566.89	2466.35
567.25	2459.10
567.60	2452.02
567.96	2443.94
568.31	2435.98
568.66	2427.09
569.02	2418.22
569.37	2410.07
569.72	2402.92
570.08	2393.61
570.43	2383.95
570.78	2374.75
571.14	2365.07
571.49	2354.91
571.84	2345.41
572.20	2334.59
572.55	2324.70
572.90	2313.39
573.26	2302.81
573.61	2291.43
573.96	2280.35
574.31	2268.60
574.67	2256.61
575.02	2243.96
575.37	2231.37
575.72	2217.84
576.08	2205.61
576.43	2192.90
576.78	2179.70
577.13	2165.53
577.49	2152.32
577.84	2140.37
578.19	2128.05
578.54	2115.42
578.90	2103.38
579.25	2090.96
579.60	2078.66
579.95	2065.51
580.30	2052.40
580.66	2038.86
581.01	2025.32
581.36	2011.36
581.71	1998.84
582.06	1985.68
582.42	1972.89
582.77	1960.23
583.12	1948.39
583.47	1936.17
583.82	1923.92
584.17	1911.85
584.53	1899.96
584.88	1887.07
585.23	1874.00
585.58	1859.55
585.93	1846.45
586.28	1833.15
586.63	1819.30
586.98	1804.60
587.34	1791.21
587.69	1778.03
588.04	1765.10
588.39	1752.75
588.74	1740.75
589.09	1728.47
589.44	1715.77
589.79	1703.92
590.14	1691.90
590.49	1679.67
590.84	1667.20
591.19	1655.10
591.54	1642.66
591.89	1630.60
592.25	1620.32
592.60	1608.62
592.95	1597.48
593.30	1585.34
593.65	1573.23
594.00	1561.08
594.35	1551.39
594.70	1539.50
595.05	1528.03
595.40	1516.22
595.75	1504.21
596.10	1492.74
596.45	1481.16
596.80	1470.28
597.15	1458.67
597.50	1446.74
597.85	1435.35
598.19	1423.79
598.54	1412.32
598.89	1401.22
599.24	1390.65
599.59	1379.00
599.94	1368.21
600.29	1357.83
600.64	1347.25
600.99	1336.58
601.34	1327.09
601.69	1315.92
602.04	1306.12
602.39	1296.51
602.74	1287.30
603.08	1278.04
603.43	1268.79
603.78	1258.93
604.13	1249.22
604.48	1239.41
604.83	1229.88
605.18	1219.92
605.53	1210.45
605.87	1201.45
606.22	1192.83
606.57	1183.41
606.92	1173.88
607.27	1164.94
607.62	1155.87
607.96	1147.62
608.31	1139.46
608.66	1130.76
609.01	1122.15
609.36	1113.49
609.70	1104.90
610.05	1096.00
610.40	1087.60
610.75	1078.75
611.10	1070.38
611.44	1061.55
611.79	1053.53
612.14	1045.57
612.49	1037.69
612.83	1030.10
613.18	1022.20
613.53	1014.34
613.88	1006.35
614.22	998.69
614.57	990.75
614.92	982.84
615.27	975.18
615.61	967.31
615.96	959.70
616.31	952.10
616.65	945.03
617.00	937.48
617.35	930.33
617.70	923.11
618.04	915.90
618.39	909.06
618.74	902.73
619.08	895.67
619.43	888.63
619.78	881.53
620.12	874.18
620.47	867.12
620.82	859.70
621.16	852.77
621.51	846.25
621.85	839.67
622.20	833.08
622.55	826.40
622.89	820.10
623.24	813.65
623.59	807.07
623.93	800.71
624.28	794.54
624.62	788.87
624.97	782.88
625.32	777.01
625.66	770.97
626.01	764.63
626.35	759.04
626.70	753.40
627.04	748.17
627.39	742.73
627.73	737.37
628.08	732.30
628.43	726.71
628.77	721.23
629.12	716.13
629.46	711.15
629.81	706.22
630.15	701.24
630.50	696.47
630.84	691.76
631.19	686.83
631.53	682.31
631.88	677.07
632.22	672.18
632.57	667.73
632.91	663.11
633.26	658.79
633.60	654.17
633.95	649.41
634.29	644.61
634.64	640.27
634.98	635.57
635.32	631.05
635.67	627.15
636.01	622.99
636.36	618.50
636.70	614.59
637.05	610.40
637.39	606.26
637.73	602.02
638.08	598.11
638.42	593.90
638.77	589.45
639.11	585.08
639.45	580.66
639.80	576.13
640.14	572.00
640.49	568.04
640.83	564.11
641.17	560.47
641.52	556.87
641.86	553.22
642.20	549.92
642.55	546.20
642.89	542.50
643.23	538.95
643.58	535.85
643.92	532.15
644.26	528.81
644.61	525.67
644.95	522.23
645.29	518.78
645.64	515.72
645.98	512.54
646.32	509.61
646.66	506.63
647.01	503.74
647.35	500.89
647.69	497.95
648.04	495.16
648.38	492.35
648.72	489.36
649.06	486.25
649.41	483.15
649.75	480.22
650.09	477.38
650.43	474.63
650.78	471.69
651.12	468.82
651.46	466.02
651.80	463.23
652.14	460.59
652.49	458.03
652.83	455.26
653.17	452.76
653.51	450.07
653.85	447.65
654.20	445.07
654.54	442.38
654.88	439.62
655.22	437.35
655.56	434.87
655.90	432.38
656.25	430.08
656.59	427.91
656.93	425.75
657.27	423.61
657.61	421.17
657.95	418.91
658.29	416.69
658.64	414.53
658.98	412.13
659.32	409.75
659.66	407.46
660.00	405.25
660.34	403.17
660.68	401.14
661.02	398.99
661.36	397.07
661.70	395.07
662.05	393.19
662.39	391.14
662.73	389.30
663.07	387.78
663.41	385.90
663.75	383.94
664.09	382.05
664.43	380.08
664.77	378.39
665.11	376.54
665.45	374.89
665.79	373.14
666.13	371.46
666.47	369.84
666.81	368.14
667.15	366.55
667.49	364.99
667.83	363.59
668.17	362.03
668.51	360.54
668.85	359.19
669.19	358.05
669.53	356.45
669.87	354.89
670.21	353.29
670.55	351.99
670.89	350.88
671.23	349.50
671.57	348.12
671.91	346.75
672.25	345.37
672.58	344.24
672.92	342.87
673.26	341.66
673.60	340.45
673.94	339.35
674.28	338.23
674.62	337.11
674.96	335.81
675.30	334.74
675.64	333.55
675.97	332.37
676.31	330.99
676.65	329.84
676.99	328.83
677.33	327.73
677.67	326.53
678.01	325.19
678.34	324.14
678.68	323.22
679.02	322.20
679.36	321.26
679.70	320.22
680.04	319.35
680.37	318.30
680.71	317.41
681.05	316.41
681.39	315.46
681.73	314.46
682.06	313.55
682.40	312.61
682.74	311.90
683.08	311.18
683.42	310.26
683.75	309.48
684.09	308.55
684.43	307.78
684.77	307.05
685.10	306.30
685.44	305.56
685.78	304.68
686.12	303.90
686.45	303.15
686.79	302.23
687.13	301.53
687.46	300.91
687.80	300.22
688.14	299.50
688.48	298.78
688.81	298.07
689.15	297.45
689.49	296.70
689.82	295.96
690.16	295.09
690.50	294.44
690.83	293.80
691.17	293.14
691.51	292.40
691.84	291.79
692.18	291.10
692.52	290.35
692.85	289.76
693.19	289.33
693.52	288.69
693.86	288.07
694.20	287.40
694.53	286.73
694.87	286.08
695.21	285.46
695.54	284.85
695.88	284.17
696.21	283.35
696.55	282.87
696.88	282.23
697.22	281.69
697.56	281.16
697.89	280.46
698.23	279.92
698.56	279.39
698.90	278.90
699.23	278.40
699.57	277.95
699.90	277.41
700.24	276.75
700.58	276.27
700.91	275.87
701.25	275.75
701.58	275.62
701.92	275.26
702.25	274.71
702.59	274.22
702.92	273.75
703.26	273.37
703.59	272.88
703.93	272.88
704.26	272.44
704.60	272.00
704.93	271.59
705.26	271.07
705.60	270.67
705.93	270.07
706.27	269.75
706.60	269.47
706.94	269.22
707.27	268.75
707.61	268.40
707.94	267.97
708.27	267.15
708.61	266.33
708.94	265.85
709.28	265.49
709.61	265.08
709.94	264.78
710.28	264.41
710.61	264.05
710.95	263.24
711.28	263.16
711.61	262.76
711.95	262.60
712.28	262.21
712.61	261.85
712.95	261.81
713.28	261.63
713.61	261.14
713.95	260.64
714.28	260.30
714.61	259.89
714.95	259.57
715.28	259.18
715.61	258.86
715.95	258.64
716.28	258.25
716.61	258.10
716.95	257.68
717.28	257.36
717.61	257.09
717.94	256.77
718.28	256.07
718.61	255.76
718.94	255.22
719.27	255.00
719.61	254.74
719.94	254.33
720.27	253.79
720.60	253.51
720.94	253.32
721.27	253.13
721.60	252.93
721.93	252.60
722.27	252.52
722.60	252.35
722.93	251.96
723.26	251.84
723.59	251.40
723.93	251.32
724.26	251.17
724.59	250.90
724.92	250.70
725.25	250.71
725.59	250.58
725.92	250.51
726.25	250.32
726.58	250.15
726.91	249.87
727.24	249.80
727.57	249.63
727.91	249.37
728.24	249.29
728.57	249.10
728.90	249.06
729.23	248.77
729.56	248.80
729.89	248.64
730.22	248.39
730.55	248.29
730.89	248.06
731.22	247.86
731.55	247.64
731.88	247.48
732.21	247.23
732.54	247.03
732.87	246.91
733.20	246.76
733.53	246.64
733.86	246.59
734.19	246.34
734.52	246.35
734.85	246.47
735.18	246.17
735.51	246.24
735.84	246.02
736.17	246.03
736.50	245.65
736.83	246.04
737.16	245.96
737.49	245.82
737.82	245.73
738.15	245.66
738.48	245.52
738.81	245.31
739.14	245.13
739.47	244.94
739.80	244.70
740.13	244.54
740.46	244.22
740.79	244.02
741.12	243.84
741.45	243.51
741.78	243.13
742.11	243.09
742.44	242.74
742.77	242.65
743.10	242.42
743.43	242.23
743.75	241.58
744.08	242.01
744.41	241.83
744.74	241.61
745.07	241.33
745.40	241.34
745.73	241.49
746.06	241.31
746.39	241.23
746.71	241.04
747.04	240.90
747.37	240.85
747.70	240.71
748.03	240.65
748.36	240.55
748.68	240.47
749.01	240.25
749.34	240.13
749.67	240.05
750.00	239.99
750.33	240.29
750.65	240.27
750.98	239.54
751.31	239.50
751.64	239.35
751.97	239.58
752.29	239.43
752.62	239.05
752.95	238.90
753.28	238.71
753.60	238.62
753.93	238.65
754.26	238.58
754.59	238.35
754.91	238.15
755.24	238.14
755.57	237.95
755.90	237.81
756.22	237.57
756.55	237.38
756.88	237.16
757.20	236.74
757.53	236.45
757.86	236.44
758.19	236.27
758.51	236.30
758.84	235.94
759.17	235.73
759.49	235.70
759.82	235.87
760.15	235.87
760.47	235.81
760.80	235.58
761.13	235.48
761.45	235.39
761.78	235.30
762.11	235.16
762.43	235.11
762.76	235.03
763.08	235.10
763.41	235.11
763.74	235.07
764.06	234.98
764.39	234.93
764.71	234.85
765.04	234.82
765.37	234.61
765.69	234.51
766.02	234.49
766.34	234.40
766.67	234.14
767.00	234.17
767.32	234.28
767.65	234.47
767.97	234.43
768.30	234.38
768.62	234.36
768.95	234.24
769.27	234.16
769.60	234.20
769.92	234.10
770.25	233.89
770.57	233.78
770.90	233.63
771.22	233.53
771.55	233.43
771.87	233.36
772.20	233.31
772.52	233.67
772.85	234.17
773.17	234.17
773.50	234.12
773.82	233.98
774.15	233.75
774.47	233.49
774.80	233.42
775.12	233.42
775.45	233.35
775.77	233.38
776.09	233.37
776.42	233.30
776.74	233.37
777.07	233.33
777.39	233.29
777.72	233.32
778.04	233.34
778.36	233.31
778.69	233.26
779.01	233.31
779.33	232.81
779.66	232.26
779.98	232.14
780.31	232.10
780.63	232.24
780.95	232.23
781.28	232.16
781.60	232.07
781.92	232.07
782.25	232.04
782.57	231.96
782.89	231.88
783.22	231.82
783.54	231.66
783.86	231.69
784.19	231.61
784.51	231.67
784.83	231.59
785.16	231.48
785.48	231.50
785.80	231.42
786.12	231.48
786.45	231.39
786.77	231.36
787.09	231.35
787.42	231.10
787.74	231.15
788.06	231.07
788.38	231.03
788.71	230.93
789.03	230.89
789.35	230.95
789.67	230.81
789.99	230.77
790.32	230.66
790.64	230.66
790.96	231.08
791.28	230.83
791.61	230.78
791.93	230.85
792.25	230.80
792.57	231.11
792.89	230.95
793.21	230.94
793.54	230.86
793.86	230.77
794.18	230.79
794.50	230.63
794.82	230.57
795.14	230.61
795.47	230.67
795.79	230.68
796.11	230.53
796.43	230.55
796.75	230.50
797.07	230.54
797.39	230.46
797.71	230.00
798.04	230.04
798.36	230.05
798.68	230.01
799.00	230.00
799.32	229.72
799.64	229.81
799.96	229.79
800.28	229.85
800.60	229.77
800.92	229.76
801.24	229.66
801.56	229.76
801.89	229.60
802.21	229.57
802.53	229.41
802.85	229.51
803.17	229.66
803.49	229.53
803.81	229.50
804.13	229.44
804.45	229.40
804.77	229.44
805.09	229.41
805.41	229.36
805.73	229.25
806.05	229.13
806.37	229.14
806.69	229.07
807.01	229.03
807.33	229.08
807.65	228.94
807.97	229.22
808.28	229.12
808.60	229.18
808.92	229.11
809.24	229.47
809.56	229.32
809.88	229.15
810.20	229.22
810.52	229.24
810.84	229.16
811.16	229.11
811.48	229.03
811.80	229.16
812.12	229.10
812.43	229.11
812.75	229.02
813.07	228.95
813.39	229.02
813.71	228.97
814.03	228.89
814.35	228.91
814.67	228.65
814.98	228.63
815.30	228.59
815.62	228.50
815.94	228.11
816.26	228.30
816.58	228.19
816.89	228.17
817.21	228.07
817.53	228.06
817.85	228.08
818.17	228.13
818.48	227.96
818.80	228.04
819.12	228.00
819.44	228.00
819.76	227.90
820.07	227.86
820.39	227.82
820.71	227.84
821.03	227.85
821.34	227.88
821.66	227.91
821.98	227.94
822.30	227.95
822.61	228.26
822.93	228.02
823.25	228.02
823.57	228.01
823.88	228.13
824.20	228.12
824.52	228.20
824.83	228.10
825.15	228.11
825.47	228.07
825.79	228.10
826.10	228.12
826.42	228.13
826.74	228.15
827.05	228.08
827.37	228.15
827.69	228.08
828.00	228.09
828.32	228.11
828.64	228.06
828.95	228.33
829.27	228.10
829.58	228.11
829.90	228.26
830.22	228.32
830.53	228.19
830.85	228.18
831.17	228.10
831.48	228.10
831.80	228.06
832.11	228.00
832.43	227.93
832.75	227.87
833.06	228.09
833.38	227.95
833.69	227.94
834.01	227.89
834.32	227.89
834.64	227.78
834.96	227.75
835.27	227.68
835.59	227.43
835.90	227.42
836.22	227.42
836.53	227.30
836.85	227.15
837.16	227.63
837.48	227.57
837.79	227.63
838.11	227.62
838.42	227.64
838.74	227.71
839.05	227.70
839.37	227.72
839.68	227.46
840.00	227.47
840.31	227.59
840.63	227.50
840.94	227.44
841.26	227.47
841.57	227.44
841.88	227.53
842.20	227.51
842.51	227.34
842.83	227.32
843.14	227.72
843.46	227.77
843.77	227.49
844.08	227.52
844.40	227.39
844.71	227.35
845.03	227.25
845.34	227.20
845.65	227.15
845.97	227.07
846.28	227.03
846.60	227.07
846.91	227.01
847.22	227.05
847.54	227.16
847.85	227.15
848.16	227.12
848.48	226.99
848.79	227.17
849.10	227.30
849.42	227.33
849.73	226.91
850.04	226.90
850.36	226.73
850.67	226.80
850.98	226.86
851.30	226.93
851.61	227.01
851.92	226.95
852.23	227.11
852.55	227.17
852.86	227.27
853.17	227.36
853.49	227.48
853.80	227.54
854.11	227.59
854.42	227.62
854.74	227.54
855.05	227.64
855.36	227.42
855.67	227.44
855.99	227.45
856.30	228.02
856.61	228.03
856.92	228.00
857.23	227.96
857.55	227.87
857.86	227.81
858.17	227.84
858.48	227.82
858.79	227.71
859.11	227.75
859.42	227.74
859.73	227.59
860.04	227.58
860.35	227.47
860.66	227.28
860.98	227.22
861.29	227.33
861.60	227.28
861.91	227.44
862.22	227.38
862.53	227.35
862.84	226.77
863.16	226.84
863.47	226.76
863.78	226.76
864.09	226.80
864.40	226.85
864.71	226.85
865.02	226.90
865.33	226.93
865.64	226.87
865.95	226.88
866.27	227.23
866.58	227.08
866.89	227.13
867.20	227.17
867.51	227.17
867.82	227.11
868.13	227.20
868.44	227.02
868.75	227.11
869.06	227.10
869.37	227.09
869.68	227.00
869.99	227.12
870.30	227.21
870.61	227.29
870.92	227.30
871.23	227.31
871.54	227.39
871.85	227.45
872.16	227.53
872.47	227.50
872.78	227.22
873.09	227.35
873.40	227.35
873.71	227.41
874.02	227.44
874.33	227.40
874.64	227.30
874.95	227.42
875.26	227.28
875.56	227.31
875.87	227.29
876.18	227.25
876.49	227.70
876.80	227.58
877.11	227.48
877.42	227.44
877.73	227.41
878.04	227.33
878.35	227.32
878.66	227.28
878.96	227.23
879.27	227.20
879.58	227.15
879.89	227.06
880.20	227.20
880.51	227.08
880.82	227.08
881.12	227.21
881.43	227.01
881.74	226.96
882.05	226.89
882.36	226.93
882.67	226.95
882.97	226.47
883.28	226.40
883.59	226.42
883.90	226.44
884.21	226.49
884.51	226.45
884.82	226.34
885.13	226.30
885.44	226.25
885.74	226.18
886.05	226.14
886.36	226.16
886.67	225.96
886.98	226.31
887.28	226.35
887.59	226.30
887.90	226.37
888.20	226.36
888.51	226.44
888.82	226.43
889.13	226.50
889.43	226.90
889.74	226.90
890.05	226.81
890.35	226.80
890.66	226.77
890.97	226.75
891.28	226.67
891.58	226.76
891.89	226.79
892.20	226.84
892.50	226.81
892.81	226.84
893.12	226.76
893.42	226.48
893.73	226.55
894.04	226.45
894.34	226.51
894.65	226.54
894.95	226.48
895.26	226.40
895.57	226.59
895.87	226.14
896.18	226.26
896.48	226.42
896.79	226.45
897.10	226.46
897.40	226.42
897.71	226.50
898.01	226.43
898.32	226.50
898.63	226.42
898.93	226.50
899.24	226.48
899.54	226.60
899.85	226.59
900.15	226.50
900.46	226.56
900.76	226.63
901.07	226.65
901.38	226.67
901.68	226.80
901.99	226.48
902.29	226.52
902.60	226.47
902.90	226.36
903.21	226.39
903.51	226.35
903.82	226.51
904.12	226.60
904.43	226.65
904.73	226.68
905.03	226.78
905.34	227.21
905.64	227.22
905.95	227.18
906.25	227.17
906.56	227.18
906.86	227.17
907.17	227.11
907.47	227.22
907.77	227.21
908.08	227.10
908.38	227.19
908.69	227.25
908.99	227.35
909.30	227.44
909.60	227.47
909.90	227.53
910.21	227.41
910.51	227.35
910.81	227.30
911.12	227.27
911.42	227.27
911.73	226.75
912.03	226.75
912.33	226.85
912.64	226.87
912.94	226.87
913.24	226.88
913.55	226.84
913.85	226.72
914.15	226.82
914.46	226.90
914.76	226.90
915.06	226.82
915.37	226.69
915.67	226.64
915.97	226.59
916.27	226.43
916.58	226.47
916.88	226.45
917.18	226.42
917.49	226.77
917.79	226.67
918.09	226.83
918.39	226.98
918.70	226.94
919.00	226.97
919.30	227.19
919.60	227.08
919.91	227.05
920.21	227.07
920.51	226.98
920.81	226.94
921.12	226.95
921.42	226.98
921.72	227.04
922.02	227.05
922.32	227.07
922.63	227.13
922.93	227.30
923.23	227.28
923.53	227.23
923.83	226.87
924.13	226.95
924.44	226.86
924.74	226.92
925.04	227.03
925.34	227.05
925.64	226.83
925.94	226.93
926.24	227.12
926.55	227.08
926.85	227.10
927.15	227.03
927.45	227.07
927.75	227.02
928.05	226.98
928.35	226.89
928.65	226.97
928.95	227.05
929.26	226.92
929.56	227.06
929.86	227.13
930.16	227.09
930.46	227.01
930.76	227.06
931.06	226.77
931.36	226.63
931.66	226.62
931.96	226.64
932.26	226.63
932.56	226.48
932.86	226.45
933.16	226.45
933.46	226.40
933.76	226.31
934.06	226.46
934.36	226.66
934.66	226.70
934.96	226.58
935.26	226.53
935.56	226.58
935.86	226.41
936.16	226.40
936.46	226.39
936.76	226.45
937.06	226.32
937.36	226.38
937.66	226.39
937.96	226.31
938.26	226.30
938.56	226.26
938.86	226.30
939.16	226.44
939.46	226.44
939.76	226.53
940.06	226.65
940.35	226.48
940.65	226.20
940.95	226.25
941.25	226.17
941.55	226.13
941.85	226.07
942.15	226.15
942.45	226.24
942.75	226.24
943.04	226.30
943.34	226.45
943.64	226.45
943.94	226.42
944.24	226.48
944.54	226.51
944.84	226.56
945.13	226.48
945.43	226.42
945.73	226.37
946.03	226.30
946.33	226.16
946.62	226.14
946.92	226.20
947.22	226.20
947.52	226.29
947.82	226.29
948.11	226.30
948.41	226.27
948.71	226.10
949.01	226.13
949.31	226.04
949.60	225.97
949.90	225.99
950.20	225.95
950.50	225.94
950.79	225.90
951.09	225.87
951.39	225.94
951.69	225.92
951.98	226.01
952.28	226.03
952.58	225.98
952.87	225.99
953.17	226.06
953.47	226.02
953.76	225.95
954.06	225.96
954.36	225.83
954.66	225.80
954.95	225.99
955.25	225.97
955.55	226.01
955.84	225.93
956.14	226.02
956.44	226.06
956.73	225.99
957.03	226.05
957.32	226.10
957.62	226.06
957.92	226.11
958.21	226.12
958.51	226.72
958.81	226.80
959.10	226.88
959.40	226.96
959.69	226.95
959.99	227.08
960.29	226.95
960.58	226.95
960.88	227.13
961.17	227.07
961.47	227.19
961.76	227.12
962.06	227.23
962.36	227.17
962.65	227.20
962.95	227.22
963.24	227.13
963.54	227.09
963.83	227.09
964.13	227.12
964.42	227.00
964.72	226.59
965.01	226.61
965.31	226.64
965.60	226.52
965.90	226.81
966.19	226.65
966.49	226.76
966.78	226.73
967.08	226.71
967.37	226.69
967.67	226.57
967.96	226.63
968.26	226.62
968.55	226.65
968.85	226.58
969.14	226.54
969.43	226.55
969.73	226.52
970.02	226.49
970.32	226.37
970.61	226.38
970.91	226.19
971.20	226.14
971.49	226.08
971.79	226.13
972.08	225.83
972.38	225.94
972.67	225.92
972.96	226.05
973.26	225.89
973.55	226.04
973.85	226.04
974.14	225.96
974.43	225.95
974.73	225.84
975.02	225.80
975.31	225.90
975.61	225.82
975.90	225.75
976.19	225.69
976.49	225.72
976.78	225.76
977.07	225.84
977.37	225.88
977.66	225.94
977.95	225.91
978.24	225.98
978.54	226.07
978.83	226.03
979.12	225.96
979.42	226.03
979.71	225.94
980.00	225.95
980.29	226.07
980.59	226.03
980.88	226.25
981.17	226.28
981.46	226.24
981.76	226.29
982.05	226.44
982.34	226.55
982.63	226.65
982.93	226.67
983.22	226.81
983.51	226.83
983.80	226.87
984.09	226.94
984.39	226.84
984.68	226.80
984.97	226.88
985.26	226.87
985.55	226.85
985.85	226.77
986.14	226.82
986.43	226.87
986.72	226.83
987.01	226.65
987.30	226.64
987.59	226.66
987.89	226.78
988.18	226.70
988.47	226.70
988.76	226.67
989.05	226.61
989.34	226.53
989.63	226.67
989.92	226.67
990.22	226.58
990.51	226.64
990.80	226.64
991.09	226.67
991.38	226.77
991.67	226.77
991.96	226.76
992.25	226.80
992.54	226.71
992.83	226.75
993.12	226.72
993.41	226.84
993.70	227.01
993.99	227.10
994.28	227.15
994.58	227.18
994.87	227.12
995.16	227.14
995.45	227.06
995.74	226.92
996.03	226.93
996.32	226.98
996.61	227.13
996.90	227.07
997.19	227.01
997.48	227.01
997.77	227.00
998.06	226.95
998.34	226.86
998.63	226.85
998.92	226.85
999.21	226.96
999.50	226.90
999.79	226.76
1000.08	226.73
1000.37	226.75
1000.66	226.66
1000.95	226.77
1001.24	226.83
1001.53	226.91
1001.82	226.85
1002.11	226.74
1002.40	226.82
1002.68	226.93
1002.97	227.20
1003.26	227.21
1003.55	227.10
1003.84	227.11
1004.13	227.39
1004.42	227.39
1004.71	227.36
1004.99	227.29
1005.28	227.37
1005.57	227.34
1005.86	227.24
1006.15	227.14
1006.44	227.08
1006.72	227.16
1007.01	227.05
1007.30	227.01
1007.59	226.99
1007.88	226.99
1008.17	227.03
1008.45	226.85
1008.74	226.60
1009.03	226.41
1009.32	226.40
1009.60	226.41
1009.89	226.30
1010.18	226.08
1010.47	226.08
1010.76	226.09
1011.04	226.14
1011.33	226.11
1011.62	226.15
1011.91	226.19
1012.19	226.16
1012.48	226.13
1012.77	226.12
1013.05	226.45
1013.34	226.46
1013.63	226.38
1013.92	226.36
1014.20	226.34
1014.49	226.43
1014.78	226.48
1015.06	226.34
1015.35	226.31
1015.64	226.37
1015.92	226.50
1016.21	226.49
1016.50	226.50
1016.78	226.55
1017.07	226.57
1017.36	226.50
1017.64	226.46
1017.93	226.54
1018.22	226.48
1018.50	226.47
1018.79	226.44
1019.08	226.14
1019.36	226.15
1019.65	226.14
1019.93	226.29
1020.22	226.34
1020.51	226.55
1020.79	226.48
1021.08	224.35
1021.36	225.40
1021.65	226.30
1021.94	226.75
1022.22	226.85
1022.51	225.30
1022.79	227.90
1023.08	227.25
1023.36	231.85
1023.65	225.05
>>>>>End Processed Spectral Data<<<<<
