SpectraSuite Data File
++++++++++++++++++++++++++++++++++++
Date: Wed Sep 04 17:54:01 EDT 2013
User: lab3
Dark Spectrum Present: Yes
Reference Spectrum Present: No
Number of Sampled Component Spectra: 1
Spectrometers: USB2E7196
Integration Time (usec): 170000 (USB2E7196)
Spectra Averaged: 20 (USB2E7196)
Boxcar Smoothing: 10 (USB2E7196)
Correct for Electrical Dark: No (USB2E7196)
Strobe/Lamp Enabled: No (USB2E7196)
Correct for Detector Non-linearity: No (USB2E7196)
Correct for Stray Light: No (USB2E7196)
Number of Pixels in Processed Spectrum: 2048
>>>>>Begin Processed Spectral Data<<<<<
339.09	0.00
339.48	212.75
339.86	214.35
340.24	215.90
340.63	217.80
341.01	224.60
341.39	219.40
341.78	223.15
342.16	223.85
342.54	223.55
342.93	212.00
343.31	222.70
343.69	223.28
344.07	223.74
344.46	224.23
344.84	224.60
345.22	224.59
345.60	224.87
345.99	225.03
346.37	225.15
346.75	225.21
347.13	225.27
347.52	225.29
347.90	225.59
348.28	225.65
348.66	225.80
349.05	225.72
349.43	225.90
349.81	225.97
350.19	226.00
350.57	226.11
350.96	226.16
351.34	226.26
351.72	226.27
352.10	226.41
352.48	226.41
352.87	226.47
353.25	226.61
353.63	226.71
354.01	226.73
354.39	226.79
354.77	226.87
355.15	227.14
355.54	227.20
355.92	227.09
356.30	227.18
356.68	227.56
357.06	227.62
357.44	227.58
357.82	227.66
358.20	228.18
358.58	228.18
358.97	228.29
359.35	228.44
359.73	228.66
360.11	228.71
360.49	228.76
360.87	228.86
361.25	228.95
361.63	229.11
362.01	229.21
362.39	229.25
362.77	229.39
363.15	229.34
363.53	229.42
363.91	229.43
364.29	229.45
364.67	229.01
365.05	229.09
365.43	229.13
365.81	229.18
366.19	228.98
366.57	229.16
366.95	229.23
367.33	229.08
367.71	229.11
368.09	229.19
368.47	229.23
368.85	229.17
369.23	229.23
369.61	229.10
369.99	229.20
370.37	229.28
370.75	229.44
371.13	229.32
371.51	229.24
371.89	229.37
372.27	229.39
372.65	229.42
373.03	229.32
373.41	229.28
373.78	229.19
374.16	228.88
374.54	228.71
374.92	228.62
375.30	228.67
375.68	228.48
376.06	228.44
376.44	228.33
376.82	228.35
377.19	228.29
377.57	228.20
377.95	227.98
378.33	227.82
378.71	227.51
379.09	227.54
379.47	227.52
379.84	227.34
380.22	227.20
380.60	227.03
380.98	227.03
381.36	226.98
381.73	226.84
382.11	226.91
382.49	226.90
382.87	226.67
383.25	226.61
383.62	227.18
384.00	226.97
384.38	226.99
384.76	226.95
385.13	227.02
385.51	226.90
385.89	226.83
386.27	226.79
386.64	226.88
387.02	226.74
387.40	226.65
387.78	226.58
388.15	226.62
388.53	226.62
388.91	226.53
389.29	226.47
389.66	226.57
390.04	226.58
390.42	226.65
390.79	226.70
391.17	226.66
391.55	225.99
391.92	226.00
392.30	226.00
392.68	225.91
393.05	225.87
393.43	225.94
393.81	225.99
394.18	225.99
394.56	225.93
394.94	226.14
395.31	226.14
395.69	226.39
396.06	226.47
396.44	226.50
396.82	226.52
397.19	226.74
397.57	226.74
397.95	226.80
398.32	226.67
398.70	226.78
399.07	227.00
399.45	227.11
399.82	227.17
400.20	227.22
400.58	227.37
400.95	227.31
401.33	227.53
401.70	227.88
402.08	228.03
402.45	228.12
402.83	228.31
403.20	228.58
403.58	228.65
403.95	228.95
404.33	229.25
404.71	229.42
405.08	229.92
405.46	230.09
405.83	230.35
406.21	230.62
406.58	230.92
406.96	231.09
407.33	231.42
407.70	231.90
408.08	232.64
408.45	233.03
408.83	233.52
409.20	233.95
409.58	234.25
409.95	234.75
410.33	235.35
410.70	235.72
411.08	236.35
411.45	236.95
411.82	237.54
412.20	238.26
412.57	239.33
412.95	239.58
413.32	240.46
413.69	241.22
414.07	242.16
414.44	243.14
414.82	244.23
415.19	245.51
415.56	246.62
415.94	247.53
416.31	248.90
416.68	250.29
417.06	251.86
417.43	253.43
417.81	255.20
418.18	256.94
418.55	258.90
418.93	260.83
419.30	262.94
419.67	265.05
420.04	267.22
420.42	269.42
420.79	272.54
421.16	275.33
421.54	278.34
421.91	281.38
422.28	284.48
422.66	287.72
423.03	291.10
423.40	294.46
423.77	298.06
424.15	301.71
424.52	305.54
424.89	309.63
425.26	313.48
425.64	317.21
426.01	321.45
426.38	325.88
426.75	330.39
427.13	334.97
427.50	339.69
427.87	344.65
428.24	349.65
428.61	354.16
428.99	359.55
429.36	365.02
429.73	370.44
430.10	375.90
430.47	381.60
430.85	387.25
431.22	393.39
431.59	400.16
431.96	406.41
432.33	413.29
432.70	419.99
433.08	427.85
433.45	435.31
433.82	442.70
434.19	450.78
434.56	458.87
434.93	466.45
435.30	474.20
435.68	482.69
436.05	491.16
436.42	499.43
436.79	507.06
437.16	515.51
437.53	524.25
437.90	532.98
438.27	541.52
438.64	550.41
439.01	558.56
439.38	565.79
439.75	572.95
440.13	581.01
440.50	588.58
440.87	594.71
441.24	601.06
441.61	608.00
441.98	613.13
442.35	618.86
442.72	625.04
443.09	630.95
443.46	634.50
443.83	636.82
444.20	638.93
444.57	641.70
444.94	642.70
445.31	643.85
445.68	645.10
446.05	645.31
446.42	644.03
446.79	642.77
447.16	641.17
447.53	639.82
447.90	636.06
448.27	632.31
448.64	627.58
449.01	623.92
449.37	617.69
449.74	611.62
450.11	604.89
450.48	597.03
450.85	588.93
451.22	582.05
451.59	575.31
451.96	568.96
452.33	560.81
452.70	553.50
453.07	544.87
453.43	535.87
453.80	527.47
454.17	519.47
454.54	511.76
454.91	503.58
455.28	495.69
455.65	488.33
456.02	481.63
456.38	475.19
456.75	467.47
457.12	461.00
457.49	454.79
457.86	448.43
458.23	443.30
458.59	437.71
458.96	431.97
459.33	426.94
459.70	421.83
460.07	417.67
460.43	413.00
460.80	408.85
461.17	405.17
461.54	401.20
461.91	397.38
462.27	393.54
462.64	390.24
463.01	386.65
463.38	383.32
463.74	379.31
464.11	376.28
464.48	373.63
464.85	370.90
465.21	368.68
465.58	366.39
465.95	363.46
466.32	361.26
466.68	359.09
467.05	356.87
467.42	354.63
467.78	352.42
468.15	350.26
468.52	348.45
468.88	346.09
469.25	344.13
469.62	342.65
469.98	341.10
470.35	339.59
470.72	338.14
471.08	336.38
471.45	335.04
471.82	333.79
472.18	332.31
472.55	331.17
472.92	329.86
473.28	328.74
473.65	327.71
474.02	326.56
474.38	325.68
474.75	324.93
475.11	324.03
475.48	323.30
475.85	322.65
476.21	322.04
476.58	321.60
476.94	321.20
477.31	320.63
477.67	320.19
478.04	319.85
478.41	319.61
478.77	319.91
479.14	319.68
479.50	319.56
479.87	319.64
480.23	319.72
480.60	319.62
480.96	319.64
481.33	320.01
481.69	320.26
482.06	320.46
482.42	320.71
482.79	321.10
483.15	321.63
483.52	322.25
483.88	322.75
484.25	323.36
484.61	324.08
484.98	324.84
485.34	325.75
485.71	326.68
486.07	327.60
486.44	328.23
486.80	329.29
487.17	330.42
487.53	331.68
487.90	332.97
488.26	334.70
488.62	336.33
488.99	337.80
489.35	339.47
489.72	341.36
490.08	343.30
490.44	345.39
490.81	347.58
491.17	349.69
491.54	352.25
491.90	354.87
492.26	357.45
492.63	360.17
492.99	362.96
493.36	366.05
493.72	369.45
494.08	372.93
494.45	376.59
494.81	380.47
495.17	384.34
495.54	388.65
495.90	392.82
496.26	397.25
496.63	401.92
496.99	406.76
497.35	411.76
497.72	417.23
498.08	422.60
498.44	428.22
498.80	434.39
499.17	440.45
499.53	446.63
499.89	453.22
500.26	460.00
500.62	467.06
500.98	474.53
501.34	481.92
501.71	489.55
502.07	497.28
502.43	505.41
502.79	513.90
503.16	522.47
503.52	531.45
503.88	540.71
504.24	550.40
504.60	560.52
504.97	570.78
505.33	581.00
505.69	592.25
506.05	603.21
506.41	614.27
506.78	625.83
507.14	637.82
507.50	650.25
507.86	662.97
508.22	676.08
508.59	689.06
508.95	702.65
509.31	716.97
509.67	731.33
510.03	745.47
510.39	760.05
510.75	775.01
511.12	790.34
511.48	805.91
511.84	821.68
512.20	837.35
512.56	853.65
512.92	870.57
513.28	887.05
513.64	904.25
514.00	921.75
514.37	939.45
514.73	957.73
515.09	975.90
515.45	994.30
515.81	1012.56
516.17	1031.40
516.53	1050.08
516.89	1068.51
517.25	1087.82
517.61	1108.18
517.97	1128.48
518.33	1148.59
518.69	1168.68
519.05	1189.37
519.41	1210.00
519.77	1231.00
520.13	1251.63
520.49	1272.11
520.85	1294.42
521.21	1315.45
521.57	1336.80
521.93	1357.60
522.29	1378.75
522.65	1399.45
523.01	1420.04
523.37	1440.41
523.73	1461.20
524.09	1481.79
524.45	1502.41
524.81	1523.21
525.17	1543.65
525.53	1563.85
525.89	1584.81
526.25	1605.81
526.61	1626.00
526.97	1646.96
527.33	1668.14
527.68	1689.68
528.04	1710.87
528.40	1730.61
528.76	1751.75
529.12	1772.19
529.48	1793.04
529.84	1812.63
530.20	1833.93
530.56	1855.05
530.91	1876.22
531.27	1897.03
531.63	1917.40
531.99	1937.90
532.35	1957.97
532.71	1978.17
533.07	1998.99
533.42	2018.45
533.78	2038.41
534.14	2057.92
534.50	2076.85
534.86	2096.12
535.21	2113.77
535.57	2132.13
535.93	2149.83
536.29	2167.52
536.65	2185.41
537.00	2202.79
537.36	2220.90
537.72	2236.88
538.08	2253.81
538.44	2270.62
538.79	2286.52
539.15	2303.25
539.51	2319.36
539.87	2334.69
540.22	2348.75
540.58	2363.29
540.94	2376.78
541.29	2389.23
541.65	2402.09
542.01	2414.64
542.37	2425.08
542.72	2435.94
543.08	2446.45
543.44	2458.18
543.79	2468.06
544.15	2477.98
544.51	2488.27
544.87	2497.65
545.22	2506.79
545.58	2514.60
545.94	2521.29
546.29	2527.81
546.65	2533.85
547.01	2539.53
547.36	2545.20
547.72	2550.60
548.07	2554.35
548.43	2559.69
548.79	2564.09
549.14	2568.39
549.50	2572.21
549.86	2576.35
550.21	2580.57
550.57	2584.05
550.92	2585.15
551.28	2586.55
551.64	2588.82
551.99	2590.49
552.35	2591.86
552.70	2593.76
553.06	2595.26
553.41	2596.82
553.77	2598.35
554.13	2600.01
554.48	2601.46
554.84	2601.97
555.19	2603.14
555.55	2604.83
555.90	2604.08
556.26	2603.31
556.61	2601.63
556.97	2599.28
557.32	2598.19
557.68	2596.94
558.03	2595.63
558.39	2594.34
558.74	2593.46
559.10	2590.10
559.45	2586.44
559.81	2581.87
560.16	2576.36
560.52	2571.17
560.87	2566.38
561.23	2561.09
561.58	2555.17
561.94	2548.26
562.29	2541.16
562.64	2534.17
563.00	2525.89
563.35	2519.23
563.71	2512.60
564.06	2506.11
564.42	2499.75
564.77	2493.11
565.12	2485.17
565.48	2476.93
565.83	2469.10
566.19	2461.24
566.54	2453.71
566.89	2445.88
567.25	2438.27
567.60	2431.26
567.96	2424.03
568.31	2416.29
568.66	2407.64
569.02	2398.71
569.37	2390.26
569.72	2383.20
570.08	2373.74
570.43	2364.29
570.78	2355.19
571.14	2345.77
571.49	2335.60
571.84	2325.94
572.20	2315.04
572.55	2304.83
572.90	2294.19
573.26	2283.61
573.61	2272.32
573.96	2260.89
574.31	2248.75
574.67	2236.93
575.02	2224.09
575.37	2211.10
575.72	2197.76
576.08	2185.77
576.43	2173.19
576.78	2159.93
577.13	2145.84
577.49	2133.30
577.84	2121.48
578.19	2109.35
578.54	2096.92
578.90	2084.96
579.25	2072.66
579.60	2060.16
579.95	2047.31
580.30	2034.48
580.66	2021.00
581.01	2007.38
581.36	1993.69
581.71	1981.11
582.06	1968.30
582.42	1956.05
582.77	1943.76
583.12	1931.92
583.47	1919.52
583.82	1907.43
584.17	1895.81
584.53	1884.13
584.88	1871.39
585.23	1858.06
585.58	1843.83
585.93	1830.40
586.28	1817.30
586.63	1803.48
586.98	1789.53
587.34	1776.40
587.69	1763.08
588.04	1750.70
588.39	1738.74
588.74	1726.40
589.09	1714.24
589.44	1701.54
589.79	1689.33
590.14	1677.54
590.49	1665.55
590.84	1653.54
591.19	1641.65
591.54	1629.35
591.89	1617.15
592.25	1606.93
592.60	1595.78
592.95	1584.45
593.30	1572.55
593.65	1560.32
594.00	1548.25
594.35	1538.12
594.70	1526.32
595.05	1514.99
595.40	1502.86
595.75	1491.11
596.10	1480.11
596.45	1468.68
596.80	1457.85
597.15	1446.57
597.50	1434.67
597.85	1423.28
598.19	1411.82
598.54	1400.07
598.89	1388.86
599.24	1378.44
599.59	1366.74
599.94	1355.89
600.29	1345.63
600.64	1335.40
600.99	1324.88
601.34	1315.55
601.69	1304.57
602.04	1294.97
602.39	1285.20
602.74	1276.23
603.08	1266.91
603.43	1257.46
603.78	1247.73
604.13	1238.17
604.48	1228.53
604.83	1218.98
605.18	1209.17
605.53	1199.64
605.87	1190.76
606.22	1182.30
606.57	1172.87
606.92	1163.50
607.27	1154.55
607.62	1145.63
607.96	1137.32
608.31	1129.44
608.66	1120.80
609.01	1112.32
609.36	1103.94
609.70	1095.45
610.05	1086.91
610.40	1078.47
610.75	1069.93
611.10	1061.74
611.44	1053.25
611.79	1045.12
612.14	1037.13
612.49	1029.32
612.83	1021.93
613.18	1014.01
613.53	1006.23
613.88	998.42
614.22	990.87
614.57	982.92
614.92	975.29
615.27	967.56
615.61	959.86
615.96	952.30
616.31	944.72
616.65	937.51
617.00	930.27
617.35	922.92
617.70	915.75
618.04	908.58
618.39	901.50
618.74	895.00
619.08	888.14
619.43	881.17
619.78	874.18
620.12	866.86
620.47	860.01
620.82	852.85
621.16	845.96
621.51	839.56
621.85	833.15
622.20	826.51
622.55	820.03
622.89	813.56
623.24	807.30
623.59	801.10
623.93	794.75
624.28	788.60
624.62	783.13
624.97	777.34
625.32	771.60
625.66	765.74
626.01	759.66
626.35	754.06
626.70	748.65
627.04	743.54
627.39	738.13
627.73	732.89
628.08	727.99
628.43	722.73
628.77	717.30
629.12	712.29
629.46	707.48
629.81	702.89
630.15	698.19
630.50	693.26
630.84	688.36
631.19	683.60
631.53	679.08
631.88	673.84
632.22	668.99
632.57	664.49
632.91	659.91
633.26	655.60
633.60	650.92
633.95	646.25
634.29	641.46
634.64	637.11
634.98	632.23
635.32	627.76
635.67	623.71
636.01	619.52
636.36	615.10
636.70	611.09
637.05	606.67
637.39	602.47
637.73	598.58
638.08	594.75
638.42	590.61
638.77	586.34
639.11	582.04
639.45	577.84
639.80	573.46
640.14	569.24
640.49	565.12
640.83	561.39
641.17	557.79
641.52	554.07
641.86	550.41
642.20	547.45
642.55	543.75
642.89	540.08
643.23	536.49
643.58	533.43
643.92	529.87
644.26	526.49
644.61	523.30
644.95	519.90
645.29	516.40
645.64	513.30
645.98	510.22
646.32	507.28
646.66	504.08
647.01	501.21
647.35	498.67
647.69	495.87
648.04	492.98
648.38	490.13
648.72	487.26
649.06	484.30
649.41	481.15
649.75	478.17
650.09	475.47
650.43	472.64
650.78	469.56
651.12	466.67
651.46	463.98
651.80	461.12
652.14	458.36
652.49	455.74
652.83	453.15
653.17	450.47
653.51	447.74
653.85	445.40
654.20	442.92
654.54	440.21
654.88	437.61
655.22	435.51
655.56	433.10
655.90	430.80
656.25	428.63
656.59	426.35
656.93	424.31
657.27	422.14
657.61	419.70
657.95	417.53
658.29	415.40
658.64	413.24
658.98	411.08
659.32	408.71
659.66	406.70
660.00	404.54
660.34	402.49
660.68	400.55
661.02	398.52
661.36	396.46
661.70	394.50
662.05	392.58
662.39	390.33
662.73	388.49
663.07	386.89
663.41	384.89
663.75	382.93
664.09	380.92
664.43	378.91
664.77	377.31
665.11	375.52
665.45	373.72
665.79	372.09
666.13	370.38
666.47	368.84
666.81	367.07
667.15	365.35
667.49	363.96
667.83	362.57
668.17	361.08
668.51	359.70
668.85	358.37
669.19	357.25
669.53	355.78
669.87	354.19
670.21	352.50
670.55	351.19
670.89	350.14
671.23	348.86
671.57	347.45
671.91	346.09
672.25	344.76
672.58	343.61
672.92	342.11
673.26	340.90
673.60	339.75
673.94	338.62
674.28	337.61
674.62	336.44
674.96	335.04
675.30	333.83
675.64	332.63
675.97	331.47
676.31	330.14
676.65	328.98
676.99	328.08
677.33	326.98
677.67	325.98
678.01	324.59
678.34	323.48
678.68	322.66
679.02	321.71
679.36	320.74
679.70	319.72
680.04	318.96
680.37	318.05
680.71	317.03
681.05	316.18
681.39	315.29
681.73	314.28
682.06	313.52
682.40	312.69
682.74	311.85
683.08	311.06
683.42	310.09
683.75	309.39
684.09	308.39
684.43	307.63
684.77	306.74
685.10	306.04
685.44	305.25
685.78	304.40
686.12	303.61
686.45	302.85
686.79	301.99
687.13	301.21
687.46	300.48
687.80	299.81
688.14	299.01
688.48	298.14
688.81	297.45
689.15	296.75
689.49	296.00
689.82	295.30
690.16	294.40
690.50	293.75
690.83	293.04
691.17	292.25
691.51	291.50
691.84	290.85
692.18	290.06
692.52	289.40
692.85	288.75
693.19	288.27
693.52	287.67
693.86	286.99
694.20	286.33
694.53	285.72
694.87	285.03
695.21	284.41
695.54	283.87
695.88	283.20
696.21	282.36
696.55	281.72
696.88	281.08
697.22	280.45
697.56	279.95
697.89	279.26
698.23	278.83
698.56	278.27
698.90	277.79
699.23	277.39
699.57	276.92
699.90	276.37
700.24	275.66
700.58	275.10
700.91	274.79
701.25	274.64
701.58	274.39
701.92	274.11
702.25	273.62
702.59	273.07
702.92	272.56
703.26	272.28
703.59	271.85
703.93	271.86
704.26	271.57
704.60	271.18
704.93	270.79
705.26	270.33
705.60	270.00
705.93	269.46
706.27	269.11
706.60	268.81
706.94	268.72
707.27	268.33
707.61	268.05
707.94	267.57
708.27	266.77
708.61	266.05
708.94	265.54
709.28	265.03
709.61	264.60
709.94	264.28
710.28	263.84
710.61	263.52
710.95	262.70
711.28	262.56
711.61	262.16
711.95	261.93
712.28	261.56
712.61	261.22
712.95	261.11
713.28	260.98
713.61	260.58
713.95	259.95
714.28	259.59
714.61	259.22
714.95	258.82
715.28	258.48
715.61	258.17
715.95	257.85
716.28	257.64
716.61	257.43
716.95	257.07
717.28	256.87
717.61	256.52
717.94	256.21
718.28	255.55
718.61	255.23
718.94	254.80
719.27	254.55
719.61	254.32
719.94	253.96
720.27	253.46
720.60	253.12
720.94	252.94
721.27	252.76
721.60	252.62
721.93	252.50
722.27	252.47
722.60	252.36
722.93	252.10
723.26	251.99
723.59	251.71
723.93	251.58
724.26	251.33
724.59	251.08
724.92	250.90
725.25	250.84
725.59	250.56
725.92	250.49
726.25	250.22
726.58	249.95
726.91	249.69
727.24	249.60
727.57	249.42
727.91	249.14
728.24	249.02
728.57	248.72
728.90	248.52
729.23	248.19
729.56	248.20
729.89	248.05
730.22	247.79
730.55	247.66
730.89	247.53
731.22	247.32
731.55	247.16
731.88	247.03
732.21	246.74
732.54	246.67
732.87	246.45
733.20	246.33
733.53	246.18
733.86	246.11
734.19	245.85
734.52	245.78
734.85	245.96
735.18	245.75
735.51	245.84
735.84	245.66
736.17	245.63
736.50	245.20
736.83	245.55
737.16	245.43
737.49	245.30
737.82	245.07
738.15	245.00
738.48	244.83
738.81	244.66
739.14	244.58
739.47	244.29
739.80	244.10
740.13	243.96
740.46	243.71
740.79	243.43
741.12	243.25
741.45	243.02
741.78	242.63
742.11	242.53
742.44	242.16
742.77	242.08
743.10	241.85
743.43	241.69
743.75	241.09
744.08	241.56
744.41	241.38
744.74	241.22
745.07	241.01
745.40	240.97
745.73	241.02
746.06	240.84
746.39	240.86
746.71	240.74
747.04	240.58
747.37	240.45
747.70	240.42
748.03	240.32
748.36	240.28
748.68	240.11
749.01	239.85
749.34	239.69
749.67	239.56
750.00	239.53
750.33	239.79
750.65	239.70
750.98	239.01
751.31	238.88
751.64	238.80
751.97	238.93
752.29	238.89
752.62	238.54
752.95	238.51
753.28	238.32
753.60	238.16
753.93	238.26
754.26	238.21
754.59	238.07
754.91	237.89
755.24	237.70
755.57	237.62
755.90	237.51
756.22	237.35
756.55	237.12
756.88	236.91
757.20	236.45
757.53	236.24
757.86	236.15
758.19	236.15
758.51	236.07
758.84	235.76
759.17	235.60
759.49	235.59
759.82	235.67
760.15	235.63
760.47	235.53
760.80	235.28
761.13	235.34
761.45	235.26
761.78	235.24
762.11	235.22
762.43	235.07
762.76	235.00
763.08	235.09
763.41	235.20
763.74	235.18
764.06	235.11
764.39	234.98
764.71	234.78
765.04	234.55
765.37	234.43
765.69	234.36
766.02	234.18
766.34	234.05
766.67	233.80
767.00	233.84
767.32	234.05
767.65	234.23
767.97	234.06
768.30	233.99
768.62	233.88
768.95	233.79
769.27	233.74
769.60	233.80
769.92	233.61
770.25	233.37
770.57	233.28
770.90	233.24
771.22	233.21
771.55	233.28
771.87	233.30
772.20	233.22
772.52	233.51
772.85	234.11
773.17	234.08
773.50	233.97
773.82	233.82
774.15	233.51
774.47	233.17
774.80	233.06
775.12	232.98
775.45	232.95
775.77	232.93
776.09	232.87
776.42	232.82
776.74	232.98
777.07	232.92
777.39	232.85
777.72	232.72
778.04	232.69
778.36	232.55
778.69	232.51
779.01	232.52
779.33	232.08
779.66	231.37
779.98	231.27
780.31	231.20
780.63	231.39
780.95	231.43
781.28	231.37
781.60	231.28
781.92	231.28
782.25	231.20
782.57	231.12
782.89	231.14
783.22	230.96
783.54	230.74
783.86	230.79
784.19	230.65
784.51	230.73
784.83	230.66
785.16	230.57
785.48	230.48
785.80	230.43
786.12	230.44
786.45	230.43
786.77	230.39
787.09	230.39
787.42	230.06
787.74	230.04
788.06	230.04
788.38	230.03
788.71	229.84
789.03	229.83
789.35	229.90
789.67	229.75
789.99	229.79
790.32	229.78
790.64	229.77
790.96	230.14
791.28	230.05
791.61	229.93
791.93	229.98
792.25	229.90
792.57	230.18
792.89	230.05
793.21	230.13
793.54	230.06
793.86	229.92
794.18	229.97
794.50	229.90
794.82	229.84
795.14	229.85
795.47	229.99
795.79	229.99
796.11	229.85
796.43	229.82
796.75	229.75
797.07	229.74
797.39	229.70
797.71	229.43
798.04	229.40
798.36	229.45
798.68	229.47
799.00	229.54
799.32	229.30
799.64	229.41
799.96	229.28
800.28	229.36
800.60	229.30
800.92	229.29
801.24	229.22
801.56	229.25
801.89	229.24
802.21	229.20
802.53	229.13
802.85	229.21
803.17	229.41
803.49	229.33
803.81	229.28
804.13	229.18
804.45	229.06
804.77	229.11
805.09	229.12
805.41	229.05
805.73	228.94
806.05	228.86
806.37	228.73
806.69	228.72
807.01	228.72
807.33	228.77
807.65	228.68
807.97	228.90
808.28	228.82
808.60	228.77
808.92	228.73
809.24	229.00
809.56	228.90
809.88	228.70
810.20	228.74
810.52	228.83
810.84	228.81
811.16	228.75
811.48	228.69
811.80	228.85
812.12	228.72
812.43	228.79
812.75	228.70
813.07	228.77
813.39	228.86
813.71	228.79
814.03	228.83
814.35	228.80
814.67	228.60
814.98	228.67
815.30	228.62
815.62	228.61
815.94	228.29
816.26	228.49
816.58	228.40
816.89	228.38
817.21	228.26
817.53	228.25
817.85	228.23
818.17	228.17
818.48	228.04
818.80	228.17
819.12	228.12
819.44	228.10
819.76	228.00
820.07	227.93
820.39	227.95
820.71	228.01
821.03	228.03
821.34	228.04
821.66	228.06
821.98	228.08
822.30	227.93
822.61	228.20
822.93	227.97
823.25	228.00
823.57	227.98
823.88	227.99
824.20	227.99
824.52	228.10
824.83	228.08
825.15	227.96
825.47	227.95
825.79	227.95
826.10	227.94
826.42	227.93
826.74	228.00
827.05	227.88
827.37	227.81
827.69	227.79
828.00	227.72
828.32	227.60
828.64	227.58
828.95	227.90
829.27	227.75
829.58	227.73
829.90	227.74
830.22	227.85
830.53	227.78
830.85	227.69
831.17	227.59
831.48	227.61
831.80	227.64
832.11	227.54
832.43	227.52
832.75	227.49
833.06	227.74
833.38	227.60
833.69	227.57
834.01	227.60
834.32	227.51
834.64	227.54
834.96	227.57
835.27	227.56
835.59	227.34
835.90	227.29
836.22	227.24
836.53	227.09
836.85	226.99
837.16	227.45
837.48	227.45
837.79	227.55
838.11	227.58
838.42	227.59
838.74	227.62
839.05	227.58
839.37	227.49
839.68	227.23
840.00	227.19
840.31	227.35
840.63	227.26
840.94	227.26
841.26	227.10
841.57	227.10
841.88	227.13
842.20	227.07
842.51	226.96
842.83	227.02
843.14	227.47
843.46	227.43
843.77	227.15
844.08	227.12
844.40	227.04
844.71	226.91
845.03	226.85
845.34	226.88
845.65	226.82
845.97	226.93
846.28	226.89
846.60	226.95
846.91	226.83
847.22	226.80
847.54	226.90
847.85	226.99
848.16	226.94
848.48	226.82
848.79	227.04
849.10	227.11
849.42	227.05
849.73	226.66
850.04	226.68
850.36	226.59
850.67	226.67
850.98	226.61
851.30	226.70
851.61	226.64
851.92	226.66
852.23	226.87
852.55	226.87
852.86	226.89
853.17	226.90
853.49	227.00
853.80	227.12
854.11	227.12
854.42	227.19
854.74	227.13
855.05	227.15
855.36	226.92
855.67	226.92
855.99	226.98
856.30	227.54
856.61	227.51
856.92	227.42
857.23	227.45
857.55	227.48
857.86	227.46
858.17	227.55
858.48	227.42
858.79	227.29
859.11	227.30
859.42	227.34
859.73	227.26
860.04	227.25
860.35	227.07
860.66	226.95
860.98	226.91
861.29	227.06
861.60	227.04
861.91	227.12
862.22	227.04
862.53	226.99
862.84	226.46
863.16	226.61
863.47	226.58
863.78	226.56
864.09	226.62
864.40	226.65
864.71	226.66
865.02	226.80
865.33	226.74
865.64	226.65
865.95	226.62
866.27	226.96
866.58	226.85
866.89	226.97
867.20	227.00
867.51	226.91
867.82	226.86
868.13	227.02
868.44	226.96
868.75	227.11
869.06	227.09
869.37	227.16
869.68	227.03
869.99	227.17
870.30	227.23
870.61	227.21
870.92	227.09
871.23	227.09
871.54	227.10
871.85	227.30
872.16	227.39
872.47	227.33
872.78	227.09
873.09	227.17
873.40	227.17
873.71	227.23
874.02	227.32
874.33	227.26
874.64	227.15
874.95	227.22
875.26	227.08
875.56	227.10
875.87	227.10
876.18	227.05
876.49	227.53
876.80	227.42
877.11	227.43
877.42	227.49
877.73	227.48
878.04	227.35
878.35	227.30
878.66	227.34
878.96	227.30
879.27	227.23
879.58	227.19
879.89	227.11
880.20	227.17
880.51	227.22
880.82	227.25
881.12	227.29
881.43	227.16
881.74	227.09
882.05	227.10
882.36	227.09
882.67	227.14
882.97	226.60
883.28	226.53
883.59	226.54
883.90	226.61
884.21	226.65
884.51	226.66
884.82	226.59
885.13	226.59
885.44	226.60
885.74	226.62
886.05	226.60
886.36	226.62
886.67	226.47
886.98	226.59
887.28	226.70
887.59	226.71
887.90	226.71
888.20	226.73
888.51	226.81
888.82	226.73
889.13	226.78
889.43	227.19
889.74	227.23
890.05	227.08
890.35	226.98
890.66	226.94
890.97	226.93
891.28	226.89
891.58	226.88
891.89	226.92
892.20	226.90
892.50	226.89
892.81	226.88
893.12	226.88
893.42	226.68
893.73	226.62
894.04	226.54
894.34	226.64
894.65	226.62
894.95	226.57
895.26	226.57
895.57	226.75
895.87	226.26
896.18	226.30
896.48	226.35
896.79	226.40
897.10	226.47
897.40	226.46
897.71	226.51
898.01	226.44
898.32	226.41
898.63	226.39
898.93	226.40
899.24	226.39
899.54	226.35
899.85	226.31
900.15	226.29
900.46	226.34
900.76	226.36
901.07	226.34
901.38	226.30
901.68	226.37
901.99	226.11
902.29	226.08
902.60	226.05
902.90	226.05
903.21	225.96
903.51	225.86
903.82	225.98
904.12	225.98
904.43	225.97
904.73	225.98
905.03	226.01
905.34	226.44
905.64	226.45
905.95	226.54
906.25	226.52
906.56	226.50
906.86	226.41
907.17	226.38
907.47	226.45
907.77	226.46
908.08	226.43
908.38	226.45
908.69	226.54
908.99	226.64
909.30	226.65
909.60	226.70
909.90	226.82
910.21	226.66
910.51	226.57
910.81	226.62
911.12	226.71
911.42	226.68
911.73	226.21
912.03	226.20
912.33	226.21
912.64	226.18
912.94	226.12
913.24	226.10
913.55	226.07
913.85	226.09
914.15	226.14
914.46	226.16
914.76	226.13
915.06	226.11
915.37	225.99
915.67	225.95
915.97	225.95
916.27	225.79
916.58	225.81
916.88	225.85
917.18	225.90
917.49	226.20
917.79	226.26
918.09	226.35
918.39	226.49
918.70	226.48
919.00	226.53
919.30	226.77
919.60	226.79
919.91	226.70
920.21	226.61
920.51	226.53
920.81	226.43
921.12	226.50
921.42	226.45
921.72	226.49
922.02	226.54
922.32	226.61
922.63	226.65
922.93	226.91
923.23	226.94
923.53	226.79
923.83	226.43
924.13	226.51
924.44	226.45
924.74	226.53
925.04	226.67
925.34	226.75
925.64	226.64
925.94	226.62
926.24	226.97
926.55	226.95
926.85	227.02
927.15	227.14
927.45	227.17
927.75	227.22
928.05	227.25
928.35	227.26
928.65	227.37
928.95	227.41
929.26	227.19
929.56	227.22
929.86	227.27
930.16	227.22
930.46	227.10
930.76	227.13
931.06	226.96
931.36	226.74
931.66	226.81
931.96	226.74
932.26	226.70
932.56	226.50
932.86	226.52
933.16	226.55
933.46	226.46
933.76	226.39
934.06	226.47
934.36	226.65
934.66	226.63
934.96	226.55
935.26	226.56
935.56	226.67
935.86	226.58
936.16	226.58
936.46	226.60
936.76	226.57
937.06	226.51
937.36	226.45
937.66	226.53
937.96	226.40
938.26	226.35
938.56	226.42
938.86	226.35
939.16	226.44
939.46	226.44
939.76	226.51
940.06	226.48
940.35	226.39
940.65	226.15
940.95	226.19
941.25	226.04
941.55	225.98
941.85	225.96
942.15	226.13
942.45	226.30
942.75	226.29
943.04	226.31
943.34	226.41
943.64	226.48
943.94	226.35
944.24	226.43
944.54	226.47
944.84	226.50
945.13	226.48
945.43	226.47
945.73	226.40
946.03	226.34
946.33	226.31
946.62	226.35
946.92	226.28
947.22	226.30
947.52	226.33
947.82	226.41
948.11	226.26
948.41	226.13
948.71	225.93
949.01	225.97
949.31	225.99
949.60	225.98
949.90	225.94
950.20	225.97
950.50	225.96
950.79	225.95
951.09	225.93
951.39	225.93
951.69	225.87
951.98	225.94
952.28	225.97
952.58	225.99
952.87	225.88
953.17	226.00
953.47	225.96
953.76	225.96
954.06	225.88
954.36	225.88
954.66	225.86
954.95	225.98
955.25	225.95
955.55	225.93
955.84	225.86
956.14	225.95
956.44	226.03
956.73	225.93
957.03	226.00
957.32	226.06
957.62	226.07
957.92	226.14
958.21	226.15
958.51	226.70
958.81	226.71
959.10	226.82
959.40	226.87
959.69	226.88
959.99	226.99
960.29	226.97
960.58	227.04
960.88	227.22
961.17	227.17
961.47	227.27
961.76	227.23
962.06	227.36
962.36	227.24
962.65	227.21
962.95	227.21
963.24	227.07
963.54	227.05
963.83	227.04
964.13	227.02
964.42	226.91
964.72	226.51
965.01	226.53
965.31	226.46
965.60	226.39
965.90	226.70
966.19	226.61
966.49	226.64
966.78	226.56
967.08	226.45
967.37	226.48
967.67	226.35
967.96	226.50
968.26	226.38
968.55	226.56
968.85	226.58
969.14	226.65
969.43	226.68
969.73	226.62
970.02	226.67
970.32	226.62
970.61	226.64
970.91	226.50
971.20	226.40
971.49	226.39
971.79	226.45
972.08	226.11
972.38	226.13
972.67	226.18
972.96	226.21
973.26	226.16
973.55	226.31
973.85	226.29
974.14	226.15
974.43	226.31
974.73	226.15
975.02	226.14
975.31	226.15
975.61	226.15
975.90	226.15
976.19	226.10
976.49	226.22
976.78	226.23
977.07	226.31
977.37	226.43
977.66	226.49
977.95	226.39
978.24	226.47
978.54	226.56
978.83	226.48
979.12	226.50
979.42	226.55
979.71	226.46
980.00	226.51
980.29	226.55
980.59	226.35
980.88	226.51
981.17	226.44
981.46	226.35
981.76	226.38
982.05	226.53
982.34	226.56
982.63	226.52
982.93	226.53
983.22	226.59
983.51	226.59
983.80	226.69
984.09	226.77
984.39	226.69
984.68	226.64
984.97	226.74
985.26	226.74
985.55	226.76
985.85	226.66
986.14	226.72
986.43	226.79
986.72	226.83
987.01	226.71
987.30	226.71
987.59	226.75
987.89	226.82
988.18	226.65
988.47	226.60
988.76	226.53
989.05	226.52
989.34	226.49
989.63	226.64
989.92	226.54
990.22	226.45
990.51	226.45
990.80	226.43
991.09	226.39
991.38	226.47
991.67	226.44
991.96	226.42
992.25	226.40
992.54	226.30
992.83	226.25
993.12	226.17
993.41	226.27
993.70	226.45
993.99	226.48
994.28	226.53
994.58	226.60
994.87	226.60
995.16	226.52
995.45	226.35
995.74	226.11
996.03	226.17
996.32	226.27
996.61	226.35
996.90	226.34
997.19	226.30
997.48	226.26
997.77	226.24
998.06	226.27
998.34	226.24
998.63	226.26
998.92	226.30
999.21	226.38
999.50	226.34
999.79	226.16
1000.08	226.08
1000.37	226.07
1000.66	226.04
1000.95	226.15
1001.24	226.27
1001.53	226.39
1001.82	226.37
1002.11	226.20
1002.40	226.23
1002.68	226.32
1002.97	226.63
1003.26	226.57
1003.55	226.45
1003.84	226.52
1004.13	226.63
1004.42	226.60
1004.71	226.64
1004.99	226.62
1005.28	226.77
1005.57	226.76
1005.86	226.75
1006.15	226.73
1006.44	226.68
1006.72	226.70
1007.01	226.64
1007.30	226.59
1007.59	226.57
1007.88	226.57
1008.17	226.63
1008.45	226.52
1008.74	226.34
1009.03	226.11
1009.32	226.12
1009.60	226.18
1009.89	226.10
1010.18	225.91
1010.47	225.88
1010.76	225.83
1011.04	225.84
1011.33	225.83
1011.62	225.89
1011.91	225.90
1012.19	225.95
1012.48	225.95
1012.77	225.86
1013.05	226.10
1013.34	226.08
1013.63	226.05
1013.92	226.11
1014.20	226.11
1014.49	226.13
1014.78	226.23
1015.06	226.07
1015.35	226.11
1015.64	226.17
1015.92	226.14
1016.21	226.14
1016.50	226.14
1016.78	226.17
1017.07	226.28
1017.36	226.17
1017.64	226.02
1017.93	226.06
1018.22	226.03
1018.50	226.03
1018.79	226.08
1019.08	225.75
1019.36	225.81
1019.65	225.77
1019.93	225.85
1020.22	225.90
1020.51	226.15
1020.79	225.93
1021.08	225.80
1021.36	224.85
1021.65	226.25
1021.94	224.50
1022.22	226.70
1022.51	225.10
1022.79	227.60
1023.08	226.55
1023.36	230.95
1023.65	223.25
>>>>>End Processed Spectral Data<<<<<
