SpectraSuite Data File
++++++++++++++++++++++++++++++++++++
Date: Wed Sep 04 17:50:19 EDT 2013
User: lab3
Dark Spectrum Present: Yes
Reference Spectrum Present: No
Number of Sampled Component Spectra: 1
Spectrometers: USB2E7196
Integration Time (usec): 170000 (USB2E7196)
Spectra Averaged: 20 (USB2E7196)
Boxcar Smoothing: 10 (USB2E7196)
Correct for Electrical Dark: No (USB2E7196)
Strobe/Lamp Enabled: No (USB2E7196)
Correct for Detector Non-linearity: No (USB2E7196)
Correct for Stray Light: No (USB2E7196)
Number of Pixels in Processed Spectrum: 2048
>>>>>Begin Processed Spectral Data<<<<<
339.09	0.00
339.48	212.45
339.86	213.85
340.24	215.60
340.63	216.70
341.01	226.05
341.39	219.95
341.78	221.45
342.16	224.75
342.54	223.95
342.93	212.12
343.31	222.78
343.69	223.37
344.07	223.83
344.46	224.28
344.84	224.68
345.22	224.65
345.60	224.97
345.99	225.20
346.37	225.20
346.75	225.19
347.13	225.28
347.52	225.38
347.90	225.63
348.28	225.64
348.66	225.69
349.05	225.43
349.43	225.44
349.81	225.48
350.19	225.50
350.57	225.61
350.96	225.75
351.34	225.86
351.72	225.94
352.10	226.11
352.48	226.19
352.87	226.25
353.25	226.30
353.63	226.30
354.01	226.30
354.39	226.46
354.77	226.59
355.15	226.80
355.54	226.77
355.92	226.70
356.30	226.83
356.68	227.26
357.06	227.41
357.44	227.43
357.82	227.42
358.20	227.80
358.58	227.84
358.97	227.91
359.35	228.12
359.73	228.26
360.11	228.25
360.49	228.29
360.87	228.27
361.25	228.36
361.63	228.58
362.01	228.65
362.39	228.60
362.77	228.73
363.15	228.74
363.53	228.84
363.91	228.84
364.29	228.84
364.67	228.40
365.05	228.48
365.43	228.61
365.81	228.77
366.19	228.72
366.57	228.89
366.95	228.95
367.33	228.85
367.71	228.82
368.09	229.01
368.47	229.07
368.85	229.14
369.23	229.25
369.61	229.07
369.99	229.23
370.37	229.30
370.75	229.59
371.13	229.48
371.51	229.42
371.89	229.46
372.27	229.46
372.65	229.47
373.03	229.40
373.41	229.30
373.78	229.20
374.16	228.95
374.54	228.74
374.92	228.60
375.30	228.54
375.68	228.40
376.06	228.34
376.44	228.17
376.82	228.15
377.19	228.05
377.57	227.99
377.95	227.75
378.33	227.70
378.71	227.26
379.09	227.19
379.47	227.23
379.84	227.07
380.22	226.96
380.60	226.86
380.98	226.83
381.36	226.74
381.73	226.62
382.11	226.59
382.49	226.49
382.87	226.28
383.25	226.21
383.62	226.73
384.00	226.54
384.38	226.53
384.76	226.61
385.13	226.74
385.51	226.64
385.89	226.53
386.27	226.50
386.64	226.55
387.02	226.53
387.40	226.38
387.78	226.38
388.15	226.36
388.53	226.30
388.91	226.21
389.29	226.19
389.66	226.21
390.04	226.14
390.42	226.26
390.79	226.33
391.17	226.30
391.55	225.71
391.92	225.70
392.30	225.79
392.68	225.57
393.05	225.55
393.43	225.63
393.81	225.69
394.18	225.54
394.56	225.51
394.94	225.62
395.31	225.61
395.69	225.81
396.06	225.83
396.44	225.94
396.82	225.96
397.19	226.22
397.57	226.26
397.95	226.45
398.32	226.37
398.70	226.50
399.07	226.63
399.45	226.73
399.82	226.77
400.20	226.80
400.58	226.86
400.95	226.72
401.33	226.87
401.70	227.30
402.08	227.51
402.45	227.69
402.83	227.94
403.20	228.21
403.58	228.30
403.95	228.58
404.33	228.81
404.71	228.95
405.08	229.35
405.46	229.58
405.83	229.79
406.21	230.05
406.58	230.35
406.96	230.62
407.33	230.94
407.70	231.34
408.08	232.05
408.45	232.58
408.83	233.09
409.20	233.47
409.58	233.62
409.95	234.16
410.33	234.71
410.70	235.05
411.08	235.57
411.45	236.17
411.82	236.78
412.20	237.52
412.57	238.61
412.95	239.04
413.32	239.88
413.69	240.70
414.07	241.71
414.44	242.59
414.82	243.61
415.19	244.82
415.56	245.99
415.94	247.01
416.31	248.45
416.68	249.84
417.06	251.53
417.43	253.19
417.81	254.99
418.18	256.73
418.55	258.67
418.93	260.77
419.30	262.89
419.67	265.13
420.04	267.51
420.42	269.77
420.79	272.77
421.16	275.58
421.54	278.65
421.91	281.58
422.28	284.71
422.66	287.98
423.03	291.38
423.40	294.63
423.77	298.11
424.15	301.64
424.52	305.33
424.89	309.32
425.26	313.26
425.64	316.94
426.01	321.07
426.38	325.41
426.75	329.87
427.13	334.38
427.50	339.06
427.87	343.88
428.24	348.80
428.61	353.25
428.99	358.40
429.36	363.90
429.73	369.30
430.10	374.93
430.47	380.45
430.85	386.07
431.22	392.32
431.59	399.12
431.96	405.31
432.33	412.35
432.70	419.07
433.08	426.89
433.45	434.23
433.82	441.52
434.19	449.68
434.56	457.65
434.93	465.20
435.30	472.87
435.68	481.39
436.05	489.65
436.42	497.97
436.79	505.59
437.16	513.66
437.53	522.52
437.90	531.01
438.27	539.63
438.64	548.61
439.01	556.96
439.38	564.06
439.75	571.20
440.13	579.15
440.50	586.66
440.87	592.69
441.24	599.14
441.61	606.06
441.98	611.06
442.35	616.85
442.72	622.92
443.09	628.79
443.46	632.22
443.83	634.52
444.20	636.49
444.57	639.43
444.94	640.66
445.31	641.59
445.68	642.97
446.05	643.17
446.42	641.73
446.79	640.33
447.16	638.68
447.53	637.42
447.90	633.70
448.27	630.10
448.64	625.35
449.01	621.50
449.37	615.48
449.74	609.61
450.11	602.89
450.48	595.18
450.85	587.22
451.22	580.33
451.59	573.97
451.96	567.70
452.33	559.48
452.70	552.14
453.07	543.62
453.43	534.57
453.80	526.26
454.17	518.29
454.54	510.46
454.91	502.37
455.28	494.57
455.65	487.25
456.02	480.37
456.38	474.01
456.75	466.46
457.12	459.93
457.49	453.57
457.86	447.20
458.23	442.07
458.59	436.35
458.96	430.64
459.33	425.49
459.70	420.40
460.07	416.33
460.43	411.64
460.80	407.39
461.17	403.72
461.54	399.78
461.91	396.06
462.27	392.23
462.64	389.00
463.01	385.38
463.38	382.13
463.74	378.07
464.11	375.04
464.48	372.36
464.85	369.51
465.21	367.41
465.58	365.15
465.95	362.33
466.32	360.12
466.68	357.75
467.05	355.50
467.42	353.35
467.78	351.11
468.15	348.95
468.52	347.40
468.88	345.18
469.25	343.14
469.62	341.66
469.98	340.11
470.35	338.59
470.72	337.09
471.08	335.30
471.45	334.10
471.82	332.93
472.18	331.56
472.55	330.58
472.92	329.26
473.28	328.16
473.65	327.01
474.02	325.97
474.38	325.30
474.75	324.50
475.11	323.51
475.48	322.89
475.85	322.34
476.21	321.52
476.58	321.01
476.94	320.69
477.31	320.20
477.67	319.77
478.04	319.48
478.41	319.29
478.77	319.60
479.14	319.27
479.50	319.05
479.87	319.04
480.23	319.08
480.60	319.09
480.96	319.08
481.33	319.52
481.69	319.67
482.06	319.75
482.42	320.02
482.79	320.42
483.15	320.79
483.52	321.44
483.88	322.08
484.25	322.68
484.61	323.40
484.98	324.03
485.34	324.97
485.71	325.93
486.07	326.87
486.44	327.38
486.80	328.59
487.17	329.71
487.53	331.04
487.90	332.39
488.26	333.94
488.62	335.70
488.99	337.15
489.35	338.91
489.72	340.83
490.08	342.80
490.44	344.89
490.81	347.12
491.17	349.22
491.54	351.69
491.90	354.16
492.26	356.79
492.63	359.59
492.99	362.36
493.36	365.35
493.72	368.66
494.08	372.20
494.45	375.82
494.81	379.80
495.17	383.62
495.54	387.75
495.90	392.01
496.26	396.42
496.63	401.08
496.99	405.93
497.35	410.98
497.72	416.24
498.08	421.66
498.44	427.41
498.80	433.41
499.17	439.37
499.53	445.68
499.89	452.40
500.26	459.18
500.62	466.27
500.98	473.74
501.34	481.19
501.71	488.84
502.07	496.47
502.43	504.43
502.79	512.89
503.16	521.67
503.52	530.57
503.88	539.75
504.24	549.43
504.60	559.34
504.97	569.64
505.33	580.15
505.69	591.16
506.05	602.06
506.41	613.28
506.78	624.99
507.14	636.89
507.50	649.03
507.86	661.69
508.22	674.45
508.59	687.26
508.95	700.89
509.31	715.04
509.67	729.32
510.03	743.57
510.39	758.11
510.75	773.05
511.12	788.37
511.48	803.99
511.84	819.57
512.20	835.56
512.56	851.67
512.92	868.46
513.28	885.14
513.64	902.17
514.00	919.61
514.37	937.15
514.73	955.34
515.09	973.55
515.45	991.88
515.81	1010.26
516.17	1029.05
516.53	1047.61
516.89	1065.88
517.25	1085.16
517.61	1105.28
517.97	1125.41
518.33	1145.31
518.69	1165.34
519.05	1185.59
519.41	1206.00
519.77	1226.95
520.13	1247.63
520.49	1268.03
520.85	1290.53
521.21	1311.68
521.57	1332.88
521.93	1353.65
522.29	1374.60
522.65	1395.19
523.01	1415.66
523.37	1436.21
523.73	1457.12
524.09	1477.55
524.45	1498.39
524.81	1519.06
525.17	1539.61
525.53	1560.13
525.89	1580.77
526.25	1601.44
526.61	1621.73
526.97	1642.68
527.33	1663.32
527.68	1685.28
528.04	1706.26
528.40	1725.52
528.76	1746.42
529.12	1766.74
529.48	1787.61
529.84	1807.59
530.20	1828.38
530.56	1849.09
530.91	1870.02
531.27	1890.30
531.63	1910.75
531.99	1931.06
532.35	1950.90
532.71	1970.98
533.07	1991.41
533.42	2011.05
533.78	2030.61
534.14	2050.40
534.50	2069.30
534.86	2088.90
535.21	2105.85
535.57	2124.10
535.93	2141.48
536.29	2158.94
536.65	2176.47
537.00	2193.56
537.36	2210.99
537.72	2227.22
538.08	2244.03
538.44	2260.35
538.79	2276.55
539.15	2292.80
539.51	2308.34
539.87	2323.34
540.22	2336.97
540.58	2351.14
540.94	2364.63
541.29	2377.25
541.65	2389.40
542.01	2401.66
542.37	2411.79
542.72	2422.46
543.08	2433.15
543.44	2444.59
543.79	2454.38
544.15	2464.28
544.51	2474.06
544.87	2483.18
545.22	2491.85
545.58	2499.63
545.94	2506.72
546.29	2513.05
546.65	2518.84
547.01	2524.64
547.36	2530.27
547.72	2535.62
548.07	2539.40
548.43	2544.30
548.79	2549.18
549.14	2553.33
549.50	2557.06
549.86	2560.96
550.21	2564.64
550.57	2567.70
550.92	2569.03
551.28	2570.21
551.64	2572.26
551.99	2573.88
552.35	2575.59
552.70	2577.66
553.06	2579.41
553.41	2580.25
553.77	2581.91
554.13	2583.70
554.48	2585.19
554.84	2586.27
555.19	2587.19
555.55	2588.56
555.90	2587.91
556.26	2586.50
556.61	2584.63
556.97	2582.30
557.32	2581.16
557.68	2580.15
558.03	2578.68
558.39	2577.26
558.74	2576.35
559.10	2573.09
559.45	2569.12
559.81	2564.28
560.16	2558.89
560.52	2553.65
560.87	2549.49
561.23	2544.12
561.58	2538.28
561.94	2531.23
562.29	2523.99
562.64	2517.20
563.00	2509.20
563.35	2502.47
563.71	2496.06
564.06	2489.98
564.42	2483.82
564.77	2476.79
565.12	2469.13
565.48	2461.41
565.83	2453.54
566.19	2445.35
566.54	2437.74
566.89	2430.23
567.25	2422.66
567.60	2415.36
567.96	2407.85
568.31	2399.70
568.66	2391.05
569.02	2381.71
569.37	2373.41
569.72	2365.85
570.08	2356.47
570.43	2346.79
570.78	2337.53
571.14	2327.88
571.49	2317.56
571.84	2307.80
572.20	2297.15
572.55	2287.18
572.90	2276.20
573.26	2265.66
573.61	2254.78
573.96	2243.60
574.31	2231.67
574.67	2220.05
575.02	2207.44
575.37	2194.60
575.72	2181.45
576.08	2169.41
576.43	2157.17
576.78	2143.96
577.13	2130.31
577.49	2117.96
577.84	2106.43
578.19	2094.44
578.54	2082.11
578.90	2070.12
579.25	2057.86
579.60	2045.36
579.95	2032.22
580.30	2019.38
580.66	2006.13
581.01	1992.55
581.36	1978.61
581.71	1965.92
582.06	1952.84
582.42	1940.59
582.77	1928.35
583.12	1916.41
583.47	1904.10
583.82	1892.25
584.17	1880.62
584.53	1868.60
584.88	1855.54
585.23	1842.34
585.58	1828.25
585.93	1815.06
586.28	1802.15
586.63	1788.40
586.98	1774.45
587.34	1761.42
587.69	1748.06
588.04	1735.70
588.39	1724.04
588.74	1712.10
589.09	1700.29
589.44	1688.14
589.79	1676.45
590.14	1664.24
590.49	1652.26
590.84	1640.12
591.19	1628.22
591.54	1616.10
591.89	1604.18
592.25	1594.03
592.60	1582.81
592.95	1571.62
593.30	1559.94
593.65	1548.06
594.00	1536.20
594.35	1526.90
594.70	1515.53
595.05	1504.49
595.40	1492.62
595.75	1480.80
596.10	1469.72
596.45	1458.45
596.80	1447.38
597.15	1435.87
597.50	1424.56
597.85	1413.51
598.19	1402.13
598.54	1390.36
598.89	1379.45
599.24	1369.05
599.59	1357.57
599.94	1346.88
600.29	1336.68
600.64	1326.48
600.99	1315.85
601.34	1306.33
601.69	1294.96
602.04	1285.09
602.39	1275.20
602.74	1266.28
603.08	1257.05
603.43	1247.68
603.78	1238.10
604.13	1228.74
604.48	1218.96
604.83	1209.35
605.18	1199.54
605.53	1190.25
605.87	1181.34
606.22	1172.83
606.57	1163.69
606.92	1154.49
607.27	1145.40
607.62	1136.80
607.96	1128.36
608.31	1120.53
608.66	1112.14
609.01	1103.66
609.36	1095.10
609.70	1086.94
610.05	1078.26
610.40	1069.97
610.75	1061.55
611.10	1053.25
611.44	1044.86
611.79	1036.85
612.14	1029.27
612.49	1021.62
612.83	1014.09
613.18	1006.49
613.53	998.73
613.88	990.87
614.22	983.27
614.57	975.55
614.92	967.64
615.27	960.12
615.61	952.54
615.96	945.27
616.31	938.03
616.65	931.14
617.00	923.78
617.35	916.55
617.70	909.35
618.04	902.45
618.39	895.45
618.74	889.10
619.08	882.23
619.43	875.17
619.78	868.16
620.12	861.24
620.47	854.25
620.82	847.15
621.16	840.61
621.51	834.33
621.85	828.15
622.20	821.68
622.55	815.22
622.89	808.90
623.24	802.45
623.59	796.06
623.93	789.78
624.28	783.81
624.62	778.24
624.97	772.68
625.32	766.89
625.66	761.03
626.01	755.05
626.35	749.69
626.70	744.25
627.04	739.10
627.39	733.53
627.73	728.59
628.08	723.52
628.43	717.96
628.77	712.68
629.12	707.61
629.46	702.89
629.81	698.29
630.15	693.43
630.50	688.72
630.84	684.02
631.19	679.42
631.53	674.91
631.88	669.71
632.22	664.60
632.57	660.14
632.91	655.66
633.26	651.15
633.60	646.61
633.95	642.01
634.29	637.34
634.64	633.03
634.98	628.13
635.32	623.75
635.67	619.95
636.01	615.71
636.36	611.28
636.70	607.20
637.05	602.87
637.39	598.85
637.73	594.78
638.08	590.89
638.42	586.63
638.77	582.43
639.11	578.27
639.45	574.09
639.80	569.78
640.14	565.70
640.49	561.84
640.83	558.01
641.17	554.38
641.52	550.71
641.86	547.20
642.20	544.22
642.55	540.75
642.89	537.16
643.23	533.76
643.58	530.71
643.92	527.09
644.26	523.83
644.61	520.52
644.95	517.14
645.29	513.82
645.64	510.66
645.98	507.55
646.32	504.68
646.66	501.84
647.01	498.96
647.35	496.23
647.69	493.35
648.04	490.65
648.38	487.99
648.72	485.23
649.06	482.12
649.41	479.00
649.75	475.98
650.09	473.15
650.43	470.29
650.78	467.43
651.12	464.73
651.46	461.95
651.80	459.31
652.14	456.65
652.49	454.12
652.83	451.58
653.17	449.16
653.51	446.50
653.85	444.07
654.20	441.58
654.54	439.03
654.88	436.51
655.22	434.24
655.56	431.80
655.90	429.45
656.25	427.39
656.59	425.32
656.93	423.18
657.27	421.04
657.61	418.79
657.95	416.50
658.29	414.25
658.64	412.11
658.98	409.89
659.32	407.57
659.66	405.41
660.00	403.34
660.34	401.21
660.68	399.24
661.02	397.11
661.36	395.24
661.70	393.29
662.05	391.31
662.39	389.24
662.73	387.37
663.07	385.78
663.41	383.86
663.75	381.84
664.09	379.99
664.43	378.06
664.77	376.34
665.11	374.68
665.45	373.07
665.79	371.48
666.13	369.74
666.47	368.24
666.81	366.50
667.15	364.82
667.49	363.30
667.83	361.99
668.17	360.42
668.51	358.87
668.85	357.58
669.19	356.47
669.53	354.97
669.87	353.45
670.21	351.82
670.55	350.32
670.89	349.19
671.23	347.81
671.57	346.44
671.91	345.05
672.25	343.62
672.58	342.48
672.92	341.03
673.26	339.83
673.60	338.58
673.94	337.51
674.28	336.42
674.62	335.21
674.96	333.85
675.30	332.75
675.64	331.53
675.97	330.25
676.31	328.86
676.65	327.63
676.99	326.69
677.33	325.56
677.67	324.59
678.01	323.22
678.34	322.20
678.68	321.26
679.02	320.22
679.36	319.21
679.70	318.17
680.04	317.17
680.37	316.26
680.71	315.26
681.05	314.33
681.39	313.41
681.73	312.52
682.06	311.57
682.40	310.78
682.74	310.04
683.08	309.32
683.42	308.49
683.75	307.82
684.09	306.83
684.43	306.07
684.77	305.24
685.10	304.60
685.44	303.85
685.78	303.04
686.12	302.34
686.45	301.55
686.79	300.70
687.13	300.12
687.46	299.40
687.80	298.86
688.14	298.07
688.48	297.32
688.81	296.54
689.15	296.00
689.49	295.25
689.82	294.54
690.16	293.64
690.50	292.93
690.83	292.24
691.17	291.53
691.51	290.87
691.84	290.30
692.18	289.60
692.52	288.98
692.85	288.42
693.19	288.02
693.52	287.51
693.86	286.93
694.20	286.22
694.53	285.56
694.87	284.79
695.21	284.20
695.54	283.62
695.88	283.03
696.21	282.33
696.55	281.79
696.88	281.18
697.22	280.64
697.56	280.20
697.89	279.58
698.23	279.11
698.56	278.55
698.90	278.12
699.23	277.57
699.57	277.03
699.90	276.42
700.24	275.75
700.58	275.27
700.91	274.86
701.25	274.79
701.58	274.69
701.92	274.43
702.25	273.97
702.59	273.44
702.92	273.02
703.26	272.65
703.59	272.13
703.93	272.03
704.26	271.65
704.60	271.15
704.93	270.71
705.26	270.20
705.60	269.91
705.93	269.27
706.27	268.98
706.60	268.65
706.94	268.45
707.27	267.93
707.61	267.60
707.94	267.15
708.27	266.36
708.61	265.57
708.94	265.07
709.28	264.72
709.61	264.35
709.94	263.96
710.28	263.53
710.61	263.22
710.95	262.46
711.28	262.45
711.61	262.10
711.95	261.75
712.28	261.38
712.61	260.91
712.95	260.83
713.28	260.74
713.61	260.33
713.95	259.89
714.28	259.63
714.61	259.23
714.95	258.84
715.28	258.46
715.61	258.13
715.95	257.89
716.28	257.52
716.61	257.30
716.95	256.94
717.28	256.64
717.61	256.32
717.94	256.04
718.28	255.36
718.61	255.06
718.94	254.85
719.27	254.64
719.61	254.31
719.94	253.97
720.27	253.42
720.60	253.13
720.94	252.83
721.27	252.55
721.60	252.37
721.93	252.12
722.27	252.05
722.60	251.91
722.93	251.56
723.26	251.33
723.59	251.00
723.93	250.90
724.26	250.72
724.59	250.51
724.92	250.33
725.25	250.19
725.59	249.89
725.92	249.66
726.25	249.33
726.58	249.23
726.91	249.01
727.24	248.95
727.57	248.80
727.91	248.51
728.24	248.44
728.57	248.16
728.90	248.09
729.23	247.80
729.56	247.78
729.89	247.72
730.22	247.53
730.55	247.42
730.89	247.23
731.22	247.04
731.55	246.76
731.88	246.61
732.21	246.36
732.54	246.18
732.87	246.01
733.20	245.92
733.53	245.69
733.86	245.55
734.19	245.26
734.52	245.13
734.85	245.40
735.18	245.18
735.51	245.16
735.84	244.98
736.17	244.89
736.50	244.52
736.83	244.81
737.16	244.67
737.49	244.51
737.82	244.30
738.15	244.25
738.48	244.23
738.81	244.05
739.14	243.98
739.47	243.85
739.80	243.82
740.13	243.80
740.46	243.60
740.79	243.41
741.12	243.23
741.45	243.02
741.78	242.54
742.11	242.47
742.44	242.27
742.77	242.18
743.10	242.01
743.43	241.82
743.75	241.22
744.08	241.75
744.41	241.57
744.74	241.46
745.07	241.21
745.40	241.10
745.73	241.16
746.06	241.02
746.39	240.88
746.71	240.61
747.04	240.38
747.37	240.30
747.70	240.22
748.03	240.13
748.36	240.06
748.68	239.98
749.01	239.75
749.34	239.57
749.67	239.51
750.00	239.45
750.33	239.76
750.65	239.65
750.98	238.90
751.31	238.87
751.64	238.74
751.97	238.88
752.29	238.71
752.62	238.45
752.95	238.25
753.28	238.14
753.60	238.10
753.93	238.16
754.26	238.11
754.59	237.90
754.91	237.74
755.24	237.59
755.57	237.50
755.90	237.36
756.22	237.22
756.55	236.98
756.88	236.74
757.20	236.30
757.53	236.02
757.86	235.87
758.19	235.73
758.51	235.63
758.84	235.24
759.17	235.08
759.49	234.98
759.82	235.11
760.15	235.09
760.47	234.90
760.80	234.57
761.13	234.49
761.45	234.35
761.78	234.24
762.11	234.14
762.43	233.93
762.76	233.87
763.08	233.83
763.41	233.70
763.74	233.71
764.06	233.60
764.39	233.58
764.71	233.52
765.04	233.38
765.37	233.29
765.69	233.26
766.02	233.25
766.34	233.11
766.67	232.84
767.00	232.76
767.32	232.90
767.65	233.18
767.97	233.02
768.30	233.02
768.62	232.98
768.95	232.87
769.27	232.81
769.60	232.77
769.92	232.60
770.25	232.47
770.57	232.24
770.90	232.19
771.22	232.19
771.55	232.12
771.87	232.12
772.20	232.02
772.52	232.35
772.85	232.80
773.17	232.88
773.50	232.82
773.82	232.75
774.15	232.49
774.47	232.18
774.80	232.18
775.12	232.09
775.45	232.05
775.77	232.10
776.09	232.11
776.42	232.07
776.74	232.21
777.07	232.26
777.39	232.32
777.72	232.26
778.04	232.27
778.36	232.23
778.69	232.24
779.01	232.28
779.33	231.90
779.66	231.35
779.98	231.23
780.31	231.19
780.63	231.40
780.95	231.47
781.28	231.43
781.60	231.31
781.92	231.30
782.25	231.28
782.57	231.20
782.89	231.16
783.22	231.16
783.54	231.01
783.86	230.94
784.19	230.88
784.51	231.03
784.83	230.90
785.16	230.88
785.48	230.85
785.80	230.78
786.12	230.74
786.45	230.73
786.77	230.71
787.09	230.70
787.42	230.50
787.74	230.54
788.06	230.46
788.38	230.42
788.71	230.32
789.03	230.30
789.35	230.35
789.67	230.24
789.99	230.21
790.32	230.14
790.64	230.15
790.96	230.51
791.28	230.26
791.61	230.22
791.93	230.25
792.25	230.12
792.57	230.41
792.89	230.29
793.21	230.23
793.54	230.10
793.86	230.05
794.18	230.06
794.50	229.85
794.82	229.85
795.14	229.85
795.47	230.00
795.79	230.00
796.11	229.85
796.43	229.86
796.75	229.81
797.07	229.78
797.39	229.81
797.71	229.47
798.04	229.50
798.36	229.49
798.68	229.43
799.00	229.50
799.32	229.24
799.64	229.29
799.96	229.28
800.28	229.37
800.60	229.33
800.92	229.30
801.24	229.32
801.56	229.35
801.89	229.41
802.21	229.32
802.53	229.23
802.85	229.30
803.17	229.50
803.49	229.47
803.81	229.49
804.13	229.36
804.45	229.23
804.77	229.21
805.09	229.18
805.41	229.10
805.73	228.92
806.05	228.81
806.37	228.75
806.69	228.75
807.01	228.70
807.33	228.71
807.65	228.58
807.97	228.76
808.28	228.62
808.60	228.55
808.92	228.56
809.24	228.81
809.56	228.78
809.88	228.52
810.20	228.44
810.52	228.46
810.84	228.42
811.16	228.43
811.48	228.40
811.80	228.54
812.12	228.54
812.43	228.69
812.75	228.69
813.07	228.65
813.39	228.73
813.71	228.64
814.03	228.58
814.35	228.59
814.67	228.37
814.98	228.46
815.30	228.36
815.62	228.22
815.94	227.98
816.26	228.15
816.58	228.06
816.89	228.17
817.21	228.01
817.53	228.07
817.85	228.02
818.17	228.02
818.48	227.87
818.80	227.94
819.12	227.78
819.44	227.70
819.76	227.69
820.07	227.60
820.39	227.56
820.71	227.59
821.03	227.53
821.34	227.47
821.66	227.51
821.98	227.61
822.30	227.61
822.61	227.84
822.93	227.63
823.25	227.64
823.57	227.54
823.88	227.64
824.20	227.54
824.52	227.61
824.83	227.65
825.15	227.59
825.47	227.59
825.79	227.77
826.10	227.84
826.42	227.80
826.74	227.84
827.05	227.86
827.37	227.86
827.69	227.86
828.00	227.93
828.32	227.88
828.64	227.80
828.95	228.04
829.27	227.90
829.58	227.85
829.90	227.91
830.22	227.98
830.53	227.87
830.85	227.82
831.17	227.70
831.48	227.61
831.80	227.56
832.11	227.52
832.43	227.30
832.75	227.17
833.06	227.42
833.38	227.28
833.69	227.28
834.01	227.28
834.32	227.22
834.64	227.12
834.96	227.13
835.27	227.15
835.59	227.02
835.90	226.90
836.22	226.86
836.53	226.78
836.85	226.68
837.16	227.19
837.48	227.29
837.79	227.43
838.11	227.52
838.42	227.54
838.74	227.55
839.05	227.58
839.37	227.61
839.68	227.29
840.00	227.23
840.31	227.29
840.63	227.30
840.94	227.34
841.26	227.29
841.57	227.17
841.88	227.14
842.20	227.08
842.51	227.06
842.83	227.10
843.14	227.58
843.46	227.61
843.77	227.35
844.08	227.31
844.40	227.21
844.71	227.12
845.03	227.09
845.34	227.04
845.65	227.03
845.97	227.03
846.28	227.10
846.60	227.22
846.91	227.19
847.22	227.10
847.54	227.14
847.85	227.20
848.16	227.22
848.48	227.17
848.79	227.30
849.10	227.32
849.42	227.30
849.73	226.81
850.04	226.79
850.36	226.56
850.67	226.72
850.98	226.75
851.30	226.78
851.61	226.73
851.92	226.75
852.23	226.89
852.55	226.92
852.86	226.96
853.17	226.91
853.49	226.95
853.80	227.07
854.11	227.12
854.42	227.22
854.74	227.17
855.05	227.15
855.36	227.00
855.67	227.03
855.99	227.08
856.30	227.72
856.61	227.76
856.92	227.82
857.23	227.74
857.55	227.69
857.86	227.68
858.17	227.87
858.48	227.79
858.79	227.72
859.11	227.77
859.42	227.63
859.73	227.58
860.04	227.59
860.35	227.42
860.66	227.22
860.98	227.29
861.29	227.35
861.60	227.36
861.91	227.40
862.22	227.32
862.53	227.21
862.84	226.53
863.16	226.61
863.47	226.48
863.78	226.47
864.09	226.46
864.40	226.47
864.71	226.40
865.02	226.44
865.33	226.31
865.64	226.26
865.95	226.32
866.27	226.61
866.58	226.56
866.89	226.69
867.20	226.72
867.51	226.48
867.82	226.47
868.13	226.61
868.44	226.45
868.75	226.53
869.06	226.57
869.37	226.69
869.68	226.47
869.99	226.64
870.30	226.60
870.61	226.66
870.92	226.60
871.23	226.64
871.54	226.77
871.85	226.89
872.16	226.89
872.47	226.90
872.78	226.57
873.09	226.62
873.40	226.50
873.71	226.51
874.02	226.59
874.33	226.48
874.64	226.37
874.95	226.46
875.26	226.40
875.56	226.34
875.87	226.26
876.18	226.34
876.49	226.74
876.80	226.67
877.11	226.55
877.42	226.61
877.73	226.59
878.04	226.44
878.35	226.47
878.66	226.41
878.96	226.45
879.27	226.48
879.58	226.42
879.89	226.41
880.20	226.57
880.51	226.51
880.82	226.61
881.12	226.68
881.43	226.64
881.74	226.57
882.05	226.50
882.36	226.60
882.67	226.66
882.97	226.16
883.28	226.16
883.59	226.20
883.90	226.18
884.21	226.18
884.51	226.16
884.82	226.08
885.13	226.09
885.44	226.00
885.74	226.03
886.05	226.00
886.36	225.98
886.67	225.82
886.98	226.10
887.28	226.14
887.59	226.13
887.90	226.15
888.20	226.15
888.51	226.35
888.82	226.25
889.13	226.33
889.43	226.74
889.74	226.69
890.05	226.72
890.35	226.71
890.66	226.67
890.97	226.69
891.28	226.60
891.58	226.61
891.89	226.62
892.20	226.56
892.50	226.55
892.81	226.57
893.12	226.61
893.42	226.37
893.73	226.39
894.04	226.40
894.34	226.40
894.65	226.37
894.95	226.29
895.26	226.31
895.57	226.46
895.87	225.93
896.18	226.08
896.48	226.07
896.79	226.03
897.10	226.00
897.40	226.04
897.71	226.23
898.01	226.21
898.32	226.22
898.63	226.23
898.93	226.25
899.24	226.20
899.54	226.15
899.85	226.15
900.15	226.10
900.46	225.99
900.76	225.98
901.07	225.99
901.38	225.94
901.68	225.98
901.99	225.73
902.29	225.93
902.60	225.79
902.90	225.79
903.21	225.81
903.51	225.84
903.82	225.90
904.12	225.81
904.43	225.90
904.73	225.88
905.03	225.88
905.34	226.37
905.64	226.37
905.95	226.36
906.25	226.40
906.56	226.34
906.86	226.39
907.17	226.38
907.47	226.36
907.77	226.38
908.08	226.29
908.38	226.31
908.69	226.24
908.99	226.40
909.30	226.42
909.60	226.41
909.90	226.35
910.21	226.22
910.51	226.16
910.81	226.12
911.12	226.25
911.42	226.29
911.73	225.72
912.03	225.78
912.33	225.95
912.64	225.91
912.94	225.93
913.24	225.83
913.55	225.85
913.85	225.88
914.15	226.00
914.46	226.07
914.76	225.96
915.06	225.97
915.37	225.84
915.67	225.78
915.97	225.78
916.27	225.73
916.58	225.77
916.88	225.81
917.18	225.78
917.49	226.05
917.79	226.05
918.09	226.18
918.39	226.37
918.70	226.32
919.00	226.40
919.30	226.65
919.60	226.70
919.91	226.68
920.21	226.72
920.51	226.53
920.81	226.54
921.12	226.68
921.42	226.64
921.72	226.68
922.02	226.76
922.32	226.86
922.63	226.96
922.93	227.18
923.23	227.25
923.53	227.15
923.83	226.83
924.13	226.91
924.44	226.98
924.74	227.01
925.04	227.13
925.34	227.04
925.64	226.78
925.94	226.75
926.24	226.99
926.55	226.91
926.85	227.03
927.15	227.05
927.45	227.10
927.75	227.12
928.05	227.14
928.35	227.08
928.65	227.13
928.95	227.14
929.26	226.97
929.56	227.02
929.86	227.14
930.16	227.11
930.46	227.00
930.76	226.96
931.06	226.75
931.36	226.61
931.66	226.70
931.96	226.86
932.26	226.93
932.56	226.71
932.86	226.75
933.16	226.74
933.46	226.66
933.76	226.49
934.06	226.58
934.36	226.70
934.66	226.66
934.96	226.60
935.26	226.60
935.56	226.55
935.86	226.41
936.16	226.30
936.46	226.28
936.76	226.24
937.06	226.15
937.36	226.06
937.66	226.02
937.96	225.96
938.26	225.75
938.56	225.65
938.86	225.67
939.16	225.81
939.46	225.90
939.76	225.92
940.06	225.90
940.35	225.76
940.65	225.55
940.95	225.56
941.25	225.45
941.55	225.43
941.85	225.40
942.15	225.48
942.45	225.61
942.75	225.55
943.04	225.61
943.34	225.65
943.64	225.75
943.94	225.69
944.24	225.63
944.54	225.66
944.84	225.64
945.13	225.52
945.43	225.37
945.73	225.20
946.03	225.16
946.33	225.11
946.62	225.11
946.92	225.06
947.22	225.08
947.52	225.08
947.82	225.06
948.11	225.06
948.41	224.98
948.71	224.84
949.01	224.92
949.31	224.85
949.60	224.89
949.90	224.90
950.20	224.88
950.50	224.97
950.79	224.98
951.09	225.07
951.39	225.13
951.69	225.04
951.98	225.25
952.28	225.31
952.58	225.37
952.87	225.38
953.17	225.52
953.47	225.48
953.76	225.48
954.06	225.40
954.36	225.29
954.66	225.28
954.95	225.42
955.25	225.43
955.55	225.54
955.84	225.43
956.14	225.47
956.44	225.57
956.73	225.47
957.03	225.46
957.32	225.51
957.62	225.50
957.92	225.70
958.21	225.53
958.51	226.10
958.81	226.17
959.10	226.22
959.40	226.29
959.69	226.32
959.99	226.40
960.29	226.51
960.58	226.56
960.88	226.74
961.17	226.70
961.47	226.75
961.76	226.74
962.06	226.79
962.36	226.80
962.65	226.80
962.95	226.85
963.24	226.86
963.54	226.85
963.83	226.91
964.13	226.87
964.42	226.83
964.72	226.45
965.01	226.45
965.31	226.40
965.60	226.34
965.90	226.64
966.19	226.55
966.49	226.53
966.78	226.60
967.08	226.60
967.37	226.57
967.67	226.46
967.96	226.51
968.26	226.55
968.55	226.59
968.85	226.62
969.14	226.61
969.43	226.55
969.73	226.54
970.02	226.52
970.32	226.43
970.61	226.44
970.91	226.24
971.20	226.14
971.49	226.14
971.79	226.23
972.08	225.92
972.38	225.96
972.67	225.85
972.96	225.93
973.26	225.88
973.55	226.02
973.85	226.04
974.14	226.04
974.43	226.08
974.73	225.93
975.02	225.85
975.31	225.90
975.61	225.90
975.90	225.83
976.19	225.74
976.49	225.87
976.78	225.93
977.07	225.94
977.37	226.09
977.66	226.15
977.95	226.03
978.24	226.05
978.54	226.10
978.83	226.14
979.12	226.01
979.42	225.91
979.71	225.80
980.00	225.75
980.29	225.71
980.59	225.57
980.88	225.72
981.17	225.71
981.46	225.69
981.76	225.73
982.05	225.92
982.34	225.95
982.63	225.95
982.93	225.95
983.22	226.06
983.51	226.01
983.80	226.07
984.09	226.15
984.39	226.15
984.68	226.13
984.97	226.20
985.26	226.20
985.55	226.24
985.85	226.13
986.14	226.25
986.43	226.30
986.72	226.27
987.01	226.07
987.30	226.09
987.59	226.04
987.89	226.05
988.18	225.90
988.47	225.85
988.76	225.73
989.05	225.68
989.34	225.63
989.63	225.72
989.92	225.60
990.22	225.56
990.51	225.54
990.80	225.51
991.09	225.48
991.38	225.49
991.67	225.49
991.96	225.46
992.25	225.46
992.54	225.38
992.83	225.42
993.12	225.41
993.41	225.41
993.70	225.60
993.99	225.74
994.28	225.81
994.58	225.94
994.87	225.97
995.16	225.97
995.45	225.96
995.74	225.82
996.03	225.89
996.32	225.93
996.61	226.03
996.90	226.00
997.19	226.00
997.48	226.06
997.77	225.98
998.06	226.01
998.34	225.90
998.63	225.85
998.92	225.84
999.21	225.94
999.50	226.01
999.79	225.85
1000.08	225.81
1000.37	225.79
1000.66	225.70
1000.95	225.83
1001.24	225.81
1001.53	225.86
1001.82	225.81
1002.11	225.74
1002.40	225.79
1002.68	225.90
1002.97	226.25
1003.26	226.22
1003.55	226.10
1003.84	226.18
1004.13	226.39
1004.42	226.41
1004.71	226.43
1004.99	226.45
1005.28	226.54
1005.57	226.42
1005.86	226.42
1006.15	226.31
1006.44	226.23
1006.72	226.32
1007.01	226.23
1007.30	226.29
1007.59	226.22
1007.88	226.28
1008.17	226.41
1008.45	226.30
1008.74	226.03
1009.03	225.80
1009.32	225.84
1009.60	225.85
1009.89	225.88
1010.18	225.63
1010.47	225.63
1010.76	225.67
1011.04	225.68
1011.33	225.75
1011.62	225.90
1011.91	225.91
1012.19	225.96
1012.48	225.96
1012.77	225.94
1013.05	226.12
1013.34	226.11
1013.63	226.06
1013.92	226.07
1014.20	225.96
1014.49	225.99
1014.78	226.09
1015.06	225.92
1015.35	225.82
1015.64	225.94
1015.92	225.95
1016.21	226.05
1016.50	226.05
1016.78	226.02
1017.07	226.03
1017.36	225.93
1017.64	225.81
1017.93	225.83
1018.22	225.79
1018.50	225.85
1018.79	225.76
1019.08	225.55
1019.36	225.57
1019.65	225.57
1019.93	225.69
1020.22	225.74
1020.51	225.97
1020.79	225.94
1021.08	225.20
1021.36	226.20
1021.65	224.45
1021.94	225.50
1022.22	226.55
1022.51	224.80
1022.79	228.30
1023.08	226.65
1023.36	231.25
1023.65	225.20
>>>>>End Processed Spectral Data<<<<<
