SpectraSuite Data File
++++++++++++++++++++++++++++++++++++
Date: Wed Sep 04 17:48:48 EDT 2013
User: lab3
Dark Spectrum Present: Yes
Reference Spectrum Present: No
Number of Sampled Component Spectra: 1
Spectrometers: USB2E7196
Integration Time (usec): 170000 (USB2E7196)
Spectra Averaged: 20 (USB2E7196)
Boxcar Smoothing: 10 (USB2E7196)
Correct for Electrical Dark: No (USB2E7196)
Strobe/Lamp Enabled: No (USB2E7196)
Correct for Detector Non-linearity: No (USB2E7196)
Correct for Stray Light: No (USB2E7196)
Number of Pixels in Processed Spectrum: 2048
>>>>>Begin Processed Spectral Data<<<<<
339.09	0.00
339.48	213.60
339.86	214.00
340.24	215.70
340.63	216.45
341.01	224.95
341.39	219.95
341.78	222.40
342.16	223.20
342.54	221.30
342.93	212.04
343.31	222.71
343.69	223.18
344.07	223.72
344.46	224.25
344.84	224.71
345.22	224.78
345.60	225.04
345.99	225.24
346.37	225.40
346.75	225.59
347.13	225.65
347.52	225.70
347.90	225.99
348.28	226.04
348.66	226.12
349.05	225.97
349.43	226.07
349.81	226.20
350.19	226.24
350.57	226.32
350.96	226.46
351.34	226.64
351.72	226.79
352.10	226.82
352.48	226.80
352.87	226.84
353.25	226.84
353.63	226.87
354.01	226.91
354.39	226.99
354.77	227.10
355.15	227.31
355.54	227.35
355.92	227.16
356.30	227.20
356.68	227.66
357.06	227.75
357.44	227.73
357.82	227.67
358.20	228.17
358.58	228.19
358.97	228.18
359.35	228.25
359.73	228.41
360.11	228.48
360.49	228.57
360.87	228.66
361.25	228.76
361.63	228.97
362.01	228.98
362.39	228.96
362.77	228.97
363.15	228.99
363.53	229.01
363.91	229.09
364.29	229.18
364.67	228.71
365.05	228.73
365.43	228.87
365.81	229.09
366.19	228.85
366.57	229.06
366.95	229.11
367.33	229.03
367.71	229.02
368.09	229.13
368.47	229.15
368.85	229.11
369.23	229.17
369.61	229.02
369.99	229.17
370.37	229.28
370.75	229.64
371.13	229.47
371.51	229.37
371.89	229.36
372.27	229.29
372.65	229.32
373.03	229.30
373.41	229.19
373.78	229.04
374.16	228.85
374.54	228.64
374.92	228.55
375.30	228.53
375.68	228.37
376.06	228.34
376.44	228.17
376.82	228.18
377.19	228.11
377.57	228.04
377.95	227.87
378.33	227.71
378.71	227.26
379.09	227.38
379.47	227.42
379.84	227.42
380.22	227.35
380.60	227.14
380.98	227.05
381.36	226.96
381.73	226.80
382.11	226.84
382.49	226.84
382.87	226.72
383.25	226.61
383.62	227.07
384.00	226.98
384.38	226.95
384.76	226.99
385.13	227.07
385.51	227.03
385.89	226.89
386.27	226.83
386.64	226.81
387.02	226.62
387.40	226.53
387.78	226.43
388.15	226.38
388.53	226.35
388.91	226.27
389.29	226.22
389.66	226.32
390.04	226.24
390.42	226.26
390.79	226.31
391.17	226.35
391.55	225.86
391.92	225.75
392.30	225.87
392.68	225.72
393.05	225.72
393.43	225.74
393.81	225.79
394.18	225.76
394.56	225.80
394.94	225.97
395.31	225.99
395.69	226.14
396.06	226.25
396.44	226.35
396.82	226.37
397.19	226.61
397.57	226.64
397.95	226.74
398.32	226.60
398.70	226.67
399.07	226.81
399.45	226.85
399.82	226.98
400.20	226.98
400.58	227.09
400.95	226.94
401.33	227.15
401.70	227.59
402.08	227.77
402.45	227.90
402.83	228.12
403.20	228.30
403.58	228.40
403.95	228.61
404.33	228.80
404.71	229.04
405.08	229.58
405.46	229.79
405.83	230.06
406.21	230.38
406.58	230.69
406.96	230.96
407.33	231.34
407.70	231.72
408.08	232.45
408.45	232.85
408.83	233.38
409.20	233.73
409.58	233.88
409.95	234.45
410.33	235.02
410.70	235.43
411.08	236.03
411.45	236.69
411.82	237.28
412.20	238.12
412.57	239.07
412.95	239.27
413.32	240.18
413.69	240.91
414.07	241.90
414.44	242.83
414.82	243.82
415.19	244.99
415.56	246.09
415.94	247.08
416.31	248.53
416.68	249.92
417.06	251.56
417.43	253.17
417.81	254.93
418.18	256.68
418.55	258.60
418.93	260.65
419.30	262.73
419.67	264.91
420.04	267.13
420.42	269.40
420.79	272.53
421.16	275.24
421.54	278.29
421.91	281.18
422.28	284.22
422.66	287.45
423.03	290.83
423.40	294.11
423.77	297.59
424.15	301.12
424.52	304.94
424.89	309.13
425.26	312.97
425.64	316.62
426.01	320.67
426.38	324.96
426.75	329.36
427.13	333.80
427.50	338.52
427.87	343.38
428.24	348.21
428.61	352.60
428.99	357.85
429.36	363.33
429.73	368.69
430.10	374.16
430.47	379.75
430.85	385.37
431.22	391.52
431.59	398.19
431.96	404.26
432.33	411.09
432.70	417.53
433.08	425.35
433.45	432.65
433.82	440.00
434.19	448.12
434.56	456.15
434.93	463.79
435.30	471.42
435.68	479.90
436.05	488.35
436.42	496.67
436.79	504.32
437.16	512.55
437.53	521.32
437.90	529.96
438.27	538.45
438.64	547.21
439.01	555.49
439.38	562.70
439.75	569.77
440.13	577.77
440.50	585.27
440.87	591.23
441.24	597.67
441.61	604.57
441.98	609.57
442.35	615.40
442.72	621.34
443.09	627.09
443.46	630.35
443.83	632.58
444.20	634.52
444.57	637.07
444.94	638.11
445.31	639.07
445.68	640.41
446.05	640.69
446.42	639.27
446.79	637.77
447.16	636.15
447.53	634.97
447.90	631.17
448.27	627.54
448.64	622.80
449.01	619.05
449.37	613.08
449.74	607.19
450.11	600.36
450.48	592.64
450.85	584.69
451.22	578.01
451.59	571.47
451.96	565.21
452.33	557.26
452.70	549.95
453.07	541.42
453.43	532.38
453.80	524.03
454.17	516.22
454.54	508.59
454.91	500.43
455.28	492.58
455.65	485.29
456.02	478.51
456.38	472.17
456.75	464.56
457.12	458.03
457.49	451.73
457.86	445.49
458.23	440.51
458.59	434.91
458.96	429.21
459.33	424.10
459.70	419.09
460.07	415.05
460.43	410.45
460.80	406.30
461.17	402.70
461.54	398.70
461.91	395.00
462.27	391.17
462.64	388.06
463.01	384.50
463.38	381.29
463.74	377.36
464.11	374.45
464.48	371.92
464.85	369.06
465.21	366.92
465.58	364.54
465.95	361.66
466.32	359.53
466.68	357.38
467.05	355.32
467.42	353.02
467.78	350.81
468.15	348.73
468.52	347.19
468.88	344.92
469.25	343.00
469.62	341.52
469.98	339.94
470.35	338.40
470.72	337.02
471.08	335.25
471.45	334.04
471.82	332.78
472.18	331.33
472.55	330.39
472.92	329.16
473.28	328.15
473.65	327.12
474.02	325.96
474.38	325.07
474.75	324.29
475.11	323.58
475.48	322.86
475.85	322.19
476.21	321.50
476.58	321.05
476.94	320.80
477.31	320.25
477.67	319.82
478.04	319.52
478.41	319.20
478.77	319.50
479.14	319.14
479.50	319.05
479.87	319.03
480.23	319.02
480.60	318.96
480.96	318.84
481.33	319.28
481.69	319.52
482.06	319.68
482.42	319.90
482.79	320.17
483.15	320.60
483.52	321.26
483.88	321.84
484.25	322.40
484.61	322.87
484.98	323.55
485.34	324.61
485.71	325.46
486.07	326.44
486.44	327.03
486.80	328.24
487.17	329.31
487.53	330.70
487.90	332.05
488.26	333.70
488.62	335.45
488.99	336.97
489.35	338.77
489.72	340.66
490.08	342.67
490.44	344.74
490.81	346.90
491.17	348.94
491.54	351.38
491.90	353.92
492.26	356.62
492.63	359.44
492.99	362.12
493.36	365.24
493.72	368.65
494.08	372.08
494.45	375.71
494.81	379.66
495.17	383.43
495.54	387.64
495.90	391.86
496.26	396.32
496.63	400.90
496.99	405.59
497.35	410.65
497.72	415.82
498.08	421.30
498.44	427.02
498.80	433.10
499.17	439.06
499.53	445.31
499.89	452.00
500.26	458.71
500.62	465.82
500.98	473.13
501.34	480.38
501.71	488.13
502.07	495.91
502.43	503.92
502.79	512.36
503.16	521.01
503.52	529.77
503.88	538.98
504.24	548.72
504.60	558.75
504.97	568.96
505.33	579.34
505.69	590.39
506.05	601.42
506.41	612.62
506.78	624.42
507.14	636.45
507.50	648.57
507.86	661.05
508.22	673.98
508.59	686.88
508.95	700.57
509.31	714.65
509.67	728.87
510.03	742.95
510.39	757.44
510.75	772.41
511.12	787.65
511.48	803.06
511.84	818.61
512.20	834.42
512.56	850.62
512.92	867.57
513.28	884.27
513.64	901.28
514.00	918.61
514.37	936.02
514.73	954.02
515.09	972.27
515.45	990.38
515.81	1008.46
516.17	1027.26
516.53	1045.64
516.89	1064.13
517.25	1083.35
517.61	1103.53
517.97	1123.91
518.33	1143.72
518.69	1163.90
519.05	1184.34
519.41	1204.80
519.77	1225.71
520.13	1246.26
520.49	1266.44
520.85	1288.54
521.21	1309.54
521.57	1330.63
521.93	1351.20
522.29	1372.15
522.65	1392.69
523.01	1413.71
523.37	1434.42
523.73	1455.42
524.09	1475.83
524.45	1496.17
524.81	1517.00
525.17	1537.41
525.53	1557.52
525.89	1578.07
526.25	1598.28
526.61	1618.16
526.97	1639.19
527.33	1660.04
527.68	1681.63
528.04	1702.79
528.40	1722.11
528.76	1742.79
529.12	1762.89
529.48	1783.56
529.84	1803.12
530.20	1823.65
530.56	1844.30
530.91	1865.01
531.27	1884.82
531.63	1905.03
531.99	1925.38
532.35	1944.77
532.71	1964.65
533.07	1985.14
533.42	2004.85
533.78	2024.90
534.14	2044.81
534.50	2063.41
534.86	2082.49
535.21	2099.84
535.57	2117.93
535.93	2135.62
536.29	2152.88
536.65	2171.09
537.00	2188.49
537.36	2205.97
537.72	2222.31
538.08	2238.94
538.44	2254.86
538.79	2270.99
539.15	2287.44
539.51	2303.34
539.87	2318.13
540.22	2332.04
540.58	2345.96
540.94	2358.93
541.29	2371.14
541.65	2383.13
542.01	2395.11
542.37	2405.48
542.72	2415.87
543.08	2426.30
543.44	2437.60
543.79	2447.53
544.15	2456.74
544.51	2466.49
544.87	2475.94
545.22	2484.50
545.58	2492.09
545.94	2499.02
546.29	2505.51
546.65	2511.38
547.01	2516.68
547.36	2522.26
547.72	2527.40
548.07	2531.11
548.43	2535.90
548.79	2540.77
549.14	2544.94
549.50	2548.78
549.86	2552.44
550.21	2556.33
550.57	2559.06
550.92	2559.78
551.28	2560.84
551.64	2563.33
551.99	2564.93
552.35	2566.37
552.70	2568.30
553.06	2569.68
553.41	2571.09
553.77	2572.37
554.13	2573.75
554.48	2575.14
554.84	2575.95
555.19	2576.88
555.55	2578.53
555.90	2577.78
556.26	2576.43
556.61	2574.52
556.97	2572.11
557.32	2571.05
557.68	2569.49
558.03	2568.41
558.39	2567.02
558.74	2566.42
559.10	2562.86
559.45	2559.25
559.81	2554.87
560.16	2549.36
560.52	2543.92
560.87	2539.23
561.23	2533.80
561.58	2527.80
561.94	2520.59
562.29	2513.41
562.64	2506.66
563.00	2497.93
563.35	2491.24
563.71	2484.47
564.06	2478.32
564.42	2471.63
564.77	2464.83
565.12	2457.41
565.48	2449.57
565.83	2441.74
566.19	2433.48
566.54	2425.00
566.89	2416.87
567.25	2408.79
567.60	2401.79
567.96	2394.66
568.31	2386.71
568.66	2378.10
569.02	2368.89
569.37	2360.96
569.72	2353.55
570.08	2344.04
570.43	2334.70
570.78	2325.85
571.14	2316.46
571.49	2306.08
571.84	2296.76
572.20	2285.78
572.55	2275.69
572.90	2264.53
573.26	2254.26
573.61	2243.17
573.96	2232.67
574.31	2220.45
574.67	2208.64
575.02	2196.05
575.37	2183.35
575.72	2170.48
576.08	2158.86
576.43	2146.86
576.78	2133.60
577.13	2119.86
577.49	2107.22
577.84	2095.81
578.19	2083.81
578.54	2071.35
578.90	2059.78
579.25	2047.24
579.60	2035.12
579.95	2022.30
580.30	2009.49
580.66	1996.05
581.01	1982.45
581.36	1968.59
581.71	1956.51
582.06	1943.80
582.42	1931.49
582.77	1919.15
583.12	1907.22
583.47	1894.81
583.82	1882.95
584.17	1871.51
584.53	1860.04
584.88	1847.31
585.23	1834.23
585.58	1820.13
585.93	1807.25
586.28	1794.11
586.63	1780.60
586.98	1766.63
587.34	1753.70
587.69	1740.74
588.04	1728.60
588.39	1717.15
588.74	1705.40
589.09	1693.25
589.44	1680.67
589.79	1668.66
590.14	1656.57
590.49	1644.56
590.84	1632.88
591.19	1620.81
591.54	1608.56
591.89	1596.38
592.25	1586.45
592.60	1575.24
592.95	1564.30
593.30	1552.52
593.65	1540.63
594.00	1528.98
594.35	1519.38
594.70	1507.48
595.05	1496.23
595.40	1484.40
595.75	1472.45
596.10	1461.05
596.45	1450.00
596.80	1439.60
597.15	1428.43
597.50	1417.13
597.85	1406.24
598.19	1394.55
598.54	1383.41
598.89	1372.28
599.24	1362.05
599.59	1350.55
599.94	1339.81
600.29	1329.68
600.64	1319.64
600.99	1309.22
601.34	1299.71
601.69	1288.62
602.04	1279.23
602.39	1269.84
602.74	1260.71
603.08	1251.64
603.43	1242.62
603.78	1232.95
604.13	1223.30
604.48	1213.79
604.83	1204.33
605.18	1194.59
605.53	1185.37
605.87	1176.39
606.22	1168.04
606.57	1158.70
606.92	1149.57
607.27	1140.83
607.62	1132.12
607.96	1123.80
608.31	1116.06
608.66	1107.92
609.01	1099.47
609.36	1091.14
609.70	1082.75
610.05	1074.31
610.40	1065.89
610.75	1057.44
611.10	1049.33
611.44	1040.93
611.79	1032.75
612.14	1025.10
612.49	1017.22
612.83	1009.85
613.18	1001.99
613.53	994.25
613.88	986.62
614.22	979.15
614.57	971.39
614.92	963.59
615.27	956.09
615.61	948.25
615.96	940.56
616.31	933.21
616.65	926.25
617.00	919.07
617.35	911.98
617.70	904.94
618.04	898.00
618.39	891.18
618.74	884.90
619.08	878.43
619.43	871.39
619.78	864.62
620.12	857.35
620.47	850.51
620.82	843.67
621.16	837.02
621.51	830.57
621.85	824.54
622.20	818.01
622.55	811.46
622.89	805.38
623.24	799.18
623.59	793.20
623.93	786.93
624.28	780.99
624.62	775.69
624.97	770.17
625.32	764.59
625.66	758.72
626.01	752.82
626.35	747.32
626.70	742.07
627.04	736.77
627.39	731.65
627.73	726.69
628.08	721.60
628.43	716.33
628.77	711.07
629.12	705.70
629.46	701.02
629.81	696.41
630.15	691.63
630.50	686.90
630.84	681.94
631.19	677.24
631.53	672.67
631.88	667.33
632.22	662.32
632.57	657.85
632.91	653.34
633.26	648.98
633.60	644.49
633.95	639.85
634.29	635.27
634.64	630.81
634.98	626.04
635.32	621.63
635.67	617.70
636.01	613.62
636.36	609.23
636.70	605.20
637.05	601.07
637.39	597.03
637.73	593.02
638.08	589.23
638.42	584.93
638.77	580.65
639.11	576.49
639.45	572.35
639.80	567.94
640.14	563.84
640.49	559.84
640.83	555.92
641.17	552.41
641.52	548.77
641.86	545.21
642.20	542.24
642.55	538.73
642.89	535.10
643.23	531.56
643.58	528.76
643.92	525.14
644.26	521.75
644.61	518.65
644.95	515.36
645.29	511.91
645.64	509.02
645.98	506.00
646.32	503.05
646.66	500.06
647.01	497.20
647.35	494.52
647.69	491.60
648.04	488.85
648.38	486.10
648.72	483.30
649.06	480.22
649.41	477.16
649.75	474.22
650.09	471.40
650.43	468.59
650.78	465.48
651.12	462.79
651.46	459.93
651.80	457.10
652.14	454.39
652.49	451.85
652.83	449.11
653.17	446.54
653.51	443.92
653.85	441.60
654.20	439.11
654.54	436.53
654.88	434.12
655.22	431.90
655.56	429.40
655.90	427.02
656.25	424.94
656.59	422.70
656.93	420.67
657.27	418.70
657.61	416.40
657.95	414.25
658.29	412.12
658.64	410.17
658.98	407.98
659.32	405.85
659.66	403.75
660.00	401.79
660.34	399.85
660.68	397.91
661.02	395.94
661.36	394.10
661.70	392.14
662.05	390.25
662.39	388.28
662.73	386.56
663.07	385.08
663.41	383.19
663.75	381.22
664.09	379.35
664.43	377.42
664.77	375.81
665.11	374.10
665.45	372.46
665.79	370.83
666.13	369.17
666.47	367.63
666.81	366.06
667.15	364.43
667.49	362.94
667.83	361.62
668.17	360.13
668.51	358.69
668.85	357.45
669.19	356.26
669.53	354.68
669.87	353.28
670.21	351.67
670.55	350.28
670.89	349.19
671.23	347.95
671.57	346.62
671.91	345.30
672.25	344.07
672.58	342.93
672.92	341.58
673.26	340.45
673.60	339.25
673.94	338.12
674.28	336.98
674.62	335.93
674.96	334.60
675.30	333.46
675.64	332.21
675.97	330.94
676.31	329.60
676.65	328.43
676.99	327.37
677.33	326.26
677.67	325.30
678.01	324.05
678.34	322.99
678.68	321.99
679.02	320.94
679.36	319.98
679.70	318.87
680.04	317.89
680.37	316.86
680.71	315.87
681.05	314.93
681.39	314.11
681.73	313.07
682.06	312.22
682.40	311.32
682.74	310.59
683.08	309.90
683.42	309.05
683.75	308.38
684.09	307.48
684.43	306.71
684.77	305.85
685.10	305.03
685.44	304.23
685.78	303.47
686.12	302.71
686.45	301.83
686.79	301.01
687.13	300.33
687.46	299.59
687.80	298.96
688.14	298.16
688.48	297.39
688.81	296.61
689.15	295.98
689.49	295.18
689.82	294.41
690.16	293.57
690.50	292.88
690.83	292.10
691.17	291.34
691.51	290.66
691.84	290.07
692.18	289.41
692.52	288.67
692.85	288.01
693.19	287.54
693.52	286.95
693.86	286.26
694.20	285.61
694.53	285.02
694.87	284.26
695.21	283.58
695.54	282.97
695.88	282.34
696.21	281.62
696.55	281.13
696.88	280.50
697.22	279.80
697.56	279.29
697.89	278.72
698.23	278.15
698.56	277.54
698.90	277.04
699.23	276.53
699.57	276.14
699.90	275.59
700.24	274.97
700.58	274.49
700.91	274.14
701.25	274.00
701.58	273.87
701.92	273.59
702.25	273.15
702.59	272.70
702.92	272.26
703.26	271.88
703.59	271.35
703.93	271.34
704.26	271.06
704.60	270.70
704.93	270.30
705.26	269.89
705.60	269.62
705.93	269.05
706.27	268.80
706.60	268.41
706.94	268.18
707.27	267.70
707.61	267.42
707.94	267.10
708.27	266.39
708.61	265.63
708.94	265.18
709.28	264.84
709.61	264.42
709.94	264.10
710.28	263.75
710.61	263.46
710.95	262.70
711.28	262.64
711.61	262.25
711.95	261.97
712.28	261.57
712.61	261.13
712.95	261.07
713.28	260.82
713.61	260.43
713.95	259.98
714.28	259.71
714.61	259.28
714.95	258.87
715.28	258.46
715.61	258.18
715.95	257.78
716.28	257.41
716.61	257.12
716.95	256.78
717.28	256.39
717.61	256.08
717.94	255.81
718.28	255.20
718.61	254.90
718.94	254.56
719.27	254.32
719.61	254.18
719.94	253.77
720.27	253.30
720.60	253.10
720.94	252.85
721.27	252.61
721.60	252.48
721.93	252.26
722.27	252.20
722.60	252.03
722.93	251.80
723.26	251.62
723.59	251.37
723.93	251.26
724.26	251.15
724.59	250.84
724.92	250.65
725.25	250.50
725.59	250.25
725.92	250.08
726.25	249.87
726.58	249.60
726.91	249.39
727.24	249.25
727.57	248.99
727.91	248.75
728.24	248.64
728.57	248.31
728.90	248.14
729.23	247.85
729.56	247.82
729.89	247.66
730.22	247.45
730.55	247.27
730.89	247.04
731.22	246.77
731.55	246.60
731.88	246.43
732.21	246.15
732.54	245.95
732.87	245.82
733.20	245.65
733.53	245.52
733.86	245.38
734.19	245.16
734.52	245.04
734.85	245.21
735.18	244.93
735.51	244.97
735.84	244.83
736.17	244.78
736.50	244.35
736.83	244.75
737.16	244.64
737.49	244.55
737.82	244.39
738.15	244.32
738.48	244.20
738.81	243.99
739.14	243.87
739.47	243.68
739.80	243.46
740.13	243.36
740.46	243.24
740.79	243.05
741.12	242.89
741.45	242.70
741.78	242.26
742.11	242.27
742.44	242.04
742.77	241.94
743.10	241.71
743.43	241.58
743.75	240.93
744.08	241.39
744.41	241.20
744.74	241.08
745.07	240.84
745.40	240.84
745.73	240.98
746.06	240.84
746.39	240.84
746.71	240.67
747.04	240.50
747.37	240.28
747.70	240.24
748.03	240.24
748.36	240.19
748.68	240.04
749.01	239.82
749.34	239.67
749.67	239.54
750.00	239.57
750.33	239.81
750.65	239.80
750.98	239.19
751.31	239.11
751.64	238.99
751.97	239.12
752.29	239.00
752.62	238.60
752.95	238.51
753.28	238.32
753.60	238.25
753.93	238.32
754.26	238.29
754.59	238.02
754.91	237.80
755.24	237.68
755.57	237.60
755.90	237.46
756.22	237.36
756.55	237.23
756.88	236.94
757.20	236.58
757.53	236.27
757.86	236.10
758.19	236.07
758.51	235.94
758.84	235.62
759.17	235.46
759.49	235.49
759.82	235.61
760.15	235.55
760.47	235.49
760.80	235.19
761.13	235.14
761.45	235.15
761.78	235.16
762.11	235.08
762.43	234.92
762.76	234.85
763.08	234.81
763.41	234.75
763.74	234.78
764.06	234.65
764.39	234.60
764.71	234.46
765.04	234.27
765.37	234.15
765.69	234.09
766.02	234.04
766.34	233.86
766.67	233.56
767.00	233.60
767.32	233.80
767.65	233.99
767.97	233.86
768.30	233.73
768.62	233.53
768.95	233.38
769.27	233.37
769.60	233.37
769.92	233.21
770.25	233.07
770.57	232.88
770.90	232.85
771.22	232.75
771.55	232.65
771.87	232.62
772.20	232.60
772.52	233.03
772.85	233.45
773.17	233.42
773.50	233.30
773.82	233.07
774.15	232.70
774.47	232.48
774.80	232.35
775.12	232.31
775.45	232.23
775.77	232.23
776.09	232.12
776.42	232.11
776.74	232.18
777.07	232.08
777.39	232.07
777.72	231.96
778.04	231.95
778.36	231.92
778.69	231.87
779.01	231.74
779.33	231.18
779.66	230.59
779.98	230.43
780.31	230.45
780.63	230.72
780.95	230.77
781.28	230.60
781.60	230.51
781.92	230.45
782.25	230.46
782.57	230.40
782.89	230.44
783.22	230.38
783.54	230.18
783.86	230.16
784.19	230.02
784.51	230.15
784.83	230.08
785.16	230.10
785.48	230.03
785.80	230.07
786.12	230.10
786.45	230.14
786.77	230.21
787.09	230.19
787.42	229.89
787.74	229.81
788.06	229.89
788.38	229.85
788.71	229.78
789.03	229.81
789.35	229.85
789.67	229.69
789.99	229.66
790.32	229.63
790.64	229.71
790.96	230.14
791.28	229.88
791.61	229.89
791.93	229.82
792.25	229.80
792.57	230.12
792.89	230.01
793.21	229.95
793.54	229.87
793.86	229.80
794.18	229.86
794.50	229.76
794.82	229.68
795.14	229.78
795.47	229.86
795.79	229.82
796.11	229.66
796.43	229.67
796.75	229.57
797.07	229.57
797.39	229.55
797.71	229.22
798.04	229.21
798.36	229.16
798.68	229.12
799.00	229.06
799.32	228.80
799.64	228.89
799.96	228.89
800.28	229.03
800.60	228.94
800.92	228.97
801.24	228.91
801.56	228.94
801.89	228.85
802.21	228.85
802.53	228.70
802.85	228.86
803.17	229.11
803.49	229.01
803.81	229.00
804.13	228.93
804.45	228.83
804.77	228.90
805.09	228.96
805.41	228.94
805.73	228.93
806.05	228.82
806.37	228.77
806.69	228.68
807.01	228.56
807.33	228.58
807.65	228.38
807.97	228.69
808.28	228.60
808.60	228.61
808.92	228.50
809.24	228.87
809.56	228.76
809.88	228.49
810.20	228.55
810.52	228.61
810.84	228.48
811.16	228.39
811.48	228.34
811.80	228.44
812.12	228.42
812.43	228.45
812.75	228.43
813.07	228.32
813.39	228.34
813.71	228.29
814.03	228.22
814.35	228.17
814.67	227.94
814.98	227.91
815.30	227.91
815.62	227.80
815.94	227.44
816.26	227.66
816.58	227.57
816.89	227.62
817.21	227.49
817.53	227.53
817.85	227.60
818.17	227.60
818.48	227.43
818.80	227.51
819.12	227.47
819.44	227.42
819.76	227.42
820.07	227.41
820.39	227.39
820.71	227.51
821.03	227.53
821.34	227.52
821.66	227.60
821.98	227.56
822.30	227.62
822.61	227.90
822.93	227.60
823.25	227.61
823.57	227.52
823.88	227.57
824.20	227.60
824.52	227.67
824.83	227.59
825.15	227.48
825.47	227.45
825.79	227.49
826.10	227.40
826.42	227.38
826.74	227.41
827.05	227.44
827.37	227.38
827.69	227.38
828.00	227.33
828.32	227.29
828.64	227.23
828.95	227.53
829.27	227.35
829.58	227.44
829.90	227.49
830.22	227.55
830.53	227.51
830.85	227.48
831.17	227.30
831.48	227.33
831.80	227.33
832.11	227.31
832.43	227.20
832.75	227.29
833.06	227.55
833.38	227.39
833.69	227.39
834.01	227.47
834.32	227.41
834.64	227.34
834.96	227.28
835.27	227.33
835.59	227.12
835.90	227.06
836.22	226.98
836.53	226.90
836.85	226.85
837.16	227.34
837.48	227.31
837.79	227.49
838.11	227.50
838.42	227.55
838.74	227.52
839.05	227.48
839.37	227.39
839.68	227.04
840.00	227.07
840.31	227.06
840.63	227.03
840.94	227.07
841.26	227.04
841.57	227.06
841.88	227.06
842.20	226.99
842.51	226.89
842.83	226.93
843.14	227.42
843.46	227.40
843.77	227.08
844.08	227.12
844.40	226.94
844.71	226.92
845.03	226.92
845.34	226.91
845.65	226.92
845.97	226.93
846.28	227.06
846.60	227.10
846.91	227.10
847.22	227.05
847.54	227.09
847.85	227.19
848.16	227.19
848.48	227.11
848.79	227.33
849.10	227.42
849.42	227.41
849.73	226.98
850.04	227.00
850.36	226.79
850.67	226.85
850.98	226.90
851.30	226.91
851.61	226.91
851.92	226.98
852.23	227.10
852.55	227.18
852.86	227.18
853.17	227.21
853.49	227.28
853.80	227.38
854.11	227.46
854.42	227.47
854.74	227.42
855.05	227.44
855.36	227.16
855.67	227.18
855.99	227.13
856.30	227.68
856.61	227.65
856.92	227.70
857.23	227.67
857.55	227.57
857.86	227.49
858.17	227.64
858.48	227.45
858.79	227.32
859.11	227.42
859.42	227.33
859.73	227.26
860.04	227.20
860.35	227.04
860.66	226.89
860.98	226.92
861.29	226.95
861.60	226.91
861.91	227.01
862.22	226.97
862.53	226.93
862.84	226.34
863.16	226.47
863.47	226.40
863.78	226.39
864.09	226.46
864.40	226.52
864.71	226.44
865.02	226.57
865.33	226.49
865.64	226.32
865.95	226.35
866.27	226.66
866.58	226.60
866.89	226.67
867.20	226.67
867.51	226.56
867.82	226.58
868.13	226.76
868.44	226.68
868.75	226.80
869.06	226.77
869.37	226.74
869.68	226.53
869.99	226.59
870.30	226.61
870.61	226.70
870.92	226.58
871.23	226.47
871.54	226.61
871.85	226.76
872.16	226.82
872.47	226.82
872.78	226.52
873.09	226.55
873.40	226.50
873.71	226.48
874.02	226.52
874.33	226.45
874.64	226.33
874.95	226.41
875.26	226.24
875.56	226.25
875.87	226.35
876.18	226.35
876.49	226.84
876.80	226.75
877.11	226.60
877.42	226.73
877.73	226.83
878.04	226.70
878.35	226.69
878.66	226.69
878.96	226.66
879.27	226.71
879.58	226.70
879.89	226.68
880.20	226.87
880.51	226.80
880.82	226.72
881.12	226.76
881.43	226.74
881.74	226.77
882.05	226.75
882.36	226.73
882.67	226.78
882.97	226.20
883.28	226.19
883.59	226.20
883.90	226.25
884.21	226.27
884.51	226.27
884.82	226.20
885.13	226.13
885.44	226.19
885.74	226.14
886.05	226.13
886.36	226.15
886.67	225.90
886.98	226.17
887.28	226.31
887.59	226.25
887.90	226.15
888.20	226.09
888.51	226.21
888.82	226.15
889.13	226.20
889.43	226.60
889.74	226.63
890.05	226.62
890.35	226.58
890.66	226.50
890.97	226.54
891.28	226.53
891.58	226.65
891.89	226.56
892.20	226.50
892.50	226.46
892.81	226.42
893.12	226.50
893.42	226.30
893.73	226.25
894.04	226.30
894.34	226.40
894.65	226.40
894.95	226.32
895.26	226.34
895.57	226.58
895.87	226.14
896.18	226.26
896.48	226.32
896.79	226.25
897.10	226.34
897.40	226.31
897.71	226.41
898.01	226.34
898.32	226.43
898.63	226.51
898.93	226.58
899.24	226.64
899.54	226.61
899.85	226.63
900.15	226.62
900.46	226.62
900.76	226.58
901.07	226.61
901.38	226.53
901.68	226.50
901.99	226.25
902.29	226.28
902.60	226.15
902.90	226.18
903.21	226.21
903.51	226.15
903.82	226.16
904.12	226.12
904.43	226.10
904.73	226.08
905.03	226.11
905.34	226.54
905.64	226.53
905.95	226.53
906.25	226.52
906.56	226.56
906.86	226.57
907.17	226.64
907.47	226.68
907.77	226.76
908.08	226.67
908.38	226.66
908.69	226.72
908.99	226.81
909.30	226.76
909.60	226.70
909.90	226.75
910.21	226.66
910.51	226.55
910.81	226.63
911.12	226.67
911.42	226.65
911.73	226.20
912.03	226.18
912.33	226.26
912.64	226.25
912.94	226.18
913.24	226.07
913.55	225.98
913.85	225.90
914.15	225.97
914.46	226.17
914.76	226.14
915.06	226.11
915.37	226.08
915.67	226.10
915.97	226.11
916.27	226.01
916.58	225.99
916.88	226.00
917.18	225.95
917.49	226.27
917.79	226.28
918.09	226.27
918.39	226.45
918.70	226.32
919.00	226.33
919.30	226.53
919.60	226.52
919.91	226.41
920.21	226.48
920.51	226.33
920.81	226.21
921.12	226.31
921.42	226.31
921.72	226.26
922.02	226.26
922.32	226.36
922.63	226.37
922.93	226.62
923.23	226.63
923.53	226.57
923.83	226.20
924.13	226.18
924.44	226.19
924.74	226.20
925.04	226.37
925.34	226.31
925.64	226.06
925.94	226.04
926.24	226.40
926.55	226.35
926.85	226.45
927.15	226.44
927.45	226.43
927.75	226.36
928.05	226.34
928.35	226.29
928.65	226.36
928.95	226.38
929.26	226.14
929.56	226.28
929.86	226.34
930.16	226.28
930.46	226.13
930.76	226.19
931.06	225.90
931.36	225.73
931.66	225.87
931.96	226.01
932.26	226.13
932.56	225.86
932.86	225.89
933.16	225.83
933.46	225.81
933.76	225.76
934.06	225.87
934.36	226.12
934.66	226.10
934.96	226.05
935.26	226.04
935.56	226.20
935.86	226.00
936.16	225.90
936.46	225.95
936.76	226.04
937.06	225.97
937.36	226.05
937.66	226.10
937.96	226.04
938.26	225.91
938.56	225.76
938.86	225.82
939.16	225.96
939.46	226.00
939.76	226.02
940.06	226.03
940.35	225.93
940.65	225.63
940.95	225.67
941.25	225.56
941.55	225.52
941.85	225.45
942.15	225.65
942.45	225.75
942.75	225.73
943.04	225.71
943.34	225.79
943.64	225.76
943.94	225.79
944.24	225.82
944.54	225.86
944.84	225.95
945.13	225.84
945.43	225.70
945.73	225.62
946.03	225.58
946.33	225.53
946.62	225.51
946.92	225.56
947.22	225.55
947.52	225.62
947.82	225.73
948.11	225.66
948.41	225.49
948.71	225.43
949.01	225.46
949.31	225.46
949.60	225.41
949.90	225.52
950.20	225.49
950.50	225.50
950.79	225.48
951.09	225.48
951.39	225.48
951.69	225.53
951.98	225.68
952.28	225.72
952.58	225.68
952.87	225.72
953.17	225.81
953.47	225.82
953.76	225.72
954.06	225.55
954.36	225.50
954.66	225.62
954.95	225.70
955.25	225.78
955.55	225.84
955.84	225.76
956.14	225.75
956.44	225.73
956.73	225.63
957.03	225.65
957.32	225.68
957.62	225.74
957.92	225.77
958.21	225.71
958.51	226.23
958.81	226.33
959.10	226.39
959.40	226.37
959.69	226.34
959.99	226.47
960.29	226.55
960.58	226.59
960.88	226.66
961.17	226.58
961.47	226.58
961.76	226.53
962.06	226.63
962.36	226.57
962.65	226.61
962.95	226.62
963.24	226.56
963.54	226.58
963.83	226.58
964.13	226.54
964.42	226.42
964.72	226.09
965.01	226.08
965.31	226.06
965.60	226.00
965.90	226.40
966.19	226.28
966.49	226.27
966.78	226.19
967.08	226.21
967.37	226.30
967.67	226.20
967.96	226.25
968.26	226.25
968.55	226.33
968.85	226.32
969.14	226.35
969.43	226.36
969.73	226.31
970.02	226.32
970.32	226.27
970.61	226.28
970.91	226.10
971.20	226.04
971.49	226.01
971.79	226.04
972.08	225.62
972.38	225.74
972.67	225.65
972.96	225.79
973.26	225.65
973.55	225.76
973.85	225.72
974.14	225.69
974.43	225.71
974.73	225.65
975.02	225.60
975.31	225.54
975.61	225.55
975.90	225.50
976.19	225.44
976.49	225.53
976.78	225.52
977.07	225.51
977.37	225.56
977.66	225.56
977.95	225.49
978.24	225.54
978.54	225.61
978.83	225.66
979.12	225.56
979.42	225.65
979.71	225.52
980.00	225.58
980.29	225.60
980.59	225.45
980.88	225.51
981.17	225.50
981.46	225.55
981.76	225.50
982.05	225.70
982.34	225.69
982.63	225.60
982.93	225.68
983.22	225.88
983.51	225.85
983.80	225.94
984.09	225.96
984.39	225.95
984.68	225.87
984.97	225.86
985.26	225.89
985.55	225.90
985.85	225.79
986.14	225.80
986.43	225.91
986.72	225.91
987.01	225.79
987.30	225.82
987.59	225.80
987.89	225.87
988.18	225.70
988.47	225.72
988.76	225.75
989.05	225.66
989.34	225.59
989.63	225.76
989.92	225.67
990.22	225.67
990.51	225.63
990.80	225.63
991.09	225.74
991.38	225.71
991.67	225.58
991.96	225.58
992.25	225.58
992.54	225.45
992.83	225.51
993.12	225.49
993.41	225.57
993.70	225.78
993.99	225.87
994.28	225.90
994.58	226.04
994.87	226.01
995.16	226.09
995.45	225.99
995.74	225.75
996.03	225.81
996.32	225.90
996.61	225.99
996.90	225.91
997.19	225.81
997.48	225.86
997.77	225.87
998.06	225.95
998.34	225.99
998.63	225.90
998.92	225.86
999.21	225.96
999.50	225.95
999.79	225.75
1000.08	225.67
1000.37	225.71
1000.66	225.60
1000.95	225.70
1001.24	225.68
1001.53	225.74
1001.82	225.74
1002.11	225.63
1002.40	225.74
1002.68	225.90
1002.97	226.35
1003.26	226.40
1003.55	226.35
1003.84	226.37
1004.13	226.49
1004.42	226.41
1004.71	226.51
1004.99	226.51
1005.28	226.60
1005.57	226.56
1005.86	226.52
1006.15	226.50
1006.44	226.40
1006.72	226.44
1007.01	226.39
1007.30	226.34
1007.59	226.28
1007.88	226.32
1008.17	226.33
1008.45	226.14
1008.74	225.91
1009.03	225.68
1009.32	225.61
1009.60	225.61
1009.89	225.58
1010.18	225.39
1010.47	225.39
1010.76	225.38
1011.04	225.36
1011.33	225.40
1011.62	225.46
1011.91	225.46
1012.19	225.53
1012.48	225.57
1012.77	225.57
1013.05	225.73
1013.34	225.81
1013.63	225.83
1013.92	225.86
1014.20	225.84
1014.49	225.91
1014.78	225.97
1015.06	225.79
1015.35	225.77
1015.64	225.86
1015.92	225.87
1016.21	225.92
1016.50	225.89
1016.78	225.87
1017.07	225.89
1017.36	225.78
1017.64	225.67
1017.93	225.71
1018.22	225.65
1018.50	225.70
1018.79	225.63
1019.08	225.42
1019.36	225.41
1019.65	225.34
1019.93	225.45
1020.22	225.57
1020.51	225.79
1020.79	225.70
1021.08	225.75
1021.36	226.15
1021.65	224.20
1021.94	225.50
1022.22	225.90
1022.51	224.50
1022.79	227.75
1023.08	226.75
1023.36	231.45
1023.65	224.40
>>>>>End Processed Spectral Data<<<<<
