SpectraSuite Data File
++++++++++++++++++++++++++++++++++++
Date: Wed Sep 04 17:54:40 EDT 2013
User: lab3
Dark Spectrum Present: Yes
Reference Spectrum Present: No
Number of Sampled Component Spectra: 1
Spectrometers: USB2E7196
Integration Time (usec): 170000 (USB2E7196)
Spectra Averaged: 20 (USB2E7196)
Boxcar Smoothing: 10 (USB2E7196)
Correct for Electrical Dark: No (USB2E7196)
Strobe/Lamp Enabled: No (USB2E7196)
Correct for Detector Non-linearity: No (USB2E7196)
Correct for Stray Light: No (USB2E7196)
Number of Pixels in Processed Spectrum: 2048
>>>>>Begin Processed Spectral Data<<<<<
339.09	0.00
339.48	213.70
339.86	215.15
340.24	216.30
340.63	217.75
341.01	225.05
341.39	220.25
341.78	222.45
342.16	224.20
342.54	223.05
342.93	212.52
343.31	223.26
343.69	223.80
344.07	224.25
344.46	224.73
344.84	225.10
345.22	225.12
345.60	225.42
345.99	225.63
346.37	225.76
346.75	225.84
347.13	225.97
347.52	226.08
347.90	226.26
348.28	226.28
348.66	226.38
349.05	226.24
349.43	226.40
349.81	226.45
350.19	226.50
350.57	226.53
350.96	226.62
351.34	226.72
351.72	226.75
352.10	226.90
352.48	226.93
352.87	226.95
353.25	227.02
353.63	227.09
354.01	227.11
354.39	227.14
354.77	227.24
355.15	227.38
355.54	227.37
355.92	227.31
356.30	227.35
356.68	227.66
357.06	227.79
357.44	227.68
357.82	227.83
358.20	228.31
358.58	228.48
358.97	228.53
359.35	228.64
359.73	228.81
360.11	228.82
360.49	228.89
360.87	229.01
361.25	229.13
361.63	229.31
362.01	229.32
362.39	229.34
362.77	229.45
363.15	229.45
363.53	229.49
363.91	229.57
364.29	229.61
364.67	229.20
365.05	229.25
365.43	229.36
365.81	229.38
366.19	229.26
366.57	229.45
366.95	229.47
367.33	229.35
367.71	229.36
368.09	229.45
368.47	229.49
368.85	229.45
369.23	229.55
369.61	229.34
369.99	229.61
370.37	229.72
370.75	229.90
371.13	229.80
371.51	229.80
371.89	229.79
372.27	229.82
372.65	229.84
373.03	229.82
373.41	229.77
373.78	229.70
374.16	229.32
374.54	229.06
374.92	228.94
375.30	228.95
375.68	228.87
376.06	228.74
376.44	228.70
376.82	228.64
377.19	228.57
377.57	228.51
377.95	228.25
378.33	228.05
378.71	227.67
379.09	227.71
379.47	227.68
379.84	227.50
380.22	227.36
380.60	227.21
380.98	227.16
381.36	227.03
381.73	226.86
382.11	226.88
382.49	226.83
382.87	226.75
383.25	226.62
383.62	227.10
384.00	226.95
384.38	226.84
384.76	226.98
385.13	227.05
385.51	226.99
385.89	226.88
386.27	226.88
386.64	226.98
387.02	226.82
387.40	226.70
387.78	226.78
388.15	226.75
388.53	226.67
388.91	226.61
389.29	226.55
389.66	226.61
390.04	226.53
390.42	226.57
390.79	226.59
391.17	226.66
391.55	226.04
391.92	226.11
392.30	226.16
392.68	225.95
393.05	225.93
393.43	225.99
393.81	226.02
394.18	225.95
394.56	225.98
394.94	226.10
395.31	226.06
395.69	226.18
396.06	226.26
396.44	226.40
396.82	226.35
397.19	226.61
397.57	226.60
397.95	226.78
398.32	226.72
398.70	226.76
399.07	226.88
399.45	226.92
399.82	227.00
400.20	226.98
400.58	227.09
400.95	226.93
401.33	227.09
401.70	227.54
402.08	227.70
402.45	227.79
402.83	228.07
403.20	228.30
403.58	228.42
403.95	228.64
404.33	228.90
404.71	229.21
405.08	229.76
405.46	230.05
405.83	230.25
406.21	230.55
406.58	230.93
406.96	231.10
407.33	231.49
407.70	231.84
408.08	232.67
408.45	233.10
408.83	233.68
409.20	234.07
409.58	234.23
409.95	234.83
410.33	235.37
410.70	235.68
411.08	236.31
411.45	236.88
411.82	237.45
412.20	238.22
412.57	239.13
412.95	239.42
413.32	240.26
413.69	241.10
414.07	241.98
414.44	242.90
414.82	244.06
415.19	245.33
415.56	246.55
415.94	247.48
416.31	248.98
416.68	250.41
417.06	251.98
417.43	253.59
417.81	255.34
418.18	257.13
418.55	259.11
418.93	261.13
419.30	263.24
419.67	265.46
420.04	267.73
420.42	270.05
420.79	273.10
421.16	275.93
421.54	278.99
421.91	282.02
422.28	285.12
422.66	288.34
423.03	291.80
423.40	295.24
423.77	298.78
424.15	302.41
424.52	306.17
424.89	310.43
425.26	314.35
425.64	318.10
426.01	322.26
426.38	326.75
426.75	331.29
427.13	335.94
427.50	340.76
427.87	345.58
428.24	350.55
428.61	355.07
428.99	360.25
429.36	365.68
429.73	371.16
430.10	376.76
430.47	382.42
430.85	387.90
431.22	394.00
431.59	400.73
431.96	406.70
432.33	413.67
432.70	420.29
433.08	428.26
433.45	435.69
433.82	443.01
434.19	451.08
434.56	459.13
434.93	466.67
435.30	474.31
435.68	482.81
436.05	491.14
436.42	499.53
436.79	507.24
437.16	515.58
437.53	524.41
437.90	533.05
438.27	541.64
438.64	550.48
439.01	558.73
439.38	566.04
439.75	573.42
440.13	581.48
440.50	588.91
440.87	594.89
441.24	601.29
441.61	608.34
441.98	613.65
442.35	619.48
442.72	625.46
443.09	631.31
443.46	634.77
443.83	637.15
444.20	638.96
444.57	641.81
444.94	643.01
445.31	644.08
445.68	645.41
446.05	645.52
446.42	644.42
446.79	642.90
447.16	641.30
447.53	640.13
447.90	636.35
448.27	632.75
448.64	627.87
449.01	624.16
449.37	618.04
449.74	611.73
450.11	604.91
450.48	597.34
450.85	589.34
451.22	582.55
451.59	575.96
451.96	569.77
452.33	561.67
452.70	554.33
453.07	545.62
453.43	536.63
453.80	528.31
454.17	520.25
454.54	512.66
454.91	504.47
455.28	496.38
455.65	488.90
456.02	482.00
456.38	475.78
456.75	468.07
457.12	461.59
457.49	455.40
457.86	449.06
458.23	443.84
458.59	438.21
458.96	432.43
459.33	427.35
459.70	422.25
460.07	418.06
460.43	413.30
460.80	409.13
461.17	405.31
461.54	401.33
461.91	397.47
462.27	393.62
462.64	390.30
463.01	386.71
463.38	383.51
463.74	379.55
464.11	376.52
464.48	373.83
464.85	370.97
465.21	368.83
465.58	366.48
465.95	363.66
466.32	361.44
466.68	359.24
467.05	356.97
467.42	354.80
467.78	352.52
468.15	350.38
468.52	348.66
468.88	346.51
469.25	344.62
469.62	343.14
469.98	341.53
470.35	340.07
470.72	338.66
471.08	336.89
471.45	335.71
471.82	334.41
472.18	332.87
472.55	331.84
472.92	330.58
473.28	329.50
473.65	328.31
474.02	327.25
474.38	326.30
474.75	325.59
475.11	324.75
475.48	324.10
475.85	323.52
476.21	322.89
476.58	322.37
476.94	321.94
477.31	321.49
477.67	321.02
478.04	320.65
478.41	320.36
478.77	320.63
479.14	320.27
479.50	320.12
479.87	320.28
480.23	320.31
480.60	320.26
480.96	320.23
481.33	320.70
481.69	320.90
482.06	321.18
482.42	321.38
482.79	321.73
483.15	322.12
483.52	322.71
483.88	323.32
484.25	323.85
484.61	324.52
484.98	325.20
485.34	326.20
485.71	327.08
486.07	328.17
486.44	328.77
486.80	329.86
487.17	330.97
487.53	332.35
487.90	333.72
488.26	335.30
488.62	337.00
488.99	338.54
489.35	340.27
489.72	342.14
490.08	344.15
490.44	346.14
490.81	348.38
491.17	350.54
491.54	353.01
491.90	355.50
492.26	358.22
492.63	360.94
492.99	363.77
493.36	366.91
493.72	370.13
494.08	373.63
494.45	377.42
494.81	381.31
495.17	385.19
495.54	389.31
495.90	393.53
496.26	397.91
496.63	402.51
496.99	407.19
497.35	412.21
497.72	417.43
498.08	422.82
498.44	428.49
498.80	434.60
499.17	440.56
499.53	446.82
499.89	453.37
500.26	460.23
500.62	467.21
500.98	474.64
501.34	482.09
501.71	489.77
502.07	497.59
502.43	505.78
502.79	514.12
503.16	522.82
503.52	531.82
503.88	541.01
504.24	550.72
504.60	560.83
504.97	571.10
505.33	581.53
505.69	592.69
506.05	603.72
506.41	614.81
506.78	626.41
507.14	638.50
507.50	650.94
507.86	663.55
508.22	676.58
508.59	689.41
508.95	703.10
509.31	717.29
509.67	731.68
510.03	745.86
510.39	760.47
510.75	775.62
511.12	790.73
511.48	806.32
511.84	821.93
512.20	837.84
512.56	854.11
512.92	870.93
513.28	887.65
513.64	904.89
514.00	922.24
514.37	939.87
514.73	957.76
515.09	975.85
515.45	994.37
515.81	1012.68
516.17	1031.37
516.53	1049.94
516.89	1068.51
517.25	1087.62
517.61	1107.92
517.97	1128.28
518.33	1148.13
518.69	1168.37
519.05	1189.04
519.41	1209.64
519.77	1230.65
520.13	1251.19
520.49	1271.79
520.85	1294.02
521.21	1315.11
521.57	1336.54
521.93	1357.47
522.29	1379.13
522.65	1399.70
523.01	1420.55
523.37	1441.38
523.73	1462.18
524.09	1482.65
524.45	1503.27
524.81	1523.92
525.17	1544.36
525.53	1564.80
525.89	1585.38
526.25	1606.36
526.61	1626.83
526.97	1647.91
527.33	1668.97
527.68	1691.04
528.04	1712.37
528.40	1732.21
528.76	1753.10
529.12	1773.52
529.48	1794.35
529.84	1814.10
530.20	1835.45
530.56	1856.07
530.91	1876.95
531.27	1897.73
531.63	1918.46
531.99	1939.14
532.35	1959.45
532.71	1979.77
533.07	2000.33
533.42	2020.30
533.78	2040.01
534.14	2059.70
534.50	2078.95
534.86	2098.26
535.21	2115.65
535.57	2133.85
535.93	2151.74
536.29	2169.51
536.65	2187.57
537.00	2205.13
537.36	2222.93
537.72	2239.24
538.08	2256.35
538.44	2272.76
538.79	2289.35
539.15	2305.97
539.51	2321.62
539.87	2336.80
540.22	2350.85
540.58	2365.06
540.94	2378.34
541.29	2391.09
541.65	2403.74
542.01	2416.26
542.37	2426.71
542.72	2437.80
543.08	2448.65
543.44	2460.01
543.79	2470.22
544.15	2479.95
544.51	2490.27
544.87	2499.53
545.22	2508.08
545.58	2515.83
545.94	2523.10
546.29	2529.30
546.65	2535.06
547.01	2540.85
547.36	2546.27
547.72	2551.78
548.07	2555.60
548.43	2561.04
548.79	2565.64
549.14	2569.32
549.50	2572.80
549.86	2576.58
550.21	2580.40
550.57	2583.80
550.92	2585.10
551.28	2586.45
551.64	2589.01
551.99	2590.21
552.35	2591.90
552.70	2594.07
553.06	2595.75
553.41	2596.82
553.77	2598.76
554.13	2600.44
554.48	2602.08
554.84	2603.40
555.19	2604.46
555.55	2606.39
555.90	2605.55
556.26	2604.64
556.61	2603.14
556.97	2601.15
557.32	2600.57
557.68	2599.13
558.03	2597.50
558.39	2595.78
558.74	2594.50
559.10	2591.18
559.45	2587.77
559.81	2583.24
560.16	2577.94
560.52	2572.80
560.87	2568.69
561.23	2563.16
561.58	2557.28
561.94	2550.37
562.29	2543.20
562.64	2536.16
563.00	2527.81
563.35	2521.38
563.71	2514.73
564.06	2508.44
564.42	2501.71
564.77	2494.69
565.12	2487.38
565.48	2479.79
565.83	2472.17
566.19	2464.43
566.54	2456.45
566.89	2448.38
567.25	2440.73
567.60	2433.92
567.96	2426.58
568.31	2418.42
568.66	2409.61
569.02	2400.63
569.37	2392.40
569.72	2385.06
570.08	2375.62
570.43	2366.23
570.78	2356.92
571.14	2347.70
571.49	2337.66
571.84	2328.38
572.20	2317.76
572.55	2307.38
572.90	2296.33
573.26	2286.01
573.61	2274.83
573.96	2264.03
574.31	2252.48
574.67	2240.81
575.02	2228.00
575.37	2215.41
575.72	2202.41
576.08	2190.31
576.43	2177.90
576.78	2165.00
577.13	2150.84
577.49	2138.32
577.84	2126.62
578.19	2114.66
578.54	2102.12
578.90	2090.41
579.25	2077.80
579.60	2065.30
579.95	2052.44
580.30	2039.23
580.66	2025.97
581.01	2012.53
581.36	1998.07
581.71	1985.19
582.06	1972.28
582.42	1959.77
582.77	1946.99
583.12	1934.95
583.47	1922.83
583.82	1910.75
584.17	1898.77
584.53	1887.32
584.88	1874.44
585.23	1861.25
585.58	1847.06
585.93	1833.57
586.28	1820.10
586.63	1806.40
586.98	1792.22
587.34	1779.09
587.69	1765.93
588.04	1753.36
588.39	1741.37
588.74	1729.30
589.09	1716.99
589.44	1704.25
589.79	1692.16
590.14	1680.26
590.49	1667.93
590.84	1655.94
591.19	1643.96
591.54	1631.83
591.89	1619.40
592.25	1609.13
592.60	1597.47
592.95	1586.41
593.30	1574.76
593.65	1562.86
594.00	1550.73
594.35	1540.85
594.70	1529.15
595.05	1518.02
595.40	1506.01
595.75	1493.88
596.10	1482.91
596.45	1471.59
596.80	1460.78
597.15	1449.25
597.50	1437.30
597.85	1426.09
598.19	1414.50
598.54	1403.11
598.89	1391.51
599.24	1380.96
599.59	1369.29
599.94	1358.55
600.29	1347.86
600.64	1337.49
600.99	1326.73
601.34	1317.23
601.69	1306.19
602.04	1296.44
602.39	1286.67
602.74	1277.32
603.08	1268.07
603.43	1258.90
603.78	1249.32
604.13	1239.55
604.48	1229.84
604.83	1220.30
605.18	1210.63
605.53	1200.92
605.87	1191.70
606.22	1183.23
606.57	1173.78
606.92	1164.30
607.27	1155.55
607.62	1146.85
607.96	1138.34
608.31	1130.42
608.66	1121.91
609.01	1113.38
609.36	1104.70
609.70	1096.03
610.05	1087.42
610.40	1078.94
610.75	1070.13
611.10	1061.72
611.44	1053.17
611.79	1045.01
612.14	1037.18
612.49	1029.25
612.83	1021.83
613.18	1014.08
613.53	1006.48
613.88	998.59
614.22	990.97
614.57	983.04
614.92	975.02
615.27	967.38
615.61	959.72
615.96	952.18
616.31	944.64
616.65	937.66
617.00	930.34
617.35	923.31
617.70	916.07
618.04	908.92
618.39	901.92
618.74	895.49
619.08	888.76
619.43	881.77
619.78	874.66
620.12	867.37
620.47	860.42
620.82	853.06
621.16	846.51
621.51	840.22
621.85	833.86
622.20	827.48
622.55	820.86
622.89	814.48
623.24	808.10
623.59	801.86
623.93	795.48
624.28	789.52
624.62	783.76
624.97	778.05
625.32	772.47
625.66	766.46
626.01	760.43
626.35	754.86
626.70	749.40
627.04	744.13
627.39	738.63
627.73	733.29
628.08	728.26
628.43	722.79
628.77	717.35
629.12	712.20
629.46	707.39
629.81	702.82
630.15	698.01
630.50	693.25
630.84	688.43
631.19	683.49
631.53	678.92
631.88	673.72
632.22	668.82
632.57	664.15
632.91	659.69
633.26	655.41
633.60	650.80
633.95	646.17
634.29	641.55
634.64	637.18
634.98	632.59
635.32	628.23
635.67	624.21
636.01	620.02
636.36	615.56
636.70	611.48
637.05	607.24
637.39	603.02
637.73	598.98
638.08	594.94
638.42	590.86
638.77	586.55
639.11	582.31
639.45	577.99
639.80	573.65
640.14	569.62
640.49	565.55
640.83	561.69
641.17	558.09
641.52	554.44
641.86	551.09
642.20	547.87
642.55	544.26
642.89	540.64
643.23	537.25
643.58	534.15
643.92	530.58
644.26	527.19
644.61	524.01
644.95	520.52
645.29	517.08
645.64	514.04
645.98	510.99
646.32	508.08
646.66	505.11
647.01	502.25
647.35	499.58
647.69	496.80
648.04	494.01
648.38	491.10
648.72	488.25
649.06	485.08
649.41	481.97
649.75	478.88
650.09	476.05
650.43	473.08
650.78	470.10
651.12	467.24
651.46	464.40
651.80	461.69
652.14	459.02
652.49	456.65
652.83	454.09
653.17	451.52
653.51	448.73
653.85	446.30
654.20	443.70
654.54	440.90
654.88	438.10
655.22	435.79
655.56	433.35
655.90	430.95
656.25	428.77
656.59	426.58
656.93	424.46
657.27	422.33
657.61	419.96
657.95	417.74
658.29	415.40
658.64	413.26
658.98	410.84
659.32	408.59
659.66	406.26
660.00	403.94
660.34	401.79
660.68	399.80
661.02	397.73
661.36	395.76
661.70	393.71
662.05	391.89
662.39	390.01
662.73	388.20
663.07	386.55
663.41	384.74
663.75	382.70
664.09	380.82
664.43	378.90
664.77	377.19
665.11	375.47
665.45	373.93
665.79	372.16
666.13	370.56
666.47	368.98
666.81	367.37
667.15	365.70
667.49	364.06
667.83	362.69
668.17	361.16
668.51	359.77
668.85	358.47
669.19	357.25
669.53	355.59
669.87	354.05
670.21	352.50
670.55	351.00
670.89	349.89
671.23	348.52
671.57	347.06
671.91	345.74
672.25	344.39
672.58	343.21
672.92	341.87
673.26	340.58
673.60	339.46
673.94	338.24
674.28	337.17
674.62	336.20
674.96	334.86
675.30	333.71
675.64	332.54
675.97	331.32
676.31	329.98
676.65	328.80
676.99	327.88
677.33	326.66
677.67	325.58
678.01	324.36
678.34	323.30
678.68	322.47
679.02	321.49
679.36	320.54
679.70	319.50
680.04	318.66
680.37	317.76
680.71	316.72
681.05	315.88
681.39	315.00
681.73	314.02
682.06	313.16
682.40	312.36
682.74	311.55
683.08	310.91
683.42	310.05
683.75	309.27
684.09	308.30
684.43	307.57
684.77	306.72
685.10	305.93
685.44	305.18
685.78	304.33
686.12	303.60
686.45	302.76
686.79	301.90
687.13	301.17
687.46	300.42
687.80	299.85
688.14	298.94
688.48	298.21
688.81	297.46
689.15	296.85
689.49	296.01
689.82	295.27
690.16	294.28
690.50	293.61
690.83	292.90
691.17	292.14
691.51	291.44
691.84	290.85
692.18	290.15
692.52	289.47
692.85	288.81
693.19	288.33
693.52	287.83
693.86	287.22
694.20	286.58
694.53	285.98
694.87	285.20
695.21	284.63
695.54	284.04
695.88	283.32
696.21	282.57
696.55	282.13
696.88	281.51
697.22	280.96
697.56	280.46
697.89	279.86
698.23	279.44
698.56	278.83
698.90	278.32
699.23	277.76
699.57	277.28
699.90	276.71
700.24	275.94
700.58	275.40
700.91	274.95
701.25	274.85
701.58	274.66
701.92	274.40
702.25	273.91
702.59	273.38
702.92	272.99
703.26	272.61
703.59	272.08
703.93	272.10
704.26	271.75
704.60	271.30
704.93	270.93
705.26	270.37
705.60	270.07
705.93	269.60
706.27	269.33
706.60	269.03
706.94	268.85
707.27	268.55
707.61	268.10
707.94	267.72
708.27	266.91
708.61	266.20
708.94	265.66
709.28	265.37
709.61	264.99
709.94	264.55
710.28	264.15
710.61	263.74
710.95	262.84
711.28	262.76
711.61	262.34
711.95	261.98
712.28	261.60
712.61	261.22
712.95	261.12
713.28	260.98
713.61	260.50
713.95	259.95
714.28	259.63
714.61	259.22
714.95	258.87
715.28	258.53
715.61	258.13
715.95	257.85
716.28	257.42
716.61	257.17
716.95	256.89
717.28	256.58
717.61	256.37
717.94	256.18
718.28	255.54
718.61	255.27
718.94	254.93
719.27	254.72
719.61	254.49
719.94	254.07
720.27	253.58
720.60	253.30
720.94	253.11
721.27	252.90
721.60	252.75
721.93	252.48
722.27	252.42
722.60	252.33
722.93	252.10
723.26	252.04
723.59	251.77
723.93	251.70
724.26	251.56
724.59	251.25
724.92	250.95
725.25	250.89
725.59	250.64
725.92	250.52
726.25	250.39
726.58	250.17
726.91	249.94
727.24	249.74
727.57	249.56
727.91	249.30
728.24	249.16
728.57	248.90
728.90	248.88
729.23	248.50
729.56	248.62
729.89	248.41
730.22	248.19
730.55	248.01
730.89	247.79
731.22	247.60
731.55	247.47
731.88	247.39
732.21	247.04
732.54	246.85
732.87	246.71
733.20	246.52
733.53	246.46
733.86	246.37
734.19	246.19
734.52	246.11
734.85	246.28
735.18	246.08
735.51	246.14
735.84	245.98
736.17	245.99
736.50	245.48
736.83	245.95
737.16	245.76
737.49	245.66
737.82	245.47
738.15	245.34
738.48	245.28
738.81	245.03
739.14	244.91
739.47	244.75
739.80	244.57
740.13	244.44
740.46	244.18
740.79	243.93
741.12	243.75
741.45	243.55
741.78	243.16
742.11	243.03
742.44	242.71
742.77	242.54
743.10	242.35
743.43	242.16
743.75	241.47
744.08	241.95
744.41	241.73
744.74	241.56
745.07	241.33
745.40	241.16
745.73	241.29
746.06	241.16
746.39	241.13
746.71	240.99
747.04	240.82
747.37	240.62
747.70	240.54
748.03	240.51
748.36	240.46
748.68	240.33
749.01	240.06
749.34	239.91
749.67	239.84
750.00	239.78
750.33	240.06
750.65	239.91
750.98	239.21
751.31	239.18
751.64	239.13
751.97	239.26
752.29	239.07
752.62	238.75
752.95	238.61
753.28	238.42
753.60	238.27
753.93	238.32
754.26	238.35
754.59	238.14
754.91	238.00
755.24	237.86
755.57	237.75
755.90	237.72
756.22	237.66
756.55	237.45
756.88	237.28
757.20	236.82
757.53	236.64
757.86	236.54
758.19	236.42
758.51	236.32
758.84	236.05
759.17	235.99
759.49	235.95
759.82	236.07
760.15	235.98
760.47	235.90
760.80	235.62
761.13	235.60
761.45	235.46
761.78	235.30
762.11	235.24
762.43	235.14
762.76	235.04
763.08	235.05
763.41	235.04
763.74	235.01
764.06	234.92
764.39	234.92
764.71	234.87
765.04	234.84
765.37	234.76
765.69	234.62
766.02	234.59
766.34	234.47
766.67	234.31
767.00	234.38
767.32	234.55
767.65	234.81
767.97	234.70
768.30	234.74
768.62	234.75
768.95	234.63
769.27	234.64
769.60	234.67
769.92	234.46
770.25	234.31
770.57	234.10
770.90	234.13
771.22	234.05
771.55	233.92
771.87	233.80
772.20	233.71
772.52	234.10
772.85	234.56
773.17	234.57
773.50	234.43
773.82	234.38
774.15	234.15
774.47	233.85
774.80	233.71
775.12	233.66
775.45	233.56
775.77	233.50
776.09	233.39
776.42	233.30
776.74	233.45
777.07	233.41
777.39	233.41
777.72	233.22
778.04	233.20
778.36	233.14
778.69	233.16
779.01	233.15
779.33	232.71
779.66	232.11
779.98	232.01
780.31	232.03
780.63	232.11
780.95	232.13
781.28	232.03
781.60	231.92
781.92	231.89
782.25	231.82
782.57	231.86
782.89	231.80
783.22	231.78
783.54	231.65
783.86	231.62
784.19	231.58
784.51	231.70
784.83	231.58
785.16	231.54
785.48	231.43
785.80	231.45
786.12	231.37
786.45	231.34
786.77	231.30
787.09	231.17
787.42	230.94
787.74	230.87
788.06	230.88
788.38	230.87
788.71	230.75
789.03	230.82
789.35	230.76
789.67	230.71
789.99	230.67
790.32	230.48
790.64	230.45
790.96	230.82
791.28	230.64
791.61	230.59
791.93	230.62
792.25	230.57
792.57	230.80
792.89	230.73
793.21	230.70
793.54	230.66
793.86	230.63
794.18	230.63
794.50	230.44
794.82	230.37
795.14	230.41
795.47	230.48
795.79	230.44
796.11	230.33
796.43	230.23
796.75	230.28
797.07	230.33
797.39	230.30
797.71	229.95
798.04	229.97
798.36	230.02
798.68	229.98
799.00	230.00
799.32	229.70
799.64	229.79
799.96	229.81
800.28	229.86
800.60	229.81
800.92	229.88
801.24	229.92
801.56	229.93
801.89	229.82
802.21	229.84
802.53	229.74
802.85	229.79
803.17	230.00
803.49	229.78
803.81	229.73
804.13	229.71
804.45	229.62
804.77	229.64
805.09	229.64
805.41	229.58
805.73	229.53
806.05	229.37
806.37	229.28
806.69	229.26
807.01	229.13
807.33	229.16
807.65	228.94
807.97	229.13
808.28	229.05
808.60	229.09
808.92	229.00
809.24	229.26
809.56	229.25
809.88	229.08
810.20	229.21
810.52	229.27
810.84	229.19
811.16	229.20
811.48	229.13
811.80	229.26
812.12	229.22
812.43	229.30
812.75	229.39
813.07	229.29
813.39	229.22
813.71	229.23
814.03	229.25
814.35	229.26
814.67	229.07
814.98	229.04
815.30	228.99
815.62	228.93
815.94	228.55
816.26	228.73
816.58	228.62
816.89	228.57
817.21	228.51
817.53	228.54
817.85	228.49
818.17	228.45
818.48	228.28
818.80	228.38
819.12	228.34
819.44	228.29
819.76	228.28
820.07	228.30
820.39	228.27
820.71	228.24
821.03	228.28
821.34	228.22
821.66	228.28
821.98	228.32
822.30	228.23
822.61	228.58
822.93	228.31
823.25	228.30
823.57	228.26
823.88	228.27
824.20	228.21
824.52	228.31
824.83	228.33
825.15	228.18
825.47	228.12
825.79	228.13
826.10	228.05
826.42	227.98
826.74	227.92
827.05	227.91
827.37	227.89
827.69	227.79
828.00	227.82
828.32	227.85
828.64	227.79
828.95	228.15
829.27	227.95
829.58	227.91
829.90	228.01
830.22	228.01
830.53	227.89
830.85	227.87
831.17	227.70
831.48	227.70
831.80	227.71
832.11	227.65
832.43	227.53
832.75	227.53
833.06	227.81
833.38	227.75
833.69	227.71
834.01	227.72
834.32	227.73
834.64	227.68
834.96	227.60
835.27	227.54
835.59	227.34
835.90	227.25
836.22	227.31
836.53	227.16
836.85	227.11
837.16	227.58
837.48	227.58
837.79	227.70
838.11	227.70
838.42	227.75
838.74	227.75
839.05	227.70
839.37	227.68
839.68	227.44
840.00	227.40
840.31	227.51
840.63	227.49
840.94	227.42
841.26	227.29
841.57	227.32
841.88	227.49
842.20	227.38
842.51	227.24
842.83	227.18
843.14	227.72
843.46	227.74
843.77	227.64
844.08	227.57
844.40	227.38
844.71	227.31
845.03	227.24
845.34	227.24
845.65	227.30
845.97	227.30
846.28	227.30
846.60	227.35
846.91	227.31
847.22	227.32
847.54	227.46
847.85	227.58
848.16	227.59
848.48	227.40
848.79	227.59
849.10	227.79
849.42	227.83
849.73	227.34
850.04	227.35
850.36	227.11
850.67	227.22
850.98	227.36
851.30	227.42
851.61	227.46
851.92	227.55
852.23	227.66
852.55	227.69
852.86	227.77
853.17	227.80
853.49	227.83
853.80	227.90
854.11	227.92
854.42	227.99
854.74	227.83
855.05	227.90
855.36	227.71
855.67	227.69
855.99	227.63
856.30	228.20
856.61	228.10
856.92	228.10
857.23	228.10
857.55	227.97
857.86	227.96
858.17	228.01
858.48	227.87
858.79	227.81
859.11	227.84
859.42	227.74
859.73	227.68
860.04	227.66
860.35	227.51
860.66	227.33
860.98	227.20
861.29	227.27
861.60	227.21
861.91	227.29
862.22	227.27
862.53	227.25
862.84	226.68
863.16	226.81
863.47	226.67
863.78	226.68
864.09	226.68
864.40	226.64
864.71	226.59
865.02	226.64
865.33	226.55
865.64	226.45
865.95	226.46
866.27	226.76
866.58	226.63
866.89	226.65
867.20	226.65
867.51	226.60
867.82	226.56
868.13	226.72
868.44	226.56
868.75	226.55
869.06	226.59
869.37	226.61
869.68	226.44
869.99	226.55
870.30	226.52
870.61	226.66
870.92	226.56
871.23	226.58
871.54	226.68
871.85	226.75
872.16	226.87
872.47	226.80
872.78	226.51
873.09	226.56
873.40	226.58
873.71	226.65
874.02	226.75
874.33	226.76
874.64	226.70
874.95	226.84
875.26	226.74
875.56	226.71
875.87	226.65
876.18	226.66
876.49	227.09
876.80	227.03
877.11	226.93
877.42	227.02
877.73	227.00
878.04	226.94
878.35	226.96
878.66	226.96
878.96	227.05
879.27	227.10
879.58	227.11
879.89	227.09
880.20	227.22
880.51	227.15
880.82	227.19
881.12	227.13
881.43	226.98
881.74	226.93
882.05	226.96
882.36	227.08
882.67	227.13
882.97	226.67
883.28	226.65
883.59	226.60
883.90	226.69
884.21	226.73
884.51	226.67
884.82	226.66
885.13	226.57
885.44	226.54
885.74	226.50
886.05	226.51
886.36	226.48
886.67	226.37
886.98	226.65
887.28	226.67
887.59	226.66
887.90	226.66
888.20	226.70
888.51	226.70
888.82	226.56
889.13	226.60
889.43	226.95
889.74	226.96
890.05	226.94
890.35	226.88
890.66	226.84
890.97	226.80
891.28	226.70
891.58	226.72
891.89	226.70
892.20	226.67
892.50	226.60
892.81	226.65
893.12	226.58
893.42	226.34
893.73	226.35
894.04	226.34
894.34	226.41
894.65	226.46
894.95	226.45
895.26	226.49
895.57	226.67
895.87	226.24
896.18	226.26
896.48	226.32
896.79	226.26
897.10	226.33
897.40	226.33
897.71	226.38
898.01	226.38
898.32	226.46
898.63	226.43
898.93	226.45
899.24	226.41
899.54	226.40
899.85	226.38
900.15	226.32
900.46	226.37
900.76	226.41
901.07	226.38
901.38	226.36
901.68	226.40
901.99	226.15
902.29	226.20
902.60	226.17
902.90	226.13
903.21	226.10
903.51	226.04
903.82	226.12
904.12	226.18
904.43	226.21
904.73	226.18
905.03	226.24
905.34	226.72
905.64	226.69
905.95	226.67
906.25	226.70
906.56	226.68
906.86	226.60
907.17	226.58
907.47	226.52
907.77	226.52
908.08	226.46
908.38	226.53
908.69	226.58
908.99	226.68
909.30	226.76
909.60	226.85
909.90	226.86
910.21	226.75
910.51	226.67
910.81	226.65
911.12	226.70
911.42	226.65
911.73	226.12
912.03	226.20
912.33	226.40
912.64	226.35
912.94	226.35
913.24	226.34
913.55	226.33
913.85	226.38
914.15	226.50
914.46	226.58
914.76	226.59
915.06	226.56
915.37	226.50
915.67	226.48
915.97	226.41
916.27	226.36
916.58	226.42
916.88	226.41
917.18	226.43
917.49	226.71
917.79	226.76
918.09	226.88
918.39	227.06
918.70	227.00
919.00	227.08
919.30	227.31
919.60	227.30
919.91	227.27
920.21	227.35
920.51	227.21
920.81	227.18
921.12	227.27
921.42	227.24
921.72	227.30
922.02	227.26
922.32	227.41
922.63	227.48
922.93	227.66
923.23	227.61
923.53	227.55
923.83	227.22
924.13	227.30
924.44	227.30
924.74	227.28
925.04	227.34
925.34	227.30
925.64	227.12
925.94	227.08
926.24	227.32
926.55	227.23
926.85	227.33
927.15	227.37
927.45	227.30
927.75	227.33
928.05	227.30
928.35	227.31
928.65	227.29
928.95	227.38
929.26	227.24
929.56	227.39
929.86	227.43
930.16	227.42
930.46	227.36
930.76	227.35
931.06	227.20
931.36	227.04
931.66	227.14
931.96	227.18
932.26	227.27
932.56	227.08
932.86	227.13
933.16	227.14
933.46	227.04
933.76	227.00
934.06	227.12
934.36	227.31
934.66	227.31
934.96	227.30
935.26	227.17
935.56	227.21
935.86	227.10
936.16	227.08
936.46	227.03
936.76	226.93
937.06	226.92
937.36	226.95
937.66	226.97
937.96	226.96
938.26	226.86
938.56	226.82
938.86	226.83
939.16	226.90
939.46	226.96
939.76	227.04
940.06	227.00
940.35	226.80
940.65	226.52
940.95	226.54
941.25	226.40
941.55	226.41
941.85	226.38
942.15	226.41
942.45	226.44
942.75	226.38
943.04	226.39
943.34	226.42
943.64	226.30
943.94	226.20
944.24	226.15
944.54	226.14
944.84	226.11
945.13	226.01
945.43	225.89
945.73	225.83
946.03	225.75
946.33	225.71
946.62	225.74
946.92	225.71
947.22	225.73
947.52	225.77
947.82	225.81
948.11	225.72
948.41	225.66
948.71	225.54
949.01	225.65
949.31	225.70
949.60	225.66
949.90	225.79
950.20	225.78
950.50	225.75
950.79	225.75
951.09	225.81
951.39	225.80
951.69	225.81
951.98	225.89
952.28	225.90
952.58	225.93
952.87	225.91
953.17	226.01
953.47	225.95
953.76	225.90
954.06	225.83
954.36	225.76
954.66	225.71
954.95	225.90
955.25	225.87
955.55	225.90
955.84	225.80
956.14	225.85
956.44	225.95
956.73	225.88
957.03	225.95
957.32	225.92
957.62	225.96
957.92	226.10
958.21	225.98
958.51	226.51
958.81	226.54
959.10	226.63
959.40	226.67
959.69	226.72
959.99	226.91
960.29	226.86
960.58	226.96
960.88	227.17
961.17	227.08
961.47	227.14
961.76	227.10
962.06	227.25
962.36	227.20
962.65	227.16
962.95	227.20
963.24	227.09
963.54	227.18
963.83	227.24
964.13	227.14
964.42	227.08
964.72	226.80
965.01	226.83
965.31	226.70
965.60	226.61
965.90	226.91
966.19	226.70
966.49	226.75
966.78	226.75
967.08	226.67
967.37	226.69
967.67	226.63
967.96	226.62
968.26	226.62
968.55	226.64
968.85	226.59
969.14	226.64
969.43	226.71
969.73	226.57
970.02	226.49
970.32	226.51
970.61	226.45
970.91	226.14
971.20	226.07
971.49	226.13
971.79	226.23
972.08	225.87
972.38	225.95
972.67	225.96
972.96	226.01
973.26	225.89
973.55	226.07
973.85	226.03
974.14	226.02
974.43	226.01
974.73	225.99
975.02	226.03
975.31	226.02
975.61	225.95
975.90	225.95
976.19	225.93
976.49	225.92
976.78	226.00
977.07	226.09
977.37	226.11
977.66	226.07
977.95	226.02
978.24	226.08
978.54	226.22
978.83	226.19
979.12	226.12
979.42	226.22
979.71	226.15
980.00	226.19
980.29	226.26
980.59	226.21
980.88	226.27
981.17	226.27
981.46	226.29
981.76	226.31
982.05	226.51
982.34	226.58
982.63	226.60
982.93	226.63
983.22	226.77
983.51	226.80
983.80	226.90
984.09	226.92
984.39	226.89
984.68	226.74
984.97	226.79
985.26	226.78
985.55	226.80
985.85	226.66
986.14	226.76
986.43	226.85
986.72	226.73
987.01	226.58
987.30	226.59
987.59	226.47
987.89	226.53
988.18	226.28
988.47	226.15
988.76	226.09
989.05	226.07
989.34	225.94
989.63	226.06
989.92	226.01
990.22	225.94
990.51	225.95
990.80	225.91
991.09	225.88
991.38	225.89
991.67	225.89
991.96	225.91
992.25	225.80
992.54	225.60
992.83	225.69
993.12	225.68
993.41	225.76
993.70	226.02
993.99	226.00
994.28	226.20
994.58	226.32
994.87	226.24
995.16	226.10
995.45	226.12
995.74	225.91
996.03	226.03
996.32	226.07
996.61	226.15
996.90	226.20
997.19	226.18
997.48	226.23
997.77	226.13
998.06	226.10
998.34	226.11
998.63	226.11
998.92	226.12
999.21	226.23
999.50	226.18
999.79	225.96
1000.08	225.97
1000.37	225.85
1000.66	225.80
1000.95	226.01
1001.24	226.11
1001.53	226.09
1001.82	226.09
1002.11	225.92
1002.40	225.94
1002.68	226.04
1002.97	226.39
1003.26	226.32
1003.55	226.24
1003.84	226.29
1004.13	226.50
1004.42	226.49
1004.71	226.49
1004.99	226.41
1005.28	226.53
1005.57	226.54
1005.86	226.57
1006.15	226.58
1006.44	226.51
1006.72	226.56
1007.01	226.41
1007.30	226.40
1007.59	226.50
1007.88	226.53
1008.17	226.55
1008.45	226.52
1008.74	226.25
1009.03	226.01
1009.32	226.05
1009.60	226.11
1009.89	226.03
1010.18	225.84
1010.47	225.79
1010.76	225.82
1011.04	225.76
1011.33	225.70
1011.62	225.72
1011.91	225.67
1012.19	225.70
1012.48	225.82
1012.77	225.82
1013.05	226.09
1013.34	226.11
1013.63	225.92
1013.92	225.98
1014.20	226.00
1014.49	226.03
1014.78	226.11
1015.06	225.94
1015.35	225.97
1015.64	225.97
1015.92	226.16
1016.21	226.15
1016.50	226.22
1016.78	226.35
1017.07	226.51
1017.36	226.40
1017.64	226.31
1017.93	226.37
1018.22	226.30
1018.50	226.28
1018.79	226.26
1019.08	226.05
1019.36	226.07
1019.65	226.11
1019.93	226.21
1020.22	226.34
1020.51	226.56
1020.79	226.50
1021.08	225.20
1021.36	225.90
1021.65	225.95
1021.94	225.95
1022.22	226.20
1022.51	225.30
1022.79	228.60
1023.08	228.10
1023.36	231.80
1023.65	224.35
>>>>>End Processed Spectral Data<<<<<
