SpectraSuite Data File
++++++++++++++++++++++++++++++++++++
Date: Wed Sep 04 17:51:21 EDT 2013
User: lab3
Dark Spectrum Present: Yes
Reference Spectrum Present: No
Number of Sampled Component Spectra: 1
Spectrometers: USB2E7196
Integration Time (usec): 170000 (USB2E7196)
Spectra Averaged: 20 (USB2E7196)
Boxcar Smoothing: 10 (USB2E7196)
Correct for Electrical Dark: No (USB2E7196)
Strobe/Lamp Enabled: No (USB2E7196)
Correct for Detector Non-linearity: No (USB2E7196)
Correct for Stray Light: No (USB2E7196)
Number of Pixels in Processed Spectrum: 2048
>>>>>Begin Processed Spectral Data<<<<<
339.09	0.00
339.48	212.75
339.86	214.60
340.24	215.40
340.63	215.65
341.01	225.65
341.39	219.65
341.78	222.00
342.16	223.50
342.54	222.75
342.93	212.13
343.31	222.84
343.69	223.42
344.07	223.85
344.46	224.37
344.84	224.85
345.22	224.79
345.60	225.11
345.99	225.32
346.37	225.39
346.75	225.52
347.13	225.60
347.52	225.61
347.90	225.82
348.28	225.93
348.66	226.07
349.05	226.04
349.43	226.12
349.81	226.21
350.19	226.28
350.57	226.32
350.96	226.39
351.34	226.50
351.72	226.50
352.10	226.63
352.48	226.59
352.87	226.59
353.25	226.70
353.63	226.72
354.01	226.64
354.39	226.78
354.77	226.88
355.15	227.07
355.54	227.10
355.92	226.99
356.30	227.03
356.68	227.38
357.06	227.38
357.44	227.35
357.82	227.44
358.20	227.90
358.58	227.93
358.97	227.98
359.35	228.09
359.73	228.33
360.11	228.38
360.49	228.49
360.87	228.59
361.25	228.73
361.63	228.91
362.01	229.07
362.39	229.10
362.77	229.17
363.15	229.17
363.53	229.24
363.91	229.31
364.29	229.40
364.67	228.95
365.05	229.04
365.43	229.10
365.81	229.14
366.19	228.99
366.57	229.16
366.95	229.19
367.33	229.13
367.71	229.11
368.09	229.26
368.47	229.23
368.85	229.18
369.23	229.28
369.61	229.10
369.99	229.32
370.37	229.31
370.75	229.55
371.13	229.45
371.51	229.40
371.89	229.41
372.27	229.32
372.65	229.38
373.03	229.39
373.41	229.31
373.78	229.25
374.16	228.95
374.54	228.74
374.92	228.69
375.30	228.59
375.68	228.45
376.06	228.35
376.44	228.36
376.82	228.39
377.19	228.22
377.57	228.20
377.95	227.91
378.33	227.80
378.71	227.40
379.09	227.41
379.47	227.37
379.84	227.24
380.22	227.16
380.60	226.99
380.98	226.86
381.36	226.80
381.73	226.63
382.11	226.69
382.49	226.67
382.87	226.53
383.25	226.54
383.62	227.07
384.00	226.93
384.38	226.83
384.76	226.88
385.13	227.04
385.51	226.94
385.89	226.86
386.27	226.83
386.64	226.84
387.02	226.72
387.40	226.70
387.78	226.72
388.15	226.70
388.53	226.72
388.91	226.67
389.29	226.62
389.66	226.71
390.04	226.66
390.42	226.72
390.79	226.73
391.17	226.72
391.55	226.12
391.92	226.15
392.30	226.21
392.68	226.13
393.05	226.04
393.43	226.08
393.81	226.15
394.18	226.05
394.56	226.12
394.94	226.25
395.31	226.22
395.69	226.39
396.06	226.55
396.44	226.56
396.82	226.53
397.19	226.85
397.57	226.83
397.95	226.92
398.32	226.82
398.70	226.92
399.07	227.14
399.45	227.10
399.82	227.20
400.20	227.23
400.58	227.30
400.95	227.25
401.33	227.48
401.70	227.95
402.08	228.17
402.45	228.30
402.83	228.55
403.20	228.79
403.58	228.85
403.95	229.02
404.33	229.30
404.71	229.62
405.08	230.01
405.46	230.23
405.83	230.48
406.21	230.81
406.58	231.15
406.96	231.37
407.33	231.81
407.70	232.22
408.08	232.98
408.45	233.40
408.83	233.93
409.20	234.23
409.58	234.33
409.95	234.90
410.33	235.41
410.70	235.77
411.08	236.35
411.45	236.93
411.82	237.48
412.20	238.24
412.57	239.14
412.95	239.48
413.32	240.40
413.69	241.25
414.07	242.17
414.44	243.14
414.82	244.16
415.19	245.37
415.56	246.44
415.94	247.43
416.31	248.88
416.68	250.23
417.06	251.90
417.43	253.55
417.81	255.23
418.18	257.06
418.55	259.02
418.93	260.99
419.30	263.10
419.67	265.32
420.04	267.62
420.42	269.94
420.79	273.07
421.16	275.85
421.54	278.83
421.91	281.76
422.28	284.76
422.66	287.96
423.03	291.42
423.40	294.76
423.77	298.32
424.15	301.84
424.52	305.56
424.89	309.67
425.26	313.63
425.64	317.47
426.01	321.60
426.38	325.90
426.75	330.29
427.13	334.85
427.50	339.58
427.87	344.37
428.24	349.29
428.61	353.65
428.99	358.90
429.36	364.41
429.73	369.90
430.10	375.44
430.47	381.08
430.85	386.63
431.22	392.73
431.59	399.46
431.96	405.64
432.33	412.61
432.70	419.25
433.08	426.99
433.45	434.46
433.82	441.81
434.19	450.02
434.56	458.13
434.93	465.71
435.30	473.39
435.68	481.99
436.05	490.38
436.42	498.70
436.79	506.34
437.16	514.57
437.53	523.26
437.90	531.87
438.27	540.44
438.64	549.27
439.01	557.56
439.38	564.67
439.75	571.75
440.13	579.71
440.50	587.28
440.87	593.34
441.24	599.55
441.61	606.47
441.98	611.46
442.35	617.34
442.72	623.39
443.09	629.22
443.46	632.53
443.83	634.72
444.20	636.69
444.57	639.36
444.94	640.60
445.31	641.73
445.68	643.07
446.05	643.16
446.42	642.02
446.79	640.66
447.16	639.13
447.53	637.87
447.90	634.10
448.27	630.29
448.64	625.46
449.01	621.77
449.37	615.79
449.74	609.82
450.11	603.01
450.48	595.29
450.85	587.25
451.22	580.43
451.59	574.00
451.96	567.78
452.33	559.73
452.70	552.18
453.07	543.54
453.43	534.56
453.80	526.27
454.17	518.05
454.54	510.32
454.91	502.09
455.28	494.35
455.65	487.06
456.02	480.34
456.38	474.11
456.75	466.41
457.12	459.75
457.49	453.49
457.86	447.11
458.23	441.95
458.59	436.40
458.96	430.72
459.33	425.61
459.70	420.46
460.07	416.25
460.43	411.67
460.80	407.51
461.17	403.85
461.54	399.95
461.91	396.22
462.27	392.36
462.64	389.18
463.01	385.51
463.38	382.15
463.74	378.11
464.11	375.03
464.48	372.55
464.85	369.68
465.21	367.55
465.58	365.25
465.95	362.41
466.32	360.15
466.68	357.93
467.05	355.68
467.42	353.56
467.78	351.29
468.15	349.15
468.52	347.51
468.88	345.26
469.25	343.23
469.62	341.81
469.98	340.29
470.35	338.71
470.72	337.30
471.08	335.64
471.45	334.39
471.82	333.13
472.18	331.59
472.55	330.65
472.92	329.32
473.28	328.14
473.65	327.11
474.02	326.01
474.38	325.12
474.75	324.40
475.11	323.42
475.48	322.86
475.85	322.34
476.21	321.70
476.58	321.19
476.94	320.80
477.31	320.31
477.67	319.89
478.04	319.54
478.41	319.30
478.77	319.65
479.14	319.39
479.50	319.19
479.87	319.21
480.23	319.16
480.60	319.16
480.96	319.29
481.33	319.65
481.69	319.86
482.06	320.10
482.42	320.33
482.79	320.86
483.15	321.31
483.52	321.89
483.88	322.28
484.25	322.85
484.61	323.45
484.98	324.17
485.34	325.16
485.71	326.12
486.07	327.12
486.44	327.73
486.80	328.86
487.17	330.14
487.53	331.58
487.90	333.16
488.26	334.85
488.62	336.52
488.99	338.05
489.35	339.86
489.72	341.72
490.08	343.76
490.44	345.69
490.81	347.92
491.17	350.13
491.54	352.74
491.90	355.34
492.26	358.03
492.63	360.78
492.99	363.60
493.36	366.73
493.72	370.07
494.08	373.49
494.45	377.17
494.81	381.04
495.17	384.86
495.54	388.80
495.90	392.94
496.26	397.42
496.63	402.07
496.99	406.87
497.35	411.96
497.72	417.16
498.08	422.64
498.44	428.24
498.80	434.32
499.17	440.26
499.53	446.37
499.89	453.07
500.26	459.95
500.62	466.87
500.98	474.24
501.34	481.49
501.71	489.25
502.07	497.08
502.43	505.16
502.79	513.42
503.16	522.25
503.52	531.29
503.88	540.40
504.24	550.08
504.60	560.02
504.97	570.22
505.33	580.64
505.69	591.63
506.05	602.77
506.41	613.79
506.78	625.50
507.14	637.63
507.50	649.87
507.86	662.46
508.22	675.42
508.59	688.35
508.95	701.99
509.31	716.04
509.67	730.39
510.03	744.63
510.39	759.28
510.75	774.38
511.12	789.62
511.48	805.25
511.84	821.02
512.20	837.05
512.56	853.36
512.92	870.17
513.28	886.89
513.64	903.97
514.00	921.47
514.37	939.21
514.73	957.18
515.09	975.50
515.45	993.72
515.81	1011.95
516.17	1030.83
516.53	1049.43
516.89	1067.99
517.25	1087.20
517.61	1107.37
517.97	1127.52
518.33	1147.20
518.69	1167.54
519.05	1187.67
519.41	1208.15
519.77	1229.20
520.13	1249.71
520.49	1270.02
520.85	1292.26
521.21	1313.11
521.57	1334.04
521.93	1354.74
522.29	1375.80
522.65	1396.19
523.01	1417.00
523.37	1437.67
523.73	1458.37
524.09	1478.76
524.45	1499.43
524.81	1519.99
525.17	1540.44
525.53	1561.14
525.89	1582.02
526.25	1602.64
526.61	1622.95
526.97	1643.74
527.33	1664.35
527.68	1685.71
528.04	1706.92
528.40	1726.25
528.76	1747.19
529.12	1767.90
529.48	1788.72
529.84	1808.55
530.20	1829.87
530.56	1850.51
530.91	1871.31
531.27	1891.55
531.63	1912.24
531.99	1932.51
532.35	1952.45
532.71	1972.51
533.07	1992.67
533.42	2012.51
533.78	2032.12
534.14	2052.15
534.50	2070.88
534.86	2090.17
535.21	2107.94
535.57	2126.36
535.93	2144.23
536.29	2161.90
536.65	2179.85
537.00	2197.02
537.36	2214.60
537.72	2230.94
538.08	2247.92
538.44	2264.43
538.79	2280.85
539.15	2297.09
539.51	2312.95
539.87	2328.11
540.22	2341.72
540.58	2356.23
540.94	2369.11
541.29	2381.63
541.65	2393.86
542.01	2406.32
542.37	2416.46
542.72	2427.42
543.08	2437.82
543.44	2448.90
543.79	2458.71
544.15	2468.41
544.51	2478.39
544.87	2487.89
545.22	2496.01
545.58	2503.74
545.94	2510.65
546.29	2516.91
546.65	2523.04
547.01	2528.50
547.36	2534.03
547.72	2539.84
548.07	2543.41
548.43	2548.83
548.79	2553.45
549.14	2557.27
549.50	2561.24
549.86	2565.20
550.21	2568.74
550.57	2572.12
550.92	2573.63
551.28	2574.95
551.64	2577.07
551.99	2578.75
552.35	2580.11
552.70	2582.40
553.06	2584.09
553.41	2585.48
553.77	2587.22
554.13	2588.56
554.48	2590.15
554.84	2591.29
555.19	2592.35
555.55	2594.10
555.90	2593.05
556.26	2592.19
556.61	2590.63
556.97	2588.20
557.32	2587.53
557.68	2586.35
558.03	2584.64
558.39	2583.24
558.74	2582.38
559.10	2578.85
559.45	2575.08
559.81	2570.57
560.16	2565.06
560.52	2559.73
560.87	2555.33
561.23	2549.91
561.58	2544.00
561.94	2537.07
562.29	2529.46
562.64	2522.34
563.00	2513.84
563.35	2507.11
563.71	2500.24
564.06	2494.02
564.42	2487.84
564.77	2480.79
565.12	2473.12
565.48	2465.55
565.83	2457.51
566.19	2449.45
566.54	2442.00
566.89	2433.93
567.25	2426.68
567.60	2419.46
567.96	2411.95
568.31	2403.52
568.66	2394.91
569.02	2386.20
569.37	2378.06
569.72	2370.55
570.08	2361.33
570.43	2351.99
570.78	2343.41
571.14	2334.02
571.49	2323.86
571.84	2314.02
572.20	2303.45
572.55	2293.35
572.90	2282.58
573.26	2272.29
573.61	2261.11
573.96	2249.74
574.31	2237.84
574.67	2225.62
575.02	2213.18
575.37	2200.75
575.72	2187.90
576.08	2175.71
576.43	2162.87
576.78	2149.66
577.13	2136.00
577.49	2123.37
577.84	2111.60
578.19	2098.99
578.54	2086.45
578.90	2074.52
579.25	2062.35
579.60	2049.81
579.95	2037.11
580.30	2024.22
580.66	2011.06
581.01	1997.73
581.36	1983.83
581.71	1971.39
582.06	1958.53
582.42	1946.02
582.77	1933.43
583.12	1921.60
583.47	1909.49
583.82	1897.86
584.17	1886.03
584.53	1874.35
584.88	1861.29
585.23	1848.27
585.58	1834.43
585.93	1821.22
586.28	1808.01
586.63	1794.12
586.98	1779.86
587.34	1766.57
587.69	1753.10
588.04	1740.39
588.39	1728.51
588.74	1716.63
589.09	1704.67
589.44	1692.21
589.79	1680.35
590.14	1668.46
590.49	1656.23
590.84	1644.15
591.19	1632.31
591.54	1620.29
591.89	1608.26
592.25	1598.20
592.60	1586.93
592.95	1575.84
593.30	1564.25
593.65	1552.37
594.00	1540.61
594.35	1531.40
594.70	1519.57
595.05	1508.46
595.40	1496.59
595.75	1484.69
596.10	1473.66
596.45	1462.35
596.80	1451.70
597.15	1440.28
597.50	1428.49
597.85	1417.80
598.19	1406.18
598.54	1394.59
598.89	1383.29
599.24	1372.77
599.59	1361.29
599.94	1350.40
600.29	1339.90
600.64	1329.77
600.99	1319.42
601.34	1309.70
601.69	1298.37
602.04	1288.80
602.39	1279.07
602.74	1270.34
603.08	1261.09
603.43	1251.67
603.78	1241.99
604.13	1232.29
604.48	1222.70
604.83	1213.26
605.18	1203.14
605.53	1193.67
605.87	1184.32
606.22	1175.93
606.57	1166.81
606.92	1157.52
607.27	1148.80
607.62	1140.27
607.96	1131.56
608.31	1123.70
608.66	1115.47
609.01	1106.89
609.36	1098.53
609.70	1090.19
610.05	1081.33
610.40	1073.07
610.75	1064.42
611.10	1056.23
611.44	1047.55
611.79	1039.46
612.14	1031.65
612.49	1023.80
612.83	1016.55
613.18	1009.20
613.53	1001.42
613.88	993.51
614.22	985.75
614.57	977.75
614.92	969.87
615.27	962.44
615.61	954.63
615.96	947.16
616.31	939.66
616.65	932.50
617.00	925.21
617.35	918.04
617.70	910.85
618.04	903.92
618.39	896.92
618.74	890.84
619.08	884.04
619.43	877.18
619.78	870.26
620.12	863.15
620.47	856.09
620.82	848.85
621.16	842.35
621.51	835.99
621.85	829.73
622.20	823.31
622.55	816.76
622.89	810.38
623.24	803.98
623.59	797.82
623.93	791.66
624.28	785.74
624.62	780.20
624.97	774.58
625.32	768.98
625.66	763.05
626.01	757.02
626.35	751.60
626.70	746.07
627.04	740.84
627.39	735.39
627.73	730.25
628.08	725.35
628.43	719.86
628.77	714.63
629.12	709.54
629.46	704.77
629.81	700.22
630.15	695.56
630.50	690.74
630.84	685.83
631.19	681.06
631.53	676.37
631.88	671.12
632.22	666.09
632.57	661.50
632.91	656.91
633.26	652.50
633.60	647.83
633.95	643.23
634.29	638.54
634.64	634.10
634.98	629.35
635.32	624.94
635.67	620.96
636.01	616.92
636.36	612.58
636.70	608.56
637.05	604.23
637.39	600.11
637.73	596.12
638.08	592.31
638.42	588.12
638.77	583.69
639.11	579.49
639.45	575.19
639.80	570.91
640.14	566.89
640.49	562.86
640.83	559.04
641.17	555.35
641.52	551.71
641.86	548.28
642.20	545.27
642.55	541.73
642.89	538.26
643.23	534.58
643.58	531.56
643.92	527.80
644.26	524.65
644.61	521.50
644.95	518.10
645.29	514.84
645.64	511.81
645.98	508.86
646.32	506.05
646.66	502.95
647.01	500.00
647.35	497.23
647.69	494.36
648.04	491.73
648.38	488.92
648.72	486.18
649.06	483.10
649.41	479.93
649.75	477.01
650.09	474.04
650.43	471.26
650.78	468.10
651.12	465.47
651.46	462.51
651.80	459.67
652.14	457.02
652.49	454.40
652.83	451.86
653.17	449.36
653.51	446.65
653.85	444.40
654.20	441.98
654.54	439.43
654.88	436.89
655.22	434.52
655.56	432.11
655.90	429.87
656.25	427.66
656.59	425.54
656.93	423.30
657.27	421.29
657.61	418.95
657.95	416.85
658.29	414.65
658.64	412.64
658.98	410.55
659.32	408.26
659.66	406.09
660.00	403.92
660.34	401.77
660.68	399.80
661.02	397.72
661.36	395.67
661.70	393.66
662.05	391.74
662.39	389.74
662.73	388.00
663.07	386.29
663.41	384.46
663.75	382.50
664.09	380.61
664.43	378.61
664.77	377.04
665.11	375.28
665.45	373.52
665.79	371.75
666.13	369.96
666.47	368.33
666.81	366.73
667.15	365.00
667.49	363.56
667.83	362.23
668.17	360.64
668.51	359.14
668.85	357.84
669.19	356.65
669.53	355.15
669.87	353.56
670.21	351.89
670.55	350.51
670.89	349.44
671.23	348.01
671.57	346.58
671.91	345.18
672.25	343.87
672.58	342.71
672.92	341.31
673.26	340.08
673.60	338.94
673.94	337.70
674.28	336.62
674.62	335.44
674.96	334.09
675.30	333.01
675.64	331.85
675.97	330.53
676.31	329.19
676.65	328.03
676.99	327.13
677.33	326.08
677.67	325.00
678.01	323.67
678.34	322.74
678.68	321.85
679.02	320.78
679.36	319.75
679.70	318.62
680.04	317.68
680.37	316.67
680.71	315.68
681.05	314.82
681.39	313.94
681.73	312.94
682.06	312.09
682.40	311.25
682.74	310.51
683.08	309.86
683.42	308.95
683.75	308.15
684.09	307.16
684.43	306.39
684.77	305.55
685.10	304.77
685.44	303.99
685.78	303.15
686.12	302.41
686.45	301.66
686.79	300.92
687.13	300.26
687.46	299.57
687.80	298.95
688.14	298.18
688.48	297.39
688.81	296.68
689.15	295.99
689.49	295.24
689.82	294.59
690.16	293.76
690.50	293.14
690.83	292.39
691.17	291.62
691.51	290.89
691.84	290.15
692.18	289.44
692.52	288.77
692.85	288.11
693.19	287.66
693.52	287.11
693.86	286.38
694.20	285.77
694.53	285.21
694.87	284.49
695.21	283.85
695.54	283.25
695.88	282.61
696.21	281.94
696.55	281.42
696.88	280.72
697.22	280.12
697.56	279.58
697.89	279.03
698.23	278.54
698.56	277.96
698.90	277.67
699.23	277.13
699.57	276.63
699.90	276.08
700.24	275.46
700.58	275.00
700.91	274.72
701.25	274.55
701.58	274.41
701.92	274.08
702.25	273.62
702.59	273.15
702.92	272.74
703.26	272.30
703.59	271.84
703.93	271.77
704.26	271.35
704.60	270.96
704.93	270.53
705.26	270.07
705.60	269.73
705.93	269.13
706.27	268.85
706.60	268.63
706.94	268.45
707.27	268.05
707.61	267.53
707.94	267.09
708.27	266.45
708.61	265.72
708.94	265.25
709.28	264.96
709.61	264.62
709.94	264.33
710.28	263.98
710.61	263.57
710.95	262.80
711.28	262.87
711.61	262.45
711.95	262.16
712.28	261.79
712.61	261.39
712.95	261.37
713.28	261.20
713.61	260.74
713.95	260.27
714.28	259.97
714.61	259.66
714.95	259.35
715.28	258.89
715.61	258.52
715.95	258.26
716.28	257.80
716.61	257.47
716.95	257.05
717.28	256.69
717.61	256.32
717.94	256.04
718.28	255.26
718.61	254.89
718.94	254.55
719.27	254.35
719.61	254.16
719.94	253.71
720.27	253.22
720.60	252.88
720.94	252.62
721.27	252.40
721.60	252.24
721.93	251.89
722.27	251.85
722.60	251.65
722.93	251.37
723.26	251.22
723.59	250.96
723.93	250.83
724.26	250.65
724.59	250.50
724.92	250.29
725.25	250.28
725.59	250.11
725.92	250.01
726.25	249.74
726.58	249.61
726.91	249.38
727.24	249.27
727.57	249.10
727.91	248.82
728.24	248.62
728.57	248.37
728.90	248.25
729.23	247.95
729.56	248.03
729.89	247.88
730.22	247.65
730.55	247.46
730.89	247.28
731.22	247.09
731.55	246.92
731.88	246.80
732.21	246.50
732.54	246.38
732.87	246.11
733.20	245.97
733.53	245.74
733.86	245.60
734.19	245.35
734.52	245.32
734.85	245.49
735.18	245.24
735.51	245.15
735.84	245.02
736.17	244.93
736.50	244.51
736.83	244.94
737.16	244.82
737.49	244.70
737.82	244.53
738.15	244.51
738.48	244.28
738.81	244.09
739.14	243.96
739.47	243.78
739.80	243.60
740.13	243.54
740.46	243.32
740.79	243.09
741.12	242.89
741.45	242.58
741.78	242.17
742.11	242.21
742.44	242.08
742.77	242.07
743.10	241.81
743.43	241.62
743.75	240.90
744.08	241.39
744.41	241.26
744.74	241.08
745.07	240.82
745.40	240.83
745.73	240.96
746.06	240.89
746.39	240.81
746.71	240.68
747.04	240.43
747.37	240.23
747.70	240.20
748.03	240.12
748.36	240.10
748.68	240.02
749.01	239.82
749.34	239.62
749.67	239.51
750.00	239.55
750.33	239.89
750.65	239.83
750.98	239.09
751.31	239.03
751.64	238.99
751.97	239.18
752.29	239.14
752.62	238.77
752.95	238.57
753.28	238.42
753.60	238.40
753.93	238.48
754.26	238.53
754.59	238.37
754.91	238.27
755.24	238.16
755.57	238.14
755.90	238.00
756.22	237.89
756.55	237.67
756.88	237.44
757.20	237.00
757.53	236.85
757.86	236.78
758.19	236.65
758.51	236.55
758.84	236.17
759.17	235.95
759.49	235.95
759.82	236.09
760.15	236.05
760.47	235.90
760.80	235.64
761.13	235.61
761.45	235.54
761.78	235.46
762.11	235.40
762.43	235.21
762.76	235.10
763.08	235.07
763.41	235.04
763.74	234.98
764.06	234.83
764.39	234.75
764.71	234.54
765.04	234.44
765.37	234.28
765.69	234.23
766.02	234.14
766.34	233.94
766.67	233.64
767.00	233.66
767.32	233.87
767.65	234.09
767.97	233.94
768.30	233.82
768.62	233.76
768.95	233.58
769.27	233.52
769.60	233.52
769.92	233.43
770.25	233.35
770.57	233.19
770.90	233.23
771.22	233.15
771.55	233.19
771.87	233.14
772.20	233.05
772.52	233.44
772.85	233.94
773.17	233.94
773.50	233.89
773.82	233.76
774.15	233.44
774.47	233.09
774.80	232.98
775.12	232.85
775.45	232.81
775.77	232.81
776.09	232.79
776.42	232.76
776.74	232.82
777.07	232.68
777.39	232.68
777.72	232.45
778.04	232.38
778.36	232.28
778.69	232.34
779.01	232.37
779.33	231.89
779.66	231.27
779.98	231.18
780.31	231.19
780.63	231.32
780.95	231.40
781.28	231.34
781.60	231.28
781.92	231.31
782.25	231.19
782.57	231.13
782.89	230.97
783.22	230.81
783.54	230.68
783.86	230.67
784.19	230.56
784.51	230.71
784.83	230.58
785.16	230.57
785.48	230.44
785.80	230.35
786.12	230.26
786.45	230.29
786.77	230.32
787.09	230.31
787.42	230.12
787.74	230.06
788.06	230.10
788.38	230.03
788.71	229.99
789.03	230.03
789.35	230.07
789.67	230.04
789.99	230.13
790.32	229.97
790.64	230.05
790.96	230.43
791.28	230.23
791.61	230.13
791.93	230.17
792.25	230.11
792.57	230.46
792.89	230.36
793.21	230.33
793.54	230.24
793.86	230.07
794.18	230.02
794.50	229.85
794.82	229.85
795.14	229.91
795.47	229.91
795.79	229.84
796.11	229.69
796.43	229.67
796.75	229.65
797.07	229.72
797.39	229.60
797.71	229.25
798.04	229.22
798.36	229.41
798.68	229.35
799.00	229.39
799.32	229.13
799.64	229.20
799.96	229.24
800.28	229.36
800.60	229.33
800.92	229.34
801.24	229.36
801.56	229.40
801.89	229.30
802.21	229.31
802.53	229.27
802.85	229.39
803.17	229.64
803.49	229.47
803.81	229.41
804.13	229.46
804.45	229.40
804.77	229.43
805.09	229.36
805.41	229.25
805.73	229.17
806.05	229.01
806.37	229.03
806.69	228.93
807.01	228.75
807.33	228.85
807.65	228.62
807.97	228.80
808.28	228.63
808.60	228.63
808.92	228.55
809.24	228.87
809.56	228.77
809.88	228.51
810.20	228.54
810.52	228.58
810.84	228.48
811.16	228.40
811.48	228.41
811.80	228.53
812.12	228.52
812.43	228.47
812.75	228.50
813.07	228.36
813.39	228.35
813.71	228.30
814.03	228.22
814.35	228.31
814.67	228.10
814.98	228.09
815.30	228.09
815.62	228.02
815.94	227.62
816.26	227.79
816.58	227.65
816.89	227.64
817.21	227.55
817.53	227.46
817.85	227.51
818.17	227.45
818.48	227.20
818.80	227.33
819.12	227.35
819.44	227.20
819.76	227.20
820.07	227.18
820.39	227.18
820.71	227.17
821.03	227.17
821.34	227.10
821.66	227.13
821.98	227.19
822.30	227.15
822.61	227.46
822.93	227.22
823.25	227.27
823.57	227.23
823.88	227.28
824.20	227.30
824.52	227.43
824.83	227.45
825.15	227.40
825.47	227.33
825.79	227.38
826.10	227.44
826.42	227.44
826.74	227.47
827.05	227.48
827.37	227.47
827.69	227.44
828.00	227.46
828.32	227.47
828.64	227.39
828.95	227.69
829.27	227.55
829.58	227.59
829.90	227.65
830.22	227.71
830.53	227.64
830.85	227.63
831.17	227.46
831.48	227.47
831.80	227.56
832.11	227.54
832.43	227.40
832.75	227.42
833.06	227.68
833.38	227.57
833.69	227.57
834.01	227.64
834.32	227.58
834.64	227.55
834.96	227.51
835.27	227.51
835.59	227.27
835.90	227.19
836.22	227.16
836.53	227.17
836.85	227.21
837.16	227.64
837.48	227.63
837.79	227.79
838.11	227.75
838.42	227.78
838.74	227.83
839.05	227.85
839.37	227.82
839.68	227.55
840.00	227.56
840.31	227.60
840.63	227.60
840.94	227.58
841.26	227.54
841.57	227.59
841.88	227.57
842.20	227.53
842.51	227.55
842.83	227.52
843.14	227.98
843.46	227.90
843.77	227.65
844.08	227.64
844.40	227.45
844.71	227.43
845.03	227.40
845.34	227.37
845.65	227.45
845.97	227.49
846.28	227.50
846.60	227.52
846.91	227.41
847.22	227.39
847.54	227.49
847.85	227.58
848.16	227.53
848.48	227.48
848.79	227.68
849.10	227.68
849.42	227.72
849.73	227.26
850.04	227.26
850.36	227.12
850.67	227.25
850.98	227.28
851.30	227.30
851.61	227.26
851.92	227.27
852.23	227.32
852.55	227.33
852.86	227.36
853.17	227.42
853.49	227.45
853.80	227.54
854.11	227.64
854.42	227.66
854.74	227.53
855.05	227.53
855.36	227.32
855.67	227.29
855.99	227.34
856.30	227.92
856.61	227.91
856.92	227.88
857.23	227.79
857.55	227.68
857.86	227.70
858.17	227.82
858.48	227.68
858.79	227.60
859.11	227.58
859.42	227.44
859.73	227.38
860.04	227.44
860.35	227.26
860.66	227.07
860.98	227.00
861.29	227.16
861.60	227.16
861.91	227.29
862.22	227.27
862.53	227.11
862.84	226.42
863.16	226.54
863.47	226.53
863.78	226.45
864.09	226.58
864.40	226.60
864.71	226.55
865.02	226.64
865.33	226.56
865.64	226.53
865.95	226.58
866.27	226.88
866.58	226.85
866.89	226.93
867.20	226.93
867.51	226.90
867.82	226.81
868.13	226.95
868.44	226.80
868.75	226.86
869.06	226.90
869.37	227.05
869.68	226.86
869.99	226.92
870.30	227.03
870.61	227.02
870.92	227.01
871.23	226.93
871.54	226.99
871.85	227.03
872.16	227.06
872.47	227.10
872.78	226.83
873.09	226.88
873.40	226.78
873.71	226.77
874.02	226.73
874.33	226.64
874.64	226.57
874.95	226.60
875.26	226.50
875.56	226.48
875.87	226.42
876.18	226.47
876.49	226.99
876.80	226.93
877.11	226.94
877.42	226.91
877.73	226.98
878.04	226.89
878.35	226.95
878.66	226.99
878.96	226.92
879.27	226.88
879.58	226.84
879.89	226.89
880.20	227.03
880.51	227.08
880.82	227.09
881.12	227.10
881.43	227.05
881.74	227.05
882.05	227.02
882.36	227.11
882.67	227.15
882.97	226.56
883.28	226.55
883.59	226.59
883.90	226.65
884.21	226.70
884.51	226.75
884.82	226.65
885.13	226.63
885.44	226.66
885.74	226.70
886.05	226.66
886.36	226.69
886.67	226.56
886.98	226.79
887.28	226.92
887.59	226.88
887.90	226.94
888.20	226.95
888.51	227.06
888.82	226.96
889.13	227.03
889.43	227.42
889.74	227.32
890.05	227.25
890.35	227.14
890.66	227.00
890.97	226.98
891.28	226.98
891.58	226.95
891.89	226.96
892.20	226.88
892.50	226.81
892.81	226.84
893.12	226.87
893.42	226.66
893.73	226.66
894.04	226.68
894.34	226.77
894.65	226.69
894.95	226.65
895.26	226.68
895.57	226.74
895.87	226.31
896.18	226.49
896.48	226.52
896.79	226.56
897.10	226.60
897.40	226.51
897.71	226.54
898.01	226.47
898.32	226.48
898.63	226.43
898.93	226.44
899.24	226.40
899.54	226.26
899.85	226.24
900.15	226.18
900.46	226.18
900.76	226.16
901.07	226.18
901.38	226.22
901.68	226.20
901.99	225.97
902.29	226.05
902.60	225.95
902.90	225.89
903.21	225.84
903.51	225.79
903.82	225.93
904.12	226.00
904.43	226.05
904.73	226.02
905.03	226.09
905.34	226.63
905.64	226.57
905.95	226.64
906.25	226.64
906.56	226.75
906.86	226.74
907.17	226.63
907.47	226.63
907.77	226.46
908.08	226.35
908.38	226.45
908.69	226.44
908.99	226.53
909.30	226.51
909.60	226.47
909.90	226.59
910.21	226.44
910.51	226.35
910.81	226.33
911.12	226.33
911.42	226.30
911.73	225.75
912.03	225.76
912.33	225.88
912.64	225.82
912.94	225.64
913.24	225.50
913.55	225.51
913.85	225.47
914.15	225.63
914.46	225.72
914.76	225.62
915.06	225.52
915.37	225.43
915.67	225.35
915.97	225.44
916.27	225.29
916.58	225.42
916.88	225.45
917.18	225.44
917.49	225.82
917.79	225.83
918.09	225.97
918.39	226.09
918.70	225.99
919.00	226.02
919.30	226.24
919.60	226.23
919.91	226.13
920.21	226.20
920.51	226.11
920.81	226.11
921.12	226.28
921.42	226.35
921.72	226.34
922.02	226.45
922.32	226.48
922.63	226.51
922.93	226.65
923.23	226.66
923.53	226.59
923.83	226.30
924.13	226.35
924.44	226.27
924.74	226.36
925.04	226.52
925.34	226.55
925.64	226.40
925.94	226.43
926.24	226.74
926.55	226.70
926.85	226.72
927.15	226.67
927.45	226.60
927.75	226.59
928.05	226.62
928.35	226.57
928.65	226.69
928.95	226.75
929.26	226.57
929.56	226.63
929.86	226.75
930.16	226.69
930.46	226.72
930.76	226.77
931.06	226.55
931.36	226.41
931.66	226.44
931.96	226.42
932.26	226.43
932.56	226.23
932.86	226.30
933.16	226.36
933.46	226.40
933.76	226.26
934.06	226.39
934.36	226.55
934.66	226.53
934.96	226.45
935.26	226.44
935.56	226.55
935.86	226.41
936.16	226.35
936.46	226.25
936.76	226.08
937.06	226.00
937.36	226.09
937.66	226.10
937.96	226.18
938.26	226.07
938.56	226.11
938.86	226.17
939.16	226.29
939.46	226.31
939.76	226.29
940.06	226.37
940.35	226.28
940.65	226.06
940.95	226.10
941.25	225.99
941.55	225.95
941.85	225.87
942.15	226.00
942.45	226.10
942.75	226.11
943.04	226.26
943.34	226.39
943.64	226.24
943.94	226.23
944.24	226.15
944.54	226.19
944.84	226.16
945.13	226.02
945.43	225.90
945.73	225.88
946.03	225.83
946.33	225.81
946.62	225.78
946.92	225.76
947.22	225.82
947.52	225.75
947.82	225.85
948.11	225.81
948.41	225.72
948.71	225.56
949.01	225.62
949.31	225.57
949.60	225.53
949.90	225.68
950.20	225.65
950.50	225.66
950.79	225.66
951.09	225.68
951.39	225.68
951.69	225.62
951.98	225.75
952.28	225.75
952.58	225.76
952.87	225.72
953.17	225.77
953.47	225.75
953.76	225.91
954.06	225.78
954.36	225.72
954.66	225.77
954.95	225.97
955.25	225.95
955.55	225.99
955.84	225.95
956.14	225.94
956.44	225.95
956.73	225.83
957.03	225.89
957.32	225.91
957.62	225.94
957.92	226.00
958.21	225.99
958.51	226.56
958.81	226.56
959.10	226.59
959.40	226.75
959.69	226.71
959.99	226.77
960.29	226.81
960.58	226.80
960.88	226.92
961.17	226.86
961.47	226.97
961.76	226.93
962.06	227.02
962.36	226.97
962.65	227.03
962.95	227.05
963.24	227.02
963.54	227.11
963.83	227.16
964.13	227.14
964.42	226.95
964.72	226.61
965.01	226.63
965.31	226.68
965.60	226.45
965.90	226.73
966.19	226.54
966.49	226.57
966.78	226.56
967.08	226.51
967.37	226.43
967.67	226.32
967.96	226.38
968.26	226.27
968.55	226.39
968.85	226.37
969.14	226.42
969.43	226.40
969.73	226.34
970.02	226.29
970.32	226.35
970.61	226.41
970.91	226.28
971.20	226.19
971.49	226.13
971.79	226.27
972.08	225.93
972.38	226.04
972.67	226.00
972.96	226.04
973.26	225.90
973.55	226.16
973.85	226.14
974.14	226.06
974.43	226.14
974.73	225.95
975.02	225.94
975.31	225.99
975.61	225.97
975.90	225.92
976.19	225.89
976.49	225.86
976.78	225.86
977.07	225.83
977.37	225.92
977.66	225.95
977.95	225.91
978.24	225.96
978.54	226.02
978.83	225.96
979.12	225.92
979.42	225.98
979.71	225.82
980.00	225.89
980.29	225.95
980.59	225.89
980.88	226.05
981.17	226.02
981.46	225.96
981.76	225.99
982.05	226.13
982.34	226.17
982.63	226.12
982.93	226.13
983.22	226.35
983.51	226.34
983.80	226.40
984.09	226.38
984.39	226.37
984.68	226.33
984.97	226.42
985.26	226.40
985.55	226.46
985.85	226.33
986.14	226.31
986.43	226.35
986.72	226.29
987.01	226.16
987.30	226.16
987.59	226.09
987.89	226.09
988.18	225.89
988.47	225.87
988.76	225.87
989.05	225.82
989.34	225.62
989.63	225.68
989.92	225.60
990.22	225.55
990.51	225.59
990.80	225.53
991.09	225.49
991.38	225.61
991.67	225.50
991.96	225.48
992.25	225.51
992.54	225.43
992.83	225.49
993.12	225.47
993.41	225.60
993.70	225.80
993.99	225.85
994.28	225.96
994.58	225.99
994.87	225.97
995.16	225.91
995.45	225.87
995.74	225.78
996.03	225.84
996.32	225.98
996.61	226.06
996.90	226.07
997.19	226.08
997.48	226.08
997.77	226.11
998.06	226.15
998.34	226.15
998.63	226.11
998.92	226.11
999.21	226.17
999.50	226.07
999.79	225.93
1000.08	225.95
1000.37	225.96
1000.66	225.97
1000.95	226.02
1001.24	226.08
1001.53	226.17
1001.82	226.18
1002.11	226.11
1002.40	226.07
1002.68	226.21
1002.97	226.56
1003.26	226.49
1003.55	226.42
1003.84	226.45
1004.13	226.55
1004.42	226.54
1004.71	226.61
1004.99	226.58
1005.28	226.70
1005.57	226.69
1005.86	226.64
1006.15	226.64
1006.44	226.55
1006.72	226.56
1007.01	226.58
1007.30	226.54
1007.59	226.53
1007.88	226.50
1008.17	226.52
1008.45	226.42
1008.74	226.15
1009.03	225.90
1009.32	225.95
1009.60	225.92
1009.89	225.80
1010.18	225.62
1010.47	225.56
1010.76	225.52
1011.04	225.50
1011.33	225.48
1011.62	225.52
1011.91	225.58
1012.19	225.60
1012.48	225.59
1012.77	225.57
1013.05	225.72
1013.34	225.80
1013.63	225.72
1013.92	225.74
1014.20	225.77
1014.49	225.81
1014.78	225.86
1015.06	225.72
1015.35	225.65
1015.64	225.68
1015.92	225.80
1016.21	225.90
1016.50	225.91
1016.78	225.93
1017.07	225.97
1017.36	225.92
1017.64	225.84
1017.93	225.87
1018.22	225.75
1018.50	225.84
1018.79	225.81
1019.08	225.56
1019.36	225.52
1019.65	225.52
1019.93	225.64
1020.22	225.62
1020.51	225.89
1020.79	225.81
1021.08	223.75
1021.36	226.30
1021.65	225.10
1021.94	224.55
1022.22	225.95
1022.51	225.30
1022.79	227.75
1023.08	225.85
1023.36	231.50
1023.65	224.30
>>>>>End Processed Spectral Data<<<<<
