SpectraSuite Data File
++++++++++++++++++++++++++++++++++++
Date: Wed Sep 04 17:42:08 EDT 2013
User: lab3
Dark Spectrum Present: Yes
Reference Spectrum Present: No
Number of Sampled Component Spectra: 1
Spectrometers: USB2E7196
Integration Time (usec): 170000 (USB2E7196)
Spectra Averaged: 20 (USB2E7196)
Boxcar Smoothing: 10 (USB2E7196)
Correct for Electrical Dark: No (USB2E7196)
Strobe/Lamp Enabled: No (USB2E7196)
Correct for Detector Non-linearity: No (USB2E7196)
Correct for Stray Light: No (USB2E7196)
Number of Pixels in Processed Spectrum: 2048
>>>>>Begin Processed Spectral Data<<<<<
339.09	0.00
339.48	212.90
339.86	215.45
340.24	214.90
340.63	217.10
341.01	226.10
341.39	221.30
341.78	222.35
342.16	224.25
342.54	221.35
342.93	211.97
343.31	222.65
343.69	223.21
344.07	223.63
344.46	224.17
344.84	224.56
345.22	224.47
345.60	224.63
345.99	224.78
346.37	224.84
346.75	224.98
347.13	225.04
347.52	225.17
347.90	225.42
348.28	225.40
348.66	225.47
349.05	225.37
349.43	225.45
349.81	225.50
350.19	225.49
350.57	225.52
350.96	225.70
351.34	225.79
351.72	225.84
352.10	225.91
352.48	225.91
352.87	225.93
353.25	225.99
353.63	226.07
354.01	226.12
354.39	226.22
354.77	226.30
355.15	226.53
355.54	226.48
355.92	226.32
356.30	226.43
356.68	226.78
357.06	226.92
357.44	226.97
357.82	227.02
358.20	227.53
358.58	227.55
358.97	227.57
359.35	227.69
359.73	227.78
360.11	227.85
360.49	227.83
360.87	227.97
361.25	228.12
361.63	228.31
362.01	228.39
362.39	228.35
362.77	228.39
363.15	228.38
363.53	228.45
363.91	228.60
364.29	228.62
364.67	228.21
365.05	228.19
365.43	228.21
365.81	228.29
366.19	228.21
366.57	228.44
366.95	228.46
367.33	228.41
367.71	228.43
368.09	228.58
368.47	228.69
368.85	228.59
369.23	228.71
369.61	228.51
369.99	228.70
370.37	228.74
370.75	229.00
371.13	228.83
371.51	228.73
371.89	228.66
372.27	228.68
372.65	228.72
373.03	228.72
373.41	228.64
373.78	228.52
374.16	228.20
374.54	227.99
374.92	227.85
375.30	227.83
375.68	227.70
376.06	227.60
376.44	227.43
376.82	227.33
377.19	227.20
377.57	227.16
377.95	226.87
378.33	226.80
378.71	226.43
379.09	226.52
379.47	226.50
379.84	226.40
380.22	226.36
380.60	226.17
380.98	226.12
381.36	226.06
381.73	226.00
382.11	226.01
382.49	226.05
382.87	225.96
383.25	225.88
383.62	226.35
384.00	226.17
384.38	226.22
384.76	226.26
385.13	226.37
385.51	226.30
385.89	226.14
386.27	226.07
386.64	226.11
387.02	225.94
387.40	225.85
387.78	225.81
388.15	225.71
388.53	225.70
388.91	225.63
389.29	225.55
389.66	225.56
390.04	225.43
390.42	225.33
390.79	225.36
391.17	225.35
391.55	224.84
391.92	224.85
392.30	224.83
392.68	224.80
393.05	224.74
393.43	224.78
393.81	224.89
394.18	224.90
394.56	224.92
394.94	225.11
395.31	225.12
395.69	225.25
396.06	225.38
396.44	225.46
396.82	225.47
397.19	225.79
397.57	225.84
397.95	226.04
398.32	226.07
398.70	226.22
399.07	226.42
399.45	226.53
399.82	226.64
400.20	226.65
400.58	226.71
400.95	226.65
401.33	226.77
401.70	227.20
402.08	227.28
402.45	227.42
402.83	227.63
403.20	227.81
403.58	227.95
403.95	228.10
404.33	228.32
404.71	228.53
405.08	228.95
405.46	229.12
405.83	229.37
406.21	229.64
406.58	229.80
406.96	229.92
407.33	230.17
407.70	230.48
408.08	231.22
408.45	231.59
408.83	232.02
409.20	232.35
409.58	232.46
409.95	232.93
410.33	233.31
410.70	233.59
411.08	234.15
411.45	234.64
411.82	235.13
412.20	235.79
412.57	236.66
412.95	236.88
413.32	237.65
413.69	238.31
414.07	239.01
414.44	239.88
414.82	240.77
415.19	241.75
415.56	242.72
415.94	243.57
416.31	244.77
416.68	245.89
417.06	247.28
417.43	248.63
417.81	250.16
418.18	251.75
418.55	253.36
418.93	255.01
419.30	256.81
419.67	258.71
420.04	260.57
420.42	262.47
420.79	265.11
421.16	267.42
421.54	269.92
421.91	272.45
422.28	275.00
422.66	277.78
423.03	280.77
423.40	283.54
423.77	286.49
424.15	289.55
424.52	292.64
424.89	296.14
425.26	299.40
425.64	302.38
426.01	305.71
426.38	309.32
426.75	313.05
427.13	316.76
427.50	320.74
427.87	324.86
428.24	328.83
428.61	332.47
428.99	336.87
429.36	341.43
429.73	345.90
430.10	350.49
430.47	355.12
430.85	359.63
431.22	364.85
431.59	370.61
431.96	375.72
432.33	381.48
432.70	386.97
433.08	393.53
433.45	399.90
433.82	406.09
434.19	413.09
434.56	419.81
434.93	426.24
435.30	432.65
435.68	439.77
436.05	446.81
436.42	453.76
436.79	460.10
437.16	467.00
437.53	474.34
437.90	481.61
438.27	488.79
438.64	496.24
439.01	502.99
439.38	508.78
439.75	514.80
440.13	521.60
440.50	527.77
440.87	532.87
441.24	538.10
441.61	543.84
441.98	547.94
442.35	552.76
442.72	557.71
443.09	562.65
443.46	565.45
443.83	567.41
444.20	568.97
444.57	571.22
444.94	572.20
445.31	573.17
445.68	574.34
446.05	574.60
446.42	573.58
446.79	572.60
447.16	571.32
447.53	570.32
447.90	567.21
448.27	564.39
448.64	560.37
449.01	557.40
449.37	552.50
449.74	547.57
450.11	542.14
450.48	535.84
450.85	529.15
451.22	523.54
451.59	518.18
451.96	513.08
452.33	506.46
452.70	500.42
453.07	493.30
453.43	485.74
453.80	478.70
454.17	472.06
454.54	465.73
454.91	459.08
455.28	452.41
455.65	446.39
456.02	440.87
456.38	435.61
456.75	429.18
457.12	423.85
457.49	418.60
457.86	413.15
458.23	408.95
458.59	404.25
458.96	399.49
459.33	395.24
459.70	391.05
460.07	387.64
460.43	383.73
460.80	380.27
461.17	377.32
461.54	374.13
461.91	371.13
462.27	367.88
462.64	365.05
463.01	362.18
463.38	359.44
463.74	355.91
464.11	353.46
464.48	351.30
464.85	348.94
465.21	347.28
465.58	345.34
465.95	342.91
466.32	341.08
466.68	339.26
467.05	337.41
467.42	335.66
467.78	333.82
468.15	332.16
468.52	330.86
468.88	328.91
469.25	327.32
469.62	326.04
469.98	324.72
470.35	323.56
470.72	322.42
471.08	320.98
471.45	320.00
471.82	318.98
472.18	317.80
472.55	316.98
472.92	315.81
473.28	314.99
473.65	314.20
474.02	313.36
474.38	312.69
474.75	312.15
475.11	311.33
475.48	310.77
475.85	310.25
476.21	309.68
476.58	309.33
476.94	309.03
477.31	308.66
477.67	308.28
478.04	308.00
478.41	307.78
478.77	308.18
479.14	307.93
479.50	307.88
479.87	308.02
480.23	308.04
480.60	308.04
480.96	308.14
481.33	308.43
481.69	308.64
482.06	308.90
482.42	309.17
482.79	309.66
483.15	310.15
483.52	310.79
483.88	311.20
484.25	311.85
484.61	312.53
484.98	313.15
485.34	314.18
485.71	315.13
486.07	316.03
486.44	316.58
486.80	317.68
487.17	318.69
487.53	319.90
487.90	321.18
488.26	322.83
488.62	324.39
488.99	325.80
489.35	327.49
489.72	329.09
490.08	330.89
490.44	332.66
490.81	334.72
491.17	336.58
491.54	338.91
491.90	341.18
492.26	343.65
492.63	346.19
492.99	348.67
493.36	351.46
493.72	354.54
494.08	357.64
494.45	361.01
494.81	364.65
495.17	368.08
495.54	371.88
495.90	375.68
496.26	379.67
496.63	383.90
496.99	388.14
497.35	392.69
497.72	397.53
498.08	402.46
498.44	407.60
498.80	413.13
499.17	418.57
499.53	424.24
499.89	430.10
500.26	436.13
500.62	442.34
500.98	448.87
501.34	455.51
501.71	462.37
502.07	469.25
502.43	476.28
502.79	483.84
503.16	491.52
503.52	499.41
503.88	507.59
504.24	516.07
504.60	524.95
504.97	534.19
505.33	543.24
505.69	553.01
506.05	562.64
506.41	572.29
506.78	582.42
507.14	592.70
507.50	603.41
507.86	614.53
508.22	625.89
508.59	637.12
508.95	648.85
509.31	660.96
509.67	673.24
510.03	685.47
510.39	698.06
510.75	710.78
511.12	723.59
511.48	736.78
511.84	749.94
512.20	763.14
512.56	776.67
512.92	790.74
513.28	804.73
513.64	818.84
514.00	833.52
514.37	848.38
514.73	863.50
515.09	878.54
515.45	893.46
515.81	908.42
516.17	923.76
516.53	938.90
516.89	954.11
517.25	969.77
517.61	986.07
517.97	1002.42
518.33	1018.75
518.69	1035.04
519.05	1051.55
519.41	1068.19
519.77	1085.19
520.13	1101.83
520.49	1118.37
520.85	1136.19
521.21	1152.99
521.57	1169.84
521.93	1186.00
522.29	1202.68
522.65	1218.47
523.01	1235.07
523.37	1251.25
523.73	1267.47
524.09	1283.44
524.45	1299.52
524.81	1315.40
525.17	1331.23
525.53	1346.61
525.89	1362.33
526.25	1378.35
526.61	1393.62
526.97	1409.47
527.33	1425.50
527.68	1441.85
528.04	1457.73
528.40	1472.03
528.76	1487.85
529.12	1502.76
529.48	1518.02
529.84	1532.48
530.20	1547.99
530.56	1563.05
530.91	1578.19
531.27	1592.98
531.63	1607.71
531.99	1622.17
532.35	1636.57
532.71	1651.03
533.07	1665.90
533.42	1679.76
533.78	1693.43
534.14	1707.28
534.50	1720.26
534.86	1733.24
535.21	1745.00
535.57	1757.21
535.93	1769.06
536.29	1780.90
536.65	1792.76
537.00	1804.58
537.36	1816.27
537.72	1827.12
538.08	1838.12
538.44	1848.93
538.79	1859.63
539.15	1870.36
539.51	1880.72
539.87	1889.90
540.22	1898.54
540.58	1907.46
540.94	1915.45
541.29	1923.17
541.65	1930.41
542.01	1937.89
542.37	1943.57
542.72	1949.53
543.08	1955.52
543.44	1962.14
543.79	1966.86
544.15	1972.03
544.51	1977.00
544.87	1981.92
545.22	1986.14
545.58	1989.61
545.94	1992.30
546.29	1994.50
546.65	1996.63
547.01	1997.87
547.36	1999.82
547.72	2001.24
548.07	2001.11
548.43	2002.49
548.79	2003.13
549.14	2003.79
549.50	2004.09
549.86	2004.75
550.21	2005.12
550.57	2005.12
550.92	2003.58
551.28	2002.43
551.64	2001.74
551.99	2000.74
552.35	1998.98
552.70	1998.19
553.06	1996.91
553.41	1995.51
553.77	1994.60
554.13	1993.32
554.48	1992.35
554.84	1991.00
555.19	1989.57
555.55	1988.99
555.90	1986.29
556.26	1983.48
556.61	1979.80
556.97	1976.05
557.32	1973.03
557.68	1969.81
558.03	1966.57
558.39	1963.47
558.74	1961.00
559.10	1956.85
559.45	1952.03
559.81	1947.12
560.16	1941.44
560.52	1935.76
560.87	1930.75
561.23	1924.94
561.58	1918.90
561.94	1912.11
562.29	1905.15
562.64	1898.28
563.00	1890.48
563.35	1884.25
563.71	1877.74
564.06	1871.98
564.42	1865.58
564.77	1859.30
565.12	1852.69
565.48	1845.87
565.83	1838.76
566.19	1831.43
566.54	1824.30
566.89	1817.32
567.25	1810.64
567.60	1804.13
567.96	1797.65
568.31	1790.75
568.66	1783.45
569.02	1775.96
569.37	1769.08
569.72	1762.47
570.08	1754.91
570.43	1746.92
570.78	1739.12
571.14	1731.55
571.49	1722.94
571.84	1715.08
572.20	1706.21
572.55	1698.12
572.90	1688.99
573.26	1680.64
573.61	1671.67
573.96	1662.82
574.31	1653.45
574.67	1644.25
575.02	1634.52
575.37	1624.63
575.72	1614.48
576.08	1604.95
576.43	1595.13
576.78	1585.40
577.13	1574.98
577.49	1565.39
577.84	1556.52
578.19	1547.32
578.54	1537.85
578.90	1529.10
579.25	1520.04
579.60	1510.78
579.95	1500.92
580.30	1491.25
580.66	1481.37
581.01	1471.34
581.36	1461.08
581.71	1451.69
582.06	1442.17
582.42	1432.87
582.77	1423.67
583.12	1414.95
583.47	1405.87
583.82	1397.07
584.17	1388.12
584.53	1379.79
584.88	1370.37
585.23	1360.84
585.58	1350.64
585.93	1340.86
586.28	1331.20
586.63	1321.26
586.98	1311.26
587.34	1301.69
587.69	1292.48
588.04	1283.56
588.39	1275.10
588.74	1266.51
589.09	1258.10
589.44	1248.90
589.79	1240.41
590.14	1232.00
590.49	1223.31
590.84	1214.85
591.19	1206.71
591.54	1197.97
591.89	1189.03
592.25	1181.78
592.60	1173.78
592.95	1165.88
593.30	1157.72
593.65	1149.52
594.00	1141.08
594.35	1134.56
594.70	1126.28
595.05	1118.08
595.40	1109.67
595.75	1101.50
596.10	1093.58
596.45	1085.67
596.80	1078.13
597.15	1070.01
597.50	1061.85
597.85	1054.18
598.19	1046.21
598.54	1037.92
598.89	1030.33
599.24	1023.30
599.59	1015.31
599.94	1007.83
600.29	1000.72
600.64	993.75
600.99	986.47
601.34	979.83
601.69	971.69
602.04	965.24
602.39	958.70
602.74	952.59
603.08	946.06
603.43	939.95
603.78	933.26
604.13	926.79
604.48	920.34
604.83	913.78
605.18	906.96
605.53	900.74
605.87	894.72
606.22	888.92
606.57	882.48
606.92	876.17
607.27	870.26
607.62	864.46
607.96	858.73
608.31	853.43
608.66	847.84
609.01	842.11
609.36	836.23
609.70	830.61
610.05	824.72
610.40	819.10
610.75	813.07
611.10	807.42
611.44	801.76
611.79	796.21
612.14	790.88
612.49	785.58
612.83	780.37
613.18	775.10
613.53	769.81
613.88	764.51
614.22	759.28
614.57	753.84
614.92	748.52
615.27	743.47
615.61	738.07
615.96	732.91
616.31	727.80
616.65	723.12
617.00	717.97
617.35	712.96
617.70	708.15
618.04	703.41
618.39	698.73
618.74	694.27
619.08	689.70
619.43	684.87
619.78	680.17
620.12	675.25
620.47	670.47
620.82	665.45
621.16	660.87
621.51	656.65
621.85	652.30
622.20	647.86
622.55	643.25
622.89	639.00
623.24	634.72
623.59	630.37
623.93	626.03
624.28	622.00
624.62	618.39
624.97	614.54
625.32	610.51
625.66	606.45
626.01	602.37
626.35	598.61
626.70	595.05
627.04	591.38
627.39	587.72
627.73	584.12
628.08	580.82
628.43	577.03
628.77	573.25
629.12	569.58
629.46	566.36
629.81	563.25
630.15	559.89
630.50	556.61
630.84	553.54
631.19	550.32
631.53	547.14
631.88	543.39
632.22	540.02
632.57	537.03
632.91	533.86
633.26	530.81
633.60	527.64
633.95	524.33
634.29	521.15
634.64	518.02
634.98	514.80
635.32	511.76
635.67	509.08
636.01	506.23
636.36	503.35
636.70	500.30
637.05	497.28
637.39	494.48
637.73	491.63
638.08	488.92
638.42	485.93
638.77	483.11
639.11	480.15
639.45	477.08
639.80	474.02
640.14	471.25
640.49	468.45
640.83	465.85
641.17	463.41
641.52	460.89
641.86	458.48
642.20	456.35
642.55	453.73
642.89	451.25
643.23	448.79
643.58	446.69
643.92	444.28
644.26	441.95
644.61	439.78
644.95	437.53
645.29	435.05
645.64	432.97
645.98	430.68
646.32	428.73
646.66	426.57
647.01	424.52
647.35	422.63
647.69	420.60
648.04	418.62
648.38	416.60
648.72	414.71
649.06	412.59
649.41	410.43
649.75	408.46
650.09	406.42
650.43	404.44
650.78	402.35
651.12	400.39
651.46	398.48
651.80	396.48
652.14	394.51
652.49	392.86
652.83	391.05
653.17	389.36
653.51	387.46
653.85	385.90
654.20	384.31
654.54	382.50
654.88	380.80
655.22	379.31
655.56	377.69
655.90	376.01
656.25	374.46
656.59	372.97
656.93	371.56
657.27	370.25
657.61	368.65
657.95	367.15
658.29	365.70
658.64	364.30
658.98	362.84
659.32	361.39
659.66	359.92
660.00	358.49
660.34	357.16
660.68	355.77
661.02	354.30
661.36	352.83
661.70	351.47
662.05	350.19
662.39	348.70
662.73	347.48
663.07	346.47
663.41	345.26
663.75	343.87
664.09	342.54
664.43	341.08
664.77	340.01
665.11	338.76
665.45	337.57
665.79	336.43
666.13	335.20
666.47	334.00
666.81	332.72
667.15	331.52
667.49	330.37
667.83	329.50
668.17	328.48
668.51	327.49
668.85	326.60
669.19	325.80
669.53	324.77
669.87	323.70
670.21	322.43
670.55	321.39
670.89	320.64
671.23	319.62
671.57	318.78
671.91	317.81
672.25	316.87
672.58	316.09
672.92	314.99
673.26	314.10
673.60	313.22
673.94	312.49
674.28	311.68
674.62	310.83
674.96	309.88
675.30	309.01
675.64	308.18
675.97	307.30
676.31	306.28
676.65	305.41
676.99	304.70
677.33	303.83
677.67	303.08
678.01	302.05
678.34	301.31
678.68	300.69
679.02	299.83
679.36	299.18
679.70	298.35
680.04	297.75
680.37	297.11
680.71	296.42
681.05	295.68
681.39	295.05
681.73	294.37
682.06	293.74
682.40	293.16
682.74	292.59
683.08	292.06
683.42	291.32
683.75	290.73
684.09	289.96
684.43	289.49
684.77	288.85
685.10	288.41
685.44	287.90
685.78	287.28
686.12	286.78
686.45	286.13
686.79	285.46
687.13	285.00
687.46	284.50
687.80	284.05
688.14	283.51
688.48	282.92
688.81	282.42
689.15	282.02
689.49	281.44
689.82	280.94
690.16	280.30
690.50	279.89
690.83	279.40
691.17	278.85
691.51	278.31
691.84	277.94
692.18	277.37
692.52	276.79
692.85	276.31
693.19	275.99
693.52	275.51
693.86	275.09
694.20	274.61
694.53	274.10
694.87	273.63
695.21	273.07
695.54	272.65
695.88	272.19
696.21	271.51
696.55	271.05
696.88	270.59
697.22	270.19
697.56	269.84
697.89	269.33
698.23	268.93
698.56	268.55
698.90	268.14
699.23	267.74
699.57	267.36
699.90	266.89
700.24	266.35
700.58	266.09
700.91	265.90
701.25	265.80
701.58	265.74
701.92	265.58
702.25	265.33
702.59	264.97
702.92	264.66
703.26	264.42
703.59	264.14
703.93	264.20
704.26	263.90
704.60	263.57
704.93	263.23
705.26	262.89
705.60	262.63
705.93	262.16
706.27	261.98
706.60	261.80
706.94	261.80
707.27	261.57
707.61	261.31
707.94	260.90
708.27	260.25
708.61	259.64
708.94	259.09
709.28	258.82
709.61	258.44
709.94	258.10
710.28	257.80
710.61	257.50
710.95	256.77
711.28	256.74
711.61	256.36
711.95	256.25
712.28	256.00
712.61	255.68
712.95	255.75
713.28	255.72
713.61	255.36
713.95	254.81
714.28	254.48
714.61	254.05
714.95	253.76
715.28	253.50
715.61	253.14
715.95	252.90
716.28	252.54
716.61	252.43
716.95	252.14
717.28	251.91
717.61	251.65
717.94	251.38
718.28	250.76
718.61	250.54
718.94	250.22
719.27	249.94
719.61	249.75
719.94	249.33
720.27	248.73
720.60	248.51
720.94	248.29
721.27	248.10
721.60	248.12
721.93	247.93
722.27	247.85
722.60	247.77
722.93	247.64
723.26	247.51
723.59	247.23
723.93	247.08
724.26	246.90
724.59	246.66
724.92	246.59
725.25	246.64
725.59	246.42
725.92	246.26
726.25	246.16
726.58	246.01
726.91	245.79
727.24	245.81
727.57	245.64
727.91	245.40
728.24	245.30
728.57	244.94
728.90	244.80
729.23	244.51
729.56	244.55
729.89	244.34
730.22	244.16
730.55	244.03
730.89	243.90
731.22	243.73
731.55	243.61
731.88	243.42
732.21	243.14
732.54	242.99
732.87	242.88
733.20	242.75
733.53	242.61
733.86	242.52
734.19	242.24
734.52	242.18
734.85	242.41
735.18	242.22
735.51	242.26
735.84	242.13
736.17	242.14
736.50	241.79
736.83	242.24
737.16	242.16
737.49	242.04
737.82	241.96
738.15	241.97
738.48	241.88
738.81	241.69
739.14	241.57
739.47	241.46
739.80	241.36
740.13	241.33
740.46	241.09
740.79	240.99
741.12	240.87
741.45	240.64
741.78	240.23
742.11	240.22
742.44	240.04
742.77	240.00
743.10	239.82
743.43	239.67
743.75	238.99
744.08	239.52
744.41	239.44
744.74	239.22
745.07	238.92
745.40	238.90
745.73	239.01
746.06	238.83
746.39	238.86
746.71	238.64
747.04	238.43
747.37	238.38
747.70	238.28
748.03	238.19
748.36	238.20
748.68	238.11
749.01	237.85
749.34	237.70
749.67	237.64
750.00	237.51
750.33	237.80
750.65	237.79
750.98	237.00
751.31	236.88
751.64	236.81
751.97	236.97
752.29	236.80
752.62	236.51
752.95	236.46
753.28	236.29
753.60	236.19
753.93	236.26
754.26	236.16
754.59	235.94
754.91	235.75
755.24	235.57
755.57	235.50
755.90	235.42
756.22	235.25
756.55	235.02
756.88	234.91
757.20	234.50
757.53	234.27
757.86	234.24
758.19	234.15
758.51	234.09
758.84	233.76
759.17	233.61
759.49	233.55
759.82	233.69
760.15	233.59
760.47	233.58
760.80	233.31
761.13	233.28
761.45	233.26
761.78	233.25
762.11	233.21
762.43	233.00
762.76	232.96
763.08	233.06
763.41	233.01
763.74	232.98
764.06	232.90
764.39	232.91
764.71	232.80
765.04	232.66
765.37	232.56
765.69	232.44
766.02	232.35
766.34	232.31
766.67	232.03
767.00	232.08
767.32	232.25
767.65	232.39
767.97	232.27
768.30	232.26
768.62	232.21
768.95	232.18
769.27	232.18
769.60	232.17
769.92	232.01
770.25	231.94
770.57	231.70
770.90	231.68
771.22	231.49
771.55	231.44
771.87	231.46
772.20	231.39
772.52	231.83
772.85	232.38
773.17	232.34
773.50	232.25
773.82	232.16
774.15	231.85
774.47	231.57
774.80	231.53
775.12	231.42
775.45	231.33
775.77	231.32
776.09	231.35
776.42	231.25
776.74	231.36
777.07	231.28
777.39	231.41
777.72	231.28
778.04	231.41
778.36	231.34
778.69	231.33
779.01	231.37
779.33	230.82
779.66	230.28
779.98	230.21
780.31	230.24
780.63	230.43
780.95	230.49
781.28	230.50
781.60	230.45
781.92	230.37
782.25	230.34
782.57	230.26
782.89	230.18
783.22	230.21
783.54	230.05
783.86	230.09
784.19	229.99
784.51	230.13
784.83	230.03
785.16	230.00
785.48	230.00
785.80	230.00
786.12	230.04
786.45	230.06
786.77	230.05
787.09	230.03
787.42	229.68
787.74	229.68
788.06	229.69
788.38	229.65
788.71	229.65
789.03	229.70
789.35	229.69
789.67	229.64
789.99	229.61
790.32	229.59
790.64	229.52
790.96	229.87
791.28	229.64
791.61	229.58
791.93	229.65
792.25	229.58
792.57	229.87
792.89	229.77
793.21	229.70
793.54	229.59
793.86	229.53
794.18	229.62
794.50	229.45
794.82	229.39
795.14	229.41
795.47	229.44
795.79	229.40
796.11	229.29
796.43	229.22
796.75	229.17
797.07	229.10
797.39	229.12
797.71	228.70
798.04	228.75
798.36	228.78
798.68	228.73
799.00	228.77
799.32	228.46
799.64	228.58
799.96	228.60
800.28	228.71
800.60	228.57
800.92	228.57
801.24	228.56
801.56	228.56
801.89	228.46
802.21	228.52
802.53	228.40
802.85	228.51
803.17	228.75
803.49	228.60
803.81	228.52
804.13	228.53
804.45	228.51
804.77	228.53
805.09	228.50
805.41	228.36
805.73	228.23
806.05	228.13
806.37	228.02
806.69	227.92
807.01	227.87
807.33	227.91
807.65	227.71
807.97	227.89
808.28	227.87
808.60	227.94
808.92	227.79
809.24	228.11
809.56	227.99
809.88	227.80
810.20	227.80
810.52	227.92
810.84	227.79
811.16	227.71
811.48	227.67
811.80	227.77
812.12	227.82
812.43	227.90
812.75	227.89
813.07	227.85
813.39	227.94
813.71	227.90
814.03	227.85
814.35	227.90
814.67	227.67
814.98	227.65
815.30	227.60
815.62	227.57
815.94	227.22
816.26	227.40
816.58	227.31
816.89	227.35
817.21	227.24
817.53	227.34
817.85	227.38
818.17	227.32
818.48	227.17
818.80	227.25
819.12	227.15
819.44	227.06
819.76	227.02
820.07	226.92
820.39	226.93
820.71	227.02
821.03	226.98
821.34	226.94
821.66	226.98
821.98	227.04
822.30	226.98
822.61	227.26
822.93	227.04
823.25	227.05
823.57	227.10
823.88	227.20
824.20	227.12
824.52	227.18
824.83	227.20
825.15	227.04
825.47	226.98
825.79	226.95
826.10	227.02
826.42	226.98
826.74	227.03
827.05	226.96
827.37	226.99
827.69	226.95
828.00	227.05
828.32	226.98
828.64	226.91
828.95	227.23
829.27	227.17
829.58	227.15
829.90	227.15
830.22	227.12
830.53	227.01
830.85	226.94
831.17	226.83
831.48	226.82
831.80	226.92
832.11	226.88
832.43	226.84
832.75	226.71
833.06	227.05
833.38	226.86
833.69	226.80
834.01	226.79
834.32	226.82
834.64	226.70
834.96	226.69
835.27	226.77
835.59	226.57
835.90	226.45
836.22	226.51
836.53	226.46
836.85	226.46
837.16	226.90
837.48	227.00
837.79	227.20
838.11	227.22
838.42	227.27
838.74	227.31
839.05	227.31
839.37	227.40
839.68	227.05
840.00	227.08
840.31	227.23
840.63	227.19
840.94	227.11
841.26	227.08
841.57	227.12
841.88	227.12
842.20	227.04
842.51	226.96
842.83	226.86
843.14	227.36
843.46	227.38
843.77	227.14
844.08	227.09
844.40	226.95
844.71	226.92
845.03	226.87
845.34	226.87
845.65	226.88
845.97	226.85
846.28	226.91
846.60	226.93
846.91	226.86
847.22	226.84
847.54	226.92
847.85	227.11
848.16	227.09
848.48	226.97
848.79	227.17
849.10	227.30
849.42	227.42
849.73	226.91
850.04	226.81
850.36	226.62
850.67	226.61
850.98	226.56
851.30	226.57
851.61	226.56
851.92	226.55
852.23	226.70
852.55	226.77
852.86	226.81
853.17	226.89
853.49	226.97
853.80	227.11
854.11	227.13
854.42	227.07
854.74	227.02
855.05	226.96
855.36	226.73
855.67	226.67
855.99	226.65
856.30	227.20
856.61	227.25
856.92	227.27
857.23	227.30
857.55	227.30
857.86	227.24
858.17	227.32
858.48	227.24
858.79	227.15
859.11	227.22
859.42	227.15
859.73	227.10
860.04	227.08
860.35	226.90
860.66	226.82
860.98	226.83
861.29	226.85
861.60	226.85
861.91	226.95
862.22	226.89
862.53	226.76
862.84	226.22
863.16	226.31
863.47	226.21
863.78	226.18
864.09	226.22
864.40	226.35
864.71	226.31
865.02	226.36
865.33	226.26
865.64	226.08
865.95	226.08
866.27	226.35
866.58	226.25
866.89	226.31
867.20	226.29
867.51	226.18
867.82	226.16
868.13	226.34
868.44	226.19
868.75	226.28
869.06	226.35
869.37	226.41
869.68	226.23
869.99	226.34
870.30	226.34
870.61	226.41
870.92	226.27
871.23	226.23
871.54	226.30
871.85	226.45
872.16	226.57
872.47	226.53
872.78	226.30
873.09	226.31
873.40	226.24
873.71	226.31
874.02	226.37
874.33	226.35
874.64	226.25
874.95	226.38
875.26	226.27
875.56	226.31
875.87	226.23
876.18	226.27
876.49	226.73
876.80	226.79
877.11	226.67
877.42	226.74
877.73	226.69
878.04	226.66
878.35	226.66
878.66	226.63
878.96	226.67
879.27	226.62
879.58	226.61
879.89	226.59
880.20	226.70
880.51	226.69
880.82	226.67
881.12	226.67
881.43	226.59
881.74	226.57
882.05	226.45
882.36	226.50
882.67	226.55
882.97	226.04
883.28	225.93
883.59	225.97
883.90	226.00
884.21	226.18
884.51	226.13
884.82	226.08
885.13	226.04
885.44	225.95
885.74	225.97
886.05	226.05
886.36	226.07
886.67	225.90
886.98	226.13
887.28	226.24
887.59	226.24
887.90	226.18
888.20	226.22
888.51	226.36
888.82	226.30
889.13	226.34
889.43	226.74
889.74	226.72
890.05	226.61
890.35	226.50
890.66	226.36
890.97	226.31
891.28	226.24
891.58	226.21
891.89	226.30
892.20	226.24
892.50	226.15
892.81	226.17
893.12	226.21
893.42	225.94
893.73	225.93
894.04	225.95
894.34	226.05
894.65	225.99
894.95	225.93
895.26	225.92
895.57	226.10
895.87	225.71
896.18	225.83
896.48	225.87
896.79	225.92
897.10	226.01
897.40	226.06
897.71	226.11
898.01	226.11
898.32	226.12
898.63	226.21
898.93	226.21
899.24	226.18
899.54	226.11
899.85	226.18
900.15	226.11
900.46	226.10
900.76	226.16
901.07	226.18
901.38	226.15
901.68	226.25
901.99	225.99
902.29	225.93
902.60	225.82
902.90	225.83
903.21	225.77
903.51	225.76
903.82	225.80
904.12	225.76
904.43	225.84
904.73	225.84
905.03	225.76
905.34	226.28
905.64	226.29
905.95	226.25
906.25	226.19
906.56	226.14
906.86	226.16
907.17	226.04
907.47	226.03
907.77	226.01
908.08	225.90
908.38	225.93
908.69	225.94
908.99	226.03
909.30	226.10
909.60	226.09
909.90	226.05
910.21	225.92
910.51	225.85
910.81	225.88
911.12	225.87
911.42	225.92
911.73	225.39
912.03	225.41
912.33	225.55
912.64	225.57
912.94	225.54
913.24	225.45
913.55	225.46
913.85	225.39
914.15	225.52
914.46	225.61
914.76	225.57
915.06	225.64
915.37	225.55
915.67	225.45
915.97	225.53
916.27	225.42
916.58	225.41
916.88	225.46
917.18	225.36
917.49	225.72
917.79	225.65
918.09	225.64
918.39	225.76
918.70	225.70
919.00	225.61
919.30	225.81
919.60	225.83
919.91	225.79
920.21	225.82
920.51	225.68
920.81	225.63
921.12	225.71
921.42	225.69
921.72	225.71
922.02	225.75
922.32	225.81
922.63	225.92
922.93	226.22
923.23	226.20
923.53	226.16
923.83	225.77
924.13	225.86
924.44	225.88
924.74	225.96
925.04	226.09
925.34	226.11
925.64	225.97
925.94	225.94
926.24	226.19
926.55	226.28
926.85	226.41
927.15	226.41
927.45	226.39
927.75	226.30
928.05	226.34
928.35	226.30
928.65	226.34
928.95	226.31
929.26	226.11
929.56	226.24
929.86	226.32
930.16	226.33
930.46	226.28
930.76	226.38
931.06	226.13
931.36	226.00
931.66	226.13
931.96	226.13
932.26	226.20
932.56	225.99
932.86	226.00
933.16	225.95
933.46	225.96
933.76	225.85
934.06	226.05
934.36	226.25
934.66	226.31
934.96	226.23
935.26	226.26
935.56	226.37
935.86	226.24
936.16	226.12
936.46	226.06
936.76	226.04
937.06	225.92
937.36	225.94
937.66	225.98
937.96	225.96
938.26	225.85
938.56	225.78
938.86	225.79
939.16	225.78
939.46	225.70
939.76	225.77
940.06	225.88
940.35	225.74
940.65	225.53
940.95	225.53
941.25	225.41
941.55	225.32
941.85	225.28
942.15	225.41
942.45	225.58
942.75	225.62
943.04	225.62
943.34	225.76
943.64	225.75
943.94	225.66
944.24	225.54
944.54	225.61
944.84	225.66
945.13	225.61
945.43	225.57
945.73	225.64
946.03	225.55
946.33	225.41
946.62	225.34
946.92	225.29
947.22	225.35
947.52	225.44
947.82	225.58
948.11	225.47
948.41	225.33
948.71	225.19
949.01	225.21
949.31	225.19
949.60	225.13
949.90	225.25
950.20	225.24
950.50	225.37
950.79	225.38
951.09	225.43
951.39	225.49
951.69	225.50
951.98	225.59
952.28	225.62
952.58	225.70
952.87	225.75
953.17	225.83
953.47	225.76
953.76	225.74
954.06	225.57
954.36	225.58
954.66	225.62
954.95	225.84
955.25	225.92
955.55	225.98
955.84	225.90
956.14	225.89
956.44	225.93
956.73	225.88
957.03	225.92
957.32	225.90
957.62	225.86
957.92	225.95
958.21	225.90
958.51	226.38
958.81	226.44
959.10	226.52
959.40	226.63
959.69	226.64
959.99	226.72
960.29	226.82
960.58	226.77
960.88	226.95
961.17	226.87
961.47	226.82
961.76	226.74
962.06	226.81
962.36	226.75
962.65	226.77
962.95	226.79
963.24	226.73
963.54	226.74
963.83	226.73
964.13	226.65
964.42	226.49
964.72	226.13
965.01	226.08
965.31	226.00
965.60	225.90
965.90	226.20
966.19	226.08
966.49	226.04
966.78	226.04
967.08	225.96
967.37	225.97
967.67	225.92
967.96	225.96
968.26	225.98
968.55	226.00
968.85	225.99
969.14	225.93
969.43	225.95
969.73	225.86
970.02	225.89
970.32	225.91
970.61	225.94
970.91	225.81
971.20	225.80
971.49	225.80
971.79	225.81
972.08	225.49
972.38	225.46
972.67	225.45
972.96	225.48
973.26	225.43
973.55	225.52
973.85	225.52
974.14	225.52
974.43	225.55
974.73	225.50
975.02	225.42
975.31	225.45
975.61	225.50
975.90	225.46
976.19	225.36
976.49	225.33
976.78	225.37
977.07	225.39
977.37	225.39
977.66	225.40
977.95	225.35
978.24	225.35
978.54	225.45
978.83	225.46
979.12	225.42
979.42	225.37
979.71	225.26
980.00	225.27
980.29	225.32
980.59	225.24
980.88	225.40
981.17	225.47
981.46	225.51
981.76	225.49
982.05	225.64
982.34	225.73
982.63	225.80
982.93	225.84
983.22	226.01
983.51	226.05
983.80	226.15
984.09	226.20
984.39	226.18
984.68	226.20
984.97	226.25
985.26	226.26
985.55	226.40
985.85	226.33
986.14	226.37
986.43	226.43
986.72	226.34
987.01	226.20
987.30	226.15
987.59	226.13
987.89	226.08
988.18	226.07
988.47	226.00
988.76	225.94
989.05	225.87
989.34	225.72
989.63	225.82
989.92	225.74
990.22	225.65
990.51	225.60
990.80	225.58
991.09	225.59
991.38	225.63
991.67	225.49
991.96	225.44
992.25	225.42
992.54	225.30
992.83	225.35
993.12	225.30
993.41	225.44
993.70	225.65
993.99	225.72
994.28	225.72
994.58	225.82
994.87	225.74
995.16	225.78
995.45	225.75
995.74	225.55
996.03	225.61
996.32	225.73
996.61	225.85
996.90	225.79
997.19	225.75
997.48	225.76
997.77	225.73
998.06	225.69
998.34	225.74
998.63	225.71
998.92	225.67
999.21	225.75
999.50	225.70
999.79	225.46
1000.08	225.50
1000.37	225.47
1000.66	225.40
1000.95	225.54
1001.24	225.53
1001.53	225.66
1001.82	225.64
1002.11	225.49
1002.40	225.51
1002.68	225.68
1002.97	225.99
1003.26	225.93
1003.55	225.88
1003.84	225.83
1004.13	226.11
1004.42	226.01
1004.71	226.04
1004.99	226.12
1005.28	226.21
1005.57	226.17
1005.86	226.15
1006.15	226.02
1006.44	225.90
1006.72	225.91
1007.01	225.78
1007.30	225.78
1007.59	225.66
1007.88	225.72
1008.17	225.78
1008.45	225.72
1008.74	225.42
1009.03	225.24
1009.32	225.19
1009.60	225.18
1009.89	225.22
1010.18	224.98
1010.47	225.01
1010.76	224.95
1011.04	224.91
1011.33	224.94
1011.62	225.01
1011.91	225.06
1012.19	225.09
1012.48	225.19
1012.77	225.19
1013.05	225.44
1013.34	225.40
1013.63	225.39
1013.92	225.42
1014.20	225.40
1014.49	225.45
1014.78	225.46
1015.06	225.31
1015.35	225.34
1015.64	225.41
1015.92	225.50
1016.21	225.50
1016.50	225.53
1016.78	225.65
1017.07	225.65
1017.36	225.55
1017.64	225.44
1017.93	225.45
1018.22	225.47
1018.50	225.46
1018.79	225.51
1019.08	225.26
1019.36	225.34
1019.65	225.29
1019.93	225.37
1020.22	225.45
1020.51	225.69
1020.79	225.71
1021.08	225.10
1021.36	225.25
1021.65	226.15
1021.94	224.30
1022.22	226.15
1022.51	224.40
1022.79	227.30
1023.08	226.50
1023.36	232.05
1023.65	224.60
>>>>>End Processed Spectral Data<<<<<
