SpectraSuite Data File
++++++++++++++++++++++++++++++++++++
Date: Wed Sep 04 18:00:24 EDT 2013
User: lab3
Dark Spectrum Present: Yes
Reference Spectrum Present: No
Number of Sampled Component Spectra: 1
Spectrometers: USB2E7196
Integration Time (usec): 170000 (USB2E7196)
Spectra Averaged: 20 (USB2E7196)
Boxcar Smoothing: 10 (USB2E7196)
Correct for Electrical Dark: No (USB2E7196)
Strobe/Lamp Enabled: No (USB2E7196)
Correct for Detector Non-linearity: No (USB2E7196)
Correct for Stray Light: No (USB2E7196)
Number of Pixels in Processed Spectrum: 2048
>>>>>Begin Processed Spectral Data<<<<<
339.09	0.00
339.48	213.50
339.86	215.00
340.24	216.85
340.63	216.70
341.01	225.85
341.39	221.05
341.78	222.35
342.16	223.50
342.54	223.15
342.93	212.67
343.31	223.44
343.69	223.95
344.07	224.42
344.46	224.94
344.84	225.37
345.22	225.37
345.60	225.64
345.99	225.90
346.37	226.05
346.75	226.12
347.13	226.18
347.52	226.21
347.90	226.38
348.28	226.42
348.66	226.50
349.05	226.37
349.43	226.50
349.81	226.58
350.19	226.64
350.57	226.71
350.96	226.78
351.34	226.81
351.72	226.90
352.10	226.94
352.48	226.93
352.87	226.97
353.25	227.00
353.63	227.03
354.01	226.97
354.39	227.05
354.77	227.14
355.15	227.32
355.54	227.32
355.92	227.22
356.30	227.27
356.68	227.68
357.06	227.81
357.44	227.78
357.82	227.84
358.20	228.28
358.58	228.36
358.97	228.41
359.35	228.60
359.73	228.74
360.11	228.87
360.49	228.92
360.87	229.06
361.25	229.22
361.63	229.35
362.01	229.52
362.39	229.57
362.77	229.69
363.15	229.74
363.53	229.82
363.91	229.94
364.29	230.01
364.67	229.60
365.05	229.64
365.43	229.69
365.81	229.77
366.19	229.59
366.57	229.81
366.95	229.75
367.33	229.56
367.71	229.60
368.09	229.69
368.47	229.68
368.85	229.58
369.23	229.67
369.61	229.49
369.99	229.60
370.37	229.64
370.75	229.83
371.13	229.71
371.51	229.65
371.89	229.60
372.27	229.59
372.65	229.61
373.03	229.60
373.41	229.58
373.78	229.51
374.16	229.23
374.54	228.97
374.92	228.95
375.30	228.96
375.68	228.81
376.06	228.74
376.44	228.66
376.82	228.63
377.19	228.55
377.57	228.52
377.95	228.31
378.33	228.16
378.71	227.81
379.09	227.84
379.47	227.81
379.84	227.73
380.22	227.57
380.60	227.40
380.98	227.23
381.36	227.10
381.73	226.98
382.11	227.00
382.49	227.04
382.87	226.91
383.25	226.89
383.62	227.44
384.00	227.37
384.38	227.33
384.76	227.39
385.13	227.43
385.51	227.44
385.89	227.36
386.27	227.34
386.64	227.39
387.02	227.31
387.40	227.29
387.78	227.31
388.15	227.41
388.53	227.35
388.91	227.42
389.29	227.37
389.66	227.41
390.04	227.35
390.42	227.35
390.79	227.42
391.17	227.40
391.55	226.85
391.92	226.84
392.30	226.85
392.68	226.75
393.05	226.79
393.43	226.84
393.81	226.84
394.18	226.86
394.56	226.88
394.94	226.95
395.31	226.92
395.69	227.03
396.06	227.11
396.44	227.20
396.82	227.21
397.19	227.46
397.57	227.43
397.95	227.55
398.32	227.55
398.70	227.65
399.07	227.79
399.45	227.90
399.82	227.97
400.20	228.02
400.58	228.16
400.95	228.03
401.33	228.20
401.70	228.59
402.08	228.68
402.45	228.81
402.83	229.09
403.20	229.30
403.58	229.47
403.95	229.69
404.33	229.96
404.71	230.18
405.08	230.65
405.46	230.94
405.83	231.27
406.21	231.52
406.58	231.90
406.96	232.21
407.33	232.52
407.70	232.84
408.08	233.61
408.45	234.05
408.83	234.55
409.20	234.95
409.58	235.13
409.95	235.69
410.33	236.22
410.70	236.53
411.08	237.10
411.45	237.64
411.82	238.14
412.20	238.88
412.57	239.83
412.95	240.20
413.32	241.07
413.69	241.81
414.07	242.78
414.44	243.65
414.82	244.62
415.19	245.76
415.56	246.94
415.94	247.91
416.31	249.38
416.68	250.80
417.06	252.40
417.43	254.09
417.81	255.84
418.18	257.66
418.55	259.67
418.93	261.70
419.30	263.88
419.67	266.11
420.04	268.40
420.42	270.61
420.79	273.61
421.16	276.31
421.54	279.31
421.91	282.31
422.28	285.46
422.66	288.76
423.03	292.28
423.40	295.68
423.77	299.20
424.15	302.77
424.52	306.54
424.89	310.71
425.26	314.67
425.64	318.44
426.01	322.54
426.38	326.89
426.75	331.45
427.13	336.03
427.50	340.90
427.87	345.76
428.24	350.80
428.61	355.40
428.99	360.83
429.36	366.48
429.73	372.02
430.10	377.48
430.47	383.31
430.85	388.96
431.22	395.19
431.59	402.13
431.96	408.38
432.33	415.30
432.70	421.99
433.08	429.86
433.45	437.41
433.82	444.98
434.19	453.26
434.56	461.42
434.93	469.13
435.30	476.91
435.68	485.49
436.05	494.05
436.42	502.46
436.79	510.16
437.16	518.58
437.53	527.44
437.90	536.39
438.27	544.94
438.64	553.89
439.01	562.31
439.38	569.47
439.75	576.62
440.13	584.75
440.50	592.44
440.87	598.63
441.24	604.93
441.61	611.87
441.98	617.03
442.35	622.82
442.72	628.76
443.09	634.63
443.46	638.10
443.83	640.36
444.20	642.25
444.57	645.12
444.94	646.08
445.31	647.15
445.68	648.33
446.05	648.45
446.42	647.10
446.79	645.72
447.16	644.15
447.53	642.94
447.90	639.22
448.27	635.35
448.64	630.28
449.01	626.48
449.37	620.28
449.74	614.07
450.11	607.11
450.48	599.29
450.85	591.15
451.22	584.26
451.59	577.54
451.96	571.34
452.33	563.10
452.70	555.59
453.07	546.86
453.43	537.68
453.80	529.18
454.17	521.10
454.54	513.08
454.91	504.78
455.28	496.81
455.65	489.36
456.02	482.52
456.38	476.25
456.75	468.56
457.12	462.00
457.49	455.68
457.86	449.43
458.23	444.33
458.59	438.57
458.96	432.82
459.33	427.77
459.70	422.52
460.07	418.29
460.43	413.77
460.80	409.44
461.17	405.78
461.54	401.77
461.91	397.97
462.27	394.18
462.64	390.96
463.01	387.32
463.38	383.93
463.74	379.85
464.11	376.83
464.48	374.27
464.85	371.42
465.21	369.29
465.58	366.84
465.95	364.02
466.32	361.85
466.68	359.58
467.05	357.32
467.42	355.10
467.78	352.80
468.15	350.58
468.52	349.00
468.88	346.72
469.25	344.86
469.62	343.35
469.98	341.62
470.35	340.11
470.72	338.68
471.08	337.02
471.45	335.73
471.82	334.54
472.18	333.04
472.55	332.03
472.92	330.75
473.28	329.64
473.65	328.51
474.02	327.52
474.38	326.60
474.75	325.82
475.11	324.99
475.48	324.44
475.85	323.87
476.21	323.21
476.58	322.75
476.94	322.34
477.31	321.86
477.67	321.54
478.04	321.21
478.41	321.02
478.77	321.26
479.14	321.08
479.50	320.87
479.87	320.88
480.23	320.93
480.60	321.02
480.96	321.13
481.33	321.56
481.69	321.73
482.06	322.06
482.42	322.33
482.79	322.73
483.15	323.09
483.52	323.67
483.88	324.12
484.25	324.65
484.61	325.37
484.98	325.99
485.34	326.93
485.71	327.85
486.07	328.72
486.44	329.34
486.80	330.39
487.17	331.59
487.53	332.95
487.90	334.38
488.26	335.92
488.62	337.58
488.99	339.13
489.35	340.73
489.72	342.57
490.08	344.53
490.44	346.45
490.81	348.71
491.17	350.87
491.54	353.38
491.90	355.97
492.26	358.65
492.63	361.59
492.99	364.42
493.36	367.35
493.72	370.63
494.08	373.99
494.45	377.69
494.81	381.62
495.17	385.45
495.54	389.51
495.90	393.79
496.26	398.15
496.63	402.83
496.99	407.78
497.35	412.79
497.72	418.15
498.08	423.62
498.44	429.25
498.80	435.40
499.17	441.31
499.53	447.58
499.89	454.29
500.26	461.02
500.62	468.07
500.98	475.53
501.34	483.02
501.71	490.90
502.07	498.79
502.43	506.86
502.79	515.37
503.16	524.14
503.52	533.06
503.88	542.36
504.24	552.00
504.60	561.94
504.97	572.34
505.33	582.75
505.69	593.94
506.05	605.09
506.41	616.30
506.78	628.15
507.14	640.31
507.50	652.56
507.86	665.23
508.22	678.33
508.59	691.67
508.95	705.32
509.31	719.42
509.67	733.95
510.03	748.34
510.39	763.03
510.75	778.16
511.12	793.52
511.48	809.21
511.84	824.84
512.20	840.90
512.56	857.14
512.92	874.17
513.28	890.93
513.64	908.26
514.00	925.83
514.37	943.51
514.73	961.70
515.09	980.21
515.45	998.58
515.81	1017.08
516.17	1035.89
516.53	1054.83
516.89	1073.70
517.25	1093.05
517.61	1113.20
517.97	1133.70
518.33	1153.63
518.69	1173.96
519.05	1194.68
519.41	1215.62
519.77	1236.88
520.13	1257.77
520.49	1278.47
520.85	1301.03
521.21	1322.18
521.57	1343.75
521.93	1364.74
522.29	1386.14
522.65	1406.64
523.01	1427.73
523.37	1448.61
523.73	1469.56
524.09	1490.07
524.45	1510.92
524.81	1531.83
525.17	1552.75
525.53	1573.25
525.89	1594.18
526.25	1614.99
526.61	1635.48
526.97	1656.80
527.33	1678.05
527.68	1700.26
528.04	1721.67
528.40	1741.20
528.76	1762.46
529.12	1782.48
529.48	1803.48
529.84	1823.37
530.20	1844.89
530.56	1866.01
530.91	1886.85
531.27	1907.62
531.63	1928.55
531.99	1949.26
532.35	1969.18
532.71	1989.47
533.07	2010.34
533.42	2030.43
533.78	2050.78
534.14	2070.56
534.50	2089.47
534.86	2108.72
535.21	2126.07
535.57	2144.58
535.93	2162.59
536.29	2180.37
536.65	2199.24
537.00	2217.06
537.36	2234.98
537.72	2251.47
538.08	2268.60
538.44	2285.41
538.79	2301.58
539.15	2318.14
539.51	2334.20
539.87	2349.40
540.22	2363.69
540.58	2378.03
540.94	2391.24
541.29	2403.96
541.65	2416.99
542.01	2429.65
542.37	2440.23
542.72	2451.28
543.08	2461.92
543.44	2473.66
543.79	2483.70
544.15	2493.27
544.51	2503.56
544.87	2513.06
545.22	2521.66
545.58	2529.47
545.94	2536.87
546.29	2543.70
546.65	2550.00
547.01	2555.61
547.36	2561.46
547.72	2566.87
548.07	2570.76
548.43	2576.60
548.79	2581.08
549.14	2585.08
549.50	2589.11
549.86	2593.50
550.21	2597.59
550.57	2600.94
550.92	2602.10
551.28	2603.87
551.64	2606.25
551.99	2607.84
552.35	2609.99
552.70	2612.52
553.06	2614.28
553.41	2615.69
553.77	2617.44
554.13	2619.26
554.48	2620.82
554.84	2622.55
555.19	2623.72
555.55	2625.89
555.90	2625.03
556.26	2624.50
556.61	2622.52
556.97	2620.48
557.32	2619.56
557.68	2618.13
558.03	2616.86
558.39	2615.95
558.74	2615.03
559.10	2612.10
559.45	2608.95
559.81	2604.38
560.16	2599.34
560.52	2594.47
560.87	2589.90
561.23	2584.39
561.58	2578.02
561.94	2571.06
562.29	2563.52
562.64	2556.81
563.00	2548.00
563.35	2541.31
563.71	2534.96
564.06	2529.21
564.42	2522.68
564.77	2516.09
565.12	2508.80
565.48	2501.09
565.83	2492.95
566.19	2484.58
566.54	2476.53
566.89	2468.30
567.25	2460.29
567.60	2452.94
567.96	2445.46
568.31	2437.56
568.66	2429.23
569.02	2420.55
569.37	2412.54
569.72	2405.30
570.08	2395.86
570.43	2386.57
570.78	2377.57
571.14	2367.97
571.49	2358.09
571.84	2348.51
572.20	2337.22
572.55	2326.99
572.90	2315.86
573.26	2305.82
573.61	2295.10
573.96	2283.99
574.31	2271.90
574.67	2260.01
575.02	2247.09
575.37	2234.39
575.72	2221.18
576.08	2209.03
576.43	2196.28
576.78	2183.35
577.13	2169.29
577.49	2156.65
577.84	2144.78
578.19	2132.31
578.54	2119.30
578.90	2106.97
579.25	2094.50
579.60	2082.04
579.95	2068.88
580.30	2055.86
580.66	2042.11
581.01	2028.06
581.36	2013.89
581.71	2001.21
582.06	1988.26
582.42	1975.87
582.77	1963.06
583.12	1950.91
583.47	1938.47
583.82	1926.65
584.17	1914.40
584.53	1902.64
584.88	1889.46
585.23	1876.20
585.58	1862.19
585.93	1848.96
586.28	1835.56
586.63	1821.62
586.98	1807.43
587.34	1794.26
587.69	1781.01
588.04	1768.40
588.39	1756.35
588.74	1744.38
589.09	1732.14
589.44	1719.30
589.79	1707.03
590.14	1694.80
590.49	1682.59
590.84	1670.19
591.19	1658.26
591.54	1646.05
591.89	1633.49
592.25	1623.23
592.60	1611.84
592.95	1600.75
593.30	1588.86
593.65	1576.60
594.00	1564.35
594.35	1554.47
594.70	1542.52
595.05	1531.04
595.40	1518.85
595.75	1506.87
596.10	1495.39
596.45	1483.60
596.80	1472.73
597.15	1461.35
597.50	1449.62
597.85	1438.41
598.19	1426.73
598.54	1414.69
598.89	1403.08
599.24	1392.86
599.59	1380.89
599.94	1369.67
600.29	1359.11
600.64	1348.64
600.99	1337.96
601.34	1328.41
601.69	1317.11
602.04	1307.21
602.39	1297.38
602.74	1288.08
603.08	1278.67
603.43	1269.28
603.78	1259.94
604.13	1250.31
604.48	1240.39
604.83	1230.55
605.18	1220.58
605.53	1211.23
605.87	1202.03
606.22	1193.56
606.57	1183.65
606.92	1174.45
607.27	1165.67
607.62	1156.69
607.96	1148.15
608.31	1140.33
608.66	1131.82
609.01	1123.16
609.36	1114.37
609.70	1105.80
610.05	1097.14
610.40	1088.58
610.75	1079.87
611.10	1071.14
611.44	1062.54
611.79	1054.46
612.14	1046.55
612.49	1038.44
612.83	1030.73
613.18	1023.01
613.53	1015.00
613.88	1007.25
614.22	999.50
614.57	991.52
614.92	983.60
615.27	975.93
615.61	968.08
615.96	960.29
616.31	952.98
616.65	946.25
617.00	938.92
617.35	931.52
617.70	924.26
618.04	917.09
618.39	910.12
618.74	903.57
619.08	896.50
619.43	889.56
619.78	882.51
620.12	875.27
620.47	868.26
620.82	861.27
621.16	854.38
621.51	847.90
621.85	841.40
622.20	834.70
622.55	827.93
622.89	821.43
623.24	815.04
623.59	808.38
623.93	801.76
624.28	795.54
624.62	790.00
624.97	784.29
625.32	778.42
625.66	772.40
626.01	766.20
626.35	760.42
626.70	754.74
627.04	749.56
627.39	743.96
627.73	738.50
628.08	733.20
628.43	727.76
628.77	722.41
629.12	717.32
629.46	712.34
629.81	707.64
630.15	702.76
630.50	697.82
630.84	692.92
631.19	688.18
631.53	683.64
631.88	678.22
632.22	673.25
632.57	668.72
632.91	664.19
633.26	659.70
633.60	655.13
633.95	650.50
634.29	645.66
634.64	641.29
634.98	636.55
635.32	632.25
635.67	628.24
636.01	623.75
636.36	619.30
636.70	615.28
637.05	610.88
637.39	606.63
637.73	602.54
638.08	598.60
638.42	594.37
638.77	589.87
639.11	585.55
639.45	581.11
639.80	576.76
640.14	572.60
640.49	568.50
640.83	564.62
641.17	560.89
641.52	557.04
641.86	553.42
642.20	550.22
642.55	546.41
642.89	542.61
643.23	539.22
643.58	535.93
643.92	532.20
644.26	528.82
644.61	525.62
644.95	522.13
645.29	518.67
645.64	515.50
645.98	512.57
646.32	509.71
646.66	506.78
647.01	503.78
647.35	500.86
647.69	497.88
648.04	495.17
648.38	492.22
648.72	489.44
649.06	486.37
649.41	483.16
649.75	480.06
650.09	477.37
650.43	474.41
650.78	471.42
651.12	468.61
651.46	465.81
651.80	463.00
652.14	460.31
652.49	457.76
652.83	455.02
653.17	452.23
653.51	449.53
653.85	447.01
654.20	444.51
654.54	441.92
654.88	439.52
655.22	437.17
655.56	434.80
655.90	432.37
656.25	430.08
656.59	427.95
656.93	425.84
657.27	423.63
657.61	421.18
657.95	419.00
658.29	416.84
658.64	414.79
658.98	412.43
659.32	410.21
659.66	408.04
660.00	405.95
660.34	403.90
660.68	401.84
661.02	399.85
661.36	397.86
661.70	395.90
662.05	393.91
662.39	391.89
662.73	390.11
663.07	388.48
663.41	386.60
663.75	384.62
664.09	382.83
664.43	380.83
664.77	379.24
665.11	377.50
665.45	375.82
665.79	374.20
666.13	372.58
666.47	370.89
666.81	369.23
667.15	367.52
667.49	365.98
667.83	364.71
668.17	363.15
668.51	361.70
668.85	360.25
669.19	359.15
669.53	357.57
669.87	356.06
670.21	354.51
670.55	353.08
670.89	351.98
671.23	350.63
671.57	349.32
671.91	348.03
672.25	346.78
672.58	345.45
672.92	343.98
673.26	342.77
673.60	341.60
673.94	340.45
674.28	339.43
674.62	338.25
674.96	336.87
675.30	335.67
675.64	334.46
675.97	333.33
676.31	331.92
676.65	330.77
676.99	329.84
677.33	328.63
677.67	327.55
678.01	326.21
678.34	325.04
678.68	324.06
679.02	322.95
679.36	322.00
679.70	321.03
680.04	320.12
680.37	319.09
680.71	318.07
681.05	317.13
681.39	316.21
681.73	315.24
682.06	314.32
682.40	313.40
682.74	312.52
683.08	311.78
683.42	310.83
683.75	310.00
684.09	308.91
684.43	308.11
684.77	307.38
685.10	306.57
685.44	305.84
685.78	304.99
686.12	304.15
686.45	303.20
686.79	302.33
687.13	301.69
687.46	300.97
687.80	300.39
688.14	299.53
688.48	298.76
688.81	297.98
689.15	297.35
689.49	296.59
689.82	295.91
690.16	294.95
690.50	294.27
690.83	293.55
691.17	292.83
691.51	292.19
691.84	291.54
692.18	290.81
692.52	290.08
692.85	289.45
693.19	289.02
693.52	288.41
693.86	287.78
694.20	287.12
694.53	286.50
694.87	285.76
695.21	285.10
695.54	284.41
695.88	283.74
696.21	282.95
696.55	282.43
696.88	281.77
697.22	281.22
697.56	280.65
697.89	280.02
698.23	279.45
698.56	278.83
698.90	278.30
699.23	277.78
699.57	277.21
699.90	276.68
700.24	275.94
700.58	275.46
700.91	275.10
701.25	274.85
701.58	274.73
701.92	274.49
702.25	274.04
702.59	273.63
702.92	273.29
703.26	272.90
703.59	272.46
703.93	272.49
704.26	272.15
704.60	271.77
704.93	271.26
705.26	270.87
705.60	270.48
705.93	269.92
706.27	269.67
706.60	269.48
706.94	269.27
707.27	268.87
707.61	268.45
707.94	268.01
708.27	267.29
708.61	266.46
708.94	265.94
709.28	265.63
709.61	265.18
709.94	264.79
710.28	264.50
710.61	264.12
710.95	263.29
711.28	263.22
711.61	262.79
711.95	262.60
712.28	262.18
712.61	261.79
712.95	261.70
713.28	261.50
713.61	261.02
713.95	260.47
714.28	260.28
714.61	259.94
714.95	259.53
715.28	259.18
715.61	258.98
715.95	258.63
716.28	258.23
716.61	257.94
716.95	257.56
717.28	257.21
717.61	256.91
717.94	256.63
718.28	255.98
718.61	255.73
718.94	255.36
719.27	255.09
719.61	254.89
719.94	254.50
720.27	254.05
720.60	253.81
720.94	253.63
721.27	253.32
721.60	253.18
721.93	253.00
722.27	252.94
722.60	252.67
722.93	252.52
723.26	252.36
723.59	252.12
723.93	252.05
724.26	251.87
724.59	251.61
724.92	251.46
725.25	251.33
725.59	251.06
725.92	250.93
726.25	250.72
726.58	250.55
726.91	250.30
727.24	250.11
727.57	249.86
727.91	249.59
728.24	249.53
728.57	249.31
728.90	249.16
729.23	248.82
729.56	248.80
729.89	248.54
730.22	248.31
730.55	248.06
730.89	247.84
731.22	247.59
731.55	247.43
731.88	247.25
732.21	247.03
732.54	246.83
732.87	246.67
733.20	246.57
733.53	246.36
733.86	246.26
734.19	245.98
734.52	245.93
734.85	246.03
735.18	245.73
735.51	245.66
735.84	245.55
736.17	245.49
736.50	245.07
736.83	245.49
737.16	245.31
737.49	245.26
737.82	245.02
738.15	244.94
738.48	244.84
738.81	244.61
739.14	244.36
739.47	244.20
739.80	244.03
740.13	243.93
740.46	243.76
740.79	243.50
741.12	243.43
741.45	243.08
741.78	242.74
742.11	242.70
742.44	242.42
742.77	242.26
743.10	242.08
743.43	242.02
743.75	241.38
744.08	241.90
744.41	241.70
744.74	241.60
745.07	241.41
745.40	241.38
745.73	241.50
746.06	241.42
746.39	241.38
746.71	241.25
747.04	241.04
747.37	240.88
747.70	240.84
748.03	240.78
748.36	240.80
748.68	240.64
749.01	240.34
749.34	240.32
749.67	240.25
750.00	240.19
750.33	240.44
750.65	240.37
750.98	239.65
751.31	239.59
751.64	239.52
751.97	239.67
752.29	239.47
752.62	239.12
752.95	239.04
753.28	238.93
753.60	238.78
753.93	238.81
754.26	238.85
754.59	238.64
754.91	238.52
755.24	238.36
755.57	238.27
755.90	238.25
756.22	238.13
756.55	237.94
756.88	237.75
757.20	237.35
757.53	237.07
757.86	236.95
758.19	236.92
758.51	236.85
758.84	236.48
759.17	236.40
759.49	236.32
759.82	236.39
760.15	236.31
760.47	236.21
760.80	235.95
761.13	235.88
761.45	235.83
761.78	235.63
762.11	235.57
762.43	235.51
762.76	235.37
763.08	235.31
763.41	235.30
763.74	235.25
764.06	235.10
764.39	235.11
764.71	235.05
765.04	234.86
765.37	234.68
765.69	234.62
766.02	234.51
766.34	234.37
766.67	234.10
767.00	234.08
767.32	234.25
767.65	234.47
767.97	234.30
768.30	234.21
768.62	234.21
768.95	234.10
769.27	233.96
769.60	234.00
769.92	233.80
770.25	233.63
770.57	233.48
770.90	233.41
771.22	233.31
771.55	233.29
771.87	233.30
772.20	233.27
772.52	233.61
772.85	234.11
773.17	234.11
773.50	234.11
773.82	233.97
774.15	233.68
774.47	233.36
774.80	233.29
775.12	233.26
775.45	233.16
775.77	233.17
776.09	233.14
776.42	233.05
776.74	233.16
777.07	233.01
777.39	232.96
777.72	232.89
778.04	232.83
778.36	232.70
778.69	232.63
779.01	232.61
779.33	232.15
779.66	231.56
779.98	231.51
780.31	231.43
780.63	231.61
780.95	231.66
781.28	231.59
781.60	231.45
781.92	231.33
782.25	231.25
782.57	231.19
782.89	231.12
783.22	231.02
783.54	230.90
783.86	230.96
784.19	230.90
784.51	231.02
784.83	230.96
785.16	230.98
785.48	230.90
785.80	230.89
786.12	230.89
786.45	230.85
786.77	230.82
787.09	230.78
787.42	230.59
787.74	230.59
788.06	230.60
788.38	230.55
788.71	230.57
789.03	230.61
789.35	230.60
789.67	230.52
789.99	230.55
790.32	230.43
790.64	230.42
790.96	230.74
791.28	230.56
791.61	230.55
791.93	230.43
792.25	230.39
792.57	230.70
792.89	230.56
793.21	230.57
793.54	230.50
793.86	230.48
794.18	230.38
794.50	230.18
794.82	230.09
795.14	230.21
795.47	230.24
795.79	230.26
796.11	230.12
796.43	230.09
796.75	230.02
797.07	230.04
797.39	230.03
797.71	229.68
798.04	229.64
798.36	229.58
798.68	229.59
799.00	229.59
799.32	229.33
799.64	229.45
799.96	229.44
800.28	229.49
800.60	229.44
800.92	229.52
801.24	229.61
801.56	229.71
801.89	229.68
802.21	229.69
802.53	229.56
802.85	229.71
803.17	229.95
803.49	229.84
803.81	229.79
804.13	229.71
804.45	229.72
804.77	229.74
805.09	229.65
805.41	229.59
805.73	229.52
806.05	229.47
806.37	229.45
806.69	229.40
807.01	229.30
807.33	229.31
807.65	229.16
807.97	229.32
808.28	229.19
808.60	229.14
808.92	229.09
809.24	229.38
809.56	229.26
809.88	229.11
810.20	229.25
810.52	229.30
810.84	229.21
811.16	229.12
811.48	229.10
811.80	229.42
812.12	229.52
812.43	229.62
812.75	229.59
813.07	229.51
813.39	229.49
813.71	229.46
814.03	229.48
814.35	229.53
814.67	229.34
814.98	229.32
815.30	229.28
815.62	229.16
815.94	228.96
816.26	229.10
816.58	229.03
816.89	229.00
817.21	228.91
817.53	229.04
817.85	229.11
818.17	229.06
818.48	228.87
818.80	228.87
819.12	228.78
819.44	228.65
819.76	228.59
820.07	228.60
820.39	228.56
820.71	228.57
821.03	228.53
821.34	228.43
821.66	228.52
821.98	228.57
822.30	228.57
822.61	228.73
822.93	228.52
823.25	228.44
823.57	228.37
823.88	228.49
824.20	228.39
824.52	228.36
824.83	228.40
825.15	228.24
825.47	228.21
825.79	228.22
826.10	228.19
826.42	228.13
826.74	228.15
827.05	228.19
827.37	228.15
827.69	228.15
828.00	228.18
828.32	228.10
828.64	227.95
828.95	228.18
829.27	228.02
829.58	228.04
829.90	228.12
830.22	228.20
830.53	228.07
830.85	228.10
831.17	227.97
831.48	227.89
831.80	227.93
832.11	227.91
832.43	227.84
832.75	227.87
833.06	228.23
833.38	228.13
833.69	228.05
834.01	228.04
834.32	228.01
834.64	227.99
834.96	228.03
835.27	228.08
835.59	227.93
835.90	227.85
836.22	227.80
836.53	227.70
836.85	227.58
837.16	228.09
837.48	228.01
837.79	228.23
838.11	228.23
838.42	228.22
838.74	228.25
839.05	228.24
839.37	228.17
839.68	227.83
840.00	227.74
840.31	227.83
840.63	227.73
840.94	227.68
841.26	227.59
841.57	227.57
841.88	227.60
842.20	227.55
842.51	227.49
842.83	227.48
843.14	227.87
843.46	227.90
843.77	227.59
844.08	227.57
844.40	227.41
844.71	227.34
845.03	227.31
845.34	227.20
845.65	227.14
845.97	227.14
846.28	227.16
846.60	227.28
846.91	227.21
847.22	227.20
847.54	227.34
847.85	227.38
848.16	227.33
848.48	227.32
848.79	227.49
849.10	227.54
849.42	227.59
849.73	227.18
850.04	227.20
850.36	227.07
850.67	227.22
850.98	227.22
851.30	227.35
851.61	227.34
851.92	227.39
852.23	227.55
852.55	227.52
852.86	227.46
853.17	227.42
853.49	227.57
853.80	227.74
854.11	227.70
854.42	227.80
854.74	227.76
855.05	227.80
855.36	227.62
855.67	227.67
855.99	227.67
856.30	228.23
856.61	228.21
856.92	228.19
857.23	228.20
857.55	228.21
857.86	228.12
858.17	228.20
858.48	228.10
858.79	228.05
859.11	228.14
859.42	228.18
859.73	228.15
860.04	228.05
860.35	227.91
860.66	227.70
860.98	227.66
861.29	227.75
861.60	227.66
861.91	227.74
862.22	227.65
862.53	227.57
862.84	227.05
863.16	227.19
863.47	227.15
863.78	227.03
864.09	227.08
864.40	227.18
864.71	227.20
865.02	227.31
865.33	227.23
865.64	227.21
865.95	227.24
866.27	227.60
866.58	227.56
866.89	227.58
867.20	227.64
867.51	227.63
867.82	227.54
868.13	227.67
868.44	227.57
868.75	227.62
869.06	227.67
869.37	227.74
869.68	227.54
869.99	227.59
870.30	227.64
870.61	227.67
870.92	227.52
871.23	227.40
871.54	227.37
871.85	227.49
872.16	227.46
872.47	227.42
872.78	227.07
873.09	227.12
873.40	227.09
873.71	227.10
874.02	227.12
874.33	227.13
874.64	227.00
874.95	227.04
875.26	226.95
875.56	226.93
875.87	226.86
876.18	226.84
876.49	227.35
876.80	227.27
877.11	227.15
877.42	227.19
877.73	227.24
878.04	227.19
878.35	227.15
878.66	227.17
878.96	227.13
879.27	227.18
879.58	227.13
879.89	227.06
880.20	227.25
880.51	227.17
880.82	227.14
881.12	227.17
881.43	227.04
881.74	227.03
882.05	227.01
882.36	227.06
882.67	227.07
882.97	226.46
883.28	226.44
883.59	226.47
883.90	226.52
884.21	226.63
884.51	226.64
884.82	226.62
885.13	226.66
885.44	226.65
885.74	226.62
886.05	226.65
886.36	226.73
886.67	226.57
886.98	226.86
887.28	226.88
887.59	226.92
887.90	227.02
888.20	226.94
888.51	227.09
888.82	226.99
889.13	227.11
889.43	227.56
889.74	227.52
890.05	227.40
890.35	227.36
890.66	227.20
890.97	227.13
891.28	227.04
891.58	227.06
891.89	227.06
892.20	227.00
892.50	226.94
892.81	226.87
893.12	226.83
893.42	226.59
893.73	226.64
894.04	226.58
894.34	226.56
894.65	226.64
894.95	226.46
895.26	226.52
895.57	226.70
895.87	226.27
896.18	226.38
896.48	226.46
896.79	226.46
897.10	226.68
897.40	226.66
897.71	226.75
898.01	226.66
898.32	226.77
898.63	226.73
898.93	226.79
899.24	226.91
899.54	226.94
899.85	226.85
900.15	226.81
900.46	226.85
900.76	226.83
901.07	226.81
901.38	226.86
901.68	226.90
901.99	226.67
902.29	226.64
902.60	226.63
902.90	226.66
903.21	226.69
903.51	226.59
903.82	226.69
904.12	226.67
904.43	226.69
904.73	226.67
905.03	226.76
905.34	227.17
905.64	227.09
905.95	227.02
906.25	227.05
906.56	227.11
906.86	227.06
907.17	227.12
907.47	227.20
907.77	227.21
908.08	227.15
908.38	227.16
908.69	227.19
908.99	227.21
909.30	227.23
909.60	227.19
909.90	227.22
910.21	227.14
910.51	227.09
910.81	227.15
911.12	227.23
911.42	227.20
911.73	226.75
912.03	226.77
912.33	226.95
912.64	226.95
912.94	226.87
913.24	226.87
913.55	226.83
913.85	226.77
914.15	226.83
914.46	226.89
914.76	226.86
915.06	226.90
915.37	226.85
915.67	226.74
915.97	226.76
916.27	226.60
916.58	226.64
916.88	226.67
917.18	226.60
917.49	226.85
917.79	226.87
918.09	226.91
918.39	227.00
918.70	226.97
919.00	226.97
919.30	227.20
919.60	227.13
919.91	227.08
920.21	227.07
920.51	227.03
920.81	227.00
921.12	226.98
921.42	226.98
921.72	227.05
922.02	227.04
922.32	227.10
922.63	227.18
922.93	227.42
923.23	227.40
923.53	227.38
923.83	227.03
924.13	227.06
924.44	227.02
924.74	227.10
925.04	227.13
925.34	227.17
925.64	227.02
925.94	227.05
926.24	227.33
926.55	227.32
926.85	227.28
927.15	227.19
927.45	227.27
927.75	227.28
928.05	227.29
928.35	227.34
928.65	227.42
928.95	227.41
929.26	227.21
929.56	227.26
929.86	227.33
930.16	227.30
930.46	227.23
930.76	227.26
931.06	227.00
931.36	226.89
931.66	226.90
931.96	226.90
932.26	226.88
932.56	226.70
932.86	226.74
933.16	226.79
933.46	226.76
933.76	226.61
934.06	226.78
934.36	226.80
934.66	226.80
934.96	226.68
935.26	226.73
935.56	226.75
935.86	226.67
936.16	226.61
936.46	226.59
936.76	226.63
937.06	226.57
937.36	226.69
937.66	226.74
937.96	226.72
938.26	226.60
938.56	226.61
938.86	226.59
939.16	226.67
939.46	226.68
939.76	226.79
940.06	226.85
940.35	226.65
940.65	226.45
940.95	226.43
941.25	226.38
941.55	226.28
941.85	226.28
942.15	226.41
942.45	226.54
942.75	226.55
943.04	226.55
943.34	226.63
943.64	226.53
943.94	226.47
944.24	226.50
944.54	226.62
944.84	226.60
945.13	226.54
945.43	226.43
945.73	226.51
946.03	226.39
946.33	226.38
946.62	226.33
946.92	226.34
947.22	226.40
947.52	226.42
947.82	226.52
948.11	226.44
948.41	226.36
948.71	226.23
949.01	226.27
949.31	226.23
949.60	226.19
949.90	226.31
950.20	226.34
950.50	226.34
950.79	226.30
951.09	226.32
951.39	226.29
951.69	226.29
951.98	226.30
952.28	226.38
952.58	226.38
952.87	226.43
953.17	226.57
953.47	226.53
953.76	226.53
954.06	226.41
954.36	226.39
954.66	226.33
954.95	226.41
955.25	226.42
955.55	226.40
955.84	226.37
956.14	226.37
956.44	226.38
956.73	226.30
957.03	226.30
957.32	226.33
957.62	226.33
957.92	226.38
958.21	226.32
958.51	226.92
958.81	226.91
959.10	226.91
959.40	226.96
959.69	226.98
959.99	227.03
960.29	227.10
960.58	227.04
960.88	227.16
961.17	227.14
961.47	227.20
961.76	227.18
962.06	227.28
962.36	227.19
962.65	227.19
962.95	227.26
963.24	227.19
963.54	227.19
963.83	227.23
964.13	227.19
964.42	227.10
964.72	226.62
965.01	226.65
965.31	226.61
965.60	226.57
965.90	226.88
966.19	226.75
966.49	226.75
966.78	226.74
967.08	226.71
967.37	226.69
967.67	226.56
967.96	226.62
968.26	226.55
968.55	226.58
968.85	226.58
969.14	226.48
969.43	226.45
969.73	226.41
970.02	226.38
970.32	226.33
970.61	226.27
970.91	226.16
971.20	226.07
971.49	226.00
971.79	225.97
972.08	225.60
972.38	225.68
972.67	225.63
972.96	225.72
973.26	225.69
973.55	225.85
973.85	225.86
974.14	225.83
974.43	225.86
974.73	225.80
975.02	225.74
975.31	225.75
975.61	225.81
975.90	225.80
976.19	225.74
976.49	225.76
976.78	225.78
977.07	225.81
977.37	225.86
977.66	225.94
977.95	225.89
978.24	225.94
978.54	226.06
978.83	226.05
979.12	226.04
979.42	225.97
979.71	225.90
980.00	225.88
980.29	225.92
980.59	225.89
980.88	226.06
981.17	226.04
981.46	226.05
981.76	226.04
982.05	226.23
982.34	226.30
982.63	226.38
982.93	226.45
983.22	226.57
983.51	226.62
983.80	226.77
984.09	226.85
984.39	226.80
984.68	226.71
984.97	226.83
985.26	226.78
985.55	226.85
985.85	226.73
986.14	226.77
986.43	226.84
986.72	226.75
987.01	226.60
987.30	226.63
987.59	226.67
987.89	226.70
988.18	226.59
988.47	226.62
988.76	226.54
989.05	226.45
989.34	226.34
989.63	226.41
989.92	226.28
990.22	226.18
990.51	226.27
990.80	226.26
991.09	226.20
991.38	226.32
991.67	226.35
991.96	226.28
992.25	226.36
992.54	226.27
992.83	226.37
993.12	226.38
993.41	226.43
993.70	226.62
993.99	226.74
994.28	226.79
994.58	226.80
994.87	226.86
995.16	226.88
995.45	226.91
995.74	226.75
996.03	226.88
996.32	227.00
996.61	227.04
996.90	226.96
997.19	226.97
997.48	226.96
997.77	226.84
998.06	226.92
998.34	226.89
998.63	226.97
998.92	226.97
999.21	227.05
999.50	227.12
999.79	226.93
1000.08	226.86
1000.37	226.76
1000.66	226.69
1000.95	226.70
1001.24	226.79
1001.53	226.83
1001.82	226.84
1002.11	226.66
1002.40	226.67
1002.68	226.84
1002.97	227.27
1003.26	227.23
1003.55	227.13
1003.84	227.16
1004.13	227.39
1004.42	227.35
1004.71	227.28
1004.99	227.20
1005.28	227.29
1005.57	227.20
1005.86	227.20
1006.15	227.14
1006.44	227.14
1006.72	227.23
1007.01	227.15
1007.30	227.09
1007.59	227.00
1007.88	227.08
1008.17	227.17
1008.45	227.13
1008.74	226.90
1009.03	226.55
1009.32	226.60
1009.60	226.67
1009.89	226.61
1010.18	226.32
1010.47	226.30
1010.76	226.31
1011.04	226.38
1011.33	226.41
1011.62	226.49
1011.91	226.51
1012.19	226.51
1012.48	226.58
1012.77	226.46
1013.05	226.72
1013.34	226.67
1013.63	226.69
1013.92	226.68
1014.20	226.55
1014.49	226.58
1014.78	226.57
1015.06	226.45
1015.35	226.42
1015.64	226.47
1015.92	226.61
1016.21	226.66
1016.50	226.63
1016.78	226.67
1017.07	226.66
1017.36	226.47
1017.64	226.32
1017.93	226.37
1018.22	226.39
1018.50	226.24
1018.79	226.26
1019.08	226.01
1019.36	226.13
1019.65	226.09
1019.93	226.12
1020.22	226.22
1020.51	226.39
1020.79	226.34
1021.08	226.05
1021.36	224.15
1021.65	225.50
1021.94	225.85
1022.22	227.05
1022.51	226.15
1022.79	227.60
1023.08	226.50
1023.36	231.25
1023.65	224.85
>>>>>End Processed Spectral Data<<<<<
