SpectraSuite Data File
++++++++++++++++++++++++++++++++++++
Date: Wed Sep 04 17:53:16 EDT 2013
User: lab3
Dark Spectrum Present: Yes
Reference Spectrum Present: No
Number of Sampled Component Spectra: 1
Spectrometers: USB2E7196
Integration Time (usec): 170000 (USB2E7196)
Spectra Averaged: 20 (USB2E7196)
Boxcar Smoothing: 10 (USB2E7196)
Correct for Electrical Dark: No (USB2E7196)
Strobe/Lamp Enabled: No (USB2E7196)
Correct for Detector Non-linearity: No (USB2E7196)
Correct for Stray Light: No (USB2E7196)
Number of Pixels in Processed Spectrum: 2048
>>>>>Begin Processed Spectral Data<<<<<
339.09	0.00
339.48	212.50
339.86	214.70
340.24	216.00
340.63	216.40
341.01	225.80
341.39	219.80
341.78	222.30
342.16	223.40
342.54	223.20
342.93	212.21
343.31	222.93
343.69	223.49
344.07	223.95
344.46	224.42
344.84	224.87
345.22	224.87
345.60	225.17
345.99	225.38
346.37	225.50
346.75	225.59
347.13	225.63
347.52	225.70
347.90	226.00
348.28	226.01
348.66	226.16
349.05	226.07
349.43	226.14
349.81	226.22
350.19	226.21
350.57	226.23
350.96	226.36
351.34	226.42
351.72	226.54
352.10	226.65
352.48	226.61
352.87	226.59
353.25	226.63
353.63	226.67
354.01	226.65
354.39	226.79
354.77	226.91
355.15	227.08
355.54	227.06
355.92	226.85
356.30	226.93
356.68	227.29
357.06	227.35
357.44	227.34
357.82	227.36
358.20	227.86
358.58	227.95
358.97	228.02
359.35	228.21
359.73	228.40
360.11	228.44
360.49	228.61
360.87	228.70
361.25	228.81
361.63	229.00
362.01	229.11
362.39	229.08
362.77	229.08
363.15	229.10
363.53	229.13
363.91	229.26
364.29	229.34
364.67	228.90
365.05	229.00
365.43	229.16
365.81	229.25
366.19	229.09
366.57	229.24
366.95	229.18
367.33	229.00
367.71	228.91
368.09	229.04
368.47	229.01
368.85	229.10
369.23	229.17
369.61	228.99
369.99	229.15
370.37	229.20
370.75	229.48
371.13	229.37
371.51	229.33
371.89	229.30
372.27	229.22
372.65	229.28
373.03	229.27
373.41	229.23
373.78	229.16
374.16	228.92
374.54	228.70
374.92	228.69
375.30	228.74
375.68	228.63
376.06	228.56
376.44	228.54
376.82	228.38
377.19	228.34
377.57	228.33
377.95	228.08
378.33	227.96
378.71	227.63
379.09	227.65
379.47	227.65
379.84	227.61
380.22	227.48
380.60	227.27
380.98	227.09
381.36	226.94
381.73	226.82
382.11	226.89
382.49	226.85
382.87	226.70
383.25	226.62
383.62	227.10
384.00	226.98
384.38	226.90
384.76	227.04
385.13	227.12
385.51	227.03
385.89	226.96
386.27	226.95
386.64	226.98
387.02	226.79
387.40	226.67
387.78	226.64
388.15	226.66
388.53	226.67
388.91	226.58
389.29	226.53
389.66	226.58
390.04	226.40
390.42	226.51
390.79	226.55
391.17	226.48
391.55	225.94
391.92	225.90
392.30	225.92
392.68	225.77
393.05	225.71
393.43	225.76
393.81	225.85
394.18	225.75
394.56	225.81
394.94	226.07
395.31	226.16
395.69	226.36
396.06	226.49
396.44	226.54
396.82	226.62
397.19	226.92
397.57	226.93
397.95	227.05
398.32	226.97
398.70	227.10
399.07	227.30
399.45	227.38
399.82	227.48
400.20	227.52
400.58	227.64
400.95	227.58
401.33	227.76
401.70	228.15
402.08	228.29
402.45	228.34
402.83	228.47
403.20	228.61
403.58	228.63
403.95	228.92
404.33	229.12
404.71	229.40
405.08	229.85
405.46	230.09
405.83	230.42
406.21	230.69
406.58	231.01
406.96	231.32
407.33	231.68
407.70	232.05
408.08	232.81
408.45	233.32
408.83	233.77
409.20	234.14
409.58	234.26
409.95	234.87
410.33	235.46
410.70	235.90
411.08	236.47
411.45	237.08
411.82	237.58
412.20	238.38
412.57	239.40
412.95	239.72
413.32	240.60
413.69	241.41
414.07	242.39
414.44	243.29
414.82	244.24
415.19	245.40
415.56	246.55
415.94	247.60
416.31	248.95
416.68	250.34
417.06	251.99
417.43	253.65
417.81	255.41
418.18	257.12
418.55	259.14
418.93	261.15
419.30	263.26
419.67	265.43
420.04	267.70
420.42	269.93
420.79	273.01
421.16	275.80
421.54	278.83
421.91	281.78
422.28	284.97
422.66	288.25
423.03	291.68
423.40	294.97
423.77	298.46
424.15	302.00
424.52	305.84
424.89	310.03
425.26	314.00
425.64	317.70
426.01	321.88
426.38	326.19
426.75	330.74
427.13	335.21
427.50	340.02
427.87	344.90
428.24	349.77
428.61	354.24
428.99	359.48
429.36	364.83
429.73	370.27
430.10	375.59
430.47	381.27
430.85	386.95
431.22	393.16
431.59	399.77
431.96	405.91
432.33	412.76
432.70	419.35
433.08	427.13
433.45	434.50
433.82	441.87
434.19	450.05
434.56	458.06
434.93	465.80
435.30	473.46
435.68	482.10
436.05	490.49
436.42	498.88
436.79	506.53
437.16	514.80
437.53	523.74
437.90	532.53
438.27	541.12
438.64	550.01
439.01	558.35
439.38	565.51
439.75	572.73
440.13	580.75
440.50	588.16
440.87	594.17
441.24	600.52
441.61	607.58
441.98	612.65
442.35	618.50
442.72	624.51
443.09	630.39
443.46	633.73
443.83	636.11
444.20	637.90
444.57	640.63
444.94	641.81
445.31	642.72
445.68	644.01
446.05	644.02
446.42	642.75
446.79	641.30
447.16	639.76
447.53	638.41
447.90	634.74
448.27	631.02
448.64	626.35
449.01	622.72
449.37	616.40
449.74	610.39
450.11	603.56
450.48	595.75
450.85	587.77
451.22	580.95
451.59	574.32
451.96	568.20
452.33	560.03
452.70	552.67
453.07	544.06
453.43	535.10
453.80	526.88
454.17	518.86
454.54	511.02
454.91	502.96
455.28	495.14
455.65	487.71
456.02	481.05
456.38	474.72
456.75	466.96
457.12	460.51
457.49	454.22
457.86	447.80
458.23	442.79
458.59	437.13
458.96	431.34
459.33	426.35
459.70	421.33
460.07	417.38
460.43	412.78
460.80	408.54
461.17	404.69
461.54	400.75
461.91	396.86
462.27	393.09
462.64	389.78
463.01	386.22
463.38	383.03
463.74	378.94
464.11	375.84
464.48	373.25
464.85	370.46
465.21	368.40
465.58	366.12
465.95	363.27
466.32	361.08
466.68	358.89
467.05	356.61
467.42	354.31
467.78	352.03
468.15	349.80
468.52	348.23
468.88	346.02
469.25	344.00
469.62	342.55
469.98	341.03
470.35	339.61
470.72	338.17
471.08	336.40
471.45	335.26
471.82	333.98
472.18	332.51
472.55	331.57
472.92	330.12
473.28	329.00
473.65	327.94
474.02	326.91
474.38	325.96
474.75	325.17
475.11	324.32
475.48	323.57
475.85	323.09
476.21	322.40
476.58	321.94
476.94	321.58
477.31	321.12
477.67	320.64
478.04	320.20
478.41	320.00
478.77	320.32
479.14	319.94
479.50	319.80
479.87	319.83
480.23	319.75
480.60	319.73
480.96	319.72
481.33	320.01
481.69	320.14
482.06	320.38
482.42	320.62
482.79	320.97
483.15	321.38
483.52	322.00
483.88	322.48
484.25	323.07
484.61	323.71
484.98	324.33
485.34	325.44
485.71	326.45
486.07	327.30
486.44	327.80
486.80	328.95
487.17	330.09
487.53	331.41
487.90	332.80
488.26	334.49
488.62	336.27
488.99	337.79
489.35	339.48
489.72	341.31
490.08	343.26
490.44	345.27
490.81	347.53
491.17	349.68
491.54	352.07
491.90	354.63
492.26	357.29
492.63	360.06
492.99	362.71
493.36	365.71
493.72	369.22
494.08	372.68
494.45	376.33
494.81	380.20
495.17	384.02
495.54	388.20
495.90	392.39
496.26	396.72
496.63	401.39
496.99	406.35
497.35	411.37
497.72	416.75
498.08	422.24
498.44	427.91
498.80	433.95
499.17	440.14
499.53	446.33
499.89	452.99
500.26	459.89
500.62	466.94
500.98	474.17
501.34	481.45
501.71	489.25
502.07	497.05
502.43	505.16
502.79	513.66
503.16	522.39
503.52	531.31
503.88	540.59
504.24	550.30
504.60	560.16
504.97	570.51
505.33	580.92
505.69	592.00
506.05	602.98
506.41	614.18
506.78	625.70
507.14	637.79
507.50	650.10
507.86	662.69
508.22	675.58
508.59	688.92
508.95	702.72
509.31	716.56
509.67	730.75
510.03	745.02
510.39	759.58
510.75	774.51
511.12	789.60
511.48	805.10
511.84	820.83
512.20	836.69
512.56	852.73
512.92	869.55
513.28	886.18
513.64	903.31
514.00	920.88
514.37	938.65
514.73	956.76
515.09	974.92
515.45	993.21
515.81	1011.51
516.17	1030.02
516.53	1048.55
516.89	1067.29
517.25	1086.74
517.61	1106.92
517.97	1127.19
518.33	1147.24
518.69	1167.60
519.05	1188.20
519.41	1208.51
519.77	1229.62
520.13	1250.43
520.49	1271.04
520.85	1293.42
521.21	1314.65
521.57	1335.72
521.93	1356.67
522.29	1377.64
522.65	1398.36
523.01	1419.24
523.37	1440.08
523.73	1460.98
524.09	1481.32
524.45	1502.12
524.81	1522.84
525.17	1543.40
525.53	1563.92
525.89	1584.85
526.25	1605.88
526.61	1626.33
526.97	1647.18
527.33	1668.33
527.68	1690.27
528.04	1711.11
528.40	1730.50
528.76	1751.51
529.12	1772.05
529.48	1792.49
529.84	1812.54
530.20	1833.64
530.56	1854.42
530.91	1875.37
531.27	1895.94
531.63	1916.58
531.99	1937.13
532.35	1957.34
532.71	1977.46
533.07	1998.05
533.42	2017.66
533.78	2037.23
534.14	2057.08
534.50	2076.41
534.86	2095.51
535.21	2112.95
535.57	2131.52
535.93	2149.28
536.29	2166.90
536.65	2184.66
537.00	2201.98
537.36	2219.60
537.72	2235.82
538.08	2252.51
538.44	2268.58
538.79	2284.80
539.15	2301.32
539.51	2316.92
539.87	2332.18
540.22	2346.29
540.58	2360.18
540.94	2373.37
541.29	2385.79
541.65	2397.96
542.01	2410.55
542.37	2421.30
542.72	2432.26
543.08	2443.15
543.44	2454.83
543.79	2464.82
544.15	2474.44
544.51	2484.63
544.87	2494.06
545.22	2502.55
545.58	2510.46
545.94	2517.87
546.29	2524.10
546.65	2530.06
547.01	2535.55
547.36	2540.92
547.72	2546.31
548.07	2550.49
548.43	2555.83
548.79	2560.47
549.14	2564.36
549.50	2567.90
549.86	2571.50
550.21	2575.09
550.57	2577.93
550.92	2579.11
551.28	2580.43
551.64	2582.80
551.99	2584.72
552.35	2586.21
552.70	2588.42
553.06	2590.07
553.41	2591.02
553.77	2593.09
554.13	2594.94
554.48	2596.64
554.84	2597.85
555.19	2598.60
555.55	2600.38
555.90	2599.47
556.26	2598.84
556.61	2597.59
556.97	2595.71
557.32	2595.02
557.68	2593.82
558.03	2592.68
558.39	2591.42
558.74	2590.15
559.10	2586.91
559.45	2583.55
559.81	2578.89
560.16	2573.74
560.52	2568.90
560.87	2564.85
561.23	2559.22
561.58	2552.75
561.94	2545.87
562.29	2538.40
562.64	2531.56
563.00	2523.23
563.35	2516.80
563.71	2510.01
564.06	2503.70
564.42	2496.89
564.77	2490.12
565.12	2482.32
565.48	2474.21
565.83	2466.30
566.19	2458.61
566.54	2451.11
566.89	2442.51
567.25	2435.07
567.60	2427.53
567.96	2419.87
568.31	2411.72
568.66	2403.12
569.02	2394.54
569.37	2386.24
569.72	2378.75
570.08	2369.41
570.43	2359.73
570.78	2350.48
571.14	2340.88
571.49	2330.83
571.84	2321.24
572.20	2310.10
572.55	2300.26
572.90	2289.41
573.26	2279.17
573.61	2268.07
573.96	2256.76
574.31	2244.83
574.67	2233.37
575.02	2221.17
575.37	2208.42
575.72	2195.45
576.08	2183.52
576.43	2171.03
576.78	2157.92
577.13	2144.06
577.49	2131.38
577.84	2119.40
578.19	2107.42
578.54	2095.34
578.90	2083.38
579.25	2071.42
579.60	2059.16
579.95	2046.28
580.30	2033.50
580.66	2019.92
581.01	2006.41
581.36	1992.38
581.71	1980.19
582.06	1966.77
582.42	1954.13
582.77	1941.71
583.12	1929.61
583.47	1917.03
583.82	1905.12
584.17	1893.13
584.53	1881.28
584.88	1868.59
585.23	1855.93
585.58	1841.61
585.93	1828.02
586.28	1814.52
586.63	1800.20
586.98	1785.84
587.34	1772.61
587.69	1759.31
588.04	1747.03
588.39	1735.00
588.74	1722.85
589.09	1710.54
589.44	1697.80
589.79	1685.93
590.14	1674.24
590.49	1662.18
590.84	1650.20
591.19	1637.95
591.54	1625.92
591.89	1613.92
592.25	1603.52
592.60	1592.00
592.95	1580.96
593.30	1569.33
593.65	1557.53
594.00	1545.90
594.35	1536.54
594.70	1524.80
595.05	1513.39
595.40	1500.93
595.75	1488.95
596.10	1477.96
596.45	1466.72
596.80	1455.97
597.15	1444.27
597.50	1432.07
597.85	1420.82
598.19	1409.21
598.54	1397.98
598.89	1386.90
599.24	1376.41
599.59	1364.97
599.94	1354.03
600.29	1343.62
600.64	1333.36
600.99	1322.60
601.34	1313.12
601.69	1301.79
602.04	1291.81
602.39	1282.21
602.74	1273.48
603.08	1264.38
603.43	1255.08
603.78	1245.41
604.13	1236.08
604.48	1226.59
604.83	1217.19
605.18	1207.43
605.53	1198.13
605.87	1188.82
606.22	1180.35
606.57	1171.09
606.92	1161.86
607.27	1153.18
607.62	1144.40
607.96	1135.70
608.31	1127.87
608.66	1119.37
609.01	1110.90
609.36	1102.58
609.70	1094.09
610.05	1085.27
610.40	1076.47
610.75	1067.90
611.10	1059.41
611.44	1050.90
611.79	1042.83
612.14	1034.97
612.49	1027.14
612.83	1019.70
613.18	1012.09
613.53	1004.31
613.88	996.34
614.22	988.78
614.57	980.94
614.92	973.07
615.27	965.86
615.61	958.25
615.96	950.61
616.31	943.04
616.65	936.09
617.00	928.78
617.35	921.67
617.70	914.78
618.04	907.54
618.39	900.75
618.74	894.36
619.08	887.55
619.43	880.56
619.78	873.50
620.12	866.60
620.47	859.64
620.82	852.42
621.16	845.82
621.51	839.55
621.85	833.18
622.20	826.73
622.55	819.84
622.89	813.30
623.24	807.05
623.59	800.70
623.93	794.35
624.28	788.33
624.62	782.70
624.97	776.86
625.32	771.27
625.66	765.36
626.01	759.14
626.35	753.60
626.70	748.20
627.04	743.12
627.39	737.42
627.73	732.19
628.08	727.15
628.43	721.72
628.77	715.98
629.12	710.72
629.46	705.81
629.81	701.31
630.15	696.70
630.50	691.80
630.84	686.99
631.19	682.16
631.53	677.63
631.88	672.45
632.22	667.64
632.57	663.17
632.91	658.57
633.26	654.21
633.60	649.52
633.95	644.97
634.29	640.19
634.64	635.64
634.98	630.82
635.32	626.32
635.67	622.36
636.01	618.22
636.36	613.90
636.70	609.92
637.05	605.65
637.39	601.56
637.73	597.44
638.08	593.53
638.42	589.37
638.77	584.98
639.11	580.75
639.45	576.35
639.80	572.03
640.14	567.97
640.49	563.95
640.83	560.22
641.17	556.41
641.52	552.65
641.86	549.10
642.20	546.01
642.55	542.45
642.89	538.82
643.23	535.50
643.58	532.33
643.92	528.55
644.26	525.22
644.61	521.90
644.95	518.49
645.29	515.10
645.64	512.03
645.98	509.04
646.32	506.12
646.66	503.14
647.01	500.08
647.35	497.29
647.69	494.49
648.04	491.61
648.38	488.72
648.72	485.93
649.06	482.98
649.41	479.90
649.75	477.03
650.09	474.18
650.43	471.31
650.78	468.38
651.12	465.76
651.46	462.84
651.80	460.09
652.14	457.57
652.49	455.18
652.83	452.67
653.17	449.99
653.51	447.26
653.85	444.93
654.20	442.53
654.54	439.92
654.88	437.34
655.22	435.07
655.56	432.76
655.90	430.40
656.25	428.25
656.59	426.07
656.93	423.90
657.27	421.88
657.61	419.43
657.95	417.35
658.29	415.17
658.64	413.17
658.98	410.91
659.32	408.60
659.66	406.37
660.00	404.15
660.34	402.14
660.68	400.15
661.02	398.12
661.36	396.19
661.70	394.16
662.05	392.27
662.39	390.28
662.73	388.56
663.07	387.00
663.41	385.14
663.75	383.19
664.09	381.30
664.43	379.20
664.77	377.56
665.11	375.66
665.45	374.01
665.79	372.26
666.13	370.54
666.47	368.81
666.81	367.17
667.15	365.44
667.49	363.92
667.83	362.58
668.17	361.01
668.51	359.50
668.85	358.29
669.19	357.20
669.53	355.73
669.87	354.16
670.21	352.62
670.55	351.27
670.89	350.22
671.23	348.86
671.57	347.56
671.91	346.30
672.25	345.10
672.58	343.80
672.92	342.53
673.26	341.38
673.60	340.25
673.94	339.00
674.28	337.97
674.62	336.83
674.96	335.54
675.30	334.47
675.64	333.28
675.97	331.99
676.31	330.56
676.65	329.43
676.99	328.46
677.33	327.23
677.67	326.11
678.01	324.77
678.34	323.66
678.68	322.71
679.02	321.53
679.36	320.47
679.70	319.50
680.04	318.52
680.37	317.50
680.71	316.50
681.05	315.58
681.39	314.64
681.73	313.62
682.06	312.71
682.40	311.72
682.74	310.81
683.08	310.06
683.42	309.14
683.75	308.31
684.09	307.34
684.43	306.56
684.77	305.68
685.10	304.89
685.44	304.06
685.78	303.33
686.12	302.60
686.45	301.76
686.79	300.90
687.13	300.19
687.46	299.43
687.80	298.73
688.14	297.95
688.48	297.24
688.81	296.53
689.15	295.87
689.49	295.13
689.82	294.58
690.16	293.76
690.50	293.11
690.83	292.39
691.17	291.58
691.51	290.94
691.84	290.36
692.18	289.68
692.52	289.11
692.85	288.42
693.19	288.03
693.52	287.49
693.86	286.86
694.20	286.25
694.53	285.74
694.87	285.08
695.21	284.44
695.54	283.80
695.88	283.21
696.21	282.60
696.55	282.00
696.88	281.25
697.22	280.60
697.56	280.14
697.89	279.53
698.23	279.08
698.56	278.52
698.90	278.01
699.23	277.49
699.57	276.94
699.90	276.36
700.24	275.70
700.58	275.28
700.91	274.90
701.25	274.76
701.58	274.65
701.92	274.38
702.25	273.91
702.59	273.45
702.92	273.05
703.26	272.68
703.59	272.32
703.93	272.40
704.26	272.10
704.60	271.64
704.93	271.25
705.26	270.73
705.60	270.33
705.93	269.86
706.27	269.59
706.60	269.31
706.94	269.22
707.27	268.83
707.61	268.45
707.94	268.02
708.27	267.22
708.61	266.47
708.94	265.93
709.28	265.63
709.61	265.21
709.94	264.84
710.28	264.33
710.61	264.02
710.95	263.18
711.28	263.05
711.61	262.65
711.95	262.39
712.28	262.12
712.61	261.74
712.95	261.58
713.28	261.37
713.61	260.94
713.95	260.39
714.28	260.02
714.61	259.61
714.95	259.27
715.28	258.92
715.61	258.52
715.95	258.30
716.28	257.85
716.61	257.62
716.95	257.23
717.28	256.94
717.61	256.54
717.94	256.25
718.28	255.64
718.61	255.31
718.94	254.90
719.27	254.60
719.61	254.40
719.94	253.99
720.27	253.45
720.60	253.19
720.94	252.91
721.27	252.69
721.60	252.54
721.93	252.27
722.27	252.27
722.60	252.09
722.93	251.73
723.26	251.61
723.59	251.30
723.93	251.11
724.26	250.90
724.59	250.70
724.92	250.51
725.25	250.37
725.59	250.19
725.92	250.06
726.25	249.87
726.58	249.70
726.91	249.48
727.24	249.39
727.57	249.20
727.91	248.85
728.24	248.66
728.57	248.35
728.90	248.23
729.23	247.78
729.56	247.77
729.89	247.60
730.22	247.45
730.55	247.29
730.89	247.15
731.22	246.90
731.55	246.71
731.88	246.48
732.21	246.21
732.54	245.96
732.87	245.79
733.20	245.69
733.53	245.45
733.86	245.30
734.19	245.01
734.52	244.82
734.85	245.07
735.18	244.83
735.51	244.87
735.84	244.73
736.17	244.80
736.50	244.43
736.83	244.78
737.16	244.60
737.49	244.44
737.82	244.26
738.15	244.18
738.48	244.04
738.81	243.91
739.14	243.71
739.47	243.55
739.80	243.33
740.13	243.19
740.46	243.02
740.79	242.84
741.12	242.71
741.45	242.55
741.78	242.17
742.11	242.25
742.44	242.01
742.77	241.91
743.10	241.68
743.43	241.55
743.75	241.03
744.08	241.48
744.41	241.38
744.74	241.23
745.07	241.05
745.40	241.05
745.73	241.19
746.06	241.19
746.39	241.17
746.71	241.10
747.04	240.87
747.37	240.75
747.70	240.72
748.03	240.69
748.36	240.71
748.68	240.55
749.01	240.26
749.34	240.10
749.67	240.04
750.00	239.96
750.33	240.16
750.65	240.10
750.98	239.44
751.31	239.34
751.64	239.23
751.97	239.42
752.29	239.26
752.62	238.92
752.95	238.80
753.28	238.60
753.60	238.45
753.93	238.44
754.26	238.43
754.59	238.17
754.91	238.00
755.24	237.80
755.57	237.75
755.90	237.64
756.22	237.54
756.55	237.27
756.88	237.17
757.20	236.83
757.53	236.47
757.86	236.40
758.19	236.32
758.51	236.28
758.84	235.97
759.17	235.82
759.49	235.81
759.82	235.93
760.15	235.92
760.47	235.86
760.80	235.68
761.13	235.59
761.45	235.49
761.78	235.46
762.11	235.43
762.43	235.25
762.76	235.20
763.08	235.09
763.41	235.12
763.74	235.04
764.06	234.93
764.39	234.93
764.71	234.88
765.04	234.73
765.37	234.58
765.69	234.47
766.02	234.35
766.34	234.18
766.67	233.93
767.00	233.94
767.32	234.11
767.65	234.37
767.97	234.22
768.30	234.19
768.62	234.10
768.95	233.90
769.27	233.81
769.60	233.76
769.92	233.69
770.25	233.46
770.57	233.29
770.90	233.24
771.22	233.09
771.55	232.96
771.87	232.90
772.20	232.78
772.52	233.04
772.85	233.53
773.17	233.50
773.50	233.34
773.82	233.10
774.15	232.80
774.47	232.43
774.80	232.34
775.12	232.23
775.45	232.17
775.77	232.18
776.09	232.18
776.42	232.06
776.74	232.09
777.07	232.03
777.39	231.95
777.72	231.77
778.04	231.82
778.36	231.74
778.69	231.72
779.01	231.82
779.33	231.40
779.66	230.83
779.98	230.76
780.31	230.81
780.63	231.04
780.95	231.09
781.28	231.08
781.60	231.04
781.92	231.10
782.25	231.04
782.57	230.93
782.89	230.93
783.22	230.93
783.54	230.79
783.86	230.77
784.19	230.78
784.51	230.93
784.83	230.82
785.16	230.81
785.48	230.75
785.80	230.69
786.12	230.74
786.45	230.75
786.77	230.77
787.09	230.68
787.42	230.54
787.74	230.51
788.06	230.50
788.38	230.48
788.71	230.41
789.03	230.38
789.35	230.53
789.67	230.40
789.99	230.46
790.32	230.41
790.64	230.49
790.96	230.84
791.28	230.70
791.61	230.66
791.93	230.68
792.25	230.67
792.57	230.97
792.89	230.82
793.21	230.82
793.54	230.77
793.86	230.67
794.18	230.57
794.50	230.45
794.82	230.39
795.14	230.43
795.47	230.49
795.79	230.54
796.11	230.32
796.43	230.33
796.75	230.27
797.07	230.37
797.39	230.30
797.71	229.97
798.04	230.00
798.36	230.05
798.68	230.02
799.00	230.01
799.32	229.81
799.64	229.90
799.96	229.90
800.28	229.93
800.60	229.99
800.92	230.05
801.24	230.05
801.56	230.09
801.89	230.04
802.21	230.01
802.53	229.95
802.85	230.07
803.17	230.28
803.49	230.15
803.81	230.07
804.13	230.03
804.45	229.94
804.77	229.96
805.09	229.91
805.41	229.82
805.73	229.67
806.05	229.45
806.37	229.34
806.69	229.27
807.01	229.21
807.33	229.23
807.65	229.10
807.97	229.28
808.28	229.21
808.60	229.19
808.92	229.13
809.24	229.36
809.56	229.28
809.88	229.10
810.20	229.15
810.52	229.18
810.84	229.05
811.16	228.96
811.48	228.81
811.80	228.95
812.12	228.87
812.43	229.08
812.75	229.05
813.07	229.10
813.39	229.09
813.71	228.99
814.03	228.90
814.35	228.89
814.67	228.62
814.98	228.56
815.30	228.55
815.62	228.40
815.94	228.12
816.26	228.30
816.58	228.21
816.89	228.18
817.21	228.07
817.53	228.13
817.85	228.18
818.17	228.25
818.48	228.03
818.80	228.19
819.12	228.01
819.44	227.99
819.76	227.85
820.07	227.78
820.39	227.80
820.71	227.75
821.03	227.73
821.34	227.73
821.66	227.78
821.98	227.78
822.30	227.79
822.61	227.98
822.93	227.71
823.25	227.58
823.57	227.57
823.88	227.65
824.20	227.69
824.52	227.73
824.83	227.69
825.15	227.70
825.47	227.64
825.79	227.73
826.10	227.73
826.42	227.76
826.74	227.80
827.05	227.77
827.37	227.78
827.69	227.79
828.00	227.79
828.32	227.78
828.64	227.67
828.95	227.96
829.27	227.86
829.58	227.88
829.90	228.02
830.22	228.05
830.53	227.91
830.85	227.81
831.17	227.68
831.48	227.64
831.80	227.69
832.11	227.61
832.43	227.52
832.75	227.47
833.06	227.78
833.38	227.66
833.69	227.68
834.01	227.72
834.32	227.73
834.64	227.68
834.96	227.72
835.27	227.75
835.59	227.58
835.90	227.51
836.22	227.56
836.53	227.51
836.85	227.50
837.16	228.06
837.48	228.07
837.79	228.28
838.11	228.32
838.42	228.28
838.74	228.36
839.05	228.30
839.37	228.32
839.68	228.00
840.00	228.01
840.31	228.14
840.63	228.13
840.94	228.10
841.26	228.06
841.57	227.94
841.88	228.02
842.20	227.95
842.51	227.87
842.83	227.83
843.14	228.27
843.46	228.28
843.77	227.90
844.08	227.86
844.40	227.73
844.71	227.67
845.03	227.62
845.34	227.55
845.65	227.58
845.97	227.61
846.28	227.66
846.60	227.63
846.91	227.50
847.22	227.43
847.54	227.48
847.85	227.53
848.16	227.51
848.48	227.38
848.79	227.57
849.10	227.64
849.42	227.66
849.73	227.22
850.04	227.18
850.36	227.07
850.67	227.14
850.98	227.10
851.30	227.16
851.61	227.13
851.92	227.12
852.23	227.25
852.55	227.24
852.86	227.22
853.17	227.35
853.49	227.45
853.80	227.52
854.11	227.50
854.42	227.57
854.74	227.55
855.05	227.60
855.36	227.34
855.67	227.31
855.99	227.24
856.30	227.80
856.61	227.80
856.92	227.84
857.23	227.84
857.55	227.80
857.86	227.75
858.17	227.81
858.48	227.72
858.79	227.60
859.11	227.58
859.42	227.52
859.73	227.41
860.04	227.35
860.35	227.27
860.66	227.10
860.98	227.09
861.29	227.15
861.60	227.05
861.91	227.09
862.22	226.97
862.53	226.93
862.84	226.34
863.16	226.40
863.47	226.24
863.78	226.24
864.09	226.21
864.40	226.29
864.71	226.25
865.02	226.35
865.33	226.30
865.64	226.24
865.95	226.25
866.27	226.54
866.58	226.45
866.89	226.54
867.20	226.48
867.51	226.35
867.82	226.24
868.13	226.45
868.44	226.43
868.75	226.57
869.06	226.55
869.37	226.60
869.68	226.41
869.99	226.53
870.30	226.54
870.61	226.65
870.92	226.47
871.23	226.43
871.54	226.46
871.85	226.60
872.16	226.65
872.47	226.56
872.78	226.28
873.09	226.33
873.40	226.28
873.71	226.42
874.02	226.45
874.33	226.44
874.64	226.32
874.95	226.40
875.26	226.26
875.56	226.24
875.87	226.17
876.18	226.25
876.49	226.73
876.80	226.62
877.11	226.55
877.42	226.61
877.73	226.65
878.04	226.61
878.35	226.61
878.66	226.64
878.96	226.69
879.27	226.70
879.58	226.68
879.89	226.65
880.20	226.70
880.51	226.65
880.82	226.66
881.12	226.65
881.43	226.52
881.74	226.53
882.05	226.60
882.36	226.66
882.67	226.67
882.97	226.09
883.28	226.10
883.59	226.05
883.90	226.10
884.21	226.14
884.51	226.13
884.82	226.07
885.13	226.13
885.44	226.18
885.74	226.13
886.05	226.16
886.36	226.15
886.67	226.04
886.98	226.32
887.28	226.38
887.59	226.42
887.90	226.47
888.20	226.46
888.51	226.57
888.82	226.52
889.13	226.55
889.43	226.93
889.74	226.96
890.05	226.93
890.35	226.89
890.66	226.80
890.97	226.72
891.28	226.64
891.58	226.61
891.89	226.55
892.20	226.58
892.50	226.46
892.81	226.51
893.12	226.53
893.42	226.30
893.73	226.31
894.04	226.26
894.34	226.29
894.65	226.30
894.95	226.19
895.26	226.21
895.57	226.43
895.87	226.08
896.18	226.11
896.48	226.20
896.79	226.22
897.10	226.36
897.40	226.38
897.71	226.50
898.01	226.45
898.32	226.53
898.63	226.49
898.93	226.64
899.24	226.58
899.54	226.57
899.85	226.63
900.15	226.61
900.46	226.68
900.76	226.75
901.07	226.72
901.38	226.66
901.68	226.75
901.99	226.51
902.29	226.50
902.60	226.44
902.90	226.38
903.21	226.42
903.51	226.38
903.82	226.45
904.12	226.33
904.43	226.33
904.73	226.26
905.03	226.34
905.34	226.72
905.64	226.68
905.95	226.63
906.25	226.61
906.56	226.60
906.86	226.55
907.17	226.48
907.47	226.55
907.77	226.58
908.08	226.43
908.38	226.44
908.69	226.53
908.99	226.63
909.30	226.65
909.60	226.57
909.90	226.56
910.21	226.49
910.51	226.45
910.81	226.48
911.12	226.52
911.42	226.48
911.73	226.01
912.03	226.04
912.33	226.20
912.64	226.15
912.94	226.15
913.24	226.07
913.55	225.95
913.85	225.83
914.15	225.91
914.46	225.99
914.76	225.94
915.06	225.88
915.37	225.74
915.67	225.75
915.97	225.82
916.27	225.71
916.58	225.70
916.88	225.76
917.18	225.74
917.49	226.03
917.79	226.02
918.09	226.09
918.39	226.21
918.70	226.09
919.00	226.12
919.30	226.34
919.60	226.29
919.91	226.31
920.21	226.37
920.51	226.24
920.81	226.24
921.12	226.33
921.42	226.35
921.72	226.40
922.02	226.41
922.32	226.44
922.63	226.49
922.93	226.71
923.23	226.69
923.53	226.60
923.83	226.36
924.13	226.35
924.44	226.29
924.74	226.37
925.04	226.59
925.34	226.48
925.64	226.28
925.94	226.36
926.24	226.68
926.55	226.63
926.85	226.75
927.15	226.70
927.45	226.71
927.75	226.71
928.05	226.77
928.35	226.75
928.65	226.86
928.95	226.88
929.26	226.74
929.56	226.88
929.86	227.00
930.16	226.94
930.46	226.94
930.76	226.97
931.06	226.82
931.36	226.67
931.66	226.87
931.96	226.90
932.26	226.96
932.56	226.71
932.86	226.79
933.16	226.79
933.46	226.77
933.76	226.72
934.06	226.81
934.36	227.04
934.66	226.97
934.96	226.94
935.26	226.96
935.56	227.08
935.86	226.92
936.16	226.82
936.46	226.84
936.76	226.81
937.06	226.79
937.36	226.71
937.66	226.71
937.96	226.66
938.26	226.60
938.56	226.54
938.86	226.63
939.16	226.70
939.46	226.69
939.76	226.78
940.06	226.79
940.35	226.61
940.65	226.24
940.95	226.36
941.25	226.20
941.55	226.15
941.85	226.13
942.15	226.27
942.45	226.39
942.75	226.36
943.04	226.41
943.34	226.46
943.64	226.47
943.94	226.36
944.24	226.29
944.54	226.32
944.84	226.28
945.13	226.20
945.43	226.16
945.73	226.15
946.03	226.04
946.33	225.96
946.62	225.99
946.92	226.05
947.22	225.99
947.52	226.07
947.82	226.12
948.11	226.00
948.41	225.89
948.71	225.74
949.01	225.77
949.31	225.71
949.60	225.71
949.90	225.77
950.20	225.75
950.50	225.77
950.79	225.81
951.09	225.92
951.39	225.88
951.69	225.79
951.98	225.86
952.28	225.93
952.58	225.90
952.87	225.88
953.17	226.00
953.47	226.01
953.76	225.94
954.06	225.88
954.36	225.86
954.66	225.88
954.95	226.10
955.25	226.11
955.55	226.12
955.84	226.02
956.14	226.09
956.44	226.17
956.73	226.04
957.03	225.99
957.32	225.93
957.62	225.97
957.92	226.09
958.21	226.06
958.51	226.54
958.81	226.64
959.10	226.72
959.40	226.75
959.69	226.81
959.99	226.96
960.29	226.96
960.58	226.93
960.88	227.09
961.17	227.02
961.47	227.07
961.76	227.07
962.06	227.22
962.36	227.15
962.65	227.15
962.95	227.27
963.24	227.26
963.54	227.31
963.83	227.30
964.13	227.25
964.42	227.19
964.72	226.89
965.01	226.94
965.31	226.95
965.60	226.86
965.90	227.17
966.19	227.03
966.49	227.10
966.78	227.15
967.08	227.10
967.37	227.10
967.67	226.98
967.96	227.07
968.26	227.00
968.55	227.09
968.85	227.15
969.14	227.22
969.43	227.21
969.73	227.18
970.02	227.20
970.32	227.15
970.61	227.09
970.91	226.90
971.20	226.84
971.49	226.76
971.79	226.84
972.08	226.45
972.38	226.50
972.67	226.45
972.96	226.50
973.26	226.41
973.55	226.56
973.85	226.60
974.14	226.51
974.43	226.54
974.73	226.46
975.02	226.39
975.31	226.33
975.61	226.34
975.90	226.28
976.19	226.30
976.49	226.30
976.78	226.37
977.07	226.41
977.37	226.38
977.66	226.48
977.95	226.30
978.24	226.33
978.54	226.40
978.83	226.41
979.12	226.36
979.42	226.37
979.71	226.20
980.00	226.20
980.29	226.18
980.59	226.07
980.88	226.27
981.17	226.24
981.46	226.26
981.76	226.24
982.05	226.30
982.34	226.22
982.63	226.24
982.93	226.20
983.22	226.23
983.51	226.27
983.80	226.34
984.09	226.41
984.39	226.40
984.68	226.32
984.97	226.26
985.26	226.23
985.55	226.22
985.85	226.15
986.14	226.19
986.43	226.24
986.72	226.22
987.01	225.97
987.30	225.95
987.59	225.83
987.89	225.75
988.18	225.66
988.47	225.58
988.76	225.60
989.05	225.51
989.34	225.47
989.63	225.56
989.92	225.42
990.22	225.34
990.51	225.27
990.80	225.19
991.09	225.23
991.38	225.15
991.67	225.14
991.96	225.10
992.25	225.07
992.54	225.02
992.83	225.06
993.12	225.02
993.41	225.11
993.70	225.29
993.99	225.45
994.28	225.52
994.58	225.66
994.87	225.55
995.16	225.58
995.45	225.55
995.74	225.41
996.03	225.45
996.32	225.52
996.61	225.69
996.90	225.74
997.19	225.75
997.48	225.80
997.77	225.71
998.06	225.78
998.34	225.69
998.63	225.74
998.92	225.75
999.21	225.87
999.50	225.90
999.79	225.76
1000.08	225.72
1000.37	225.78
1000.66	225.66
1000.95	225.82
1001.24	225.85
1001.53	225.91
1001.82	225.90
1002.11	225.83
1002.40	225.88
1002.68	225.91
1002.97	226.24
1003.26	226.25
1003.55	226.18
1003.84	226.18
1004.13	226.36
1004.42	226.40
1004.71	226.36
1004.99	226.37
1005.28	226.47
1005.57	226.44
1005.86	226.44
1006.15	226.41
1006.44	226.35
1006.72	226.45
1007.01	226.39
1007.30	226.43
1007.59	226.42
1007.88	226.40
1008.17	226.44
1008.45	226.37
1008.74	226.20
1009.03	226.04
1009.32	225.97
1009.60	226.00
1009.89	226.04
1010.18	225.79
1010.47	225.80
1010.76	225.83
1011.04	225.72
1011.33	225.69
1011.62	225.75
1011.91	225.81
1012.19	225.84
1012.48	225.87
1012.77	225.91
1013.05	226.17
1013.34	226.16
1013.63	226.16
1013.92	226.20
1014.20	226.14
1014.49	226.19
1014.78	226.28
1015.06	226.10
1015.35	226.11
1015.64	226.24
1015.92	226.32
1016.21	226.44
1016.50	226.40
1016.78	226.46
1017.07	226.57
1017.36	226.43
1017.64	226.35
1017.93	226.42
1018.22	226.33
1018.50	226.32
1018.79	226.22
1019.08	225.96
1019.36	225.98
1019.65	225.90
1019.93	225.98
1020.22	226.10
1020.51	226.26
1020.79	226.16
1021.08	224.55
1021.36	225.75
1021.65	225.35
1021.94	226.15
1022.22	225.90
1022.51	224.95
1022.79	227.40
1023.08	226.95
1023.36	230.20
1023.65	224.50
>>>>>End Processed Spectral Data<<<<<
