SpectraSuite Data File
++++++++++++++++++++++++++++++++++++
Date: Wed Sep 04 17:52:20 EDT 2013
User: lab3
Dark Spectrum Present: Yes
Reference Spectrum Present: No
Number of Sampled Component Spectra: 1
Spectrometers: USB2E7196
Integration Time (usec): 170000 (USB2E7196)
Spectra Averaged: 20 (USB2E7196)
Boxcar Smoothing: 10 (USB2E7196)
Correct for Electrical Dark: No (USB2E7196)
Strobe/Lamp Enabled: No (USB2E7196)
Correct for Detector Non-linearity: No (USB2E7196)
Correct for Stray Light: No (USB2E7196)
Number of Pixels in Processed Spectrum: 2048
>>>>>Begin Processed Spectral Data<<<<<
339.09	0.00
339.48	212.45
339.86	214.65
340.24	216.25
340.63	218.05
341.01	225.70
341.39	220.95
341.78	221.80
342.16	223.30
342.54	223.30
342.93	212.24
343.31	222.97
343.69	223.57
344.07	223.98
344.46	224.39
344.84	224.79
345.22	224.76
345.60	224.97
345.99	225.16
346.37	225.33
346.75	225.38
347.13	225.43
347.52	225.49
347.90	225.67
348.28	225.74
348.66	225.95
349.05	225.87
349.43	225.96
349.81	226.03
350.19	226.10
350.57	226.12
350.96	226.21
351.34	226.26
351.72	226.34
352.10	226.48
352.48	226.61
352.87	226.57
353.25	226.56
353.63	226.60
354.01	226.67
354.39	226.77
354.77	226.90
355.15	227.10
355.54	227.08
355.92	227.00
356.30	227.09
356.68	227.40
357.06	227.45
357.44	227.41
357.82	227.37
358.20	227.75
358.58	227.80
358.97	227.91
359.35	228.05
359.73	228.13
360.11	228.15
360.49	228.25
360.87	228.37
361.25	228.52
361.63	228.76
362.01	228.84
362.39	228.80
362.77	228.89
363.15	228.85
363.53	228.91
363.91	229.06
364.29	229.13
364.67	228.70
365.05	228.77
365.43	229.00
365.81	229.14
366.19	229.09
366.57	229.32
366.95	229.29
367.33	229.23
367.71	229.30
368.09	229.41
368.47	229.32
368.85	229.27
369.23	229.43
369.61	229.26
369.99	229.46
370.37	229.52
370.75	229.80
371.13	229.76
371.51	229.75
371.89	229.70
372.27	229.66
372.65	229.72
373.03	229.71
373.41	229.54
373.78	229.43
374.16	229.10
374.54	228.94
374.92	228.88
375.30	228.82
375.68	228.64
376.06	228.63
376.44	228.56
376.82	228.52
377.19	228.40
377.57	228.29
377.95	227.98
378.33	227.90
378.71	227.50
379.09	227.54
379.47	227.46
379.84	227.28
380.22	227.20
380.60	227.03
380.98	226.92
381.36	226.90
381.73	226.76
382.11	226.79
382.49	226.72
382.87	226.64
383.25	226.58
383.62	227.15
384.00	226.96
384.38	226.94
384.76	227.06
385.13	227.19
385.51	227.18
385.89	227.13
386.27	227.03
386.64	227.00
387.02	226.85
387.40	226.77
387.78	226.79
388.15	226.80
388.53	226.75
388.91	226.75
389.29	226.69
389.66	226.74
390.04	226.72
390.42	226.80
390.79	226.69
391.17	226.73
391.55	226.12
391.92	226.13
392.30	226.18
392.68	226.00
393.05	225.90
393.43	225.98
393.81	225.98
394.18	225.96
394.56	226.04
394.94	226.23
395.31	226.27
395.69	226.52
396.06	226.70
396.44	226.78
396.82	226.78
397.19	227.10
397.57	227.21
397.95	227.31
398.32	227.21
398.70	227.43
399.07	227.55
399.45	227.63
399.82	227.72
400.20	227.83
400.58	227.93
400.95	227.89
401.33	228.07
401.70	228.55
402.08	228.70
402.45	228.85
402.83	229.03
403.20	229.20
403.58	229.21
403.95	229.42
404.33	229.70
404.71	229.92
405.08	230.29
405.46	230.48
405.83	230.70
406.21	230.95
406.58	231.23
406.96	231.43
407.33	231.76
407.70	232.19
408.08	232.90
408.45	233.39
408.83	233.91
409.20	234.26
409.58	234.29
409.95	234.83
410.33	235.29
410.70	235.64
411.08	236.30
411.45	236.91
411.82	237.41
412.20	238.13
412.57	239.11
412.95	239.44
413.32	240.29
413.69	241.09
414.07	242.08
414.44	243.02
414.82	244.10
415.19	245.36
415.56	246.48
415.94	247.47
416.31	248.86
416.68	250.22
417.06	251.87
417.43	253.59
417.81	255.34
418.18	257.20
418.55	259.10
418.93	261.14
419.30	263.31
419.67	265.50
420.04	267.77
420.42	270.05
420.79	273.14
421.16	275.87
421.54	278.94
421.91	281.86
422.28	284.94
422.66	288.20
423.03	291.64
423.40	294.94
423.77	298.53
424.15	302.13
424.52	305.94
424.89	310.08
425.26	314.02
425.64	317.72
426.01	321.84
426.38	326.18
426.75	330.65
427.13	335.18
427.50	339.95
427.87	344.89
428.24	349.79
428.61	354.25
428.99	359.64
429.36	365.12
429.73	370.65
430.10	376.10
430.47	381.85
430.85	387.37
431.22	393.52
431.59	400.25
431.96	406.52
432.33	413.30
432.70	419.82
433.08	427.70
433.45	435.19
433.82	442.49
434.19	450.73
434.56	458.64
434.93	466.23
435.30	473.88
435.68	482.41
436.05	490.80
436.42	499.10
436.79	506.65
437.16	514.88
437.53	523.65
437.90	532.38
438.27	540.91
438.64	549.80
439.01	558.13
439.38	565.25
439.75	572.24
440.13	580.40
440.50	587.96
440.87	593.87
441.24	600.16
441.61	607.18
441.98	612.32
442.35	618.32
442.72	624.34
443.09	630.20
443.46	633.56
443.83	635.80
444.20	637.75
444.57	640.57
444.94	641.64
445.31	642.61
445.68	643.97
446.05	644.05
446.42	642.80
446.79	641.35
447.16	639.61
447.53	638.41
447.90	634.74
448.27	631.09
448.64	626.20
449.01	622.56
449.37	616.41
449.74	610.33
450.11	603.33
450.48	595.52
450.85	587.44
451.22	580.57
451.59	574.05
451.96	567.78
452.33	559.61
452.70	552.34
453.07	543.79
453.43	534.60
453.80	526.38
454.17	518.32
454.54	510.62
454.91	502.51
455.28	494.61
455.65	487.04
456.02	480.26
456.38	474.08
456.75	466.25
457.12	459.81
457.49	453.59
457.86	447.26
458.23	442.24
458.59	436.60
458.96	430.88
459.33	425.82
459.70	420.74
460.07	416.68
460.43	412.10
460.80	407.78
461.17	404.12
461.54	400.07
461.91	396.35
462.27	392.54
462.64	389.36
463.01	385.75
463.38	382.50
463.74	378.38
464.11	375.37
464.48	372.85
464.85	369.96
465.21	367.85
465.58	365.54
465.95	362.64
466.32	360.48
466.68	358.25
467.05	356.08
467.42	353.97
467.78	351.62
468.15	349.44
468.52	347.88
468.88	345.60
469.25	343.59
469.62	342.01
469.98	340.40
470.35	338.82
470.72	337.35
471.08	335.64
471.45	334.40
471.82	333.08
472.18	331.58
472.55	330.58
472.92	329.16
473.28	328.09
473.65	327.04
474.02	326.01
474.38	325.11
474.75	324.36
475.11	323.45
475.48	322.81
475.85	322.22
476.21	321.48
476.58	321.06
476.94	320.66
477.31	320.20
477.67	319.76
478.04	319.44
478.41	319.27
478.77	319.59
479.14	319.31
479.50	319.22
479.87	319.32
480.23	319.30
480.60	319.20
480.96	319.17
481.33	319.55
481.69	319.76
482.06	320.05
482.42	320.24
482.79	320.58
483.15	320.97
483.52	321.63
483.88	322.10
484.25	322.61
484.61	323.36
484.98	324.03
485.34	325.03
485.71	326.05
486.07	327.07
486.44	327.66
486.80	328.83
487.17	329.99
487.53	331.27
487.90	332.75
488.26	334.56
488.62	336.31
488.99	337.92
489.35	339.66
489.72	341.48
490.08	343.49
490.44	345.58
490.81	347.77
491.17	349.88
491.54	352.56
491.90	355.17
492.26	357.75
492.63	360.56
492.99	363.42
493.36	366.46
493.72	369.71
494.08	373.15
494.45	376.90
494.81	380.81
495.17	384.78
495.54	388.96
495.90	393.11
496.26	397.53
496.63	402.12
496.99	406.87
497.35	412.00
497.72	417.31
498.08	422.80
498.44	428.52
498.80	434.55
499.17	440.45
499.53	446.77
499.89	453.56
500.26	460.45
500.62	467.42
500.98	474.96
501.34	482.30
501.71	490.09
502.07	497.82
502.43	505.98
502.79	514.26
503.16	522.73
503.52	531.88
503.88	540.96
504.24	550.60
504.60	560.58
504.97	570.83
505.33	581.10
505.69	592.07
506.05	603.18
506.41	614.32
506.78	626.09
507.14	638.07
507.50	650.25
507.86	662.85
508.22	675.83
508.59	688.69
508.95	702.18
509.31	716.20
509.67	730.45
510.03	744.56
510.39	759.36
510.75	774.21
511.12	789.28
511.48	804.98
511.84	820.66
512.20	836.60
512.56	852.82
512.92	869.68
513.28	886.40
513.64	903.57
514.00	921.01
514.37	938.59
514.73	956.59
515.09	974.83
515.45	992.96
515.81	1011.19
516.17	1029.77
516.53	1048.51
516.89	1067.02
517.25	1086.42
517.61	1106.38
517.97	1126.55
518.33	1146.76
518.69	1166.70
519.05	1187.14
519.41	1207.76
519.77	1228.88
520.13	1249.63
520.49	1270.20
520.85	1292.32
521.21	1313.26
521.57	1334.49
521.93	1355.09
522.29	1376.38
522.65	1396.93
523.01	1418.00
523.37	1438.58
523.73	1459.56
524.09	1480.32
524.45	1500.73
524.81	1521.44
525.17	1542.09
525.53	1562.53
525.89	1583.37
526.25	1604.30
526.61	1624.41
526.97	1645.38
527.33	1666.21
527.68	1687.92
528.04	1708.80
528.40	1728.34
528.76	1749.23
529.12	1769.67
529.48	1790.50
529.84	1810.14
530.20	1831.15
530.56	1851.86
530.91	1872.71
531.27	1893.00
531.63	1913.08
531.99	1933.85
532.35	1953.73
532.71	1973.96
533.07	1994.33
533.42	2014.10
533.78	2033.75
534.14	2053.62
534.50	2072.49
534.86	2091.62
535.21	2108.90
535.57	2127.49
535.93	2145.14
536.29	2163.01
536.65	2181.20
537.00	2198.73
537.36	2216.54
537.72	2233.03
538.08	2249.80
538.44	2266.38
538.79	2282.82
539.15	2299.31
539.51	2315.21
539.87	2330.37
540.22	2344.20
540.58	2358.58
540.94	2371.59
541.29	2384.28
541.65	2396.59
542.01	2409.06
542.37	2419.45
542.72	2430.13
543.08	2440.34
543.44	2451.86
543.79	2461.86
544.15	2471.37
544.51	2481.14
544.87	2490.71
545.22	2499.31
545.58	2507.11
545.94	2514.27
546.29	2520.50
546.65	2526.63
547.01	2532.09
547.36	2537.35
547.72	2542.52
548.07	2546.16
548.43	2551.30
548.79	2555.94
549.14	2560.26
549.50	2563.93
549.86	2568.11
550.21	2571.97
550.57	2575.70
550.92	2576.86
551.28	2577.53
551.64	2579.51
551.99	2581.34
552.35	2582.38
552.70	2584.37
553.06	2586.10
553.41	2587.15
553.77	2588.82
554.13	2590.50
554.48	2592.29
554.84	2593.67
555.19	2595.31
555.55	2597.04
555.90	2596.58
556.26	2595.56
556.61	2593.96
556.97	2591.62
557.32	2590.35
557.68	2588.97
558.03	2587.41
558.39	2586.43
558.74	2586.11
559.10	2583.09
559.45	2579.35
559.81	2575.07
560.16	2569.60
560.52	2564.34
560.87	2559.93
561.23	2554.57
561.58	2548.54
561.94	2541.28
562.29	2533.80
562.64	2526.44
563.00	2518.46
563.35	2511.62
563.71	2505.10
564.06	2498.70
564.42	2492.28
564.77	2485.80
565.12	2478.52
565.48	2470.85
565.83	2462.63
566.19	2454.37
566.54	2446.64
566.89	2438.95
567.25	2431.30
567.60	2424.33
567.96	2417.07
568.31	2409.14
568.66	2400.48
569.02	2391.44
569.37	2383.72
569.72	2376.50
570.08	2367.25
570.43	2357.66
570.78	2348.76
571.14	2339.28
571.49	2329.47
571.84	2320.05
572.20	2309.31
572.55	2299.22
572.90	2288.24
573.26	2277.99
573.61	2266.95
573.96	2255.68
574.31	2243.76
574.67	2232.08
575.02	2219.36
575.37	2206.59
575.72	2193.01
576.08	2181.08
576.43	2168.78
576.78	2155.33
577.13	2141.53
577.49	2129.22
577.84	2117.25
578.19	2105.24
578.54	2092.46
578.90	2080.20
579.25	2067.72
579.60	2055.14
579.95	2041.99
580.30	2028.78
580.66	2015.42
581.01	2001.91
581.36	1988.40
581.71	1975.83
582.06	1962.92
582.42	1950.51
582.77	1937.98
583.12	1926.57
583.47	1913.98
583.82	1901.89
584.17	1889.79
584.53	1878.10
584.88	1864.85
585.23	1851.62
585.58	1837.46
585.93	1824.75
586.28	1811.71
586.63	1797.92
586.98	1783.70
587.34	1771.01
587.69	1757.96
588.04	1745.57
588.39	1733.52
588.74	1721.19
589.09	1709.19
589.44	1696.75
589.79	1684.62
590.14	1672.75
590.49	1660.62
590.84	1648.88
591.19	1636.84
591.54	1624.94
591.89	1612.70
592.25	1602.66
592.60	1591.38
592.95	1579.97
593.30	1567.84
593.65	1555.86
594.00	1543.98
594.35	1534.29
594.70	1522.29
595.05	1511.07
595.40	1498.97
595.75	1487.30
596.10	1476.00
596.45	1464.47
596.80	1453.36
597.15	1441.95
597.50	1430.08
597.85	1418.92
598.19	1407.38
598.54	1396.15
598.89	1384.79
599.24	1374.30
599.59	1362.70
599.94	1351.97
600.29	1341.92
600.64	1331.85
600.99	1320.88
601.34	1311.38
601.69	1300.33
602.04	1290.46
602.39	1280.74
602.74	1271.65
603.08	1262.27
603.43	1253.20
603.78	1243.74
604.13	1234.11
604.48	1224.49
604.83	1214.82
605.18	1204.98
605.53	1195.41
605.87	1186.22
606.22	1177.74
606.57	1168.53
606.92	1159.39
607.27	1150.49
607.62	1141.60
607.96	1133.18
608.31	1125.57
608.66	1117.24
609.01	1108.55
609.36	1100.10
609.70	1091.52
610.05	1083.05
610.40	1074.50
610.75	1065.80
611.10	1057.24
611.44	1049.00
611.79	1041.06
612.14	1033.50
612.49	1025.52
612.83	1018.22
613.18	1010.44
613.53	1002.74
613.88	994.81
614.22	987.14
614.57	979.30
614.92	971.54
615.27	963.88
615.61	956.32
615.96	948.70
616.31	941.27
616.65	934.27
617.00	927.00
617.35	919.75
617.70	912.84
618.04	905.71
618.39	898.90
618.74	892.24
619.08	885.41
619.43	878.29
619.78	871.46
620.12	864.37
620.47	857.52
620.82	850.41
621.16	843.65
621.51	837.36
621.85	831.22
622.20	824.69
622.55	818.24
622.89	811.72
623.24	805.30
623.59	799.15
623.93	793.07
624.28	787.27
624.62	781.72
624.97	775.94
625.32	770.15
625.66	764.05
626.01	758.06
626.35	752.47
626.70	747.08
627.04	741.85
627.39	736.31
627.73	731.03
628.08	725.97
628.43	720.69
628.77	715.18
629.12	709.99
629.46	705.11
629.81	700.35
630.15	695.61
630.50	690.86
630.84	686.01
631.19	681.07
631.53	676.42
631.88	671.17
632.22	666.14
632.57	661.71
632.91	657.25
633.26	653.01
633.60	648.58
633.95	643.78
634.29	639.03
634.64	634.67
634.98	629.94
635.32	625.66
635.67	621.64
636.01	617.60
636.36	613.11
636.70	609.11
637.05	604.86
637.39	600.78
637.73	596.81
638.08	592.88
638.42	588.82
638.77	584.54
639.11	580.20
639.45	575.95
639.80	571.54
640.14	567.50
640.49	563.40
640.83	559.53
641.17	556.15
641.52	552.56
641.86	549.05
642.20	546.00
642.55	542.27
642.89	538.65
643.23	534.97
643.58	531.92
643.92	528.20
644.26	524.86
644.61	521.70
644.95	518.24
645.29	514.89
645.64	511.69
645.98	508.54
646.32	505.85
646.66	502.87
647.01	499.95
647.35	497.16
647.69	494.35
648.04	491.50
648.38	488.53
648.72	485.79
649.06	482.70
649.41	479.60
649.75	476.65
650.09	473.83
650.43	471.04
650.78	468.02
651.12	465.24
651.46	462.43
651.80	459.57
652.14	456.94
652.49	454.43
652.83	451.89
653.17	449.38
653.51	446.55
653.85	444.17
654.20	441.75
654.54	439.11
654.88	436.51
655.22	434.31
655.56	431.89
655.90	429.44
656.25	427.19
656.59	424.87
656.93	422.81
657.27	420.76
657.61	418.46
657.95	416.29
658.29	414.17
658.64	412.05
658.98	409.79
659.32	407.60
659.66	405.38
660.00	403.37
660.34	401.24
660.68	399.22
661.02	397.20
661.36	395.27
661.70	393.33
662.05	391.45
662.39	389.49
662.73	387.67
663.07	386.05
663.41	384.24
663.75	382.36
664.09	380.43
664.43	378.49
664.77	376.94
665.11	375.16
665.45	373.57
665.79	371.97
666.13	370.38
666.47	368.75
666.81	367.14
667.15	365.32
667.49	363.83
667.83	362.48
668.17	360.96
668.51	359.40
668.85	358.06
669.19	356.87
669.53	355.19
669.87	353.67
670.21	352.06
670.55	350.60
670.89	349.52
671.23	348.25
671.57	346.88
671.91	345.42
672.25	344.09
672.58	342.78
672.92	341.39
673.26	340.07
673.60	338.78
673.94	337.58
674.28	336.45
674.62	335.40
674.96	334.17
675.30	333.08
675.64	331.87
675.97	330.58
676.31	329.22
676.65	328.06
676.99	327.24
677.33	326.07
677.67	325.14
678.01	323.75
678.34	322.65
678.68	321.76
679.02	320.63
679.36	319.75
679.70	318.78
680.04	317.84
680.37	316.89
680.71	315.97
681.05	314.97
681.39	314.10
681.73	313.07
682.06	312.14
682.40	311.21
682.74	310.51
683.08	309.87
683.42	308.92
683.75	308.25
684.09	307.17
684.43	306.45
684.77	305.59
685.10	304.88
685.44	304.14
685.78	303.30
686.12	302.57
686.45	301.73
686.79	300.85
687.13	300.17
687.46	299.40
687.80	298.80
688.14	298.15
688.48	297.37
688.81	296.63
689.15	296.00
689.49	295.23
689.82	294.47
690.16	293.54
690.50	292.95
690.83	292.17
691.17	291.40
691.51	290.63
691.84	290.05
692.18	289.34
692.52	288.54
692.85	287.85
693.19	287.47
693.52	286.87
693.86	286.25
694.20	285.63
694.53	285.14
694.87	284.38
695.21	283.74
695.54	283.21
695.88	282.60
696.21	281.84
696.55	281.38
696.88	280.75
697.22	280.17
697.56	279.70
697.89	279.09
698.23	278.74
698.56	278.30
698.90	277.74
699.23	277.28
699.57	276.92
699.90	276.39
700.24	275.74
700.58	275.28
700.91	274.90
701.25	274.75
701.58	274.57
701.92	274.28
702.25	273.81
702.59	273.27
702.92	272.89
703.26	272.54
703.59	272.03
703.93	272.02
704.26	271.74
704.60	271.24
704.93	270.80
705.26	270.29
705.60	269.87
705.93	269.33
706.27	268.99
706.60	268.67
706.94	268.45
707.27	268.01
707.61	267.60
707.94	267.16
708.27	266.36
708.61	265.55
708.94	265.12
709.28	264.75
709.61	264.34
709.94	263.94
710.28	263.51
710.61	263.10
710.95	262.32
711.28	262.26
711.61	261.95
711.95	261.72
712.28	261.35
712.61	261.05
712.95	261.04
713.28	260.90
713.61	260.43
713.95	259.92
714.28	259.63
714.61	259.21
714.95	258.80
715.28	258.32
715.61	258.06
715.95	257.73
716.28	257.40
716.61	257.18
716.95	256.77
717.28	256.45
717.61	256.15
717.94	255.86
718.28	255.24
718.61	254.84
718.94	254.51
719.27	254.23
719.61	253.97
719.94	253.50
720.27	253.02
720.60	252.75
720.94	252.50
721.27	252.25
721.60	252.08
721.93	251.87
722.27	251.84
722.60	251.62
722.93	251.37
723.26	251.15
723.59	250.89
723.93	250.78
724.26	250.71
724.59	250.54
724.92	250.44
725.25	250.28
725.59	250.08
725.92	250.00
726.25	249.76
726.58	249.54
726.91	249.36
727.24	249.15
727.57	248.99
727.91	248.74
728.24	248.63
728.57	248.43
728.90	248.33
729.23	248.01
729.56	248.06
729.89	247.93
730.22	247.71
730.55	247.59
730.89	247.41
731.22	247.23
731.55	247.06
731.88	246.87
732.21	246.66
732.54	246.46
732.87	246.19
733.20	246.16
733.53	246.01
733.86	245.90
734.19	245.72
734.52	245.57
734.85	245.81
735.18	245.54
735.51	245.52
735.84	245.40
736.17	245.43
736.50	245.01
736.83	245.39
737.16	245.25
737.49	245.06
737.82	244.85
738.15	244.70
738.48	244.62
738.81	244.45
739.14	244.22
739.47	244.04
739.80	243.87
740.13	243.76
740.46	243.51
740.79	243.27
741.12	243.15
741.45	242.96
741.78	242.54
742.11	242.60
742.44	242.29
742.77	242.23
743.10	242.02
743.43	241.91
743.75	241.16
744.08	241.68
744.41	241.57
744.74	241.42
745.07	241.16
745.40	241.06
745.73	241.04
746.06	240.99
746.39	240.94
746.71	240.76
747.04	240.59
747.37	240.45
747.70	240.43
748.03	240.33
748.36	240.29
748.68	240.09
749.01	239.72
749.34	239.64
749.67	239.44
750.00	239.37
750.33	239.65
750.65	239.61
750.98	238.91
751.31	238.82
751.64	238.71
751.97	238.82
752.29	238.66
752.62	238.36
752.95	238.22
753.28	238.07
753.60	237.95
753.93	237.87
754.26	237.85
754.59	237.59
754.91	237.44
755.24	237.28
755.57	237.25
755.90	237.19
756.22	237.09
756.55	236.95
756.88	236.76
757.20	236.31
757.53	236.13
757.86	236.03
758.19	235.92
758.51	235.84
758.84	235.52
759.17	235.41
759.49	235.39
759.82	235.52
760.15	235.48
760.47	235.37
760.80	235.23
761.13	235.19
761.45	235.11
761.78	235.01
762.11	234.99
762.43	234.89
762.76	234.83
763.08	234.81
763.41	234.79
763.74	234.75
764.06	234.64
764.39	234.51
764.71	234.44
765.04	234.37
765.37	234.31
765.69	234.37
766.02	234.27
766.34	234.13
766.67	233.84
767.00	233.84
767.32	234.09
767.65	234.22
767.97	234.12
768.30	234.11
768.62	234.06
768.95	233.88
769.27	233.76
769.60	233.74
769.92	233.64
770.25	233.50
770.57	233.39
770.90	233.40
771.22	233.40
771.55	233.29
771.87	233.27
772.20	233.18
772.52	233.43
772.85	233.93
773.17	233.85
773.50	233.82
773.82	233.76
774.15	233.47
774.47	233.20
774.80	233.12
775.12	233.10
775.45	233.00
775.77	233.05
776.09	233.01
776.42	233.04
776.74	233.12
777.07	233.01
777.39	233.02
777.72	232.96
778.04	232.90
778.36	232.84
778.69	232.79
779.01	232.73
779.33	232.35
779.66	231.81
779.98	231.81
780.31	231.84
780.63	231.87
780.95	231.96
781.28	231.90
781.60	231.81
781.92	231.71
782.25	231.67
782.57	231.57
782.89	231.59
783.22	231.42
783.54	231.25
783.86	231.25
784.19	231.08
784.51	231.22
784.83	231.15
785.16	231.07
785.48	231.03
785.80	231.06
786.12	231.02
786.45	230.99
786.77	230.98
787.09	230.85
787.42	230.74
787.74	230.70
788.06	230.62
788.38	230.59
788.71	230.53
789.03	230.52
789.35	230.56
789.67	230.39
789.99	230.42
790.32	230.36
790.64	230.39
790.96	230.77
791.28	230.50
791.61	230.48
791.93	230.56
792.25	230.46
792.57	230.75
792.89	230.59
793.21	230.52
793.54	230.46
793.86	230.37
794.18	230.31
794.50	230.22
794.82	230.27
795.14	230.31
795.47	230.37
795.79	230.37
796.11	230.17
796.43	230.24
796.75	230.23
797.07	230.22
797.39	230.16
797.71	229.81
798.04	229.80
798.36	229.76
798.68	229.61
799.00	229.67
799.32	229.38
799.64	229.44
799.96	229.40
800.28	229.41
800.60	229.37
800.92	229.36
801.24	229.22
801.56	229.21
801.89	229.12
802.21	229.08
802.53	229.02
802.85	229.14
803.17	229.29
803.49	229.12
803.81	229.05
804.13	229.03
804.45	228.99
804.77	229.01
805.09	229.03
805.41	229.09
805.73	228.99
806.05	228.94
806.37	228.91
806.69	228.87
807.01	228.80
807.33	228.89
807.65	228.70
807.97	228.95
808.28	228.86
808.60	228.83
808.92	228.84
809.24	229.06
809.56	229.00
809.88	228.84
810.20	228.93
810.52	229.00
810.84	228.92
811.16	228.94
811.48	228.87
811.80	229.00
812.12	228.92
812.43	228.97
812.75	228.96
813.07	228.92
813.39	228.95
813.71	228.90
814.03	228.82
814.35	228.90
814.67	228.70
814.98	228.73
815.30	228.66
815.62	228.54
815.94	228.24
816.26	228.47
816.58	228.36
816.89	228.37
817.21	228.27
817.53	228.34
817.85	228.31
818.17	228.36
818.48	228.20
818.80	228.36
819.12	228.28
819.44	228.18
819.76	228.11
820.07	228.17
820.39	228.14
820.71	228.18
821.03	228.15
821.34	228.14
821.66	228.21
821.98	228.32
822.30	228.32
822.61	228.60
822.93	228.36
823.25	228.38
823.57	228.32
823.88	228.42
824.20	228.41
824.52	228.45
824.83	228.42
825.15	228.32
825.47	228.25
825.79	228.34
826.10	228.37
826.42	228.38
826.74	228.36
827.05	228.42
827.37	228.45
827.69	228.47
828.00	228.49
828.32	228.42
828.64	228.37
828.95	228.66
829.27	228.60
829.58	228.55
829.90	228.67
830.22	228.71
830.53	228.58
830.85	228.55
831.17	228.44
831.48	228.46
831.80	228.46
832.11	228.38
832.43	228.28
832.75	228.24
833.06	228.56
833.38	228.41
833.69	228.33
834.01	228.35
834.32	228.32
834.64	228.20
834.96	228.25
835.27	228.20
835.59	228.01
835.90	227.85
836.22	227.86
836.53	227.68
836.85	227.62
837.16	228.06
837.48	228.02
837.79	228.16
838.11	228.14
838.42	228.14
838.74	228.20
839.05	228.17
839.37	228.16
839.68	227.84
840.00	227.82
840.31	227.92
840.63	227.77
840.94	227.64
841.26	227.65
841.57	227.55
841.88	227.56
842.20	227.48
842.51	227.36
842.83	227.30
843.14	227.75
843.46	227.73
843.77	227.47
844.08	227.40
844.40	227.25
844.71	227.15
845.03	227.02
845.34	226.97
845.65	226.95
845.97	226.85
846.28	226.91
846.60	226.93
846.91	226.84
847.22	226.86
847.54	227.02
847.85	226.95
848.16	226.92
848.48	226.83
848.79	227.06
849.10	227.14
849.42	227.20
849.73	226.66
850.04	226.69
850.36	226.56
850.67	226.67
850.98	226.71
851.30	226.76
851.61	226.84
851.92	226.87
852.23	226.94
852.55	227.05
852.86	227.00
853.17	227.01
853.49	227.12
853.80	227.20
854.11	227.25
854.42	227.33
854.74	227.29
855.05	227.37
855.36	227.09
855.67	227.10
855.99	227.09
856.30	227.77
856.61	227.79
856.92	227.76
857.23	227.76
857.55	227.69
857.86	227.66
858.17	227.74
858.48	227.65
858.79	227.64
859.11	227.69
859.42	227.67
859.73	227.62
860.04	227.60
860.35	227.56
860.66	227.38
860.98	227.45
861.29	227.52
861.60	227.47
861.91	227.63
862.22	227.54
862.53	227.48
862.84	226.88
863.16	226.90
863.47	226.86
863.78	226.85
864.09	226.92
864.40	227.05
864.71	227.05
865.02	227.09
865.33	227.01
865.64	226.95
865.95	226.96
866.27	227.30
866.58	227.23
866.89	227.23
867.20	227.35
867.51	227.27
867.82	227.24
868.13	227.38
868.44	227.15
868.75	227.29
869.06	227.34
869.37	227.41
869.68	227.27
869.99	227.36
870.30	227.32
870.61	227.35
870.92	227.22
871.23	227.17
871.54	227.33
871.85	227.41
872.16	227.38
872.47	227.34
872.78	227.05
873.09	227.18
873.40	227.11
873.71	227.12
874.02	227.10
874.33	227.11
874.64	227.01
874.95	227.17
875.26	227.00
875.56	226.94
875.87	226.91
876.18	226.87
876.49	227.29
876.80	227.29
877.11	227.21
877.42	227.22
877.73	227.24
878.04	227.10
878.35	227.08
878.66	227.15
878.96	227.17
879.27	227.13
879.58	227.04
879.89	226.98
880.20	227.03
880.51	226.92
880.82	226.95
881.12	226.96
881.43	226.81
881.74	226.82
882.05	226.81
882.36	226.78
882.67	226.91
882.97	226.29
883.28	226.18
883.59	226.12
883.90	226.13
884.21	226.14
884.51	226.13
884.82	226.09
885.13	226.04
885.44	226.05
885.74	226.00
886.05	226.00
886.36	226.05
886.67	225.85
886.98	226.25
887.28	226.25
887.59	226.20
887.90	226.30
888.20	226.23
888.51	226.28
888.82	226.26
889.13	226.29
889.43	226.80
889.74	226.84
890.05	226.86
890.35	226.85
890.66	226.80
890.97	226.69
891.28	226.59
891.58	226.60
891.89	226.54
892.20	226.51
892.50	226.50
892.81	226.45
893.12	226.46
893.42	226.23
893.73	226.22
894.04	226.29
894.34	226.32
894.65	226.37
894.95	226.33
895.26	226.33
895.57	226.52
895.87	226.01
896.18	226.08
896.48	226.08
896.79	226.04
897.10	226.11
897.40	226.23
897.71	226.37
898.01	226.39
898.32	226.48
898.63	226.55
898.93	226.57
899.24	226.63
899.54	226.68
899.85	226.69
900.15	226.64
900.46	226.58
900.76	226.62
901.07	226.64
901.38	226.62
901.68	226.65
901.99	226.41
902.29	226.51
902.60	226.44
902.90	226.47
903.21	226.48
903.51	226.41
903.82	226.51
904.12	226.47
904.43	226.50
904.73	226.47
905.03	226.52
905.34	226.94
905.64	226.91
905.95	226.89
906.25	226.81
906.56	226.84
906.86	226.86
907.17	226.86
907.47	226.95
907.77	226.97
908.08	226.89
908.38	226.91
908.69	226.95
908.99	227.12
909.30	227.14
909.60	227.15
909.90	227.26
910.21	227.11
910.51	227.06
910.81	227.08
911.12	227.11
911.42	227.12
911.73	226.66
912.03	226.65
912.33	226.81
912.64	226.85
912.94	226.81
913.24	226.75
913.55	226.68
913.85	226.62
914.15	226.73
914.46	226.84
914.76	226.75
915.06	226.68
915.37	226.52
915.67	226.49
915.97	226.45
916.27	226.30
916.58	226.32
916.88	226.31
917.18	226.16
917.49	226.48
917.79	226.46
918.09	226.51
918.39	226.62
918.70	226.57
919.00	226.53
919.30	226.72
919.60	226.70
919.91	226.63
920.21	226.58
920.51	226.41
920.81	226.33
921.12	226.46
921.42	226.48
921.72	226.56
922.02	226.57
922.32	226.63
922.63	226.57
922.93	226.71
923.23	226.75
923.53	226.76
923.83	226.41
924.13	226.40
924.44	226.41
924.74	226.52
925.04	226.56
925.34	226.59
925.64	226.35
925.94	226.40
926.24	226.64
926.55	226.69
926.85	226.75
927.15	226.82
927.45	226.83
927.75	226.81
928.05	226.83
928.35	226.75
928.65	226.83
928.95	226.95
929.26	226.83
929.56	226.91
929.86	226.98
930.16	226.93
930.46	226.91
930.76	226.91
931.06	226.69
931.36	226.50
931.66	226.55
931.96	226.66
932.26	226.60
932.56	226.45
932.86	226.41
933.16	226.42
933.46	226.34
933.76	226.18
934.06	226.35
934.36	226.40
934.66	226.40
934.96	226.29
935.26	226.24
935.56	226.32
935.86	226.19
936.16	226.15
936.46	226.15
936.76	226.06
937.06	225.96
937.36	226.06
937.66	226.15
937.96	226.17
938.26	226.08
938.56	226.06
938.86	226.03
939.16	226.12
939.46	226.21
939.76	226.20
940.06	226.23
940.35	226.09
940.65	225.90
940.95	225.98
941.25	225.92
941.55	225.87
941.85	225.83
942.15	225.91
942.45	226.02
942.75	225.99
943.04	226.07
943.34	226.21
943.64	226.12
943.94	226.00
944.24	225.91
944.54	225.96
944.84	225.91
945.13	225.83
945.43	225.75
945.73	225.65
946.03	225.70
946.33	225.66
946.62	225.55
946.92	225.61
947.22	225.60
947.52	225.68
947.82	225.76
948.11	225.68
948.41	225.55
948.71	225.37
949.01	225.48
949.31	225.41
949.60	225.33
949.90	225.44
950.20	225.47
950.50	225.54
950.79	225.48
951.09	225.62
951.39	225.59
951.69	225.55
951.98	225.71
952.28	225.66
952.58	225.71
952.87	225.77
953.17	225.71
953.47	225.67
953.76	225.61
954.06	225.60
954.36	225.58
954.66	225.60
954.95	225.82
955.25	225.75
955.55	225.82
955.84	225.76
956.14	225.77
956.44	225.84
956.73	225.77
957.03	225.81
957.32	225.77
957.62	225.80
957.92	225.94
958.21	225.81
958.51	226.43
958.81	226.48
959.10	226.50
959.40	226.70
959.69	226.76
959.99	226.89
960.29	226.87
960.58	226.87
960.88	227.08
961.17	226.97
961.47	227.03
961.76	227.00
962.06	227.12
962.36	227.06
962.65	227.08
962.95	227.06
963.24	227.01
963.54	227.00
963.83	227.06
964.13	226.97
964.42	226.95
964.72	226.60
965.01	226.60
965.31	226.55
965.60	226.36
965.90	226.66
966.19	226.53
966.49	226.52
966.78	226.51
967.08	226.44
967.37	226.50
967.67	226.44
967.96	226.57
968.26	226.49
968.55	226.51
968.85	226.45
969.14	226.48
969.43	226.46
969.73	226.47
970.02	226.38
970.32	226.42
970.61	226.34
970.91	226.13
971.20	226.02
971.49	226.06
971.79	226.24
972.08	225.87
972.38	225.95
972.67	225.93
972.96	226.03
973.26	225.90
973.55	225.97
973.85	225.91
974.14	225.84
974.43	225.87
974.73	225.80
975.02	225.83
975.31	225.75
975.61	225.80
975.90	225.75
976.19	225.75
976.49	225.76
976.78	225.78
977.07	225.77
977.37	225.80
977.66	225.80
977.95	225.61
978.24	225.65
978.54	225.70
978.83	225.66
979.12	225.63
979.42	225.72
979.71	225.71
980.00	225.67
980.29	225.62
980.59	225.52
980.88	225.65
981.17	225.54
981.46	225.62
981.76	225.57
982.05	225.75
982.34	225.80
982.63	225.81
982.93	225.86
983.22	226.05
983.51	226.07
983.80	226.23
984.09	226.31
984.39	226.30
984.68	226.26
984.97	226.35
985.26	226.29
985.55	226.31
985.85	226.14
986.14	226.26
986.43	226.39
986.72	226.41
987.01	226.27
987.30	226.33
987.59	226.30
987.89	226.35
988.18	226.21
988.47	226.18
988.76	226.12
989.05	226.06
989.34	225.93
989.63	226.11
989.92	225.97
990.22	225.96
990.51	225.95
990.80	225.90
991.09	225.94
991.38	225.97
991.67	225.87
991.96	225.83
992.25	225.86
992.54	225.75
992.83	225.77
993.12	225.75
993.41	225.84
993.70	225.99
993.99	226.07
994.28	226.16
994.58	226.24
994.87	226.15
995.16	226.14
995.45	226.11
995.74	225.83
996.03	225.84
996.32	225.87
996.61	225.98
996.90	225.92
997.19	225.87
997.48	225.88
997.77	225.89
998.06	226.00
998.34	225.94
998.63	225.99
998.92	226.05
999.21	226.19
999.50	226.18
999.79	226.01
1000.08	225.95
1000.37	225.96
1000.66	225.93
1000.95	226.08
1001.24	226.11
1001.53	226.25
1001.82	226.33
1002.11	226.28
1002.40	226.31
1002.68	226.41
1002.97	226.78
1003.26	226.68
1003.55	226.67
1003.84	226.68
1004.13	226.78
1004.42	226.73
1004.71	226.70
1004.99	226.64
1005.28	226.61
1005.57	226.54
1005.86	226.52
1006.15	226.53
1006.44	226.40
1006.72	226.47
1007.01	226.44
1007.30	226.48
1007.59	226.35
1007.88	226.33
1008.17	226.29
1008.45	226.26
1008.74	226.07
1009.03	225.87
1009.32	225.90
1009.60	225.85
1009.89	225.81
1010.18	225.65
1010.47	225.63
1010.76	225.62
1011.04	225.58
1011.33	225.65
1011.62	225.71
1011.91	225.80
1012.19	225.81
1012.48	225.89
1012.77	225.82
1013.05	226.01
1013.34	225.97
1013.63	225.87
1013.92	225.94
1014.20	225.95
1014.49	225.94
1014.78	226.01
1015.06	225.79
1015.35	225.77
1015.64	225.84
1015.92	225.87
1016.21	225.88
1016.50	225.91
1016.78	225.95
1017.07	226.00
1017.36	225.86
1017.64	225.80
1017.93	225.82
1018.22	225.72
1018.50	225.67
1018.79	225.63
1019.08	225.33
1019.36	225.42
1019.65	225.43
1019.93	225.50
1020.22	225.55
1020.51	225.78
1020.79	225.61
1021.08	224.35
1021.36	225.15
1021.65	225.25
1021.94	223.75
1022.22	227.10
1022.51	224.20
1022.79	228.00
1023.08	225.60
1023.36	231.20
1023.65	223.50
>>>>>End Processed Spectral Data<<<<<
