SpectraSuite Data File
++++++++++++++++++++++++++++++++++++
Date: Wed Sep 04 17:57:34 EDT 2013
User: lab3
Dark Spectrum Present: Yes
Reference Spectrum Present: No
Number of Sampled Component Spectra: 1
Spectrometers: USB2E7196
Integration Time (usec): 170000 (USB2E7196)
Spectra Averaged: 20 (USB2E7196)
Boxcar Smoothing: 10 (USB2E7196)
Correct for Electrical Dark: No (USB2E7196)
Strobe/Lamp Enabled: No (USB2E7196)
Correct for Detector Non-linearity: No (USB2E7196)
Correct for Stray Light: No (USB2E7196)
Number of Pixels in Processed Spectrum: 2048
>>>>>Begin Processed Spectral Data<<<<<
339.09	0.00
339.48	213.30
339.86	214.65
340.24	216.20
340.63	216.60
341.01	226.85
341.39	220.35
341.78	222.40
342.16	225.00
342.54	223.65
342.93	212.32
343.31	223.02
343.69	223.59
344.07	224.03
344.46	224.58
344.84	225.08
345.22	225.05
345.60	225.28
345.99	225.48
346.37	225.53
346.75	225.61
347.13	225.68
347.52	225.76
347.90	225.98
348.28	226.07
348.66	226.18
349.05	226.03
349.43	226.17
349.81	226.21
350.19	226.30
350.57	226.41
350.96	226.59
351.34	226.68
351.72	226.76
352.10	226.88
352.48	226.89
352.87	226.82
353.25	226.89
353.63	226.95
354.01	226.98
354.39	227.06
354.77	227.16
355.15	227.34
355.54	227.33
355.92	227.25
356.30	227.34
356.68	227.70
357.06	227.84
357.44	227.74
357.82	227.79
358.20	228.24
358.58	228.26
358.97	228.36
359.35	228.51
359.73	228.66
360.11	228.70
360.49	228.68
360.87	228.77
361.25	228.84
361.63	229.04
362.01	229.13
362.39	229.11
362.77	229.22
363.15	229.33
363.53	229.37
363.91	229.41
364.29	229.45
364.67	229.02
365.05	229.05
365.43	229.17
365.81	229.29
366.19	229.15
366.57	229.39
366.95	229.33
367.33	229.26
367.71	229.27
368.09	229.40
368.47	229.46
368.85	229.42
369.23	229.55
369.61	229.43
369.99	229.60
370.37	229.65
370.75	229.82
371.13	229.62
371.51	229.58
371.89	229.60
372.27	229.60
372.65	229.56
373.03	229.55
373.41	229.50
373.78	229.39
374.16	229.13
374.54	228.89
374.92	228.80
375.30	228.75
375.68	228.59
376.06	228.57
376.44	228.46
376.82	228.48
377.19	228.28
377.57	228.21
377.95	228.02
378.33	227.93
378.71	227.60
379.09	227.64
379.47	227.62
379.84	227.49
380.22	227.40
380.60	227.30
380.98	227.22
381.36	227.14
381.73	227.08
382.11	227.15
382.49	227.15
382.87	227.06
383.25	226.99
383.62	227.46
384.00	227.32
384.38	227.26
384.76	227.26
385.13	227.50
385.51	227.45
385.89	227.27
386.27	227.23
386.64	227.24
387.02	227.14
387.40	227.01
387.78	227.07
388.15	227.09
388.53	227.08
388.91	227.07
389.29	226.95
389.66	226.99
390.04	226.81
390.42	226.86
390.79	226.79
391.17	226.82
391.55	226.26
391.92	226.19
392.30	226.29
392.68	226.21
393.05	226.10
393.43	226.09
393.81	226.18
394.18	226.19
394.56	226.19
394.94	226.34
395.31	226.38
395.69	226.56
396.06	226.60
396.44	226.67
396.82	226.63
397.19	226.96
397.57	226.93
397.95	227.11
398.32	227.05
398.70	227.21
399.07	227.34
399.45	227.48
399.82	227.63
400.20	227.62
400.58	227.75
400.95	227.70
401.33	227.94
401.70	228.38
402.08	228.47
402.45	228.67
402.83	228.88
403.20	229.07
403.58	229.06
403.95	229.29
404.33	229.53
404.71	229.80
405.08	230.28
405.46	230.55
405.83	230.75
406.21	231.02
406.58	231.33
406.96	231.63
407.33	231.90
407.70	232.24
408.08	233.03
408.45	233.45
408.83	233.99
409.20	234.33
409.58	234.43
409.95	235.03
410.33	235.56
410.70	235.96
411.08	236.56
411.45	237.27
411.82	237.84
412.20	238.57
412.57	239.51
412.95	239.83
413.32	240.67
413.69	241.57
414.07	242.50
414.44	243.49
414.82	244.52
415.19	245.70
415.56	246.84
415.94	247.82
416.31	249.26
416.68	250.70
417.06	252.33
417.43	254.03
417.81	255.77
418.18	257.57
418.55	259.51
418.93	261.57
419.30	263.63
419.67	265.92
420.04	268.18
420.42	270.54
420.79	273.65
421.16	276.38
421.54	279.37
421.91	282.43
422.28	285.55
422.66	288.87
423.03	292.44
423.40	295.87
423.77	299.35
424.15	303.05
424.52	306.81
424.89	310.98
425.26	314.92
425.64	318.69
426.01	322.88
426.38	327.24
426.75	331.86
427.13	336.53
427.50	341.24
427.87	346.22
428.24	351.19
428.61	355.70
428.99	361.10
429.36	366.60
429.73	372.07
430.10	377.52
430.47	383.10
430.85	388.69
431.22	394.87
431.59	401.84
431.96	408.03
432.33	414.94
432.70	421.67
433.08	429.62
433.45	437.16
433.82	444.53
434.19	452.73
434.56	460.80
434.93	468.45
435.30	476.29
435.68	484.98
436.05	493.39
436.42	501.85
436.79	509.57
437.16	518.09
437.53	526.97
437.90	535.71
438.27	544.49
438.64	553.49
439.01	561.89
439.38	568.99
439.75	576.08
440.13	584.17
440.50	591.71
440.87	597.77
441.24	604.16
441.61	611.12
441.98	616.34
442.35	622.22
442.72	628.39
443.09	634.13
443.46	637.47
443.83	639.79
444.20	641.68
444.57	644.53
444.94	645.47
445.31	646.61
445.68	647.99
446.05	648.01
446.42	646.70
446.79	645.20
447.16	643.62
447.53	642.36
447.90	638.47
448.27	634.61
448.64	629.80
449.01	625.97
449.37	619.75
449.74	613.52
450.11	606.55
450.48	598.53
450.85	590.45
451.22	583.52
451.59	576.75
451.96	570.25
452.33	561.91
452.70	554.52
453.07	545.64
453.43	536.52
453.80	528.09
454.17	519.91
454.54	512.17
454.91	503.95
455.28	495.90
455.65	488.62
456.02	481.76
456.38	475.30
456.75	467.58
457.12	461.07
457.49	454.79
457.86	448.41
458.23	443.27
458.59	437.63
458.96	431.99
459.33	426.92
459.70	421.80
460.07	417.72
460.43	412.99
460.80	408.77
461.17	405.05
461.54	401.13
461.91	397.39
462.27	393.47
462.64	390.13
463.01	386.60
463.38	383.25
463.74	379.24
464.11	376.14
464.48	373.50
464.85	370.76
465.21	368.72
465.58	366.43
465.95	363.56
466.32	361.33
466.68	358.91
467.05	356.71
467.42	354.65
467.78	352.34
468.15	350.19
468.52	348.60
468.88	346.20
469.25	344.27
469.62	342.79
469.98	341.14
470.35	339.57
470.72	338.13
471.08	336.37
471.45	335.26
471.82	334.08
472.18	332.63
472.55	331.61
472.92	330.19
473.28	328.95
473.65	327.87
474.02	326.85
474.38	326.04
474.75	325.32
475.11	324.38
475.48	323.68
475.85	323.05
476.21	322.32
476.58	321.99
476.94	321.56
477.31	321.05
477.67	320.69
478.04	320.38
478.41	320.19
478.77	320.55
479.14	320.19
479.50	320.15
479.87	320.17
480.23	320.11
480.60	320.16
480.96	320.24
481.33	320.65
481.69	320.73
482.06	320.99
482.42	321.21
482.79	321.58
483.15	321.99
483.52	322.69
483.88	323.19
484.25	323.78
484.61	324.31
484.98	325.04
485.34	326.02
485.71	327.03
486.07	327.95
486.44	328.42
486.80	329.55
487.17	330.59
487.53	331.95
487.90	333.42
488.26	335.05
488.62	336.75
488.99	338.25
489.35	340.07
489.72	341.83
490.08	343.83
490.44	345.85
490.81	348.10
491.17	350.32
491.54	352.81
491.90	355.25
492.26	357.98
492.63	360.72
492.99	363.56
493.36	366.68
493.72	370.07
494.08	373.60
494.45	377.33
494.81	381.32
495.17	385.25
495.54	389.37
495.90	393.56
496.26	397.98
496.63	402.70
496.99	407.47
497.35	412.55
497.72	417.92
498.08	423.47
498.44	429.23
498.80	435.21
499.17	441.33
499.53	447.75
499.89	454.37
500.26	461.32
500.62	468.31
500.98	475.77
501.34	483.25
501.71	491.02
502.07	498.78
502.43	506.74
502.79	515.01
503.16	523.67
503.52	532.72
503.88	542.03
504.24	551.62
504.60	561.55
504.97	572.00
505.33	582.29
505.69	593.38
506.05	604.49
506.41	615.71
506.78	627.33
507.14	639.37
507.50	651.81
507.86	664.36
508.22	677.47
508.59	690.35
508.95	703.94
509.31	718.14
509.67	732.46
510.03	746.92
510.39	761.65
510.75	776.81
511.12	791.96
511.48	807.71
511.84	823.70
512.20	839.73
512.56	855.90
512.92	872.82
513.28	889.57
513.64	906.91
514.00	924.48
514.37	942.14
514.73	960.30
515.09	978.66
515.45	996.93
515.81	1015.26
516.17	1034.35
516.53	1053.14
516.89	1071.86
517.25	1091.47
517.61	1111.73
517.97	1132.23
518.33	1152.18
518.69	1172.67
519.05	1193.22
519.41	1213.76
519.77	1234.84
520.13	1255.71
520.49	1276.58
520.85	1298.99
521.21	1320.12
521.57	1341.65
521.93	1362.60
522.29	1383.99
522.65	1404.65
523.01	1425.91
523.37	1446.82
523.73	1467.65
524.09	1488.52
524.45	1509.29
524.81	1530.21
525.17	1551.02
525.53	1571.71
525.89	1592.61
526.25	1613.55
526.61	1633.58
526.97	1654.87
527.33	1676.32
527.68	1698.33
528.04	1719.68
528.40	1739.39
528.76	1760.53
529.12	1780.76
529.48	1801.76
529.84	1821.82
530.20	1843.10
530.56	1863.81
530.91	1884.76
531.27	1905.50
531.63	1925.92
531.99	1946.57
532.35	1966.55
532.71	1986.56
533.07	2007.18
533.42	2027.13
533.78	2046.75
534.14	2067.19
534.50	2086.04
534.86	2105.12
535.21	2122.55
535.57	2140.78
535.93	2158.72
536.29	2176.34
536.65	2194.83
537.00	2212.49
537.36	2230.31
537.72	2246.70
538.08	2263.68
538.44	2280.43
538.79	2296.91
539.15	2313.35
539.51	2329.40
539.87	2344.76
540.22	2359.05
540.58	2373.55
540.94	2386.92
541.29	2399.99
541.65	2412.36
542.01	2424.98
542.37	2435.76
542.72	2446.78
543.08	2457.88
543.44	2469.41
543.79	2479.26
544.15	2488.65
544.51	2498.79
544.87	2508.26
545.22	2517.26
545.58	2525.26
545.94	2532.44
546.29	2538.78
546.65	2545.07
547.01	2551.04
547.36	2556.76
547.72	2562.39
548.07	2566.44
548.43	2571.97
548.79	2576.67
549.14	2580.92
549.50	2584.96
549.86	2588.95
550.21	2593.23
550.57	2596.20
550.92	2597.38
551.28	2599.25
551.64	2602.02
551.99	2603.94
552.35	2605.53
552.70	2607.68
553.06	2609.35
553.41	2610.59
553.77	2612.49
554.13	2614.21
554.48	2615.20
554.84	2616.42
555.19	2617.70
555.55	2619.32
555.90	2618.46
556.26	2617.64
556.61	2616.12
556.97	2613.62
557.32	2612.87
557.68	2611.68
558.03	2610.03
558.39	2608.95
558.74	2608.02
559.10	2604.66
559.45	2600.91
559.81	2596.47
560.16	2591.17
560.52	2586.40
560.87	2581.97
561.23	2576.70
561.58	2570.89
561.94	2564.24
562.29	2557.01
562.64	2549.74
563.00	2541.34
563.35	2534.81
563.71	2528.23
564.06	2522.03
564.42	2516.10
564.77	2509.37
565.12	2501.49
565.48	2494.10
565.83	2486.07
566.19	2478.24
566.54	2470.64
566.89	2462.82
567.25	2455.59
567.60	2448.50
567.96	2441.21
568.31	2433.27
568.66	2424.50
569.02	2415.48
569.37	2407.37
569.72	2399.66
570.08	2390.43
570.43	2381.17
570.78	2372.49
571.14	2362.89
571.49	2352.55
571.84	2342.67
572.20	2331.63
572.55	2321.51
572.90	2310.49
573.26	2300.25
573.61	2288.92
573.96	2277.35
574.31	2265.54
574.67	2253.56
575.02	2240.62
575.37	2227.47
575.72	2214.30
576.08	2201.96
576.43	2189.24
576.78	2176.02
577.13	2162.15
577.49	2149.47
577.84	2137.38
578.19	2124.78
578.54	2112.15
578.90	2100.24
579.25	2087.72
579.60	2075.38
579.95	2062.33
580.30	2049.40
580.66	2036.35
581.01	2022.82
581.36	2009.19
581.71	1996.46
582.06	1983.26
582.42	1970.99
582.77	1958.28
583.12	1946.27
583.47	1934.27
583.82	1922.39
584.17	1910.33
584.53	1898.50
584.88	1885.47
585.23	1872.15
585.58	1858.13
585.93	1845.06
586.28	1831.80
586.63	1817.85
586.98	1803.46
587.34	1790.38
587.69	1776.98
588.04	1764.00
588.39	1751.85
588.74	1739.61
589.09	1727.31
589.44	1714.54
589.79	1702.39
590.14	1690.45
590.49	1678.34
590.84	1665.97
591.19	1654.02
591.54	1641.75
591.89	1629.72
592.25	1619.57
592.60	1608.32
592.95	1596.80
593.30	1584.85
593.65	1572.70
594.00	1560.77
594.35	1551.12
594.70	1539.11
595.05	1527.89
595.40	1515.77
595.75	1503.70
596.10	1492.24
596.45	1480.68
596.80	1469.75
597.15	1457.99
597.50	1446.16
597.85	1434.63
598.19	1422.77
598.54	1410.89
598.89	1399.60
599.24	1388.75
599.59	1377.14
599.94	1366.07
600.29	1355.72
600.64	1345.17
600.99	1334.47
601.34	1324.99
601.69	1313.57
602.04	1303.82
602.39	1294.09
602.74	1284.87
603.08	1275.43
603.43	1266.10
603.78	1256.18
604.13	1246.31
604.48	1236.63
604.83	1226.96
605.18	1216.96
605.53	1207.68
605.87	1198.49
606.22	1190.00
606.57	1180.58
606.92	1170.84
607.27	1161.93
607.62	1152.88
607.96	1144.30
608.31	1136.35
608.66	1127.64
609.01	1119.09
609.36	1110.42
609.70	1101.74
610.05	1093.19
610.40	1084.60
610.75	1075.73
611.10	1067.49
611.44	1059.09
611.79	1051.01
612.14	1043.15
612.49	1035.27
612.83	1027.51
613.18	1019.80
613.53	1011.76
613.88	1003.91
614.22	996.32
614.57	988.26
614.92	980.60
615.27	972.94
615.61	965.12
615.96	957.60
616.31	950.01
616.65	942.90
617.00	935.52
617.35	928.06
617.70	921.06
618.04	914.08
618.39	907.08
618.74	900.53
619.08	893.62
619.43	886.57
619.78	879.75
620.12	872.61
620.47	865.71
620.82	858.66
621.16	851.90
621.51	845.47
621.85	839.15
622.20	832.35
622.55	825.80
622.89	819.40
623.24	812.88
623.59	806.42
623.93	800.03
624.28	793.99
624.62	788.38
624.97	782.53
625.32	776.70
625.66	770.48
626.01	764.27
626.35	758.64
626.70	753.04
627.04	747.58
627.39	742.14
627.73	736.64
628.08	731.32
628.43	725.68
628.77	720.21
629.12	714.93
629.46	710.01
629.81	705.07
630.15	700.16
630.50	695.21
630.84	690.46
631.19	685.66
631.53	680.85
631.88	675.43
632.22	670.38
632.57	665.90
632.91	661.37
633.26	657.00
633.60	652.25
633.95	647.63
634.29	643.00
634.64	638.53
634.98	633.70
635.32	629.31
635.67	625.45
636.01	621.22
636.36	616.73
636.70	612.91
637.05	608.80
637.39	604.69
637.73	600.53
638.08	596.46
638.42	592.06
638.77	587.79
639.11	583.58
639.45	579.28
639.80	574.78
640.14	570.67
640.49	566.60
640.83	562.85
641.17	559.13
641.52	555.24
641.86	551.72
642.20	548.62
642.55	545.10
642.89	541.50
643.23	538.02
643.58	534.96
643.92	531.18
644.26	527.74
644.61	524.36
644.95	521.17
645.29	517.80
645.64	514.73
645.98	511.60
646.32	508.79
646.66	505.65
647.01	502.78
647.35	500.01
647.69	497.23
648.04	494.43
648.38	491.65
648.72	489.01
649.06	485.94
649.41	482.84
649.75	479.80
650.09	476.90
650.43	474.05
650.78	471.14
651.12	468.38
651.46	465.61
651.80	462.97
652.14	460.28
652.49	457.76
652.83	455.20
653.17	452.64
653.51	449.95
653.85	447.65
654.20	445.15
654.54	442.64
654.88	440.05
655.22	437.67
655.56	435.14
655.90	432.57
656.25	430.18
656.59	427.99
656.93	425.84
657.27	423.77
657.61	421.33
657.95	419.06
658.29	416.85
658.64	414.72
658.98	412.42
659.32	410.10
659.66	407.90
660.00	405.73
660.34	403.66
660.68	401.61
661.02	399.56
661.36	397.58
661.70	395.55
662.05	393.52
662.39	391.57
662.73	389.82
663.07	388.25
663.41	386.42
663.75	384.42
664.09	382.46
664.43	380.46
664.77	378.87
665.11	377.11
665.45	375.37
665.79	373.61
666.13	371.84
666.47	370.25
666.81	368.59
667.15	366.99
667.49	365.39
667.83	363.98
668.17	362.46
668.51	360.97
668.85	359.64
669.19	358.44
669.53	356.82
669.87	355.26
670.21	353.69
670.55	352.39
670.89	351.23
671.23	349.89
671.57	348.41
671.91	346.93
672.25	345.60
672.58	344.45
672.92	343.08
673.26	341.85
673.60	340.57
673.94	339.38
674.28	338.18
674.62	336.99
674.96	335.62
675.30	334.42
675.64	333.10
675.97	331.81
676.31	330.48
676.65	329.30
676.99	328.25
677.33	327.05
677.67	325.86
678.01	324.66
678.34	323.68
678.68	322.78
679.02	321.72
679.36	320.67
679.70	319.53
680.04	318.56
680.37	317.63
680.71	316.71
681.05	315.85
681.39	314.94
681.73	313.96
682.06	313.13
682.40	312.23
682.74	311.56
683.08	310.76
683.42	309.88
683.75	309.19
684.09	308.22
684.43	307.49
684.77	306.69
685.10	305.84
685.44	305.05
685.78	304.23
686.12	303.43
686.45	302.74
686.79	301.97
687.13	301.39
687.46	300.70
687.80	299.95
688.14	299.07
688.48	298.35
688.81	297.68
689.15	297.09
689.49	296.29
689.82	295.56
690.16	294.63
690.50	293.89
690.83	293.13
691.17	292.34
691.51	291.61
691.84	291.03
692.18	290.33
692.52	289.61
692.85	288.98
693.19	288.62
693.52	287.83
693.86	287.13
694.20	286.45
694.53	285.78
694.87	285.11
695.21	284.53
695.54	283.93
695.88	283.28
696.21	282.45
696.55	281.97
696.88	281.32
697.22	280.78
697.56	280.30
697.89	279.63
698.23	279.22
698.56	278.61
698.90	278.10
699.23	277.58
699.57	277.06
699.90	276.49
700.24	275.77
700.58	275.45
700.91	275.09
701.25	274.94
701.58	274.85
701.92	274.52
702.25	274.05
702.59	273.53
702.92	273.05
703.26	272.72
703.59	272.25
703.93	272.20
704.26	271.95
704.60	271.58
704.93	271.11
705.26	270.59
705.60	270.24
705.93	269.68
706.27	269.40
706.60	269.09
706.94	268.91
707.27	268.50
707.61	268.15
707.94	267.70
708.27	266.95
708.61	266.16
708.94	265.67
709.28	265.30
709.61	264.88
709.94	264.57
710.28	264.17
710.61	263.76
710.95	263.05
711.28	262.88
711.61	262.41
711.95	262.22
712.28	261.88
712.61	261.45
712.95	261.34
713.28	261.15
713.61	260.69
713.95	260.15
714.28	259.80
714.61	259.33
714.95	258.91
715.28	258.47
715.61	258.07
715.95	257.79
716.28	257.37
716.61	257.16
716.95	256.76
717.28	256.45
717.61	256.19
717.94	255.86
718.28	255.24
718.61	254.95
718.94	254.54
719.27	254.28
719.61	254.17
719.94	253.80
720.27	253.28
720.60	253.01
720.94	252.69
721.27	252.48
721.60	252.29
721.93	252.14
722.27	252.13
722.60	252.02
722.93	251.75
723.26	251.59
723.59	251.33
723.93	251.20
724.26	250.98
724.59	250.68
724.92	250.56
725.25	250.47
725.59	250.29
725.92	250.17
726.25	249.94
726.58	249.65
726.91	249.42
727.24	249.28
727.57	249.11
727.91	248.92
728.24	248.77
728.57	248.54
728.90	248.35
729.23	248.01
729.56	248.02
729.89	247.85
730.22	247.67
730.55	247.48
730.89	247.30
731.22	247.17
731.55	247.03
731.88	246.81
732.21	246.51
732.54	246.32
732.87	246.24
733.20	246.15
733.53	246.03
733.86	245.87
734.19	245.68
734.52	245.62
734.85	245.79
735.18	245.60
735.51	245.64
735.84	245.46
736.17	245.39
736.50	245.01
736.83	245.48
737.16	245.30
737.49	245.17
737.82	244.94
738.15	244.82
738.48	244.69
738.81	244.55
739.14	244.38
739.47	244.23
739.80	244.00
740.13	243.92
740.46	243.73
740.79	243.55
741.12	243.35
741.45	243.12
741.78	242.73
742.11	242.72
742.44	242.45
742.77	242.45
743.10	242.26
743.43	242.11
743.75	241.38
744.08	241.91
744.41	241.78
744.74	241.68
745.07	241.49
745.40	241.50
745.73	241.56
746.06	241.56
746.39	241.47
746.71	241.26
747.04	241.04
747.37	240.89
747.70	240.88
748.03	240.86
748.36	240.80
748.68	240.70
749.01	240.47
749.34	240.30
749.67	240.19
750.00	240.21
750.33	240.40
750.65	240.39
750.98	239.68
751.31	239.58
751.64	239.49
751.97	239.59
752.29	239.34
752.62	239.02
752.95	238.85
753.28	238.64
753.60	238.55
753.93	238.51
754.26	238.42
754.59	238.19
754.91	238.05
755.24	237.98
755.57	237.93
755.90	237.81
756.22	237.72
756.55	237.54
756.88	237.27
757.20	236.86
757.53	236.57
757.86	236.46
758.19	236.41
758.51	236.40
758.84	236.06
759.17	236.00
759.49	235.91
759.82	236.04
760.15	235.97
760.47	235.85
760.80	235.68
761.13	235.71
761.45	235.58
761.78	235.49
762.11	235.39
762.43	235.19
762.76	235.06
763.08	235.05
763.41	234.93
763.74	234.89
764.06	234.84
764.39	234.78
764.71	234.68
765.04	234.53
765.37	234.34
765.69	234.28
766.02	234.23
766.34	234.12
766.67	233.83
767.00	233.90
767.32	234.14
767.65	234.35
767.97	234.23
768.30	234.24
768.62	234.14
768.95	233.97
769.27	233.90
769.60	233.94
769.92	233.76
770.25	233.64
770.57	233.56
770.90	233.47
771.22	233.46
771.55	233.46
771.87	233.40
772.20	233.23
772.52	233.59
772.85	234.07
773.17	234.04
773.50	233.99
773.82	233.89
774.15	233.57
774.47	233.21
774.80	233.14
775.12	233.00
775.45	232.95
775.77	233.01
776.09	233.07
776.42	233.05
776.74	233.17
777.07	233.11
777.39	233.10
777.72	233.05
778.04	232.93
778.36	232.85
778.69	232.79
779.01	232.89
779.33	232.42
779.66	231.82
779.98	231.68
780.31	231.71
780.63	231.79
780.95	231.87
781.28	231.85
781.60	231.72
781.92	231.73
782.25	231.70
782.57	231.64
782.89	231.51
783.22	231.44
783.54	231.29
783.86	231.30
784.19	231.16
784.51	231.27
784.83	231.23
785.16	231.17
785.48	231.20
785.80	231.18
786.12	231.15
786.45	231.13
786.77	231.20
787.09	231.06
787.42	230.86
787.74	230.83
788.06	230.80
788.38	230.75
788.71	230.75
789.03	230.72
789.35	230.67
789.67	230.55
789.99	230.51
790.32	230.44
790.64	230.44
790.96	230.82
791.28	230.62
791.61	230.57
791.93	230.59
792.25	230.49
792.57	230.89
792.89	230.79
793.21	230.81
793.54	230.69
793.86	230.60
794.18	230.67
794.50	230.51
794.82	230.39
795.14	230.48
795.47	230.46
795.79	230.43
796.11	230.35
796.43	230.34
796.75	230.35
797.07	230.33
797.39	230.35
797.71	229.99
798.04	230.03
798.36	230.02
798.68	230.00
799.00	230.00
799.32	229.61
799.64	229.73
799.96	229.70
800.28	229.74
800.60	229.72
800.92	229.73
801.24	229.77
801.56	229.82
801.89	229.76
802.21	229.77
802.53	229.68
802.85	229.77
803.17	230.01
803.49	229.85
803.81	229.85
804.13	229.73
804.45	229.63
804.77	229.61
805.09	229.63
805.41	229.59
805.73	229.49
806.05	229.32
806.37	229.23
806.69	229.12
807.01	229.16
807.33	229.24
807.65	228.99
807.97	229.11
808.28	229.13
808.60	229.06
808.92	228.95
809.24	229.25
809.56	229.12
809.88	228.88
810.20	228.89
810.52	228.96
810.84	228.90
811.16	228.82
811.48	228.80
811.80	228.93
812.12	228.82
812.43	228.97
812.75	229.01
813.07	228.93
813.39	228.99
813.71	228.87
814.03	228.84
814.35	228.98
814.67	228.81
814.98	228.68
815.30	228.70
815.62	228.63
815.94	228.26
816.26	228.47
816.58	228.47
816.89	228.44
817.21	228.29
817.53	228.36
817.85	228.39
818.17	228.36
818.48	228.17
818.80	228.32
819.12	228.20
819.44	228.11
819.76	228.03
820.07	228.00
820.39	228.01
820.71	227.99
821.03	227.93
821.34	227.89
821.66	228.01
821.98	228.02
822.30	228.04
822.61	228.31
822.93	228.04
823.25	227.92
823.57	227.89
823.88	227.95
824.20	227.91
824.52	227.98
824.83	227.90
825.15	227.85
825.47	227.75
825.79	227.75
826.10	227.77
826.42	227.80
826.74	227.81
827.05	227.76
827.37	227.74
827.69	227.68
828.00	227.76
828.32	227.72
828.64	227.70
828.95	227.92
829.27	227.80
829.58	227.81
829.90	227.98
830.22	227.97
830.53	227.90
830.85	227.86
831.17	227.73
831.48	227.80
831.80	227.81
832.11	227.83
832.43	227.79
832.75	227.73
833.06	228.05
833.38	227.90
833.69	227.89
834.01	227.93
834.32	227.88
834.64	227.73
834.96	227.78
835.27	227.74
835.59	227.56
835.90	227.52
836.22	227.50
836.53	227.42
836.85	227.51
837.16	227.98
837.48	228.00
837.79	228.20
838.11	228.15
838.42	228.16
838.74	228.24
839.05	228.17
839.37	228.18
839.68	227.85
840.00	227.89
840.31	227.96
840.63	227.96
840.94	227.93
841.26	227.92
841.57	227.84
841.88	227.93
842.20	227.99
842.51	227.89
842.83	227.90
843.14	228.32
843.46	228.26
843.77	228.00
844.08	227.92
844.40	227.73
844.71	227.75
845.03	227.66
845.34	227.59
845.65	227.65
845.97	227.67
846.28	227.65
846.60	227.72
846.91	227.65
847.22	227.64
847.54	227.79
847.85	227.81
848.16	227.81
848.48	227.76
848.79	227.89
849.10	227.97
849.42	227.99
849.73	227.53
850.04	227.51
850.36	227.31
850.67	227.43
850.98	227.45
851.30	227.52
851.61	227.54
851.92	227.52
852.23	227.60
852.55	227.64
852.86	227.69
853.17	227.68
853.49	227.76
853.80	227.78
854.11	227.75
854.42	227.80
854.74	227.73
855.05	227.63
855.36	227.39
855.67	227.40
855.99	227.46
856.30	228.04
856.61	227.96
856.92	228.00
857.23	227.96
857.55	227.91
857.86	227.82
858.17	227.93
858.48	227.90
858.79	227.79
859.11	227.78
859.42	227.73
859.73	227.67
860.04	227.61
860.35	227.49
860.66	227.37
860.98	227.34
861.29	227.40
861.60	227.35
861.91	227.34
862.22	227.25
862.53	227.07
862.84	226.43
863.16	226.55
863.47	226.48
863.78	226.46
864.09	226.51
864.40	226.53
864.71	226.52
865.02	226.53
865.33	226.52
865.64	226.42
865.95	226.41
866.27	226.70
866.58	226.69
866.89	226.77
867.20	226.78
867.51	226.68
867.82	226.60
868.13	226.85
868.44	226.85
868.75	226.89
869.06	226.95
869.37	227.03
869.68	226.92
869.99	226.94
870.30	226.94
870.61	226.99
870.92	226.90
871.23	226.85
871.54	226.88
871.85	226.98
872.16	227.02
872.47	226.96
872.78	226.65
873.09	226.66
873.40	226.59
873.71	226.65
874.02	226.72
874.33	226.74
874.64	226.59
874.95	226.66
875.26	226.64
875.56	226.63
875.87	226.66
876.18	226.65
876.49	227.17
876.80	227.10
877.11	227.00
877.42	227.08
877.73	227.14
878.04	227.08
878.35	226.98
878.66	227.02
878.96	227.08
879.27	227.05
879.58	227.05
879.89	227.06
880.20	227.12
880.51	227.03
880.82	227.04
881.12	227.01
881.43	226.93
881.74	226.84
882.05	226.81
882.36	226.81
882.67	226.86
882.97	226.34
883.28	226.38
883.59	226.35
883.90	226.44
884.21	226.45
884.51	226.50
884.82	226.51
885.13	226.54
885.44	226.52
885.74	226.55
886.05	226.51
886.36	226.47
886.67	226.37
886.98	226.65
887.28	226.69
887.59	226.76
887.90	226.68
888.20	226.72
888.51	226.85
888.82	226.82
889.13	226.80
889.43	227.23
889.74	227.23
890.05	227.24
890.35	227.07
890.66	226.95
890.97	226.88
891.28	226.87
891.58	226.93
891.89	226.93
892.20	226.85
892.50	226.81
892.81	226.83
893.12	226.84
893.42	226.59
893.73	226.59
894.04	226.63
894.34	226.74
894.65	226.69
894.95	226.59
895.26	226.62
895.57	226.89
895.87	226.36
896.18	226.39
896.48	226.41
896.79	226.51
897.10	226.58
897.40	226.58
897.71	226.58
898.01	226.46
898.32	226.50
898.63	226.57
898.93	226.58
899.24	226.57
899.54	226.47
899.85	226.50
900.15	226.45
900.46	226.36
900.76	226.43
901.07	226.44
901.38	226.42
901.68	226.45
901.99	226.17
902.29	226.22
902.60	226.19
902.90	226.16
903.21	226.13
903.51	226.06
903.82	226.20
904.12	226.27
904.43	226.31
904.73	226.25
905.03	226.24
905.34	226.77
905.64	226.77
905.95	226.75
906.25	226.77
906.56	226.83
906.86	226.81
907.17	226.72
907.47	226.76
907.77	226.74
908.08	226.62
908.38	226.72
908.69	226.80
908.99	226.85
909.30	226.94
909.60	226.96
909.90	227.04
910.21	226.83
910.51	226.65
910.81	226.65
911.12	226.73
911.42	226.72
911.73	226.19
912.03	226.29
912.33	226.44
912.64	226.46
912.94	226.40
913.24	226.34
913.55	226.32
913.85	226.31
914.15	226.50
914.46	226.50
914.76	226.37
915.06	226.33
915.37	226.31
915.67	226.23
915.97	226.25
916.27	226.21
916.58	226.29
916.88	226.36
917.18	226.34
917.49	226.67
917.79	226.69
918.09	226.78
918.39	226.81
918.70	226.82
919.00	226.84
919.30	227.03
919.60	227.06
919.91	227.04
920.21	227.03
920.51	226.85
920.81	226.91
921.12	227.05
921.42	227.05
921.72	227.04
922.02	227.08
922.32	227.06
922.63	227.01
922.93	227.30
923.23	227.35
923.53	227.30
923.83	226.98
924.13	227.03
924.44	227.08
924.74	227.19
925.04	227.25
925.34	227.15
925.64	227.00
925.94	227.01
926.24	227.30
926.55	227.33
926.85	227.42
927.15	227.37
927.45	227.33
927.75	227.30
928.05	227.32
928.35	227.31
928.65	227.43
928.95	227.48
929.26	227.29
929.56	227.36
929.86	227.45
930.16	227.41
930.46	227.37
930.76	227.35
931.06	227.11
931.36	227.01
931.66	227.18
931.96	227.21
932.26	227.26
932.56	227.00
932.86	226.97
933.16	226.93
933.46	226.94
933.76	226.86
934.06	227.00
934.36	227.18
934.66	227.10
934.96	227.03
935.26	227.09
935.56	227.14
935.86	227.01
936.16	226.92
936.46	226.86
936.76	226.78
937.06	226.66
937.36	226.72
937.66	226.76
937.96	226.70
938.26	226.60
938.56	226.52
938.86	226.56
939.16	226.71
939.46	226.77
939.76	226.74
940.06	226.76
940.35	226.68
940.65	226.39
940.95	226.46
941.25	226.33
941.55	226.20
941.85	226.20
942.15	226.28
942.45	226.43
942.75	226.47
943.04	226.54
943.34	226.65
943.64	226.57
943.94	226.44
944.24	226.40
944.54	226.46
944.84	226.51
945.13	226.45
945.43	226.32
945.73	226.34
946.03	226.34
946.33	226.31
946.62	226.18
946.92	226.26
947.22	226.31
947.52	226.38
947.82	226.46
948.11	226.30
948.41	226.21
948.71	226.09
949.01	226.10
949.31	226.06
949.60	226.04
949.90	226.14
950.20	226.12
950.50	226.12
950.79	226.07
951.09	226.14
951.39	226.12
951.69	226.09
951.98	226.11
952.28	226.17
952.58	226.17
952.87	226.23
953.17	226.26
953.47	226.19
953.76	226.19
954.06	226.08
954.36	226.08
954.66	226.09
954.95	226.23
955.25	226.19
955.55	226.22
955.84	226.24
956.14	226.33
956.44	226.36
956.73	226.34
957.03	226.45
957.32	226.47
957.62	226.48
957.92	226.58
958.21	226.52
958.51	227.00
958.81	227.09
959.10	227.19
959.40	227.30
959.69	227.32
959.99	227.39
960.29	227.42
960.58	227.47
960.88	227.62
961.17	227.51
961.47	227.60
961.76	227.55
962.06	227.55
962.36	227.42
962.65	227.47
962.95	227.42
963.24	227.36
963.54	227.38
963.83	227.40
964.13	227.33
964.42	227.26
964.72	226.90
965.01	226.85
965.31	226.75
965.60	226.59
965.90	226.90
966.19	226.77
966.49	226.83
966.78	226.75
967.08	226.75
967.37	226.80
967.67	226.80
967.96	226.85
968.26	226.83
968.55	226.91
968.85	226.93
969.14	226.96
969.43	226.90
969.73	226.85
970.02	226.83
970.32	226.78
970.61	226.76
970.91	226.58
971.20	226.46
971.49	226.52
971.79	226.60
972.08	226.25
972.38	226.33
972.67	226.29
972.96	226.36
973.26	226.23
973.55	226.32
973.85	226.26
974.14	226.27
974.43	226.27
974.73	226.19
975.02	226.14
975.31	226.11
975.61	226.05
975.90	225.93
976.19	225.93
976.49	226.02
976.78	226.10
977.07	226.13
977.37	226.23
977.66	226.17
977.95	226.13
978.24	226.12
978.54	226.18
978.83	226.16
979.12	226.16
979.42	226.15
979.71	226.05
980.00	226.02
980.29	226.04
980.59	225.90
980.88	226.00
981.17	225.96
981.46	225.98
981.76	226.01
982.05	226.19
982.34	226.24
982.63	226.20
982.93	226.18
983.22	226.31
983.51	226.31
983.80	226.40
984.09	226.46
984.39	226.46
984.68	226.38
984.97	226.42
985.26	226.40
985.55	226.51
985.85	226.44
986.14	226.50
986.43	226.52
986.72	226.54
987.01	226.38
987.30	226.40
987.59	226.38
987.89	226.43
988.18	226.26
988.47	226.19
988.76	226.19
989.05	226.14
989.34	226.03
989.63	226.18
989.92	226.13
990.22	226.10
990.51	226.04
990.80	226.03
991.09	226.05
991.38	226.11
991.67	226.02
991.96	226.02
992.25	226.04
992.54	226.00
992.83	226.01
993.12	226.07
993.41	226.15
993.70	226.36
993.99	226.49
994.28	226.56
994.58	226.63
994.87	226.55
995.16	226.56
995.45	226.57
995.74	226.43
996.03	226.48
996.32	226.50
996.61	226.57
996.90	226.58
997.19	226.57
997.48	226.56
997.77	226.44
998.06	226.43
998.34	226.39
998.63	226.39
998.92	226.35
999.21	226.37
999.50	226.38
999.79	226.17
1000.08	226.04
1000.37	226.05
1000.66	225.97
1000.95	226.07
1001.24	226.09
1001.53	226.11
1001.82	226.03
1002.11	225.98
1002.40	225.99
1002.68	226.12
1002.97	226.43
1003.26	226.31
1003.55	226.24
1003.84	226.33
1004.13	226.50
1004.42	226.42
1004.71	226.40
1004.99	226.41
1005.28	226.56
1005.57	226.50
1005.86	226.45
1006.15	226.47
1006.44	226.45
1006.72	226.47
1007.01	226.42
1007.30	226.41
1007.59	226.38
1007.88	226.43
1008.17	226.35
1008.45	226.32
1008.74	226.16
1009.03	225.90
1009.32	225.88
1009.60	225.91
1009.89	225.86
1010.18	225.63
1010.47	225.65
1010.76	225.71
1011.04	225.71
1011.33	225.71
1011.62	225.69
1011.91	225.71
1012.19	225.76
1012.48	225.66
1012.77	225.70
1013.05	225.95
1013.34	225.95
1013.63	225.90
1013.92	225.87
1014.20	225.85
1014.49	225.82
1014.78	225.84
1015.06	225.76
1015.35	225.83
1015.64	225.85
1015.92	225.99
1016.21	226.02
1016.50	226.03
1016.78	226.02
1017.07	226.07
1017.36	225.92
1017.64	225.88
1017.93	225.96
1018.22	225.88
1018.50	225.92
1018.79	225.82
1019.08	225.58
1019.36	225.58
1019.65	225.56
1019.93	225.72
1020.22	225.73
1020.51	225.95
1020.79	225.88
1021.08	225.30
1021.36	224.55
1021.65	224.75
1021.94	225.75
1022.22	225.65
1022.51	225.15
1022.79	228.25
1023.08	224.75
1023.36	230.40
1023.65	224.20
>>>>>End Processed Spectral Data<<<<<
