SpectraSuite Data File
++++++++++++++++++++++++++++++++++++
Date: Wed Sep 04 18:00:10 EDT 2013
User: lab3
Dark Spectrum Present: Yes
Reference Spectrum Present: No
Number of Sampled Component Spectra: 1
Spectrometers: USB2E7196
Integration Time (usec): 170000 (USB2E7196)
Spectra Averaged: 20 (USB2E7196)
Boxcar Smoothing: 10 (USB2E7196)
Correct for Electrical Dark: No (USB2E7196)
Strobe/Lamp Enabled: No (USB2E7196)
Correct for Detector Non-linearity: No (USB2E7196)
Correct for Stray Light: No (USB2E7196)
Number of Pixels in Processed Spectrum: 2048
>>>>>Begin Processed Spectral Data<<<<<
339.09	0.00
339.48	213.55
339.86	215.70
340.24	215.20
340.63	217.10
341.01	226.55
341.39	219.95
341.78	223.00
342.16	223.10
342.54	222.95
342.93	212.50
343.31	223.20
343.69	223.68
344.07	224.04
344.46	224.64
344.84	225.12
345.22	225.02
345.60	225.33
345.99	225.49
346.37	225.62
346.75	225.70
347.13	225.73
347.52	225.84
347.90	226.09
348.28	226.05
348.66	226.24
349.05	226.11
349.43	226.18
349.81	226.22
350.19	226.25
350.57	226.35
350.96	226.44
351.34	226.55
351.72	226.70
352.10	226.86
352.48	226.80
352.87	226.73
353.25	226.92
353.63	226.98
354.01	227.03
354.39	227.07
354.77	227.20
355.15	227.35
355.54	227.33
355.92	227.19
356.30	227.30
356.68	227.67
357.06	227.77
357.44	227.76
357.82	227.84
358.20	228.36
358.58	228.39
358.97	228.45
359.35	228.59
359.73	228.72
360.11	228.81
360.49	228.93
360.87	229.02
361.25	229.04
361.63	229.21
362.01	229.24
362.39	229.35
362.77	229.42
363.15	229.40
363.53	229.45
363.91	229.50
364.29	229.54
364.67	229.07
365.05	229.08
365.43	229.17
365.81	229.23
366.19	229.03
366.57	229.30
366.95	229.30
367.33	229.22
367.71	229.23
368.09	229.29
368.47	229.23
368.85	229.27
369.23	229.34
369.61	229.19
369.99	229.36
370.37	229.35
370.75	229.61
371.13	229.55
371.51	229.53
371.89	229.57
372.27	229.50
372.65	229.52
373.03	229.56
373.41	229.50
373.78	229.44
374.16	229.21
374.54	228.96
374.92	228.85
375.30	228.87
375.68	228.75
376.06	228.70
376.44	228.65
376.82	228.62
377.19	228.55
377.57	228.49
377.95	228.22
378.33	228.14
378.71	227.69
379.09	227.68
379.47	227.70
379.84	227.56
380.22	227.50
380.60	227.38
380.98	227.25
381.36	227.12
381.73	226.94
382.11	226.93
382.49	226.85
382.87	226.77
383.25	226.63
383.62	227.13
384.00	226.97
384.38	226.92
384.76	226.94
385.13	227.02
385.51	226.97
385.89	226.95
386.27	226.93
386.64	227.01
387.02	226.92
387.40	226.80
387.78	226.88
388.15	226.85
388.53	226.75
388.91	226.78
389.29	226.75
389.66	226.80
390.04	226.70
390.42	226.80
390.79	226.82
391.17	226.81
391.55	226.30
391.92	226.32
392.30	226.36
392.68	226.28
393.05	226.24
393.43	226.32
393.81	226.35
394.18	226.26
394.56	226.32
394.94	226.40
395.31	226.42
395.69	226.55
396.06	226.62
396.44	226.74
396.82	226.74
397.19	227.07
397.57	227.07
397.95	227.19
398.32	227.06
398.70	227.20
399.07	227.35
399.45	227.43
399.82	227.47
400.20	227.52
400.58	227.58
400.95	227.50
401.33	227.60
401.70	228.10
402.08	228.35
402.45	228.41
402.83	228.72
403.20	228.83
403.58	228.91
403.95	229.14
404.33	229.47
404.71	229.65
405.08	230.09
405.46	230.42
405.83	230.69
406.21	230.96
406.58	231.15
406.96	231.45
407.33	231.75
407.70	232.22
408.08	233.07
408.45	233.47
408.83	234.01
409.20	234.44
409.58	234.62
409.95	235.12
410.33	235.74
410.70	236.12
411.08	236.81
411.45	237.42
411.82	238.02
412.20	238.72
412.57	239.79
412.95	240.18
413.32	241.09
413.69	241.94
414.07	242.91
414.44	243.97
414.82	245.07
415.19	246.28
415.56	247.41
415.94	248.30
416.31	249.82
416.68	251.27
417.06	252.91
417.43	254.51
417.81	256.24
418.18	258.05
418.55	260.00
418.93	262.03
419.30	264.12
419.67	266.40
420.04	268.66
420.42	270.89
420.79	273.94
421.16	276.76
421.54	279.78
421.91	282.84
422.28	286.01
422.66	289.26
423.03	292.77
423.40	296.09
423.77	299.72
424.15	303.24
424.52	307.04
424.89	311.17
425.26	315.20
425.64	318.96
426.01	323.16
426.38	327.57
426.75	332.17
427.13	336.84
427.50	341.62
427.87	346.63
428.24	351.71
428.61	356.29
428.99	361.55
429.36	367.06
429.73	372.59
430.10	378.03
430.47	383.70
430.85	389.30
431.22	395.67
431.59	402.44
431.96	408.79
432.33	415.66
432.70	422.37
433.08	430.32
433.45	437.83
433.82	445.25
434.19	453.51
434.56	461.66
434.93	469.41
435.30	477.21
435.68	485.91
436.05	494.25
436.42	502.57
436.79	510.24
437.16	518.60
437.53	527.49
437.90	536.29
438.27	545.00
438.64	553.99
439.01	562.26
439.38	569.56
439.75	576.84
440.13	584.95
440.50	592.52
440.87	598.72
441.24	605.22
441.61	612.20
441.98	617.46
442.35	623.30
442.72	629.41
443.09	635.35
443.46	638.66
443.83	641.15
444.20	643.10
444.57	645.79
444.94	646.98
445.31	648.04
445.68	649.44
446.05	649.57
446.42	648.18
446.79	646.75
447.16	645.08
447.53	643.70
447.90	640.10
448.27	636.51
448.64	631.39
449.01	627.53
449.37	621.36
449.74	615.05
450.11	608.09
450.48	600.17
450.85	592.00
451.22	585.16
451.59	578.43
451.96	572.08
452.33	564.05
452.70	556.65
453.07	547.92
453.43	538.61
453.80	530.16
454.17	522.03
454.54	514.30
454.91	506.04
455.28	497.97
455.65	490.45
456.02	483.36
456.38	476.98
456.75	469.28
457.12	462.67
457.49	456.40
457.86	449.97
458.23	444.74
458.59	438.98
458.96	433.09
459.33	427.95
459.70	422.80
460.07	418.57
460.43	413.83
460.80	409.69
461.17	405.99
461.54	402.00
461.91	398.30
462.27	394.35
462.64	391.03
463.01	387.41
463.38	384.01
463.74	380.02
464.11	376.96
464.48	374.28
464.85	371.48
465.21	369.27
465.58	366.96
465.95	364.19
466.32	361.94
466.68	359.68
467.05	357.38
467.42	355.17
467.78	352.81
468.15	350.67
468.52	348.94
468.88	346.65
469.25	344.57
469.62	343.10
469.98	341.44
470.35	339.90
470.72	338.49
471.08	336.74
471.45	335.50
471.82	334.23
472.18	332.72
472.55	331.73
472.92	330.45
473.28	329.35
473.65	328.12
474.02	327.04
474.38	326.17
474.75	325.48
475.11	324.56
475.48	324.00
475.85	323.32
476.21	322.57
476.58	322.10
476.94	321.76
477.31	321.19
477.67	320.69
478.04	320.35
478.41	320.09
478.77	320.34
479.14	320.09
479.50	319.93
479.87	320.03
480.23	319.99
480.60	319.83
480.96	319.82
481.33	320.24
481.69	320.50
482.06	320.76
482.42	320.93
482.79	321.38
483.15	321.80
483.52	322.41
483.88	322.92
484.25	323.50
484.61	324.19
484.98	324.86
485.34	325.88
485.71	326.77
486.07	327.78
486.44	328.45
486.80	329.44
487.17	330.59
487.53	331.95
487.90	333.33
488.26	335.13
488.62	336.92
488.99	338.46
489.35	340.17
489.72	342.00
490.08	344.00
490.44	346.03
490.81	348.20
491.17	350.45
491.54	352.98
491.90	355.49
492.26	358.17
492.63	361.00
492.99	363.95
493.36	367.16
493.72	370.65
494.08	374.08
494.45	377.92
494.81	381.85
495.17	385.72
495.54	389.90
495.90	394.12
496.26	398.50
496.63	403.20
496.99	408.10
497.35	413.12
497.72	418.41
498.08	423.96
498.44	429.78
498.80	435.76
499.17	441.94
499.53	448.33
499.89	455.01
500.26	461.90
500.62	468.94
500.98	476.34
501.34	483.71
501.71	491.61
502.07	499.45
502.43	507.71
502.79	516.10
503.16	524.81
503.52	533.89
503.88	543.08
504.24	552.65
504.60	562.78
504.97	573.13
505.33	583.70
505.69	594.71
506.05	605.79
506.41	617.19
506.78	628.82
507.14	640.96
507.50	653.36
507.86	666.01
508.22	679.02
508.59	692.15
508.95	705.84
509.31	719.96
509.67	734.33
510.03	748.59
510.39	763.46
510.75	778.57
511.12	793.84
511.48	809.42
511.84	825.39
512.20	841.17
512.56	857.43
512.92	873.99
513.28	890.72
513.64	907.94
514.00	925.41
514.37	943.34
514.73	961.22
515.09	979.48
515.45	998.08
515.81	1016.42
516.17	1035.21
516.53	1054.10
516.89	1072.77
517.25	1092.03
517.61	1112.13
517.97	1132.60
518.33	1152.75
518.69	1172.89
519.05	1193.58
519.41	1214.27
519.77	1235.61
520.13	1256.52
520.49	1277.41
520.85	1299.95
521.21	1321.15
521.57	1342.56
521.93	1363.21
522.29	1384.90
522.65	1405.46
523.01	1426.36
523.37	1447.32
523.73	1468.50
524.09	1488.98
524.45	1510.00
524.81	1531.06
525.17	1551.74
525.53	1571.95
525.89	1592.71
526.25	1613.84
526.61	1634.49
526.97	1655.43
527.33	1676.62
527.68	1698.73
528.04	1720.28
528.40	1740.06
528.76	1761.45
529.12	1782.14
529.48	1803.14
529.84	1823.20
530.20	1844.59
530.56	1865.44
530.91	1886.61
531.27	1907.14
531.63	1928.00
531.99	1948.63
532.35	1968.91
532.71	1989.23
533.07	2010.02
533.42	2030.43
533.78	2050.32
534.14	2070.35
534.50	2089.66
534.86	2108.73
535.21	2126.37
535.57	2144.87
535.93	2162.61
536.29	2180.39
536.65	2198.54
537.00	2216.45
537.36	2234.19
537.72	2250.82
538.08	2268.07
538.44	2284.94
538.79	2301.57
539.15	2318.29
539.51	2333.76
539.87	2348.95
540.22	2363.68
540.58	2378.29
540.94	2391.70
541.29	2404.33
541.65	2417.00
542.01	2429.55
542.37	2440.40
542.72	2451.20
543.08	2462.20
543.44	2473.92
543.79	2484.15
544.15	2493.68
544.51	2503.74
544.87	2513.53
545.22	2522.55
545.58	2530.45
545.94	2537.64
546.29	2544.12
546.65	2550.21
547.01	2556.33
547.36	2562.24
547.72	2567.49
548.07	2571.45
548.43	2576.87
548.79	2581.66
549.14	2585.75
549.50	2590.11
549.86	2594.47
550.21	2598.72
550.57	2602.04
550.92	2603.48
551.28	2604.55
551.64	2607.38
551.99	2609.23
552.35	2610.82
552.70	2612.76
553.06	2614.46
553.41	2615.83
553.77	2617.52
554.13	2619.78
554.48	2621.36
554.84	2622.61
555.19	2624.04
555.55	2625.95
555.90	2624.99
556.26	2624.73
556.61	2623.24
556.97	2621.18
557.32	2620.42
557.68	2619.14
558.03	2617.64
558.39	2616.61
558.74	2616.09
559.10	2612.72
559.45	2609.46
559.81	2604.80
560.16	2599.59
560.52	2594.62
560.87	2590.13
561.23	2585.05
561.58	2578.45
561.94	2571.85
562.29	2564.47
562.64	2557.44
563.00	2549.01
563.35	2543.06
563.71	2536.22
564.06	2530.19
564.42	2523.19
564.77	2516.42
565.12	2508.87
565.48	2501.01
565.83	2493.28
566.19	2485.11
566.54	2477.10
566.89	2468.89
567.25	2461.50
567.60	2454.62
567.96	2447.09
568.31	2439.05
568.66	2430.29
569.02	2421.39
569.37	2413.35
569.72	2405.76
570.08	2396.46
570.43	2387.11
570.78	2377.56
571.14	2368.01
571.49	2357.79
571.84	2348.35
572.20	2337.25
572.55	2326.92
572.90	2315.95
573.26	2305.41
573.61	2294.06
573.96	2283.44
574.31	2271.22
574.67	2259.01
575.02	2246.21
575.37	2233.58
575.72	2220.40
576.08	2208.39
576.43	2195.80
576.78	2182.25
577.13	2168.64
577.49	2155.69
577.84	2143.80
578.19	2131.32
578.54	2118.70
578.90	2106.50
579.25	2094.20
579.60	2081.62
579.95	2068.83
580.30	2055.80
580.66	2042.25
581.01	2028.77
581.36	2014.33
581.71	2001.49
582.06	1988.65
582.42	1976.22
582.77	1963.42
583.12	1951.37
583.47	1938.64
583.82	1926.89
584.17	1915.08
584.53	1903.24
584.88	1890.36
585.23	1877.15
585.58	1862.94
585.93	1849.71
586.28	1836.29
586.63	1822.06
586.98	1807.82
587.34	1794.62
587.69	1781.55
588.04	1768.92
588.39	1756.83
588.74	1744.55
589.09	1732.41
589.44	1719.71
589.79	1707.37
590.14	1695.39
590.49	1682.92
590.84	1670.70
591.19	1658.34
591.54	1645.99
591.89	1633.57
592.25	1623.10
592.60	1611.43
592.95	1600.29
593.30	1588.41
593.65	1576.44
594.00	1564.51
594.35	1554.75
594.70	1542.54
595.05	1530.77
595.40	1518.43
595.75	1506.38
596.10	1495.15
596.45	1483.66
596.80	1472.75
597.15	1461.09
597.50	1449.32
597.85	1438.00
598.19	1426.13
598.54	1414.41
598.89	1402.78
599.24	1392.11
599.59	1380.53
599.94	1369.58
600.29	1358.90
600.64	1348.25
600.99	1337.48
601.34	1327.91
601.69	1316.44
602.04	1306.66
602.39	1296.97
602.74	1288.21
603.08	1278.82
603.43	1269.55
603.78	1259.79
604.13	1250.19
604.48	1240.48
604.83	1230.62
605.18	1220.80
605.53	1211.52
605.87	1202.20
606.22	1193.81
606.57	1184.18
606.92	1174.60
607.27	1165.60
607.62	1156.87
607.96	1148.17
608.31	1140.22
608.66	1131.56
609.01	1123.00
609.36	1114.30
609.70	1105.64
610.05	1096.45
610.40	1087.82
610.75	1078.99
611.10	1070.54
611.44	1061.81
611.79	1053.50
612.14	1045.53
612.49	1037.75
612.83	1030.15
613.18	1022.25
613.53	1014.32
613.88	1006.60
614.22	998.86
614.57	990.96
614.92	983.02
615.27	975.45
615.61	967.62
615.96	960.06
616.31	952.52
616.65	945.57
617.00	938.18
617.35	931.09
617.70	923.91
618.04	916.69
618.39	909.84
618.74	903.10
619.08	896.16
619.43	889.17
619.78	881.81
620.12	874.66
620.47	867.76
620.82	860.60
621.16	853.62
621.51	847.23
621.85	840.81
622.20	834.09
622.55	827.38
622.89	820.83
623.24	814.22
623.59	807.89
623.93	801.28
624.28	795.15
624.62	789.46
624.97	783.57
625.32	777.74
625.66	771.65
626.01	765.51
626.35	759.96
626.70	754.45
627.04	749.33
627.39	743.71
627.73	738.42
628.08	733.08
628.43	727.58
628.77	722.09
629.12	716.82
629.46	711.90
629.81	707.00
630.15	702.10
630.50	697.29
630.84	692.19
631.19	687.45
631.53	682.87
631.88	677.37
632.22	672.45
632.57	668.06
632.91	663.45
633.26	659.10
633.60	654.37
633.95	649.55
634.29	644.69
634.64	640.15
634.98	635.39
635.32	631.11
635.67	627.13
636.01	622.95
636.36	618.64
636.70	614.55
637.05	610.47
637.39	606.27
637.73	602.09
638.08	598.20
638.42	593.91
638.77	589.43
639.11	585.26
639.45	580.86
639.80	576.43
640.14	572.27
640.49	568.18
640.83	564.35
641.17	560.72
641.52	557.05
641.86	553.54
642.20	550.35
642.55	546.68
642.89	543.06
643.23	539.53
643.58	536.34
643.92	532.56
644.26	529.13
644.61	525.96
644.95	522.55
645.29	519.02
645.64	515.82
645.98	512.69
646.32	509.69
646.66	506.67
647.01	503.70
647.35	500.94
647.69	498.04
648.04	495.22
648.38	492.30
648.72	489.24
649.06	486.21
649.41	483.07
649.75	479.95
650.09	477.10
650.43	474.19
650.78	471.17
651.12	468.45
651.46	465.51
651.80	462.66
652.14	459.96
652.49	457.61
652.83	454.99
653.17	452.40
653.51	449.63
653.85	447.29
654.20	444.77
654.54	442.10
654.88	439.58
655.22	437.29
655.56	434.80
655.90	432.58
656.25	430.23
656.59	427.93
656.93	425.72
657.27	423.50
657.61	421.04
657.95	418.72
658.29	416.47
658.64	414.44
658.98	412.25
659.32	410.03
659.66	407.72
660.00	405.66
660.34	403.63
660.68	401.63
661.02	399.57
661.36	397.50
661.70	395.43
662.05	393.45
662.39	391.40
662.73	389.56
663.07	387.86
663.41	386.05
663.75	384.14
664.09	382.38
664.43	380.53
664.77	378.93
665.11	377.25
665.45	375.65
665.79	373.94
666.13	372.17
666.47	370.48
666.81	368.80
667.15	367.05
667.49	365.51
667.83	364.10
668.17	362.58
668.51	361.18
668.85	359.98
669.19	358.80
669.53	357.35
669.87	355.85
670.21	354.21
670.55	352.85
670.89	351.77
671.23	350.38
671.57	348.96
671.91	347.56
672.25	346.19
672.58	345.01
672.92	343.62
673.26	342.36
673.60	341.22
673.94	340.04
674.28	338.97
674.62	337.82
674.96	336.60
675.30	335.39
675.64	334.20
675.97	332.87
676.31	331.59
676.65	330.32
676.99	329.37
677.33	328.15
677.67	327.03
678.01	325.64
678.34	324.57
678.68	323.54
679.02	322.50
679.36	321.50
679.70	320.40
680.04	319.53
680.37	318.54
680.71	317.53
681.05	316.68
681.39	315.77
681.73	314.83
682.06	313.93
682.40	313.02
682.74	312.24
683.08	311.53
683.42	310.54
683.75	309.75
684.09	308.77
684.43	308.16
684.77	307.27
685.10	306.54
685.44	305.80
685.78	304.98
686.12	304.23
686.45	303.47
686.79	302.58
687.13	301.86
687.46	301.15
687.80	300.48
688.14	299.51
688.48	298.77
688.81	297.96
689.15	297.32
689.49	296.58
689.82	295.79
690.16	294.87
690.50	294.18
690.83	293.45
691.17	292.65
691.51	291.88
691.84	291.30
692.18	290.49
692.52	289.76
692.85	289.15
693.19	288.71
693.52	288.05
693.86	287.45
694.20	286.83
694.53	286.30
694.87	285.56
695.21	285.01
695.54	284.37
695.88	283.59
696.21	282.75
696.55	282.18
696.88	281.49
697.22	280.90
697.56	280.41
697.89	279.87
698.23	279.38
698.56	278.84
698.90	278.30
699.23	277.83
699.57	277.38
699.90	276.79
700.24	276.05
700.58	275.63
700.91	275.22
701.25	275.11
701.58	274.86
701.92	274.56
702.25	274.10
702.59	273.64
702.92	273.40
703.26	273.10
703.59	272.65
703.93	272.73
704.26	272.36
704.60	271.89
704.93	271.46
705.26	271.04
705.60	270.74
705.93	270.20
706.27	270.00
706.60	269.71
706.94	269.56
707.27	269.14
707.61	268.73
707.94	268.30
708.27	267.57
708.61	266.87
708.94	266.47
709.28	266.14
709.61	265.74
709.94	265.36
710.28	265.02
710.61	264.65
710.95	263.83
711.28	263.73
711.61	263.39
711.95	263.10
712.28	262.75
712.61	262.32
712.95	262.25
713.28	262.09
713.61	261.61
713.95	261.15
714.28	260.83
714.61	260.51
714.95	260.18
715.28	259.69
715.61	259.33
715.95	259.01
716.28	258.57
716.61	258.37
716.95	258.00
717.28	257.64
717.61	257.32
717.94	257.04
718.28	256.35
718.61	256.03
718.94	255.75
719.27	255.46
719.61	255.21
719.94	254.84
720.27	254.29
720.60	254.04
720.94	253.75
721.27	253.60
721.60	253.41
721.93	253.11
722.27	253.13
722.60	252.89
722.93	252.56
723.26	252.42
723.59	252.06
723.93	251.91
724.26	251.71
724.59	251.49
724.92	251.25
725.25	251.27
725.59	251.08
725.92	250.80
726.25	250.58
726.58	250.32
726.91	250.15
727.24	250.00
727.57	249.79
727.91	249.50
728.24	249.32
728.57	249.14
728.90	249.08
729.23	248.72
729.56	248.74
729.89	248.62
730.22	248.36
730.55	248.19
730.89	247.98
731.22	247.85
731.55	247.67
731.88	247.53
732.21	247.25
732.54	247.00
732.87	246.86
733.20	246.74
733.53	246.60
733.86	246.44
734.19	246.18
734.52	246.10
734.85	246.27
735.18	245.98
735.51	245.86
735.84	245.70
736.17	245.65
736.50	245.32
736.83	245.70
737.16	245.57
737.49	245.51
737.82	245.31
738.15	245.17
738.48	245.01
738.81	244.82
739.14	244.60
739.47	244.46
739.80	244.38
740.13	244.16
740.46	243.90
740.79	243.65
741.12	243.48
741.45	243.29
741.78	242.88
742.11	242.92
742.44	242.69
742.77	242.54
743.10	242.27
743.43	242.10
743.75	241.51
744.08	242.00
744.41	241.80
744.74	241.65
745.07	241.34
745.40	241.32
745.73	241.41
746.06	241.33
746.39	241.25
746.71	241.07
747.04	240.93
747.37	240.82
747.70	240.84
748.03	240.75
748.36	240.55
748.68	240.46
749.01	240.21
749.34	240.10
749.67	240.01
750.00	240.02
750.33	240.30
750.65	240.16
750.98	239.50
751.31	239.39
751.64	239.28
751.97	239.49
752.29	239.32
752.62	239.03
752.95	238.90
753.28	238.79
753.60	238.57
753.93	238.67
754.26	238.56
754.59	238.24
754.91	238.10
755.24	238.08
755.57	237.99
755.90	237.90
756.22	237.67
756.55	237.45
756.88	237.30
757.20	236.82
757.53	236.66
757.86	236.53
758.19	236.50
758.51	236.43
758.84	236.10
759.17	236.03
759.49	236.02
759.82	236.17
760.15	236.01
760.47	236.01
760.80	235.75
761.13	235.77
761.45	235.83
761.78	235.79
762.11	235.68
762.43	235.56
762.76	235.41
763.08	235.45
763.41	235.42
763.74	235.29
764.06	235.24
764.39	235.11
764.71	235.00
765.04	234.80
765.37	234.69
765.69	234.68
766.02	234.56
766.34	234.37
766.67	234.01
767.00	234.01
767.32	234.15
767.65	234.37
767.97	234.23
768.30	234.10
768.62	234.02
768.95	233.85
769.27	233.80
769.60	233.80
769.92	233.67
770.25	233.52
770.57	233.39
770.90	233.34
771.22	233.18
771.55	233.22
771.87	233.29
772.20	233.20
772.52	233.51
772.85	234.00
773.17	233.93
773.50	233.96
773.82	233.90
774.15	233.60
774.47	233.26
774.80	233.14
775.12	233.05
775.45	232.96
775.77	233.03
776.09	232.96
776.42	232.87
776.74	232.99
777.07	232.94
777.39	232.96
777.72	232.74
778.04	232.81
778.36	232.67
778.69	232.61
779.01	232.59
779.33	232.11
779.66	231.47
779.98	231.44
780.31	231.34
780.63	231.50
780.95	231.57
781.28	231.53
781.60	231.51
781.92	231.54
782.25	231.48
782.57	231.44
782.89	231.34
783.22	231.30
783.54	231.15
783.86	231.13
784.19	231.00
784.51	231.20
784.83	231.07
785.16	231.02
785.48	231.01
785.80	230.95
786.12	230.94
786.45	230.96
786.77	230.96
787.09	230.99
787.42	230.75
787.74	230.79
788.06	230.76
788.38	230.69
788.71	230.51
789.03	230.52
789.35	230.48
789.67	230.44
789.99	230.47
790.32	230.35
790.64	230.41
790.96	230.80
791.28	230.58
791.61	230.55
791.93	230.58
792.25	230.54
792.57	230.90
792.89	230.81
793.21	230.86
793.54	230.79
793.86	230.70
794.18	230.74
794.50	230.53
794.82	230.51
795.14	230.52
795.47	230.66
795.79	230.69
796.11	230.63
796.43	230.53
796.75	230.55
797.07	230.67
797.39	230.60
797.71	230.26
798.04	230.35
798.36	230.38
798.68	230.30
799.00	230.25
799.32	229.97
799.64	230.07
799.96	230.01
800.28	230.09
800.60	229.99
800.92	230.01
801.24	230.00
801.56	230.09
801.89	230.11
802.21	230.10
802.53	229.90
802.85	229.93
803.17	230.29
803.49	230.08
803.81	229.93
804.13	229.88
804.45	229.80
804.77	229.81
805.09	229.71
805.41	229.66
805.73	229.52
806.05	229.36
806.37	229.32
806.69	229.23
807.01	229.15
807.33	229.17
807.65	228.94
807.97	229.11
808.28	228.94
808.60	228.87
808.92	228.82
809.24	229.19
809.56	229.03
809.88	228.79
810.20	228.80
810.52	228.89
810.84	228.78
811.16	228.67
811.48	228.60
811.80	228.80
812.12	228.76
812.43	228.87
812.75	228.89
813.07	228.81
813.39	228.81
813.71	228.71
814.03	228.66
814.35	228.66
814.67	228.43
814.98	228.41
815.30	228.35
815.62	228.24
815.94	227.83
816.26	228.12
816.58	227.98
816.89	227.98
817.21	227.86
817.53	227.85
817.85	227.84
818.17	227.77
818.48	227.52
818.80	227.68
819.12	227.58
819.44	227.48
819.76	227.39
820.07	227.34
820.39	227.32
820.71	227.35
821.03	227.38
821.34	227.30
821.66	227.27
821.98	227.28
822.30	227.27
822.61	227.57
822.93	227.29
823.25	227.30
823.57	227.27
823.88	227.37
824.20	227.42
824.52	227.56
824.83	227.55
825.15	227.53
825.47	227.44
825.79	227.46
826.10	227.46
826.42	227.47
826.74	227.56
827.05	227.54
827.37	227.57
827.69	227.53
828.00	227.55
828.32	227.54
828.64	227.52
828.95	227.74
829.27	227.59
829.58	227.63
829.90	227.70
830.22	227.76
830.53	227.61
830.85	227.49
831.17	227.45
831.48	227.44
831.80	227.47
832.11	227.38
832.43	227.34
832.75	227.32
833.06	227.63
833.38	227.47
833.69	227.49
834.01	227.54
834.32	227.58
834.64	227.64
834.96	227.71
835.27	227.74
835.59	227.58
835.90	227.53
836.22	227.45
836.53	227.32
836.85	227.25
837.16	227.75
837.48	227.89
837.79	228.02
838.11	228.10
838.42	228.20
838.74	228.35
839.05	228.33
839.37	228.31
839.68	228.02
840.00	228.10
840.31	228.18
840.63	228.07
840.94	228.03
841.26	227.93
841.57	227.93
841.88	227.96
842.20	227.94
842.51	227.85
842.83	227.86
843.14	228.38
843.46	228.43
843.77	228.18
844.08	228.13
844.40	227.95
844.71	227.84
845.03	227.73
845.34	227.60
845.65	227.60
845.97	227.67
846.28	227.64
846.60	227.60
846.91	227.48
847.22	227.50
847.54	227.61
847.85	227.64
848.16	227.54
848.48	227.48
848.79	227.62
849.10	227.68
849.42	227.71
849.73	227.19
850.04	227.11
850.36	226.98
850.67	226.97
850.98	226.94
851.30	227.01
851.61	227.03
851.92	227.09
852.23	227.17
852.55	227.13
852.86	227.19
853.17	227.19
853.49	227.25
853.80	227.33
854.11	227.31
854.42	227.39
854.74	227.31
855.05	227.26
855.36	227.04
855.67	227.08
855.99	227.10
856.30	227.68
856.61	227.67
856.92	227.58
857.23	227.61
857.55	227.58
857.86	227.50
858.17	227.50
858.48	227.36
858.79	227.29
859.11	227.38
859.42	227.26
859.73	227.20
860.04	227.15
860.35	226.96
860.66	226.81
860.98	226.76
861.29	226.84
861.60	226.85
861.91	226.90
862.22	226.76
862.53	226.67
862.84	226.08
863.16	226.18
863.47	226.16
863.78	226.09
864.09	226.10
864.40	226.11
864.71	226.12
865.02	226.24
865.33	226.15
865.64	226.07
865.95	226.06
866.27	226.31
866.58	226.34
866.89	226.39
867.20	226.40
867.51	226.31
867.82	226.34
868.13	226.47
868.44	226.41
868.75	226.54
869.06	226.54
869.37	226.57
869.68	226.50
869.99	226.52
870.30	226.64
870.61	226.75
870.92	226.70
871.23	226.65
871.54	226.61
871.85	226.77
872.16	226.81
872.47	226.90
872.78	226.72
873.09	226.75
873.40	226.76
873.71	226.84
874.02	226.97
874.33	226.91
874.64	226.83
874.95	226.89
875.26	226.86
875.56	226.85
875.87	226.84
876.18	226.76
876.49	227.28
876.80	227.22
877.11	227.17
877.42	227.19
877.73	227.25
878.04	227.28
878.35	227.23
878.66	227.23
878.96	227.21
879.27	227.20
879.58	227.17
879.89	227.18
880.20	227.27
880.51	227.20
880.82	227.26
881.12	227.29
881.43	227.24
881.74	227.16
882.05	227.19
882.36	227.30
882.67	227.44
882.97	226.94
883.28	226.86
883.59	226.86
883.90	226.95
884.21	227.03
884.51	226.99
884.82	226.95
885.13	227.00
885.44	227.00
885.74	227.04
886.05	227.07
886.36	227.12
886.67	226.96
886.98	227.21
887.28	227.21
887.59	227.25
887.90	227.28
888.20	227.37
888.51	227.45
888.82	227.41
889.13	227.41
889.43	227.78
889.74	227.77
890.05	227.76
890.35	227.76
890.66	227.65
890.97	227.64
891.28	227.66
891.58	227.65
891.89	227.63
892.20	227.59
892.50	227.65
892.81	227.62
893.12	227.65
893.42	227.44
893.73	227.47
894.04	227.45
894.34	227.44
894.65	227.39
894.95	227.29
895.26	227.29
895.57	227.47
895.87	227.01
896.18	227.10
896.48	227.12
896.79	227.07
897.10	227.16
897.40	227.15
897.71	227.19
898.01	227.13
898.32	227.20
898.63	227.17
898.93	227.05
899.24	227.05
899.54	227.03
899.85	227.01
900.15	227.00
900.46	227.01
900.76	227.10
901.07	227.02
901.38	227.11
901.68	227.15
901.99	226.94
902.29	227.05
902.60	227.01
902.90	226.98
903.21	226.94
903.51	226.88
903.82	226.96
904.12	226.98
904.43	226.92
904.73	226.85
905.03	226.86
905.34	227.36
905.64	227.27
905.95	227.25
906.25	227.26
906.56	227.21
906.86	227.16
907.17	227.09
907.47	227.13
907.77	227.05
908.08	226.95
908.38	226.92
908.69	226.91
908.99	226.93
909.30	226.91
909.60	226.90
909.90	226.97
910.21	226.86
910.51	226.69
910.81	226.74
911.12	226.73
911.42	226.75
911.73	226.28
912.03	226.40
912.33	226.48
912.64	226.40
912.94	226.40
913.24	226.35
913.55	226.35
913.85	226.35
914.15	226.50
914.46	226.55
914.76	226.54
915.06	226.43
915.37	226.36
915.67	226.32
915.97	226.36
916.27	226.24
916.58	226.27
916.88	226.32
917.18	226.28
917.49	226.68
917.79	226.72
918.09	226.72
918.39	226.78
918.70	226.76
919.00	226.85
919.30	227.04
919.60	227.04
919.91	226.96
920.21	226.99
920.51	226.83
920.81	226.82
921.12	226.89
921.42	226.89
921.72	226.91
922.02	227.04
922.32	227.10
922.63	227.13
922.93	227.39
923.23	227.49
923.53	227.49
923.83	227.10
924.13	227.12
924.44	227.14
924.74	227.21
925.04	227.32
925.34	227.27
925.64	227.04
925.94	227.02
926.24	227.35
926.55	227.32
926.85	227.43
927.15	227.34
927.45	227.37
927.75	227.41
928.05	227.49
928.35	227.44
928.65	227.55
928.95	227.58
929.26	227.31
929.56	227.30
929.86	227.33
930.16	227.41
930.46	227.35
930.76	227.43
931.06	227.22
931.36	227.12
931.66	227.23
931.96	227.29
932.26	227.41
932.56	227.17
932.86	227.19
933.16	227.14
933.46	227.13
933.76	227.00
934.06	227.18
934.36	227.32
934.66	227.35
934.96	227.26
935.26	227.28
935.56	227.38
935.86	227.27
936.16	227.20
936.46	227.07
936.76	227.01
937.06	226.86
937.36	226.86
937.66	226.81
937.96	226.72
938.26	226.64
938.56	226.53
938.86	226.55
939.16	226.64
939.46	226.70
939.76	226.77
940.06	226.77
940.35	226.62
940.65	226.35
940.95	226.32
941.25	226.23
941.55	226.22
941.85	226.25
942.15	226.40
942.45	226.53
942.75	226.52
943.04	226.56
943.34	226.64
943.64	226.58
943.94	226.52
944.24	226.66
944.54	226.67
944.84	226.69
945.13	226.65
945.43	226.56
945.73	226.54
946.03	226.47
946.33	226.48
946.62	226.39
946.92	226.41
947.22	226.36
947.52	226.35
947.82	226.31
948.11	226.21
948.41	226.04
948.71	225.94
949.01	225.97
949.31	225.96
949.60	225.97
949.90	226.07
950.20	226.10
950.50	226.02
950.79	226.03
951.09	226.08
951.39	226.03
951.69	225.94
951.98	225.99
952.28	226.07
952.58	226.03
952.87	226.12
953.17	226.16
953.47	226.12
953.76	226.10
954.06	226.07
954.36	225.98
954.66	226.10
954.95	226.19
955.25	226.22
955.55	226.21
955.84	226.16
956.14	226.15
956.44	226.18
956.73	226.09
957.03	226.14
957.32	226.15
957.62	226.19
957.92	226.38
958.21	226.35
958.51	226.84
958.81	226.95
959.10	226.94
959.40	227.03
959.69	227.14
959.99	227.20
960.29	227.23
960.58	227.29
960.88	227.41
961.17	227.31
961.47	227.34
961.76	227.31
962.06	227.37
962.36	227.40
962.65	227.35
962.95	227.40
963.24	227.25
963.54	227.26
963.83	227.23
964.13	227.20
964.42	227.02
964.72	226.66
965.01	226.59
965.31	226.59
965.60	226.57
965.90	226.79
966.19	226.70
966.49	226.72
966.78	226.65
967.08	226.58
967.37	226.66
967.67	226.57
967.96	226.67
968.26	226.70
968.55	226.73
968.85	226.78
969.14	226.79
969.43	226.87
969.73	226.83
970.02	226.83
970.32	226.71
970.61	226.75
970.91	226.59
971.20	226.55
971.49	226.54
971.79	226.56
972.08	226.27
972.38	226.33
972.67	226.27
972.96	226.39
973.26	226.27
973.55	226.40
973.85	226.41
974.14	226.36
974.43	226.31
974.73	226.23
975.02	226.18
975.31	226.17
975.61	226.17
975.90	226.11
976.19	226.08
976.49	226.17
976.78	226.21
977.07	226.22
977.37	226.30
977.66	226.33
977.95	226.19
978.24	226.19
978.54	226.25
978.83	226.24
979.12	226.19
979.42	226.23
979.71	226.15
980.00	226.09
980.29	226.21
980.59	226.15
980.88	226.27
981.17	226.24
981.46	226.23
981.76	226.22
982.05	226.38
982.34	226.44
982.63	226.47
982.93	226.46
983.22	226.60
983.51	226.60
983.80	226.61
984.09	226.77
984.39	226.78
984.68	226.73
984.97	226.75
985.26	226.70
985.55	226.67
985.85	226.53
986.14	226.72
986.43	226.69
986.72	226.70
987.01	226.57
987.30	226.65
987.59	226.59
987.89	226.59
988.18	226.44
988.47	226.37
988.76	226.28
989.05	226.29
989.34	226.23
989.63	226.26
989.92	226.17
990.22	226.09
990.51	226.10
990.80	226.04
991.09	226.07
991.38	226.15
991.67	226.20
991.96	226.26
992.25	226.25
992.54	226.16
992.83	226.24
993.12	226.24
993.41	226.27
993.70	226.51
993.99	226.58
994.28	226.73
994.58	226.83
994.87	226.78
995.16	226.77
995.45	226.76
995.74	226.61
996.03	226.77
996.32	226.80
996.61	226.89
996.90	226.97
997.19	226.95
997.48	226.93
997.77	226.85
998.06	226.81
998.34	226.75
998.63	226.76
998.92	226.70
999.21	226.72
999.50	226.74
999.79	226.45
1000.08	226.44
1000.37	226.33
1000.66	226.31
1000.95	226.46
1001.24	226.42
1001.53	226.52
1001.82	226.58
1002.11	226.42
1002.40	226.41
1002.68	226.45
1002.97	226.74
1003.26	226.75
1003.55	226.72
1003.84	226.74
1004.13	226.92
1004.42	226.82
1004.71	226.79
1004.99	226.80
1005.28	226.95
1005.57	226.95
1005.86	227.06
1006.15	227.05
1006.44	226.95
1006.72	227.00
1007.01	226.92
1007.30	226.95
1007.59	226.78
1007.88	226.71
1008.17	226.76
1008.45	226.70
1008.74	226.50
1009.03	226.23
1009.32	226.23
1009.60	226.21
1009.89	226.21
1010.18	226.00
1010.47	225.99
1010.76	225.96
1011.04	225.91
1011.33	225.92
1011.62	225.93
1011.91	225.94
1012.19	225.99
1012.48	226.14
1012.77	226.14
1013.05	226.40
1013.34	226.42
1013.63	226.43
1013.92	226.46
1014.20	226.37
1014.49	226.37
1014.78	226.36
1015.06	226.24
1015.35	226.21
1015.64	226.27
1015.92	226.28
1016.21	226.27
1016.50	226.33
1016.78	226.39
1017.07	226.42
1017.36	226.28
1017.64	226.16
1017.93	226.18
1018.22	226.06
1018.50	226.05
1018.79	225.91
1019.08	225.61
1019.36	225.61
1019.65	225.59
1019.93	225.71
1020.22	225.80
1020.51	225.99
1020.79	225.90
1021.08	224.85
1021.36	227.05
1021.65	224.70
1021.94	225.15
1022.22	226.35
1022.51	225.00
1022.79	227.70
1023.08	226.10
1023.36	230.10
1023.65	222.55
>>>>>End Processed Spectral Data<<<<<
