SpectraSuite Data File
++++++++++++++++++++++++++++++++++++
Date: Wed Sep 04 17:50:01 EDT 2013
User: lab3
Dark Spectrum Present: Yes
Reference Spectrum Present: No
Number of Sampled Component Spectra: 1
Spectrometers: USB2E7196
Integration Time (usec): 170000 (USB2E7196)
Spectra Averaged: 20 (USB2E7196)
Boxcar Smoothing: 10 (USB2E7196)
Correct for Electrical Dark: No (USB2E7196)
Strobe/Lamp Enabled: No (USB2E7196)
Correct for Detector Non-linearity: No (USB2E7196)
Correct for Stray Light: No (USB2E7196)
Number of Pixels in Processed Spectrum: 2048
>>>>>Begin Processed Spectral Data<<<<<
339.09	0.00
339.48	213.05
339.86	213.55
340.24	214.30
340.63	217.45
341.01	226.40
341.39	219.60
341.78	222.20
342.16	223.80
342.54	223.70
342.93	212.06
343.31	222.69
343.69	223.22
344.07	223.71
344.46	224.23
344.84	224.65
345.22	224.53
345.60	224.81
345.99	224.94
346.37	225.02
346.75	225.13
347.13	225.21
347.52	225.32
347.90	225.50
348.28	225.41
348.66	225.44
349.05	225.30
349.43	225.50
349.81	225.63
350.19	225.69
350.57	225.78
350.96	226.00
351.34	226.17
351.72	226.28
352.10	226.39
352.48	226.42
352.87	226.46
353.25	226.60
353.63	226.59
354.01	226.66
354.39	226.76
354.77	226.84
355.15	227.00
355.54	226.94
355.92	226.87
356.30	227.05
356.68	227.52
357.06	227.58
357.44	227.51
357.82	227.50
358.20	228.01
358.58	228.03
358.97	228.08
359.35	228.26
359.73	228.43
360.11	228.51
360.49	228.57
360.87	228.60
361.25	228.72
361.63	228.97
362.01	229.07
362.39	229.07
362.77	229.16
363.15	229.29
363.53	229.32
363.91	229.43
364.29	229.42
364.67	228.99
365.05	229.08
365.43	229.15
365.81	229.24
366.19	228.98
366.57	229.26
366.95	229.17
367.33	229.07
367.71	229.02
368.09	229.17
368.47	229.20
368.85	229.18
369.23	229.21
369.61	229.10
369.99	229.24
370.37	229.23
370.75	229.37
371.13	229.23
371.51	229.16
371.89	229.16
372.27	229.13
372.65	229.08
373.03	228.98
373.41	228.90
373.78	228.90
374.16	228.66
374.54	228.37
374.92	228.37
375.30	228.31
375.68	228.23
376.06	228.10
376.44	228.02
376.82	228.01
377.19	227.92
377.57	227.79
377.95	227.53
378.33	227.49
378.71	227.11
379.09	227.06
379.47	227.04
379.84	226.85
380.22	226.76
380.60	226.62
380.98	226.58
381.36	226.43
381.73	226.22
382.11	226.25
382.49	226.25
382.87	226.09
383.25	226.06
383.62	226.50
384.00	226.36
384.38	226.33
384.76	226.35
385.13	226.49
385.51	226.42
385.89	226.31
386.27	226.29
386.64	226.37
387.02	226.24
387.40	226.19
387.78	226.18
388.15	226.10
388.53	226.06
388.91	225.98
389.29	225.96
389.66	225.94
390.04	225.86
390.42	225.85
390.79	225.88
391.17	225.78
391.55	225.25
391.92	225.23
392.30	225.28
392.68	225.10
393.05	224.99
393.43	225.07
393.81	225.16
394.18	225.11
394.56	225.10
394.94	225.27
395.31	225.28
395.69	225.47
396.06	225.61
396.44	225.73
396.82	225.68
397.19	225.99
397.57	226.09
397.95	226.25
398.32	226.20
398.70	226.26
399.07	226.36
399.45	226.37
399.82	226.39
400.20	226.40
400.58	226.55
400.95	226.52
401.33	226.68
401.70	227.10
402.08	227.27
402.45	227.35
402.83	227.55
403.20	227.71
403.58	227.80
403.95	228.07
404.33	228.25
404.71	228.56
405.08	228.95
405.46	229.16
405.83	229.41
406.21	229.71
406.58	230.06
406.96	230.44
407.33	230.90
407.70	231.30
408.08	232.06
408.45	232.56
408.83	233.06
409.20	233.47
409.58	233.66
409.95	234.15
410.33	234.72
410.70	235.13
411.08	235.80
411.45	236.46
411.82	237.03
412.20	237.90
412.57	238.93
412.95	239.31
413.32	240.20
413.69	240.97
414.07	241.90
414.44	242.89
414.82	243.90
415.19	245.04
415.56	246.30
415.94	247.25
416.31	248.66
416.68	250.04
417.06	251.64
417.43	253.21
417.81	255.02
418.18	256.86
418.55	258.82
418.93	260.81
419.30	262.83
419.67	265.00
420.04	267.22
420.42	269.49
420.79	272.54
421.16	275.31
421.54	278.33
421.91	281.29
422.28	284.31
422.66	287.51
423.03	290.88
423.40	294.11
423.77	297.70
424.15	301.15
424.52	304.92
424.89	309.05
425.26	312.92
425.64	316.69
426.01	320.78
426.38	325.12
426.75	329.71
427.13	334.19
427.50	338.98
427.87	343.78
428.24	348.58
428.61	353.06
428.99	358.36
429.36	363.90
429.73	369.37
430.10	374.79
430.47	380.50
430.85	386.08
431.22	392.25
431.59	398.93
431.96	405.22
432.33	412.23
432.70	418.80
433.08	426.70
433.45	434.05
433.82	441.32
434.19	449.41
434.56	457.41
434.93	465.12
435.30	472.79
435.68	481.46
436.05	489.92
436.42	498.20
436.79	505.89
437.16	514.28
437.53	523.04
437.90	531.75
438.27	540.26
438.64	549.09
439.01	557.30
439.38	564.48
439.75	571.65
440.13	579.60
440.50	587.18
440.87	593.15
441.24	599.54
441.61	606.60
441.98	611.62
442.35	617.41
442.72	623.32
443.09	629.20
443.46	632.48
443.83	634.80
444.20	636.79
444.57	639.43
444.94	640.29
445.31	641.42
445.68	642.86
446.05	643.05
446.42	641.90
446.79	640.39
447.16	638.83
447.53	637.60
447.90	633.89
448.27	630.25
448.64	625.58
449.01	621.92
449.37	615.84
449.74	609.94
450.11	603.13
450.48	595.48
450.85	587.48
451.22	580.62
451.59	573.97
451.96	567.66
452.33	559.56
452.70	552.42
453.07	543.75
453.43	534.71
453.80	526.37
454.17	518.25
454.54	510.77
454.91	502.60
455.28	494.65
455.65	487.25
456.02	480.41
456.38	474.06
456.75	466.35
457.12	459.83
457.49	453.50
457.86	447.17
458.23	442.13
458.59	436.41
458.96	430.81
459.33	425.78
459.70	420.69
460.07	416.64
460.43	411.94
460.80	407.70
461.17	403.94
461.54	399.99
461.91	396.29
462.27	392.47
462.64	389.23
463.01	385.55
463.38	382.21
463.74	378.25
464.11	375.17
464.48	372.56
464.85	369.74
465.21	367.62
465.58	365.30
465.95	362.34
466.32	360.22
466.68	357.86
467.05	355.60
467.42	353.46
467.78	351.15
468.15	349.00
468.52	347.40
468.88	345.17
469.25	343.23
469.62	341.80
469.98	340.11
470.35	338.63
470.72	337.19
471.08	335.52
471.45	334.15
471.82	332.95
472.18	331.42
472.55	330.43
472.92	329.09
473.28	327.90
473.65	326.96
474.02	325.86
474.38	325.05
474.75	324.33
475.11	323.44
475.48	322.78
475.85	322.15
476.21	321.53
476.58	320.96
476.94	320.53
477.31	319.95
477.67	319.61
478.04	319.24
478.41	319.17
478.77	319.51
479.14	319.26
479.50	319.13
479.87	319.24
480.23	319.19
480.60	319.20
480.96	319.28
481.33	319.58
481.69	319.72
482.06	319.90
482.42	320.19
482.79	320.53
483.15	320.95
483.52	321.58
483.88	322.00
484.25	322.61
484.61	323.30
484.98	323.96
485.34	324.99
485.71	325.88
486.07	326.73
486.44	327.30
486.80	328.46
487.17	329.54
487.53	330.91
487.90	332.24
488.26	333.90
488.62	335.60
488.99	337.03
489.35	338.86
489.72	340.83
490.08	342.85
490.44	344.87
490.81	347.15
491.17	349.33
491.54	351.82
491.90	354.47
492.26	357.15
492.63	360.10
492.99	362.82
493.36	365.99
493.72	369.40
494.08	372.77
494.45	376.42
494.81	380.40
495.17	384.21
495.54	388.52
495.90	392.70
496.26	397.11
496.63	401.80
496.99	406.52
497.35	411.47
497.72	416.79
498.08	422.31
498.44	428.03
498.80	434.17
499.17	440.28
499.53	446.54
499.89	453.25
500.26	459.89
500.62	466.85
500.98	474.20
501.34	481.58
501.71	489.38
502.07	497.15
502.43	505.20
502.79	513.55
503.16	522.08
503.52	531.16
503.88	540.44
504.24	550.00
504.60	559.93
504.97	570.26
505.33	580.46
505.69	591.47
506.05	602.43
506.41	613.46
506.78	625.08
507.14	637.05
507.50	649.30
507.86	662.04
508.22	674.95
508.59	687.93
508.95	701.39
509.31	715.57
509.67	729.75
510.03	744.00
510.39	758.59
510.75	773.61
511.12	788.76
511.48	804.17
511.84	819.90
512.20	835.84
512.56	852.05
512.92	868.74
513.28	885.39
513.64	902.55
514.00	919.96
514.37	937.52
514.73	955.50
515.09	973.65
515.45	991.85
515.81	1010.00
516.17	1028.54
516.53	1047.06
516.89	1065.43
517.25	1084.98
517.61	1105.08
517.97	1125.44
518.33	1145.42
518.69	1165.53
519.05	1186.00
519.41	1206.31
519.77	1227.21
520.13	1247.90
520.49	1268.34
520.85	1290.56
521.21	1311.72
521.57	1332.89
521.93	1353.30
522.29	1374.32
522.65	1394.77
523.01	1415.70
523.37	1436.34
523.73	1457.31
524.09	1478.09
524.45	1498.50
524.81	1519.07
525.17	1539.65
525.53	1559.81
525.89	1580.20
526.25	1600.91
526.61	1621.31
526.97	1642.19
527.33	1663.12
527.68	1684.49
528.04	1705.94
528.40	1725.45
528.76	1746.21
529.12	1766.60
529.48	1787.92
529.84	1807.76
530.20	1828.82
530.56	1849.17
530.91	1869.76
531.27	1889.98
531.63	1909.85
531.99	1930.42
532.35	1950.19
532.71	1969.80
533.07	1990.37
533.42	2010.11
533.78	2029.79
534.14	2049.42
534.50	2068.36
534.86	2087.68
535.21	2104.98
535.57	2122.99
535.93	2140.44
536.29	2157.83
536.65	2175.75
537.00	2192.93
537.36	2210.52
537.72	2226.80
538.08	2243.71
538.44	2260.38
538.79	2276.71
539.15	2293.34
539.51	2309.12
539.87	2324.26
540.22	2338.07
540.58	2352.05
540.94	2365.48
541.29	2378.03
541.65	2390.34
542.01	2402.84
542.37	2412.94
542.72	2424.01
543.08	2434.30
543.44	2445.52
543.79	2455.18
544.15	2464.89
544.51	2474.65
544.87	2483.61
545.22	2492.06
545.58	2499.79
545.94	2506.60
546.29	2513.01
546.65	2518.77
547.01	2524.29
547.36	2529.24
547.72	2534.74
548.07	2538.33
548.43	2543.35
548.79	2547.52
549.14	2551.22
549.50	2554.85
549.86	2558.80
550.21	2562.29
550.57	2565.86
550.92	2567.25
551.28	2568.74
551.64	2570.70
551.99	2572.40
552.35	2573.98
552.70	2576.19
553.06	2577.70
553.41	2578.76
553.77	2579.85
554.13	2581.37
554.48	2582.64
554.84	2584.06
555.19	2585.15
555.55	2586.69
555.90	2585.64
556.26	2584.83
556.61	2583.32
556.97	2581.12
557.32	2580.30
557.68	2579.12
558.03	2577.63
558.39	2576.11
558.74	2574.87
559.10	2571.84
559.45	2567.81
559.81	2563.08
560.16	2557.30
560.52	2552.09
560.87	2547.79
561.23	2542.59
561.58	2536.88
561.94	2530.05
562.29	2522.81
562.64	2515.63
563.00	2507.62
563.35	2501.04
563.71	2494.56
564.06	2488.26
564.42	2481.88
564.77	2474.65
565.12	2467.04
565.48	2459.16
565.83	2451.16
566.19	2443.10
566.54	2434.98
566.89	2427.12
567.25	2419.65
567.60	2412.66
567.96	2405.24
568.31	2397.37
568.66	2388.65
569.02	2379.48
569.37	2371.15
569.72	2363.62
570.08	2354.39
570.43	2344.78
570.78	2335.76
571.14	2326.14
571.49	2315.68
571.84	2305.88
572.20	2295.22
572.55	2284.97
572.90	2273.98
573.26	2263.78
573.61	2252.88
573.96	2241.81
574.31	2229.92
574.67	2218.13
575.02	2205.48
575.37	2192.73
575.72	2179.39
576.08	2167.44
576.43	2155.14
576.78	2142.06
577.13	2128.29
577.49	2115.65
577.84	2104.20
578.19	2092.35
578.54	2079.88
578.90	2068.33
579.25	2056.00
579.60	2043.61
579.95	2030.95
580.30	2018.05
580.66	2004.82
581.01	1991.52
581.36	1977.79
581.71	1965.51
582.06	1952.84
582.42	1940.26
582.77	1927.87
583.12	1916.28
583.47	1904.35
583.82	1892.64
584.17	1880.89
584.53	1868.80
584.88	1856.02
585.23	1842.62
585.58	1828.32
585.93	1815.28
586.28	1802.00
586.63	1788.11
586.98	1773.73
587.34	1760.69
587.69	1747.55
588.04	1735.05
588.39	1723.12
588.74	1711.07
589.09	1698.94
589.44	1686.32
589.79	1674.52
590.14	1662.52
590.49	1650.54
590.84	1638.30
591.19	1626.42
591.54	1614.23
591.89	1602.65
592.25	1592.54
592.60	1581.60
592.95	1570.62
593.30	1558.92
593.65	1547.17
594.00	1535.43
594.35	1526.06
594.70	1514.15
595.05	1502.77
595.40	1490.73
595.75	1478.83
596.10	1467.41
596.45	1456.03
596.80	1445.29
597.15	1434.01
597.50	1422.58
597.85	1411.25
598.19	1399.79
598.54	1388.07
598.89	1377.00
599.24	1366.46
599.59	1355.00
599.94	1344.05
600.29	1333.62
600.64	1323.62
600.99	1313.16
601.34	1303.82
601.69	1292.63
602.04	1283.40
602.39	1274.08
602.74	1265.25
603.08	1256.02
603.43	1247.06
603.78	1237.47
604.13	1228.25
604.48	1218.61
604.83	1209.10
605.18	1199.39
605.53	1190.04
605.87	1180.87
606.22	1172.57
606.57	1163.38
606.92	1154.19
607.27	1145.39
607.62	1136.68
607.96	1128.14
608.31	1120.25
608.66	1112.00
609.01	1103.59
609.36	1094.88
609.70	1086.18
610.05	1077.52
610.40	1069.48
610.75	1060.84
611.10	1052.64
611.44	1043.98
611.79	1035.95
612.14	1028.26
612.49	1020.69
612.83	1013.50
613.18	1005.83
613.53	997.89
613.88	989.94
614.22	982.48
614.57	974.65
614.92	966.81
615.27	958.95
615.61	951.23
615.96	943.49
616.31	936.37
616.65	929.42
617.00	922.41
617.35	915.43
617.70	908.15
618.04	901.05
618.39	894.10
618.74	887.81
619.08	881.16
619.43	874.17
619.78	867.15
620.12	859.85
620.47	853.19
620.82	846.21
621.16	839.61
621.51	833.45
621.85	827.34
622.20	821.03
622.55	814.70
622.89	808.49
623.24	802.28
623.59	795.83
623.93	789.47
624.28	783.49
624.62	777.97
624.97	772.17
625.32	766.52
625.66	760.76
626.01	754.62
626.35	749.27
626.70	743.83
627.04	738.58
627.39	733.07
627.73	727.80
628.08	722.74
628.43	717.55
628.77	712.03
629.12	706.75
629.46	702.12
629.81	697.62
630.15	692.79
630.50	688.08
630.84	683.39
631.19	678.70
631.53	674.08
631.88	668.85
632.22	664.09
632.57	659.70
632.91	655.18
633.26	650.91
633.60	646.01
633.95	641.19
634.29	636.59
634.64	632.38
634.98	627.80
635.32	623.57
635.67	619.45
636.01	615.28
636.36	611.12
636.70	606.79
637.05	602.40
637.39	598.26
637.73	594.16
638.08	590.17
638.42	586.08
638.77	581.72
639.11	577.51
639.45	573.02
639.80	568.64
640.14	564.64
640.49	560.58
640.83	556.86
641.17	553.52
641.52	549.77
641.86	546.16
642.20	542.93
642.55	539.27
642.89	535.81
643.23	532.26
643.58	529.12
643.92	525.66
644.26	522.41
644.61	519.26
644.95	515.89
645.29	512.52
645.64	509.40
645.98	506.44
646.32	503.45
646.66	500.67
647.01	497.84
647.35	495.02
647.69	492.17
648.04	489.51
648.38	486.61
648.72	483.90
649.06	481.11
649.41	478.25
649.75	475.26
650.09	472.43
650.43	469.75
650.78	466.61
651.12	463.90
651.46	461.14
651.80	458.51
652.14	455.92
652.49	453.60
652.83	450.95
653.17	448.40
653.51	445.87
653.85	443.35
654.20	440.95
654.54	438.46
654.88	435.88
655.22	433.67
655.56	431.35
655.90	429.03
656.25	426.63
656.59	424.44
656.93	422.45
657.27	420.34
657.61	418.00
657.95	415.98
658.29	413.80
658.64	411.75
658.98	409.42
659.32	407.18
659.66	404.94
660.00	403.04
660.34	401.04
660.68	399.03
661.02	397.05
661.36	395.04
661.70	392.95
662.05	391.20
662.39	389.20
662.73	387.44
663.07	385.79
663.41	384.07
663.75	382.15
664.09	380.20
664.43	378.27
664.77	376.57
665.11	374.81
665.45	373.12
665.79	371.45
666.13	369.81
666.47	368.26
666.81	366.68
667.15	364.86
667.49	363.30
667.83	361.92
668.17	360.49
668.51	359.03
668.85	357.73
669.19	356.55
669.53	354.99
669.87	353.38
670.21	351.75
670.55	350.40
670.89	349.23
671.23	347.94
671.57	346.61
671.91	345.38
672.25	344.10
672.58	343.09
672.92	341.70
673.26	340.50
673.60	339.41
673.94	338.23
674.28	337.24
674.62	336.09
674.96	334.73
675.30	333.63
675.64	332.43
675.97	331.22
676.31	329.84
676.65	328.66
676.99	327.79
677.33	326.71
677.67	325.62
678.01	324.37
678.34	323.32
678.68	322.44
679.02	321.26
679.36	320.20
679.70	319.04
680.04	318.10
680.37	317.11
680.71	316.01
681.05	315.11
681.39	314.10
681.73	313.14
682.06	312.32
682.40	311.41
682.74	310.64
683.08	309.92
683.42	309.07
683.75	308.32
684.09	307.27
684.43	306.45
684.77	305.58
685.10	304.78
685.44	304.00
685.78	303.08
686.12	302.28
686.45	301.48
686.79	300.67
687.13	299.93
687.46	299.22
687.80	298.62
688.14	297.74
688.48	296.99
688.81	296.30
689.15	295.72
689.49	294.96
689.82	294.25
690.16	293.34
690.50	292.66
690.83	291.94
691.17	291.16
691.51	290.50
691.84	289.81
692.18	289.02
692.52	288.30
692.85	287.66
693.19	287.23
693.52	286.61
693.86	285.94
694.20	285.28
694.53	284.68
694.87	283.92
695.21	283.29
695.54	282.71
695.88	282.05
696.21	281.27
696.55	280.72
696.88	280.10
697.22	279.45
697.56	278.91
697.89	278.30
698.23	277.83
698.56	277.18
698.90	276.73
699.23	276.25
699.57	275.77
699.90	275.19
700.24	274.57
700.58	274.15
700.91	273.77
701.25	273.70
701.58	273.50
701.92	273.20
702.25	272.79
702.59	272.34
702.92	271.88
703.26	271.45
703.59	270.99
703.93	270.97
704.26	270.72
704.60	270.26
704.93	269.85
705.26	269.38
705.60	269.12
705.93	268.60
706.27	268.34
706.60	268.00
706.94	267.93
707.27	267.48
707.61	267.16
707.94	266.72
708.27	265.94
708.61	265.30
708.94	264.87
709.28	264.53
709.61	264.16
709.94	263.87
710.28	263.58
710.61	263.23
710.95	262.43
711.28	262.29
711.61	261.92
711.95	261.69
712.28	261.34
712.61	260.99
712.95	260.86
713.28	260.71
713.61	260.37
713.95	259.84
714.28	259.64
714.61	259.22
714.95	258.88
715.28	258.51
715.61	258.15
715.95	257.91
716.28	257.55
716.61	257.27
716.95	256.92
717.28	256.65
717.61	256.32
717.94	256.10
718.28	255.59
718.61	255.33
718.94	254.95
719.27	254.75
719.61	254.50
719.94	254.15
720.27	253.65
720.60	253.40
720.94	253.12
721.27	252.87
721.60	252.71
721.93	252.51
722.27	252.54
722.60	252.36
722.93	252.02
723.26	251.79
723.59	251.54
723.93	251.35
724.26	251.11
724.59	250.92
724.92	250.72
725.25	250.51
725.59	250.25
725.92	250.08
726.25	249.86
726.58	249.72
726.91	249.46
727.24	249.24
727.57	249.01
727.91	248.73
728.24	248.54
728.57	248.32
728.90	248.17
729.23	247.75
729.56	247.75
729.89	247.65
730.22	247.46
730.55	247.25
730.89	247.09
731.22	246.85
731.55	246.55
731.88	246.33
732.21	246.09
732.54	245.88
732.87	245.68
733.20	245.55
733.53	245.33
733.86	245.23
734.19	245.02
734.52	244.91
734.85	245.11
735.18	244.84
735.51	244.78
735.84	244.62
736.17	244.61
736.50	244.19
736.83	244.54
737.16	244.42
737.49	244.30
737.82	244.15
738.15	244.00
738.48	243.90
738.81	243.74
739.14	243.61
739.47	243.51
739.80	243.41
740.13	243.24
740.46	242.98
740.79	242.75
741.12	242.62
741.45	242.45
741.78	242.07
742.11	242.14
742.44	241.93
742.77	241.87
743.10	241.72
743.43	241.50
743.75	240.80
744.08	241.27
744.41	241.14
744.74	241.00
745.07	240.77
745.40	240.84
745.73	240.95
746.06	240.89
746.39	240.74
746.71	240.54
747.04	240.33
747.37	240.23
747.70	240.24
748.03	240.18
748.36	240.09
748.68	239.92
749.01	239.68
749.34	239.55
749.67	239.45
750.00	239.36
750.33	239.69
750.65	239.76
750.98	239.08
751.31	239.01
751.64	238.86
751.97	239.09
752.29	238.89
752.62	238.59
752.95	238.50
753.28	238.35
753.60	238.26
753.93	238.32
754.26	238.37
754.59	238.14
754.91	238.00
755.24	237.91
755.57	237.88
755.90	237.77
756.22	237.69
756.55	237.56
756.88	237.40
757.20	236.94
757.53	236.64
757.86	236.52
758.19	236.45
758.51	236.36
758.84	236.03
759.17	235.89
759.49	235.83
759.82	235.94
760.15	235.98
760.47	235.86
760.80	235.65
761.13	235.55
761.45	235.48
761.78	235.40
762.11	235.20
762.43	235.10
762.76	234.97
763.08	234.89
763.41	234.81
763.74	234.74
764.06	234.68
764.39	234.67
764.71	234.55
765.04	234.39
765.37	234.29
765.69	234.17
766.02	234.08
766.34	233.96
766.67	233.57
767.00	233.55
767.32	233.76
767.65	233.91
767.97	233.84
768.30	233.83
768.62	233.75
768.95	233.73
769.27	233.60
769.60	233.58
769.92	233.41
770.25	233.21
770.57	232.95
770.90	232.85
771.22	232.73
771.55	232.70
771.87	232.67
772.20	232.59
772.52	232.94
772.85	233.49
773.17	233.41
773.50	233.40
773.82	233.24
774.15	232.95
774.47	232.65
774.80	232.47
775.12	232.34
775.45	232.24
775.77	232.24
776.09	232.20
776.42	232.20
776.74	232.35
777.07	232.30
777.39	232.30
777.72	232.30
778.04	232.24
778.36	232.14
778.69	232.07
779.01	232.03
779.33	231.57
779.66	230.90
779.98	230.87
780.31	230.86
780.63	231.02
780.95	231.00
781.28	230.94
781.60	230.84
781.92	230.79
782.25	230.85
782.57	230.81
782.89	230.74
783.22	230.63
783.54	230.40
783.86	230.45
784.19	230.43
784.51	230.47
784.83	230.35
785.16	230.29
785.48	230.23
785.80	230.28
786.12	230.31
786.45	230.32
786.77	230.31
787.09	230.28
787.42	230.13
787.74	230.12
788.06	230.15
788.38	230.23
788.71	230.19
789.03	230.11
789.35	230.12
789.67	230.11
789.99	230.14
790.32	230.14
790.64	230.14
790.96	230.50
791.28	230.32
791.61	230.37
791.93	230.43
792.25	230.39
792.57	230.60
792.89	230.51
793.21	230.56
793.54	230.45
793.86	230.36
794.18	230.29
794.50	230.13
794.82	230.09
795.14	230.14
795.47	230.25
795.79	230.20
796.11	230.09
796.43	229.94
796.75	229.93
797.07	229.85
797.39	229.80
797.71	229.44
798.04	229.52
798.36	229.48
798.68	229.42
799.00	229.43
799.32	229.22
799.64	229.29
799.96	229.20
800.28	229.29
800.60	229.20
800.92	229.23
801.24	229.27
801.56	229.36
801.89	229.22
802.21	229.19
802.53	229.08
802.85	229.11
803.17	229.37
803.49	229.25
803.81	229.31
804.13	229.26
804.45	229.22
804.77	229.17
805.09	229.13
805.41	229.05
805.73	228.95
806.05	228.80
806.37	228.72
806.69	228.65
807.01	228.61
807.33	228.66
807.65	228.52
807.97	228.75
808.28	228.54
808.60	228.59
808.92	228.44
809.24	228.72
809.56	228.60
809.88	228.41
810.20	228.43
810.52	228.42
810.84	228.36
811.16	228.34
811.48	228.24
811.80	228.42
812.12	228.42
812.43	228.50
812.75	228.54
813.07	228.50
813.39	228.53
813.71	228.40
814.03	228.34
814.35	228.33
814.67	228.08
814.98	228.16
815.30	228.03
815.62	228.06
815.94	227.74
816.26	228.00
816.58	227.87
816.89	227.91
817.21	227.73
817.53	227.74
817.85	227.70
818.17	227.73
818.48	227.51
818.80	227.67
819.12	227.58
819.44	227.44
819.76	227.34
820.07	227.31
820.39	227.36
820.71	227.32
821.03	227.37
821.34	227.31
821.66	227.25
821.98	227.37
822.30	227.34
822.61	227.62
822.93	227.38
823.25	227.45
823.57	227.39
823.88	227.61
824.20	227.65
824.52	227.75
824.83	227.70
825.15	227.69
825.47	227.56
825.79	227.63
826.10	227.62
826.42	227.62
826.74	227.70
827.05	227.65
827.37	227.68
827.69	227.57
828.00	227.58
828.32	227.66
828.64	227.52
828.95	227.71
829.27	227.58
829.58	227.57
829.90	227.60
830.22	227.57
830.53	227.42
830.85	227.33
831.17	227.15
831.48	227.21
831.80	227.22
832.11	227.25
832.43	227.21
832.75	227.24
833.06	227.51
833.38	227.36
833.69	227.31
834.01	227.38
834.32	227.43
834.64	227.42
834.96	227.43
835.27	227.45
835.59	227.32
835.90	227.25
836.22	227.22
836.53	227.06
836.85	227.02
837.16	227.55
837.48	227.63
837.79	227.80
838.11	227.82
838.42	227.81
838.74	227.83
839.05	227.81
839.37	227.81
839.68	227.61
840.00	227.61
840.31	227.71
840.63	227.70
840.94	227.67
841.26	227.61
841.57	227.52
841.88	227.57
842.20	227.48
842.51	227.40
842.83	227.39
843.14	227.95
843.46	227.96
843.77	227.63
844.08	227.54
844.40	227.34
844.71	227.29
845.03	227.26
845.34	227.18
845.65	227.11
845.97	227.08
846.28	227.02
846.60	227.05
846.91	226.95
847.22	226.87
847.54	226.97
847.85	226.99
848.16	226.98
848.48	226.88
848.79	227.10
849.10	227.23
849.42	227.26
849.73	226.70
850.04	226.68
850.36	226.47
850.67	226.54
850.98	226.55
851.30	226.55
851.61	226.51
851.92	226.54
852.23	226.72
852.55	226.74
852.86	226.74
853.17	226.75
853.49	226.84
853.80	226.94
854.11	226.91
854.42	226.96
854.74	226.88
855.05	226.90
855.36	226.64
855.67	226.52
855.99	226.53
856.30	227.20
856.61	227.20
856.92	227.26
857.23	227.23
857.55	227.16
857.86	227.10
858.17	227.19
858.48	227.12
858.79	226.97
859.11	226.99
859.42	226.97
859.73	226.90
860.04	226.87
860.35	226.69
860.66	226.54
860.98	226.47
861.29	226.62
861.60	226.58
861.91	226.65
862.22	226.55
862.53	226.47
862.84	225.83
863.16	225.87
863.47	225.70
863.78	225.62
864.09	225.77
864.40	225.77
864.71	225.75
865.02	225.78
865.33	225.71
865.64	225.59
865.95	225.61
866.27	225.95
866.58	225.95
866.89	225.99
867.20	226.08
867.51	226.05
867.82	225.93
868.13	226.09
868.44	225.97
868.75	226.15
869.06	226.21
869.37	226.24
869.68	226.11
869.99	226.30
870.30	226.38
870.61	226.41
870.92	226.36
871.23	226.29
871.54	226.34
871.85	226.52
872.16	226.65
872.47	226.56
872.78	226.24
873.09	226.23
873.40	226.21
873.71	226.15
874.02	226.20
874.33	226.18
874.64	226.07
874.95	226.21
875.26	226.13
875.56	226.10
875.87	226.11
876.18	226.17
876.49	226.63
876.80	226.57
877.11	226.43
877.42	226.56
877.73	226.70
878.04	226.62
878.35	226.60
878.66	226.65
878.96	226.70
879.27	226.71
879.58	226.73
879.89	226.69
880.20	226.87
880.51	226.80
880.82	226.80
881.12	226.84
881.43	226.72
881.74	226.65
882.05	226.62
882.36	226.66
882.67	226.65
882.97	226.14
883.28	226.08
883.59	226.04
883.90	226.02
884.21	226.00
884.51	226.02
884.82	225.94
885.13	225.86
885.44	225.89
885.74	225.87
886.05	225.82
886.36	225.87
886.67	225.69
886.98	225.95
887.28	226.02
887.59	226.06
887.90	226.09
888.20	226.05
888.51	226.19
888.82	226.04
889.13	226.13
889.43	226.45
889.74	226.52
890.05	226.54
890.35	226.48
890.66	226.35
890.97	226.33
891.28	226.25
891.58	226.28
891.89	226.21
892.20	226.23
892.50	226.19
892.81	226.20
893.12	226.15
893.42	225.94
893.73	225.88
894.04	225.83
894.34	225.80
894.65	225.76
894.95	225.64
895.26	225.72
895.57	225.87
895.87	225.47
896.18	225.51
896.48	225.52
896.79	225.50
897.10	225.57
897.40	225.59
897.71	225.64
898.01	225.62
898.32	225.73
898.63	225.68
898.93	225.78
899.24	225.78
899.54	225.77
899.85	225.74
900.15	225.77
900.46	225.75
900.76	225.89
901.07	225.92
901.38	225.98
901.68	226.06
901.99	225.85
902.29	225.84
902.60	225.85
902.90	225.91
903.21	226.00
903.51	225.92
903.82	225.99
904.12	226.06
904.43	226.05
904.73	226.02
905.03	226.07
905.34	226.46
905.64	226.39
905.95	226.44
906.25	226.45
906.56	226.44
906.86	226.49
907.17	226.42
907.47	226.45
907.77	226.38
908.08	226.29
908.38	226.28
908.69	226.35
908.99	226.35
909.30	226.34
909.60	226.30
909.90	226.46
910.21	226.33
910.51	226.27
910.81	226.25
911.12	226.22
911.42	226.22
911.73	225.70
912.03	225.81
912.33	225.95
912.64	225.95
912.94	225.95
913.24	225.83
913.55	225.79
913.85	225.84
914.15	225.97
914.46	225.97
914.76	225.94
915.06	225.90
915.37	225.85
915.67	225.80
915.97	225.76
916.27	225.58
916.58	225.67
916.88	225.67
917.18	225.67
917.49	226.08
917.79	226.15
918.09	226.25
918.39	226.36
918.70	226.24
919.00	226.35
919.30	226.52
919.60	226.56
919.91	226.48
920.21	226.46
920.51	226.38
920.81	226.40
921.12	226.45
921.42	226.50
921.72	226.56
922.02	226.66
922.32	226.75
922.63	226.77
922.93	226.98
923.23	227.00
923.53	227.01
923.83	226.67
924.13	226.71
924.44	226.75
924.74	226.80
925.04	226.97
925.34	226.95
925.64	226.70
925.94	226.72
926.24	227.03
926.55	227.01
926.85	227.06
927.15	227.04
927.45	227.09
927.75	227.11
928.05	227.12
928.35	227.06
928.65	227.11
928.95	227.20
929.26	226.96
929.56	227.07
929.86	227.08
930.16	227.06
930.46	226.92
930.76	226.91
931.06	226.64
931.36	226.50
931.66	226.52
931.96	226.66
932.26	226.68
932.56	226.52
932.86	226.58
933.16	226.56
933.46	226.50
933.76	226.45
934.06	226.53
934.36	226.66
934.66	226.65
934.96	226.71
935.26	226.72
935.56	226.79
935.86	226.60
936.16	226.59
936.46	226.48
936.76	226.48
937.06	226.38
937.36	226.48
937.66	226.45
937.96	226.45
938.26	226.29
938.56	226.25
938.86	226.21
939.16	226.27
939.46	226.26
939.76	226.31
940.06	226.25
940.35	226.09
940.65	225.91
940.95	225.96
941.25	225.77
941.55	225.70
941.85	225.65
942.15	225.76
942.45	225.84
942.75	225.88
943.04	225.95
943.34	226.05
943.64	226.01
943.94	225.92
944.24	225.90
944.54	225.99
944.84	226.01
945.13	225.99
945.43	225.94
945.73	225.97
946.03	225.92
946.33	225.90
946.62	225.92
946.92	225.83
947.22	225.82
947.52	225.78
947.82	225.84
948.11	225.80
948.41	225.80
948.71	225.62
949.01	225.59
949.31	225.51
949.60	225.50
949.90	225.60
950.20	225.70
950.50	225.72
950.79	225.71
951.09	225.74
951.39	225.65
951.69	225.57
951.98	225.64
952.28	225.69
952.58	225.72
952.87	225.77
953.17	225.85
953.47	225.86
953.76	225.89
954.06	225.86
954.36	225.85
954.66	225.77
954.95	225.99
955.25	226.08
955.55	226.09
955.84	226.02
956.14	226.10
956.44	226.12
956.73	226.02
957.03	226.02
957.32	226.05
957.62	226.10
957.92	226.28
958.21	226.22
958.51	226.82
958.81	226.94
959.10	226.91
959.40	227.02
959.69	226.99
959.99	227.10
960.29	227.10
960.58	227.09
960.88	227.32
961.17	227.25
961.47	227.24
961.76	227.20
962.06	227.26
962.36	227.08
962.65	227.09
962.95	227.12
963.24	227.05
963.54	227.06
963.83	227.05
964.13	226.95
964.42	226.85
964.72	226.40
965.01	226.34
965.31	226.35
965.60	226.20
965.90	226.48
966.19	226.41
966.49	226.40
966.78	226.44
967.08	226.35
967.37	226.30
967.67	226.26
967.96	226.39
968.26	226.45
968.55	226.52
968.85	226.44
969.14	226.43
969.43	226.52
969.73	226.39
970.02	226.49
970.32	226.50
970.61	226.52
970.91	226.42
971.20	226.35
971.49	226.20
971.79	226.32
972.08	225.96
972.38	225.96
972.67	225.93
972.96	225.90
973.26	225.86
973.55	226.06
973.85	226.02
974.14	225.91
974.43	225.81
974.73	225.73
975.02	225.70
975.31	225.73
975.61	225.70
975.90	225.70
976.19	225.62
976.49	225.62
976.78	225.60
977.07	225.59
977.37	225.60
977.66	225.75
977.95	225.63
978.24	225.67
978.54	225.75
978.83	225.77
979.12	225.72
979.42	225.63
979.71	225.49
980.00	225.45
980.29	225.55
980.59	225.53
980.88	225.65
981.17	225.70
981.46	225.70
981.76	225.64
982.05	225.81
982.34	225.76
982.63	225.78
982.93	225.77
983.22	225.89
983.51	225.91
983.80	225.90
984.09	225.92
984.39	225.94
984.68	225.90
984.97	225.86
985.26	225.85
985.55	225.95
985.85	225.80
986.14	225.90
986.43	225.90
986.72	225.90
987.01	225.71
987.30	225.66
987.59	225.61
987.89	225.65
988.18	225.52
988.47	225.51
988.76	225.47
989.05	225.46
989.34	225.41
989.63	225.54
989.92	225.52
990.22	225.48
990.51	225.47
990.80	225.45
991.09	225.49
991.38	225.58
991.67	225.48
991.96	225.59
992.25	225.60
992.54	225.50
992.83	225.47
993.12	225.55
993.41	225.63
993.70	225.87
993.99	226.00
994.28	225.99
994.58	226.10
994.87	226.05
995.16	226.03
995.45	225.96
995.74	225.75
996.03	225.89
996.32	225.98
996.61	226.10
996.90	226.02
997.19	226.04
997.48	226.04
997.77	226.04
998.06	226.05
998.34	225.97
998.63	226.02
998.92	226.07
999.21	226.12
999.50	226.13
999.79	225.90
1000.08	225.82
1000.37	225.85
1000.66	225.80
1000.95	225.93
1001.24	226.04
1001.53	226.08
1001.82	226.07
1002.11	225.94
1002.40	225.99
1002.68	226.10
1002.97	226.47
1003.26	226.37
1003.55	226.30
1003.84	226.38
1004.13	226.48
1004.42	226.46
1004.71	226.36
1004.99	226.36
1005.28	226.54
1005.57	226.48
1005.86	226.43
1006.15	226.35
1006.44	226.27
1006.72	226.28
1007.01	226.17
1007.30	226.10
1007.59	226.10
1007.88	226.08
1008.17	226.08
1008.45	225.93
1008.74	225.67
1009.03	225.43
1009.32	225.53
1009.60	225.52
1009.89	225.49
1010.18	225.33
1010.47	225.39
1010.76	225.50
1011.04	225.44
1011.33	225.35
1011.62	225.35
1011.91	225.45
1012.19	225.52
1012.48	225.51
1012.77	225.58
1013.05	225.78
1013.34	225.79
1013.63	225.75
1013.92	225.80
1014.20	225.81
1014.49	225.89
1014.78	225.92
1015.06	225.75
1015.35	225.68
1015.64	225.73
1015.92	225.75
1016.21	225.79
1016.50	225.81
1016.78	225.84
1017.07	225.86
1017.36	225.76
1017.64	225.65
1017.93	225.65
1018.22	225.65
1018.50	225.73
1018.79	225.62
1019.08	225.39
1019.36	225.39
1019.65	225.32
1019.93	225.50
1020.22	225.60
1020.51	225.81
1020.79	225.78
1021.08	226.05
1021.36	225.55
1021.65	225.20
1021.94	224.85
1022.22	225.25
1022.51	224.15
1022.79	228.40
1023.08	227.75
1023.36	230.85
1023.65	224.50
>>>>>End Processed Spectral Data<<<<<
