SpectraSuite Data File
++++++++++++++++++++++++++++++++++++
Date: Wed Sep 04 18:04:56 EDT 2013
User: lab3
Dark Spectrum Present: Yes
Reference Spectrum Present: No
Number of Sampled Component Spectra: 1
Spectrometers: USB2E7196
Integration Time (usec): 170000 (USB2E7196)
Spectra Averaged: 20 (USB2E7196)
Boxcar Smoothing: 10 (USB2E7196)
Correct for Electrical Dark: No (USB2E7196)
Strobe/Lamp Enabled: No (USB2E7196)
Correct for Detector Non-linearity: No (USB2E7196)
Correct for Stray Light: No (USB2E7196)
Number of Pixels in Processed Spectrum: 2048
>>>>>Begin Processed Spectral Data<<<<<
339.09	0.00
339.48	213.55
339.86	215.40
340.24	216.40
340.63	219.50
341.01	226.45
341.39	220.10
341.78	223.10
342.16	224.85
342.54	223.30
342.93	212.75
343.31	223.51
343.69	224.07
344.07	224.51
344.46	225.03
344.84	225.40
345.22	225.34
345.60	225.66
345.99	225.82
346.37	225.92
346.75	226.09
347.13	226.12
347.52	226.19
347.90	226.35
348.28	226.44
348.66	226.68
349.05	226.56
349.43	226.67
349.81	226.75
350.19	226.80
350.57	226.89
350.96	227.04
351.34	227.12
351.72	227.24
352.10	227.35
352.48	227.40
352.87	227.38
353.25	227.46
353.63	227.44
354.01	227.50
354.39	227.56
354.77	227.56
355.15	227.78
355.54	227.85
355.92	227.76
356.30	227.84
356.68	228.18
357.06	228.30
357.44	228.21
357.82	228.19
358.20	228.62
358.58	228.71
358.97	228.75
359.35	228.89
359.73	228.98
360.11	229.10
360.49	229.10
360.87	229.18
361.25	229.28
361.63	229.55
362.01	229.59
362.39	229.58
362.77	229.66
363.15	229.63
363.53	229.62
363.91	229.70
364.29	229.83
364.67	229.38
365.05	229.43
365.43	229.55
365.81	229.72
366.19	229.61
366.57	229.81
366.95	229.75
367.33	229.67
367.71	229.71
368.09	229.75
368.47	229.79
368.85	229.79
369.23	229.82
369.61	229.68
369.99	229.85
370.37	229.96
370.75	230.21
371.13	230.13
371.51	230.10
371.89	230.20
372.27	230.14
372.65	230.20
373.03	230.18
373.41	230.18
373.78	230.06
374.16	229.72
374.54	229.60
374.92	229.56
375.30	229.45
375.68	229.24
376.06	229.33
376.44	229.23
376.82	229.13
377.19	229.11
377.57	229.01
377.95	228.82
378.33	228.69
378.71	228.33
379.09	228.25
379.47	228.27
379.84	228.05
380.22	227.91
380.60	227.68
380.98	227.56
381.36	227.40
381.73	227.34
382.11	227.45
382.49	227.27
382.87	227.17
383.25	227.14
383.62	227.73
384.00	227.46
384.38	227.46
384.76	227.55
385.13	227.72
385.51	227.69
385.89	227.54
386.27	227.45
386.64	227.49
387.02	227.45
387.40	227.34
387.78	227.39
388.15	227.40
388.53	227.42
388.91	227.37
389.29	227.33
389.66	227.30
390.04	227.19
390.42	227.33
390.79	227.34
391.17	227.34
391.55	226.80
391.92	226.82
392.30	226.78
392.68	226.66
393.05	226.56
393.43	226.60
393.81	226.66
394.18	226.73
394.56	226.82
394.94	226.94
395.31	226.95
395.69	227.07
396.06	227.15
396.44	227.18
396.82	227.20
397.19	227.49
397.57	227.52
397.95	227.61
398.32	227.49
398.70	227.63
399.07	227.83
399.45	227.82
399.82	227.84
400.20	227.93
400.58	228.08
400.95	227.96
401.33	228.15
401.70	228.61
402.08	228.67
402.45	228.70
402.83	228.92
403.20	229.10
403.58	229.17
403.95	229.46
404.33	229.72
404.71	229.98
405.08	230.39
405.46	230.66
405.83	231.00
406.21	231.22
406.58	231.51
406.96	231.77
407.33	232.15
407.70	232.49
408.08	233.20
408.45	233.64
408.83	234.18
409.20	234.47
409.58	234.66
409.95	235.33
410.33	235.88
410.70	236.30
411.08	236.91
411.45	237.61
411.82	238.13
412.20	238.91
412.57	239.96
412.95	240.32
413.32	241.18
413.69	241.98
414.07	242.97
414.44	243.84
414.82	244.87
415.19	246.09
415.56	247.38
415.94	248.39
416.31	249.82
416.68	251.24
417.06	252.88
417.43	254.52
417.81	256.17
418.18	258.00
418.55	259.87
418.93	261.88
419.30	263.96
419.67	266.18
420.04	268.44
420.42	270.70
420.79	273.77
421.16	276.53
421.54	279.60
421.91	282.60
422.28	285.70
422.66	288.99
423.03	292.44
423.40	295.83
423.77	299.51
424.15	303.10
424.52	306.93
424.89	311.16
425.26	315.06
425.64	318.83
426.01	323.19
426.38	327.65
426.75	332.26
427.13	336.86
427.50	341.67
427.87	346.66
428.24	351.58
428.61	356.19
428.99	361.60
429.36	367.02
429.73	372.63
430.10	378.27
430.47	383.97
430.85	389.59
431.22	395.70
431.59	402.49
431.96	408.80
432.33	415.92
432.70	422.60
433.08	430.59
433.45	438.21
433.82	445.58
434.19	453.85
434.56	461.90
434.93	469.46
435.30	477.42
435.68	486.18
436.05	494.63
436.42	503.10
436.79	510.85
437.16	519.24
437.53	528.13
437.90	536.96
438.27	545.62
438.64	554.75
439.01	563.22
439.38	570.52
439.75	577.68
440.13	585.75
440.50	593.29
440.87	599.44
441.24	605.97
441.61	613.16
441.98	618.16
442.35	624.01
442.72	630.25
443.09	636.06
443.46	639.32
443.83	641.73
444.20	643.62
444.57	646.25
444.94	647.40
445.31	648.36
445.68	649.67
446.05	649.82
446.42	648.43
446.79	646.89
447.16	645.16
447.53	643.85
447.90	639.94
448.27	636.34
448.64	631.41
449.01	627.51
449.37	621.16
449.74	615.21
450.11	608.35
450.48	600.52
450.85	592.44
451.22	585.58
451.59	578.88
451.96	572.55
452.33	564.38
452.70	556.93
453.07	548.20
453.43	539.08
453.80	530.53
454.17	522.37
454.54	514.66
454.91	506.31
455.28	498.39
455.65	490.85
456.02	483.88
456.38	477.44
456.75	469.67
457.12	463.05
457.49	456.73
457.86	450.36
458.23	445.24
458.59	439.34
458.96	433.52
459.33	428.38
459.70	423.26
460.07	419.18
460.43	414.42
460.80	410.10
461.17	406.29
461.54	402.47
461.91	398.62
462.27	394.76
462.64	391.59
463.01	387.90
463.38	384.65
463.74	380.58
464.11	377.56
464.48	374.89
464.85	371.88
465.21	369.60
465.58	367.38
465.95	364.43
466.32	362.20
466.68	359.97
467.05	357.76
467.42	355.44
467.78	353.05
468.15	350.92
468.52	349.40
468.88	347.12
469.25	345.02
469.62	343.66
469.98	342.01
470.35	340.50
470.72	339.07
471.08	337.44
471.45	336.20
471.82	334.88
472.18	333.47
472.55	332.55
472.92	331.23
473.28	330.02
473.65	329.06
474.02	328.01
474.38	327.11
474.75	326.40
475.11	325.61
475.48	325.10
475.85	324.50
476.21	323.79
476.58	323.26
476.94	322.90
477.31	322.27
477.67	321.82
478.04	321.44
478.41	321.21
478.77	321.48
479.14	321.16
479.50	321.11
479.87	321.11
480.23	321.11
480.60	321.23
480.96	321.16
481.33	321.49
481.69	321.71
482.06	321.97
482.42	322.11
482.79	322.48
483.15	322.75
483.52	323.40
483.88	323.84
484.25	324.40
484.61	325.14
484.98	325.86
485.34	326.93
485.71	327.86
486.07	328.77
486.44	329.34
486.80	330.45
487.17	331.55
487.53	332.89
487.90	334.25
488.26	335.75
488.62	337.48
488.99	338.97
489.35	340.71
489.72	342.53
490.08	344.63
490.44	346.51
490.81	348.80
491.17	350.93
491.54	353.44
491.90	356.15
492.26	358.76
492.63	361.55
492.99	364.31
493.36	367.44
493.72	370.74
494.08	374.19
494.45	377.91
494.81	381.80
495.17	385.74
495.54	390.06
495.90	394.32
496.26	398.78
496.63	403.46
496.99	408.27
497.35	413.27
497.72	418.49
498.08	424.06
498.44	429.87
498.80	435.91
499.17	442.06
499.53	448.22
499.89	454.81
500.26	461.58
500.62	468.62
500.98	476.00
501.34	483.60
501.71	491.27
502.07	499.08
502.43	507.21
502.79	515.57
503.16	524.15
503.52	533.30
503.88	542.59
504.24	552.11
504.60	562.17
504.97	572.50
505.33	583.04
505.69	594.27
506.05	605.15
506.41	616.42
506.78	628.17
507.14	640.25
507.50	652.52
507.86	665.24
508.22	678.29
508.59	691.32
508.95	704.96
509.31	719.15
509.67	733.58
510.03	748.04
510.39	762.78
510.75	777.91
511.12	793.09
511.48	808.74
511.84	824.60
512.20	840.33
512.56	856.67
512.92	873.26
513.28	889.82
513.64	907.33
514.00	924.91
514.37	942.53
514.73	960.72
515.09	979.23
515.45	997.63
515.81	1016.15
516.17	1035.01
516.53	1053.67
516.89	1072.59
517.25	1092.07
517.61	1112.03
517.97	1132.34
518.33	1152.55
518.69	1172.90
519.05	1193.46
519.41	1214.28
519.77	1235.82
520.13	1256.60
520.49	1277.45
520.85	1300.26
521.21	1321.25
521.57	1342.82
521.93	1363.66
522.29	1385.08
522.65	1405.74
523.01	1426.84
523.37	1447.34
523.73	1468.57
524.09	1489.35
524.45	1509.97
524.81	1530.78
525.17	1551.68
525.53	1572.50
525.89	1593.35
526.25	1614.13
526.61	1634.66
526.97	1655.99
527.33	1677.33
527.68	1699.45
528.04	1720.75
528.40	1740.35
528.76	1761.53
529.12	1781.82
529.48	1802.77
529.84	1822.63
530.20	1843.92
530.56	1864.91
530.91	1886.42
531.27	1906.90
531.63	1927.61
531.99	1948.63
532.35	1968.66
532.71	1989.09
533.07	2009.83
533.42	2029.81
533.78	2050.00
534.14	2070.24
534.50	2089.38
534.86	2108.37
535.21	2125.95
535.57	2145.01
535.93	2162.96
536.29	2180.83
536.65	2198.95
537.00	2216.64
537.36	2234.69
537.72	2251.70
538.08	2269.18
538.44	2285.82
538.79	2302.23
539.15	2318.91
539.51	2334.77
539.87	2350.15
540.22	2364.32
540.58	2378.70
540.94	2392.26
541.29	2405.16
541.65	2417.64
542.01	2430.30
542.37	2441.18
542.72	2452.56
543.08	2462.97
543.44	2474.55
543.79	2484.90
544.15	2495.24
544.51	2505.45
544.87	2514.87
545.22	2523.60
545.58	2531.27
545.94	2538.78
546.29	2545.93
546.65	2552.16
547.01	2557.52
547.36	2563.58
547.72	2569.09
548.07	2573.23
548.43	2578.79
548.79	2583.36
549.14	2587.76
549.50	2591.32
549.86	2595.54
550.21	2599.20
550.57	2602.70
550.92	2604.24
551.28	2605.61
551.64	2607.65
551.99	2609.86
552.35	2611.96
552.70	2613.63
553.06	2615.18
553.41	2616.32
553.77	2618.12
554.13	2620.28
554.48	2622.49
554.84	2623.85
555.19	2625.54
555.55	2627.18
555.90	2626.09
556.26	2625.59
556.61	2623.91
556.97	2622.21
557.32	2621.75
557.68	2620.82
558.03	2619.42
558.39	2618.29
558.74	2617.98
559.10	2615.10
559.45	2611.67
559.81	2606.91
560.16	2602.27
560.52	2597.68
560.87	2593.16
561.23	2587.57
561.58	2581.34
561.94	2574.32
562.29	2566.85
562.64	2559.48
563.00	2551.41
563.35	2545.25
563.71	2538.69
564.06	2532.82
564.42	2526.37
564.77	2519.40
565.12	2511.80
565.48	2504.30
565.83	2496.49
566.19	2488.18
566.54	2480.58
566.89	2472.44
567.25	2464.95
567.60	2457.78
567.96	2450.13
568.31	2442.13
568.66	2433.52
569.02	2424.59
569.37	2416.53
569.72	2409.01
570.08	2399.84
570.43	2390.12
570.78	2381.09
571.14	2371.44
571.49	2361.22
571.84	2351.41
572.20	2340.28
572.55	2330.48
572.90	2319.51
573.26	2309.36
573.61	2298.13
573.96	2286.60
574.31	2274.84
574.67	2263.06
575.02	2250.49
575.37	2237.53
575.72	2224.42
576.08	2212.19
576.43	2199.52
576.78	2186.43
577.13	2172.68
577.49	2159.86
577.84	2148.16
578.19	2135.99
578.54	2123.55
578.90	2111.73
579.25	2099.28
579.60	2086.95
579.95	2073.47
580.30	2060.11
580.66	2046.22
581.01	2032.82
581.36	2019.18
581.71	2006.24
582.06	1993.57
582.42	1980.77
582.77	1968.48
583.12	1956.55
583.47	1944.05
583.82	1932.01
584.17	1919.96
584.53	1908.23
584.88	1895.34
585.23	1882.12
585.58	1867.41
585.93	1853.97
586.28	1839.88
586.63	1825.95
586.98	1811.55
587.34	1798.29
587.69	1785.16
588.04	1772.75
588.39	1760.36
588.74	1747.72
589.09	1735.42
589.44	1722.24
589.79	1709.82
590.14	1697.76
590.49	1685.37
590.84	1673.17
591.19	1661.02
591.54	1648.45
591.89	1636.13
592.25	1625.77
592.60	1614.12
592.95	1603.03
593.30	1591.00
593.65	1579.45
594.00	1567.28
594.35	1557.55
594.70	1545.42
595.05	1533.93
595.40	1521.61
595.75	1509.57
596.10	1498.35
596.45	1486.73
596.80	1475.85
597.15	1464.29
597.50	1452.33
597.85	1440.87
598.19	1429.17
598.54	1417.38
598.89	1406.23
599.24	1395.67
599.59	1383.99
599.94	1372.95
600.29	1362.27
600.64	1351.92
600.99	1340.86
601.34	1331.55
601.69	1320.26
602.04	1310.31
602.39	1300.65
602.74	1291.45
603.08	1281.95
603.43	1272.69
603.78	1262.94
604.13	1253.06
604.48	1243.43
604.83	1233.44
605.18	1223.54
605.53	1213.86
605.87	1204.70
606.22	1195.98
606.57	1186.29
606.92	1176.75
607.27	1167.89
607.62	1159.17
607.96	1150.53
608.31	1142.44
608.66	1133.79
609.01	1125.10
609.36	1116.68
609.70	1107.85
610.05	1098.82
610.40	1090.35
610.75	1081.55
611.10	1072.98
611.44	1064.35
611.79	1055.99
612.14	1048.28
612.49	1040.26
612.83	1032.97
613.18	1025.11
613.53	1017.28
613.88	1009.31
614.22	1001.62
614.57	993.65
614.92	985.56
615.27	978.04
615.61	970.27
615.96	962.37
616.31	954.74
616.65	947.49
617.00	940.08
617.35	932.83
617.70	925.43
618.04	918.19
618.39	911.25
618.74	904.84
619.08	897.99
619.43	890.79
619.78	883.81
620.12	876.57
620.47	869.72
620.82	862.45
621.16	855.52
621.51	849.13
621.85	842.73
622.20	836.16
622.55	829.11
622.89	822.62
623.24	816.11
623.59	809.57
623.93	803.36
624.28	797.25
624.62	791.55
624.97	785.70
625.32	780.01
625.66	774.09
626.01	767.85
626.35	762.31
626.70	756.69
627.04	751.43
627.39	745.81
627.73	740.51
628.08	735.20
628.43	729.72
628.77	724.00
629.12	718.52
629.46	713.72
629.81	709.25
630.15	704.35
630.50	699.66
630.84	694.76
631.19	689.85
631.53	685.18
631.88	679.99
632.22	675.09
632.57	670.34
632.91	665.66
633.26	661.28
633.60	656.54
633.95	651.82
634.29	646.95
634.64	642.40
634.98	637.59
635.32	633.20
635.67	629.12
636.01	624.85
636.36	620.46
636.70	616.35
637.05	611.98
637.39	607.84
637.73	603.50
638.08	599.40
638.42	595.16
638.77	590.90
639.11	586.48
639.45	582.19
639.80	577.72
640.14	573.50
640.49	569.31
640.83	565.40
641.17	561.72
641.52	557.92
641.86	554.32
642.20	550.90
642.55	547.18
642.89	543.58
643.23	540.22
643.58	537.03
643.92	533.17
644.26	529.73
644.61	526.43
644.95	523.20
645.29	519.95
645.64	516.86
645.98	513.72
646.32	510.85
646.66	507.73
647.01	504.81
647.35	502.19
647.69	499.26
648.04	496.30
648.38	493.45
648.72	490.71
649.06	487.52
649.41	484.30
649.75	481.26
650.09	478.38
650.43	475.33
650.78	472.32
651.12	469.52
651.46	466.75
651.80	463.96
652.14	461.12
652.49	458.60
652.83	455.88
653.17	453.08
653.51	450.30
653.85	447.87
654.20	445.31
654.54	442.47
654.88	439.86
655.22	437.66
655.56	435.23
655.90	432.68
656.25	430.55
656.59	428.36
656.93	426.25
657.27	424.21
657.61	421.80
657.95	419.63
658.29	417.42
658.64	415.20
658.98	412.87
659.32	410.70
659.66	408.37
660.00	406.19
660.34	404.05
660.68	402.05
661.02	399.92
661.36	397.98
661.70	396.00
662.05	394.11
662.39	392.05
662.73	390.18
663.07	388.58
663.41	386.72
663.75	384.82
664.09	382.92
664.43	380.81
664.77	379.15
665.11	377.43
665.45	375.77
665.79	374.10
666.13	372.44
666.47	370.74
666.81	369.09
667.15	367.37
667.49	365.95
667.83	364.59
668.17	363.14
668.51	361.70
668.85	360.30
669.19	359.11
669.53	357.54
669.87	355.99
670.21	354.50
670.55	353.06
670.89	351.89
671.23	350.51
671.57	349.17
671.91	347.79
672.25	346.40
672.58	345.21
672.92	343.77
673.26	342.51
673.60	341.28
673.94	340.16
674.28	339.09
674.62	337.91
674.96	336.56
675.30	335.38
675.64	334.11
675.97	332.96
676.31	331.60
676.65	330.42
676.99	329.43
677.33	328.22
677.67	327.11
678.01	325.82
678.34	324.80
678.68	323.86
679.02	322.82
679.36	321.75
679.70	320.65
680.04	319.72
680.37	318.77
680.71	317.77
681.05	316.81
681.39	315.92
681.73	314.89
682.06	313.92
682.40	313.03
682.74	312.23
683.08	311.57
683.42	310.62
683.75	309.88
684.09	308.91
684.43	308.09
684.77	307.20
685.10	306.40
685.44	305.55
685.78	304.71
686.12	303.94
686.45	303.17
686.79	302.34
687.13	301.65
687.46	300.84
687.80	300.23
688.14	299.37
688.48	298.51
688.81	297.75
689.15	297.18
689.49	296.37
689.82	295.67
690.16	294.71
690.50	294.01
690.83	293.21
691.17	292.49
691.51	291.73
691.84	291.14
692.18	290.48
692.52	289.87
692.85	289.20
693.19	288.82
693.52	288.28
693.86	287.60
694.20	286.95
694.53	286.45
694.87	285.81
695.21	285.18
695.54	284.55
695.88	283.96
696.21	283.18
696.55	282.68
696.88	281.94
697.22	281.34
697.56	280.91
697.89	280.31
698.23	279.85
698.56	279.29
698.90	278.81
699.23	278.25
699.57	277.62
699.90	277.07
700.24	276.34
700.58	275.85
700.91	275.50
701.25	275.34
701.58	275.21
701.92	274.77
702.25	274.35
702.59	273.99
702.92	273.50
703.26	273.12
703.59	272.64
703.93	272.69
704.26	272.33
704.60	271.88
704.93	271.45
705.26	270.97
705.60	270.73
705.93	270.18
706.27	269.89
706.60	269.73
706.94	269.56
707.27	269.12
707.61	268.75
707.94	268.31
708.27	267.62
708.61	266.77
708.94	266.28
709.28	265.86
709.61	265.36
709.94	265.11
710.28	264.80
710.61	264.44
710.95	263.65
711.28	263.57
711.61	263.17
711.95	262.94
712.28	262.55
712.61	262.12
712.95	262.07
713.28	261.94
713.61	261.41
713.95	260.86
714.28	260.58
714.61	260.17
714.95	259.85
715.28	259.40
715.61	259.05
715.95	258.84
716.28	258.54
716.61	258.34
716.95	257.99
717.28	257.72
717.61	257.33
717.94	257.08
718.28	256.43
718.61	256.13
718.94	255.79
719.27	255.50
719.61	255.25
719.94	254.87
720.27	254.34
720.60	254.07
720.94	253.91
721.27	253.74
721.60	253.57
721.93	253.25
722.27	253.19
722.60	253.07
722.93	252.71
723.26	252.50
723.59	252.28
723.93	252.05
724.26	251.82
724.59	251.62
724.92	251.43
725.25	251.35
725.59	251.12
725.92	250.96
726.25	250.79
726.58	250.62
726.91	250.36
727.24	250.25
727.57	250.03
727.91	249.77
728.24	249.61
728.57	249.39
728.90	249.28
729.23	248.94
729.56	248.91
729.89	248.76
730.22	248.53
730.55	248.28
730.89	248.15
731.22	247.95
731.55	247.77
731.88	247.59
732.21	247.32
732.54	247.07
732.87	246.92
733.20	246.73
733.53	246.61
733.86	246.40
734.19	246.18
734.52	246.09
734.85	246.18
735.18	245.95
735.51	245.92
735.84	245.81
736.17	245.82
736.50	245.55
736.83	245.96
737.16	245.83
737.49	245.67
737.82	245.39
738.15	245.29
738.48	245.21
738.81	244.95
739.14	244.80
739.47	244.68
739.80	244.47
740.13	244.46
740.46	244.17
740.79	244.01
741.12	243.88
741.45	243.67
741.78	243.31
742.11	243.29
742.44	242.97
742.77	242.85
743.10	242.57
743.43	242.30
743.75	241.65
744.08	242.10
744.41	241.98
744.74	241.85
745.07	241.58
745.40	241.48
745.73	241.67
746.06	241.49
746.39	241.42
746.71	241.30
747.04	241.03
747.37	240.89
747.70	240.85
748.03	240.72
748.36	240.68
748.68	240.53
749.01	240.28
749.34	240.24
749.67	240.15
750.00	240.07
750.33	240.33
750.65	240.27
750.98	239.62
751.31	239.49
751.64	239.45
751.97	239.60
752.29	239.39
752.62	239.01
752.95	238.89
753.28	238.68
753.60	238.55
753.93	238.54
754.26	238.51
754.59	238.25
754.91	238.15
755.24	238.00
755.57	237.96
755.90	237.79
756.22	237.69
756.55	237.51
756.88	237.41
757.20	236.97
757.53	236.76
757.86	236.65
758.19	236.59
758.51	236.42
758.84	236.10
759.17	236.04
759.49	236.00
759.82	236.16
760.15	236.19
760.47	236.10
760.80	235.97
761.13	235.88
761.45	235.74
761.78	235.60
762.11	235.54
762.43	235.40
762.76	235.37
763.08	235.31
763.41	235.25
763.74	235.15
764.06	235.11
764.39	235.02
764.71	234.94
765.04	234.89
765.37	234.80
765.69	234.74
766.02	234.63
766.34	234.50
766.67	234.24
767.00	234.23
767.32	234.42
767.65	234.62
767.97	234.50
768.30	234.54
768.62	234.53
768.95	234.38
769.27	234.29
769.60	234.31
769.92	234.20
770.25	234.06
770.57	234.01
770.90	233.95
771.22	233.84
771.55	233.83
771.87	233.73
772.20	233.66
772.52	234.00
772.85	234.55
773.17	234.51
773.50	234.48
773.82	234.38
774.15	234.13
774.47	233.79
774.80	233.76
775.12	233.73
775.45	233.70
775.77	233.75
776.09	233.75
776.42	233.64
776.74	233.71
777.07	233.70
777.39	233.61
777.72	233.52
778.04	233.56
778.36	233.43
778.69	233.42
779.01	233.49
779.33	233.03
779.66	232.40
779.98	232.36
780.31	232.30
780.63	232.45
780.95	232.42
781.28	232.36
781.60	232.30
781.92	232.24
782.25	232.15
782.57	232.03
782.89	231.90
783.22	231.80
783.54	231.66
783.86	231.64
784.19	231.53
784.51	231.66
784.83	231.56
785.16	231.50
785.48	231.43
785.80	231.32
786.12	231.36
786.45	231.40
786.77	231.39
787.09	231.33
787.42	231.14
787.74	231.13
788.06	231.08
788.38	231.00
788.71	230.95
789.03	230.96
789.35	231.04
789.67	230.96
789.99	231.01
790.32	230.89
790.64	230.85
790.96	231.25
791.28	231.02
791.61	230.92
791.93	231.00
792.25	230.95
792.57	231.22
792.89	231.10
793.21	230.96
793.54	230.83
793.86	230.77
794.18	230.76
794.50	230.62
794.82	230.57
795.14	230.65
795.47	230.70
795.79	230.63
796.11	230.50
796.43	230.44
796.75	230.38
797.07	230.37
797.39	230.36
797.71	229.97
798.04	229.98
798.36	229.99
798.68	229.90
799.00	229.87
799.32	229.61
799.64	229.67
799.96	229.70
800.28	229.77
800.60	229.67
800.92	229.65
801.24	229.58
801.56	229.62
801.89	229.51
802.21	229.45
802.53	229.32
802.85	229.36
803.17	229.66
803.49	229.60
803.81	229.59
804.13	229.51
804.45	229.46
804.77	229.45
805.09	229.47
805.41	229.40
805.73	229.33
806.05	229.20
806.37	229.19
806.69	229.15
807.01	229.11
807.33	229.16
807.65	228.97
807.97	229.23
808.28	229.12
808.60	229.23
808.92	229.17
809.24	229.55
809.56	229.48
809.88	229.24
810.20	229.26
810.52	229.30
810.84	229.26
811.16	229.20
811.48	229.19
811.80	229.30
812.12	229.35
812.43	229.46
812.75	229.47
813.07	229.38
813.39	229.38
813.71	229.36
814.03	229.37
814.35	229.44
814.67	229.23
814.98	229.19
815.30	229.06
815.62	229.00
815.94	228.56
816.26	228.80
816.58	228.68
816.89	228.63
817.21	228.58
817.53	228.60
817.85	228.62
818.17	228.58
818.48	228.47
818.80	228.50
819.12	228.37
819.44	228.30
819.76	228.24
820.07	228.20
820.39	228.13
820.71	228.20
821.03	228.17
821.34	228.15
821.66	228.24
821.98	228.32
822.30	228.27
822.61	228.67
822.93	228.39
823.25	228.38
823.57	228.40
823.88	228.46
824.20	228.41
824.52	228.51
824.83	228.43
825.15	228.37
825.47	228.30
825.79	228.38
826.10	228.47
826.42	228.48
826.74	228.57
827.05	228.50
827.37	228.39
827.69	228.38
828.00	228.37
828.32	228.31
828.64	228.23
828.95	228.49
829.27	228.30
829.58	228.34
829.90	228.49
830.22	228.47
830.53	228.36
830.85	228.30
831.17	228.17
831.48	228.26
831.80	228.20
832.11	228.19
832.43	228.12
832.75	228.08
833.06	228.32
833.38	228.17
833.69	228.25
834.01	228.26
834.32	228.21
834.64	228.15
834.96	228.16
835.27	228.11
835.59	227.94
835.90	227.89
836.22	227.82
836.53	227.62
836.85	227.59
837.16	228.06
837.48	228.09
837.79	228.18
838.11	228.12
838.42	228.09
838.74	228.16
839.05	228.08
839.37	228.05
839.68	227.74
840.00	227.71
840.31	227.77
840.63	227.80
840.94	227.75
841.26	227.72
841.57	227.71
841.88	227.75
842.20	227.68
842.51	227.55
842.83	227.57
843.14	228.02
843.46	227.99
843.77	227.70
844.08	227.66
844.40	227.54
844.71	227.50
845.03	227.41
845.34	227.31
845.65	227.34
845.97	227.33
846.28	227.32
846.60	227.31
846.91	227.17
847.22	227.08
847.54	227.21
847.85	227.19
848.16	227.16
848.48	227.06
848.79	227.26
849.10	227.29
849.42	227.26
849.73	226.86
850.04	226.92
850.36	226.71
850.67	226.83
850.98	226.85
851.30	226.91
851.61	227.00
851.92	227.02
852.23	227.20
852.55	227.20
852.86	227.24
853.17	227.36
853.49	227.55
853.80	227.67
854.11	227.70
854.42	227.88
854.74	227.87
855.05	227.93
855.36	227.66
855.67	227.72
855.99	227.81
856.30	228.41
856.61	228.33
856.92	228.41
857.23	228.37
857.55	228.32
857.86	228.27
858.17	228.28
858.48	228.22
858.79	228.08
859.11	228.19
859.42	228.25
859.73	228.18
860.04	228.07
860.35	227.99
860.66	227.85
860.98	227.80
861.29	227.84
861.60	227.83
861.91	228.04
862.22	228.04
862.53	227.95
862.84	227.34
863.16	227.54
863.47	227.48
863.78	227.50
864.09	227.57
864.40	227.61
864.71	227.69
865.02	227.71
865.33	227.71
865.64	227.59
865.95	227.54
866.27	227.86
866.58	227.85
866.89	227.88
867.20	227.91
867.51	227.83
867.82	227.86
868.13	227.99
868.44	227.84
868.75	227.88
869.06	227.87
869.37	227.95
869.68	227.73
869.99	227.74
870.30	227.80
870.61	227.82
870.92	227.72
871.23	227.66
871.54	227.73
871.85	227.80
872.16	227.84
872.47	227.82
872.78	227.53
873.09	227.57
873.40	227.55
873.71	227.54
874.02	227.58
874.33	227.49
874.64	227.42
874.95	227.52
875.26	227.43
875.56	227.40
875.87	227.36
876.18	227.38
876.49	227.86
876.80	227.76
877.11	227.67
877.42	227.78
877.73	227.79
878.04	227.70
878.35	227.71
878.66	227.72
878.96	227.72
879.27	227.70
879.58	227.63
879.89	227.61
880.20	227.75
880.51	227.70
880.82	227.68
881.12	227.68
881.43	227.53
881.74	227.46
882.05	227.50
882.36	227.52
882.67	227.54
882.97	227.11
883.28	227.05
883.59	227.10
883.90	227.13
884.21	227.20
884.51	227.20
884.82	227.10
885.13	227.11
885.44	227.07
885.74	227.02
886.05	227.01
886.36	227.04
886.67	226.80
886.98	227.04
887.28	227.11
887.59	227.10
887.90	227.15
888.20	227.18
888.51	227.25
888.82	227.13
889.13	227.22
889.43	227.50
889.74	227.52
890.05	227.48
890.35	227.39
890.66	227.29
890.97	227.26
891.28	227.27
891.58	227.24
891.89	227.27
892.20	227.25
892.50	227.20
892.81	227.10
893.12	227.16
893.42	226.89
893.73	226.86
894.04	226.79
894.34	226.83
894.65	226.79
894.95	226.71
895.26	226.79
895.57	226.99
895.87	226.58
896.18	226.65
896.48	226.61
896.79	226.69
897.10	226.77
897.40	226.82
897.71	226.87
898.01	226.84
898.32	226.90
898.63	226.90
898.93	226.97
899.24	227.00
899.54	227.00
899.85	227.01
900.15	227.11
900.46	227.20
900.76	227.25
901.07	227.20
901.38	227.16
901.68	227.13
901.99	226.85
902.29	226.88
902.60	226.84
902.90	226.86
903.21	226.80
903.51	226.77
903.82	226.85
904.12	226.90
904.43	226.92
904.73	226.85
905.03	226.88
905.34	227.34
905.64	227.32
905.95	227.30
906.25	227.31
906.56	227.22
906.86	227.17
907.17	227.05
907.47	227.19
907.77	227.15
908.08	227.17
908.38	227.24
908.69	227.27
908.99	227.37
909.30	227.36
909.60	227.35
909.90	227.34
910.21	227.24
910.51	227.05
910.81	227.05
911.12	227.03
911.42	226.97
911.73	226.43
912.03	226.48
912.33	226.55
912.64	226.53
912.94	226.49
913.24	226.45
913.55	226.46
913.85	226.35
914.15	226.49
914.46	226.51
914.76	226.43
915.06	226.33
915.37	226.25
915.67	226.26
915.97	226.25
916.27	226.22
916.58	226.25
916.88	226.33
917.18	226.30
917.49	226.64
917.79	226.70
918.09	226.76
918.39	226.84
918.70	226.83
919.00	226.83
919.30	227.03
919.60	227.02
919.91	226.98
920.21	227.04
920.51	226.95
920.81	226.95
921.12	227.05
921.42	227.09
921.72	227.11
922.02	227.16
922.32	227.20
922.63	227.10
922.93	227.25
923.23	227.21
923.53	227.15
923.83	226.89
924.13	226.86
924.44	226.93
924.74	227.02
925.04	227.10
925.34	227.08
925.64	226.97
925.94	226.96
926.24	227.27
926.55	227.25
926.85	227.28
927.15	227.18
927.45	227.18
927.75	227.16
928.05	227.21
928.35	227.14
928.65	227.29
928.95	227.42
929.26	227.22
929.56	227.33
929.86	227.46
930.16	227.41
930.46	227.47
930.76	227.38
931.06	227.15
931.36	227.06
931.66	227.20
931.96	227.18
932.26	227.22
932.56	227.01
932.86	227.04
933.16	227.11
933.46	227.14
933.76	227.01
934.06	227.17
934.36	227.26
934.66	227.25
934.96	227.16
935.26	227.21
935.56	227.38
935.86	227.28
936.16	227.26
936.46	227.20
936.76	227.12
937.06	227.10
937.36	227.17
937.66	227.20
937.96	227.19
938.26	227.11
938.56	227.08
938.86	227.09
939.16	227.19
939.46	227.21
939.76	227.29
940.06	227.33
940.35	227.21
940.65	227.00
940.95	227.01
941.25	226.94
941.55	226.89
941.85	226.77
942.15	226.85
942.45	226.91
942.75	226.96
943.04	227.03
943.34	227.15
943.64	227.09
943.94	226.97
944.24	226.90
944.54	226.93
944.84	227.00
945.13	226.88
945.43	226.83
945.73	226.73
946.03	226.66
946.33	226.64
946.62	226.54
946.92	226.51
947.22	226.57
947.52	226.56
947.82	226.56
948.11	226.53
948.41	226.44
948.71	226.28
949.01	226.30
949.31	226.18
949.60	226.14
949.90	226.14
950.20	226.20
950.50	226.25
950.79	226.21
951.09	226.23
951.39	226.28
951.69	226.14
951.98	226.25
952.28	226.25
952.58	226.22
952.87	226.29
953.17	226.37
953.47	226.30
953.76	226.34
954.06	226.22
954.36	226.16
954.66	226.20
954.95	226.39
955.25	226.35
955.55	226.46
955.84	226.38
956.14	226.55
956.44	226.60
956.73	226.54
957.03	226.54
957.32	226.45
957.62	226.43
957.92	226.61
958.21	226.52
958.51	227.01
958.81	227.06
959.10	227.09
959.40	227.22
959.69	227.31
959.99	227.33
960.29	227.39
960.58	227.40
960.88	227.56
961.17	227.50
961.47	227.62
961.76	227.51
962.06	227.64
962.36	227.54
962.65	227.53
962.95	227.51
963.24	227.45
963.54	227.48
963.83	227.47
964.13	227.33
964.42	227.24
964.72	226.97
965.01	226.92
965.31	226.97
965.60	226.80
965.90	227.07
966.19	226.97
966.49	226.94
966.78	226.97
967.08	226.92
967.37	226.92
967.67	226.76
967.96	226.90
968.26	226.84
968.55	226.85
968.85	226.82
969.14	226.80
969.43	226.85
969.73	226.84
970.02	226.85
970.32	226.87
970.61	226.91
970.91	226.74
971.20	226.70
971.49	226.60
971.79	226.63
972.08	226.36
972.38	226.39
972.67	226.48
972.96	226.52
973.26	226.41
973.55	226.49
973.85	226.49
974.14	226.43
974.43	226.46
974.73	226.45
975.02	226.41
975.31	226.49
975.61	226.48
975.90	226.39
976.19	226.33
976.49	226.47
976.78	226.45
977.07	226.50
977.37	226.61
977.66	226.62
977.95	226.56
978.24	226.59
978.54	226.67
978.83	226.62
979.12	226.62
979.42	226.64
979.71	226.64
980.00	226.70
980.29	226.69
980.59	226.60
980.88	226.71
981.17	226.73
981.46	226.70
981.76	226.75
982.05	226.93
982.34	227.06
982.63	227.00
982.93	227.03
983.22	227.12
983.51	227.06
983.80	227.16
984.09	227.27
984.39	227.18
984.68	227.08
984.97	227.12
985.26	227.07
985.55	227.05
985.85	226.95
986.14	227.07
986.43	227.15
986.72	227.18
987.01	227.09
987.30	227.08
987.59	227.02
987.89	227.02
988.18	226.84
988.47	226.77
988.76	226.73
989.05	226.69
989.34	226.63
989.63	226.78
989.92	226.70
990.22	226.57
990.51	226.56
990.80	226.53
991.09	226.51
991.38	226.54
991.67	226.56
991.96	226.45
992.25	226.42
992.54	226.34
992.83	226.32
993.12	226.28
993.41	226.31
993.70	226.60
993.99	226.65
994.28	226.82
994.58	226.87
994.87	226.78
995.16	226.80
995.45	226.70
995.74	226.55
996.03	226.64
996.32	226.77
996.61	226.92
996.90	226.92
997.19	226.95
997.48	226.92
997.77	226.91
998.06	226.93
998.34	226.84
998.63	226.85
998.92	226.87
999.21	226.83
999.50	226.86
999.79	226.60
1000.08	226.58
1000.37	226.52
1000.66	226.46
1000.95	226.63
1001.24	226.66
1001.53	226.73
1001.82	226.65
1002.11	226.45
1002.40	226.53
1002.68	226.62
1002.97	226.94
1003.26	226.84
1003.55	226.84
1003.84	226.87
1004.13	227.01
1004.42	227.06
1004.71	227.05
1004.99	227.03
1005.28	227.26
1005.57	227.20
1005.86	227.18
1006.15	227.13
1006.44	227.05
1006.72	227.11
1007.01	226.96
1007.30	227.00
1007.59	227.00
1007.88	227.00
1008.17	227.10
1008.45	226.96
1008.74	226.71
1009.03	226.56
1009.32	226.54
1009.60	226.55
1009.89	226.50
1010.18	226.31
1010.47	226.20
1010.76	226.16
1011.04	226.14
1011.33	226.04
1011.62	226.04
1011.91	226.10
1012.19	226.12
1012.48	226.15
1012.77	226.05
1013.05	226.33
1013.34	226.25
1013.63	226.10
1013.92	226.14
1014.20	226.14
1014.49	226.16
1014.78	226.25
1015.06	226.10
1015.35	226.14
1015.64	226.17
1015.92	226.25
1016.21	226.33
1016.50	226.39
1016.78	226.46
1017.07	226.52
1017.36	226.40
1017.64	226.39
1017.93	226.40
1018.22	226.35
1018.50	226.37
1018.79	226.46
1019.08	226.19
1019.36	226.32
1019.65	226.35
1019.93	226.58
1020.22	226.62
1020.51	226.86
1020.79	226.77
1021.08	225.80
1021.36	226.10
1021.65	227.10
1021.94	225.90
1022.22	227.70
1022.51	225.20
1022.79	229.95
1023.08	226.90
1023.36	231.95
1023.65	224.90
>>>>>End Processed Spectral Data<<<<<
