SpectraSuite Data File
++++++++++++++++++++++++++++++++++++
Date: Wed Sep 04 17:59:46 EDT 2013
User: lab3
Dark Spectrum Present: Yes
Reference Spectrum Present: No
Number of Sampled Component Spectra: 1
Spectrometers: USB2E7196
Integration Time (usec): 170000 (USB2E7196)
Spectra Averaged: 20 (USB2E7196)
Boxcar Smoothing: 10 (USB2E7196)
Correct for Electrical Dark: No (USB2E7196)
Strobe/Lamp Enabled: No (USB2E7196)
Correct for Detector Non-linearity: No (USB2E7196)
Correct for Stray Light: No (USB2E7196)
Number of Pixels in Processed Spectrum: 2048
>>>>>Begin Processed Spectral Data<<<<<
339.09	0.00
339.48	213.00
339.86	215.30
340.24	216.80
340.63	217.30
341.01	226.35
341.39	218.65
341.78	222.95
342.16	224.05
342.54	223.70
342.93	212.39
343.31	223.06
343.69	223.67
344.07	224.07
344.46	224.49
344.84	224.92
345.22	224.82
345.60	225.15
345.99	225.33
346.37	225.46
346.75	225.55
347.13	225.62
347.52	225.73
347.90	226.02
348.28	226.03
348.66	226.21
349.05	226.04
349.43	226.13
349.81	226.26
350.19	226.30
350.57	226.37
350.96	226.46
351.34	226.62
351.72	226.72
352.10	226.85
352.48	226.89
352.87	226.93
353.25	227.04
353.63	227.10
354.01	227.12
354.39	227.19
354.77	227.26
355.15	227.46
355.54	227.41
355.92	227.32
356.30	227.42
356.68	227.80
357.06	227.87
357.44	227.85
357.82	227.84
358.20	228.23
358.58	228.26
358.97	228.28
359.35	228.42
359.73	228.51
360.11	228.63
360.49	228.73
360.87	228.77
361.25	228.91
361.63	229.09
362.01	229.19
362.39	229.16
362.77	229.25
363.15	229.30
363.53	229.37
363.91	229.45
364.29	229.46
364.67	229.02
365.05	229.10
365.43	229.22
365.81	229.36
366.19	229.18
366.57	229.40
366.95	229.38
367.33	229.31
367.71	229.27
368.09	229.34
368.47	229.35
368.85	229.30
369.23	229.41
369.61	229.29
369.99	229.46
370.37	229.59
370.75	229.78
371.13	229.63
371.51	229.60
371.89	229.59
372.27	229.65
372.65	229.67
373.03	229.63
373.41	229.58
373.78	229.48
374.16	229.30
374.54	229.05
374.92	229.05
375.30	228.98
375.68	228.82
376.06	228.73
376.44	228.60
376.82	228.64
377.19	228.53
377.57	228.39
377.95	228.14
378.33	228.01
378.71	227.69
379.09	227.69
379.47	227.70
379.84	227.52
380.22	227.40
380.60	227.32
380.98	227.20
381.36	227.08
381.73	227.01
382.11	227.06
382.49	227.05
382.87	226.94
383.25	226.91
383.62	227.46
384.00	227.33
384.38	227.36
384.76	227.42
385.13	227.59
385.51	227.62
385.89	227.56
386.27	227.52
386.64	227.50
387.02	227.43
387.40	227.35
387.78	227.35
388.15	227.23
388.53	227.11
388.91	227.17
389.29	227.13
389.66	227.15
390.04	226.97
390.42	227.03
390.79	227.05
391.17	227.05
391.55	226.45
391.92	226.50
392.30	226.44
392.68	226.32
393.05	226.17
393.43	226.18
393.81	226.17
394.18	226.09
394.56	226.14
394.94	226.24
395.31	226.15
395.69	226.35
396.06	226.60
396.44	226.67
396.82	226.63
397.19	226.96
397.57	226.94
397.95	227.13
398.32	227.05
398.70	227.15
399.07	227.21
399.45	227.33
399.82	227.33
400.20	227.44
400.58	227.50
400.95	227.43
401.33	227.66
401.70	228.12
402.08	228.30
402.45	228.36
402.83	228.58
403.20	228.85
403.58	228.92
403.95	229.08
404.33	229.35
404.71	229.59
405.08	230.01
405.46	230.26
405.83	230.52
406.21	230.79
406.58	231.12
406.96	231.42
407.33	231.73
407.70	232.18
408.08	232.88
408.45	233.33
408.83	233.84
409.20	234.10
409.58	234.30
409.95	234.90
410.33	235.48
410.70	235.89
411.08	236.43
411.45	237.06
411.82	237.66
412.20	238.36
412.57	239.35
412.95	239.75
413.32	240.65
413.69	241.42
414.07	242.39
414.44	243.39
414.82	244.42
415.19	245.65
415.56	246.88
415.94	247.87
416.31	249.30
416.68	250.71
417.06	252.36
417.43	253.89
417.81	255.57
418.18	257.40
418.55	259.30
418.93	261.35
419.30	263.51
419.67	265.71
420.04	268.09
420.42	270.46
420.79	273.49
421.16	276.22
421.54	279.43
421.91	282.43
422.28	285.50
422.66	288.77
423.03	292.31
423.40	295.62
423.77	299.26
424.15	302.85
424.52	306.62
424.89	310.90
425.26	314.88
425.64	318.74
426.01	322.95
426.38	327.43
426.75	332.11
427.13	336.75
427.50	341.45
427.87	346.27
428.24	351.19
428.61	355.74
428.99	361.14
429.36	366.65
429.73	372.18
430.10	377.87
430.47	383.62
430.85	389.22
431.22	395.51
431.59	402.29
431.96	408.61
432.33	415.66
432.70	422.34
433.08	430.27
433.45	437.65
433.82	445.10
434.19	453.34
434.56	461.45
434.93	469.20
435.30	477.28
435.68	486.00
436.05	494.40
436.42	502.84
436.79	510.66
437.16	519.01
437.53	527.90
437.90	536.61
438.27	545.34
438.64	554.30
439.01	562.56
439.38	569.81
439.75	577.28
440.13	585.47
440.50	593.14
440.87	599.34
441.24	605.93
441.61	612.97
441.98	618.13
442.35	623.94
442.72	629.83
443.09	635.61
443.46	638.95
443.83	641.23
444.20	643.16
444.57	645.85
444.94	647.00
445.31	648.01
445.68	649.29
446.05	649.38
446.42	648.23
446.79	646.71
447.16	645.08
447.53	643.53
447.90	639.62
448.27	635.82
448.64	630.96
449.01	627.33
449.37	621.12
449.74	614.92
450.11	608.02
450.48	600.22
450.85	592.07
451.22	585.20
451.59	578.63
451.96	572.17
452.33	563.93
452.70	556.42
453.07	547.57
453.43	538.36
453.80	529.97
454.17	521.70
454.54	513.96
454.91	505.81
455.28	497.75
455.65	490.20
456.02	483.35
456.38	476.82
456.75	468.72
457.12	462.13
457.49	455.81
457.86	449.43
458.23	444.23
458.59	438.43
458.96	432.68
459.33	427.56
459.70	422.50
460.07	418.39
460.43	413.65
460.80	409.46
461.17	405.65
461.54	401.59
461.91	397.68
462.27	393.83
462.64	390.44
463.01	386.89
463.38	383.65
463.74	379.51
464.11	376.51
464.48	373.96
464.85	371.02
465.21	368.88
465.58	366.52
465.95	363.61
466.32	361.40
466.68	359.06
467.05	356.80
467.42	354.53
467.78	352.16
468.15	349.97
468.52	348.32
468.88	346.12
469.25	344.18
469.62	342.77
469.98	341.11
470.35	339.59
470.72	338.08
471.08	336.47
471.45	335.20
471.82	333.90
472.18	332.43
472.55	331.42
472.92	330.10
473.28	328.93
473.65	327.97
474.02	326.87
474.38	326.09
474.75	325.35
475.11	324.52
475.48	323.87
475.85	323.24
476.21	322.64
476.58	322.22
476.94	321.83
477.31	321.41
477.67	320.93
478.04	320.55
478.41	320.33
478.77	320.50
479.14	320.25
479.50	320.19
479.87	320.23
480.23	320.25
480.60	320.24
480.96	320.30
481.33	320.60
481.69	320.88
482.06	321.08
482.42	321.29
482.79	321.69
483.15	322.22
483.52	322.94
483.88	323.45
484.25	323.94
484.61	324.52
484.98	325.13
485.34	326.19
485.71	327.18
486.07	328.29
486.44	328.81
486.80	329.93
487.17	331.01
487.53	332.39
487.90	333.80
488.26	335.56
488.62	337.28
488.99	338.88
489.35	340.58
489.72	342.49
490.08	344.52
490.44	346.63
490.81	348.81
491.17	350.93
491.54	353.42
491.90	355.99
492.26	358.71
492.63	361.58
492.99	364.44
493.36	367.53
493.72	370.78
494.08	374.28
494.45	377.96
494.81	381.91
495.17	385.86
495.54	390.08
495.90	394.22
496.26	398.75
496.63	403.37
496.99	408.23
497.35	413.20
497.72	418.57
498.08	424.01
498.44	429.61
498.80	435.68
499.17	441.60
499.53	447.92
499.89	454.79
500.26	461.56
500.62	468.60
500.98	475.91
501.34	483.41
501.71	491.18
502.07	498.97
502.43	507.02
502.79	515.38
503.16	524.10
503.52	533.19
503.88	542.36
504.24	552.06
504.60	562.02
504.97	572.43
505.33	582.86
505.69	593.86
506.05	605.03
506.41	616.21
506.78	628.14
507.14	640.25
507.50	652.49
507.86	665.13
508.22	678.08
508.59	691.30
508.95	705.03
509.31	719.29
509.67	733.85
510.03	748.34
510.39	763.23
510.75	778.41
511.12	793.68
511.48	809.46
511.84	825.30
512.20	841.29
512.56	857.69
512.92	874.59
513.28	891.36
513.64	908.67
514.00	926.28
514.37	944.04
514.73	962.17
515.09	980.44
515.45	998.94
515.81	1017.54
516.17	1036.34
516.53	1054.98
516.89	1073.75
517.25	1093.23
517.61	1113.37
517.97	1133.56
518.33	1153.49
518.69	1173.86
519.05	1194.17
519.41	1214.90
519.77	1235.75
520.13	1256.48
520.49	1277.17
520.85	1299.72
521.21	1320.84
521.57	1342.36
521.93	1363.18
522.29	1384.56
522.65	1405.24
523.01	1426.15
523.37	1446.94
523.73	1468.12
524.09	1488.73
524.45	1509.62
524.81	1530.25
525.17	1550.77
525.53	1571.42
525.89	1592.38
526.25	1613.35
526.61	1633.99
526.97	1655.01
527.33	1676.69
527.68	1698.73
528.04	1720.17
528.40	1739.91
528.76	1761.20
529.12	1781.88
529.48	1802.84
529.84	1822.80
530.20	1844.15
530.56	1864.97
530.91	1885.89
531.27	1906.56
531.63	1927.23
531.99	1948.11
532.35	1968.48
532.71	1989.07
533.07	2009.97
533.42	2030.08
533.78	2049.94
534.14	2070.08
534.50	2089.55
534.86	2108.86
535.21	2126.45
535.57	2145.11
535.93	2162.95
536.29	2180.86
536.65	2199.19
537.00	2216.70
537.36	2234.60
537.72	2251.47
538.08	2269.10
538.44	2286.12
538.79	2302.55
539.15	2319.21
539.51	2335.09
539.87	2350.37
540.22	2364.64
540.58	2378.96
540.94	2392.31
541.29	2405.04
541.65	2417.70
542.01	2430.20
542.37	2440.83
542.72	2451.96
543.08	2462.63
543.44	2474.43
543.79	2484.32
544.15	2493.87
544.51	2504.02
544.87	2513.90
545.22	2522.39
545.58	2529.86
545.94	2537.12
546.29	2543.88
546.65	2550.26
547.01	2555.90
547.36	2561.52
547.72	2567.12
548.07	2571.29
548.43	2576.76
548.79	2581.80
549.14	2585.91
549.50	2589.83
549.86	2594.09
550.21	2598.01
550.57	2601.46
550.92	2602.62
551.28	2604.17
551.64	2606.74
551.99	2608.95
552.35	2610.63
552.70	2612.98
553.06	2614.84
553.41	2616.13
553.77	2617.84
554.13	2619.71
554.48	2621.19
554.84	2622.57
555.19	2623.84
555.55	2625.08
555.90	2624.14
556.26	2623.01
556.61	2621.00
556.97	2619.01
557.32	2618.14
557.68	2617.00
558.03	2615.30
558.39	2614.49
558.74	2613.75
559.10	2610.42
559.45	2606.58
559.81	2601.82
560.16	2596.46
560.52	2591.64
560.87	2587.07
561.23	2581.59
561.58	2575.44
561.94	2569.11
562.29	2561.69
562.64	2554.68
563.00	2546.70
563.35	2540.64
563.71	2534.32
564.06	2528.77
564.42	2522.21
564.77	2515.56
565.12	2507.92
565.48	2500.42
565.83	2492.15
566.19	2483.99
566.54	2476.09
566.89	2468.36
567.25	2461.02
567.60	2454.27
567.96	2446.63
568.31	2438.70
568.66	2430.10
569.02	2421.21
569.37	2412.95
569.72	2405.55
570.08	2396.05
570.43	2386.63
570.78	2377.28
571.14	2367.60
571.49	2357.49
571.84	2347.86
572.20	2336.71
572.55	2326.71
572.90	2315.91
573.26	2305.50
573.61	2294.39
573.96	2283.24
574.31	2271.26
574.67	2259.40
575.02	2246.31
575.37	2233.72
575.72	2220.40
576.08	2208.17
576.43	2195.55
576.78	2182.22
577.13	2168.37
577.49	2155.67
577.84	2143.71
578.19	2131.49
578.54	2118.97
578.90	2106.70
579.25	2094.24
579.60	2081.75
579.95	2068.74
580.30	2055.60
580.66	2042.34
581.01	2028.73
581.36	2014.65
581.71	2001.85
582.06	1988.71
582.42	1976.07
582.77	1963.18
583.12	1951.19
583.47	1938.95
583.82	1927.14
584.17	1914.61
584.53	1902.58
584.88	1889.67
585.23	1876.61
585.58	1862.14
585.93	1848.83
586.28	1835.65
586.63	1821.62
586.98	1806.99
587.34	1793.49
587.69	1779.83
588.04	1767.15
588.39	1755.20
588.74	1743.19
589.09	1731.05
589.44	1718.18
589.79	1706.01
590.14	1694.14
590.49	1681.94
590.84	1669.54
591.19	1657.27
591.54	1645.30
591.89	1633.11
592.25	1622.93
592.60	1611.16
592.95	1600.07
593.30	1587.99
593.65	1575.77
594.00	1563.50
594.35	1554.02
594.70	1542.10
595.05	1530.81
595.40	1518.38
595.75	1506.26
596.10	1495.10
596.45	1483.28
596.80	1472.39
597.15	1461.00
597.50	1449.02
597.85	1437.82
598.19	1425.97
598.54	1414.29
598.89	1402.78
599.24	1392.10
599.59	1380.24
599.94	1369.50
600.29	1358.76
600.64	1348.41
600.99	1337.62
601.34	1328.25
601.69	1317.03
602.04	1307.11
602.39	1297.30
602.74	1288.31
603.08	1278.83
603.43	1269.06
603.78	1259.41
604.13	1249.61
604.48	1239.77
604.83	1230.14
605.18	1220.14
605.53	1210.91
605.87	1201.45
606.22	1192.95
606.57	1183.61
606.92	1174.05
607.27	1164.93
607.62	1156.35
607.96	1147.65
608.31	1139.65
608.66	1131.15
609.01	1122.35
609.36	1113.70
609.70	1105.08
610.05	1096.34
610.40	1087.79
610.75	1079.26
611.10	1070.81
611.44	1062.40
611.79	1054.21
612.14	1046.22
612.49	1038.10
612.83	1030.48
613.18	1022.86
613.53	1015.15
613.88	1007.00
614.22	999.39
614.57	991.35
614.92	983.15
615.27	975.71
615.61	967.85
615.96	960.05
616.31	952.53
616.65	945.48
617.00	938.19
617.35	930.92
617.70	923.72
618.04	916.31
618.39	909.34
618.74	902.61
619.08	895.67
619.43	888.64
619.78	881.53
620.12	874.38
620.47	867.33
620.82	859.94
621.16	853.52
621.51	846.94
621.85	840.62
622.20	833.93
622.55	827.13
622.89	820.65
623.24	814.23
623.59	807.86
623.93	801.58
624.28	795.34
624.62	789.54
624.97	783.56
625.32	777.99
625.66	771.95
626.01	765.73
626.35	760.01
626.70	754.36
627.04	749.25
627.39	743.57
627.73	738.22
628.08	733.08
628.43	727.39
628.77	721.91
629.12	716.74
629.46	712.07
629.81	707.32
630.15	702.52
630.50	697.58
630.84	692.67
631.19	687.76
631.53	683.05
631.88	677.82
632.22	672.89
632.57	668.28
632.91	663.65
633.26	659.38
633.60	654.82
633.95	650.20
634.29	645.35
634.64	640.94
634.98	636.07
635.32	631.63
635.67	627.66
636.01	623.62
636.36	619.25
636.70	615.30
637.05	610.96
637.39	606.77
637.73	602.53
638.08	598.47
638.42	594.11
638.77	589.82
639.11	585.40
639.45	581.10
639.80	576.59
640.14	572.48
640.49	568.18
640.83	564.24
641.17	560.45
641.52	556.72
641.86	553.06
642.20	549.95
642.55	546.15
642.89	542.41
643.23	538.76
643.58	535.61
643.92	531.65
644.26	528.30
644.61	524.98
644.95	521.70
645.29	518.28
645.64	515.17
645.98	512.09
646.32	509.29
646.66	506.20
647.01	503.34
647.35	500.62
647.69	497.86
648.04	495.09
648.38	492.21
648.72	489.35
649.06	486.22
649.41	483.08
649.75	480.21
650.09	477.44
650.43	474.41
650.78	471.24
651.12	468.41
651.46	465.61
651.80	462.77
652.14	460.00
652.49	457.53
652.83	454.99
653.17	452.41
653.51	449.62
653.85	447.31
654.20	444.79
654.54	442.15
654.88	439.58
655.22	437.23
655.56	434.83
655.90	432.51
656.25	430.28
656.59	428.02
656.93	425.73
657.27	423.63
657.61	421.35
657.95	419.14
658.29	416.96
658.64	414.75
658.98	412.52
659.32	410.42
659.66	408.18
660.00	405.98
660.34	403.82
660.68	401.87
661.02	399.79
661.36	397.76
661.70	395.60
662.05	393.62
662.39	391.64
662.73	389.82
663.07	388.14
663.41	386.22
663.75	384.30
664.09	382.62
664.43	380.58
664.77	378.93
665.11	377.20
665.45	375.61
665.79	374.05
666.13	372.33
666.47	370.57
666.81	368.95
667.15	367.28
667.49	365.85
667.83	364.48
668.17	362.89
668.51	361.45
668.85	360.29
669.19	359.13
669.53	357.56
669.87	356.00
670.21	354.45
670.55	353.07
670.89	351.92
671.23	350.49
671.57	349.08
671.91	347.75
672.25	346.45
672.58	345.28
672.92	343.82
673.26	342.52
673.60	341.36
673.94	340.27
674.28	339.14
674.62	337.84
674.96	336.44
675.30	335.26
675.64	334.10
675.97	332.76
676.31	331.40
676.65	330.17
676.99	329.25
677.33	328.05
677.67	327.04
678.01	325.71
678.34	324.60
678.68	323.77
679.02	322.65
679.36	321.58
679.70	320.46
680.04	319.54
680.37	318.65
680.71	317.63
681.05	316.55
681.39	315.70
681.73	314.85
682.06	313.99
682.40	313.14
682.74	312.26
683.08	311.55
683.42	310.63
683.75	309.80
684.09	308.72
684.43	307.85
684.77	306.94
685.10	306.15
685.44	305.31
685.78	304.35
686.12	303.52
686.45	302.65
686.79	301.81
687.13	301.12
687.46	300.39
687.80	299.76
688.14	298.98
688.48	298.14
688.81	297.26
689.15	296.70
689.49	295.89
689.82	295.19
690.16	294.20
690.50	293.47
690.83	292.79
691.17	292.07
691.51	291.39
691.84	290.81
692.18	290.09
692.52	289.35
692.85	288.72
693.19	288.25
693.52	287.70
693.86	287.01
694.20	286.30
694.53	285.68
694.87	285.01
695.21	284.36
695.54	283.80
695.88	283.17
696.21	282.35
696.55	281.74
696.88	281.07
697.22	280.49
697.56	279.97
697.89	279.35
698.23	278.87
698.56	278.35
698.90	277.83
699.23	277.34
699.57	276.84
699.90	276.31
700.24	275.65
700.58	275.20
700.91	274.85
701.25	274.73
701.58	274.51
701.92	274.19
702.25	273.71
702.59	273.19
702.92	272.84
703.26	272.52
703.59	272.13
703.93	272.15
704.26	271.80
704.60	271.43
704.93	271.04
705.26	270.56
705.60	270.19
705.93	269.68
706.27	269.40
706.60	269.21
706.94	269.01
707.27	268.70
707.61	268.29
707.94	267.79
708.27	267.05
708.61	266.38
708.94	265.87
709.28	265.51
709.61	265.11
709.94	264.76
710.28	264.31
710.61	263.91
710.95	263.12
711.28	263.10
711.61	262.67
711.95	262.40
712.28	262.06
712.61	261.68
712.95	261.61
713.28	261.50
713.61	261.03
713.95	260.59
714.28	260.16
714.61	259.79
714.95	259.45
715.28	259.12
715.61	258.85
715.95	258.61
716.28	258.33
716.61	258.13
716.95	257.73
717.28	257.47
717.61	257.27
717.94	256.95
718.28	256.26
718.61	256.03
718.94	255.70
719.27	255.42
719.61	255.21
719.94	254.75
720.27	254.25
720.60	253.95
720.94	253.66
721.27	253.56
721.60	253.48
721.93	253.25
722.27	253.13
722.60	252.92
722.93	252.59
723.26	252.39
723.59	252.12
723.93	252.03
724.26	251.79
724.59	251.57
724.92	251.40
725.25	251.34
725.59	251.08
725.92	250.93
726.25	250.69
726.58	250.45
726.91	250.27
727.24	250.08
727.57	249.96
727.91	249.66
728.24	249.44
728.57	249.17
728.90	249.10
729.23	248.75
729.56	248.75
729.89	248.58
730.22	248.34
730.55	248.13
730.89	247.90
731.22	247.74
731.55	247.52
731.88	247.36
732.21	247.11
732.54	246.92
732.87	246.73
733.20	246.64
733.53	246.43
733.86	246.22
734.19	245.90
734.52	245.74
734.85	245.87
735.18	245.64
735.51	245.57
735.84	245.38
736.17	245.33
736.50	244.94
736.83	245.32
737.16	245.13
737.49	244.99
737.82	244.79
738.15	244.70
738.48	244.48
738.81	244.20
739.14	243.97
739.47	243.75
739.80	243.62
740.13	243.38
740.46	243.22
740.79	243.10
741.12	242.95
741.45	242.73
741.78	242.34
742.11	242.40
742.44	242.19
742.77	242.09
743.10	241.91
743.43	241.71
743.75	241.06
744.08	241.62
744.41	241.40
744.74	241.18
745.07	240.88
745.40	240.84
745.73	241.01
746.06	240.87
746.39	240.79
746.71	240.59
747.04	240.47
747.37	240.36
747.70	240.36
748.03	240.34
748.36	240.26
748.68	240.22
749.01	239.90
749.34	239.80
749.67	239.68
750.00	239.58
750.33	239.79
750.65	239.68
750.98	239.02
751.31	238.99
751.64	238.99
751.97	239.22
752.29	239.14
752.62	238.86
752.95	238.79
753.28	238.68
753.60	238.57
753.93	238.66
754.26	238.59
754.59	238.31
754.91	238.15
755.24	238.06
755.57	238.01
755.90	237.89
756.22	237.74
756.55	237.53
756.88	237.38
757.20	237.01
757.53	236.80
757.86	236.62
758.19	236.55
758.51	236.46
758.84	236.09
759.17	235.96
759.49	235.87
759.82	236.01
760.15	235.99
760.47	235.92
760.80	235.63
761.13	235.61
761.45	235.57
761.78	235.50
762.11	235.36
762.43	235.16
762.76	235.11
763.08	235.06
763.41	234.94
763.74	234.95
764.06	234.90
764.39	234.82
764.71	234.76
765.04	234.60
765.37	234.46
765.69	234.37
766.02	234.25
766.34	234.16
766.67	233.87
767.00	233.83
767.32	234.05
767.65	234.27
767.97	234.16
768.30	234.14
768.62	234.13
768.95	234.09
769.27	234.06
769.60	234.06
769.92	233.95
770.25	233.95
770.57	233.75
770.90	233.72
771.22	233.61
771.55	233.55
771.87	233.51
772.20	233.49
772.52	233.80
772.85	234.33
773.17	234.22
773.50	234.18
773.82	234.09
774.15	233.74
774.47	233.40
774.80	233.29
775.12	233.13
775.45	233.00
775.77	232.95
776.09	232.88
776.42	232.85
776.74	232.96
777.07	232.84
777.39	232.82
777.72	232.70
778.04	232.80
778.36	232.71
778.69	232.75
779.01	232.71
779.33	232.25
779.66	231.70
779.98	231.69
780.31	231.68
780.63	231.82
780.95	231.91
781.28	231.83
781.60	231.70
781.92	231.65
782.25	231.67
782.57	231.66
782.89	231.48
783.22	231.37
783.54	231.18
783.86	231.22
784.19	231.15
784.51	231.23
784.83	231.05
785.16	231.03
785.48	230.88
785.80	230.80
786.12	230.80
786.45	230.66
786.77	230.63
787.09	230.54
787.42	230.31
787.74	230.24
788.06	230.26
788.38	230.14
788.71	230.10
789.03	230.01
789.35	230.04
789.67	230.04
789.99	230.11
790.32	230.03
790.64	230.02
790.96	230.35
791.28	230.20
791.61	230.19
791.93	230.16
792.25	230.16
792.57	230.57
792.89	230.50
793.21	230.54
793.54	230.50
793.86	230.41
794.18	230.46
794.50	230.35
794.82	230.36
795.14	230.49
795.47	230.55
795.79	230.62
796.11	230.40
796.43	230.39
796.75	230.26
797.07	230.28
797.39	230.30
797.71	230.01
798.04	230.02
798.36	230.06
798.68	230.05
799.00	230.04
799.32	229.69
799.64	229.75
799.96	229.73
800.28	229.74
800.60	229.75
800.92	229.72
801.24	229.68
801.56	229.64
801.89	229.58
802.21	229.57
802.53	229.42
802.85	229.62
803.17	229.80
803.49	229.72
803.81	229.73
804.13	229.60
804.45	229.50
804.77	229.51
805.09	229.46
805.41	229.44
805.73	229.40
806.05	229.33
806.37	229.30
806.69	229.32
807.01	229.29
807.33	229.24
807.65	229.11
807.97	229.29
808.28	229.27
808.60	229.28
808.92	229.25
809.24	229.50
809.56	229.43
809.88	229.26
810.20	229.25
810.52	229.31
810.84	229.28
811.16	229.21
811.48	229.19
811.80	229.37
812.12	229.30
812.43	229.35
812.75	229.43
813.07	229.39
813.39	229.38
813.71	229.34
814.03	229.31
814.35	229.30
814.67	229.13
814.98	229.04
815.30	229.05
815.62	228.88
815.94	228.59
816.26	228.72
816.58	228.63
816.89	228.70
817.21	228.53
817.53	228.54
817.85	228.61
818.17	228.57
818.48	228.37
818.80	228.51
819.12	228.43
819.44	228.29
819.76	228.22
820.07	228.11
820.39	228.06
820.71	228.14
821.03	228.11
821.34	228.08
821.66	228.19
821.98	228.18
822.30	228.19
822.61	228.48
822.93	228.25
823.25	228.29
823.57	228.25
823.88	228.34
824.20	228.35
824.52	228.41
824.83	228.34
825.15	228.30
825.47	228.25
825.79	228.26
826.10	228.25
826.42	228.28
826.74	228.29
827.05	228.32
827.37	228.35
827.69	228.33
828.00	228.36
828.32	228.30
828.64	228.24
828.95	228.51
829.27	228.36
829.58	228.32
829.90	228.34
830.22	228.31
830.53	228.20
830.85	228.10
831.17	227.96
831.48	227.94
831.80	227.90
832.11	227.88
832.43	227.84
832.75	227.80
833.06	227.96
833.38	227.89
833.69	227.87
834.01	227.84
834.32	227.81
834.64	227.80
834.96	227.84
835.27	227.75
835.59	227.55
835.90	227.45
836.22	227.45
836.53	227.30
836.85	227.30
837.16	227.72
837.48	227.71
837.79	227.81
838.11	227.87
838.42	227.93
838.74	227.94
839.05	227.94
839.37	227.95
839.68	227.69
840.00	227.74
840.31	227.82
840.63	227.76
840.94	227.75
841.26	227.65
841.57	227.62
841.88	227.74
842.20	227.68
842.51	227.60
842.83	227.63
843.14	228.15
843.46	228.12
843.77	227.91
844.08	227.95
844.40	227.88
844.71	227.84
845.03	227.74
845.34	227.75
845.65	227.69
845.97	227.66
846.28	227.75
846.60	227.77
846.91	227.61
847.22	227.65
847.54	227.79
847.85	227.80
848.16	227.78
848.48	227.70
848.79	227.87
849.10	227.98
849.42	228.07
849.73	227.63
850.04	227.66
850.36	227.47
850.67	227.63
850.98	227.59
851.30	227.62
851.61	227.61
851.92	227.58
852.23	227.75
852.55	227.81
852.86	227.78
853.17	227.82
853.49	227.99
853.80	228.04
854.11	228.03
854.42	228.14
854.74	228.07
855.05	228.11
855.36	227.90
855.67	227.89
855.99	227.84
856.30	228.41
856.61	228.35
856.92	228.40
857.23	228.28
857.55	228.18
857.86	228.15
858.17	228.19
858.48	228.11
858.79	227.99
859.11	227.98
859.42	227.98
859.73	227.92
860.04	227.88
860.35	227.69
860.66	227.51
860.98	227.50
861.29	227.57
861.60	227.51
861.91	227.58
862.22	227.54
862.53	227.44
862.84	226.80
863.16	226.96
863.47	226.87
863.78	226.85
864.09	226.99
864.40	227.02
864.71	227.06
865.02	227.09
865.33	227.04
865.64	226.97
865.95	226.95
866.27	227.13
866.58	227.02
866.89	227.08
867.20	227.11
867.51	226.97
867.82	226.89
868.13	226.98
868.44	226.89
868.75	226.94
869.06	226.95
869.37	227.00
869.68	226.79
869.99	226.80
870.30	226.75
870.61	226.70
870.92	226.61
871.23	226.58
871.54	226.59
871.85	226.67
872.16	226.61
872.47	226.54
872.78	226.41
873.09	226.41
873.40	226.40
873.71	226.48
874.02	226.53
874.33	226.58
874.64	226.53
874.95	226.60
875.26	226.48
875.56	226.50
875.87	226.44
876.18	226.49
876.49	226.96
876.80	226.95
877.11	226.92
877.42	226.90
877.73	226.91
878.04	226.90
878.35	226.92
878.66	226.98
878.96	226.98
879.27	226.89
879.58	226.89
879.89	226.87
880.20	226.93
880.51	226.85
880.82	226.84
881.12	226.87
881.43	226.80
881.74	226.71
882.05	226.72
882.36	226.78
882.67	226.83
882.97	226.29
883.28	226.34
883.59	226.30
883.90	226.40
884.21	226.40
884.51	226.31
884.82	226.22
885.13	226.22
885.44	226.23
885.74	226.29
886.05	226.33
886.36	226.40
886.67	226.24
886.98	226.59
887.28	226.59
887.59	226.53
887.90	226.53
888.20	226.60
888.51	226.60
888.82	226.55
889.13	226.60
889.43	227.02
889.74	226.97
890.05	227.00
890.35	226.94
890.66	226.83
890.97	226.78
891.28	226.73
891.58	226.76
891.89	226.79
892.20	226.72
892.50	226.65
892.81	226.61
893.12	226.64
893.42	226.37
893.73	226.36
894.04	226.44
894.34	226.51
894.65	226.50
894.95	226.50
895.26	226.55
895.57	226.69
895.87	226.26
896.18	226.38
896.48	226.40
896.79	226.39
897.10	226.52
897.40	226.67
897.71	226.77
898.01	226.76
898.32	226.75
898.63	226.71
898.93	226.70
899.24	226.70
899.54	226.68
899.85	226.69
900.15	226.73
900.46	226.71
900.76	226.76
901.07	226.76
901.38	226.77
901.68	226.72
901.99	226.49
902.29	226.57
902.60	226.51
902.90	226.45
903.21	226.51
903.51	226.45
903.82	226.49
904.12	226.44
904.43	226.42
904.73	226.47
905.03	226.52
905.34	227.10
905.64	227.01
905.95	226.98
906.25	226.95
906.56	226.81
906.86	226.76
907.17	226.67
907.47	226.75
907.77	226.75
908.08	226.69
908.38	226.79
908.69	226.76
908.99	226.78
909.30	226.80
909.60	226.79
909.90	226.89
910.21	226.72
910.51	226.69
910.81	226.65
911.12	226.72
911.42	226.76
911.73	226.10
912.03	226.21
912.33	226.37
912.64	226.39
912.94	226.39
913.24	226.33
913.55	226.34
913.85	226.27
914.15	226.28
914.46	226.43
914.76	226.34
915.06	226.30
915.37	226.29
915.67	226.25
915.97	226.20
916.27	226.05
916.58	226.11
916.88	226.06
917.18	226.09
917.49	226.34
917.79	226.27
918.09	226.46
918.39	226.57
918.70	226.47
919.00	226.46
919.30	226.67
919.60	226.66
919.91	226.56
920.21	226.62
920.51	226.62
920.81	226.56
921.12	226.65
921.42	226.62
921.72	226.59
922.02	226.64
922.32	226.75
922.63	226.76
922.93	227.07
923.23	227.16
923.53	227.12
923.83	226.84
924.13	226.91
924.44	226.89
924.74	226.97
925.04	227.10
925.34	227.09
925.64	226.99
925.94	227.01
926.24	227.31
926.55	227.18
926.85	227.18
927.15	227.20
927.45	227.26
927.75	227.35
928.05	227.46
928.35	227.45
928.65	227.53
928.95	227.62
929.26	227.37
929.56	227.45
929.86	227.47
930.16	227.43
930.46	227.46
930.76	227.56
931.06	227.39
931.36	227.31
931.66	227.39
931.96	227.42
932.26	227.41
932.56	227.28
932.86	227.35
933.16	227.35
933.46	227.26
933.76	227.13
934.06	227.14
934.36	227.28
934.66	227.31
934.96	227.22
935.26	227.26
935.56	227.33
935.86	227.21
936.16	227.25
936.46	227.23
936.76	227.18
937.06	227.09
937.36	227.10
937.66	227.11
937.96	227.13
938.26	227.05
938.56	227.09
938.86	227.06
939.16	227.17
939.46	227.21
939.76	227.31
940.06	227.39
940.35	227.42
940.65	227.18
940.95	227.20
941.25	227.15
941.55	227.06
941.85	227.02
942.15	227.16
942.45	227.22
942.75	227.25
943.04	227.26
943.34	227.29
943.64	227.20
943.94	227.14
944.24	227.11
944.54	227.17
944.84	227.16
945.13	227.13
945.43	227.03
945.73	226.99
946.03	226.90
946.33	226.78
946.62	226.67
946.92	226.60
947.22	226.56
947.52	226.55
947.82	226.59
948.11	226.60
948.41	226.45
948.71	226.32
949.01	226.40
949.31	226.37
949.60	226.35
949.90	226.47
950.20	226.41
950.50	226.36
950.79	226.33
951.09	226.42
951.39	226.42
951.69	226.46
951.98	226.53
952.28	226.59
952.58	226.54
952.87	226.54
953.17	226.65
953.47	226.64
953.76	226.64
954.06	226.56
954.36	226.42
954.66	226.37
954.95	226.58
955.25	226.49
955.55	226.55
955.84	226.48
956.14	226.54
956.44	226.61
956.73	226.56
957.03	226.57
957.32	226.49
957.62	226.45
957.92	226.50
958.21	226.42
958.51	226.89
958.81	226.99
959.10	227.01
959.40	227.07
959.69	227.14
959.99	227.29
960.29	227.28
960.58	227.29
960.88	227.52
961.17	227.39
961.47	227.46
961.76	227.39
962.06	227.49
962.36	227.39
962.65	227.43
962.95	227.41
963.24	227.35
963.54	227.39
963.83	227.35
964.13	227.32
964.42	227.25
964.72	226.91
965.01	226.86
965.31	226.84
965.60	226.74
965.90	226.94
966.19	226.72
966.49	226.73
966.78	226.76
967.08	226.67
967.37	226.69
967.67	226.63
967.96	226.69
968.26	226.61
968.55	226.67
968.85	226.70
969.14	226.77
969.43	226.75
969.73	226.71
970.02	226.79
970.32	226.75
970.61	226.74
970.91	226.59
971.20	226.58
971.49	226.56
971.79	226.61
972.08	226.40
972.38	226.53
972.67	226.50
972.96	226.55
973.26	226.50
973.55	226.61
973.85	226.60
974.14	226.54
974.43	226.61
974.73	226.52
975.02	226.41
975.31	226.33
975.61	226.33
975.90	226.27
976.19	226.17
976.49	226.16
976.78	226.20
977.07	226.23
977.37	226.31
977.66	226.36
977.95	226.33
978.24	226.30
978.54	226.38
978.83	226.37
979.12	226.39
979.42	226.37
979.71	226.19
980.00	226.14
980.29	226.17
980.59	226.10
980.88	226.26
981.17	226.22
981.46	226.26
981.76	226.27
982.05	226.45
982.34	226.51
982.63	226.60
982.93	226.59
983.22	226.71
983.51	226.74
983.80	226.77
984.09	226.81
984.39	226.81
984.68	226.71
984.97	226.79
985.26	226.71
985.55	226.75
985.85	226.74
986.14	226.81
986.43	226.86
986.72	226.77
987.01	226.60
987.30	226.63
987.59	226.64
987.89	226.63
988.18	226.47
988.47	226.43
988.76	226.33
989.05	226.36
989.34	226.20
989.63	226.25
989.92	226.20
990.22	226.13
990.51	226.07
990.80	226.05
991.09	226.03
991.38	226.07
991.67	226.02
991.96	225.99
992.25	225.98
992.54	225.84
992.83	225.80
993.12	225.73
993.41	225.82
993.70	226.00
993.99	226.13
994.28	226.15
994.58	226.23
994.87	226.21
995.16	226.14
995.45	226.12
995.74	225.94
996.03	226.07
996.32	226.11
996.61	226.19
996.90	226.19
997.19	226.16
997.48	226.16
997.77	226.04
998.06	226.07
998.34	226.01
998.63	226.02
998.92	226.11
999.21	226.20
999.50	226.20
999.79	226.00
1000.08	225.89
1000.37	225.91
1000.66	225.91
1000.95	226.01
1001.24	226.09
1001.53	226.22
1001.82	226.24
1002.11	226.08
1002.40	226.10
1002.68	226.22
1002.97	226.58
1003.26	226.54
1003.55	226.46
1003.84	226.55
1004.13	226.78
1004.42	226.82
1004.71	226.87
1004.99	226.77
1005.28	226.91
1005.57	226.83
1005.86	226.86
1006.15	226.93
1006.44	226.85
1006.72	226.83
1007.01	226.74
1007.30	226.77
1007.59	226.66
1007.88	226.65
1008.17	226.72
1008.45	226.70
1008.74	226.52
1009.03	226.22
1009.32	226.21
1009.60	226.25
1009.89	226.21
1010.18	225.93
1010.47	225.88
1010.76	225.82
1011.04	225.84
1011.33	225.81
1011.62	225.84
1011.91	225.82
1012.19	225.81
1012.48	225.88
1012.77	225.94
1013.05	226.17
1013.34	226.17
1013.63	226.13
1013.92	226.20
1014.20	226.15
1014.49	226.15
1014.78	226.23
1015.06	226.11
1015.35	226.16
1015.64	226.21
1015.92	226.29
1016.21	226.35
1016.50	226.35
1016.78	226.48
1017.07	226.58
1017.36	226.42
1017.64	226.37
1017.93	226.38
1018.22	226.33
1018.50	226.26
1018.79	226.25
1019.08	226.02
1019.36	226.01
1019.65	226.00
1019.93	226.08
1020.22	226.18
1020.51	226.41
1020.79	226.31
1021.08	225.85
1021.36	224.50
1021.65	227.30
1021.94	225.85
1022.22	226.65
1022.51	225.20
1022.79	228.00
1023.08	227.65
1023.36	231.85
1023.65	225.15
>>>>>End Processed Spectral Data<<<<<
