SpectraSuite Data File
++++++++++++++++++++++++++++++++++++
Date: Wed Sep 04 17:39:42 EDT 2013
User: lab3
Dark Spectrum Present: Yes
Reference Spectrum Present: No
Number of Sampled Component Spectra: 1
Spectrometers: USB2E7196
Integration Time (usec): 170000 (USB2E7196)
Spectra Averaged: 20 (USB2E7196)
Boxcar Smoothing: 10 (USB2E7196)
Correct for Electrical Dark: No (USB2E7196)
Strobe/Lamp Enabled: No (USB2E7196)
Correct for Detector Non-linearity: No (USB2E7196)
Correct for Stray Light: No (USB2E7196)
Number of Pixels in Processed Spectrum: 2048
>>>>>Begin Processed Spectral Data<<<<<
339.09	0.00
339.48	213.05
339.86	214.50
340.24	215.90
340.63	216.45
341.01	225.35
341.39	219.80
341.78	222.70
342.16	224.80
342.54	222.25
342.93	212.07
343.31	222.75
343.69	223.24
344.07	223.68
344.46	224.15
344.84	224.54
345.22	224.50
345.60	224.82
345.99	224.97
346.37	224.99
346.75	225.15
347.13	225.16
347.52	225.20
347.90	225.44
348.28	225.43
348.66	225.57
349.05	225.43
349.43	225.56
349.81	225.59
350.19	225.63
350.57	225.63
350.96	225.70
351.34	225.82
351.72	225.94
352.10	226.05
352.48	226.09
352.87	226.15
353.25	226.22
353.63	226.24
354.01	226.26
354.39	226.33
354.77	226.39
355.15	226.59
355.54	226.60
355.92	226.47
356.30	226.67
356.68	226.93
357.06	227.16
357.44	227.20
357.82	227.25
358.20	227.74
358.58	227.80
358.97	227.93
359.35	228.06
359.73	228.20
360.11	228.24
360.49	228.27
360.87	228.36
361.25	228.50
361.63	228.68
362.01	228.76
362.39	228.86
362.77	228.94
363.15	228.95
363.53	229.00
363.91	229.08
364.29	229.04
364.67	228.65
365.05	228.59
365.43	228.66
365.81	228.80
366.19	228.66
366.57	228.88
366.95	228.88
367.33	228.81
367.71	228.82
368.09	228.92
368.47	228.98
368.85	228.97
369.23	229.12
369.61	228.91
369.99	229.06
370.37	229.09
370.75	229.30
371.13	229.20
371.51	229.18
371.89	229.22
372.27	229.23
372.65	229.25
373.03	229.26
373.41	229.16
373.78	229.00
374.16	228.69
374.54	228.52
374.92	228.46
375.30	228.44
375.68	228.30
376.06	228.24
376.44	228.17
376.82	228.10
377.19	227.93
377.57	227.85
377.95	227.61
378.33	227.49
378.71	227.14
379.09	227.18
379.47	227.16
379.84	227.01
380.22	226.84
380.60	226.66
380.98	226.53
381.36	226.50
381.73	226.43
382.11	226.48
382.49	226.48
382.87	226.39
383.25	226.36
383.62	226.90
384.00	226.81
384.38	226.71
384.76	226.76
385.13	226.84
385.51	226.83
385.89	226.76
386.27	226.77
386.64	226.75
387.02	226.59
387.40	226.50
387.78	226.49
388.15	226.47
388.53	226.45
388.91	226.42
389.29	226.32
389.66	226.34
390.04	226.28
390.42	226.27
390.79	226.28
391.17	226.24
391.55	225.64
391.92	225.62
392.30	225.69
392.68	225.57
393.05	225.55
393.43	225.59
393.81	225.57
394.18	225.42
394.56	225.49
394.94	225.59
395.31	225.56
395.69	225.73
396.06	225.88
396.44	225.94
396.82	225.93
397.19	226.29
397.57	226.30
397.95	226.40
398.32	226.30
398.70	226.39
399.07	226.49
399.45	226.56
399.82	226.66
400.20	226.70
400.58	226.82
400.95	226.71
401.33	226.96
401.70	227.42
402.08	227.61
402.45	227.68
402.83	227.87
403.20	228.04
403.58	227.99
403.95	228.18
404.33	228.44
404.71	228.68
405.08	228.99
405.46	229.12
405.83	229.35
406.21	229.54
406.58	229.84
406.96	229.98
407.33	230.30
407.70	230.55
408.08	231.30
408.45	231.70
408.83	232.14
409.20	232.37
409.58	232.50
409.95	232.94
410.33	233.44
410.70	233.72
411.08	234.27
411.45	234.90
411.82	235.32
412.20	235.93
412.57	236.77
412.95	237.06
413.32	237.84
413.69	238.58
414.07	239.39
414.44	240.13
414.82	241.08
415.19	242.03
415.56	242.98
415.94	243.68
416.31	244.82
416.68	246.00
417.06	247.34
417.43	248.63
417.81	250.07
418.18	251.57
418.55	253.20
418.93	254.82
419.30	256.54
419.67	258.45
420.04	260.37
420.42	262.24
420.79	264.82
421.16	267.14
421.54	269.61
421.91	272.14
422.28	274.69
422.66	277.39
423.03	280.35
423.40	283.12
423.77	286.08
424.15	289.00
424.52	292.14
424.89	295.56
425.26	298.87
425.64	301.99
426.01	305.41
426.38	309.09
426.75	312.94
427.13	316.71
427.50	320.50
427.87	324.44
428.24	328.52
428.61	332.07
428.99	336.53
429.36	340.98
429.73	345.43
430.10	350.00
430.47	354.58
430.85	359.14
431.22	364.32
431.59	369.92
431.96	375.25
432.33	380.95
432.70	386.46
433.08	392.91
433.45	399.05
433.82	405.17
434.19	411.93
434.56	418.63
434.93	425.00
435.30	431.51
435.68	438.67
436.05	445.64
436.42	452.64
436.79	459.03
437.16	465.93
437.53	473.31
437.90	480.58
438.27	487.71
438.64	495.07
439.01	501.85
439.38	507.72
439.75	513.54
440.13	520.27
440.50	526.53
440.87	531.59
441.24	537.05
441.61	542.77
441.98	546.92
442.35	551.74
442.72	556.81
443.09	561.74
443.46	564.66
443.83	566.64
444.20	568.34
444.57	570.55
444.94	571.59
445.31	572.52
445.68	573.91
446.05	574.14
446.42	573.26
446.79	572.41
447.16	571.19
447.53	570.25
447.90	567.10
448.27	564.07
448.64	560.27
449.01	557.12
449.37	552.30
449.74	547.52
450.11	542.04
450.48	535.65
450.85	529.02
451.22	523.50
451.59	518.17
451.96	512.96
452.33	506.29
452.70	500.20
453.07	493.08
453.43	485.34
453.80	478.50
454.17	471.83
454.54	465.34
454.91	458.59
455.28	452.01
455.65	445.90
456.02	440.50
456.38	435.17
456.75	428.80
457.12	423.31
457.49	418.09
457.86	412.64
458.23	408.35
458.59	403.65
458.96	398.77
459.33	394.45
459.70	390.30
460.07	386.91
460.43	383.11
460.80	379.65
461.17	376.63
461.54	373.35
461.91	370.20
462.27	367.05
462.64	364.34
463.01	361.32
463.38	358.78
463.74	355.32
464.11	352.88
464.48	350.78
464.85	348.51
465.21	346.77
465.58	344.98
465.95	342.66
466.32	340.88
466.68	339.00
467.05	337.24
467.42	335.40
467.78	333.52
468.15	331.79
468.52	330.54
468.88	328.57
469.25	326.98
469.62	325.82
469.98	324.42
470.35	323.25
470.72	322.17
471.08	320.71
471.45	319.74
471.82	318.74
472.18	317.56
472.55	316.73
472.92	315.60
473.28	314.66
473.65	313.79
474.02	312.96
474.38	312.33
474.75	311.70
475.11	311.06
475.48	310.59
475.85	310.00
476.21	309.41
476.58	309.17
476.94	308.88
477.31	308.47
477.67	308.25
478.04	308.03
478.41	307.81
478.77	308.17
479.14	308.00
479.50	307.96
479.87	308.06
480.23	308.09
480.60	308.20
480.96	308.26
481.33	308.71
481.69	308.96
482.06	309.27
482.42	309.58
482.79	309.98
483.15	310.39
483.52	311.06
483.88	311.57
484.25	312.06
484.61	312.71
484.98	313.37
485.34	314.22
485.71	315.14
486.07	316.12
486.44	316.69
486.80	317.69
487.17	318.71
487.53	319.95
487.90	321.28
488.26	322.92
488.62	324.51
488.99	325.83
489.35	327.37
489.72	329.02
490.08	330.76
490.44	332.57
490.81	334.70
491.17	336.65
491.54	338.91
491.90	341.37
492.26	343.83
492.63	346.38
492.99	348.87
493.36	351.71
493.72	354.77
494.08	357.80
494.45	361.19
494.81	364.78
495.17	368.34
495.54	372.19
495.90	375.86
496.26	379.78
496.63	384.06
496.99	388.49
497.35	393.20
497.72	398.10
498.08	403.00
498.44	408.02
498.80	413.47
499.17	418.98
499.53	424.51
499.89	430.45
500.26	436.55
500.62	442.93
500.98	449.56
501.34	456.15
501.71	463.19
502.07	470.28
502.43	477.41
502.79	484.86
503.16	492.49
503.52	500.40
503.88	508.62
504.24	517.15
504.60	526.08
504.97	534.99
505.33	544.15
505.69	553.84
506.05	563.47
506.41	573.12
506.78	583.31
507.14	593.56
507.50	604.35
507.86	615.10
508.22	626.25
508.59	637.42
508.95	649.12
509.31	661.10
509.67	673.13
510.03	685.16
510.39	697.64
510.75	710.24
511.12	723.21
511.48	736.35
511.84	749.50
512.20	762.68
512.56	776.32
512.92	790.29
513.28	804.52
513.64	818.99
514.00	833.76
514.37	848.51
514.73	863.67
515.09	878.60
515.45	893.94
515.81	908.87
516.17	924.06
516.53	939.27
516.89	954.51
517.25	970.24
517.61	986.80
517.97	1003.22
518.33	1019.55
518.69	1035.75
519.05	1052.43
519.41	1069.17
519.77	1086.29
520.13	1103.07
520.49	1119.55
520.85	1137.34
521.21	1154.17
521.57	1170.87
521.93	1186.79
522.29	1203.64
522.65	1219.81
523.01	1236.11
523.37	1252.55
523.73	1268.97
524.09	1284.82
524.45	1300.48
524.81	1316.48
525.17	1332.35
525.53	1347.83
525.89	1363.50
526.25	1379.39
526.61	1394.46
526.97	1410.16
527.33	1425.99
527.68	1442.44
528.04	1458.18
528.40	1472.27
528.76	1487.62
529.12	1502.77
529.48	1518.40
529.84	1532.74
530.20	1548.20
530.56	1563.31
530.91	1578.43
531.27	1593.25
531.63	1607.97
531.99	1623.08
532.35	1637.17
532.71	1651.33
533.07	1665.90
533.42	1680.21
533.78	1694.21
534.14	1708.26
534.50	1721.47
534.86	1734.16
535.21	1745.45
535.57	1758.13
535.93	1770.23
536.29	1782.37
536.65	1794.55
537.00	1806.36
537.36	1818.01
537.72	1828.70
538.08	1839.68
538.44	1850.32
538.79	1860.66
539.15	1871.49
539.51	1881.55
539.87	1891.45
540.22	1899.68
540.58	1908.47
540.94	1916.10
541.29	1923.37
541.65	1930.39
542.01	1937.34
542.37	1943.20
542.72	1949.30
543.08	1954.70
543.44	1961.06
543.79	1965.94
544.15	1970.87
544.51	1976.14
544.87	1981.13
545.22	1985.19
545.58	1988.58
545.94	1991.47
546.29	1993.86
546.65	1995.86
547.01	1997.55
547.36	1998.83
547.72	2000.73
548.07	2000.98
548.43	2002.34
548.79	2003.28
549.14	2003.98
549.50	2004.18
549.86	2004.46
550.21	2004.91
550.57	2005.21
550.92	2003.56
551.28	2002.21
551.64	2001.17
551.99	1999.64
552.35	1997.96
552.70	1997.23
553.06	1996.07
553.41	1994.65
553.77	1993.64
554.13	1992.45
554.48	1991.05
554.84	1989.48
555.19	1987.99
555.55	1987.14
555.90	1984.53
556.26	1981.36
556.61	1977.84
556.97	1974.44
557.32	1971.71
557.68	1968.68
558.03	1965.34
558.39	1962.01
558.74	1959.21
559.10	1954.85
559.45	1950.20
559.81	1945.18
560.16	1939.06
560.52	1933.40
560.87	1928.29
561.23	1922.34
561.58	1916.22
561.94	1909.64
562.29	1902.77
562.64	1895.85
563.00	1888.01
563.35	1881.54
563.71	1875.30
564.06	1869.13
564.42	1862.65
564.77	1856.15
565.12	1849.10
565.48	1842.06
565.83	1835.06
566.19	1828.11
566.54	1821.02
566.89	1813.97
567.25	1807.15
567.60	1800.99
567.96	1794.48
568.31	1787.58
568.66	1780.28
569.02	1772.66
569.37	1765.59
569.72	1759.20
570.08	1751.45
570.43	1743.88
570.78	1736.20
571.14	1728.57
571.49	1720.44
571.84	1712.83
572.20	1704.18
572.55	1696.02
572.90	1687.31
573.26	1679.01
573.61	1669.96
573.96	1661.10
574.31	1651.62
574.67	1642.37
575.02	1632.43
575.37	1622.50
575.72	1612.28
576.08	1602.93
576.43	1593.25
576.78	1583.30
577.13	1572.94
577.49	1563.64
577.84	1554.63
578.19	1545.52
578.54	1536.08
578.90	1527.22
579.25	1517.89
579.60	1508.94
579.95	1499.30
580.30	1489.42
580.66	1479.46
581.01	1469.36
581.36	1459.19
581.71	1450.09
582.06	1440.62
582.42	1431.62
582.77	1422.48
583.12	1413.68
583.47	1404.83
583.82	1396.23
584.17	1387.38
584.53	1378.80
584.88	1369.22
585.23	1359.72
585.58	1349.50
585.93	1340.03
586.28	1330.22
586.63	1320.35
586.98	1310.07
587.34	1300.45
587.69	1291.23
588.04	1282.55
588.39	1274.21
588.74	1265.77
589.09	1257.14
589.44	1247.86
589.79	1239.17
590.14	1230.70
590.49	1222.06
590.84	1213.49
591.19	1204.91
591.54	1196.35
591.89	1187.59
592.25	1180.64
592.60	1172.39
592.95	1164.44
593.30	1156.10
593.65	1147.76
594.00	1139.38
594.35	1133.06
594.70	1125.19
595.05	1117.21
595.40	1108.97
595.75	1100.65
596.10	1092.85
596.45	1085.00
596.80	1077.77
597.15	1070.06
597.50	1061.99
597.85	1054.35
598.19	1046.33
598.54	1038.45
598.89	1030.80
599.24	1023.76
599.59	1015.69
599.94	1008.37
600.29	1001.27
600.64	994.29
600.99	987.35
601.34	980.73
601.69	972.55
602.04	965.80
602.39	959.14
602.74	952.74
603.08	946.06
603.43	939.75
603.78	932.96
604.13	926.43
604.48	919.75
604.83	913.12
605.18	906.43
605.53	900.20
605.87	894.09
606.22	888.24
606.57	882.03
606.92	875.72
607.27	869.88
607.62	864.12
607.96	858.44
608.31	853.16
608.66	847.51
609.01	841.90
609.36	836.13
609.70	830.33
610.05	824.63
610.40	819.35
610.75	813.45
611.10	807.95
611.44	802.14
611.79	796.60
612.14	791.42
612.49	786.28
612.83	781.00
613.18	775.56
613.53	770.18
613.88	764.56
614.22	759.18
614.57	753.53
614.92	748.10
615.27	742.78
615.61	737.40
615.96	732.22
616.31	726.97
616.65	722.18
617.00	717.38
617.35	712.27
617.70	707.15
618.04	702.32
618.39	697.58
618.74	693.34
619.08	688.66
619.43	683.81
619.78	678.81
620.12	673.96
620.47	669.49
620.82	664.65
621.16	660.16
621.51	656.02
621.85	651.79
622.20	647.42
622.55	643.04
622.89	638.56
623.24	634.31
623.59	630.16
623.93	625.83
624.28	621.67
624.62	618.20
624.97	614.37
625.32	610.47
625.66	606.43
626.01	602.22
626.35	598.55
626.70	594.85
627.04	591.41
627.39	587.73
627.73	584.03
628.08	580.65
628.43	576.99
628.77	573.15
629.12	569.58
629.46	566.18
629.81	563.11
630.15	559.90
630.50	556.56
630.84	553.20
631.19	549.94
631.53	546.89
631.88	543.13
632.22	539.79
632.57	536.68
632.91	533.53
633.26	530.48
633.60	527.15
633.95	524.05
634.29	520.64
634.64	517.67
634.98	514.39
635.32	511.44
635.67	508.73
636.01	506.05
636.36	503.19
636.70	500.55
637.05	497.42
637.39	494.75
637.73	491.95
638.08	489.35
638.42	486.54
638.77	483.61
639.11	480.61
639.45	477.67
639.80	474.73
640.14	472.00
640.49	469.25
640.83	466.72
641.17	464.30
641.52	461.88
641.86	459.36
642.20	457.32
642.55	454.72
642.89	452.16
643.23	449.76
643.58	447.62
643.92	444.98
644.26	442.54
644.61	440.19
644.95	437.81
645.29	435.30
645.64	433.25
645.98	430.95
646.32	428.99
646.66	426.84
647.01	424.77
647.35	422.80
647.69	420.88
648.04	418.89
648.38	416.82
648.72	414.83
649.06	412.73
649.41	410.59
649.75	408.53
650.09	406.72
650.43	404.72
650.78	402.59
651.12	400.64
651.46	398.97
651.80	397.06
652.14	395.31
652.49	393.73
652.83	391.89
653.17	390.25
653.51	388.40
653.85	386.80
654.20	385.14
654.54	383.39
654.88	381.55
655.22	380.01
655.56	378.29
655.90	376.66
656.25	375.10
656.59	373.53
656.93	372.11
657.27	370.61
657.61	368.89
657.95	367.38
658.29	365.87
658.64	364.27
658.98	362.71
659.32	361.10
659.66	359.46
660.00	358.01
660.34	356.54
660.68	355.25
661.02	353.82
661.36	352.51
661.70	351.12
662.05	349.86
662.39	348.49
662.73	347.29
663.07	346.25
663.41	344.98
663.75	343.63
664.09	342.37
664.43	340.95
664.77	339.86
665.11	338.56
665.45	337.44
665.79	336.33
666.13	335.24
666.47	334.12
666.81	332.99
667.15	331.63
667.49	330.47
667.83	329.42
668.17	328.28
668.51	327.22
668.85	326.27
669.19	325.49
669.53	324.41
669.87	323.38
670.21	322.27
670.55	321.20
670.89	320.40
671.23	319.42
671.57	318.50
671.91	317.49
672.25	316.58
672.58	315.76
672.92	314.69
673.26	313.76
673.60	312.96
673.94	312.13
674.28	311.44
674.62	310.72
674.96	309.90
675.30	309.22
675.64	308.39
675.97	307.51
676.31	306.43
676.65	305.57
676.99	304.86
677.33	303.98
677.67	303.32
678.01	302.39
678.34	301.69
678.68	301.00
679.02	300.35
679.36	299.68
679.70	298.86
680.04	298.28
680.37	297.55
680.71	296.71
681.05	296.02
681.39	295.38
681.73	294.66
682.06	293.94
682.40	293.22
682.74	292.62
683.08	292.15
683.42	291.52
683.75	290.91
684.09	290.23
684.43	289.66
684.77	288.98
685.10	288.44
685.44	287.83
685.78	287.15
686.12	286.49
686.45	285.93
686.79	285.32
687.13	284.84
687.46	284.25
687.80	283.94
688.14	283.32
688.48	282.76
688.81	282.24
689.15	281.79
689.49	281.25
689.82	280.75
690.16	280.12
690.50	279.59
690.83	279.07
691.17	278.43
691.51	277.99
691.84	277.56
692.18	277.02
692.52	276.54
692.85	276.09
693.19	275.80
693.52	275.37
693.86	274.90
694.20	274.35
694.53	274.00
694.87	273.40
695.21	272.99
695.54	272.52
695.88	271.97
696.21	271.38
696.55	270.94
696.88	270.42
697.22	269.89
697.56	269.60
697.89	269.17
698.23	268.89
698.56	268.46
698.90	268.10
699.23	267.61
699.57	267.23
699.90	266.83
700.24	266.28
700.58	265.93
700.91	265.70
701.25	265.62
701.58	265.49
701.92	265.19
702.25	264.92
702.59	264.63
702.92	264.43
703.26	264.18
703.59	263.93
703.93	264.03
704.26	263.82
704.60	263.45
704.93	263.12
705.26	262.68
705.60	262.37
705.93	261.95
706.27	261.86
706.60	261.72
706.94	261.65
707.27	261.33
707.61	261.03
707.94	260.67
708.27	260.06
708.61	259.44
708.94	259.16
709.28	258.82
709.61	258.43
709.94	258.05
710.28	257.69
710.61	257.35
710.95	256.50
711.28	256.45
711.61	256.10
711.95	255.92
712.28	255.59
712.61	255.34
712.95	255.37
713.28	255.21
713.61	254.77
713.95	254.32
714.28	254.08
714.61	253.68
714.95	253.41
715.28	253.09
715.61	252.81
715.95	252.56
716.28	252.17
716.61	252.03
716.95	251.69
717.28	251.47
717.61	251.23
717.94	251.06
718.28	250.50
718.61	250.28
718.94	249.96
719.27	249.83
719.61	249.64
719.94	249.26
720.27	248.82
720.60	248.59
720.94	248.38
721.27	248.19
721.60	248.16
721.93	247.92
722.27	247.98
722.60	247.86
722.93	247.57
723.26	247.60
723.59	247.29
723.93	247.32
724.26	247.23
724.59	246.99
724.92	246.90
725.25	246.89
725.59	246.71
725.92	246.56
726.25	246.36
726.58	246.25
726.91	246.05
727.24	245.92
727.57	245.75
727.91	245.46
728.24	245.32
728.57	245.05
728.90	244.88
729.23	244.59
729.56	244.62
729.89	244.46
730.22	244.15
730.55	244.08
730.89	243.81
731.22	243.53
731.55	243.42
731.88	243.30
732.21	243.06
732.54	242.84
732.87	242.72
733.20	242.63
733.53	242.39
733.86	242.30
734.19	242.15
734.52	242.08
734.85	242.32
735.18	242.12
735.51	242.23
735.84	242.20
736.17	242.15
736.50	241.78
736.83	242.24
737.16	242.18
737.49	242.09
737.82	241.93
738.15	241.94
738.48	241.79
738.81	241.60
739.14	241.38
739.47	241.32
739.80	241.23
740.13	241.08
740.46	240.86
740.79	240.61
741.12	240.51
741.45	240.26
741.78	239.93
742.11	240.00
742.44	239.75
742.77	239.74
743.10	239.47
743.43	239.39
743.75	238.77
744.08	239.31
744.41	239.01
744.74	238.85
745.07	238.60
745.40	238.61
745.73	238.68
746.06	238.66
746.39	238.64
746.71	238.44
747.04	238.31
747.37	238.31
747.70	238.31
748.03	238.15
748.36	238.17
748.68	238.00
749.01	237.74
749.34	237.57
749.67	237.38
750.00	237.37
750.33	237.61
750.65	237.59
750.98	236.84
751.31	236.92
751.64	236.92
751.97	237.23
752.29	237.09
752.62	236.77
752.95	236.66
753.28	236.44
753.60	236.35
753.93	236.40
754.26	236.32
754.59	236.17
754.91	236.01
755.24	235.87
755.57	235.83
755.90	235.78
756.22	235.70
756.55	235.58
756.88	235.41
757.20	234.95
757.53	234.69
757.86	234.65
758.19	234.60
758.51	234.52
758.84	234.05
759.17	233.87
759.49	233.79
759.82	233.90
760.15	233.92
760.47	233.92
760.80	233.65
761.13	233.63
761.45	233.45
761.78	233.44
762.11	233.39
762.43	233.31
762.76	233.23
763.08	233.21
763.41	233.20
763.74	233.17
764.06	233.13
764.39	233.14
764.71	233.00
765.04	232.84
765.37	232.75
765.69	232.76
766.02	232.72
766.34	232.68
766.67	232.41
767.00	232.44
767.32	232.59
767.65	232.85
767.97	232.70
768.30	232.75
768.62	232.70
768.95	232.64
769.27	232.54
769.60	232.46
769.92	232.31
770.25	232.09
770.57	231.99
770.90	231.99
771.22	231.89
771.55	231.91
771.87	231.84
772.20	231.75
772.52	232.16
772.85	232.72
773.17	232.68
773.50	232.56
773.82	232.45
774.15	232.10
774.47	231.73
774.80	231.63
775.12	231.59
775.45	231.59
775.77	231.57
776.09	231.61
776.42	231.57
776.74	231.67
777.07	231.68
777.39	231.64
777.72	231.50
778.04	231.53
778.36	231.41
778.69	231.47
779.01	231.47
779.33	230.98
779.66	230.41
779.98	230.35
780.31	230.43
780.63	230.52
780.95	230.64
781.28	230.56
781.60	230.51
781.92	230.45
782.25	230.36
782.57	230.25
782.89	230.09
783.22	230.08
783.54	229.96
783.86	230.00
784.19	229.86
784.51	230.04
784.83	229.93
785.16	229.90
785.48	229.74
785.80	229.71
786.12	229.66
786.45	229.63
786.77	229.63
787.09	229.55
787.42	229.34
787.74	229.28
788.06	229.29
788.38	229.31
788.71	229.19
789.03	229.22
789.35	229.26
789.67	229.20
789.99	229.15
790.32	229.08
790.64	229.00
790.96	229.36
791.28	229.14
791.61	228.99
791.93	229.00
792.25	228.99
792.57	229.33
792.89	229.24
793.21	229.20
793.54	229.10
793.86	229.04
794.18	229.12
794.50	228.98
794.82	228.98
795.14	228.99
795.47	229.07
795.79	229.08
796.11	228.96
796.43	228.88
796.75	228.81
797.07	228.83
797.39	228.78
797.71	228.50
798.04	228.45
798.36	228.65
798.68	228.60
799.00	228.65
799.32	228.39
799.64	228.48
799.96	228.46
800.28	228.54
800.60	228.48
800.92	228.47
801.24	228.45
801.56	228.50
801.89	228.46
802.21	228.52
802.53	228.35
802.85	228.47
803.17	228.81
803.49	228.75
803.81	228.70
804.13	228.75
804.45	228.65
804.77	228.70
805.09	228.62
805.41	228.52
805.73	228.45
806.05	228.28
806.37	228.22
806.69	228.14
807.01	228.11
807.33	228.10
807.65	227.87
807.97	228.12
808.28	228.02
808.60	228.00
808.92	227.91
809.24	228.15
809.56	228.05
809.88	227.81
810.20	227.86
810.52	227.99
810.84	227.90
811.16	227.88
811.48	227.88
811.80	228.00
812.12	228.04
812.43	228.13
812.75	228.12
813.07	228.05
813.39	228.06
813.71	228.01
814.03	228.02
814.35	228.06
814.67	227.82
814.98	227.74
815.30	227.67
815.62	227.56
815.94	227.29
816.26	227.48
816.58	227.40
816.89	227.43
817.21	227.28
817.53	227.34
817.85	227.36
818.17	227.33
818.48	227.17
818.80	227.24
819.12	227.12
819.44	227.01
819.76	226.96
820.07	227.01
820.39	226.99
820.71	227.00
821.03	226.92
821.34	226.93
821.66	227.10
821.98	227.16
822.30	227.15
822.61	227.35
822.93	227.08
823.25	227.06
823.57	226.95
823.88	227.03
824.20	226.96
824.52	226.95
824.83	226.91
825.15	226.84
825.47	226.78
825.79	226.79
826.10	226.82
826.42	226.82
826.74	226.80
827.05	226.74
827.37	226.72
827.69	226.75
828.00	226.75
828.32	226.61
828.64	226.56
828.95	226.78
829.27	226.74
829.58	226.80
829.90	226.87
830.22	226.89
830.53	226.73
830.85	226.63
831.17	226.60
831.48	226.55
831.80	226.54
832.11	226.53
832.43	226.40
832.75	226.34
833.06	226.56
833.38	226.46
833.69	226.47
834.01	226.51
834.32	226.49
834.64	226.46
834.96	226.51
835.27	226.46
835.59	226.38
835.90	226.25
836.22	226.19
836.53	226.10
836.85	226.03
837.16	226.50
837.48	226.60
837.79	226.72
838.11	226.77
838.42	226.75
838.74	226.84
839.05	226.87
839.37	226.91
839.68	226.64
840.00	226.60
840.31	226.63
840.63	226.58
840.94	226.53
841.26	226.36
841.57	226.36
841.88	226.44
842.20	226.27
842.51	226.24
842.83	226.21
843.14	226.69
843.46	226.72
843.77	226.41
844.08	226.26
844.40	226.09
844.71	226.03
845.03	226.05
845.34	225.97
845.65	226.04
845.97	226.04
846.28	226.07
846.60	226.13
846.91	226.06
847.22	226.02
847.54	226.15
847.85	226.25
848.16	226.16
848.48	226.08
848.79	226.35
849.10	226.46
849.42	226.53
849.73	226.07
850.04	226.04
850.36	225.97
850.67	226.12
850.98	226.13
851.30	226.21
851.61	226.25
851.92	226.24
852.23	226.35
852.55	226.35
852.86	226.42
853.17	226.39
853.49	226.58
853.80	226.72
854.11	226.79
854.42	226.88
854.74	226.90
855.05	226.93
855.36	226.66
855.67	226.64
855.99	226.60
856.30	227.16
856.61	227.23
856.92	227.25
857.23	227.20
857.55	227.20
857.86	227.19
858.17	227.22
858.48	227.12
858.79	226.99
859.11	227.12
859.42	227.09
859.73	227.12
860.04	227.12
860.35	226.97
860.66	226.80
860.98	226.82
861.29	226.85
861.60	226.83
861.91	227.01
862.22	226.96
862.53	226.92
862.84	226.37
863.16	226.43
863.47	226.33
863.78	226.38
864.09	226.47
864.40	226.42
864.71	226.45
865.02	226.53
865.33	226.52
865.64	226.41
865.95	226.37
866.27	226.65
866.58	226.46
866.89	226.48
867.20	226.50
867.51	226.40
867.82	226.40
868.13	226.53
868.44	226.40
868.75	226.48
869.06	226.47
869.37	226.47
869.68	226.33
869.99	226.47
870.30	226.43
870.61	226.42
870.92	226.33
871.23	226.24
871.54	226.32
871.85	226.37
872.16	226.46
872.47	226.44
872.78	226.15
873.09	226.29
873.40	226.31
873.71	226.33
874.02	226.33
874.33	226.31
874.64	226.20
874.95	226.32
875.26	226.20
875.56	226.17
875.87	226.19
876.18	226.21
876.49	226.64
876.80	226.58
877.11	226.49
877.42	226.56
877.73	226.58
878.04	226.42
878.35	226.44
878.66	226.36
878.96	226.39
879.27	226.39
879.58	226.35
879.89	226.32
880.20	226.47
880.51	226.47
880.82	226.50
881.12	226.59
881.43	226.44
881.74	226.40
882.05	226.41
882.36	226.42
882.67	226.44
882.97	225.88
883.28	225.86
883.59	225.87
883.90	225.89
884.21	225.90
884.51	225.96
884.82	225.97
885.13	225.99
885.44	225.98
885.74	226.00
886.05	226.02
886.36	226.00
886.67	225.81
886.98	226.02
887.28	226.01
887.59	225.95
887.90	225.96
888.20	225.98
888.51	226.08
888.82	225.98
889.13	226.07
889.43	226.55
889.74	226.59
890.05	226.56
890.35	226.50
890.66	226.41
890.97	226.29
891.28	226.21
891.58	226.23
891.89	226.22
892.20	226.19
892.50	226.12
892.81	226.17
893.12	226.22
893.42	226.07
893.73	226.10
894.04	226.15
894.34	226.24
894.65	226.22
894.95	226.17
895.26	226.22
895.57	226.45
895.87	225.89
896.18	225.93
896.48	225.99
896.79	226.08
897.10	226.20
897.40	226.31
897.71	226.39
898.01	226.30
898.32	226.37
898.63	226.33
898.93	226.40
899.24	226.36
899.54	226.30
899.85	226.27
900.15	226.26
900.46	226.22
900.76	226.22
901.07	226.19
901.38	226.16
901.68	226.15
901.99	225.84
902.29	225.95
902.60	225.90
902.90	225.83
903.21	225.78
903.51	225.75
903.82	225.80
904.12	225.84
904.43	225.95
904.73	225.85
905.03	225.92
905.34	226.35
905.64	226.31
905.95	226.32
906.25	226.28
906.56	226.25
906.86	226.23
907.17	226.15
907.47	226.18
907.77	226.19
908.08	226.21
908.38	226.18
908.69	226.25
908.99	226.33
909.30	226.41
909.60	226.36
909.90	226.39
910.21	226.33
910.51	226.14
910.81	226.18
911.12	226.25
911.42	226.21
911.73	225.67
912.03	225.76
912.33	225.84
912.64	225.89
912.94	225.89
913.24	225.80
913.55	225.76
913.85	225.74
914.15	225.80
914.46	225.84
914.76	225.86
915.06	225.77
915.37	225.74
915.67	225.75
915.97	225.76
916.27	225.68
916.58	225.69
916.88	225.75
917.18	225.65
917.49	225.96
917.79	225.95
918.09	226.13
918.39	226.20
918.70	226.13
919.00	226.07
919.30	226.31
919.60	226.24
919.91	226.21
920.21	226.27
920.51	226.15
920.81	226.09
921.12	226.09
921.42	226.06
921.72	226.07
922.02	226.09
922.32	226.21
922.63	226.23
922.93	226.40
923.23	226.46
923.53	226.36
923.83	226.03
924.13	226.10
924.44	225.99
924.74	226.05
925.04	226.16
925.34	226.19
925.64	225.92
925.94	225.98
926.24	226.31
926.55	226.21
926.85	226.32
927.15	226.30
927.45	226.38
927.75	226.41
928.05	226.39
928.35	226.32
928.65	226.34
928.95	226.35
929.26	226.20
929.56	226.26
929.86	226.35
930.16	226.35
930.46	226.33
930.76	226.34
931.06	226.11
931.36	226.00
931.66	226.05
931.96	226.12
932.26	226.20
932.56	225.99
932.86	226.14
933.16	226.10
933.46	226.03
933.76	225.97
934.06	226.11
934.36	226.25
934.66	226.29
934.96	226.28
935.26	226.36
935.56	226.42
935.86	226.28
936.16	226.25
936.46	226.23
936.76	226.16
937.06	226.14
937.36	226.22
937.66	226.26
937.96	226.21
938.26	226.11
938.56	226.05
938.86	226.05
939.16	226.07
939.46	226.15
939.76	226.20
940.06	226.13
940.35	226.02
940.65	225.86
940.95	225.82
941.25	225.61
941.55	225.48
941.85	225.46
942.15	225.58
942.45	225.69
942.75	225.68
943.04	225.71
943.34	225.79
943.64	225.72
943.94	225.67
944.24	225.67
944.54	225.70
944.84	225.76
945.13	225.75
945.43	225.70
945.73	225.61
946.03	225.63
946.33	225.66
946.62	225.59
946.92	225.58
947.22	225.61
947.52	225.69
947.82	225.78
948.11	225.69
948.41	225.61
948.71	225.50
949.01	225.55
949.31	225.56
949.60	225.57
949.90	225.68
950.20	225.63
950.50	225.67
950.79	225.64
951.09	225.64
951.39	225.58
951.69	225.50
951.98	225.63
952.28	225.61
952.58	225.56
952.87	225.58
953.17	225.57
953.47	225.54
953.76	225.55
954.06	225.50
954.36	225.50
954.66	225.46
954.95	225.61
955.25	225.65
955.55	225.63
955.84	225.53
956.14	225.55
956.44	225.61
956.73	225.50
957.03	225.57
957.32	225.58
957.62	225.53
957.92	225.62
958.21	225.56
958.51	226.13
958.81	226.23
959.10	226.33
959.40	226.44
959.69	226.48
959.99	226.54
960.29	226.55
960.58	226.55
960.88	226.72
961.17	226.61
961.47	226.64
961.76	226.63
962.06	226.74
962.36	226.62
962.65	226.59
962.95	226.61
963.24	226.53
963.54	226.54
963.83	226.63
964.13	226.58
964.42	226.50
964.72	226.12
965.01	226.16
965.31	226.07
965.60	226.00
965.90	226.34
966.19	226.23
966.49	226.22
966.78	226.26
967.08	226.21
967.37	226.19
967.67	226.10
967.96	226.22
968.26	226.16
968.55	226.24
968.85	226.26
969.14	226.25
969.43	226.27
969.73	226.33
970.02	226.21
970.32	226.25
970.61	226.21
970.91	226.02
971.20	225.91
971.49	225.89
971.79	225.93
972.08	225.51
972.38	225.54
972.67	225.52
972.96	225.55
973.26	225.46
973.55	225.63
973.85	225.56
974.14	225.47
974.43	225.54
974.73	225.45
975.02	225.41
975.31	225.46
975.61	225.48
975.90	225.29
976.19	225.31
976.49	225.29
976.78	225.34
977.07	225.40
977.37	225.44
977.66	225.55
977.95	225.53
978.24	225.56
978.54	225.63
978.83	225.56
979.12	225.53
979.42	225.52
979.71	225.37
980.00	225.37
980.29	225.39
980.59	225.30
980.88	225.45
981.17	225.48
981.46	225.47
981.76	225.43
982.05	225.66
982.34	225.75
982.63	225.71
982.93	225.70
983.22	225.81
983.51	225.82
983.80	225.77
984.09	225.77
984.39	225.76
984.68	225.72
984.97	225.77
985.26	225.59
985.55	225.68
985.85	225.65
986.14	225.71
986.43	225.79
986.72	225.72
987.01	225.57
987.30	225.58
987.59	225.54
987.89	225.54
988.18	225.37
988.47	225.29
988.76	225.31
989.05	225.26
989.34	225.12
989.63	225.22
989.92	225.19
990.22	225.08
990.51	225.06
990.80	224.99
991.09	225.06
991.38	225.23
991.67	225.10
991.96	225.05
992.25	225.12
992.54	224.97
992.83	224.94
993.12	224.94
993.41	224.90
993.70	225.10
993.99	225.16
994.28	225.27
994.58	225.28
994.87	225.23
995.16	225.28
995.45	225.28
995.74	225.05
996.03	225.10
996.32	225.19
996.61	225.36
996.90	225.39
997.19	225.38
997.48	225.41
997.77	225.39
998.06	225.44
998.34	225.34
998.63	225.41
998.92	225.39
999.21	225.50
999.50	225.59
999.79	225.44
1000.08	225.51
1000.37	225.53
1000.66	225.47
1000.95	225.58
1001.24	225.63
1001.53	225.73
1001.82	225.74
1002.11	225.71
1002.40	225.78
1002.68	225.97
1002.97	226.35
1003.26	226.26
1003.55	226.13
1003.84	226.12
1004.13	226.24
1004.42	226.23
1004.71	226.26
1004.99	226.40
1005.28	226.52
1005.57	226.46
1005.86	226.41
1006.15	226.40
1006.44	226.28
1006.72	226.34
1007.01	226.34
1007.30	226.25
1007.59	226.25
1007.88	226.30
1008.17	226.33
1008.45	226.23
1008.74	225.89
1009.03	225.67
1009.32	225.74
1009.60	225.80
1009.89	225.86
1010.18	225.70
1010.47	225.73
1010.76	225.69
1011.04	225.65
1011.33	225.64
1011.62	225.70
1011.91	225.70
1012.19	225.64
1012.48	225.67
1012.77	225.68
1013.05	225.91
1013.34	225.97
1013.63	225.90
1013.92	225.93
1014.20	225.94
1014.49	225.94
1014.78	226.00
1015.06	225.76
1015.35	225.68
1015.64	225.67
1015.92	225.75
1016.21	225.78
1016.50	225.73
1016.78	225.73
1017.07	225.74
1017.36	225.59
1017.64	225.46
1017.93	225.52
1018.22	225.52
1018.50	225.45
1018.79	225.52
1019.08	225.21
1019.36	225.19
1019.65	225.12
1019.93	225.27
1020.22	225.23
1020.51	225.52
1020.79	225.43
1021.08	225.40
1021.36	223.95
1021.65	226.65
1021.94	224.75
1022.22	225.20
1022.51	224.40
1022.79	228.40
1023.08	225.45
1023.36	231.50
1023.65	223.55
>>>>>End Processed Spectral Data<<<<<
