SpectraSuite Data File
++++++++++++++++++++++++++++++++++++
Date: Wed Sep 04 17:39:24 EDT 2013
User: lab3
Dark Spectrum Present: Yes
Reference Spectrum Present: No
Number of Sampled Component Spectra: 1
Spectrometers: USB2E7196
Integration Time (usec): 170000 (USB2E7196)
Spectra Averaged: 20 (USB2E7196)
Boxcar Smoothing: 10 (USB2E7196)
Correct for Electrical Dark: No (USB2E7196)
Strobe/Lamp Enabled: No (USB2E7196)
Correct for Detector Non-linearity: No (USB2E7196)
Correct for Stray Light: No (USB2E7196)
Number of Pixels in Processed Spectrum: 2048
>>>>>Begin Processed Spectral Data<<<<<
339.09	0.00
339.48	212.95
339.86	214.25
340.24	215.15
340.63	217.30
341.01	226.30
341.39	220.20
341.78	221.05
342.16	224.40
342.54	222.90
342.93	211.99
343.31	222.70
343.69	223.20
344.07	223.66
344.46	224.19
344.84	224.56
345.22	224.53
345.60	224.80
345.99	225.00
346.37	225.05
346.75	225.14
347.13	225.20
347.52	225.29
347.90	225.43
348.28	225.52
348.66	225.63
349.05	225.47
349.43	225.55
349.81	225.65
350.19	225.73
350.57	225.80
350.96	225.90
351.34	226.00
351.72	226.13
352.10	226.19
352.48	226.17
352.87	226.25
353.25	226.30
353.63	226.30
354.01	226.35
354.39	226.44
354.77	226.55
355.15	226.74
355.54	226.75
355.92	226.61
356.30	226.67
356.68	226.95
357.06	227.09
357.44	227.02
357.82	227.08
358.20	227.52
358.58	227.57
358.97	227.57
359.35	227.71
359.73	227.87
360.11	227.99
360.49	228.06
360.87	228.06
361.25	228.11
361.63	228.34
362.01	228.41
362.39	228.42
362.77	228.47
363.15	228.47
363.53	228.53
363.91	228.73
364.29	228.74
364.67	228.45
365.05	228.47
365.43	228.60
365.81	228.71
366.19	228.52
366.57	228.73
366.95	228.78
367.33	228.65
367.71	228.60
368.09	228.67
368.47	228.70
368.85	228.62
369.23	228.76
369.61	228.60
369.99	228.76
370.37	228.83
370.75	229.08
371.13	229.02
371.51	228.92
371.89	228.92
372.27	228.96
372.65	228.93
373.03	228.98
373.41	228.97
373.78	228.87
374.16	228.64
374.54	228.41
374.92	228.32
375.30	228.30
375.68	228.18
376.06	228.13
376.44	228.07
376.82	228.14
377.19	228.01
377.57	227.88
377.95	227.61
378.33	227.43
378.71	227.03
379.09	226.98
379.47	227.00
379.84	226.80
380.22	226.70
380.60	226.58
380.98	226.40
381.36	226.25
381.73	226.13
382.11	226.15
382.49	226.09
382.87	226.05
383.25	226.00
383.62	226.44
384.00	226.30
384.38	226.19
384.76	226.22
385.13	226.35
385.51	226.35
385.89	226.28
386.27	226.31
386.64	226.35
387.02	226.26
387.40	226.17
387.78	226.19
388.15	226.16
388.53	226.09
388.91	226.10
389.29	226.09
389.66	226.20
390.04	226.07
390.42	226.10
390.79	226.07
391.17	226.00
391.55	225.49
391.92	225.45
392.30	225.52
392.68	225.41
393.05	225.35
393.43	225.35
393.81	225.37
394.18	225.27
394.56	225.29
394.94	225.40
395.31	225.42
395.69	225.55
396.06	225.56
396.44	225.62
396.82	225.65
397.19	225.94
397.57	225.83
397.95	225.98
398.32	225.94
398.70	226.00
399.07	226.25
399.45	226.34
399.82	226.41
400.20	226.43
400.58	226.53
400.95	226.43
401.33	226.67
401.70	227.11
402.08	227.22
402.45	227.28
402.83	227.51
403.20	227.65
403.58	227.67
403.95	227.89
404.33	228.15
404.71	228.31
405.08	228.71
405.46	228.92
405.83	229.12
406.21	229.35
406.58	229.57
406.96	229.72
407.33	230.04
407.70	230.32
408.08	230.98
408.45	231.36
408.83	231.80
409.20	232.10
409.58	232.20
409.95	232.79
410.33	233.38
410.70	233.64
411.08	234.20
411.45	234.82
411.82	235.39
412.20	236.03
412.57	236.87
412.95	237.09
413.32	237.86
413.69	238.54
414.07	239.31
414.44	240.16
414.82	241.03
415.19	242.04
415.56	243.10
415.94	243.96
416.31	245.14
416.68	246.33
417.06	247.62
417.43	248.98
417.81	250.43
418.18	251.85
418.55	253.50
418.93	255.16
419.30	256.85
419.67	258.67
420.04	260.53
420.42	262.38
420.79	264.98
421.16	267.35
421.54	270.02
421.91	272.55
422.28	275.09
422.66	277.79
423.03	280.70
423.40	283.45
423.77	286.39
424.15	289.35
424.52	292.45
424.89	295.96
425.26	299.23
425.64	302.31
426.01	305.74
426.38	309.25
426.75	313.05
427.13	316.77
427.50	320.70
427.87	324.72
428.24	328.74
428.61	332.48
428.99	336.84
429.36	341.30
429.73	345.86
430.10	350.65
430.47	355.30
430.85	359.84
431.22	365.00
431.59	370.75
431.96	375.87
432.33	381.55
432.70	387.00
433.08	393.57
433.45	399.76
433.82	405.84
434.19	412.73
434.56	419.41
434.93	425.80
435.30	432.18
435.68	439.29
436.05	446.34
436.42	453.16
436.79	459.64
437.16	466.48
437.53	473.74
437.90	480.74
438.27	487.88
438.64	495.24
439.01	502.19
439.38	507.93
439.75	513.88
440.13	520.66
440.50	526.95
440.87	532.01
441.24	537.29
441.61	543.12
441.98	547.42
442.35	552.24
442.72	557.40
443.09	562.38
443.46	565.27
443.83	567.23
444.20	569.04
444.57	571.16
444.94	572.08
445.31	573.11
445.68	574.49
446.05	574.65
446.42	573.80
446.79	572.54
447.16	571.32
447.53	570.42
447.90	567.30
448.27	564.42
448.64	560.44
449.01	557.47
449.37	552.50
449.74	547.51
450.11	542.02
450.48	535.48
450.85	528.85
451.22	523.30
451.59	517.97
451.96	512.65
452.33	506.02
452.70	500.01
453.07	492.88
453.43	485.30
453.80	478.37
454.17	471.75
454.54	465.49
454.91	458.66
455.28	452.07
455.65	445.95
456.02	440.41
456.38	435.11
456.75	428.62
457.12	423.25
457.49	418.07
457.86	412.67
458.23	408.64
458.59	403.92
458.96	399.10
459.33	394.85
459.70	390.75
460.07	387.37
460.43	383.49
460.80	379.95
461.17	376.83
461.54	373.67
461.91	370.51
462.27	367.30
462.64	364.77
463.01	361.81
463.38	359.23
463.74	355.77
464.11	353.36
464.48	351.36
464.85	348.97
465.21	347.25
465.58	345.49
465.95	342.97
466.32	341.18
466.68	339.26
467.05	337.51
467.42	335.68
467.78	333.82
468.15	332.15
468.52	330.81
468.88	329.00
469.25	327.38
469.62	326.12
469.98	324.83
470.35	323.60
470.72	322.43
471.08	320.96
471.45	319.92
471.82	318.92
472.18	317.70
472.55	316.92
472.92	315.82
473.28	314.84
473.65	314.06
474.02	313.19
474.38	312.59
474.75	311.90
475.11	311.26
475.48	310.79
475.85	310.33
476.21	309.73
476.58	309.32
476.94	309.05
477.31	308.68
477.67	308.31
478.04	308.00
478.41	307.85
478.77	308.29
479.14	308.11
479.50	308.08
479.87	308.14
480.23	308.26
480.60	308.29
480.96	308.43
481.33	308.85
481.69	309.06
482.06	309.30
482.42	309.59
482.79	309.97
483.15	310.34
483.52	310.94
483.88	311.50
484.25	312.03
484.61	312.57
484.98	313.27
485.34	314.17
485.71	315.05
486.07	316.01
486.44	316.48
486.80	317.41
487.17	318.29
487.53	319.58
487.90	320.87
488.26	322.39
488.62	323.96
488.99	325.27
489.35	326.89
489.72	328.62
490.08	330.46
490.44	332.25
490.81	334.27
491.17	336.25
491.54	338.50
491.90	340.94
492.26	343.42
492.63	345.94
492.99	348.55
493.36	351.50
493.72	354.56
494.08	357.68
494.45	361.30
494.81	364.96
495.17	368.39
495.54	372.09
495.90	375.87
496.26	379.77
496.63	384.04
496.99	388.40
497.35	392.96
497.72	397.75
498.08	402.65
498.44	407.81
498.80	413.15
499.17	418.55
499.53	424.14
499.89	430.07
500.26	436.23
500.62	442.45
500.98	448.96
501.34	455.64
501.71	462.55
502.07	469.37
502.43	476.49
502.79	484.17
503.16	491.88
503.52	499.96
503.88	508.26
504.24	516.76
504.60	525.40
504.97	534.42
505.33	543.63
505.69	553.36
506.05	562.87
506.41	572.66
506.78	582.93
507.14	593.47
507.50	604.06
507.86	615.11
508.22	626.41
508.59	637.67
508.95	649.34
509.31	661.52
509.67	673.66
510.03	685.94
510.39	698.37
510.75	711.13
511.12	723.89
511.48	737.04
511.84	750.43
512.20	764.10
512.56	777.73
512.92	791.77
513.28	805.63
513.64	820.22
514.00	834.93
514.37	849.67
514.73	864.55
515.09	879.71
515.45	894.55
515.81	909.53
516.17	924.79
516.53	940.03
516.89	955.19
517.25	970.94
517.61	987.29
517.97	1003.55
518.33	1019.74
518.69	1036.06
519.05	1052.53
519.41	1069.04
519.77	1085.88
520.13	1102.53
520.49	1118.75
520.85	1136.96
521.21	1153.59
521.57	1170.16
521.93	1186.27
522.29	1203.00
522.65	1219.08
523.01	1235.41
523.37	1251.70
523.73	1268.16
524.09	1283.90
524.45	1299.70
524.81	1315.85
525.17	1331.49
525.53	1347.14
525.89	1363.03
526.25	1378.85
526.61	1394.07
526.97	1409.84
527.33	1425.66
527.68	1442.02
528.04	1457.86
528.40	1471.78
528.76	1487.19
529.12	1502.26
529.48	1517.73
529.84	1532.09
530.20	1547.63
530.56	1562.68
530.91	1577.58
531.27	1592.15
531.63	1607.01
531.99	1621.38
532.35	1635.51
532.71	1649.95
533.07	1664.55
533.42	1678.62
533.78	1692.18
534.14	1706.00
534.50	1719.01
534.86	1732.28
535.21	1743.92
535.57	1756.54
535.93	1768.81
536.29	1780.77
536.65	1792.76
537.00	1804.50
537.36	1816.01
537.72	1826.45
538.08	1837.61
538.44	1848.49
538.79	1859.03
539.15	1869.62
539.51	1880.20
539.87	1889.79
540.22	1898.31
540.58	1907.09
540.94	1914.95
541.29	1922.76
541.65	1930.24
542.01	1937.66
542.37	1943.09
542.72	1949.12
543.08	1954.44
543.44	1960.54
543.79	1965.71
544.15	1971.02
544.51	1976.40
544.87	1981.56
545.22	1985.70
545.58	1989.05
545.94	1991.46
546.29	1993.98
546.65	1995.79
547.01	1997.24
547.36	1998.73
547.72	2000.50
548.07	2000.67
548.43	2001.83
548.79	2002.61
549.14	2002.97
549.50	2003.32
549.86	2003.50
550.21	2004.03
550.57	2004.58
550.92	2003.19
551.28	2001.77
551.64	2000.83
551.99	1999.15
552.35	1997.58
552.70	1997.00
553.06	1996.03
553.41	1994.96
553.77	1993.68
554.13	1992.68
554.48	1991.58
554.84	1990.11
555.19	1988.51
555.55	1987.65
555.90	1984.75
556.26	1981.82
556.61	1978.55
556.97	1974.41
557.32	1971.80
557.68	1968.52
558.03	1965.07
558.39	1961.93
558.74	1959.05
559.10	1954.69
559.45	1950.08
559.81	1944.74
560.16	1938.96
560.52	1933.29
560.87	1928.24
561.23	1922.29
561.58	1916.49
561.94	1909.64
562.29	1902.91
562.64	1895.98
563.00	1888.28
563.35	1882.00
563.71	1875.72
564.06	1869.46
564.42	1863.36
564.77	1856.94
565.12	1850.11
565.48	1843.45
565.83	1836.42
566.19	1829.16
566.54	1822.15
566.89	1815.31
567.25	1808.71
567.60	1802.14
567.96	1795.78
568.31	1788.75
568.66	1781.77
569.02	1773.90
569.37	1767.05
569.72	1760.20
570.08	1752.41
570.43	1744.52
570.78	1737.04
571.14	1729.14
571.49	1720.86
571.84	1713.06
572.20	1704.59
572.55	1696.34
572.90	1687.28
573.26	1678.91
573.61	1670.08
573.96	1660.98
574.31	1651.45
574.67	1642.20
575.02	1632.20
575.37	1622.02
575.72	1611.73
576.08	1602.14
576.43	1592.31
576.78	1582.23
577.13	1571.77
577.49	1562.10
577.84	1553.09
578.19	1543.79
578.54	1534.31
578.90	1525.34
579.25	1515.98
579.60	1506.45
579.95	1496.69
580.30	1486.94
580.66	1476.95
581.01	1467.11
581.36	1456.82
581.71	1447.39
582.06	1438.14
582.42	1429.15
582.77	1420.04
583.12	1411.56
583.47	1402.68
583.82	1394.04
584.17	1385.56
584.53	1377.21
584.88	1367.85
585.23	1358.27
585.58	1348.17
585.93	1338.74
586.28	1329.20
586.63	1319.31
586.98	1309.29
587.34	1299.99
587.69	1290.62
588.04	1281.70
588.39	1273.03
588.74	1264.54
589.09	1256.30
589.44	1247.15
589.79	1238.46
590.14	1229.97
590.49	1221.40
590.84	1212.79
591.19	1204.55
591.54	1195.61
591.89	1186.95
592.25	1180.02
592.60	1172.09
592.95	1164.41
593.30	1156.16
593.65	1147.93
594.00	1139.60
594.35	1133.19
594.70	1125.03
595.05	1117.24
595.40	1108.94
595.75	1100.77
596.10	1093.09
596.45	1085.11
596.80	1077.64
597.15	1069.86
597.50	1061.79
597.85	1053.95
598.19	1045.87
598.54	1037.82
598.89	1030.23
599.24	1022.95
599.59	1015.01
599.94	1007.55
600.29	1000.22
600.64	993.44
600.99	986.10
601.34	979.64
601.69	971.74
602.04	965.02
602.39	958.05
602.74	952.02
603.08	945.63
603.43	939.37
603.78	932.76
604.13	926.12
604.48	919.70
604.83	913.10
605.18	906.51
605.53	900.15
605.87	894.00
606.22	888.21
606.57	881.92
606.92	875.38
607.27	869.45
607.62	863.50
607.96	857.63
608.31	852.35
608.66	846.62
609.01	840.84
609.36	835.14
609.70	829.68
610.05	823.69
610.40	818.27
610.75	812.26
611.10	806.51
611.44	800.71
611.79	795.11
612.14	789.84
612.49	784.48
612.83	779.55
613.18	774.43
613.53	769.20
613.88	763.93
614.22	758.83
614.57	753.54
614.92	748.07
615.27	742.95
615.61	737.54
615.96	732.27
616.31	727.10
616.65	722.35
617.00	717.49
617.35	712.74
617.70	707.71
618.04	702.96
618.39	698.32
618.74	694.00
619.08	689.14
619.43	684.37
619.78	679.58
620.12	674.69
620.47	669.91
620.82	665.01
621.16	660.25
621.51	656.10
621.85	651.81
622.20	647.57
622.55	642.83
622.89	638.61
623.24	634.51
623.59	630.07
623.93	625.78
624.28	621.58
624.62	617.91
624.97	614.17
625.32	610.40
625.66	606.29
626.01	602.14
626.35	598.64
626.70	594.97
627.04	591.48
627.39	587.62
627.73	584.09
628.08	580.73
628.43	577.22
628.77	573.34
629.12	569.72
629.46	566.43
629.81	563.41
630.15	560.18
630.50	556.70
630.84	553.51
631.19	550.21
631.53	546.94
631.88	543.11
632.22	539.49
632.57	536.50
632.91	533.44
633.26	530.43
633.60	527.30
633.95	524.10
634.29	520.87
634.64	517.97
634.98	514.59
635.32	511.60
635.67	508.95
636.01	506.23
636.36	503.30
636.70	500.50
637.05	497.46
637.39	494.55
637.73	491.91
638.08	489.27
638.42	486.32
638.77	483.51
639.11	480.54
639.45	477.59
639.80	474.45
640.14	471.70
640.49	469.09
640.83	466.32
641.17	463.95
641.52	461.38
641.86	458.95
642.20	456.87
642.55	454.29
642.89	451.73
643.23	449.23
643.58	447.12
643.92	444.69
644.26	442.46
644.61	440.30
644.95	437.87
645.29	435.43
645.64	433.42
645.98	431.34
646.32	429.37
646.66	427.29
647.01	425.32
647.35	423.35
647.69	421.39
648.04	419.60
648.38	417.54
648.72	415.61
649.06	413.41
649.41	411.30
649.75	409.26
650.09	407.35
650.43	405.39
650.78	403.35
651.12	401.38
651.46	399.42
651.80	397.48
652.14	395.68
652.49	394.02
652.83	392.24
653.17	390.42
653.51	388.62
653.85	386.95
654.20	385.20
654.54	383.40
654.88	381.53
655.22	379.97
655.56	378.34
655.90	376.66
656.25	375.19
656.59	373.60
656.93	372.12
657.27	370.65
657.61	369.06
657.95	367.40
658.29	365.91
658.64	364.49
658.98	362.94
659.32	361.38
659.66	359.85
660.00	358.33
660.34	356.84
660.68	355.41
661.02	354.08
661.36	352.70
661.70	351.35
662.05	350.04
662.39	348.61
662.73	347.38
663.07	346.40
663.41	345.17
663.75	343.81
664.09	342.63
664.43	341.24
664.77	340.02
665.11	338.80
665.45	337.60
665.79	336.50
666.13	335.39
666.47	334.25
666.81	333.10
667.15	331.85
667.49	330.83
667.83	329.94
668.17	328.83
668.51	327.83
668.85	326.81
669.19	326.09
669.53	324.92
669.87	323.78
670.21	322.54
670.55	321.53
670.89	320.85
671.23	319.90
671.57	318.91
671.91	317.96
672.25	317.08
672.58	316.26
672.92	315.16
673.26	314.28
673.60	313.39
673.94	312.57
674.28	311.83
674.62	311.02
674.96	310.03
675.30	309.30
675.64	308.48
675.97	307.62
676.31	306.54
676.65	305.65
676.99	304.96
677.33	304.03
677.67	303.29
678.01	302.30
678.34	301.48
678.68	300.91
679.02	300.14
679.36	299.44
679.70	298.66
680.04	298.02
680.37	297.29
680.71	296.57
681.05	295.95
681.39	295.26
681.73	294.53
682.06	293.86
682.40	293.21
682.74	292.65
683.08	292.27
683.42	291.62
683.75	291.14
684.09	290.52
684.43	290.05
684.77	289.33
685.10	288.71
685.44	288.13
685.78	287.46
686.12	286.85
686.45	286.27
686.79	285.75
687.13	285.29
687.46	284.77
687.80	284.36
688.14	283.69
688.48	283.17
688.81	282.65
689.15	282.28
689.49	281.77
689.82	281.27
690.16	280.50
690.50	279.99
690.83	279.41
691.17	278.82
691.51	278.32
691.84	277.94
692.18	277.45
692.52	276.97
692.85	276.52
693.19	276.27
693.52	275.80
693.86	275.25
694.20	274.73
694.53	274.18
694.87	273.69
695.21	273.23
695.54	272.82
695.88	272.31
696.21	271.63
696.55	271.10
696.88	270.62
697.22	270.17
697.56	269.81
697.89	269.38
698.23	268.96
698.56	268.50
698.90	268.08
699.23	267.67
699.57	267.25
699.90	266.82
700.24	266.29
700.58	265.91
700.91	265.58
701.25	265.62
701.58	265.68
701.92	265.40
702.25	265.16
702.59	264.75
702.92	264.44
703.26	264.27
703.59	264.04
703.93	264.10
704.26	263.85
704.60	263.57
704.93	263.21
705.26	262.88
705.60	262.64
705.93	262.23
706.27	262.07
706.60	261.85
706.94	261.69
707.27	261.40
707.61	261.20
707.94	260.92
708.27	260.23
708.61	259.51
708.94	259.16
709.28	258.78
709.61	258.39
709.94	258.13
710.28	257.73
710.61	257.37
710.95	256.62
711.28	256.65
711.61	256.32
711.95	256.19
712.28	255.86
712.61	255.57
712.95	255.57
713.28	255.44
713.61	255.10
713.95	254.70
714.28	254.43
714.61	254.05
714.95	253.70
715.28	253.41
715.61	253.16
715.95	252.89
716.28	252.62
716.61	252.47
716.95	252.17
717.28	251.99
717.61	251.74
717.94	251.55
718.28	251.00
718.61	250.66
718.94	250.37
719.27	250.15
719.61	249.98
719.94	249.64
720.27	249.17
720.60	249.01
720.94	248.80
721.27	248.60
721.60	248.49
721.93	248.33
722.27	248.27
722.60	248.15
722.93	247.92
723.26	247.72
723.59	247.48
723.93	247.35
724.26	247.16
724.59	246.97
724.92	246.82
725.25	246.72
725.59	246.64
725.92	246.49
726.25	246.31
726.58	246.12
726.91	245.89
727.24	245.76
727.57	245.56
727.91	245.30
728.24	245.20
728.57	244.93
728.90	244.84
729.23	244.49
729.56	244.45
729.89	244.37
730.22	244.23
730.55	244.13
730.89	244.01
731.22	243.85
731.55	243.72
731.88	243.48
732.21	243.26
732.54	243.02
732.87	242.92
733.20	242.80
733.53	242.62
733.86	242.54
734.19	242.39
734.52	242.24
734.85	242.52
735.18	242.29
735.51	242.34
735.84	242.21
736.17	242.30
736.50	242.05
736.83	242.39
737.16	242.26
737.49	242.13
737.82	241.92
738.15	241.78
738.48	241.57
738.81	241.49
739.14	241.35
739.47	241.21
739.80	241.04
740.13	240.94
740.46	240.76
740.79	240.50
741.12	240.38
741.45	240.25
741.78	239.72
742.11	239.75
742.44	239.50
742.77	239.41
743.10	239.13
743.43	239.03
743.75	238.35
744.08	238.83
744.41	238.69
744.74	238.56
745.07	238.42
745.40	238.38
745.73	238.50
746.06	238.35
746.39	238.35
746.71	238.18
747.04	238.08
747.37	237.93
747.70	238.04
748.03	237.95
748.36	237.87
748.68	237.82
749.01	237.56
749.34	237.39
749.67	237.26
750.00	237.27
750.33	237.37
750.65	237.41
750.98	236.70
751.31	236.62
751.64	236.58
751.97	236.81
752.29	236.71
752.62	236.38
752.95	236.26
753.28	236.16
753.60	236.08
753.93	236.13
754.26	236.17
754.59	235.89
754.91	235.77
755.24	235.74
755.57	235.73
755.90	235.72
756.22	235.69
756.55	235.50
756.88	235.30
757.20	234.97
757.53	234.75
757.86	234.73
758.19	234.65
758.51	234.51
758.84	234.12
759.17	234.05
759.49	234.01
759.82	234.16
760.15	234.07
760.47	233.98
760.80	233.66
761.13	233.60
761.45	233.61
761.78	233.49
762.11	233.35
762.43	233.18
762.76	233.07
763.08	232.99
763.41	233.04
763.74	233.01
764.06	232.93
764.39	232.82
764.71	232.74
765.04	232.61
765.37	232.53
765.69	232.47
766.02	232.41
766.34	232.26
766.67	231.98
767.00	231.98
767.32	232.15
767.65	232.45
767.97	232.42
768.30	232.36
768.62	232.32
768.95	232.27
769.27	232.25
769.60	232.24
769.92	232.21
770.25	232.05
770.57	231.90
770.90	231.87
771.22	231.89
771.55	231.83
771.87	231.81
772.20	231.83
772.52	232.15
772.85	232.61
773.17	232.66
773.50	232.70
773.82	232.63
774.15	232.33
774.47	231.96
774.80	231.82
775.12	231.70
775.45	231.65
775.77	231.61
776.09	231.54
776.42	231.53
776.74	231.68
777.07	231.58
777.39	231.55
777.72	231.47
778.04	231.42
778.36	231.32
778.69	231.29
779.01	231.23
779.33	230.81
779.66	230.24
779.98	230.18
780.31	230.11
780.63	230.26
780.95	230.31
781.28	230.28
781.60	230.24
781.92	230.21
782.25	230.18
782.57	230.11
782.89	230.09
783.22	230.07
783.54	229.87
783.86	229.91
784.19	229.89
784.51	230.00
784.83	229.93
785.16	229.93
785.48	229.89
785.80	229.85
786.12	229.82
786.45	229.83
786.77	229.80
787.09	229.79
787.42	229.58
787.74	229.57
788.06	229.55
788.38	229.47
788.71	229.44
789.03	229.44
789.35	229.55
789.67	229.50
789.99	229.36
790.32	229.34
790.64	229.32
790.96	229.71
791.28	229.48
791.61	229.46
791.93	229.48
792.25	229.46
792.57	229.81
792.89	229.68
793.21	229.64
793.54	229.59
793.86	229.53
794.18	229.51
794.50	229.43
794.82	229.47
795.14	229.55
795.47	229.68
795.79	229.70
796.11	229.54
796.43	229.46
796.75	229.47
797.07	229.39
797.39	229.42
797.71	229.01
798.04	229.14
798.36	229.12
798.68	229.08
799.00	229.08
799.32	228.82
799.64	228.97
799.96	228.99
800.28	229.05
800.60	228.96
800.92	229.01
801.24	229.01
801.56	228.99
801.89	228.87
802.21	228.78
802.53	228.68
802.85	228.76
803.17	229.01
803.49	228.89
803.81	228.83
804.13	228.78
804.45	228.73
804.77	228.66
805.09	228.66
805.41	228.63
805.73	228.52
806.05	228.39
806.37	228.39
806.69	228.31
807.01	228.27
807.33	228.36
807.65	228.14
807.97	228.32
808.28	228.26
808.60	228.29
808.92	228.17
809.24	228.42
809.56	228.34
809.88	228.13
810.20	228.18
810.52	228.30
810.84	228.21
811.16	228.09
811.48	228.10
811.80	228.27
812.12	228.26
812.43	228.36
812.75	228.41
813.07	228.27
813.39	228.26
813.71	228.16
814.03	228.05
814.35	228.06
814.67	227.83
814.98	227.80
815.30	227.76
815.62	227.75
815.94	227.51
816.26	227.71
816.58	227.53
816.89	227.58
817.21	227.40
817.53	227.45
817.85	227.57
818.17	227.50
818.48	227.27
818.80	227.38
819.12	227.33
819.44	227.17
819.76	227.09
820.07	227.11
820.39	227.05
820.71	227.12
821.03	227.13
821.34	227.08
821.66	227.12
821.98	227.09
822.30	227.08
822.61	227.24
822.93	227.02
823.25	227.06
823.57	227.00
823.88	227.14
824.20	227.09
824.52	227.15
824.83	227.19
825.15	227.15
825.47	227.04
825.79	227.11
826.10	227.15
826.42	227.20
826.74	227.23
827.05	227.18
827.37	227.16
827.69	227.15
828.00	227.17
828.32	227.10
828.64	227.09
828.95	227.32
829.27	227.26
829.58	227.19
829.90	227.37
830.22	227.39
830.53	227.30
830.85	227.27
831.17	227.10
831.48	227.09
831.80	227.03
832.11	227.05
832.43	226.94
832.75	226.93
833.06	227.23
833.38	227.06
833.69	227.13
834.01	227.15
834.32	227.08
834.64	227.05
834.96	227.10
835.27	227.08
835.59	226.89
835.90	226.78
836.22	226.82
836.53	226.66
836.85	226.56
837.16	227.01
837.48	226.96
837.79	227.13
838.11	227.16
838.42	227.25
838.74	227.31
839.05	227.26
839.37	227.22
839.68	226.94
840.00	227.04
840.31	227.09
840.63	227.04
840.94	227.02
841.26	227.00
841.57	226.96
841.88	227.05
842.20	227.01
842.51	227.00
842.83	227.03
843.14	227.46
843.46	227.58
843.77	227.32
844.08	227.36
844.40	227.22
844.71	227.22
845.03	227.12
845.34	227.01
845.65	227.03
845.97	227.01
846.28	227.00
846.60	226.96
846.91	226.90
847.22	226.93
847.54	227.05
847.85	227.04
848.16	227.02
848.48	226.88
848.79	227.08
849.10	227.11
849.42	227.12
849.73	226.74
850.04	226.69
850.36	226.52
850.67	226.62
850.98	226.60
851.30	226.59
851.61	226.68
851.92	226.66
852.23	226.76
852.55	226.83
852.86	226.79
853.17	226.82
853.49	226.93
853.80	227.02
854.11	227.09
854.42	227.22
854.74	227.10
855.05	227.15
855.36	226.88
855.67	226.83
855.99	226.80
856.30	227.33
856.61	227.30
856.92	227.35
857.23	227.31
857.55	227.30
857.86	227.21
858.17	227.21
858.48	227.12
858.79	227.05
859.11	227.08
859.42	227.13
859.73	227.08
860.04	227.05
860.35	226.89
860.66	226.70
860.98	226.61
861.29	226.75
861.60	226.69
861.91	226.76
862.22	226.68
862.53	226.61
862.84	226.03
863.16	226.11
863.47	225.90
863.78	225.82
864.09	225.83
864.40	225.92
864.71	225.95
865.02	226.01
865.33	226.00
865.64	225.91
865.95	225.84
866.27	226.18
866.58	226.11
866.89	226.15
867.20	226.13
867.51	226.09
867.82	226.06
868.13	226.25
868.44	226.16
868.75	226.31
869.06	226.36
869.37	226.45
869.68	226.36
869.99	226.53
870.30	226.57
870.61	226.66
870.92	226.54
871.23	226.43
871.54	226.51
871.85	226.60
872.16	226.67
872.47	226.68
872.78	226.42
873.09	226.50
873.40	226.51
873.71	226.60
874.02	226.60
874.33	226.56
874.64	226.39
874.95	226.51
875.26	226.39
875.56	226.33
875.87	226.28
876.18	226.28
876.49	226.69
876.80	226.68
877.11	226.57
877.42	226.61
877.73	226.63
878.04	226.57
878.35	226.50
878.66	226.50
878.96	226.40
879.27	226.40
879.58	226.30
879.89	226.18
880.20	226.30
880.51	226.30
880.82	226.34
881.12	226.38
881.43	226.30
881.74	226.27
882.05	226.30
882.36	226.29
882.67	226.30
882.97	225.83
883.28	225.84
883.59	225.76
883.90	225.83
884.21	225.95
884.51	225.90
884.82	225.92
885.13	225.95
885.44	226.03
885.74	225.97
886.05	225.99
886.36	226.08
886.67	225.85
886.98	226.10
887.28	226.10
887.59	226.10
887.90	226.16
888.20	226.20
888.51	226.27
888.82	226.24
889.13	226.29
889.43	226.66
889.74	226.55
890.05	226.60
890.35	226.47
890.66	226.38
890.97	226.35
891.28	226.29
891.58	226.23
891.89	226.24
892.20	226.16
892.50	226.09
892.81	226.03
893.12	226.02
893.42	225.70
893.73	225.67
894.04	225.70
894.34	225.70
894.65	225.59
894.95	225.51
895.26	225.50
895.57	225.66
895.87	225.22
896.18	225.34
896.48	225.35
896.79	225.37
897.10	225.40
897.40	225.46
897.71	225.38
898.01	225.40
898.32	225.43
898.63	225.51
898.93	225.53
899.24	225.45
899.54	225.41
899.85	225.44
900.15	225.47
900.46	225.43
900.76	225.48
901.07	225.50
901.38	225.52
901.68	225.57
901.99	225.34
902.29	225.35
902.60	225.32
902.90	225.24
903.21	225.29
903.51	225.28
903.82	225.34
904.12	225.42
904.43	225.42
904.73	225.40
905.03	225.42
905.34	225.87
905.64	225.94
905.95	226.00
906.25	225.97
906.56	225.96
906.86	225.99
907.17	225.91
907.47	225.87
907.77	225.87
908.08	225.83
908.38	225.94
908.69	225.99
908.99	226.00
909.30	225.96
909.60	225.90
909.90	225.90
910.21	225.74
910.51	225.70
910.81	225.69
911.12	225.70
911.42	225.66
911.73	225.21
912.03	225.25
912.33	225.34
912.64	225.36
912.94	225.34
913.24	225.23
913.55	225.24
913.85	225.28
914.15	225.36
914.46	225.43
914.76	225.36
915.06	225.38
915.37	225.31
915.67	225.44
915.97	225.46
916.27	225.40
916.58	225.48
916.88	225.44
917.18	225.42
917.49	225.76
917.79	225.80
918.09	225.92
918.39	226.01
918.70	225.98
919.00	225.96
919.30	226.14
919.60	226.14
919.91	226.10
920.21	226.15
920.51	226.09
920.81	226.09
921.12	226.17
921.42	226.16
921.72	226.22
922.02	226.26
922.32	226.42
922.63	226.43
922.93	226.70
923.23	226.75
923.53	226.67
923.83	226.41
924.13	226.41
924.44	226.40
924.74	226.47
925.04	226.63
925.34	226.72
925.64	226.60
925.94	226.65
926.24	226.95
926.55	226.93
926.85	226.99
927.15	226.90
927.45	226.86
927.75	226.89
928.05	226.92
928.35	226.84
928.65	226.85
928.95	226.87
929.26	226.65
929.56	226.75
929.86	226.82
930.16	226.71
930.46	226.73
930.76	226.72
931.06	226.54
931.36	226.41
931.66	226.45
931.96	226.48
932.26	226.47
932.56	226.21
932.86	226.21
933.16	226.21
933.46	226.18
933.76	226.15
934.06	226.22
934.36	226.39
934.66	226.36
934.96	226.24
935.26	226.29
935.56	226.32
935.86	226.19
936.16	226.17
936.46	226.16
936.76	226.12
937.06	226.01
937.36	225.97
937.66	225.93
937.96	225.90
938.26	225.73
938.56	225.71
938.86	225.79
939.16	225.84
939.46	225.80
939.76	225.85
940.06	225.82
940.35	225.77
940.65	225.56
940.95	225.60
941.25	225.57
941.55	225.55
941.85	225.53
942.15	225.60
942.45	225.65
942.75	225.61
943.04	225.60
943.34	225.72
943.64	225.71
943.94	225.65
944.24	225.60
944.54	225.70
944.84	225.65
945.13	225.56
945.43	225.53
945.73	225.51
946.03	225.47
946.33	225.44
946.62	225.35
946.92	225.27
947.22	225.34
947.52	225.34
947.82	225.37
948.11	225.30
948.41	225.25
948.71	225.11
949.01	225.12
949.31	225.14
949.60	225.13
949.90	225.19
950.20	225.19
950.50	225.17
950.79	225.10
951.09	225.21
951.39	225.19
951.69	225.14
951.98	225.26
952.28	225.26
952.58	225.28
952.87	225.26
953.17	225.34
953.47	225.29
953.76	225.24
954.06	225.14
954.36	225.10
954.66	225.13
954.95	225.29
955.25	225.33
955.55	225.39
955.84	225.30
956.14	225.46
956.44	225.55
956.73	225.51
957.03	225.62
957.32	225.59
957.62	225.54
957.92	225.62
958.21	225.51
958.51	226.14
958.81	226.15
959.10	226.30
959.40	226.42
959.69	226.48
959.99	226.62
960.29	226.71
960.58	226.81
960.88	226.91
961.17	226.86
961.47	226.93
961.76	226.89
962.06	227.00
962.36	226.87
962.65	226.85
962.95	226.91
963.24	226.87
963.54	226.89
963.83	226.96
964.13	226.95
964.42	226.84
964.72	226.42
965.01	226.42
965.31	226.32
965.60	226.24
965.90	226.48
966.19	226.31
966.49	226.27
966.78	226.19
967.08	226.25
967.37	226.21
967.67	226.15
967.96	226.18
968.26	226.15
968.55	226.19
968.85	226.18
969.14	226.18
969.43	226.13
969.73	226.08
970.02	226.06
970.32	226.03
970.61	226.06
970.91	225.90
971.20	225.84
971.49	225.79
971.79	225.76
972.08	225.42
972.38	225.46
972.67	225.39
972.96	225.48
973.26	225.31
973.55	225.50
973.85	225.40
974.14	225.37
974.43	225.28
974.73	225.20
975.02	225.20
975.31	225.18
975.61	225.22
975.90	225.20
976.19	225.18
976.49	225.16
976.78	225.23
977.07	225.20
977.37	225.24
977.66	225.27
977.95	225.30
978.24	225.31
978.54	225.43
978.83	225.45
979.12	225.38
979.42	225.38
979.71	225.24
980.00	225.22
980.29	225.20
980.59	225.24
980.88	225.32
981.17	225.22
981.46	225.25
981.76	225.13
982.05	225.29
982.34	225.25
982.63	225.24
982.93	225.20
983.22	225.35
983.51	225.31
983.80	225.36
984.09	225.48
984.39	225.44
984.68	225.37
984.97	225.38
985.26	225.47
985.55	225.54
985.85	225.48
986.14	225.67
986.43	225.73
986.72	225.74
987.01	225.65
987.30	225.76
987.59	225.70
987.89	225.77
988.18	225.59
988.47	225.64
988.76	225.74
989.05	225.76
989.34	225.69
989.63	225.88
989.92	225.84
990.22	225.71
990.51	225.76
990.80	225.72
991.09	225.72
991.38	225.68
991.67	225.64
991.96	225.62
992.25	225.52
992.54	225.47
992.83	225.48
993.12	225.50
993.41	225.52
993.70	225.68
993.99	225.83
994.28	225.90
994.58	225.96
994.87	225.84
995.16	225.83
995.45	225.84
995.74	225.66
996.03	225.80
996.32	225.85
996.61	225.91
996.90	225.83
997.19	225.81
997.48	225.73
997.77	225.73
998.06	225.79
998.34	225.82
998.63	225.82
998.92	225.78
999.21	225.75
999.50	225.73
999.79	225.51
1000.08	225.47
1000.37	225.53
1000.66	225.39
1000.95	225.54
1001.24	225.55
1001.53	225.63
1001.82	225.63
1002.11	225.46
1002.40	225.45
1002.68	225.67
1002.97	226.05
1003.26	226.03
1003.55	226.09
1003.84	226.04
1004.13	226.28
1004.42	226.27
1004.71	226.25
1004.99	226.29
1005.28	226.37
1005.57	226.34
1005.86	226.42
1006.15	226.36
1006.44	226.20
1006.72	226.32
1007.01	226.18
1007.30	226.22
1007.59	226.10
1007.88	226.06
1008.17	226.10
1008.45	226.00
1008.74	225.70
1009.03	225.51
1009.32	225.48
1009.60	225.42
1009.89	225.41
1010.18	225.14
1010.47	225.07
1010.76	225.11
1011.04	225.05
1011.33	225.13
1011.62	225.16
1011.91	225.18
1012.19	225.19
1012.48	225.23
1012.77	225.25
1013.05	225.52
1013.34	225.49
1013.63	225.49
1013.92	225.54
1014.20	225.46
1014.49	225.51
1014.78	225.58
1015.06	225.42
1015.35	225.42
1015.64	225.52
1015.92	225.64
1016.21	225.64
1016.50	225.72
1016.78	225.74
1017.07	225.78
1017.36	225.70
1017.64	225.65
1017.93	225.70
1018.22	225.71
1018.50	225.71
1018.79	225.72
1019.08	225.43
1019.36	225.47
1019.65	225.45
1019.93	225.52
1020.22	225.62
1020.51	225.85
1020.79	225.75
1021.08	225.65
1021.36	224.20
1021.65	227.15
1021.94	224.25
1022.22	226.10
1022.51	225.25
1022.79	226.90
1023.08	225.95
1023.36	230.35
1023.65	223.65
>>>>>End Processed Spectral Data<<<<<
