SpectraSuite Data File
++++++++++++++++++++++++++++++++++++
Date: Wed Sep 04 17:41:05 EDT 2013
User: lab3
Dark Spectrum Present: Yes
Reference Spectrum Present: No
Number of Sampled Component Spectra: 1
Spectrometers: USB2E7196
Integration Time (usec): 170000 (USB2E7196)
Spectra Averaged: 20 (USB2E7196)
Boxcar Smoothing: 10 (USB2E7196)
Correct for Electrical Dark: No (USB2E7196)
Strobe/Lamp Enabled: No (USB2E7196)
Correct for Detector Non-linearity: No (USB2E7196)
Correct for Stray Light: No (USB2E7196)
Number of Pixels in Processed Spectrum: 2048
>>>>>Begin Processed Spectral Data<<<<<
339.09	0.00
339.48	212.40
339.86	213.65
340.24	216.05
340.63	217.10
341.01	223.95
341.39	220.20
341.78	222.60
342.16	223.10
342.54	223.25
342.93	212.03
343.31	222.71
343.69	223.29
344.07	223.77
344.46	224.20
344.84	224.66
345.22	224.68
345.60	224.94
345.99	225.09
346.37	225.23
346.75	225.32
347.13	225.34
347.52	225.41
347.90	225.59
348.28	225.53
348.66	225.62
349.05	225.48
349.43	225.63
349.81	225.61
350.19	225.62
350.57	225.68
350.96	225.68
351.34	225.78
351.72	225.82
352.10	225.93
352.48	226.03
352.87	226.06
353.25	226.15
353.63	226.16
354.01	226.19
354.39	226.24
354.77	226.27
355.15	226.43
355.54	226.42
355.92	226.32
356.30	226.42
356.68	226.76
357.06	226.80
357.44	226.74
357.82	226.90
358.20	227.38
358.58	227.43
358.97	227.56
359.35	227.74
359.73	227.89
360.11	227.88
360.49	227.93
360.87	227.95
361.25	228.03
361.63	228.27
362.01	228.33
362.39	228.37
362.77	228.46
363.15	228.50
363.53	228.63
363.91	228.68
364.29	228.73
364.67	228.29
365.05	228.39
365.43	228.44
365.81	228.52
366.19	228.40
366.57	228.61
366.95	228.64
367.33	228.52
367.71	228.57
368.09	228.73
368.47	228.72
368.85	228.66
369.23	228.73
369.61	228.57
369.99	228.68
370.37	228.77
370.75	228.99
371.13	228.93
371.51	228.82
371.89	228.91
372.27	228.87
372.65	228.95
373.03	228.85
373.41	228.78
373.78	228.63
374.16	228.30
374.54	228.13
374.92	228.02
375.30	228.03
375.68	227.83
376.06	227.75
376.44	227.63
376.82	227.61
377.19	227.46
377.57	227.34
377.95	227.20
378.33	227.05
378.71	226.67
379.09	226.65
379.47	226.69
379.84	226.62
380.22	226.55
380.60	226.42
380.98	226.39
381.36	226.33
381.73	226.14
382.11	226.18
382.49	226.09
382.87	225.98
383.25	225.84
383.62	226.34
384.00	226.20
384.38	226.21
384.76	226.20
385.13	226.44
385.51	226.43
385.89	226.29
386.27	226.24
386.64	226.22
387.02	226.13
387.40	226.04
387.78	225.99
388.15	225.95
388.53	225.87
388.91	225.81
389.29	225.72
389.66	225.86
390.04	225.76
390.42	225.77
390.79	225.73
391.17	225.75
391.55	225.12
391.92	225.07
392.30	225.01
392.68	224.92
393.05	224.82
393.43	224.86
393.81	224.93
394.18	224.84
394.56	224.94
394.94	225.05
395.31	224.93
395.69	225.05
396.06	225.10
396.44	225.18
396.82	225.20
397.19	225.51
397.57	225.47
397.95	225.56
398.32	225.53
398.70	225.69
399.07	225.88
399.45	226.05
399.82	226.15
400.20	226.29
400.58	226.39
400.95	226.23
401.33	226.38
401.70	226.84
402.08	227.05
402.45	227.12
402.83	227.29
403.20	227.62
403.58	227.59
403.95	227.88
404.33	228.08
404.71	228.28
405.08	228.72
405.46	228.94
405.83	229.18
406.21	229.41
406.58	229.64
406.96	229.80
407.33	230.07
407.70	230.41
408.08	231.03
408.45	231.38
408.83	231.85
409.20	232.19
409.58	232.18
409.95	232.60
410.33	233.14
410.70	233.45
411.08	233.97
411.45	234.58
411.82	235.02
412.20	235.71
412.57	236.62
412.95	236.81
413.32	237.57
413.69	238.26
414.07	239.08
414.44	239.88
414.82	240.79
415.19	241.83
415.56	242.82
415.94	243.69
416.31	244.93
416.68	246.13
417.06	247.43
417.43	248.83
417.81	250.29
418.18	251.68
418.55	253.39
418.93	255.10
419.30	256.80
419.67	258.69
420.04	260.64
420.42	262.54
420.79	265.08
421.16	267.42
421.54	270.03
421.91	272.51
422.28	275.06
422.66	277.79
423.03	280.69
423.40	283.42
423.77	286.30
424.15	289.19
424.52	292.38
424.89	295.93
425.26	299.15
425.64	302.35
426.01	305.87
426.38	309.44
426.75	313.08
427.13	316.96
427.50	320.93
427.87	324.89
428.24	329.00
428.61	332.77
428.99	337.15
429.36	341.71
429.73	346.32
430.10	350.98
430.47	355.57
430.85	360.19
431.22	365.46
431.59	371.10
431.96	376.41
432.33	382.12
432.70	387.65
433.08	394.23
433.45	400.34
433.82	406.59
434.19	413.49
434.56	420.24
434.93	426.55
435.30	432.91
435.68	440.04
436.05	446.98
436.42	453.90
436.79	460.23
437.16	467.00
437.53	474.23
437.90	481.31
438.27	488.52
438.64	495.94
439.01	502.85
439.38	508.87
439.75	514.83
440.13	521.56
440.50	527.75
440.87	532.93
441.24	538.32
441.61	544.10
441.98	548.31
442.35	553.20
442.72	558.36
443.09	563.43
443.46	566.38
443.83	568.31
444.20	570.00
444.57	572.37
444.94	573.40
445.31	574.45
445.68	575.85
446.05	576.01
446.42	574.94
446.79	573.80
447.16	572.45
447.53	571.35
447.90	568.34
448.27	565.37
448.64	561.19
449.01	558.24
449.37	553.17
449.74	548.17
450.11	542.72
450.48	536.15
450.85	529.50
451.22	523.84
451.59	518.55
451.96	513.33
452.33	506.68
452.70	500.64
453.07	493.39
453.43	485.73
453.80	478.95
454.17	472.35
454.54	465.99
454.91	459.15
455.28	452.57
455.65	446.36
456.02	440.98
456.38	435.79
456.75	429.29
457.12	423.83
457.49	418.71
457.86	413.27
458.23	409.11
458.59	404.17
458.96	399.37
459.33	394.97
459.70	390.85
460.07	387.44
460.43	383.56
460.80	380.15
461.17	377.05
461.54	373.69
461.91	370.54
462.27	367.34
462.64	364.84
463.01	361.93
463.38	359.34
463.74	355.70
464.11	353.18
464.48	351.11
464.85	348.74
465.21	346.96
465.58	345.06
465.95	342.68
466.32	340.88
466.68	338.99
467.05	337.18
467.42	335.35
467.78	333.43
468.15	331.56
468.52	330.17
468.88	328.35
469.25	326.70
469.62	325.55
469.98	324.22
470.35	322.98
470.72	321.82
471.08	320.27
471.45	319.32
471.82	318.40
472.18	317.15
472.55	316.35
472.92	315.17
473.28	314.31
473.65	313.50
474.02	312.69
474.38	312.02
474.75	311.46
475.11	310.75
475.48	310.21
475.85	309.77
476.21	309.26
476.58	308.99
476.94	308.70
477.31	308.23
477.67	307.88
478.04	307.58
478.41	307.40
478.77	307.85
479.14	307.65
479.50	307.60
479.87	307.64
480.23	307.76
480.60	307.84
480.96	307.92
481.33	308.35
481.69	308.63
482.06	308.84
482.42	309.14
482.79	309.55
483.15	309.98
483.52	310.74
483.88	311.25
484.25	311.69
484.61	312.35
484.98	313.01
485.34	313.91
485.71	314.78
486.07	315.74
486.44	316.23
486.80	317.24
487.17	318.35
487.53	319.65
487.90	320.96
488.26	322.55
488.62	324.01
488.99	325.37
489.35	326.96
489.72	328.81
490.08	330.56
490.44	332.39
490.81	334.40
491.17	336.31
491.54	338.57
491.90	341.00
492.26	343.51
492.63	346.20
492.99	348.84
493.36	351.79
493.72	354.77
494.08	357.90
494.45	361.31
494.81	364.91
495.17	368.36
495.54	372.14
495.90	375.94
496.26	379.97
496.63	384.12
496.99	388.60
497.35	393.08
497.72	397.92
498.08	402.83
498.44	408.00
498.80	413.43
499.17	418.85
499.53	424.48
499.89	430.44
500.26	436.57
500.62	442.80
500.98	449.21
501.34	455.80
501.71	462.66
502.07	469.52
502.43	476.64
502.79	484.07
503.16	491.66
503.52	499.58
503.88	507.82
504.24	516.37
504.60	525.07
504.97	534.23
505.33	543.21
505.69	552.89
506.05	562.40
506.41	572.12
506.78	582.28
507.14	592.54
507.50	603.03
507.86	613.89
508.22	625.15
508.59	636.55
508.95	648.16
509.31	660.35
509.67	672.74
510.03	684.98
510.39	697.49
510.75	710.35
511.12	723.31
511.48	736.47
511.84	749.76
512.20	763.11
512.56	776.50
512.92	790.57
513.28	804.63
513.64	818.99
514.00	833.58
514.37	848.38
514.73	863.42
515.09	878.62
515.45	893.60
515.81	908.55
516.17	923.95
516.53	939.21
516.89	954.45
517.25	970.19
517.61	986.63
517.97	1003.31
518.33	1019.26
518.69	1035.50
519.05	1052.00
519.41	1068.57
519.77	1085.69
520.13	1102.58
520.49	1119.12
520.85	1137.15
521.21	1154.15
521.57	1170.95
521.93	1187.23
522.29	1204.12
522.65	1220.17
523.01	1236.70
523.37	1252.96
523.73	1269.18
524.09	1285.13
524.45	1300.94
524.81	1316.80
525.17	1332.38
525.53	1347.93
525.89	1364.04
526.25	1379.72
526.61	1394.99
526.97	1410.84
527.33	1426.49
527.68	1442.65
528.04	1458.60
528.40	1472.67
528.76	1488.02
529.12	1503.24
529.48	1518.46
529.84	1532.70
530.20	1548.30
530.56	1563.30
530.91	1578.45
531.27	1593.00
531.63	1608.01
531.99	1622.65
532.35	1636.95
532.71	1651.37
533.07	1666.02
533.42	1679.99
533.78	1694.24
534.14	1708.05
534.50	1721.17
534.86	1734.35
535.21	1746.06
535.57	1758.55
535.93	1770.61
536.29	1782.33
536.65	1794.48
537.00	1806.04
537.36	1817.77
537.72	1827.98
538.08	1839.37
538.44	1850.15
538.79	1860.99
539.15	1871.46
539.51	1881.89
539.87	1891.16
540.22	1899.86
540.58	1908.44
540.94	1916.26
541.29	1923.56
541.65	1931.07
542.01	1938.30
542.37	1944.00
542.72	1950.32
543.08	1955.90
543.44	1962.16
543.79	1967.67
544.15	1972.61
544.51	1978.25
544.87	1983.20
545.22	1987.85
545.58	1990.75
545.94	1993.58
546.29	1995.83
546.65	1997.83
547.01	1999.63
547.36	2001.45
547.72	2002.81
548.07	2003.39
548.43	2005.04
548.79	2005.86
549.14	2006.26
549.50	2006.42
549.86	2006.64
550.21	2006.90
550.57	2007.23
550.92	2005.91
551.28	2004.49
551.64	2003.85
551.99	2002.49
552.35	2001.14
552.70	2000.19
553.06	1999.35
553.41	1998.04
553.77	1997.12
554.13	1996.16
554.48	1994.93
554.84	1993.56
555.19	1992.16
555.55	1991.11
555.90	1988.14
556.26	1985.30
556.61	1982.18
556.97	1978.48
557.32	1976.07
557.68	1972.92
558.03	1969.25
558.39	1966.07
558.74	1963.06
559.10	1958.26
559.45	1953.55
559.81	1948.26
560.16	1942.48
560.52	1936.91
560.87	1931.60
561.23	1925.65
561.58	1919.75
561.94	1912.56
562.29	1905.58
562.64	1898.84
563.00	1891.06
563.35	1884.53
563.71	1878.00
564.06	1871.81
564.42	1865.79
564.77	1859.04
565.12	1852.19
565.48	1845.47
565.83	1838.50
566.19	1831.57
566.54	1824.80
566.89	1817.79
567.25	1811.05
567.60	1804.58
567.96	1798.06
568.31	1791.13
568.66	1783.70
569.02	1775.75
569.37	1768.70
569.72	1762.22
570.08	1754.40
570.43	1746.64
570.78	1739.10
571.14	1731.40
571.49	1722.87
571.84	1714.77
572.20	1706.30
572.55	1698.01
572.90	1689.14
573.26	1680.62
573.61	1671.83
573.96	1662.96
574.31	1653.51
574.67	1644.02
575.02	1634.13
575.37	1623.91
575.72	1613.84
576.08	1604.55
576.43	1595.05
576.78	1585.22
577.13	1574.67
577.49	1565.20
577.84	1556.20
578.19	1546.92
578.54	1537.40
578.90	1528.45
579.25	1519.27
579.60	1510.01
579.95	1500.51
580.30	1490.94
580.66	1481.32
581.01	1471.07
581.36	1460.71
581.71	1451.31
582.06	1442.25
582.42	1433.37
582.77	1424.32
583.12	1415.62
583.47	1406.49
583.82	1397.51
584.17	1388.98
584.53	1380.45
584.88	1370.84
585.23	1361.14
585.58	1351.13
585.93	1341.56
586.28	1331.98
586.63	1321.98
586.98	1311.64
587.34	1302.05
587.69	1292.42
588.04	1283.43
588.39	1275.14
588.74	1266.49
589.09	1258.09
589.44	1248.74
589.79	1239.92
590.14	1231.46
590.49	1222.77
590.84	1214.16
591.19	1205.69
591.54	1196.91
591.89	1188.32
592.25	1181.50
592.60	1173.41
592.95	1165.52
593.30	1157.30
593.65	1149.05
594.00	1140.65
594.35	1134.40
594.70	1126.33
595.05	1118.55
595.40	1109.89
595.75	1101.41
596.10	1093.66
596.45	1085.42
596.80	1078.05
597.15	1070.15
597.50	1061.97
597.85	1054.18
598.19	1046.24
598.54	1038.42
598.89	1030.53
599.24	1023.33
599.59	1014.94
599.94	1007.58
600.29	1000.35
600.64	993.38
600.99	986.10
601.34	979.72
601.69	971.47
602.04	964.72
602.39	957.91
602.74	951.74
603.08	945.36
603.43	939.30
603.78	932.84
604.13	926.20
604.48	919.69
604.83	913.19
605.18	906.52
605.53	900.15
605.87	893.90
606.22	888.38
606.57	881.93
606.92	875.73
607.27	869.50
607.62	863.94
607.96	858.22
608.31	852.95
608.66	847.13
609.01	841.47
609.36	835.74
609.70	830.22
610.05	824.48
610.40	818.77
610.75	812.74
611.10	807.10
611.44	801.42
611.79	795.79
612.14	790.42
612.49	785.06
612.83	779.97
613.18	774.76
613.53	769.28
613.88	764.10
614.22	758.82
614.57	753.58
614.92	747.78
615.27	742.52
615.61	737.02
615.96	731.82
616.31	726.61
616.65	721.68
617.00	716.73
617.35	711.68
617.70	706.80
618.04	701.89
618.39	697.14
618.74	692.65
619.08	688.05
619.43	683.21
619.78	678.35
620.12	673.55
620.47	668.90
620.82	664.10
621.16	659.34
621.51	655.23
621.85	650.99
622.20	646.64
622.55	642.19
622.89	637.90
623.24	633.65
623.59	629.40
623.93	625.31
624.28	621.05
624.62	617.57
624.97	613.64
625.32	609.74
625.66	605.80
626.01	601.75
626.35	598.06
626.70	594.29
627.04	590.93
627.39	587.14
627.73	583.53
628.08	580.11
628.43	576.50
628.77	572.60
629.12	568.92
629.46	565.60
629.81	562.45
630.15	559.20
630.50	556.00
630.84	552.63
631.19	549.31
631.53	546.26
631.88	542.41
632.22	539.24
632.57	536.26
632.91	533.06
633.26	530.05
633.60	526.90
633.95	523.89
634.29	520.52
634.64	517.50
634.98	514.36
635.32	511.41
635.67	508.77
636.01	505.92
636.36	503.06
636.70	500.29
637.05	497.28
637.39	494.30
637.73	491.47
638.08	488.89
638.42	485.96
638.77	483.04
639.11	480.19
639.45	477.22
639.80	474.09
640.14	471.37
640.49	468.61
640.83	465.98
641.17	463.47
641.52	460.88
641.86	458.46
642.20	456.25
642.55	453.65
642.89	451.19
643.23	448.73
643.58	446.60
643.92	444.06
644.26	441.74
644.61	439.69
644.95	437.38
645.29	435.00
645.64	432.74
645.98	430.45
646.32	428.49
646.66	426.29
647.01	424.35
647.35	422.40
647.69	420.45
648.04	418.47
648.38	416.53
648.72	414.70
649.06	412.64
649.41	410.48
649.75	408.42
650.09	406.29
650.43	404.37
650.78	402.24
651.12	400.40
651.46	398.55
651.80	396.58
652.14	394.65
652.49	393.02
652.83	391.29
653.17	389.62
653.51	387.71
653.85	386.07
654.20	384.34
654.54	382.51
654.88	380.76
655.22	379.30
655.56	377.62
655.90	375.92
656.25	374.28
656.59	372.78
656.93	371.30
657.27	370.01
657.61	368.38
657.95	366.94
658.29	365.38
658.64	363.89
658.98	362.32
659.32	360.81
659.66	359.18
660.00	357.73
660.34	356.29
660.68	354.96
661.02	353.61
661.36	352.23
661.70	350.80
662.05	349.43
662.39	347.97
662.73	346.74
663.07	345.77
663.41	344.46
663.75	342.96
664.09	341.68
664.43	340.27
664.77	339.16
665.11	337.97
665.45	336.86
665.79	335.84
666.13	334.66
666.47	333.52
666.81	332.41
667.15	331.21
667.49	330.17
667.83	329.27
668.17	328.19
668.51	327.19
668.85	326.35
669.19	325.59
669.53	324.43
669.87	323.31
670.21	322.15
670.55	321.22
670.89	320.66
671.23	319.73
671.57	318.76
671.91	317.88
672.25	316.87
672.58	316.03
672.92	314.88
673.26	313.97
673.60	313.08
673.94	312.24
674.28	311.49
674.62	310.64
674.96	309.59
675.30	308.68
675.64	307.97
675.97	307.04
676.31	306.00
676.65	305.13
676.99	304.50
677.33	303.66
677.67	302.94
678.01	301.89
678.34	301.17
678.68	300.55
679.02	299.75
679.36	299.08
679.70	298.31
680.04	297.71
680.37	297.11
680.71	296.37
681.05	295.73
681.39	295.08
681.73	294.45
682.06	293.86
682.40	293.21
682.74	292.62
683.08	292.25
683.42	291.56
683.75	291.10
684.09	290.37
684.43	289.74
684.77	289.10
685.10	288.53
685.44	287.93
685.78	287.27
686.12	286.77
686.45	286.14
686.79	285.59
687.13	285.10
687.46	284.55
687.80	284.12
688.14	283.48
688.48	282.97
688.81	282.36
689.15	281.89
689.49	281.38
689.82	280.80
690.16	280.08
690.50	279.68
690.83	279.11
691.17	278.53
691.51	278.00
691.84	277.50
692.18	276.93
692.52	276.43
692.85	276.02
693.19	275.71
693.52	275.33
693.86	274.79
694.20	274.35
694.53	273.89
694.87	273.41
695.21	272.89
695.54	272.47
695.88	271.94
696.21	271.28
696.55	270.83
696.88	270.35
697.22	269.88
697.56	269.46
697.89	269.04
698.23	268.69
698.56	268.32
698.90	268.02
699.23	267.59
699.57	267.24
699.90	266.71
700.24	266.08
700.58	265.78
700.91	265.55
701.25	265.53
701.58	265.53
701.92	265.33
702.25	265.15
702.59	264.67
702.92	264.44
703.26	264.15
703.59	263.86
703.93	263.95
704.26	263.67
704.60	263.39
704.93	263.00
705.26	262.65
705.60	262.41
705.93	262.00
706.27	261.89
706.60	261.72
706.94	261.75
707.27	261.51
707.61	261.15
707.94	260.73
708.27	260.00
708.61	259.35
708.94	258.93
709.28	258.63
709.61	258.35
709.94	258.08
710.28	257.85
710.61	257.55
710.95	256.85
711.28	256.84
711.61	256.46
711.95	256.34
712.28	256.04
712.61	255.72
712.95	255.79
713.28	255.68
713.61	255.28
713.95	254.78
714.28	254.52
714.61	254.21
714.95	253.95
715.28	253.63
715.61	253.35
715.95	253.11
716.28	252.82
716.61	252.66
716.95	252.27
717.28	252.00
717.61	251.73
717.94	251.45
718.28	250.96
718.61	250.71
718.94	250.41
719.27	250.18
719.61	249.96
719.94	249.53
720.27	249.05
720.60	248.80
720.94	248.57
721.27	248.39
721.60	248.27
721.93	248.06
722.27	248.02
722.60	247.90
722.93	247.63
723.26	247.48
723.59	247.14
723.93	247.14
724.26	247.00
724.59	246.87
724.92	246.66
725.25	246.56
725.59	246.37
725.92	246.24
726.25	246.04
726.58	245.95
726.91	245.72
727.24	245.62
727.57	245.50
727.91	245.25
728.24	245.15
728.57	244.96
728.90	244.81
729.23	244.52
729.56	244.58
729.89	244.50
730.22	244.27
730.55	244.21
730.89	243.94
731.22	243.73
731.55	243.55
731.88	243.48
732.21	243.21
732.54	243.13
732.87	242.96
733.20	242.83
733.53	242.62
733.86	242.53
734.19	242.30
734.52	242.19
734.85	242.42
735.18	242.19
735.51	242.05
735.84	242.00
736.17	241.95
736.50	241.65
736.83	242.06
737.16	241.99
737.49	241.88
737.82	241.77
738.15	241.70
738.48	241.55
738.81	241.37
739.14	241.25
739.47	240.97
739.80	240.75
740.13	240.77
740.46	240.60
740.79	240.39
741.12	240.25
741.45	239.99
741.78	239.56
742.11	239.55
742.44	239.46
742.77	239.35
743.10	239.20
743.43	239.01
743.75	238.34
744.08	238.82
744.41	238.63
744.74	238.49
745.07	238.28
745.40	238.23
745.73	238.32
746.06	238.21
746.39	238.29
746.71	238.19
747.04	237.94
747.37	237.80
747.70	237.86
748.03	237.85
748.36	237.88
748.68	237.82
749.01	237.60
749.34	237.52
749.67	237.48
750.00	237.47
750.33	237.72
750.65	237.68
750.98	236.92
751.31	236.80
751.64	236.77
751.97	236.93
752.29	236.81
752.62	236.45
752.95	236.36
753.28	236.24
753.60	236.21
753.93	236.26
754.26	236.20
754.59	235.92
754.91	235.74
755.24	235.60
755.57	235.59
755.90	235.53
756.22	235.38
756.55	235.18
756.88	234.99
757.20	234.61
757.53	234.34
757.86	234.30
758.19	234.30
758.51	234.22
758.84	233.99
759.17	233.83
759.49	233.82
759.82	233.91
760.15	233.79
760.47	233.69
760.80	233.46
761.13	233.49
761.45	233.38
761.78	233.32
762.11	233.19
762.43	233.00
762.76	232.90
763.08	232.86
763.41	232.77
763.74	232.71
764.06	232.65
764.39	232.66
764.71	232.58
765.04	232.42
765.37	232.28
765.69	232.18
766.02	232.16
766.34	232.07
766.67	231.87
767.00	231.90
767.32	232.10
767.65	232.36
767.97	232.19
768.30	232.20
768.62	232.19
768.95	232.11
769.27	232.05
769.60	232.01
769.92	231.89
770.25	231.78
770.57	231.65
770.90	231.52
771.22	231.41
771.55	231.34
771.87	231.31
772.20	231.26
772.52	231.55
772.85	232.04
773.17	232.00
773.50	231.90
773.82	231.77
774.15	231.45
774.47	231.13
774.80	231.13
775.12	231.06
775.45	230.94
775.77	230.95
776.09	230.95
776.42	230.99
776.74	231.07
777.07	231.07
777.39	231.10
777.72	231.04
778.04	231.08
778.36	230.99
778.69	231.01
779.01	231.05
779.33	230.62
779.66	230.07
779.98	230.06
780.31	230.04
780.63	230.17
780.95	230.23
781.28	230.18
781.60	230.04
781.92	230.04
782.25	230.03
782.57	229.98
782.89	229.91
783.22	229.79
783.54	229.67
783.86	229.70
784.19	229.60
784.51	229.75
784.83	229.65
785.16	229.67
785.48	229.61
785.80	229.58
786.12	229.70
786.45	229.65
786.77	229.66
787.09	229.69
787.42	229.46
787.74	229.43
788.06	229.48
788.38	229.46
788.71	229.38
789.03	229.38
789.35	229.44
789.67	229.30
789.99	229.35
790.32	229.22
790.64	229.20
790.96	229.59
791.28	229.40
791.61	229.40
791.93	229.48
792.25	229.47
792.57	229.80
792.89	229.65
793.21	229.66
793.54	229.62
793.86	229.49
794.18	229.60
794.50	229.52
794.82	229.43
795.14	229.49
795.47	229.52
795.79	229.57
796.11	229.42
796.43	229.42
796.75	229.27
797.07	229.32
797.39	229.29
797.71	228.95
798.04	228.92
798.36	228.88
798.68	228.75
799.00	228.77
799.32	228.47
799.64	228.57
799.96	228.58
800.28	228.62
800.60	228.64
800.92	228.60
801.24	228.58
801.56	228.63
801.89	228.55
802.21	228.64
802.53	228.48
802.85	228.63
803.17	228.87
803.49	228.84
803.81	228.80
804.13	228.71
804.45	228.59
804.77	228.64
805.09	228.69
805.41	228.70
805.73	228.61
806.05	228.48
806.37	228.35
806.69	228.20
807.01	228.14
807.33	228.19
807.65	228.02
807.97	228.20
808.28	228.16
808.60	228.20
808.92	228.05
809.24	228.32
809.56	228.19
809.88	228.01
810.20	228.08
810.52	228.18
810.84	228.16
811.16	228.12
811.48	228.06
811.80	228.17
812.12	228.13
812.43	228.17
812.75	228.20
813.07	228.16
813.39	228.25
813.71	228.13
814.03	227.99
814.35	228.01
814.67	227.81
814.98	227.76
815.30	227.73
815.62	227.70
815.94	227.38
816.26	227.61
816.58	227.56
816.89	227.56
817.21	227.45
817.53	227.46
817.85	227.47
818.17	227.43
818.48	227.20
818.80	227.27
819.12	227.21
819.44	227.11
819.76	227.06
820.07	227.06
820.39	227.08
820.71	227.08
821.03	227.09
821.34	227.00
821.66	227.01
821.98	227.01
822.30	227.02
822.61	227.30
822.93	226.97
823.25	226.89
823.57	226.81
823.88	226.90
824.20	226.89
824.52	226.97
824.83	226.91
825.15	226.87
825.47	226.84
825.79	226.89
826.10	226.80
826.42	226.80
826.74	226.79
827.05	226.79
827.37	226.85
827.69	226.79
828.00	226.85
828.32	226.87
828.64	226.84
828.95	227.04
829.27	226.85
829.58	226.96
829.90	227.05
830.22	227.02
830.53	226.89
830.85	226.80
831.17	226.65
831.48	226.70
831.80	226.73
832.11	226.70
832.43	226.57
832.75	226.65
833.06	226.88
833.38	226.81
833.69	226.78
834.01	226.82
834.32	226.81
834.64	226.80
834.96	226.75
835.27	226.79
835.59	226.63
835.90	226.70
836.22	226.68
836.53	226.63
836.85	226.65
837.16	227.13
837.48	227.21
837.79	227.41
838.11	227.41
838.42	227.37
838.74	227.45
839.05	227.44
839.37	227.45
839.68	227.21
840.00	227.15
840.31	227.22
840.63	227.15
840.94	227.13
841.26	227.08
841.57	227.17
841.88	227.19
842.20	227.11
842.51	226.95
842.83	226.94
843.14	227.32
843.46	227.34
843.77	227.10
844.08	227.06
844.40	226.87
844.71	226.90
845.03	226.85
845.34	226.77
845.65	226.74
845.97	226.76
846.28	226.78
846.60	226.82
846.91	226.73
847.22	226.73
847.54	226.85
847.85	226.89
848.16	226.80
848.48	226.73
848.79	226.94
849.10	226.99
849.42	226.99
849.73	226.57
850.04	226.51
850.36	226.30
850.67	226.40
850.98	226.44
851.30	226.42
851.61	226.51
851.92	226.52
852.23	226.72
852.55	226.69
852.86	226.70
853.17	226.71
853.49	226.79
853.80	226.92
854.11	227.00
854.42	227.04
854.74	226.89
855.05	226.86
855.36	226.66
855.67	226.71
855.99	226.75
856.30	227.31
856.61	227.33
856.92	227.28
857.23	227.24
857.55	227.14
857.86	227.18
858.17	227.21
858.48	227.12
858.79	227.00
859.11	227.04
859.42	227.00
859.73	226.88
860.04	226.94
860.35	226.72
860.66	226.47
860.98	226.39
861.29	226.45
861.60	226.43
861.91	226.51
862.22	226.36
862.53	226.21
862.84	225.66
863.16	225.76
863.47	225.72
863.78	225.67
864.09	225.74
864.40	225.75
864.71	225.75
865.02	225.84
865.33	225.80
865.64	225.76
865.95	225.78
866.27	226.12
866.58	226.03
866.89	226.17
867.20	226.19
867.51	226.11
867.82	226.19
868.13	226.36
868.44	226.22
868.75	226.31
869.06	226.32
869.37	226.38
869.68	226.28
869.99	226.38
870.30	226.37
870.61	226.41
870.92	226.32
871.23	226.22
871.54	226.30
871.85	226.38
872.16	226.48
872.47	226.43
872.78	226.19
873.09	226.21
873.40	226.05
873.71	226.11
874.02	226.23
874.33	226.12
874.64	225.86
874.95	225.93
875.26	225.89
875.56	225.87
875.87	225.85
876.18	225.80
876.49	226.29
876.80	226.18
877.11	226.09
877.42	226.10
877.73	226.15
878.04	226.02
878.35	225.96
878.66	225.90
878.96	225.93
879.27	225.86
879.58	225.81
879.89	225.88
880.20	225.97
880.51	225.95
880.82	226.01
881.12	226.12
881.43	226.08
881.74	226.03
882.05	226.03
882.36	225.99
882.67	226.00
882.97	225.47
883.28	225.49
883.59	225.44
883.90	225.49
884.21	225.56
884.51	225.60
884.82	225.63
885.13	225.56
885.44	225.46
885.74	225.53
886.05	225.56
886.36	225.51
886.67	225.39
886.98	225.59
887.28	225.62
887.59	225.65
887.90	225.66
888.20	225.62
888.51	225.72
888.82	225.65
889.13	225.77
889.43	226.22
889.74	226.23
890.05	226.19
890.35	226.18
890.66	226.07
890.97	226.00
891.28	225.92
891.58	225.98
891.89	226.07
892.20	225.99
892.50	225.92
892.81	225.94
893.12	225.98
893.42	225.78
893.73	225.73
894.04	225.74
894.34	225.74
894.65	225.76
894.95	225.72
895.26	225.77
895.57	225.91
895.87	225.42
896.18	225.50
896.48	225.68
896.79	225.64
897.10	225.83
897.40	225.89
897.71	225.93
898.01	225.88
898.32	225.90
898.63	225.95
898.93	226.00
899.24	226.02
899.54	225.97
899.85	225.95
900.15	225.98
900.46	225.97
900.76	226.06
901.07	226.10
901.38	226.06
901.68	226.15
901.99	225.97
902.29	226.03
902.60	225.97
902.90	225.91
903.21	225.90
903.51	225.86
903.82	225.89
904.12	225.94
904.43	226.03
904.73	226.05
905.03	226.03
905.34	226.53
905.64	226.48
905.95	226.45
906.25	226.49
906.56	226.49
906.86	226.48
907.17	226.37
907.47	226.43
907.77	226.40
908.08	226.26
908.38	226.21
908.69	226.18
908.99	226.31
909.30	226.35
909.60	226.34
909.90	226.27
910.21	226.25
910.51	226.15
910.81	226.18
911.12	226.13
911.42	226.16
911.73	225.59
912.03	225.66
912.33	225.84
912.64	225.78
912.94	225.69
913.24	225.64
913.55	225.60
913.85	225.56
914.15	225.68
914.46	225.75
914.76	225.75
915.06	225.76
915.37	225.60
915.67	225.52
915.97	225.56
916.27	225.44
916.58	225.35
916.88	225.36
917.18	225.25
917.49	225.60
917.79	225.59
918.09	225.64
918.39	225.75
918.70	225.66
919.00	225.70
919.30	225.96
919.60	225.91
919.91	225.90
920.21	225.86
920.51	225.74
920.81	225.71
921.12	225.73
921.42	225.70
921.72	225.75
922.02	225.88
922.32	225.88
922.63	225.88
922.93	226.14
923.23	226.09
923.53	226.06
923.83	225.72
924.13	225.73
924.44	225.78
924.74	225.91
925.04	225.97
925.34	225.87
925.64	225.62
925.94	225.65
926.24	225.95
926.55	225.87
926.85	225.94
927.15	226.03
927.45	226.04
927.75	226.09
928.05	226.15
928.35	226.04
928.65	226.13
928.95	226.21
929.26	225.97
929.56	226.11
929.86	226.10
930.16	226.08
930.46	226.03
930.76	226.06
931.06	225.77
931.36	225.71
931.66	225.95
931.96	226.04
932.26	226.12
932.56	225.88
932.86	225.96
933.16	225.96
933.46	225.83
933.76	225.77
934.06	225.80
934.36	225.98
934.66	225.94
934.96	225.85
935.26	225.89
935.56	226.01
935.86	225.91
936.16	225.94
936.46	225.91
936.76	225.94
937.06	225.91
937.36	225.95
937.66	225.96
937.96	225.88
938.26	225.85
938.56	225.80
938.86	225.82
939.16	225.95
939.46	226.00
939.76	226.06
940.06	226.06
940.35	226.02
940.65	225.81
940.95	225.93
941.25	225.88
941.55	225.82
941.85	225.79
942.15	225.89
942.45	226.09
942.75	226.09
943.04	226.12
943.34	226.15
943.64	226.10
943.94	225.97
944.24	225.97
944.54	225.99
944.84	226.00
945.13	226.04
945.43	225.93
945.73	225.94
946.03	225.89
946.33	225.89
946.62	225.84
946.92	225.78
947.22	225.75
947.52	225.83
947.82	225.82
948.11	225.85
948.41	225.76
948.71	225.52
949.01	225.60
949.31	225.59
949.60	225.55
949.90	225.59
950.20	225.62
950.50	225.60
950.79	225.62
951.09	225.65
951.39	225.64
951.69	225.66
951.98	225.74
952.28	225.75
952.58	225.72
952.87	225.82
953.17	225.87
953.47	225.88
953.76	225.79
954.06	225.78
954.36	225.62
954.66	225.60
954.95	225.76
955.25	225.77
955.55	225.75
955.84	225.70
956.14	225.74
956.44	225.78
956.73	225.67
957.03	225.67
957.32	225.70
957.62	225.55
957.92	225.62
958.21	225.51
958.51	226.04
958.81	226.08
959.10	226.00
959.40	226.15
959.69	226.19
959.99	226.24
960.29	226.21
960.58	226.27
960.88	226.42
961.17	226.33
961.47	226.28
961.76	226.26
962.06	226.27
962.36	226.24
962.65	226.21
962.95	226.15
963.24	226.04
963.54	225.99
963.83	226.09
964.13	225.96
964.42	225.87
964.72	225.49
965.01	225.56
965.31	225.57
965.60	225.39
965.90	225.63
966.19	225.56
966.49	225.66
966.78	225.60
967.08	225.61
967.37	225.58
967.67	225.50
967.96	225.54
968.26	225.58
968.55	225.61
968.85	225.61
969.14	225.65
969.43	225.62
969.73	225.60
970.02	225.61
970.32	225.63
970.61	225.61
970.91	225.50
971.20	225.40
971.49	225.37
971.79	225.41
972.08	225.07
972.38	225.13
972.67	225.11
972.96	225.19
973.26	225.05
973.55	225.23
973.85	225.28
974.14	225.26
974.43	225.30
974.73	225.27
975.02	225.22
975.31	225.32
975.61	225.38
975.90	225.35
976.19	225.23
976.49	225.37
976.78	225.45
977.07	225.47
977.37	225.54
977.66	225.62
977.95	225.53
978.24	225.64
978.54	225.76
978.83	225.76
979.12	225.82
979.42	225.86
979.71	225.72
980.00	225.70
980.29	225.66
980.59	225.60
980.88	225.70
981.17	225.74
981.46	225.70
981.76	225.71
982.05	225.88
982.34	225.97
982.63	225.85
982.93	225.77
983.22	225.90
983.51	225.95
983.80	225.96
984.09	226.15
984.39	226.03
984.68	225.87
984.97	225.85
985.26	225.72
985.55	225.73
985.85	225.67
986.14	225.75
986.43	225.87
986.72	225.83
987.01	225.66
987.30	225.62
987.59	225.56
987.89	225.58
988.18	225.39
988.47	225.40
988.76	225.39
989.05	225.40
989.34	225.24
989.63	225.33
989.92	225.27
990.22	225.16
990.51	225.19
990.80	225.22
991.09	225.31
991.38	225.41
991.67	225.41
991.96	225.46
992.25	225.47
992.54	225.42
992.83	225.48
993.12	225.51
993.41	225.64
993.70	225.85
993.99	225.98
994.28	226.06
994.58	226.11
994.87	226.17
995.16	226.16
995.45	226.24
995.74	226.04
996.03	226.13
996.32	226.20
996.61	226.29
996.90	226.29
997.19	226.23
997.48	226.25
997.77	226.19
998.06	226.22
998.34	226.17
998.63	226.12
998.92	226.10
999.21	226.16
999.50	226.17
999.79	226.06
1000.08	226.06
1000.37	226.09
1000.66	226.08
1000.95	226.05
1001.24	226.07
1001.53	226.13
1001.82	226.16
1002.11	226.00
1002.40	225.99
1002.68	226.12
1002.97	226.47
1003.26	226.48
1003.55	226.35
1003.84	226.42
1004.13	226.55
1004.42	226.46
1004.71	226.41
1004.99	226.36
1005.28	226.50
1005.57	226.37
1005.86	226.26
1006.15	226.12
1006.44	226.05
1006.72	226.06
1007.01	226.06
1007.30	226.05
1007.59	225.95
1007.88	225.92
1008.17	225.98
1008.45	225.87
1008.74	225.63
1009.03	225.39
1009.32	225.30
1009.60	225.25
1009.89	225.14
1010.18	224.98
1010.47	224.97
1010.76	225.05
1011.04	225.04
1011.33	225.06
1011.62	225.14
1011.91	225.18
1012.19	225.24
1012.48	225.23
1012.77	225.25
1013.05	225.46
1013.34	225.52
1013.63	225.55
1013.92	225.58
1014.20	225.51
1014.49	225.57
1014.78	225.64
1015.06	225.46
1015.35	225.52
1015.64	225.67
1015.92	225.71
1016.21	225.69
1016.50	225.73
1016.78	225.82
1017.07	225.88
1017.36	225.74
1017.64	225.71
1017.93	225.80
1018.22	225.74
1018.50	225.78
1018.79	225.77
1019.08	225.52
1019.36	225.54
1019.65	225.47
1019.93	225.57
1020.22	225.67
1020.51	225.93
1020.79	225.90
1021.08	224.95
1021.36	225.25
1021.65	226.65
1021.94	225.40
1022.22	226.30
1022.51	224.65
1022.79	227.20
1023.08	226.15
1023.36	231.40
1023.65	225.10
>>>>>End Processed Spectral Data<<<<<
