SpectraSuite Data File
++++++++++++++++++++++++++++++++++++
Date: Wed Sep 04 17:48:31 EDT 2013
User: lab3
Dark Spectrum Present: Yes
Reference Spectrum Present: No
Number of Sampled Component Spectra: 1
Spectrometers: USB2E7196
Integration Time (usec): 170000 (USB2E7196)
Spectra Averaged: 20 (USB2E7196)
Boxcar Smoothing: 10 (USB2E7196)
Correct for Electrical Dark: No (USB2E7196)
Strobe/Lamp Enabled: No (USB2E7196)
Correct for Detector Non-linearity: No (USB2E7196)
Correct for Stray Light: No (USB2E7196)
Number of Pixels in Processed Spectrum: 2048
>>>>>Begin Processed Spectral Data<<<<<
339.09	0.00
339.48	213.70
339.86	213.40
340.24	216.50
340.63	217.85
341.01	225.20
341.39	220.00
341.78	221.90
342.16	223.30
342.54	223.10
342.93	211.97
343.31	222.68
343.69	223.22
344.07	223.75
344.46	224.21
344.84	224.57
345.22	224.58
345.60	224.88
345.99	225.15
346.37	225.24
346.75	225.30
347.13	225.46
347.52	225.53
347.90	225.75
348.28	225.83
348.66	225.92
349.05	225.83
349.43	225.88
349.81	226.01
350.19	226.03
350.57	226.09
350.96	226.24
351.34	226.31
351.72	226.37
352.10	226.47
352.48	226.47
352.87	226.50
353.25	226.54
353.63	226.49
354.01	226.49
354.39	226.61
354.77	226.73
355.15	226.87
355.54	226.88
355.92	226.80
356.30	226.80
356.68	227.09
357.06	227.14
357.44	227.18
357.82	227.18
358.20	227.66
358.58	227.73
358.97	227.73
359.35	227.89
359.73	228.02
360.11	228.03
360.49	228.09
360.87	228.10
361.25	228.25
361.63	228.51
362.01	228.52
362.39	228.53
362.77	228.62
363.15	228.66
363.53	228.69
363.91	228.69
364.29	228.75
364.67	228.36
365.05	228.41
365.43	228.40
365.81	228.51
366.19	228.37
366.57	228.61
366.95	228.66
367.33	228.55
367.71	228.55
368.09	228.70
368.47	228.68
368.85	228.75
369.23	228.80
369.61	228.69
369.99	228.90
370.37	228.98
370.75	229.18
371.13	229.06
371.51	229.01
371.89	229.08
372.27	229.11
372.65	229.15
373.03	229.12
373.41	229.11
373.78	229.04
374.16	228.74
374.54	228.53
374.92	228.46
375.30	228.42
375.68	228.31
376.06	228.17
376.44	228.18
376.82	228.11
377.19	227.98
377.57	227.87
377.95	227.64
378.33	227.48
378.71	227.18
379.09	227.28
379.47	227.31
379.84	227.18
380.22	227.09
380.60	226.97
380.98	226.85
381.36	226.74
381.73	226.62
382.11	226.59
382.49	226.55
382.87	226.41
383.25	226.32
383.62	226.86
384.00	226.78
384.38	226.71
384.76	226.80
385.13	226.99
385.51	226.96
385.89	226.82
386.27	226.84
386.64	226.86
387.02	226.67
387.40	226.60
387.78	226.60
388.15	226.61
388.53	226.55
388.91	226.59
389.29	226.60
389.66	226.64
390.04	226.65
390.42	226.74
390.79	226.74
391.17	226.76
391.55	226.19
391.92	226.22
392.30	226.35
392.68	226.14
393.05	226.12
393.43	226.21
393.81	226.28
394.18	226.20
394.56	226.20
394.94	226.34
395.31	226.38
395.69	226.60
396.06	226.64
396.44	226.71
396.82	226.77
397.19	227.12
397.57	227.18
397.95	227.29
398.32	227.19
398.70	227.38
399.07	227.59
399.45	227.68
399.82	227.78
400.20	227.80
400.58	227.97
400.95	227.83
401.33	228.00
401.70	228.53
402.08	228.67
402.45	228.82
402.83	229.05
403.20	229.17
403.58	229.16
403.95	229.38
404.33	229.67
404.71	229.83
405.08	230.22
405.46	230.48
405.83	230.76
406.21	231.00
406.58	231.19
406.96	231.40
407.33	231.75
407.70	232.09
408.08	232.75
408.45	233.22
408.83	233.70
409.20	234.04
409.58	234.12
409.95	234.62
410.33	235.18
410.70	235.50
411.08	236.12
411.45	236.76
411.82	237.33
412.20	238.05
412.57	239.04
412.95	239.35
413.32	240.15
413.69	240.88
414.07	241.74
414.44	242.76
414.82	243.80
415.19	244.95
415.56	246.10
415.94	247.04
416.31	248.38
416.68	249.76
417.06	251.35
417.43	252.92
417.81	254.65
418.18	256.41
418.55	258.39
418.93	260.38
419.30	262.45
419.67	264.65
420.04	266.91
420.42	269.14
420.79	272.21
421.16	274.87
421.54	277.85
421.91	280.86
422.28	283.85
422.66	287.11
423.03	290.48
423.40	293.81
423.77	297.30
424.15	300.90
424.52	304.69
424.89	308.82
425.26	312.76
425.64	316.55
426.01	320.67
426.38	325.05
426.75	329.51
427.13	334.08
427.50	338.78
427.87	343.55
428.24	348.35
428.61	352.81
428.99	358.18
429.36	363.64
429.73	369.11
430.10	374.59
430.47	380.22
430.85	385.80
431.22	391.87
431.59	398.73
431.96	404.84
432.33	411.53
432.70	418.04
433.08	425.82
433.45	433.13
433.82	440.36
434.19	448.36
434.56	456.34
434.93	463.96
435.30	471.59
435.68	480.19
436.05	488.57
436.42	496.84
436.79	504.33
437.16	512.55
437.53	521.28
437.90	530.05
438.27	538.45
438.64	547.24
439.01	555.40
439.38	562.44
439.75	569.54
440.13	577.72
440.50	585.29
440.87	591.37
441.24	597.73
441.61	604.57
441.98	609.55
442.35	615.48
442.72	621.41
443.09	627.18
443.46	630.48
443.83	632.80
444.20	634.71
444.57	637.36
444.94	638.55
445.31	639.53
445.68	640.80
446.05	641.04
446.42	639.81
446.79	638.39
447.16	636.70
447.53	635.44
447.90	631.77
448.27	628.05
448.64	623.15
449.01	619.51
449.37	613.55
449.74	607.62
450.11	600.70
450.48	593.02
450.85	585.17
451.22	578.40
451.59	571.96
451.96	565.80
452.33	557.87
452.70	550.49
453.07	542.00
453.43	532.86
453.80	524.54
454.17	516.52
454.54	508.95
454.91	500.89
455.28	492.97
455.65	485.53
456.02	478.82
456.38	472.58
456.75	464.91
457.12	458.57
457.49	452.43
457.86	446.20
458.23	441.12
458.59	435.41
458.96	429.81
459.33	424.70
459.70	419.60
460.07	415.53
460.43	410.97
460.80	406.76
461.17	403.14
461.54	399.15
461.91	395.48
462.27	391.68
462.64	388.45
463.01	384.97
463.38	381.71
463.74	377.72
464.11	374.68
464.48	372.13
464.85	369.17
465.21	367.00
465.58	364.63
465.95	361.76
466.32	359.55
466.68	357.30
467.05	355.10
467.42	352.93
467.78	350.58
468.15	348.44
468.52	346.83
468.88	344.60
469.25	342.74
469.62	341.20
469.98	339.63
470.35	338.10
470.72	336.70
471.08	335.03
471.45	333.78
471.82	332.60
472.18	331.09
472.55	330.21
472.92	328.81
473.28	327.74
473.65	326.69
474.02	325.70
474.38	324.78
474.75	323.91
475.11	322.97
475.48	322.41
475.85	321.72
476.21	321.10
476.58	320.59
476.94	320.20
477.31	319.78
477.67	319.38
478.04	319.11
478.41	318.93
478.77	319.28
479.14	318.97
479.50	318.76
479.87	318.83
480.23	318.83
480.60	318.87
480.96	318.91
481.33	319.21
481.69	319.38
482.06	319.56
482.42	319.89
482.79	320.29
483.15	320.76
483.52	321.47
483.88	321.99
484.25	322.63
484.61	323.34
484.98	323.92
485.34	324.85
485.71	325.76
486.07	326.58
486.44	327.01
486.80	328.16
487.17	329.34
487.53	330.71
487.90	332.07
488.26	333.83
488.62	335.54
488.99	337.11
489.35	338.90
489.72	340.75
490.08	342.73
490.44	344.71
490.81	346.85
491.17	348.91
491.54	351.37
491.90	353.91
492.26	356.54
492.63	359.35
492.99	362.20
493.36	365.31
493.72	368.75
494.08	372.26
494.45	375.84
494.81	379.77
495.17	383.55
495.54	387.64
495.90	391.74
496.26	396.06
496.63	400.67
496.99	405.48
497.35	410.67
497.72	415.98
498.08	421.36
498.44	426.97
498.80	433.06
499.17	439.10
499.53	445.30
499.89	451.77
500.26	458.55
500.62	465.39
500.98	472.90
501.34	480.27
501.71	487.98
502.07	495.80
502.43	503.84
502.79	512.14
503.16	520.85
503.52	529.73
503.88	538.98
504.24	548.75
504.60	558.63
504.97	568.71
505.33	579.12
505.69	590.22
506.05	601.22
506.41	612.34
506.78	623.91
507.14	635.86
507.50	648.28
507.86	660.84
508.22	674.02
508.59	686.75
508.95	700.38
509.31	714.26
509.67	728.38
510.03	742.59
510.39	757.28
510.75	772.24
511.12	787.44
511.48	802.90
511.84	818.43
512.20	834.23
512.56	850.66
512.92	867.30
513.28	883.90
513.64	900.88
514.00	918.29
514.37	935.93
514.73	953.96
515.09	971.96
515.45	990.21
515.81	1008.24
516.17	1027.03
516.53	1045.30
516.89	1063.92
517.25	1083.15
517.61	1103.12
517.97	1122.98
518.33	1142.70
518.69	1162.90
519.05	1183.06
519.41	1203.73
519.77	1224.76
520.13	1245.06
520.49	1265.62
520.85	1287.86
521.21	1309.00
521.57	1330.01
521.93	1350.47
522.29	1371.45
522.65	1391.88
523.01	1412.63
523.37	1433.40
523.73	1454.12
524.09	1474.65
524.45	1495.09
524.81	1515.86
525.17	1536.25
525.53	1556.85
525.89	1577.52
526.25	1597.94
526.61	1618.32
526.97	1638.83
527.33	1659.65
527.68	1681.52
528.04	1702.60
528.40	1721.93
528.76	1742.46
529.12	1762.58
529.48	1783.26
529.84	1803.11
530.20	1824.13
530.56	1844.61
530.91	1865.07
531.27	1885.06
531.63	1905.35
531.99	1925.94
532.35	1945.69
532.71	1965.43
533.07	1985.59
533.42	2005.00
533.78	2024.78
534.14	2044.25
534.50	2062.90
534.86	2081.76
535.21	2098.54
535.57	2116.58
535.93	2133.92
536.29	2151.67
536.65	2169.69
537.00	2186.84
537.36	2204.08
537.72	2220.24
538.08	2236.75
538.44	2252.91
538.79	2268.83
539.15	2285.14
539.51	2300.46
539.87	2315.43
540.22	2329.43
540.58	2343.49
540.94	2356.85
541.29	2369.02
541.65	2381.38
542.01	2393.62
542.37	2404.02
542.72	2414.94
543.08	2425.30
543.44	2436.84
543.79	2446.40
544.15	2456.00
544.51	2465.69
544.87	2475.05
545.22	2483.28
545.58	2491.13
545.94	2497.99
546.29	2504.40
546.65	2510.24
547.01	2515.77
547.36	2520.60
547.72	2526.02
548.07	2529.59
548.43	2534.46
548.79	2539.24
549.14	2543.04
549.50	2546.47
549.86	2550.10
550.21	2553.73
550.57	2556.47
550.92	2557.67
551.28	2558.90
551.64	2560.78
551.99	2562.53
552.35	2563.83
552.70	2565.69
553.06	2566.80
553.41	2568.39
553.77	2569.95
554.13	2571.33
554.48	2572.44
554.84	2573.93
555.19	2574.78
555.55	2576.39
555.90	2575.57
556.26	2574.27
556.61	2572.75
556.97	2570.86
557.32	2570.23
557.68	2568.98
558.03	2567.43
558.39	2565.82
558.74	2564.60
559.10	2561.36
559.45	2557.46
559.81	2552.67
560.16	2547.45
560.52	2542.49
560.87	2537.92
561.23	2532.19
561.58	2526.51
561.94	2519.58
562.29	2512.17
562.64	2505.00
563.00	2496.58
563.35	2489.94
563.71	2483.29
564.06	2476.78
564.42	2470.09
564.77	2462.81
565.12	2454.96
565.48	2447.57
565.83	2439.48
566.19	2431.53
566.54	2423.69
566.89	2415.72
567.25	2407.98
567.60	2401.22
567.96	2394.14
568.31	2385.61
568.66	2377.47
569.02	2368.18
569.37	2360.17
569.72	2352.63
570.08	2343.27
570.43	2333.81
570.78	2324.81
571.14	2315.30
571.49	2305.31
571.84	2295.78
572.20	2285.18
572.55	2274.98
572.90	2264.10
573.26	2254.02
573.61	2243.10
573.96	2231.85
574.31	2219.96
574.67	2208.44
575.02	2195.42
575.37	2182.36
575.72	2169.64
576.08	2157.27
576.43	2145.09
576.78	2132.11
577.13	2118.47
577.49	2106.12
577.84	2094.44
578.19	2082.52
578.54	2070.31
578.90	2058.50
579.25	2046.34
579.60	2033.58
579.95	2020.95
580.30	2008.00
580.66	1994.50
581.01	1981.11
581.36	1967.40
581.71	1955.18
582.06	1942.40
582.42	1930.17
582.77	1917.85
583.12	1905.89
583.47	1893.73
583.82	1881.90
584.17	1870.08
584.53	1858.45
584.88	1845.68
585.23	1832.90
585.58	1818.72
585.93	1805.56
586.28	1792.29
586.63	1778.50
586.98	1764.79
587.34	1751.79
587.69	1738.62
588.04	1726.36
588.39	1714.53
588.74	1702.89
589.09	1690.96
589.44	1678.55
589.79	1666.56
590.14	1654.80
590.49	1642.72
590.84	1630.95
591.19	1619.07
591.54	1607.07
591.89	1595.15
592.25	1585.03
592.60	1573.86
592.95	1562.84
593.30	1550.98
593.65	1539.46
594.00	1527.78
594.35	1518.22
594.70	1506.70
595.05	1495.80
595.40	1483.94
595.75	1472.06
596.10	1460.82
596.45	1449.66
596.80	1439.12
597.15	1427.86
597.50	1416.45
597.85	1405.71
598.19	1394.42
598.54	1383.04
598.89	1371.97
599.24	1361.38
599.59	1349.83
599.94	1338.94
600.29	1328.67
600.64	1318.87
600.99	1308.19
601.34	1298.80
601.69	1287.96
602.04	1278.18
602.39	1268.22
602.74	1259.48
603.08	1250.34
603.43	1241.22
603.78	1231.43
604.13	1221.78
604.48	1212.33
604.83	1202.61
605.18	1192.72
605.53	1183.52
605.87	1174.31
606.22	1165.93
606.57	1156.97
606.92	1147.69
607.27	1139.17
607.62	1130.41
607.96	1122.00
608.31	1114.23
608.66	1105.88
609.01	1097.42
609.36	1089.21
609.70	1081.17
610.05	1072.65
610.40	1064.47
610.75	1055.87
611.10	1047.58
611.44	1039.28
611.79	1031.32
612.14	1023.65
612.49	1015.94
612.83	1008.54
613.18	1001.05
613.53	993.28
613.88	985.50
614.22	978.11
614.57	970.33
614.92	962.67
615.27	955.15
615.61	947.69
615.96	940.26
616.31	932.77
616.65	925.58
617.00	918.35
617.35	911.19
617.70	904.30
618.04	897.32
618.39	890.76
618.74	884.42
619.08	877.62
619.43	870.90
619.78	864.18
620.12	857.00
620.47	850.19
620.82	843.23
621.16	836.59
621.51	830.43
621.85	824.18
622.20	817.74
622.55	811.18
622.89	804.71
623.24	798.43
623.59	792.25
623.93	786.25
624.28	780.27
624.62	774.70
624.97	768.89
625.32	763.33
625.66	757.47
626.01	751.40
626.35	746.05
626.70	740.54
627.04	735.31
627.39	729.79
627.73	724.70
628.08	719.79
628.43	714.43
628.77	709.05
629.12	703.84
629.46	699.09
629.81	694.56
630.15	689.96
630.50	685.08
630.84	680.34
631.19	675.68
631.53	671.20
631.88	666.15
632.22	661.34
632.57	657.03
632.91	652.48
633.26	648.22
633.60	643.67
633.95	639.04
634.29	634.44
634.64	630.25
634.98	625.49
635.32	621.14
635.67	617.27
636.01	613.28
636.36	609.09
636.70	605.06
637.05	600.81
637.39	596.74
637.73	592.83
638.08	588.97
638.42	584.85
638.77	580.65
639.11	576.44
639.45	572.30
639.80	567.78
640.14	563.81
640.49	559.89
640.83	556.10
641.17	552.63
641.52	549.00
641.86	545.49
642.20	542.46
642.55	538.88
642.89	535.33
643.23	531.83
643.58	528.77
643.92	525.20
644.26	521.95
644.61	518.78
644.95	515.42
645.29	512.13
645.64	508.96
645.98	505.73
646.32	502.79
646.66	499.60
647.01	496.84
647.35	494.16
647.69	491.34
648.04	488.56
648.38	485.83
648.72	483.00
649.06	480.06
649.41	477.04
649.75	474.12
650.09	471.33
650.43	468.49
650.78	465.49
651.12	462.93
651.46	460.04
651.80	457.27
652.14	454.69
652.49	452.37
652.83	449.83
653.17	447.39
653.51	444.65
653.85	442.44
654.20	440.02
654.54	437.41
654.88	435.08
655.22	432.86
655.56	430.45
655.90	428.12
656.25	425.95
656.59	423.66
656.93	421.56
657.27	419.47
657.61	417.11
657.95	415.04
658.29	412.82
658.64	410.83
658.98	408.68
659.32	406.55
659.66	404.20
660.00	402.15
660.34	400.09
660.68	398.25
661.02	396.17
661.36	394.15
661.70	392.20
662.05	390.15
662.39	388.22
662.73	386.42
663.07	384.89
663.41	383.12
663.75	381.28
664.09	379.41
664.43	377.47
664.77	375.88
665.11	374.08
665.45	372.40
665.79	370.89
666.13	369.20
666.47	367.56
666.81	366.04
667.15	364.31
667.49	362.85
667.83	361.56
668.17	360.12
668.51	358.76
668.85	357.31
669.19	356.26
669.53	354.75
669.87	353.21
670.21	351.61
670.55	350.19
670.89	349.08
671.23	347.70
671.57	346.35
671.91	345.02
672.25	343.73
672.58	342.54
672.92	341.05
673.26	339.81
673.60	338.62
673.94	337.40
674.28	336.45
674.62	335.35
674.96	333.93
675.30	332.75
675.64	331.51
675.97	330.40
676.31	328.98
676.65	327.80
676.99	326.87
677.33	325.73
677.67	324.70
678.01	323.40
678.34	322.43
678.68	321.48
679.02	320.33
679.36	319.33
679.70	318.24
680.04	317.35
680.37	316.35
680.71	315.37
681.05	314.50
681.39	313.49
681.73	312.48
682.06	311.52
682.40	310.62
682.74	309.91
683.08	309.17
683.42	308.20
683.75	307.35
684.09	306.41
684.43	305.57
684.77	304.65
685.10	303.84
685.44	302.97
685.78	302.11
686.12	301.42
686.45	300.62
686.79	299.82
687.13	299.13
687.46	298.40
687.80	297.77
688.14	296.90
688.48	296.10
688.81	295.42
689.15	294.83
689.49	294.17
689.82	293.41
690.16	292.48
690.50	291.88
690.83	291.21
691.17	290.44
691.51	289.78
691.84	289.23
692.18	288.49
692.52	287.89
692.85	287.38
693.19	286.94
693.52	286.33
693.86	285.70
694.20	285.02
694.53	284.51
694.87	283.83
695.21	283.19
695.54	282.66
695.88	281.97
696.21	281.22
696.55	280.52
696.88	279.88
697.22	279.28
697.56	278.74
697.89	278.13
698.23	277.72
698.56	277.26
698.90	276.78
699.23	276.25
699.57	275.79
699.90	275.23
700.24	274.54
700.58	274.10
700.91	273.74
701.25	273.61
701.58	273.46
701.92	273.14
702.25	272.77
702.59	272.27
702.92	271.93
703.26	271.67
703.59	271.30
703.93	271.37
704.26	271.10
704.60	270.75
704.93	270.38
705.26	269.86
705.60	269.46
705.93	268.92
706.27	268.77
706.60	268.52
706.94	268.26
707.27	267.91
707.61	267.58
707.94	267.22
708.27	266.45
708.61	265.75
708.94	265.27
709.28	264.90
709.61	264.56
709.94	264.23
710.28	263.79
710.61	263.48
710.95	262.65
711.28	262.56
711.61	262.08
711.95	261.82
712.28	261.51
712.61	261.20
712.95	261.15
713.28	261.00
713.61	260.51
713.95	260.03
714.28	259.72
714.61	259.38
714.95	258.99
715.28	258.67
715.61	258.32
715.95	258.00
716.28	257.65
716.61	257.39
716.95	257.03
717.28	256.80
717.61	256.46
717.94	256.20
718.28	255.55
718.61	255.35
718.94	254.96
719.27	254.73
719.61	254.46
719.94	254.07
720.27	253.50
720.60	253.20
720.94	252.98
721.27	252.76
721.60	252.66
721.93	252.37
722.27	252.25
722.60	252.02
722.93	251.78
723.26	251.57
723.59	251.33
723.93	251.11
724.26	250.85
724.59	250.59
724.92	250.35
725.25	250.24
725.59	249.98
725.92	249.81
726.25	249.53
726.58	249.30
726.91	249.02
727.24	248.89
727.57	248.79
727.91	248.47
728.24	248.33
728.57	247.97
728.90	247.89
729.23	247.56
729.56	247.59
729.89	247.44
730.22	247.24
730.55	247.00
730.89	246.83
731.22	246.63
731.55	246.49
731.88	246.37
732.21	246.14
732.54	245.94
732.87	245.72
733.20	245.61
733.53	245.53
733.86	245.45
734.19	245.28
734.52	245.13
734.85	245.35
735.18	245.10
735.51	245.08
735.84	245.02
736.17	245.05
736.50	244.63
736.83	245.00
737.16	244.87
737.49	244.73
737.82	244.53
738.15	244.44
738.48	244.33
738.81	244.15
739.14	243.96
739.47	243.73
739.80	243.65
740.13	243.49
740.46	243.11
740.79	242.90
741.12	242.69
741.45	242.53
741.78	242.15
742.11	242.17
742.44	241.96
742.77	241.77
743.10	241.56
743.43	241.45
743.75	240.80
744.08	241.34
744.41	241.20
744.74	241.09
745.07	240.89
745.40	240.83
745.73	240.88
746.06	240.85
746.39	240.84
746.71	240.69
747.04	240.61
747.37	240.57
747.70	240.50
748.03	240.46
748.36	240.30
748.68	240.16
749.01	239.91
749.34	239.78
749.67	239.68
750.00	239.56
750.33	239.88
750.65	239.82
750.98	239.08
751.31	239.03
751.64	238.99
751.97	239.10
752.29	238.98
752.62	238.65
752.95	238.46
753.28	238.28
753.60	238.19
753.93	238.20
754.26	238.16
754.59	237.95
754.91	237.85
755.24	237.83
755.57	237.73
755.90	237.66
756.22	237.58
756.55	237.48
756.88	237.36
757.20	236.90
757.53	236.67
757.86	236.59
758.19	236.51
758.51	236.35
758.84	236.02
759.17	235.84
759.49	235.77
759.82	235.94
760.15	235.95
760.47	235.87
760.80	235.59
761.13	235.56
761.45	235.49
761.78	235.34
762.11	235.21
762.43	235.06
762.76	234.90
763.08	234.83
763.41	234.74
763.74	234.72
764.06	234.65
764.39	234.60
764.71	234.53
765.04	234.36
765.37	234.31
765.69	234.23
766.02	234.15
766.34	234.00
766.67	233.69
767.00	233.73
767.32	233.89
767.65	234.11
767.97	233.93
768.30	233.87
768.62	233.82
768.95	233.71
769.27	233.70
769.60	233.74
769.92	233.55
770.25	233.36
770.57	233.15
770.90	233.09
771.22	233.04
771.55	232.92
771.87	232.92
772.20	232.78
772.52	233.09
772.85	233.65
773.17	233.67
773.50	233.59
773.82	233.42
774.15	233.12
774.47	232.70
774.80	232.68
775.12	232.61
775.45	232.55
775.77	232.54
776.09	232.47
776.42	232.45
776.74	232.59
777.07	232.56
777.39	232.59
777.72	232.47
778.04	232.44
778.36	232.44
778.69	232.40
779.01	232.35
779.33	231.97
779.66	231.36
779.98	231.25
780.31	231.30
780.63	231.43
780.95	231.47
781.28	231.49
781.60	231.35
781.92	231.30
782.25	231.25
782.57	231.20
782.89	231.13
783.22	231.02
783.54	230.77
783.86	230.84
784.19	230.70
784.51	230.82
784.83	230.72
785.16	230.64
785.48	230.61
785.80	230.67
786.12	230.71
786.45	230.69
786.77	230.77
787.09	230.71
787.42	230.52
787.74	230.48
788.06	230.52
788.38	230.54
788.71	230.50
789.03	230.50
789.35	230.54
789.67	230.52
789.99	230.56
790.32	230.58
790.64	230.50
790.96	230.94
791.28	230.74
791.61	230.75
791.93	230.75
792.25	230.75
792.57	231.00
792.89	230.83
793.21	230.78
793.54	230.65
793.86	230.59
794.18	230.56
794.50	230.46
794.82	230.42
795.14	230.44
795.47	230.54
795.79	230.52
796.11	230.33
796.43	230.25
796.75	230.17
797.07	230.15
797.39	230.10
797.71	229.67
798.04	229.70
798.36	229.61
798.68	229.52
799.00	229.48
799.32	229.20
799.64	229.30
799.96	229.30
800.28	229.34
800.60	229.27
800.92	229.29
801.24	229.19
801.56	229.19
801.89	229.10
802.21	229.00
802.53	228.86
802.85	228.96
803.17	229.17
803.49	229.04
803.81	228.96
804.13	228.87
804.45	228.84
804.77	228.86
805.09	228.87
805.41	228.84
805.73	228.66
806.05	228.47
806.37	228.31
806.69	228.24
807.01	228.22
807.33	228.28
807.65	228.11
807.97	228.33
808.28	228.24
808.60	228.19
808.92	228.09
809.24	228.38
809.56	228.30
809.88	228.15
810.20	228.18
810.52	228.27
810.84	228.26
811.16	228.14
811.48	228.05
811.80	228.20
812.12	228.15
812.43	228.30
812.75	228.41
813.07	228.37
813.39	228.34
813.71	228.26
814.03	228.18
814.35	228.17
814.67	228.00
814.98	227.97
815.30	227.97
815.62	227.98
815.94	227.68
816.26	227.91
816.58	227.78
816.89	227.78
817.21	227.70
817.53	227.71
817.85	227.69
818.17	227.70
818.48	227.48
818.80	227.63
819.12	227.49
819.44	227.38
819.76	227.38
820.07	227.39
820.39	227.33
820.71	227.35
821.03	227.38
821.34	227.35
821.66	227.36
821.98	227.46
822.30	227.44
822.61	227.77
822.93	227.53
823.25	227.53
823.57	227.52
823.88	227.63
824.20	227.61
824.52	227.68
824.83	227.64
825.15	227.60
825.47	227.57
825.79	227.65
826.10	227.61
826.42	227.62
826.74	227.68
827.05	227.70
827.37	227.74
827.69	227.66
828.00	227.65
828.32	227.65
828.64	227.55
828.95	227.74
829.27	227.56
829.58	227.51
829.90	227.57
830.22	227.62
830.53	227.47
830.85	227.42
831.17	227.34
831.48	227.36
831.80	227.47
832.11	227.41
832.43	227.38
832.75	227.39
833.06	227.68
833.38	227.56
833.69	227.57
834.01	227.58
834.32	227.60
834.64	227.56
834.96	227.54
835.27	227.54
835.59	227.38
835.90	227.27
836.22	227.26
836.53	227.22
836.85	227.21
837.16	227.61
837.48	227.64
837.79	227.76
838.11	227.78
838.42	227.70
838.74	227.79
839.05	227.66
839.37	227.59
839.68	227.23
840.00	227.28
840.31	227.38
840.63	227.31
840.94	227.27
841.26	227.29
841.57	227.35
841.88	227.40
842.20	227.32
842.51	227.26
842.83	227.24
843.14	227.59
843.46	227.54
843.77	227.27
844.08	227.21
844.40	227.10
844.71	227.03
845.03	226.99
845.34	226.93
845.65	226.95
845.97	226.97
846.28	227.07
846.60	227.06
846.91	226.96
847.22	226.90
847.54	226.94
847.85	226.96
848.16	226.85
848.48	226.73
848.79	226.95
849.10	227.03
849.42	227.09
849.73	226.65
850.04	226.55
850.36	226.42
850.67	226.58
850.98	226.57
851.30	226.63
851.61	226.60
851.92	226.58
852.23	226.75
852.55	226.75
852.86	226.75
853.17	226.78
853.49	226.81
853.80	226.95
854.11	227.06
854.42	227.15
854.74	227.06
855.05	227.05
855.36	226.75
855.67	226.76
855.99	226.78
856.30	227.41
856.61	227.50
856.92	227.48
857.23	227.37
857.55	227.41
857.86	227.34
858.17	227.43
858.48	227.43
858.79	227.35
859.11	227.40
859.42	227.34
859.73	227.24
860.04	227.22
860.35	227.04
860.66	226.83
860.98	226.75
861.29	226.89
861.60	226.90
861.91	227.05
862.22	227.00
862.53	226.84
862.84	226.25
863.16	226.31
863.47	226.26
863.78	226.29
864.09	226.32
864.40	226.40
864.71	226.42
865.02	226.42
865.33	226.39
865.64	226.32
865.95	226.30
866.27	226.65
866.58	226.61
866.89	226.64
867.20	226.65
867.51	226.60
867.82	226.54
868.13	226.67
868.44	226.63
868.75	226.69
869.06	226.79
869.37	226.77
869.68	226.57
869.99	226.66
870.30	226.70
870.61	226.69
870.92	226.58
871.23	226.49
871.54	226.50
871.85	226.58
872.16	226.60
872.47	226.61
872.78	226.35
873.09	226.40
873.40	226.31
873.71	226.34
874.02	226.39
874.33	226.31
874.64	226.21
874.95	226.25
875.26	226.12
875.56	226.00
875.87	226.05
876.18	226.05
876.49	226.64
876.80	226.47
877.11	226.34
877.42	226.33
877.73	226.40
878.04	226.29
878.35	226.28
878.66	226.33
878.96	226.28
879.27	226.20
879.58	226.14
879.89	226.19
880.20	226.30
880.51	226.26
880.82	226.28
881.12	226.26
881.43	226.14
881.74	226.08
882.05	226.11
882.36	226.13
882.67	226.18
882.97	225.51
883.28	225.49
883.59	225.53
883.90	225.56
884.21	225.61
884.51	225.64
884.82	225.53
885.13	225.54
885.44	225.50
885.74	225.54
886.05	225.57
886.36	225.59
886.67	225.49
886.98	225.71
887.28	225.77
887.59	225.78
887.90	225.84
888.20	225.94
888.51	226.03
888.82	225.93
889.13	225.95
889.43	226.37
889.74	226.37
890.05	226.40
890.35	226.48
890.66	226.43
890.97	226.38
891.28	226.36
891.58	226.38
891.89	226.41
892.20	226.36
892.50	226.34
892.81	226.40
893.12	226.37
893.42	226.16
893.73	226.13
894.04	226.19
894.34	226.27
894.65	226.21
894.95	226.18
895.26	226.25
895.57	226.52
895.87	226.06
896.18	226.19
896.48	226.15
896.79	226.08
897.10	226.09
897.40	226.09
897.71	226.21
898.01	226.20
898.32	226.26
898.63	226.19
898.93	226.24
899.24	226.22
899.54	226.17
899.85	226.20
900.15	226.24
900.46	226.21
900.76	226.19
901.07	226.19
901.38	226.24
901.68	226.24
901.99	226.02
902.29	226.14
902.60	226.10
902.90	226.09
903.21	226.08
903.51	226.10
903.82	226.18
904.12	226.10
904.43	226.09
904.73	226.12
905.03	226.20
905.34	226.70
905.64	226.65
905.95	226.68
906.25	226.64
906.56	226.60
906.86	226.58
907.17	226.54
907.47	226.57
907.77	226.44
908.08	226.45
908.38	226.43
908.69	226.44
908.99	226.51
909.30	226.52
909.60	226.54
909.90	226.45
910.21	226.40
910.51	226.35
910.81	226.30
911.12	226.29
911.42	226.34
911.73	225.70
912.03	225.75
912.33	225.80
912.64	225.74
912.94	225.74
913.24	225.63
913.55	225.54
913.85	225.57
914.15	225.65
914.46	225.66
914.76	225.65
915.06	225.53
915.37	225.44
915.67	225.47
915.97	225.47
916.27	225.39
916.58	225.40
916.88	225.40
917.18	225.42
917.49	225.71
917.79	225.68
918.09	225.80
918.39	225.90
918.70	225.85
919.00	225.88
919.30	226.14
919.60	226.15
919.91	226.13
920.21	226.12
920.51	226.11
920.81	226.05
921.12	226.01
921.42	226.04
921.72	226.07
922.02	226.08
922.32	226.13
922.63	226.23
922.93	226.46
923.23	226.53
923.53	226.49
923.83	226.21
924.13	226.25
924.44	226.27
924.74	226.33
925.04	226.57
925.34	226.52
925.64	226.25
925.94	226.24
926.24	226.58
926.55	226.52
926.85	226.57
927.15	226.60
927.45	226.69
927.75	226.75
928.05	226.75
928.35	226.70
928.65	226.78
928.95	226.77
929.26	226.61
929.56	226.66
929.86	226.74
930.16	226.76
930.46	226.75
930.76	226.75
931.06	226.54
931.36	226.40
931.66	226.54
931.96	226.62
932.26	226.63
932.56	226.39
932.86	226.45
933.16	226.43
933.46	226.34
933.76	226.22
934.06	226.27
934.36	226.50
934.66	226.41
934.96	226.39
935.26	226.42
935.56	226.44
935.86	226.41
936.16	226.30
936.46	226.21
936.76	226.14
937.06	226.06
937.36	226.08
937.66	226.02
937.96	225.98
938.26	225.84
938.56	225.89
938.86	225.84
939.16	225.90
939.46	225.92
939.76	226.03
940.06	226.02
940.35	225.94
940.65	225.63
940.95	225.71
941.25	225.54
941.55	225.45
941.85	225.42
942.15	225.47
942.45	225.59
942.75	225.55
943.04	225.51
943.34	225.59
943.64	225.54
943.94	225.50
944.24	225.52
944.54	225.54
944.84	225.52
945.13	225.47
945.43	225.38
945.73	225.30
946.03	225.21
946.33	225.16
946.62	225.09
946.92	225.08
947.22	225.11
947.52	225.13
947.82	225.26
948.11	225.20
948.41	225.02
948.71	224.92
949.01	224.98
949.31	225.01
949.60	225.03
949.90	225.06
950.20	224.95
950.50	224.94
950.79	224.90
951.09	224.90
951.39	224.94
951.69	224.90
951.98	225.04
952.28	225.09
952.58	225.12
952.87	225.16
953.17	225.29
953.47	225.17
953.76	225.23
954.06	225.09
954.36	225.00
954.66	225.04
954.95	225.14
955.25	225.14
955.55	225.19
955.84	225.06
956.14	225.16
956.44	225.24
956.73	225.17
957.03	225.24
957.32	225.30
957.62	225.30
957.92	225.40
958.21	225.39
958.51	225.92
958.81	226.01
959.10	226.08
959.40	226.20
959.69	226.35
959.99	226.37
960.29	226.45
960.58	226.52
960.88	226.73
961.17	226.71
961.47	226.82
961.76	226.76
962.06	226.87
962.36	226.79
962.65	226.86
962.95	226.91
963.24	226.88
963.54	226.97
963.83	227.07
964.13	227.09
964.42	227.00
964.72	226.65
965.01	226.63
965.31	226.64
965.60	226.49
965.90	226.80
966.19	226.72
966.49	226.75
966.78	226.74
967.08	226.75
967.37	226.87
967.67	226.75
967.96	226.87
968.26	226.92
968.55	226.97
968.85	226.93
969.14	226.95
969.43	226.98
969.73	226.85
970.02	226.79
970.32	226.76
970.61	226.72
970.91	226.60
971.20	226.61
971.49	226.56
971.79	226.55
972.08	226.22
972.38	226.38
972.67	226.37
972.96	226.43
973.26	226.26
973.55	226.24
973.85	226.27
974.14	226.21
974.43	226.19
974.73	226.13
975.02	226.15
975.31	226.19
975.61	226.15
975.90	226.10
976.19	226.03
976.49	226.03
976.78	225.99
977.07	225.90
977.37	225.85
977.66	225.91
977.95	225.93
978.24	225.93
978.54	225.97
978.83	225.92
979.12	225.89
979.42	225.92
979.71	225.84
980.00	225.81
980.29	225.76
980.59	225.66
980.88	225.76
981.17	225.80
981.46	225.77
981.76	225.78
982.05	225.90
982.34	225.94
982.63	225.99
982.93	225.98
983.22	226.13
983.51	226.19
983.80	226.18
984.09	226.09
984.39	226.01
984.68	225.81
984.97	225.77
985.26	225.71
985.55	225.70
985.85	225.60
986.14	225.60
986.43	225.69
986.72	225.67
987.01	225.51
987.30	225.42
987.59	225.27
987.89	225.25
988.18	225.20
988.47	225.16
988.76	224.98
989.05	225.00
989.34	224.89
989.63	225.02
989.92	224.92
990.22	224.93
990.51	224.92
990.80	224.89
991.09	224.91
991.38	225.00
991.67	224.95
991.96	224.95
992.25	224.94
992.54	224.82
992.83	224.79
993.12	224.79
993.41	224.85
993.70	225.08
993.99	225.20
994.28	225.24
994.58	225.33
994.87	225.30
995.16	225.30
995.45	225.25
995.74	224.99
996.03	225.02
996.32	225.17
996.61	225.23
996.90	225.28
997.19	225.28
997.48	225.26
997.77	225.26
998.06	225.29
998.34	225.30
998.63	225.33
998.92	225.41
999.21	225.53
999.50	225.51
999.79	225.39
1000.08	225.37
1000.37	225.29
1000.66	225.21
1000.95	225.40
1001.24	225.48
1001.53	225.58
1001.82	225.68
1002.11	225.70
1002.40	225.70
1002.68	225.96
1002.97	226.31
1003.26	226.31
1003.55	226.27
1003.84	226.37
1004.13	226.54
1004.42	226.52
1004.71	226.54
1004.99	226.52
1005.28	226.56
1005.57	226.57
1005.86	226.52
1006.15	226.44
1006.44	226.45
1006.72	226.55
1007.01	226.50
1007.30	226.49
1007.59	226.47
1007.88	226.44
1008.17	226.46
1008.45	226.41
1008.74	226.19
1009.03	225.89
1009.32	225.90
1009.60	225.86
1009.89	225.76
1010.18	225.56
1010.47	225.57
1010.76	225.58
1011.04	225.58
1011.33	225.60
1011.62	225.62
1011.91	225.71
1012.19	225.78
1012.48	225.81
1012.77	225.75
1013.05	225.96
1013.34	225.97
1013.63	225.95
1013.92	226.05
1014.20	226.06
1014.49	226.03
1014.78	226.02
1015.06	225.92
1015.35	225.84
1015.64	225.91
1015.92	226.01
1016.21	226.07
1016.50	226.07
1016.78	226.09
1017.07	226.08
1017.36	226.02
1017.64	225.94
1017.93	225.99
1018.22	225.92
1018.50	225.91
1018.79	225.95
1019.08	225.72
1019.36	225.79
1019.65	225.79
1019.93	225.85
1020.22	225.87
1020.51	226.08
1020.79	226.00
1021.08	224.65
1021.36	225.20
1021.65	226.90
1021.94	225.65
1022.22	227.45
1022.51	225.90
1022.79	228.35
1023.08	226.55
1023.36	230.35
1023.65	224.05
>>>>>End Processed Spectral Data<<<<<
