SpectraSuite Data File
++++++++++++++++++++++++++++++++++++
Date: Wed Sep 04 17:39:55 EDT 2013
User: lab3
Dark Spectrum Present: Yes
Reference Spectrum Present: No
Number of Sampled Component Spectra: 1
Spectrometers: USB2E7196
Integration Time (usec): 170000 (USB2E7196)
Spectra Averaged: 20 (USB2E7196)
Boxcar Smoothing: 10 (USB2E7196)
Correct for Electrical Dark: No (USB2E7196)
Strobe/Lamp Enabled: No (USB2E7196)
Correct for Detector Non-linearity: No (USB2E7196)
Correct for Stray Light: No (USB2E7196)
Number of Pixels in Processed Spectrum: 2048
>>>>>Begin Processed Spectral Data<<<<<
339.09	0.00
339.48	213.55
339.86	213.95
340.24	216.15
340.63	217.40
341.01	224.95
341.39	220.10
341.78	222.30
342.16	223.20
342.54	222.10
342.93	212.02
343.31	222.69
343.69	223.23
344.07	223.65
344.46	224.12
344.84	224.51
345.22	224.50
345.60	224.80
345.99	224.94
346.37	225.05
346.75	225.22
347.13	225.31
347.52	225.24
347.90	225.46
348.28	225.49
348.66	225.57
349.05	225.46
349.43	225.55
349.81	225.65
350.19	225.61
350.57	225.71
350.96	225.89
351.34	226.01
351.72	226.11
352.10	226.27
352.48	226.24
352.87	226.27
353.25	226.34
353.63	226.33
354.01	226.33
354.39	226.41
354.77	226.45
355.15	226.66
355.54	226.72
355.92	226.68
356.30	226.68
356.68	227.17
357.06	227.15
357.44	227.13
357.82	227.11
358.20	227.57
358.58	227.56
358.97	227.56
359.35	227.70
359.73	227.80
360.11	227.80
360.49	227.87
360.87	227.86
361.25	227.95
361.63	228.12
362.01	228.26
362.39	228.26
362.77	228.29
363.15	228.31
363.53	228.33
363.91	228.38
364.29	228.38
364.67	227.89
365.05	227.92
365.43	227.97
365.81	228.05
366.19	227.85
366.57	228.01
366.95	228.02
367.33	227.89
367.71	227.90
368.09	228.03
368.47	228.05
368.85	228.14
369.23	228.24
369.61	228.14
369.99	228.25
370.37	228.37
370.75	228.61
371.13	228.48
371.51	228.37
371.89	228.40
372.27	228.46
372.65	228.48
373.03	228.53
373.41	228.53
373.78	228.50
374.16	228.25
374.54	228.07
374.92	228.01
375.30	227.99
375.68	227.86
376.06	227.84
376.44	227.75
376.82	227.68
377.19	227.55
377.57	227.43
377.95	227.19
378.33	227.06
378.71	226.72
379.09	226.74
379.47	226.75
379.84	226.52
380.22	226.38
380.60	226.23
380.98	226.14
381.36	226.10
381.73	226.00
382.11	226.12
382.49	226.17
382.87	226.05
383.25	226.03
383.62	226.55
384.00	226.44
384.38	226.43
384.76	226.47
385.13	226.61
385.51	226.57
385.89	226.50
386.27	226.44
386.64	226.50
387.02	226.40
387.40	226.37
387.78	226.42
388.15	226.43
388.53	226.39
388.91	226.33
389.29	226.24
389.66	226.22
390.04	226.02
390.42	226.07
390.79	226.11
391.17	226.02
391.55	225.44
391.92	225.49
392.30	225.48
392.68	225.35
393.05	225.29
393.43	225.30
393.81	225.30
394.18	225.21
394.56	225.20
394.94	225.36
395.31	225.25
395.69	225.45
396.06	225.55
396.44	225.63
396.82	225.67
397.19	225.98
397.57	226.00
397.95	226.19
398.32	226.08
398.70	226.19
399.07	226.39
399.45	226.42
399.82	226.40
400.20	226.47
400.58	226.54
400.95	226.47
401.33	226.68
401.70	227.12
402.08	227.25
402.45	227.40
402.83	227.54
403.20	227.83
403.58	227.82
403.95	228.07
404.33	228.35
404.71	228.57
405.08	228.94
405.46	229.16
405.83	229.39
406.21	229.62
406.58	229.82
406.96	230.05
407.33	230.38
407.70	230.68
408.08	231.35
408.45	231.78
408.83	232.24
409.20	232.52
409.58	232.63
409.95	233.20
410.33	233.63
410.70	233.93
411.08	234.36
411.45	234.86
411.82	235.30
412.20	235.89
412.57	236.76
412.95	237.00
413.32	237.80
413.69	238.38
414.07	239.16
414.44	240.05
414.82	240.88
415.19	241.87
415.56	242.85
415.94	243.63
416.31	244.82
416.68	245.98
417.06	247.35
417.43	248.70
417.81	250.04
418.18	251.48
418.55	253.06
418.93	254.81
419.30	256.55
419.67	258.44
420.04	260.26
420.42	262.03
420.79	264.68
421.16	266.93
421.54	269.55
421.91	272.02
422.28	274.54
422.66	277.24
423.03	280.09
423.40	282.97
423.77	285.89
424.15	288.87
424.52	292.05
424.89	295.59
425.26	298.89
425.64	302.10
426.01	305.64
426.38	309.27
426.75	313.03
427.13	316.81
427.50	320.70
427.87	324.76
428.24	328.88
428.61	332.59
428.99	336.93
429.36	341.34
429.73	345.85
430.10	350.46
430.47	355.20
430.85	359.74
431.22	364.76
431.59	370.44
431.96	375.51
432.33	381.24
432.70	386.68
433.08	393.24
433.45	399.36
433.82	405.43
434.19	412.25
434.56	418.94
434.93	425.34
435.30	431.80
435.68	439.04
436.05	445.97
436.42	452.79
436.79	459.15
437.16	466.17
437.53	473.48
437.90	480.69
438.27	487.85
438.64	495.32
439.01	502.10
439.38	508.00
439.75	514.02
440.13	520.56
440.50	526.88
440.87	531.97
441.24	537.29
441.61	543.08
441.98	547.42
442.35	552.28
442.72	557.35
443.09	562.43
443.46	565.26
443.83	567.35
444.20	569.00
444.57	571.46
444.94	572.35
445.31	573.25
445.68	574.65
446.05	574.80
446.42	573.87
446.79	573.01
447.16	571.75
447.53	570.85
447.90	568.07
448.27	565.03
448.64	561.09
449.01	558.09
449.37	553.15
449.74	548.10
450.11	542.63
450.48	536.28
450.85	529.43
451.22	523.81
451.59	518.35
451.96	513.17
452.33	506.23
452.70	500.25
453.07	493.29
453.43	485.45
453.80	478.50
454.17	471.81
454.54	465.39
454.91	458.62
455.28	451.91
455.65	445.66
456.02	440.23
456.38	434.90
456.75	428.46
457.12	423.09
457.49	417.87
457.86	412.41
458.23	408.17
458.59	403.56
458.96	398.81
459.33	394.60
459.70	390.37
460.07	387.23
460.43	383.37
460.80	379.77
461.17	376.69
461.54	373.56
461.91	370.45
462.27	367.27
462.64	364.60
463.01	361.70
463.38	359.06
463.74	355.52
464.11	353.06
464.48	350.98
464.85	348.57
465.21	346.92
465.58	345.07
465.95	342.69
466.32	340.81
466.68	338.82
467.05	337.01
467.42	335.20
467.78	333.23
468.15	331.42
468.52	330.11
468.88	328.31
469.25	326.68
469.62	325.48
469.98	324.02
470.35	322.82
470.72	321.63
471.08	320.18
471.45	319.24
471.82	318.26
472.18	317.09
472.55	316.27
472.92	315.09
473.28	314.12
473.65	313.30
474.02	312.45
474.38	311.86
474.75	311.26
475.11	310.54
475.48	310.05
475.85	309.59
476.21	309.07
476.58	308.85
476.94	308.50
477.31	308.21
477.67	307.97
478.04	307.76
478.41	307.72
478.77	308.04
479.14	307.84
479.50	307.83
479.87	307.95
480.23	308.06
480.60	308.17
480.96	308.32
481.33	308.67
481.69	308.98
482.06	309.22
482.42	309.57
482.79	310.07
483.15	310.60
483.52	311.23
483.88	311.79
484.25	312.34
484.61	312.99
484.98	313.58
485.34	314.62
485.71	315.49
486.07	316.38
486.44	316.98
486.80	317.97
487.17	318.99
487.53	320.31
487.90	321.63
488.26	323.24
488.62	324.83
488.99	326.29
489.35	327.92
489.72	329.72
490.08	331.49
490.44	333.34
490.81	335.36
491.17	337.27
491.54	339.54
491.90	341.91
492.26	344.30
492.63	346.90
492.99	349.40
493.36	352.14
493.72	355.25
494.08	358.34
494.45	361.77
494.81	365.28
495.17	368.65
495.54	372.45
495.90	376.14
496.26	380.12
496.63	384.35
496.99	388.56
497.35	393.06
497.72	397.89
498.08	402.85
498.44	407.97
498.80	413.51
499.17	418.88
499.53	424.37
499.89	430.31
500.26	436.36
500.62	442.49
500.98	449.24
501.34	455.73
501.71	462.69
502.07	469.62
502.43	476.92
502.79	484.40
503.16	492.07
503.52	500.02
503.88	508.14
504.24	516.50
504.60	525.35
504.97	534.43
505.33	543.48
505.69	553.08
506.05	562.63
506.41	572.35
506.78	582.52
507.14	593.06
507.50	603.75
507.86	614.63
508.22	626.05
508.59	637.20
508.95	648.83
509.31	660.90
509.67	673.25
510.03	685.33
510.39	697.84
510.75	710.42
511.12	723.36
511.48	736.58
511.84	749.76
512.20	763.19
512.56	776.68
512.92	790.81
513.28	804.99
513.64	819.33
514.00	834.00
514.37	848.83
514.73	863.82
515.09	878.94
515.45	894.11
515.81	909.18
516.17	924.49
516.53	939.52
516.89	954.65
517.25	970.27
517.61	986.52
517.97	1002.90
518.33	1019.17
518.69	1035.60
519.05	1052.11
519.41	1068.85
519.77	1085.73
520.13	1102.49
520.49	1118.75
520.85	1136.65
521.21	1153.35
521.57	1170.06
521.93	1186.32
522.29	1203.05
522.65	1219.19
523.01	1235.50
523.37	1251.58
523.73	1268.09
524.09	1284.10
524.45	1299.92
524.81	1315.92
525.17	1332.05
525.53	1347.71
525.89	1363.49
526.25	1379.07
526.61	1394.32
526.97	1410.12
527.33	1425.97
527.68	1442.32
528.04	1458.17
528.40	1472.15
528.76	1487.68
529.12	1502.83
529.48	1518.07
529.84	1532.42
530.20	1547.69
530.56	1562.68
530.91	1577.90
531.27	1592.41
531.63	1607.46
531.99	1622.39
532.35	1636.38
532.71	1650.55
533.07	1665.42
533.42	1679.61
533.78	1693.50
534.14	1707.52
534.50	1720.62
534.86	1733.69
535.21	1745.44
535.57	1758.04
535.93	1769.84
536.29	1781.78
536.65	1794.12
537.00	1805.81
537.36	1817.49
537.72	1828.18
538.08	1839.30
538.44	1850.02
538.79	1860.78
539.15	1871.57
539.51	1881.80
539.87	1891.43
540.22	1899.78
540.58	1908.29
540.94	1916.36
541.29	1923.62
541.65	1930.89
542.01	1938.45
542.37	1944.02
542.72	1950.06
543.08	1955.56
543.44	1962.38
543.79	1967.54
544.15	1972.31
544.51	1977.49
544.87	1982.27
545.22	1986.45
545.58	1989.82
545.94	1992.44
546.29	1994.34
546.65	1996.25
547.01	1997.63
547.36	1999.29
547.72	2001.00
548.07	2001.49
548.43	2002.28
548.79	2003.26
549.14	2003.67
549.50	2003.84
549.86	2004.39
550.21	2004.82
550.57	2004.92
550.92	2003.22
551.28	2001.68
551.64	2000.67
551.99	1999.50
552.35	1998.05
552.70	1997.27
553.06	1996.39
553.41	1995.13
553.77	1994.33
554.13	1993.08
554.48	1992.00
554.84	1990.67
555.19	1989.19
555.55	1987.93
555.90	1985.50
556.26	1982.81
556.61	1979.41
556.97	1975.39
557.32	1972.80
557.68	1969.35
558.03	1966.32
558.39	1963.24
558.74	1960.37
559.10	1956.02
559.45	1951.16
559.81	1946.23
560.16	1940.29
560.52	1934.50
560.87	1929.32
561.23	1923.57
561.58	1917.74
561.94	1911.14
562.29	1904.00
562.64	1897.18
563.00	1889.50
563.35	1882.67
563.71	1876.43
564.06	1870.30
564.42	1864.03
564.77	1857.41
565.12	1850.91
565.48	1843.95
565.83	1837.12
566.19	1830.33
566.54	1823.34
566.89	1816.42
567.25	1809.59
567.60	1803.25
567.96	1796.77
568.31	1789.99
568.66	1782.66
569.02	1774.66
569.37	1767.35
569.72	1760.60
570.08	1753.10
570.43	1745.44
570.78	1738.03
571.14	1730.06
571.49	1721.80
571.84	1713.88
572.20	1705.28
572.55	1696.66
572.90	1687.81
573.26	1679.34
573.61	1670.32
573.96	1661.43
574.31	1651.96
574.67	1642.62
575.02	1632.85
575.37	1622.79
575.72	1612.50
576.08	1602.93
576.43	1593.40
576.78	1583.41
577.13	1573.38
577.49	1563.62
577.84	1554.40
578.19	1545.33
578.54	1535.75
578.90	1526.75
579.25	1517.49
579.60	1508.00
579.95	1498.46
580.30	1488.94
580.66	1478.88
581.01	1468.81
581.36	1458.55
581.71	1449.08
582.06	1439.65
582.42	1430.60
582.77	1421.50
583.12	1412.64
583.47	1403.66
583.82	1395.01
584.17	1386.23
584.53	1377.65
584.88	1368.09
585.23	1358.77
585.58	1348.69
585.93	1339.28
586.28	1329.61
586.63	1319.81
586.98	1309.76
587.34	1300.36
587.69	1290.55
588.04	1281.66
588.39	1273.28
588.74	1264.80
589.09	1256.49
589.44	1247.46
589.79	1238.81
590.14	1230.33
590.49	1221.86
590.84	1213.27
591.19	1204.67
591.54	1196.24
591.89	1187.52
592.25	1180.38
592.60	1172.25
592.95	1164.38
593.30	1156.05
593.65	1147.81
594.00	1139.72
594.35	1133.20
594.70	1125.02
595.05	1117.25
595.40	1108.84
595.75	1100.40
596.10	1092.56
596.45	1084.62
596.80	1077.04
597.15	1069.13
597.50	1061.10
597.85	1053.23
598.19	1045.22
598.54	1037.28
598.89	1029.54
599.24	1022.25
599.59	1014.31
599.94	1006.84
600.29	999.59
600.64	992.75
600.99	985.48
601.34	978.71
601.69	970.76
602.04	964.06
602.39	957.52
602.74	951.29
603.08	945.01
603.43	938.76
603.78	932.18
604.13	925.69
604.48	918.92
604.83	912.19
605.18	905.73
605.53	899.63
605.87	893.56
606.22	887.91
606.57	881.81
606.92	875.54
607.27	869.52
607.62	863.79
607.96	857.86
608.31	852.61
608.66	847.03
609.01	841.41
609.36	835.81
609.70	830.04
610.05	824.30
610.40	818.63
610.75	812.92
611.10	807.36
611.44	801.58
611.79	796.24
612.14	791.00
612.49	785.36
612.83	780.33
613.18	775.03
613.53	769.73
613.88	764.24
614.22	759.05
614.57	753.62
614.92	747.99
615.27	743.04
615.61	737.72
615.96	732.44
616.31	727.27
616.65	722.37
617.00	717.34
617.35	712.30
617.70	707.30
618.04	702.30
618.39	697.61
618.74	693.34
619.08	688.60
619.43	683.96
619.78	679.41
620.12	674.25
620.47	669.44
620.82	664.49
621.16	659.90
621.51	655.60
621.85	651.46
622.20	647.36
622.55	642.64
622.89	638.31
623.24	633.94
623.59	629.66
623.93	625.46
624.28	621.55
624.62	617.93
624.97	614.22
625.32	610.25
625.66	605.95
626.01	601.75
626.35	598.15
626.70	594.37
627.04	590.83
627.39	587.21
627.73	583.72
628.08	580.31
628.43	576.61
628.77	572.79
629.12	569.27
629.46	566.00
629.81	563.04
630.15	559.68
630.50	556.47
630.84	553.12
631.19	549.84
631.53	546.57
631.88	542.82
632.22	539.42
632.57	536.50
632.91	533.56
633.26	530.64
633.60	527.30
633.95	524.11
634.29	520.86
634.64	517.92
634.98	514.67
635.32	511.56
635.67	509.05
636.01	506.35
636.36	503.35
636.70	500.40
637.05	497.36
637.39	494.75
637.73	491.91
638.08	489.28
638.42	486.40
638.77	483.44
639.11	480.67
639.45	477.71
639.80	474.59
640.14	471.75
640.49	469.02
640.83	466.53
641.17	464.06
641.52	461.51
641.86	458.99
642.20	456.92
642.55	454.49
642.89	451.91
643.23	449.40
643.58	447.28
643.92	444.75
644.26	442.32
644.61	440.04
644.95	437.76
645.29	435.36
645.64	433.23
645.98	431.13
646.32	429.15
646.66	426.99
647.01	425.03
647.35	423.05
647.69	420.98
648.04	418.92
648.38	416.91
648.72	414.95
649.06	412.92
649.41	410.68
649.75	408.52
650.09	406.52
650.43	404.65
650.78	402.51
651.12	400.50
651.46	398.73
651.80	396.73
652.14	394.94
652.49	393.35
652.83	391.59
653.17	389.72
653.51	387.81
653.85	386.17
654.20	384.41
654.54	382.69
654.88	380.91
655.22	379.43
655.56	377.83
655.90	376.14
656.25	374.63
656.59	373.11
656.93	371.76
657.27	370.31
657.61	368.60
657.95	367.16
658.29	365.70
658.64	364.29
658.98	362.77
659.32	361.17
659.66	359.57
660.00	358.06
660.34	356.70
660.68	355.28
661.02	353.87
661.36	352.55
661.70	351.26
662.05	349.91
662.39	348.63
662.73	347.38
663.07	346.45
663.41	345.08
663.75	343.76
664.09	342.46
664.43	341.12
664.77	339.90
665.11	338.62
665.45	337.53
665.79	336.34
666.13	335.10
666.47	333.96
666.81	332.77
667.15	331.60
667.49	330.49
667.83	329.60
668.17	328.53
668.51	327.39
668.85	326.36
669.19	325.63
669.53	324.42
669.87	323.28
670.21	322.01
670.55	321.04
670.89	320.32
671.23	319.33
671.57	318.32
671.91	317.37
672.25	316.43
672.58	315.65
672.92	314.50
673.26	313.66
673.60	312.84
673.94	312.05
674.28	311.29
674.62	310.54
674.96	309.65
675.30	308.79
675.64	308.05
675.97	307.25
676.31	306.28
676.65	305.44
676.99	304.85
677.33	304.10
677.67	303.40
678.01	302.35
678.34	301.66
678.68	301.08
679.02	300.33
679.36	299.60
679.70	298.72
680.04	298.19
680.37	297.59
680.71	296.84
681.05	296.13
681.39	295.49
681.73	294.72
682.06	294.03
682.40	293.52
682.74	292.97
683.08	292.44
683.42	291.74
683.75	291.26
684.09	290.48
684.43	289.90
684.77	289.14
685.10	288.60
685.44	287.89
685.78	287.24
686.12	286.74
686.45	286.16
686.79	285.54
687.13	284.97
687.46	284.40
687.80	283.93
688.14	283.32
688.48	282.71
688.81	282.21
689.15	281.75
689.49	281.17
689.82	280.61
690.16	279.93
690.50	279.51
690.83	278.92
691.17	278.35
691.51	277.80
691.84	277.47
692.18	276.91
692.52	276.47
692.85	275.98
693.19	275.72
693.52	275.27
693.86	274.76
694.20	274.30
694.53	273.78
694.87	273.25
695.21	272.81
695.54	272.38
695.88	271.82
696.21	271.20
696.55	270.76
696.88	270.29
697.22	269.84
697.56	269.38
697.89	268.93
698.23	268.59
698.56	268.21
698.90	267.85
699.23	267.45
699.57	267.05
699.90	266.63
700.24	266.05
700.58	265.67
700.91	265.42
701.25	265.41
701.58	265.39
701.92	265.19
702.25	264.88
702.59	264.47
702.92	264.26
703.26	264.04
703.59	263.73
703.93	263.82
704.26	263.56
704.60	263.20
704.93	262.82
705.26	262.44
705.60	262.17
705.93	261.66
706.27	261.52
706.60	261.37
706.94	261.21
707.27	260.96
707.61	260.69
707.94	260.43
708.27	259.83
708.61	259.22
708.94	258.90
709.28	258.59
709.61	258.23
709.94	257.93
710.28	257.60
710.61	257.29
710.95	256.57
711.28	256.59
711.61	256.32
711.95	256.20
712.28	255.91
712.61	255.54
712.95	255.58
713.28	255.54
713.61	255.19
713.95	254.83
714.28	254.52
714.61	254.22
714.95	253.90
715.28	253.52
715.61	253.24
715.95	253.02
716.28	252.64
716.61	252.46
716.95	252.13
717.28	251.90
717.61	251.64
717.94	251.41
718.28	250.88
718.61	250.60
718.94	250.33
719.27	250.07
719.61	249.95
719.94	249.58
720.27	249.13
720.60	248.86
720.94	248.67
721.27	248.57
721.60	248.47
721.93	248.24
722.27	248.27
722.60	248.18
722.93	247.95
723.26	247.95
723.59	247.71
723.93	247.65
724.26	247.51
724.59	247.31
724.92	247.10
725.25	246.99
725.59	246.88
725.92	246.75
726.25	246.62
726.58	246.52
726.91	246.36
727.24	246.23
727.57	246.06
727.91	245.77
728.24	245.58
728.57	245.35
728.90	245.29
729.23	244.93
729.56	244.95
729.89	244.81
730.22	244.54
730.55	244.44
730.89	244.26
731.22	244.02
731.55	243.86
731.88	243.75
732.21	243.50
732.54	243.31
732.87	243.19
733.20	243.04
733.53	242.82
733.86	242.72
734.19	242.49
734.52	242.43
734.85	242.68
735.18	242.50
735.51	242.52
735.84	242.35
736.17	242.32
736.50	241.93
736.83	242.28
737.16	242.17
737.49	242.10
737.82	241.96
738.15	241.91
738.48	241.80
738.81	241.66
739.14	241.49
739.47	241.30
739.80	241.15
740.13	241.06
740.46	240.89
740.79	240.73
741.12	240.55
741.45	240.34
741.78	239.82
742.11	239.86
742.44	239.61
742.77	239.60
743.10	239.44
743.43	239.27
743.75	238.64
744.08	239.12
744.41	238.93
744.74	238.66
745.07	238.48
745.40	238.44
745.73	238.55
746.06	238.57
746.39	238.57
746.71	238.35
747.04	238.10
747.37	237.98
747.70	237.90
748.03	237.83
748.36	237.76
748.68	237.73
749.01	237.42
749.34	237.28
749.67	237.16
750.00	237.09
750.33	237.37
750.65	237.31
750.98	236.63
751.31	236.57
751.64	236.56
751.97	236.73
752.29	236.62
752.62	236.26
752.95	236.04
753.28	235.83
753.60	235.77
753.93	235.85
754.26	235.83
754.59	235.59
754.91	235.45
755.24	235.41
755.57	235.40
755.90	235.36
756.22	235.26
756.55	235.04
756.88	234.87
757.20	234.44
757.53	234.27
757.86	234.22
758.19	234.18
758.51	234.13
758.84	233.81
759.17	233.66
759.49	233.69
759.82	233.85
760.15	233.81
760.47	233.76
760.80	233.56
761.13	233.52
761.45	233.38
761.78	233.32
762.11	233.28
762.43	233.08
762.76	232.95
763.08	233.00
763.41	233.08
763.74	233.09
764.06	233.12
764.39	233.08
764.71	232.98
765.04	232.82
765.37	232.75
765.69	232.65
766.02	232.62
766.34	232.42
766.67	232.20
767.00	232.23
767.32	232.32
767.65	232.64
767.97	232.48
768.30	232.55
768.62	232.50
768.95	232.29
769.27	232.25
769.60	232.30
769.92	232.12
770.25	231.89
770.57	231.65
770.90	231.56
771.22	231.44
771.55	231.43
771.87	231.42
772.20	231.31
772.52	231.61
772.85	232.11
773.17	232.12
773.50	232.03
773.82	231.89
774.15	231.74
774.47	231.32
774.80	231.30
775.12	231.19
775.45	231.13
775.77	231.12
776.09	231.14
776.42	231.05
776.74	231.12
777.07	231.12
777.39	231.12
777.72	231.00
778.04	231.06
778.36	230.87
778.69	230.85
779.01	230.78
779.33	230.41
779.66	229.84
779.98	229.73
780.31	229.72
780.63	229.92
780.95	229.86
781.28	229.83
781.60	229.70
781.92	229.68
782.25	229.72
782.57	229.63
782.89	229.51
783.22	229.45
783.54	229.30
783.86	229.29
784.19	229.28
784.51	229.37
784.83	229.20
785.16	229.21
785.48	229.13
785.80	229.20
786.12	229.24
786.45	229.17
786.77	229.17
787.09	229.11
787.42	228.95
787.74	228.98
788.06	228.95
788.38	228.94
788.71	228.85
789.03	228.75
789.35	228.81
789.67	228.73
789.99	228.70
790.32	228.64
790.64	228.65
790.96	228.95
791.28	228.81
791.61	228.77
791.93	228.74
792.25	228.72
792.57	228.97
792.89	228.80
793.21	228.82
793.54	228.80
793.86	228.67
794.18	228.63
794.50	228.52
794.82	228.50
795.14	228.50
795.47	228.63
795.79	228.66
796.11	228.57
796.43	228.59
796.75	228.64
797.07	228.67
797.39	228.63
797.71	228.38
798.04	228.36
798.36	228.34
798.68	228.34
799.00	228.35
799.32	228.09
799.64	228.16
799.96	228.12
800.28	228.21
800.60	228.30
800.92	228.35
801.24	228.32
801.56	228.38
801.89	228.35
802.21	228.32
802.53	228.26
802.85	228.33
803.17	228.56
803.49	228.47
803.81	228.40
804.13	228.32
804.45	228.25
804.77	228.30
805.09	228.29
805.41	228.25
805.73	228.17
806.05	228.10
806.37	228.08
806.69	228.04
807.01	228.01
807.33	227.96
807.65	227.76
807.97	227.95
808.28	227.88
808.60	227.89
808.92	227.83
809.24	228.11
809.56	228.06
809.88	227.82
810.20	227.78
810.52	227.87
810.84	227.84
811.16	227.78
811.48	227.71
811.80	227.97
812.12	227.97
812.43	227.98
812.75	227.98
813.07	227.94
813.39	228.02
813.71	227.91
814.03	227.86
814.35	227.90
814.67	227.73
814.98	227.65
815.30	227.62
815.62	227.52
815.94	227.19
816.26	227.38
816.58	227.35
816.89	227.41
817.21	227.34
817.53	227.38
817.85	227.36
818.17	227.40
818.48	227.21
818.80	227.37
819.12	227.37
819.44	227.31
819.76	227.18
820.07	227.15
820.39	227.11
820.71	227.13
821.03	227.11
821.34	227.04
821.66	227.12
821.98	227.14
822.30	227.14
822.61	227.44
822.93	227.22
823.25	227.10
823.57	227.05
823.88	227.10
824.20	227.13
824.52	227.23
824.83	227.17
825.15	227.06
825.47	227.02
825.79	227.01
826.10	226.96
826.42	227.02
826.74	227.03
827.05	227.01
827.37	227.10
827.69	227.05
828.00	227.06
828.32	226.99
828.64	226.95
828.95	227.22
829.27	227.06
829.58	227.03
829.90	227.15
830.22	227.22
830.53	227.08
830.85	226.94
831.17	226.83
831.48	226.83
831.80	226.92
832.11	226.83
832.43	226.83
832.75	226.79
833.06	227.05
833.38	226.88
833.69	226.86
834.01	226.78
834.32	226.78
834.64	226.79
834.96	226.80
835.27	226.86
835.59	226.69
835.90	226.62
836.22	226.65
836.53	226.54
836.85	226.46
837.16	226.95
837.48	227.02
837.79	227.20
838.11	227.25
838.42	227.23
838.74	227.29
839.05	227.22
839.37	227.25
839.68	226.98
840.00	227.01
840.31	227.12
840.63	227.11
840.94	227.08
841.26	226.97
841.57	227.03
841.88	227.03
842.20	226.93
842.51	226.91
842.83	226.90
843.14	227.37
843.46	227.34
843.77	227.08
844.08	227.04
844.40	226.83
844.71	226.72
845.03	226.63
845.34	226.55
845.65	226.52
845.97	226.62
846.28	226.62
846.60	226.65
846.91	226.64
847.22	226.65
847.54	226.72
847.85	226.85
848.16	226.83
848.48	226.75
848.79	226.99
849.10	227.01
849.42	227.03
849.73	226.59
850.04	226.57
850.36	226.42
850.67	226.55
850.98	226.60
851.30	226.71
851.61	226.71
851.92	226.71
852.23	226.88
852.55	226.87
852.86	226.95
853.17	227.03
853.49	227.04
853.80	227.20
854.11	227.22
854.42	227.21
854.74	227.13
855.05	227.14
855.36	226.89
855.67	226.81
855.99	226.79
856.30	227.39
856.61	227.44
856.92	227.41
857.23	227.33
857.55	227.28
857.86	227.22
858.17	227.30
858.48	227.27
858.79	227.18
859.11	227.20
859.42	227.15
859.73	227.03
860.04	227.03
860.35	226.84
860.66	226.75
860.98	226.73
861.29	226.72
861.60	226.70
861.91	226.78
862.22	226.83
862.53	226.79
862.84	226.26
863.16	226.33
863.47	226.32
863.78	226.33
864.09	226.37
864.40	226.39
864.71	226.38
865.02	226.43
865.33	226.31
865.64	226.23
865.95	226.21
866.27	226.52
866.58	226.46
866.89	226.48
867.20	226.46
867.51	226.41
867.82	226.40
868.13	226.56
868.44	226.43
868.75	226.55
869.06	226.54
869.37	226.49
869.68	226.37
869.99	226.46
870.30	226.46
870.61	226.48
870.92	226.43
871.23	226.44
871.54	226.53
871.85	226.73
872.16	226.79
872.47	226.76
872.78	226.48
873.09	226.46
873.40	226.45
873.71	226.46
874.02	226.47
874.33	226.51
874.64	226.47
874.95	226.62
875.26	226.45
875.56	226.47
875.87	226.50
876.18	226.45
876.49	226.86
876.80	226.83
877.11	226.74
877.42	226.75
877.73	226.73
878.04	226.59
878.35	226.54
878.66	226.51
878.96	226.54
879.27	226.46
879.58	226.53
879.89	226.43
880.20	226.63
880.51	226.59
880.82	226.58
881.12	226.49
881.43	226.41
881.74	226.28
882.05	226.27
882.36	226.29
882.67	226.36
882.97	225.78
883.28	225.79
883.59	225.80
883.90	225.92
884.21	225.95
884.51	225.96
884.82	225.93
885.13	225.91
885.44	225.91
885.74	226.04
886.05	225.98
886.36	226.01
886.67	225.76
886.98	226.05
887.28	226.08
887.59	226.02
887.90	226.03
888.20	226.15
888.51	226.25
888.82	226.17
889.13	226.19
889.43	226.64
889.74	226.50
890.05	226.49
890.35	226.39
890.66	226.31
890.97	226.24
891.28	226.23
891.58	226.27
891.89	226.27
892.20	226.18
892.50	226.09
892.81	226.14
893.12	226.15
893.42	225.92
893.73	225.94
894.04	225.97
894.34	226.02
894.65	226.00
894.95	225.91
895.26	225.91
895.57	226.16
895.87	225.77
896.18	225.90
896.48	225.99
896.79	225.98
897.10	226.06
897.40	226.17
897.71	226.16
898.01	226.11
898.32	226.17
898.63	226.19
898.93	226.27
899.24	226.30
899.54	226.36
899.85	226.36
900.15	226.33
900.46	226.35
900.76	226.38
901.07	226.36
901.38	226.36
901.68	226.37
901.99	226.10
902.29	226.08
902.60	226.01
902.90	225.91
903.21	225.89
903.51	225.85
903.82	225.96
904.12	226.01
904.43	226.01
904.73	225.94
905.03	225.96
905.34	226.44
905.64	226.34
905.95	226.28
906.25	226.28
906.56	226.28
906.86	226.33
907.17	226.30
907.47	226.35
907.77	226.34
908.08	226.33
908.38	226.38
908.69	226.48
908.99	226.59
909.30	226.67
909.60	226.68
909.90	226.75
910.21	226.54
910.51	226.48
910.81	226.49
911.12	226.49
911.42	226.49
911.73	226.07
912.03	226.14
912.33	226.24
912.64	226.27
912.94	226.25
913.24	226.16
913.55	226.19
913.85	226.16
914.15	226.23
914.46	226.25
914.76	226.21
915.06	226.13
915.37	226.08
915.67	226.02
915.97	226.05
916.27	225.92
916.58	225.99
916.88	226.01
917.18	225.94
917.49	226.27
917.79	226.30
918.09	226.30
918.39	226.45
918.70	226.41
919.00	226.43
919.30	226.60
919.60	226.55
919.91	226.49
920.21	226.51
920.51	226.40
920.81	226.40
921.12	226.50
921.42	226.44
921.72	226.48
922.02	226.53
922.32	226.53
922.63	226.55
922.93	226.75
923.23	226.71
923.53	226.79
923.83	226.50
924.13	226.53
924.44	226.51
924.74	226.54
925.04	226.61
925.34	226.58
925.64	226.37
925.94	226.38
926.24	226.58
926.55	226.56
926.85	226.64
927.15	226.67
927.45	226.59
927.75	226.61
928.05	226.55
928.35	226.41
928.65	226.52
928.95	226.57
929.26	226.36
929.56	226.41
929.86	226.34
930.16	226.27
930.46	226.13
930.76	226.11
931.06	225.82
931.36	225.70
931.66	225.75
931.96	225.81
932.26	225.78
932.56	225.55
932.86	225.49
933.16	225.44
933.46	225.40
933.76	225.29
934.06	225.37
934.36	225.48
934.66	225.53
934.96	225.37
935.26	225.38
935.56	225.43
935.86	225.36
936.16	225.35
936.46	225.32
936.76	225.34
937.06	225.29
937.36	225.30
937.66	225.33
937.96	225.21
938.26	225.16
938.56	225.16
938.86	225.19
939.16	225.36
939.46	225.41
939.76	225.35
940.06	225.41
940.35	225.29
940.65	225.16
940.95	225.19
941.25	225.13
941.55	225.10
941.85	225.07
942.15	225.16
942.45	225.26
942.75	225.25
943.04	225.28
943.34	225.37
943.64	225.35
943.94	225.31
944.24	225.38
944.54	225.34
944.84	225.36
945.13	225.30
945.43	225.18
945.73	225.24
946.03	225.30
946.33	225.35
946.62	225.29
946.92	225.25
947.22	225.30
947.52	225.40
947.82	225.50
948.11	225.46
948.41	225.37
948.71	225.30
949.01	225.42
949.31	225.39
949.60	225.35
949.90	225.49
950.20	225.45
950.50	225.40
950.79	225.38
951.09	225.45
951.39	225.52
951.69	225.49
951.98	225.55
952.28	225.55
952.58	225.51
952.87	225.56
953.17	225.65
953.47	225.58
953.76	225.54
954.06	225.43
954.36	225.43
954.66	225.47
954.95	225.63
955.25	225.59
955.55	225.68
955.84	225.62
956.14	225.72
956.44	225.77
956.73	225.78
957.03	225.87
957.32	225.85
957.62	225.76
957.92	225.81
958.21	225.71
958.51	226.21
958.81	226.25
959.10	226.34
959.40	226.48
959.69	226.52
959.99	226.63
960.29	226.67
960.58	226.60
960.88	226.75
961.17	226.59
961.47	226.67
961.76	226.58
962.06	226.70
962.36	226.62
962.65	226.63
962.95	226.68
963.24	226.58
963.54	226.64
963.83	226.69
964.13	226.66
964.42	226.53
964.72	226.27
965.01	226.30
965.31	226.24
965.60	226.12
965.90	226.44
966.19	226.27
966.49	226.24
966.78	226.21
967.08	226.13
967.37	226.18
967.67	226.10
967.96	226.18
968.26	226.11
968.55	226.15
968.85	226.18
969.14	226.14
969.43	226.20
969.73	226.15
970.02	226.18
970.32	226.16
970.61	226.18
970.91	225.90
971.20	225.80
971.49	225.81
971.79	225.85
972.08	225.49
972.38	225.48
972.67	225.45
972.96	225.55
973.26	225.50
973.55	225.61
973.85	225.53
974.14	225.47
974.43	225.53
974.73	225.33
975.02	225.31
975.31	225.32
975.61	225.31
975.90	225.23
976.19	225.16
976.49	225.22
976.78	225.25
977.07	225.29
977.37	225.28
977.66	225.25
977.95	225.11
978.24	225.15
978.54	225.25
978.83	225.20
979.12	225.22
979.42	225.20
979.71	225.10
980.00	225.08
980.29	225.13
980.59	224.99
980.88	225.15
981.17	225.07
981.46	225.09
981.76	225.08
982.05	225.23
982.34	225.32
982.63	225.25
982.93	225.27
983.22	225.35
983.51	225.35
983.80	225.45
984.09	225.60
984.39	225.62
984.68	225.58
984.97	225.62
985.26	225.51
985.55	225.56
985.85	225.49
986.14	225.62
986.43	225.69
986.72	225.72
987.01	225.62
987.30	225.65
987.59	225.61
987.89	225.65
988.18	225.53
988.47	225.43
988.76	225.46
989.05	225.44
989.34	225.40
989.63	225.56
989.92	225.51
990.22	225.39
990.51	225.29
990.80	225.30
991.09	225.37
991.38	225.48
991.67	225.41
991.96	225.40
992.25	225.39
992.54	225.29
992.83	225.31
993.12	225.33
993.41	225.48
993.70	225.70
993.99	225.82
994.28	225.92
994.58	226.06
994.87	226.02
995.16	226.02
995.45	226.00
995.74	225.81
996.03	225.91
996.32	226.01
996.61	226.18
996.90	226.15
997.19	226.14
997.48	226.13
997.77	226.12
998.06	226.18
998.34	226.21
998.63	226.19
998.92	226.20
999.21	226.33
999.50	226.26
999.79	226.01
1000.08	225.90
1000.37	225.90
1000.66	225.82
1000.95	225.93
1001.24	225.95
1001.53	226.04
1001.82	226.01
1002.11	225.87
1002.40	225.91
1002.68	225.97
1002.97	226.33
1003.26	226.24
1003.55	226.23
1003.84	226.30
1004.13	226.35
1004.42	226.24
1004.71	226.18
1004.99	226.14
1005.28	226.18
1005.57	226.15
1005.86	226.15
1006.15	226.07
1006.44	225.95
1006.72	225.98
1007.01	225.88
1007.30	225.81
1007.59	225.78
1007.88	225.80
1008.17	225.85
1008.45	225.79
1008.74	225.60
1009.03	225.35
1009.32	225.38
1009.60	225.32
1009.89	225.23
1010.18	225.14
1010.47	225.11
1010.76	225.17
1011.04	225.16
1011.33	225.10
1011.62	225.16
1011.91	225.19
1012.19	225.32
1012.48	225.37
1012.77	225.34
1013.05	225.58
1013.34	225.61
1013.63	225.47
1013.92	225.52
1014.20	225.44
1014.49	225.42
1014.78	225.46
1015.06	225.30
1015.35	225.25
1015.64	225.31
1015.92	225.36
1016.21	225.36
1016.50	225.34
1016.78	225.41
1017.07	225.43
1017.36	225.38
1017.64	225.24
1017.93	225.28
1018.22	225.21
1018.50	225.17
1018.79	225.19
1019.08	224.96
1019.36	225.02
1019.65	225.03
1019.93	225.14
1020.22	225.28
1020.51	225.53
1020.79	225.47
1021.08	225.10
1021.36	224.85
1021.65	225.40
1021.94	225.35
1022.22	225.80
1022.51	223.90
1022.79	227.90
1023.08	226.70
1023.36	231.05
1023.65	224.00
>>>>>End Processed Spectral Data<<<<<
