SpectraSuite Data File
++++++++++++++++++++++++++++++++++++
Date: Wed Sep 04 17:53:44 EDT 2013
User: lab3
Dark Spectrum Present: Yes
Reference Spectrum Present: No
Number of Sampled Component Spectra: 1
Spectrometers: USB2E7196
Integration Time (usec): 170000 (USB2E7196)
Spectra Averaged: 20 (USB2E7196)
Boxcar Smoothing: 10 (USB2E7196)
Correct for Electrical Dark: No (USB2E7196)
Strobe/Lamp Enabled: No (USB2E7196)
Correct for Detector Non-linearity: No (USB2E7196)
Correct for Stray Light: No (USB2E7196)
Number of Pixels in Processed Spectrum: 2048
>>>>>Begin Processed Spectral Data<<<<<
339.09	0.00
339.48	212.50
339.86	214.35
340.24	217.40
340.63	215.55
341.01	226.60
341.39	220.40
341.78	222.05
342.16	224.80
342.54	222.20
342.93	212.30
343.31	222.99
343.69	223.52
344.07	223.97
344.46	224.43
344.84	224.95
345.22	224.83
345.60	225.09
345.99	225.32
346.37	225.40
346.75	225.50
347.13	225.57
347.52	225.67
347.90	225.85
348.28	225.85
348.66	226.01
349.05	225.92
349.43	225.94
349.81	226.01
350.19	226.06
350.57	226.25
350.96	226.34
351.34	226.40
351.72	226.50
352.10	226.66
352.48	226.67
352.87	226.66
353.25	226.83
353.63	226.83
354.01	226.86
354.39	226.96
354.77	227.07
355.15	227.20
355.54	227.18
355.92	227.03
356.30	227.15
356.68	227.42
357.06	227.50
357.44	227.48
357.82	227.48
358.20	227.92
358.58	227.89
358.97	227.91
359.35	228.09
359.73	228.26
360.11	228.31
360.49	228.43
360.87	228.50
361.25	228.57
361.63	228.78
362.01	228.84
362.39	228.86
362.77	228.97
363.15	229.02
363.53	229.13
363.91	229.23
364.29	229.27
364.67	228.98
365.05	229.10
365.43	229.24
365.81	229.34
366.19	229.25
366.57	229.45
366.95	229.48
367.33	229.36
367.71	229.43
368.09	229.48
368.47	229.41
368.85	229.37
369.23	229.46
369.61	229.40
369.99	229.48
370.37	229.53
370.75	229.75
371.13	229.70
371.51	229.62
371.89	229.63
372.27	229.65
372.65	229.62
373.03	229.57
373.41	229.50
373.78	229.52
374.16	229.30
374.54	229.15
374.92	229.10
375.30	229.09
375.68	228.89
376.06	228.85
376.44	228.77
376.82	228.76
377.19	228.67
377.57	228.48
377.95	228.30
378.33	228.09
378.71	227.75
379.09	227.66
379.47	227.61
379.84	227.47
380.22	227.29
380.60	227.05
380.98	227.02
381.36	226.93
381.73	226.70
382.11	226.60
382.49	226.54
382.87	226.42
383.25	226.37
383.62	226.87
384.00	226.73
384.38	226.70
384.76	226.76
385.13	226.90
385.51	226.87
385.89	226.77
386.27	226.77
386.64	226.78
387.02	226.67
387.40	226.58
387.78	226.57
388.15	226.57
388.53	226.57
388.91	226.49
389.29	226.40
389.66	226.54
390.04	226.54
390.42	226.60
390.79	226.58
391.17	226.53
391.55	225.97
391.92	225.97
392.30	225.98
392.68	225.89
393.05	225.78
393.43	225.78
393.81	225.81
394.18	225.82
394.56	225.85
394.94	226.04
395.31	225.99
395.69	226.18
396.06	226.29
396.44	226.40
396.82	226.35
397.19	226.68
397.57	226.58
397.95	226.60
398.32	226.44
398.70	226.57
399.07	226.77
399.45	226.85
399.82	226.92
400.20	226.95
400.58	227.03
400.95	226.96
401.33	227.20
401.70	227.64
402.08	227.71
402.45	227.80
402.83	227.95
403.20	228.16
403.58	228.32
403.95	228.50
404.33	228.74
404.71	228.94
405.08	229.37
405.46	229.63
405.83	229.93
406.21	230.31
406.58	230.65
406.96	230.94
407.33	231.31
407.70	231.69
408.08	232.46
408.45	232.89
408.83	233.49
409.20	233.85
409.58	233.94
409.95	234.48
410.33	235.05
410.70	235.47
411.08	236.05
411.45	236.61
411.82	237.16
412.20	237.95
412.57	239.03
412.95	239.36
413.32	240.36
413.69	241.22
414.07	242.06
414.44	242.99
414.82	243.97
415.19	245.19
415.56	246.36
415.94	247.31
416.31	248.78
416.68	250.12
417.06	251.76
417.43	253.46
417.81	255.26
418.18	257.10
418.55	259.09
418.93	261.15
419.30	263.29
419.67	265.54
420.04	267.78
420.42	269.98
420.79	273.03
421.16	275.67
421.54	278.74
421.91	281.74
422.28	284.78
422.66	287.98
423.03	291.37
423.40	294.66
423.77	298.22
424.15	301.68
424.52	305.44
424.89	309.46
425.26	313.44
425.64	317.16
426.01	321.22
426.38	325.54
426.75	330.00
427.13	334.55
427.50	339.30
427.87	344.10
428.24	348.99
428.61	353.52
428.99	358.88
429.36	364.20
429.73	369.64
430.10	375.18
430.47	380.98
430.85	386.59
431.22	392.86
431.59	399.49
431.96	405.76
432.33	412.63
432.70	419.44
433.08	427.23
433.45	434.64
433.82	442.02
434.19	450.32
434.56	458.41
434.93	465.93
435.30	473.49
435.68	482.19
436.05	490.74
436.42	499.02
436.79	506.53
437.16	514.97
437.53	523.69
437.90	532.37
438.27	540.78
438.64	549.64
439.01	557.84
439.38	565.09
439.75	572.23
440.13	580.36
440.50	587.85
440.87	594.06
441.24	600.50
441.61	607.55
441.98	612.54
442.35	618.38
442.72	624.51
443.09	630.36
443.46	633.62
443.83	635.89
444.20	637.86
444.57	640.68
444.94	641.75
445.31	642.97
445.68	644.28
446.05	644.53
446.42	643.16
446.79	641.80
447.16	640.33
447.53	639.04
447.90	635.32
448.27	631.63
448.64	626.68
449.01	623.04
449.37	616.89
449.74	610.83
450.11	604.08
450.48	596.31
450.85	588.52
451.22	581.78
451.59	575.18
451.96	568.89
452.33	560.83
452.70	553.47
453.07	544.80
453.43	535.77
453.80	527.33
454.17	519.45
454.54	511.80
454.91	503.44
455.28	495.51
455.65	488.05
456.02	481.25
456.38	474.92
456.75	467.18
457.12	460.65
457.49	454.38
457.86	447.99
458.23	442.86
458.59	437.12
458.96	431.33
459.33	426.17
459.70	421.06
460.07	416.92
460.43	412.26
460.80	408.07
461.17	404.32
461.54	400.50
461.91	396.72
462.27	392.83
462.64	389.73
463.01	386.30
463.38	382.94
463.74	378.92
464.11	375.97
464.48	373.37
464.85	370.56
465.21	368.49
465.58	366.15
465.95	363.33
466.32	361.08
466.68	358.81
467.05	356.70
467.42	354.55
467.78	352.27
468.15	350.14
468.52	348.53
468.88	346.31
469.25	344.33
469.62	342.85
469.98	341.25
470.35	339.66
470.72	338.17
471.08	336.61
471.45	335.41
471.82	334.14
472.18	332.62
472.55	331.66
472.92	330.23
473.28	329.10
473.65	328.07
474.02	327.01
474.38	326.28
474.75	325.48
475.11	324.53
475.48	324.00
475.85	323.33
476.21	322.60
476.58	322.06
476.94	321.59
477.31	321.04
477.67	320.55
478.04	320.34
478.41	320.10
478.77	320.30
479.14	319.89
479.50	319.70
479.87	319.70
480.23	319.66
480.60	319.64
480.96	319.64
481.33	319.96
481.69	320.15
482.06	320.31
482.42	320.54
482.79	320.93
483.15	321.22
483.52	321.86
483.88	322.38
484.25	323.01
484.61	323.69
484.98	324.32
485.34	325.25
485.71	325.99
486.07	327.00
486.44	327.58
486.80	328.79
487.17	329.99
487.53	331.42
487.90	332.85
488.26	334.58
488.62	336.23
488.99	337.68
489.35	339.45
489.72	341.35
490.08	343.33
490.44	345.41
490.81	347.71
491.17	349.85
491.54	352.36
491.90	354.92
492.26	357.56
492.63	360.50
492.99	363.40
493.36	366.53
493.72	369.80
494.08	373.25
494.45	376.83
494.81	380.62
495.17	384.42
495.54	388.59
495.90	392.73
496.26	397.28
496.63	402.12
496.99	406.90
497.35	412.00
497.72	417.26
498.08	422.66
498.44	428.30
498.80	434.44
499.17	440.46
499.53	446.75
499.89	453.48
500.26	460.24
500.62	467.12
500.98	474.54
501.34	481.97
501.71	489.74
502.07	497.53
502.43	505.73
502.79	514.16
503.16	522.89
503.52	531.96
503.88	541.10
504.24	550.60
504.60	560.51
504.97	570.73
505.33	581.24
505.69	592.40
506.05	603.29
506.41	614.45
506.78	626.16
507.14	638.11
507.50	650.37
507.86	663.05
508.22	676.21
508.59	689.26
508.95	702.75
509.31	716.75
509.67	731.22
510.03	745.49
510.39	760.24
510.75	775.18
511.12	790.36
511.48	806.07
511.84	821.94
512.20	837.95
512.56	854.19
512.92	870.85
513.28	887.53
513.64	904.88
514.00	922.35
514.37	939.94
514.73	958.12
515.09	976.32
515.45	994.43
515.81	1012.93
516.17	1031.89
516.53	1050.53
516.89	1069.26
517.25	1088.57
517.61	1108.67
517.97	1128.71
518.33	1148.74
518.69	1168.99
519.05	1189.39
519.41	1210.11
519.77	1231.03
520.13	1251.66
520.49	1272.14
520.85	1294.40
521.21	1315.62
521.57	1337.00
521.93	1357.82
522.29	1378.83
522.65	1399.34
523.01	1420.44
523.37	1441.11
523.73	1461.95
524.09	1482.76
524.45	1503.48
524.81	1524.31
525.17	1544.84
525.53	1565.49
525.89	1586.20
526.25	1606.92
526.61	1627.04
526.97	1647.76
527.33	1668.90
527.68	1690.72
528.04	1712.05
528.40	1731.45
528.76	1752.07
529.12	1772.40
529.48	1793.44
529.84	1813.72
530.20	1834.90
530.56	1855.68
530.91	1876.48
531.27	1896.78
531.63	1916.91
531.99	1937.25
532.35	1956.78
532.71	1976.93
533.07	1997.35
533.42	2017.43
533.78	2037.23
534.14	2057.25
534.50	2076.25
534.86	2095.15
535.21	2112.31
535.57	2130.51
535.93	2148.54
536.29	2166.36
536.65	2184.29
537.00	2201.44
537.36	2218.70
537.72	2235.18
538.08	2251.85
538.44	2268.45
538.79	2284.70
539.15	2301.54
539.51	2317.70
539.87	2333.05
540.22	2347.04
540.58	2361.34
540.94	2374.41
541.29	2386.97
541.65	2399.36
542.01	2411.86
542.37	2422.34
542.72	2433.47
543.08	2444.08
543.44	2455.60
543.79	2465.56
544.15	2475.58
544.51	2485.97
544.87	2495.78
545.22	2504.32
545.58	2512.06
545.94	2518.97
546.29	2525.15
546.65	2530.90
547.01	2536.40
547.36	2542.36
547.72	2547.88
548.07	2551.96
548.43	2556.90
548.79	2561.68
549.14	2565.73
549.50	2569.03
549.86	2573.17
550.21	2577.18
550.57	2580.60
550.92	2581.61
551.28	2583.04
551.64	2585.10
551.99	2586.56
552.35	2587.88
552.70	2590.18
553.06	2591.94
553.41	2593.17
553.77	2595.26
554.13	2597.26
554.48	2598.77
554.84	2599.58
555.19	2600.82
555.55	2602.36
555.90	2601.95
556.26	2601.23
556.61	2599.68
556.97	2597.74
557.32	2596.80
557.68	2595.49
558.03	2594.17
558.39	2592.77
558.74	2591.85
559.10	2588.60
559.45	2584.66
559.81	2580.32
560.16	2574.72
560.52	2569.82
560.87	2565.33
561.23	2559.81
561.58	2553.68
561.94	2546.74
562.29	2539.38
562.64	2532.08
563.00	2523.83
563.35	2516.98
563.71	2510.10
564.06	2503.97
564.42	2497.83
564.77	2491.51
565.12	2483.81
565.48	2476.06
565.83	2468.24
566.19	2460.05
566.54	2451.84
566.89	2444.17
567.25	2436.35
567.60	2429.31
567.96	2421.61
568.31	2413.83
568.66	2405.38
569.02	2396.62
569.37	2388.31
569.72	2380.98
570.08	2372.03
570.43	2362.68
570.78	2353.93
571.14	2344.44
571.49	2334.23
571.84	2324.29
572.20	2313.26
572.55	2303.25
572.90	2292.28
573.26	2282.34
573.61	2271.39
573.96	2260.26
574.31	2248.46
574.67	2236.56
575.02	2223.84
575.37	2211.26
575.72	2197.75
576.08	2185.61
576.43	2173.06
576.78	2159.99
577.13	2146.19
577.49	2133.52
577.84	2121.55
578.19	2109.22
578.54	2096.77
578.90	2084.69
579.25	2072.55
579.60	2060.18
579.95	2047.07
580.30	2034.14
580.66	2020.56
581.01	2006.84
581.36	1993.34
581.71	1980.46
582.06	1967.71
582.42	1955.32
582.77	1943.07
583.12	1931.31
583.47	1918.81
583.82	1906.77
584.17	1894.93
584.53	1883.25
584.88	1870.31
585.23	1857.15
585.58	1843.37
585.93	1830.06
586.28	1816.98
586.63	1803.23
586.98	1789.21
587.34	1775.97
587.69	1762.46
588.04	1749.95
588.39	1738.05
588.74	1725.85
589.09	1714.12
589.44	1701.39
589.79	1689.42
590.14	1677.27
590.49	1665.29
590.84	1653.55
591.19	1641.60
591.54	1629.17
591.89	1617.03
592.25	1606.67
592.60	1595.13
592.95	1583.41
593.30	1571.35
593.65	1559.50
594.00	1547.47
594.35	1537.40
594.70	1525.77
595.05	1514.62
595.40	1502.58
595.75	1490.89
596.10	1479.75
596.45	1468.24
596.80	1457.48
597.15	1446.02
597.50	1434.41
597.85	1423.15
598.19	1411.33
598.54	1399.62
598.89	1388.57
599.24	1378.09
599.59	1366.57
599.94	1355.94
600.29	1345.85
600.64	1335.91
600.99	1325.06
601.34	1315.34
601.69	1304.14
602.04	1294.49
602.39	1284.76
602.74	1275.62
603.08	1266.19
603.43	1256.86
603.78	1247.01
604.13	1237.48
604.48	1227.94
604.83	1218.14
605.18	1208.11
605.53	1198.67
605.87	1189.59
606.22	1181.30
606.57	1172.01
606.92	1162.58
607.27	1153.86
607.62	1145.02
607.96	1136.45
608.31	1128.60
608.66	1120.29
609.01	1111.86
609.36	1103.30
609.70	1094.89
610.05	1086.32
610.40	1077.89
610.75	1069.21
611.10	1061.18
611.44	1052.46
611.79	1044.18
612.14	1036.42
612.49	1028.68
612.83	1021.25
613.18	1013.51
613.53	1005.51
613.88	997.52
614.22	989.92
614.57	981.71
614.92	973.80
615.27	966.07
615.61	958.35
615.96	950.68
616.31	943.33
616.65	936.29
617.00	929.03
617.35	921.64
617.70	914.49
618.04	907.41
618.39	900.15
618.74	893.87
619.08	887.10
619.43	880.06
619.78	873.05
620.12	865.97
620.47	858.95
620.82	851.68
621.16	844.95
621.51	838.69
621.85	832.43
622.20	825.77
622.55	819.24
622.89	812.90
623.24	806.80
623.59	800.46
623.93	794.20
624.28	788.21
624.62	782.90
624.97	777.13
625.32	771.52
625.66	765.59
626.01	759.54
626.35	753.91
626.70	748.42
627.04	743.19
627.39	737.70
627.73	732.58
628.08	727.57
628.43	722.06
628.77	716.46
629.12	711.43
629.46	706.77
629.81	702.22
630.15	697.42
630.50	692.46
630.84	687.49
631.19	682.65
631.53	677.94
631.88	672.40
632.22	667.51
632.57	663.13
632.91	658.66
633.26	654.24
633.60	649.68
633.95	645.17
634.29	640.41
634.64	636.10
634.98	631.36
635.32	626.93
635.67	623.15
636.01	619.05
636.36	614.58
636.70	610.45
637.05	606.15
637.39	601.99
637.73	597.98
638.08	594.15
638.42	589.86
638.77	585.57
639.11	581.42
639.45	577.06
639.80	572.50
640.14	568.58
640.49	564.50
640.83	560.69
641.17	556.96
641.52	553.32
641.86	549.61
642.20	546.45
642.55	542.99
642.89	539.26
643.23	535.75
643.58	532.56
643.92	528.95
644.26	525.66
644.61	522.38
644.95	518.95
645.29	515.53
645.64	512.63
645.98	509.69
646.32	506.82
646.66	503.83
647.01	501.04
647.35	498.16
647.69	495.35
648.04	492.59
648.38	489.73
648.72	486.94
649.06	483.90
649.41	480.85
649.75	477.84
650.09	474.90
650.43	472.08
650.78	469.22
651.12	466.39
651.46	463.63
651.80	460.93
652.14	458.24
652.49	455.81
652.83	453.10
653.17	450.40
653.51	447.67
653.85	445.29
654.20	442.65
654.54	439.95
654.88	437.29
655.22	434.91
655.56	432.59
655.90	430.22
656.25	428.01
656.59	425.76
656.93	423.65
657.27	421.61
657.61	419.31
657.95	417.05
658.29	414.88
658.64	412.76
658.98	410.50
659.32	408.33
659.66	406.02
660.00	403.96
660.34	401.87
660.68	399.80
661.02	397.71
661.36	395.76
661.70	393.78
662.05	391.95
662.39	390.05
662.73	388.23
663.07	386.64
663.41	384.72
663.75	382.76
664.09	380.85
664.43	378.84
664.77	377.18
665.11	375.47
665.45	373.90
665.79	372.32
666.13	370.69
666.47	369.05
666.81	367.51
667.15	365.71
667.49	364.16
667.83	362.90
668.17	361.50
668.51	360.09
668.85	358.84
669.19	357.72
669.53	356.19
669.87	354.57
670.21	353.01
670.55	351.76
670.89	350.64
671.23	349.30
671.57	348.00
671.91	346.65
672.25	345.35
672.58	344.12
672.92	342.67
673.26	341.38
673.60	340.14
673.94	338.91
674.28	337.90
674.62	336.84
674.96	335.51
675.30	334.37
675.64	333.19
675.97	331.91
676.31	330.48
676.65	329.40
676.99	328.56
677.33	327.40
677.67	326.29
678.01	325.00
678.34	324.00
678.68	323.08
679.02	322.05
679.36	321.07
679.70	319.95
680.04	319.02
680.37	318.15
680.71	317.20
681.05	316.26
681.39	315.40
681.73	314.44
682.06	313.57
682.40	312.62
682.74	311.84
683.08	311.10
683.42	310.28
683.75	309.44
684.09	308.32
684.43	307.50
684.77	306.56
685.10	305.87
685.44	305.06
685.78	304.14
686.12	303.42
686.45	302.61
686.79	301.82
687.13	301.18
687.46	300.35
687.80	299.73
688.14	299.03
688.48	298.28
688.81	297.57
689.15	296.96
689.49	296.22
689.82	295.63
690.16	294.80
690.50	294.10
690.83	293.38
691.17	292.72
691.51	292.05
691.84	291.51
692.18	290.76
692.52	290.03
692.85	289.53
693.19	288.99
693.52	288.35
693.86	287.72
694.20	287.00
694.53	286.46
694.87	285.81
695.21	285.09
695.54	284.55
695.88	283.82
696.21	283.08
696.55	282.55
696.88	281.81
697.22	281.10
697.56	280.62
697.89	279.99
698.23	279.51
698.56	278.94
698.90	278.49
699.23	277.97
699.57	277.50
699.90	276.81
700.24	276.18
700.58	275.73
700.91	275.33
701.25	275.19
701.58	275.01
701.92	274.64
702.25	274.23
702.59	273.64
702.92	273.21
703.26	272.79
703.59	272.35
703.93	272.35
704.26	272.02
704.60	271.49
704.93	271.10
705.26	270.53
705.60	270.15
705.93	269.56
706.27	269.23
706.60	269.02
706.94	268.85
707.27	268.39
707.61	268.03
707.94	267.55
708.27	266.80
708.61	266.01
708.94	265.48
709.28	265.07
709.61	264.67
709.94	264.32
710.28	263.96
710.61	263.59
710.95	262.78
711.28	262.70
711.61	262.36
711.95	262.11
712.28	261.78
712.61	261.45
712.95	261.44
713.28	261.22
713.61	260.66
713.95	260.18
714.28	259.91
714.61	259.41
714.95	259.16
715.28	258.76
715.61	258.51
715.95	258.27
716.28	257.88
716.61	257.58
716.95	257.21
717.28	256.92
717.61	256.55
717.94	256.25
718.28	255.64
718.61	255.33
718.94	254.92
719.27	254.70
719.61	254.45
719.94	254.01
720.27	253.61
720.60	253.41
720.94	253.20
721.27	252.93
721.60	252.80
721.93	252.47
722.27	252.40
722.60	252.18
722.93	251.87
723.26	251.71
723.59	251.39
723.93	251.25
724.26	250.98
724.59	250.72
724.92	250.58
725.25	250.41
725.59	250.18
725.92	250.03
726.25	249.83
726.58	249.60
726.91	249.33
727.24	249.12
727.57	248.92
727.91	248.64
728.24	248.53
728.57	248.34
728.90	248.22
729.23	247.88
729.56	247.93
729.89	247.83
730.22	247.69
730.55	247.56
730.89	247.40
731.22	247.21
731.55	247.06
731.88	246.79
732.21	246.66
732.54	246.51
732.87	246.36
733.20	246.22
733.53	246.09
733.86	245.96
734.19	245.75
734.52	245.64
734.85	245.80
735.18	245.57
735.51	245.58
735.84	245.44
736.17	245.46
736.50	245.08
736.83	245.39
737.16	245.25
737.49	245.12
737.82	244.89
738.15	244.83
738.48	244.73
738.81	244.63
739.14	244.45
739.47	244.24
739.80	244.07
740.13	243.99
740.46	243.72
740.79	243.52
741.12	243.36
741.45	243.20
741.78	242.78
742.11	242.71
742.44	242.45
742.77	242.40
743.10	242.16
743.43	241.95
743.75	241.36
744.08	241.78
744.41	241.55
744.74	241.48
745.07	241.25
745.40	241.10
745.73	241.19
746.06	240.95
746.39	240.94
746.71	240.75
747.04	240.52
747.37	240.44
747.70	240.51
748.03	240.37
748.36	240.27
748.68	240.16
749.01	239.92
749.34	239.74
749.67	239.58
750.00	239.52
750.33	239.75
750.65	239.70
750.98	239.01
751.31	238.96
751.64	238.91
751.97	239.07
752.29	238.97
752.62	238.57
752.95	238.46
753.28	238.29
753.60	238.18
753.93	238.17
754.26	238.13
754.59	237.78
754.91	237.65
755.24	237.51
755.57	237.42
755.90	237.29
756.22	237.15
756.55	237.01
756.88	236.74
757.20	236.28
757.53	236.03
757.86	235.88
758.19	235.83
758.51	235.69
758.84	235.38
759.17	235.26
759.49	235.18
759.82	235.34
760.15	235.31
760.47	235.21
760.80	234.98
761.13	234.91
761.45	234.84
761.78	234.80
762.11	234.69
762.43	234.59
762.76	234.53
763.08	234.56
763.41	234.46
763.74	234.53
764.06	234.50
764.39	234.46
764.71	234.35
765.04	234.29
765.37	234.14
765.69	234.01
766.02	233.95
766.34	233.83
766.67	233.56
767.00	233.54
767.32	233.79
767.65	234.11
767.97	234.00
768.30	233.91
768.62	233.80
768.95	233.77
769.27	233.71
769.60	233.78
769.92	233.63
770.25	233.53
770.57	233.36
770.90	233.30
771.22	233.16
771.55	233.14
771.87	233.08
772.20	233.05
772.52	233.42
772.85	233.95
773.17	234.00
773.50	234.01
773.82	233.89
774.15	233.55
774.47	233.11
774.80	233.08
775.12	233.08
775.45	233.03
775.77	232.92
776.09	232.90
776.42	232.78
776.74	232.90
777.07	232.85
777.39	232.89
777.72	232.89
778.04	232.98
778.36	232.96
778.69	232.96
779.01	232.89
779.33	232.46
779.66	231.87
779.98	231.76
780.31	231.69
780.63	231.87
780.95	231.92
781.28	231.91
781.60	231.81
781.92	231.78
782.25	231.77
782.57	231.77
782.89	231.69
783.22	231.63
783.54	231.46
783.86	231.49
784.19	231.41
784.51	231.42
784.83	231.31
785.16	231.25
785.48	231.16
785.80	231.14
786.12	231.11
786.45	231.06
786.77	231.10
787.09	231.01
787.42	230.80
787.74	230.76
788.06	230.80
788.38	230.77
788.71	230.70
789.03	230.66
789.35	230.70
789.67	230.56
789.99	230.59
790.32	230.50
790.64	230.48
790.96	230.69
791.28	230.52
791.61	230.42
791.93	230.43
792.25	230.45
792.57	230.76
792.89	230.62
793.21	230.55
793.54	230.45
793.86	230.41
794.18	230.40
794.50	230.29
794.82	230.21
795.14	230.19
795.47	230.24
795.79	230.23
796.11	230.08
796.43	230.04
796.75	229.95
797.07	229.91
797.39	229.81
797.71	229.53
798.04	229.55
798.36	229.59
798.68	229.48
799.00	229.43
799.32	229.10
799.64	229.13
799.96	229.19
800.28	229.26
800.60	229.23
800.92	229.21
801.24	229.16
801.56	229.18
801.89	229.13
802.21	229.12
802.53	229.08
802.85	229.18
803.17	229.46
803.49	229.33
803.81	229.33
804.13	229.33
804.45	229.23
804.77	229.25
805.09	229.16
805.41	229.17
805.73	228.98
806.05	228.98
806.37	228.98
806.69	228.88
807.01	228.84
807.33	228.87
807.65	228.74
807.97	229.01
808.28	228.90
808.60	228.93
808.92	228.81
809.24	229.05
809.56	228.92
809.88	228.73
810.20	228.84
810.52	229.00
810.84	228.96
811.16	228.96
811.48	228.92
811.80	229.17
812.12	229.17
812.43	229.31
812.75	229.27
813.07	229.27
813.39	229.29
813.71	229.23
814.03	229.17
814.35	229.16
814.67	228.91
814.98	228.86
815.30	228.87
815.62	228.81
815.94	228.44
816.26	228.65
816.58	228.53
816.89	228.58
817.21	228.38
817.53	228.38
817.85	228.39
818.17	228.36
818.48	228.07
818.80	228.14
819.12	228.16
819.44	228.04
819.76	227.97
820.07	227.99
820.39	227.94
820.71	227.93
821.03	227.89
821.34	227.87
821.66	227.98
821.98	227.95
822.30	227.93
822.61	228.30
822.93	228.05
823.25	228.12
823.57	228.02
823.88	228.10
824.20	228.10
824.52	228.18
824.83	228.11
825.15	228.10
825.47	228.04
825.79	227.98
826.10	228.00
826.42	228.02
826.74	228.03
827.05	228.06
827.37	228.13
827.69	228.16
828.00	228.15
828.32	228.08
828.64	228.02
828.95	228.24
829.27	228.11
829.58	228.11
829.90	228.17
830.22	228.14
830.53	228.03
830.85	227.93
831.17	227.88
831.48	227.91
831.80	227.95
832.11	227.87
832.43	227.79
832.75	227.80
833.06	227.99
833.38	227.87
833.69	227.83
834.01	227.85
834.32	227.81
834.64	227.77
834.96	227.82
835.27	227.81
835.59	227.68
835.90	227.53
836.22	227.51
836.53	227.30
836.85	227.35
837.16	227.79
837.48	227.83
837.79	227.88
838.11	227.81
838.42	227.85
838.74	227.90
839.05	227.91
839.37	227.88
839.68	227.61
840.00	227.59
840.31	227.64
840.63	227.53
840.94	227.50
841.26	227.44
841.57	227.41
841.88	227.48
842.20	227.42
842.51	227.35
842.83	227.30
843.14	227.82
843.46	227.77
843.77	227.53
844.08	227.46
844.40	227.33
844.71	227.33
845.03	227.23
845.34	227.26
845.65	227.23
845.97	227.21
846.28	227.22
846.60	227.20
846.91	227.14
847.22	227.11
847.54	227.21
847.85	227.20
848.16	227.16
848.48	227.06
848.79	227.26
849.10	227.32
849.42	227.42
849.73	226.95
850.04	226.95
850.36	226.72
850.67	226.82
850.98	226.83
851.30	226.92
851.61	226.89
851.92	226.80
852.23	226.92
852.55	226.95
852.86	226.95
853.17	227.06
853.49	227.18
853.80	227.33
854.11	227.37
854.42	227.45
854.74	227.37
855.05	227.37
855.36	227.08
855.67	227.10
855.99	227.10
856.30	227.67
856.61	227.63
856.92	227.71
857.23	227.69
857.55	227.62
857.86	227.52
858.17	227.62
858.48	227.61
858.79	227.51
859.11	227.57
859.42	227.60
859.73	227.47
860.04	227.37
860.35	227.19
860.66	227.00
860.98	227.00
861.29	227.04
861.60	227.03
861.91	227.20
862.22	227.10
862.53	227.02
862.84	226.49
863.16	226.64
863.47	226.53
863.78	226.47
864.09	226.55
864.40	226.65
864.71	226.68
865.02	226.75
865.33	226.70
865.64	226.63
865.95	226.62
866.27	226.94
866.58	226.89
866.89	226.95
867.20	227.04
867.51	226.93
867.82	226.93
868.13	227.06
868.44	226.90
868.75	227.01
869.06	227.01
869.37	227.03
869.68	226.87
869.99	226.95
870.30	227.01
870.61	227.05
870.92	226.94
871.23	226.84
871.54	226.88
871.85	227.01
872.16	227.06
872.47	227.00
872.78	226.72
873.09	226.79
873.40	226.67
873.71	226.60
874.02	226.62
874.33	226.56
874.64	226.44
874.95	226.54
875.26	226.41
875.56	226.38
875.87	226.36
876.18	226.34
876.49	226.76
876.80	226.65
877.11	226.54
877.42	226.53
877.73	226.54
878.04	226.44
878.35	226.41
878.66	226.34
878.96	226.30
879.27	226.30
879.58	226.19
879.89	226.20
880.20	226.27
880.51	226.28
880.82	226.27
881.12	226.28
881.43	226.10
881.74	226.04
882.05	226.07
882.36	226.09
882.67	226.06
882.97	225.59
883.28	225.52
883.59	225.53
883.90	225.58
884.21	225.61
884.51	225.52
884.82	225.44
885.13	225.45
885.44	225.50
885.74	225.45
886.05	225.44
886.36	225.46
886.67	225.35
886.98	225.63
887.28	225.66
887.59	225.71
887.90	225.74
888.20	225.77
888.51	225.81
888.82	225.70
889.13	225.75
889.43	226.11
889.74	226.08
890.05	226.08
890.35	226.04
890.66	226.00
890.97	225.94
891.28	225.91
891.58	225.92
891.89	225.93
892.20	225.84
892.50	225.82
892.81	225.77
893.12	225.79
893.42	225.53
893.73	225.55
894.04	225.53
894.34	225.66
894.65	225.63
894.95	225.57
895.26	225.65
895.57	225.86
895.87	225.44
896.18	225.64
896.48	225.61
896.79	225.64
897.10	225.71
897.40	225.91
897.71	225.99
898.01	226.00
898.32	226.01
898.63	226.17
898.93	226.25
899.24	226.30
899.54	226.36
899.85	226.35
900.15	226.36
900.46	226.40
900.76	226.45
901.07	226.50
901.38	226.59
901.68	226.64
901.99	226.48
902.29	226.57
902.60	226.51
902.90	226.53
903.21	226.55
903.51	226.48
903.82	226.55
904.12	226.58
904.43	226.59
904.73	226.70
905.03	226.71
905.34	227.13
905.64	227.13
905.95	227.11
906.25	227.12
906.56	227.15
906.86	227.11
907.17	227.02
907.47	227.07
907.77	226.98
908.08	226.85
908.38	226.83
908.69	226.86
908.99	226.95
909.30	226.97
909.60	226.92
909.90	227.02
910.21	226.83
910.51	226.71
910.81	226.75
911.12	226.68
911.42	226.64
911.73	226.12
912.03	226.15
912.33	226.23
912.64	226.24
912.94	226.18
913.24	226.19
913.55	226.18
913.85	226.10
914.15	226.17
914.46	226.27
914.76	226.27
915.06	226.13
915.37	225.98
915.67	225.97
915.97	225.96
916.27	225.80
916.58	225.82
916.88	225.80
917.18	225.69
917.49	225.97
917.79	225.92
918.09	226.04
918.39	226.16
918.70	226.14
919.00	226.11
919.30	226.29
919.60	226.20
919.91	226.11
920.21	226.10
920.51	226.03
920.81	225.92
921.12	225.99
921.42	226.00
921.72	226.04
922.02	226.05
922.32	226.16
922.63	226.25
922.93	226.53
923.23	226.59
923.53	226.55
923.83	226.31
924.13	226.37
924.44	226.31
924.74	226.32
925.04	226.44
925.34	226.45
925.64	226.33
925.94	226.42
926.24	226.74
926.55	226.76
926.85	226.78
927.15	226.85
927.45	226.85
927.75	226.85
928.05	226.88
928.35	226.85
928.65	226.86
928.95	226.85
929.26	226.61
929.56	226.76
929.86	226.86
930.16	226.84
930.46	226.82
930.76	226.92
931.06	226.75
931.36	226.61
931.66	226.65
931.96	226.70
932.26	226.68
932.56	226.55
932.86	226.58
933.16	226.60
933.46	226.53
933.76	226.44
934.06	226.63
934.36	226.84
934.66	226.85
934.96	226.85
935.26	226.89
935.56	227.02
935.86	226.87
936.16	226.86
936.46	226.86
936.76	226.86
937.06	226.76
937.36	226.81
937.66	226.91
937.96	226.94
938.26	226.87
938.56	226.83
938.86	226.82
939.16	226.92
939.46	226.98
939.76	227.07
940.06	227.07
940.35	226.94
940.65	226.73
940.95	226.76
941.25	226.66
941.55	226.57
941.85	226.56
942.15	226.66
942.45	226.72
942.75	226.67
943.04	226.66
943.34	226.82
943.64	226.84
943.94	226.70
944.24	226.68
944.54	226.73
944.84	226.73
945.13	226.68
945.43	226.62
945.73	226.59
946.03	226.49
946.33	226.50
946.62	226.47
946.92	226.39
947.22	226.48
947.52	226.45
947.82	226.57
948.11	226.50
948.41	226.36
948.71	226.25
949.01	226.23
949.31	226.17
949.60	226.05
949.90	226.08
950.20	225.99
950.50	225.96
950.79	225.87
951.09	225.94
951.39	225.89
951.69	225.78
951.98	225.90
952.28	225.95
952.58	225.93
952.87	225.93
953.17	226.03
953.47	225.89
953.76	225.88
954.06	225.74
954.36	225.62
954.66	225.64
954.95	225.78
955.25	225.89
955.55	225.97
955.84	225.91
956.14	225.92
956.44	226.09
956.73	226.02
957.03	226.07
957.32	226.05
957.62	226.00
957.92	226.06
958.21	225.94
958.51	226.46
958.81	226.54
959.10	226.65
959.40	226.73
959.69	226.80
959.99	226.90
960.29	226.89
960.58	226.92
960.88	227.12
961.17	227.03
961.47	227.01
961.76	226.94
962.06	227.02
962.36	226.93
962.65	226.82
962.95	226.84
963.24	226.75
963.54	226.74
963.83	226.81
964.13	226.92
964.42	226.85
964.72	226.45
965.01	226.42
965.31	226.28
965.60	226.13
965.90	226.43
966.19	226.28
966.49	226.35
966.78	226.36
967.08	226.30
967.37	226.34
967.67	226.24
967.96	226.34
968.26	226.33
968.55	226.36
968.85	226.40
969.14	226.45
969.43	226.46
969.73	226.40
970.02	226.42
970.32	226.34
970.61	226.33
970.91	226.22
971.20	226.20
971.49	226.23
971.79	226.32
972.08	226.01
972.38	226.15
972.67	226.21
972.96	226.18
973.26	226.11
973.55	226.21
973.85	226.21
974.14	226.22
974.43	226.20
974.73	226.23
975.02	226.19
975.31	226.18
975.61	226.16
975.90	226.14
976.19	226.14
976.49	226.23
976.78	226.37
977.07	226.32
977.37	226.31
977.66	226.34
977.95	226.35
978.24	226.38
978.54	226.42
978.83	226.36
979.12	226.41
979.42	226.44
979.71	226.39
980.00	226.37
980.29	226.35
980.59	226.35
980.88	226.39
981.17	226.42
981.46	226.45
981.76	226.51
982.05	226.72
982.34	226.74
982.63	226.68
982.93	226.58
983.22	226.79
983.51	226.87
983.80	226.92
984.09	226.96
984.39	226.87
984.68	226.80
984.97	226.85
985.26	226.83
985.55	226.88
985.85	226.77
986.14	226.88
986.43	226.94
986.72	226.89
987.01	226.79
987.30	226.82
987.59	226.75
987.89	226.78
988.18	226.54
988.47	226.45
988.76	226.48
989.05	226.48
989.34	226.37
989.63	226.50
989.92	226.43
990.22	226.36
990.51	226.44
990.80	226.45
991.09	226.47
991.38	226.53
991.67	226.42
991.96	226.42
992.25	226.35
992.54	226.22
992.83	226.23
993.12	226.18
993.41	226.15
993.70	226.30
993.99	226.33
994.28	226.45
994.58	226.53
994.87	226.40
995.16	226.31
995.45	226.29
995.74	226.08
996.03	226.17
996.32	226.20
996.61	226.23
996.90	226.18
997.19	226.12
997.48	226.10
997.77	226.02
998.06	226.01
998.34	225.99
998.63	225.99
998.92	226.04
999.21	226.13
999.50	226.16
999.79	226.07
1000.08	226.09
1000.37	226.07
1000.66	226.03
1000.95	226.14
1001.24	226.20
1001.53	226.23
1001.82	226.15
1002.11	226.01
1002.40	226.06
1002.68	226.21
1002.97	226.55
1003.26	226.45
1003.55	226.32
1003.84	226.39
1004.13	226.58
1004.42	226.58
1004.71	226.59
1004.99	226.53
1005.28	226.62
1005.57	226.58
1005.86	226.47
1006.15	226.37
1006.44	226.28
1006.72	226.40
1007.01	226.30
1007.30	226.29
1007.59	226.26
1007.88	226.35
1008.17	226.40
1008.45	226.22
1008.74	226.00
1009.03	225.80
1009.32	225.80
1009.60	225.84
1009.89	225.81
1010.18	225.50
1010.47	225.51
1010.76	225.53
1011.04	225.56
1011.33	225.60
1011.62	225.63
1011.91	225.72
1012.19	225.80
1012.48	225.85
1012.77	225.81
1013.05	226.09
1013.34	226.19
1013.63	226.16
1013.92	226.16
1014.20	226.15
1014.49	226.29
1014.78	226.32
1015.06	226.19
1015.35	226.23
1015.64	226.30
1015.92	226.39
1016.21	226.52
1016.50	226.52
1016.78	226.62
1017.07	226.60
1017.36	226.47
1017.64	226.38
1017.93	226.46
1018.22	226.39
1018.50	226.41
1018.79	226.35
1019.08	226.13
1019.36	226.11
1019.65	226.00
1019.93	226.13
1020.22	226.18
1020.51	226.35
1020.79	226.33
1021.08	225.20
1021.36	225.75
1021.65	226.15
1021.94	226.25
1022.22	227.05
1022.51	224.00
1022.79	228.60
1023.08	226.20
1023.36	231.20
1023.65	225.60
>>>>>End Processed Spectral Data<<<<<
