SpectraSuite Data File
++++++++++++++++++++++++++++++++++++
Date: Wed Sep 04 17:46:29 EDT 2013
User: lab3
Dark Spectrum Present: Yes
Reference Spectrum Present: No
Number of Sampled Component Spectra: 1
Spectrometers: USB2E7196
Integration Time (usec): 170000 (USB2E7196)
Spectra Averaged: 20 (USB2E7196)
Boxcar Smoothing: 10 (USB2E7196)
Correct for Electrical Dark: No (USB2E7196)
Strobe/Lamp Enabled: No (USB2E7196)
Correct for Detector Non-linearity: No (USB2E7196)
Correct for Stray Light: No (USB2E7196)
Number of Pixels in Processed Spectrum: 2048
>>>>>Begin Processed Spectral Data<<<<<
339.09	0.00
339.48	212.95
339.86	214.95
340.24	215.30
340.63	216.25
341.01	224.50
341.39	220.70
341.78	222.55
342.16	223.95
342.54	223.30
342.93	212.12
343.31	222.81
343.69	223.38
344.07	223.79
344.46	224.32
344.84	224.76
345.22	224.77
345.60	225.01
345.99	225.15
346.37	225.21
346.75	225.35
347.13	225.40
347.52	225.42
347.90	225.54
348.28	225.55
348.66	225.61
349.05	225.45
349.43	225.62
349.81	225.69
350.19	225.78
350.57	225.80
350.96	225.99
351.34	226.05
351.72	226.10
352.10	226.18
352.48	226.17
352.87	226.20
353.25	226.30
353.63	226.31
354.01	226.34
354.39	226.46
354.77	226.42
355.15	226.58
355.54	226.56
355.92	226.53
356.30	226.58
356.68	226.98
357.06	227.10
357.44	227.07
357.82	227.13
358.20	227.58
358.58	227.55
358.97	227.58
359.35	227.80
359.73	227.97
360.11	228.04
360.49	228.14
360.87	228.14
361.25	228.24
361.63	228.48
362.01	228.59
362.39	228.57
362.77	228.69
363.15	228.72
363.53	228.78
363.91	228.83
364.29	228.89
364.67	228.46
365.05	228.53
365.43	228.65
365.81	228.74
366.19	228.60
366.57	228.94
366.95	228.92
367.33	228.84
367.71	228.83
368.09	228.94
368.47	228.90
368.85	228.98
369.23	229.10
369.61	228.99
369.99	229.15
370.37	229.23
370.75	229.40
371.13	229.40
371.51	229.39
371.89	229.36
372.27	229.34
372.65	229.37
373.03	229.35
373.41	229.24
373.78	229.19
374.16	228.91
374.54	228.71
374.92	228.62
375.30	228.52
375.68	228.39
376.06	228.34
376.44	228.21
376.82	228.11
377.19	227.99
377.57	227.85
377.95	227.57
378.33	227.49
378.71	227.12
379.09	227.04
379.47	227.02
379.84	226.87
380.22	226.79
380.60	226.69
380.98	226.62
381.36	226.52
381.73	226.35
382.11	226.36
382.49	226.32
382.87	226.21
383.25	226.14
383.62	226.60
384.00	226.48
384.38	226.49
384.76	226.56
385.13	226.61
385.51	226.50
385.89	226.39
386.27	226.31
386.64	226.44
387.02	226.34
387.40	226.17
387.78	226.20
388.15	226.19
388.53	226.06
388.91	225.94
389.29	225.90
389.66	225.98
390.04	225.92
390.42	225.94
390.79	225.92
391.17	225.91
391.55	225.40
391.92	225.38
392.30	225.41
392.68	225.29
393.05	225.30
393.43	225.30
393.81	225.38
394.18	225.35
394.56	225.36
394.94	225.53
395.31	225.56
395.69	225.77
396.06	225.84
396.44	225.98
396.82	226.07
397.19	226.41
397.57	226.49
397.95	226.60
398.32	226.53
398.70	226.67
399.07	226.84
399.45	226.91
399.82	226.97
400.20	227.01
400.58	227.08
400.95	227.03
401.33	227.37
401.70	227.80
402.08	228.00
402.45	228.14
402.83	228.27
403.20	228.50
403.58	228.57
403.95	228.85
404.33	229.09
404.71	229.30
405.08	229.72
405.46	229.85
405.83	230.18
406.21	230.42
406.58	230.71
406.96	231.01
407.33	231.38
407.70	231.76
408.08	232.53
408.45	233.06
408.83	233.59
409.20	233.92
409.58	234.08
409.95	234.66
410.33	235.15
410.70	235.60
411.08	236.25
411.45	236.87
411.82	237.41
412.20	238.23
412.57	239.25
412.95	239.60
413.32	240.49
413.69	241.24
414.07	242.21
414.44	243.16
414.82	244.13
415.19	245.25
415.56	246.42
415.94	247.35
416.31	248.75
416.68	250.08
417.06	251.60
417.43	253.16
417.81	254.81
418.18	256.62
418.55	258.56
418.93	260.50
419.30	262.52
419.67	264.71
420.04	266.79
420.42	268.94
420.79	271.97
421.16	274.65
421.54	277.61
421.91	280.50
422.28	283.44
422.66	286.63
423.03	289.98
423.40	293.30
423.77	296.70
424.15	300.17
424.52	303.73
424.89	307.78
425.26	311.67
425.64	315.42
426.01	319.52
426.38	323.80
426.75	328.22
427.13	332.73
427.50	337.33
427.87	342.20
428.24	347.04
428.61	351.31
428.99	356.46
429.36	361.82
429.73	367.19
430.10	372.70
430.47	378.24
430.85	383.88
431.22	390.03
431.59	396.80
431.96	402.88
432.33	409.79
432.70	416.36
433.08	424.09
433.45	431.27
433.82	438.49
434.19	446.50
434.56	454.46
434.93	462.02
435.30	469.67
435.68	478.10
436.05	486.47
436.42	494.63
436.79	502.23
437.16	510.34
437.53	519.09
437.90	527.57
438.27	535.97
438.64	544.68
439.01	552.71
439.38	559.72
439.75	566.90
440.13	574.75
440.50	582.19
440.87	588.16
441.24	594.49
441.61	601.30
441.98	606.22
442.35	611.92
442.72	617.79
443.09	623.67
443.46	626.87
443.83	629.11
444.20	631.02
444.57	633.72
444.94	634.90
445.31	635.80
445.68	637.26
446.05	637.56
446.42	636.27
446.79	634.88
447.16	633.42
447.53	632.15
447.90	628.64
448.27	625.08
448.64	620.39
449.01	616.80
449.37	610.96
449.74	605.13
450.11	598.47
450.48	590.80
450.85	582.86
451.22	576.28
451.59	569.76
451.96	563.76
452.33	555.92
452.70	548.80
453.07	540.33
453.43	531.31
453.80	523.09
454.17	515.11
454.54	507.55
454.91	499.40
455.28	491.55
455.65	484.21
456.02	477.48
456.38	471.31
456.75	463.62
457.12	457.10
457.49	450.99
457.86	444.77
458.23	439.78
458.59	434.12
458.96	428.49
459.33	423.46
459.70	418.30
460.07	414.27
460.43	409.58
460.80	405.41
461.17	401.83
461.54	397.93
461.91	394.22
462.27	390.46
462.64	387.26
463.01	383.79
463.38	380.60
463.74	376.72
464.11	373.63
464.48	371.05
464.85	368.20
465.21	366.02
465.58	363.65
465.95	360.89
466.32	358.75
466.68	356.48
467.05	354.29
467.42	352.20
467.78	349.77
468.15	347.70
468.52	346.10
468.88	343.83
469.25	341.80
469.62	340.39
469.98	338.68
470.35	337.18
470.72	335.71
471.08	334.03
471.45	332.73
471.82	331.56
472.18	330.13
472.55	329.16
472.92	327.88
473.28	326.81
473.65	325.70
474.02	324.57
474.38	323.70
474.75	323.01
475.11	322.15
475.48	321.53
475.85	320.89
476.21	320.21
476.58	319.78
476.94	319.38
477.31	318.95
477.67	318.51
478.04	318.26
478.41	318.11
478.77	318.34
479.14	318.06
479.50	317.88
479.87	317.92
480.23	317.93
480.60	317.89
480.96	317.84
481.33	318.17
481.69	318.39
482.06	318.66
482.42	319.02
482.79	319.38
483.15	319.82
483.52	320.46
483.88	320.99
484.25	321.46
484.61	322.13
484.98	322.81
485.34	323.81
485.71	324.75
486.07	325.68
486.44	326.31
486.80	327.38
487.17	328.55
487.53	329.91
487.90	331.36
488.26	333.04
488.62	334.81
488.99	336.37
489.35	338.23
489.72	340.09
490.08	341.99
490.44	343.98
490.81	346.18
491.17	348.38
491.54	350.84
491.90	353.60
492.26	356.33
492.63	359.12
492.99	362.21
493.36	365.25
493.72	368.50
494.08	371.89
494.45	375.72
494.81	379.53
495.17	383.42
495.54	387.55
495.90	391.78
496.26	396.24
496.63	400.83
496.99	405.60
497.35	410.66
497.72	415.90
498.08	421.44
498.44	426.96
498.80	432.96
499.17	438.98
499.53	445.09
499.89	451.68
500.26	458.34
500.62	465.15
500.98	472.45
501.34	479.97
501.71	487.67
502.07	495.24
502.43	503.46
502.79	511.69
503.16	520.30
503.52	529.18
503.88	538.16
504.24	547.75
504.60	557.57
504.97	567.70
505.33	578.05
505.69	588.90
506.05	599.99
506.41	611.01
506.78	622.56
507.14	634.46
507.50	646.54
507.86	659.14
508.22	671.90
508.59	684.78
508.95	698.23
509.31	712.24
509.67	726.38
510.03	740.23
510.39	754.91
510.75	769.75
511.12	784.87
511.48	800.43
511.84	816.06
512.20	831.71
512.56	847.75
512.92	864.20
513.28	880.76
513.64	897.68
514.00	915.07
514.37	932.54
514.73	950.46
515.09	968.39
515.45	986.54
515.81	1004.88
516.17	1023.44
516.53	1041.60
516.89	1059.81
517.25	1079.17
517.61	1099.44
517.97	1119.54
518.33	1139.28
518.69	1159.16
519.05	1179.15
519.41	1199.50
519.77	1220.19
520.13	1240.72
520.49	1261.01
520.85	1283.03
521.21	1304.07
521.57	1324.77
521.93	1345.21
522.29	1365.80
522.65	1386.55
523.01	1406.79
523.37	1426.92
523.73	1447.58
524.09	1467.72
524.45	1488.20
524.81	1508.44
525.17	1528.63
525.53	1548.55
525.89	1568.75
526.25	1588.99
526.61	1608.93
526.97	1629.58
527.33	1650.46
527.68	1671.82
528.04	1692.62
528.40	1711.91
528.76	1732.33
529.12	1752.48
529.48	1772.78
529.84	1792.40
530.20	1812.64
530.56	1833.04
530.91	1853.47
531.27	1873.37
531.63	1893.70
531.99	1913.62
532.35	1933.15
532.71	1952.85
533.07	1972.74
533.42	1992.16
533.78	2011.90
534.14	2031.31
534.50	2049.46
534.86	2068.28
535.21	2085.35
535.57	2103.62
535.93	2120.72
536.29	2137.84
536.65	2155.39
537.00	2172.60
537.36	2189.92
537.72	2206.05
538.08	2222.59
538.44	2239.12
538.79	2255.09
539.15	2270.89
539.51	2286.50
539.87	2301.20
540.22	2314.85
540.58	2328.74
540.94	2341.73
541.29	2353.66
541.65	2365.85
542.01	2378.28
542.37	2388.17
542.72	2398.79
543.08	2408.65
543.44	2419.90
543.79	2429.68
544.15	2439.34
544.51	2449.07
544.87	2458.25
545.22	2466.52
545.58	2474.09
545.94	2480.53
546.29	2486.59
546.65	2492.81
547.01	2498.22
547.36	2503.52
547.72	2508.09
548.07	2511.70
548.43	2516.55
548.79	2520.80
549.14	2524.55
549.50	2527.80
549.86	2531.53
550.21	2534.75
550.57	2537.83
550.92	2538.80
551.28	2539.63
551.64	2541.48
551.99	2543.03
552.35	2543.80
552.70	2545.56
553.06	2546.95
553.41	2547.93
553.77	2549.30
554.13	2550.37
554.48	2551.03
554.84	2551.94
555.19	2553.33
555.55	2554.80
555.90	2553.75
556.26	2552.47
556.61	2550.68
556.97	2548.49
557.32	2547.54
557.68	2545.92
558.03	2544.28
558.39	2542.71
558.74	2541.42
559.10	2537.88
559.45	2533.69
559.81	2529.44
560.16	2524.09
560.52	2518.60
560.87	2513.91
561.23	2508.24
561.58	2502.33
561.94	2495.43
562.29	2488.16
562.64	2480.85
563.00	2472.49
563.35	2466.04
563.71	2459.76
564.06	2453.45
564.42	2446.93
564.77	2439.76
565.12	2432.34
565.48	2424.49
565.83	2416.31
566.19	2408.44
566.54	2400.56
566.89	2392.62
567.25	2384.79
567.60	2377.39
567.96	2370.38
568.31	2362.10
568.66	2353.63
569.02	2344.33
569.37	2336.53
569.72	2328.75
570.08	2319.46
570.43	2309.97
570.78	2300.57
571.14	2290.81
571.49	2280.87
571.84	2271.14
572.20	2260.47
572.55	2250.50
572.90	2239.43
573.26	2229.53
573.61	2218.81
573.96	2207.57
574.31	2195.91
574.67	2184.41
575.02	2172.04
575.37	2159.15
575.72	2146.65
576.08	2134.71
576.43	2122.54
576.78	2109.41
577.13	2095.91
577.49	2083.31
577.84	2072.20
578.19	2060.78
578.54	2048.76
578.90	2036.72
579.25	2024.71
579.60	2012.69
579.95	1999.87
580.30	1987.59
580.66	1974.56
581.01	1961.25
581.36	1948.09
581.71	1935.87
582.06	1923.03
582.42	1910.75
582.77	1898.51
583.12	1886.82
583.47	1874.80
583.82	1863.28
584.17	1851.78
584.53	1840.57
584.88	1828.15
585.23	1814.93
585.58	1800.85
585.93	1787.66
586.28	1774.85
586.63	1761.15
586.98	1747.22
587.34	1734.46
587.69	1721.61
588.04	1709.34
588.39	1697.65
588.74	1685.75
589.09	1674.07
589.44	1661.67
589.79	1650.00
590.14	1638.36
590.49	1626.37
590.84	1614.65
591.19	1602.81
591.54	1590.86
591.89	1578.93
592.25	1569.09
592.60	1557.95
592.95	1547.14
593.30	1535.83
593.65	1524.29
594.00	1512.67
594.35	1503.29
594.70	1491.68
595.05	1480.56
595.40	1468.65
595.75	1456.81
596.10	1445.95
596.45	1434.75
596.80	1424.44
597.15	1413.45
597.50	1402.13
597.85	1391.20
598.19	1379.76
598.54	1368.43
598.89	1357.35
599.24	1347.08
599.59	1335.66
599.94	1325.16
600.29	1314.97
600.64	1304.95
600.99	1294.40
601.34	1285.23
601.69	1274.09
602.04	1264.65
602.39	1255.28
602.74	1246.56
603.08	1237.63
603.43	1228.38
603.78	1218.79
604.13	1209.23
604.48	1199.82
604.83	1190.53
605.18	1180.94
605.53	1171.90
605.87	1163.12
606.22	1155.06
606.57	1145.77
606.92	1136.58
607.27	1127.92
607.62	1119.21
607.96	1110.90
608.31	1103.34
608.66	1095.19
609.01	1087.18
609.36	1078.89
609.70	1070.61
610.05	1062.22
610.40	1053.90
610.75	1045.69
611.10	1037.62
611.44	1029.36
611.79	1021.33
612.14	1013.83
612.49	1006.25
612.83	998.86
613.18	991.29
613.53	983.71
613.88	976.08
614.22	968.81
614.57	961.16
614.92	953.67
615.27	946.46
615.61	938.89
615.96	931.52
616.31	924.15
616.65	917.40
617.00	910.20
617.35	903.18
617.70	896.31
618.04	889.25
618.39	882.31
618.74	876.27
619.08	869.82
619.43	862.96
619.78	856.33
620.12	849.53
620.47	842.87
620.82	835.98
621.16	829.47
621.51	823.24
621.85	817.14
622.20	810.70
622.55	804.18
622.89	797.93
623.24	791.76
623.59	785.75
623.93	779.71
624.28	773.81
624.62	768.40
624.97	762.79
625.32	757.24
625.66	751.66
626.01	745.75
626.35	740.30
626.70	734.76
627.04	729.52
627.39	724.15
627.73	718.94
628.08	713.87
628.43	708.81
628.77	703.61
629.12	698.63
629.46	694.06
629.81	689.60
630.15	684.95
630.50	680.22
630.84	675.41
631.19	670.61
631.53	666.15
631.88	661.03
632.22	656.35
632.57	651.97
632.91	647.54
633.26	643.35
633.60	638.75
633.95	634.43
634.29	629.89
634.64	625.68
634.98	621.16
635.32	616.99
635.67	612.93
636.01	608.89
636.36	604.67
636.70	600.83
637.05	596.64
637.39	592.62
637.73	588.53
638.08	584.69
638.42	580.66
638.77	576.39
639.11	572.10
639.45	567.90
639.80	563.63
640.14	559.76
640.49	555.77
640.83	552.16
641.17	548.60
641.52	545.06
641.86	541.66
642.20	538.56
642.55	535.03
642.89	531.60
643.23	528.10
643.58	524.95
643.92	521.35
644.26	518.12
644.61	515.13
644.95	511.90
645.29	508.51
645.64	505.63
645.98	502.67
646.32	499.86
646.66	496.88
647.01	494.05
647.35	491.36
647.69	488.58
648.04	485.85
648.38	483.09
648.72	480.25
649.06	477.34
649.41	474.34
649.75	471.38
650.09	468.56
650.43	465.84
650.78	463.00
651.12	460.18
651.46	457.43
651.80	454.67
652.14	452.10
652.49	449.70
652.83	446.98
653.17	444.50
653.51	441.89
653.85	439.58
654.20	437.28
654.54	434.64
654.88	432.10
655.22	429.85
655.56	427.41
655.90	425.14
656.25	422.82
656.59	420.75
656.93	418.72
657.27	416.70
657.61	414.35
657.95	412.26
658.29	410.21
658.64	408.13
658.98	405.93
659.32	403.85
659.66	401.70
660.00	399.70
660.34	397.76
660.68	395.85
661.02	393.86
661.36	392.02
661.70	390.03
662.05	388.17
662.39	386.22
662.73	384.49
663.07	382.94
663.41	381.19
663.75	379.37
664.09	377.51
664.43	375.58
664.77	374.05
665.11	372.30
665.45	370.63
665.79	369.02
666.13	367.45
666.47	365.86
666.81	364.30
667.15	362.64
667.49	361.16
667.83	359.98
668.17	358.45
668.51	356.96
668.85	355.84
669.19	354.87
669.53	353.42
669.87	351.92
670.21	350.45
670.55	349.18
670.89	348.05
671.23	346.84
671.57	345.52
671.91	344.10
672.25	342.83
672.58	341.78
672.92	340.31
673.26	339.03
673.60	337.85
673.94	336.75
674.28	335.70
674.62	334.55
674.96	333.16
675.30	332.17
675.64	331.00
675.97	329.70
676.31	328.23
676.65	327.12
676.99	326.21
677.33	324.95
677.67	323.81
678.01	322.44
678.34	321.41
678.68	320.59
679.02	319.68
679.36	318.64
679.70	317.61
680.04	316.89
680.37	316.05
680.71	315.15
681.05	314.31
681.39	313.44
681.73	312.43
682.06	311.59
682.40	310.67
682.74	309.85
683.08	309.15
683.42	308.24
683.75	307.38
684.09	306.41
684.43	305.62
684.77	304.81
685.10	304.08
685.44	303.27
685.78	302.46
686.12	301.61
686.45	300.92
686.79	300.06
687.13	299.37
687.46	298.56
687.80	297.93
688.14	297.06
688.48	296.30
688.81	295.61
689.15	294.94
689.49	294.23
689.82	293.50
690.16	292.55
690.50	291.94
690.83	291.29
691.17	290.61
691.51	289.97
691.84	289.41
692.18	288.76
692.52	288.10
692.85	287.42
693.19	287.01
693.52	286.33
693.86	285.69
694.20	284.99
694.53	284.42
694.87	283.69
695.21	283.02
695.54	282.40
695.88	281.78
696.21	281.18
696.55	280.51
696.88	279.85
697.22	279.32
697.56	278.84
697.89	278.16
698.23	277.62
698.56	277.05
698.90	276.55
699.23	276.00
699.57	275.50
699.90	274.80
700.24	274.13
700.58	273.65
700.91	273.24
701.25	273.15
701.58	273.03
701.92	272.73
702.25	272.40
702.59	271.92
702.92	271.54
703.26	271.11
703.59	270.71
703.93	270.80
704.26	270.50
704.60	270.01
704.93	269.60
705.26	269.19
705.60	268.86
705.93	268.34
706.27	268.09
706.60	267.83
706.94	267.78
707.27	267.40
707.61	267.14
707.94	266.71
708.27	265.90
708.61	265.15
708.94	264.66
709.28	264.27
709.61	263.93
709.94	263.52
710.28	263.17
710.61	262.86
710.95	262.04
711.28	261.94
711.61	261.62
711.95	261.44
712.28	260.99
712.61	260.64
712.95	260.62
713.28	260.45
713.61	260.01
713.95	259.55
714.28	259.26
714.61	258.82
714.95	258.50
715.28	258.19
715.61	257.90
715.95	257.61
716.28	257.31
716.61	257.12
716.95	256.79
717.28	256.40
717.61	256.09
717.94	255.83
718.28	255.24
718.61	254.92
718.94	254.63
719.27	254.50
719.61	254.28
719.94	253.86
720.27	253.40
720.60	253.10
720.94	252.91
721.27	252.62
721.60	252.52
721.93	252.29
722.27	252.29
722.60	252.11
722.93	251.89
723.26	251.71
723.59	251.36
723.93	251.24
724.26	251.13
724.59	250.94
724.92	250.75
725.25	250.68
725.59	250.49
725.92	250.34
726.25	250.10
726.58	249.95
726.91	249.72
727.24	249.59
727.57	249.40
727.91	249.06
728.24	248.91
728.57	248.55
728.90	248.39
729.23	248.01
729.56	248.07
729.89	247.87
730.22	247.58
730.55	247.45
730.89	247.26
731.22	247.04
731.55	246.83
731.88	246.69
732.21	246.40
732.54	246.08
732.87	245.86
733.20	245.64
733.53	245.36
733.86	245.15
734.19	244.83
734.52	244.76
734.85	244.95
735.18	244.78
735.51	244.84
735.84	244.74
736.17	244.68
736.50	244.26
736.83	244.59
737.16	244.50
737.49	244.45
737.82	244.30
738.15	244.14
738.48	243.98
738.81	243.78
739.14	243.56
739.47	243.40
739.80	243.22
740.13	243.27
740.46	243.16
740.79	242.98
741.12	242.95
741.45	242.69
741.78	242.36
742.11	242.34
742.44	242.02
742.77	241.95
743.10	241.71
743.43	241.57
743.75	240.97
744.08	241.39
744.41	241.14
744.74	240.91
745.07	240.70
745.40	240.64
745.73	240.67
746.06	240.57
746.39	240.62
746.71	240.48
747.04	240.23
747.37	240.02
747.70	240.02
748.03	239.87
748.36	239.82
748.68	239.58
749.01	239.37
749.34	239.30
749.67	239.16
750.00	239.13
750.33	239.38
750.65	239.35
750.98	238.67
751.31	238.55
751.64	238.52
751.97	238.62
752.29	238.48
752.62	238.23
752.95	238.14
753.28	237.94
753.60	237.83
753.93	237.83
754.26	237.86
754.59	237.70
754.91	237.59
755.24	237.50
755.57	237.52
755.90	237.40
756.22	237.26
756.55	237.06
756.88	236.93
757.20	236.48
757.53	236.21
757.86	236.15
758.19	236.07
758.51	235.99
758.84	235.81
759.17	235.74
759.49	235.61
759.82	235.75
760.15	235.73
760.47	235.65
760.80	235.37
761.13	235.26
761.45	235.05
761.78	234.97
762.11	234.82
762.43	234.58
762.76	234.50
763.08	234.57
763.41	234.59
763.74	234.54
764.06	234.41
764.39	234.38
764.71	234.38
765.04	234.30
765.37	234.19
765.69	234.06
766.02	234.01
766.34	233.97
766.67	233.75
767.00	233.74
767.32	233.98
767.65	234.32
767.97	234.27
768.30	234.28
768.62	234.18
768.95	234.16
769.27	234.15
769.60	234.22
769.92	234.00
770.25	233.81
770.57	233.62
770.90	233.55
771.22	233.46
771.55	233.32
771.87	233.32
772.20	233.20
772.52	233.54
772.85	234.03
773.17	233.97
773.50	233.88
773.82	233.76
774.15	233.40
774.47	232.97
774.80	232.78
775.12	232.73
775.45	232.73
775.77	232.68
776.09	232.67
776.42	232.54
776.74	232.68
777.07	232.65
777.39	232.61
777.72	232.58
778.04	232.51
778.36	232.47
778.69	232.44
779.01	232.48
779.33	232.00
779.66	231.37
779.98	231.30
780.31	231.17
780.63	231.38
780.95	231.42
781.28	231.44
781.60	231.39
781.92	231.34
782.25	231.24
782.57	231.16
782.89	231.03
783.22	231.02
783.54	230.76
783.86	230.76
784.19	230.75
784.51	230.85
784.83	230.76
785.16	230.61
785.48	230.51
785.80	230.43
786.12	230.37
786.45	230.38
786.77	230.32
787.09	230.29
787.42	230.00
787.74	229.95
788.06	229.88
788.38	229.85
788.71	229.71
789.03	229.72
789.35	229.74
789.67	229.64
789.99	229.56
790.32	229.50
790.64	229.46
790.96	229.80
791.28	229.50
791.61	229.50
791.93	229.46
792.25	229.44
792.57	229.70
792.89	229.74
793.21	229.68
793.54	229.64
793.86	229.54
794.18	229.48
794.50	229.40
794.82	229.37
795.14	229.41
795.47	229.51
795.79	229.40
796.11	229.21
796.43	229.18
796.75	229.15
797.07	229.18
797.39	229.09
797.71	228.70
798.04	228.83
798.36	228.80
798.68	228.82
799.00	228.84
799.32	228.51
799.64	228.42
799.96	228.38
800.28	228.47
800.60	228.47
800.92	228.52
801.24	228.49
801.56	228.52
801.89	228.44
802.21	228.47
802.53	228.43
802.85	228.54
803.17	228.84
803.49	228.71
803.81	228.69
804.13	228.63
804.45	228.58
804.77	228.47
805.09	228.50
805.41	228.48
805.73	228.39
806.05	228.39
806.37	228.46
806.69	228.36
807.01	228.28
807.33	228.34
807.65	228.13
807.97	228.28
808.28	228.25
808.60	228.32
808.92	228.28
809.24	228.62
809.56	228.62
809.88	228.40
810.20	228.45
810.52	228.60
810.84	228.60
811.16	228.54
811.48	228.61
811.80	228.79
812.12	228.71
812.43	228.81
812.75	228.79
813.07	228.71
813.39	228.87
813.71	228.80
814.03	228.79
814.35	228.85
814.67	228.73
814.98	228.62
815.30	228.58
815.62	228.44
815.94	228.07
816.26	228.22
816.58	228.14
816.89	228.16
817.21	227.93
817.53	227.93
817.85	227.92
818.17	227.90
818.48	227.69
818.80	227.85
819.12	227.73
819.44	227.70
819.76	227.62
820.07	227.54
820.39	227.55
820.71	227.60
821.03	227.64
821.34	227.63
821.66	227.75
821.98	227.71
822.30	227.63
822.61	227.87
822.93	227.61
823.25	227.55
823.57	227.51
823.88	227.61
824.20	227.62
824.52	227.70
824.83	227.65
825.15	227.61
825.47	227.57
825.79	227.58
826.10	227.54
826.42	227.50
826.74	227.60
827.05	227.59
827.37	227.51
827.69	227.45
828.00	227.41
828.32	227.34
828.64	227.34
828.95	227.69
829.27	227.55
829.58	227.58
829.90	227.69
830.22	227.71
830.53	227.61
830.85	227.58
831.17	227.49
831.48	227.50
831.80	227.46
832.11	227.45
832.43	227.35
832.75	227.35
833.06	227.61
833.38	227.40
833.69	227.33
834.01	227.33
834.32	227.33
834.64	227.33
834.96	227.37
835.27	227.33
835.59	227.16
835.90	227.14
836.22	227.08
836.53	226.98
836.85	226.90
837.16	227.34
837.48	227.35
837.79	227.46
838.11	227.45
838.42	227.46
838.74	227.46
839.05	227.50
839.37	227.53
839.68	227.29
840.00	227.27
840.31	227.39
840.63	227.35
840.94	227.32
841.26	227.20
841.57	227.11
841.88	227.20
842.20	227.11
842.51	227.07
842.83	227.12
843.14	227.51
843.46	227.51
843.77	227.24
844.08	227.22
844.40	227.07
844.71	226.98
845.03	226.95
845.34	226.84
845.65	226.78
845.97	226.72
846.28	226.73
846.60	226.70
846.91	226.62
847.22	226.60
847.54	226.66
847.85	226.75
848.16	226.75
848.48	226.62
848.79	226.85
849.10	226.89
849.42	226.86
849.73	226.36
850.04	226.35
850.36	226.26
850.67	226.35
850.98	226.41
851.30	226.54
851.61	226.54
851.92	226.54
852.23	226.80
852.55	226.85
852.86	226.87
853.17	227.03
853.49	227.05
853.80	227.23
854.11	227.25
854.42	227.31
854.74	227.26
855.05	227.33
855.36	227.06
855.67	227.05
855.99	227.10
856.30	227.82
856.61	227.83
856.92	227.84
857.23	227.74
857.55	227.70
857.86	227.61
858.17	227.68
858.48	227.68
858.79	227.51
859.11	227.55
859.42	227.55
859.73	227.43
860.04	227.43
860.35	227.23
860.66	227.13
860.98	227.12
861.29	227.21
861.60	227.15
861.91	227.27
862.22	227.26
862.53	227.17
862.84	226.54
863.16	226.65
863.47	226.55
863.78	226.52
864.09	226.59
864.40	226.63
864.71	226.70
865.02	226.75
865.33	226.71
865.64	226.62
865.95	226.61
866.27	226.88
866.58	226.85
866.89	226.94
867.20	226.86
867.51	226.74
867.82	226.65
868.13	226.79
868.44	226.71
868.75	226.74
869.06	226.77
869.37	226.85
869.68	226.71
869.99	226.78
870.30	226.78
870.61	226.75
870.92	226.74
871.23	226.59
871.54	226.60
871.85	226.71
872.16	226.75
872.47	226.72
872.78	226.43
873.09	226.45
873.40	226.39
873.71	226.52
874.02	226.59
874.33	226.57
874.64	226.46
874.95	226.45
875.26	226.38
875.56	226.37
875.87	226.35
876.18	226.35
876.49	226.77
876.80	226.78
877.11	226.74
877.42	226.76
877.73	226.85
878.04	226.82
878.35	226.78
878.66	226.78
878.96	226.70
879.27	226.69
879.58	226.67
879.89	226.68
880.20	226.74
880.51	226.74
880.82	226.72
881.12	226.75
881.43	226.66
881.74	226.59
882.05	226.57
882.36	226.55
882.67	226.59
882.97	226.08
883.28	226.06
883.59	226.05
883.90	226.03
884.21	226.11
884.51	226.06
884.82	226.03
885.13	226.05
885.44	226.10
885.74	226.20
886.05	226.22
886.36	226.20
886.67	226.07
886.98	226.28
887.28	226.35
887.59	226.38
887.90	226.42
888.20	226.44
888.51	226.56
888.82	226.49
889.13	226.49
889.43	226.87
889.74	226.85
890.05	226.80
890.35	226.75
890.66	226.65
890.97	226.56
891.28	226.45
891.58	226.47
891.89	226.48
892.20	226.41
892.50	226.35
892.81	226.31
893.12	226.25
893.42	226.02
893.73	226.07
894.04	225.98
894.34	226.03
894.65	225.98
894.95	225.87
895.26	225.91
895.57	226.12
895.87	225.72
896.18	225.81
896.48	225.87
896.79	225.89
897.10	225.93
897.40	226.07
897.71	226.19
898.01	226.11
898.32	226.15
898.63	226.10
898.93	226.15
899.24	226.24
899.54	226.23
899.85	226.24
900.15	226.20
900.46	226.27
900.76	226.31
901.07	226.30
901.38	226.26
901.68	226.37
901.99	226.16
902.29	226.10
902.60	226.10
902.90	226.05
903.21	226.06
903.51	226.04
903.82	226.09
904.12	226.10
904.43	226.15
904.73	226.16
905.03	226.22
905.34	226.62
905.64	226.54
905.95	226.59
906.25	226.50
906.56	226.49
906.86	226.42
907.17	226.36
907.47	226.45
907.77	226.45
908.08	226.33
908.38	226.36
908.69	226.53
908.99	226.58
909.30	226.62
909.60	226.59
909.90	226.61
910.21	226.47
910.51	226.40
910.81	226.37
911.12	226.33
911.42	226.31
911.73	225.82
912.03	225.90
912.33	225.96
912.64	226.02
912.94	225.95
913.24	225.92
913.55	225.89
913.85	225.80
914.15	225.87
914.46	225.93
914.76	225.91
915.06	225.81
915.37	225.72
915.67	225.67
915.97	225.70
916.27	225.60
916.58	225.68
916.88	225.68
917.18	225.68
917.49	225.95
917.79	225.91
918.09	226.05
918.39	226.12
918.70	226.12
919.00	226.11
919.30	226.36
919.60	226.35
919.91	226.32
920.21	226.40
920.51	226.31
920.81	226.26
921.12	226.35
921.42	226.30
921.72	226.36
922.02	226.41
922.32	226.44
922.63	226.52
922.93	226.61
923.23	226.62
923.53	226.57
923.83	226.36
924.13	226.41
924.44	226.38
924.74	226.41
925.04	226.51
925.34	226.46
925.64	226.29
925.94	226.32
926.24	226.53
926.55	226.53
926.85	226.64
927.15	226.64
927.45	226.65
927.75	226.72
928.05	226.72
928.35	226.76
928.65	226.89
928.95	226.89
929.26	226.78
929.56	226.91
929.86	226.98
930.16	226.90
930.46	226.98
930.76	226.94
931.06	226.71
931.36	226.62
931.66	226.78
931.96	226.84
932.26	226.86
932.56	226.68
932.86	226.71
933.16	226.62
933.46	226.56
933.76	226.48
934.06	226.63
934.36	226.79
934.66	226.69
934.96	226.54
935.26	226.53
935.56	226.55
935.86	226.42
936.16	226.36
936.46	226.32
936.76	226.26
937.06	226.22
937.36	226.31
937.66	226.32
937.96	226.25
938.26	226.12
938.56	226.08
938.86	226.13
939.16	226.22
939.46	226.37
939.76	226.41
940.06	226.39
940.35	226.32
940.65	226.13
940.95	226.17
941.25	226.13
941.55	226.11
941.85	226.16
942.15	226.19
942.45	226.31
942.75	226.32
943.04	226.32
943.34	226.42
943.64	226.39
943.94	226.32
944.24	226.37
944.54	226.31
944.84	226.31
945.13	226.30
945.43	226.15
945.73	226.09
946.03	225.98
946.33	225.92
946.62	225.83
946.92	225.73
947.22	225.77
947.52	225.72
947.82	225.76
948.11	225.66
948.41	225.60
948.71	225.43
949.01	225.45
949.31	225.43
949.60	225.41
949.90	225.44
950.20	225.41
950.50	225.32
950.79	225.35
951.09	225.42
951.39	225.32
951.69	225.26
951.98	225.33
952.28	225.34
952.58	225.30
952.87	225.25
953.17	225.29
953.47	225.18
953.76	225.24
954.06	225.12
954.36	225.03
954.66	225.00
954.95	225.21
955.25	225.24
955.55	225.23
955.84	225.13
956.14	225.14
956.44	225.10
956.73	225.10
957.03	225.16
957.32	225.16
957.62	225.15
957.92	225.30
958.21	225.26
958.51	225.82
958.81	225.92
959.10	225.93
959.40	226.09
959.69	226.12
959.99	226.19
960.29	226.24
960.58	226.24
960.88	226.46
961.17	226.34
961.47	226.41
961.76	226.30
962.06	226.43
962.36	226.47
962.65	226.51
962.95	226.48
963.24	226.43
963.54	226.45
963.83	226.50
964.13	226.45
964.42	226.27
964.72	225.98
965.01	226.00
965.31	226.00
965.60	225.93
965.90	226.28
966.19	226.16
966.49	226.15
966.78	226.11
967.08	226.04
967.37	226.07
967.67	225.98
967.96	226.11
968.26	226.05
968.55	226.07
968.85	226.03
969.14	226.08
969.43	226.17
969.73	226.10
970.02	226.06
970.32	226.00
970.61	226.06
970.91	225.93
971.20	225.85
971.49	225.81
971.79	225.77
972.08	225.48
972.38	225.50
972.67	225.51
972.96	225.61
973.26	225.52
973.55	225.61
973.85	225.54
974.14	225.57
974.43	225.60
974.73	225.51
975.02	225.62
975.31	225.61
975.61	225.61
975.90	225.62
976.19	225.63
976.49	225.72
976.78	225.82
977.07	225.80
977.37	225.84
977.66	225.93
977.95	225.93
978.24	225.96
978.54	226.07
978.83	226.02
979.12	226.02
979.42	226.03
979.71	225.97
980.00	226.01
980.29	226.03
980.59	225.95
980.88	226.07
981.17	226.00
981.46	226.01
981.76	225.95
982.05	226.05
982.34	226.10
982.63	226.10
982.93	225.98
983.22	226.13
983.51	226.15
983.80	226.19
984.09	226.25
984.39	226.19
984.68	226.12
984.97	226.19
985.26	226.19
985.55	226.19
985.85	226.06
986.14	226.19
986.43	226.23
986.72	226.20
987.01	226.11
987.30	226.10
987.59	226.03
987.89	226.08
988.18	226.00
988.47	225.99
988.76	225.87
989.05	225.87
989.34	225.71
989.63	225.80
989.92	225.74
990.22	225.63
990.51	225.61
990.80	225.60
991.09	225.61
991.38	225.59
991.67	225.54
991.96	225.54
992.25	225.47
992.54	225.36
992.83	225.37
993.12	225.37
993.41	225.36
993.70	225.53
993.99	225.59
994.28	225.61
994.58	225.70
994.87	225.70
995.16	225.67
995.45	225.64
995.74	225.45
996.03	225.51
996.32	225.58
996.61	225.70
996.90	225.72
997.19	225.71
997.48	225.72
997.77	225.70
998.06	225.70
998.34	225.75
998.63	225.72
998.92	225.78
999.21	225.81
999.50	225.88
999.79	225.79
1000.08	225.69
1000.37	225.62
1000.66	225.48
1000.95	225.62
1001.24	225.63
1001.53	225.69
1001.82	225.68
1002.11	225.60
1002.40	225.68
1002.68	225.78
1002.97	226.14
1003.26	226.06
1003.55	225.97
1003.84	226.03
1004.13	226.19
1004.42	226.12
1004.71	226.14
1004.99	226.13
1005.28	226.23
1005.57	226.18
1005.86	226.07
1006.15	226.10
1006.44	226.07
1006.72	226.18
1007.01	226.06
1007.30	226.12
1007.59	226.10
1007.88	226.12
1008.17	226.15
1008.45	225.97
1008.74	225.74
1009.03	225.45
1009.32	225.46
1009.60	225.48
1009.89	225.50
1010.18	225.28
1010.47	225.27
1010.76	225.27
1011.04	225.21
1011.33	225.18
1011.62	225.27
1011.91	225.32
1012.19	225.39
1012.48	225.38
1012.77	225.33
1013.05	225.59
1013.34	225.54
1013.63	225.58
1013.92	225.67
1014.20	225.61
1014.49	225.71
1014.78	225.78
1015.06	225.61
1015.35	225.58
1015.64	225.69
1015.92	225.74
1016.21	225.79
1016.50	225.76
1016.78	225.84
1017.07	225.94
1017.36	225.89
1017.64	225.80
1017.93	225.84
1018.22	225.76
1018.50	225.82
1018.79	225.80
1019.08	225.56
1019.36	225.58
1019.65	225.45
1019.93	225.59
1020.22	225.61
1020.51	225.87
1020.79	225.77
1021.08	225.30
1021.36	225.55
1021.65	225.10
1021.94	225.10
1022.22	225.30
1022.51	224.05
1022.79	228.65
1023.08	225.10
1023.36	232.00
1023.65	223.55
>>>>>End Processed Spectral Data<<<<<
