SpectraSuite Data File
++++++++++++++++++++++++++++++++++++
Date: Wed Sep 04 18:04:24 EDT 2013
User: lab3
Dark Spectrum Present: Yes
Reference Spectrum Present: No
Number of Sampled Component Spectra: 1
Spectrometers: USB2E7196
Integration Time (usec): 170000 (USB2E7196)
Spectra Averaged: 20 (USB2E7196)
Boxcar Smoothing: 10 (USB2E7196)
Correct for Electrical Dark: No (USB2E7196)
Strobe/Lamp Enabled: No (USB2E7196)
Correct for Detector Non-linearity: No (USB2E7196)
Correct for Stray Light: No (USB2E7196)
Number of Pixels in Processed Spectrum: 2048
>>>>>Begin Processed Spectral Data<<<<<
339.09	0.00
339.48	213.80
339.86	214.90
340.24	217.35
340.63	217.75
341.01	226.95
341.39	221.15
341.78	223.80
342.16	224.00
342.54	223.55
342.93	212.79
343.31	223.53
343.69	224.02
344.07	224.51
344.46	224.94
344.84	225.35
345.22	225.34
345.60	225.67
345.99	225.80
346.37	225.97
346.75	226.06
347.13	226.23
347.52	226.34
347.90	226.60
348.28	226.52
348.66	226.58
349.05	226.53
349.43	226.63
349.81	226.71
350.19	226.82
350.57	226.96
350.96	227.10
351.34	227.15
351.72	227.32
352.10	227.40
352.48	227.40
352.87	227.45
353.25	227.43
353.63	227.37
354.01	227.42
354.39	227.45
354.77	227.52
355.15	227.65
355.54	227.65
355.92	227.49
356.30	227.59
356.68	228.03
357.06	228.10
357.44	228.07
357.82	228.11
358.20	228.47
358.58	228.55
358.97	228.61
359.35	228.80
359.73	228.87
360.11	228.95
360.49	229.06
360.87	229.12
361.25	229.27
361.63	229.49
362.01	229.55
362.39	229.58
362.77	229.71
363.15	229.78
363.53	229.73
363.91	229.84
364.29	229.85
364.67	229.37
365.05	229.42
365.43	229.50
365.81	229.59
366.19	229.51
366.57	229.71
366.95	229.69
367.33	229.54
367.71	229.59
368.09	229.70
368.47	229.71
368.85	229.68
369.23	229.73
369.61	229.54
369.99	229.71
370.37	229.81
370.75	229.99
371.13	229.85
371.51	229.83
371.89	229.79
372.27	229.82
372.65	229.90
373.03	229.97
373.41	229.91
373.78	229.85
374.16	229.54
374.54	229.30
374.92	229.20
375.30	229.32
375.68	229.13
376.06	229.05
376.44	228.96
376.82	228.95
377.19	228.90
377.57	228.89
377.95	228.72
378.33	228.57
378.71	228.22
379.09	228.20
379.47	228.24
379.84	228.19
380.22	228.11
380.60	227.98
380.98	227.75
381.36	227.67
381.73	227.51
382.11	227.59
382.49	227.51
382.87	227.42
383.25	227.26
383.62	227.83
384.00	227.65
384.38	227.65
384.76	227.68
385.13	227.82
385.51	227.73
385.89	227.57
386.27	227.55
386.64	227.59
387.02	227.49
387.40	227.44
387.78	227.44
388.15	227.31
388.53	227.27
388.91	227.30
389.29	227.24
389.66	227.33
390.04	227.18
390.42	227.29
390.79	227.27
391.17	227.26
391.55	226.71
391.92	226.76
392.30	226.73
392.68	226.61
393.05	226.52
393.43	226.61
393.81	226.64
394.18	226.50
394.56	226.52
394.94	226.63
395.31	226.57
395.69	226.73
396.06	226.84
396.44	226.87
396.82	226.77
397.19	227.09
397.57	227.06
397.95	227.22
398.32	227.07
398.70	227.23
399.07	227.38
399.45	227.45
399.82	227.55
400.20	227.64
400.58	227.77
400.95	227.62
401.33	227.81
401.70	228.29
402.08	228.54
402.45	228.72
402.83	228.98
403.20	229.15
403.58	229.20
403.95	229.50
404.33	229.76
404.71	230.10
405.08	230.55
405.46	230.87
405.83	231.12
406.21	231.44
406.58	231.73
406.96	231.98
407.33	232.36
407.70	232.74
408.08	233.50
408.45	233.90
408.83	234.48
409.20	234.75
409.58	234.85
409.95	235.33
410.33	235.83
410.70	236.23
411.08	236.89
411.45	237.48
411.82	237.98
412.20	238.71
412.57	239.63
412.95	239.93
413.32	240.78
413.69	241.59
414.07	242.51
414.44	243.54
414.82	244.53
415.19	245.66
415.56	246.79
415.94	247.76
416.31	249.22
416.68	250.64
417.06	252.32
417.43	254.02
417.81	255.81
418.18	257.60
418.55	259.57
418.93	261.59
419.30	263.70
419.67	265.99
420.04	268.24
420.42	270.59
420.79	273.73
421.16	276.45
421.54	279.50
421.91	282.56
422.28	285.64
422.66	288.93
423.03	292.41
423.40	295.79
423.77	299.40
424.15	302.93
424.52	306.76
424.89	311.00
425.26	314.88
425.64	318.68
426.01	322.82
426.38	327.20
426.75	331.71
427.13	336.37
427.50	341.20
427.87	346.16
428.24	351.12
428.61	355.60
428.99	360.89
429.36	366.49
429.73	372.05
430.10	377.60
430.47	383.38
430.85	389.06
431.22	395.40
431.59	402.18
431.96	408.59
432.33	415.66
432.70	422.32
433.08	430.24
433.45	437.73
433.82	445.30
434.19	453.56
434.56	461.82
434.93	469.48
435.30	477.34
435.68	485.87
436.05	494.43
436.42	502.87
436.79	510.67
437.16	519.05
437.53	527.77
437.90	536.60
438.27	545.20
438.64	554.01
439.01	562.33
439.38	569.66
439.75	576.70
440.13	584.63
440.50	592.28
440.87	598.47
441.24	604.81
441.61	611.71
441.98	616.83
442.35	622.47
442.72	628.69
443.09	634.39
443.46	638.00
443.83	640.30
444.20	642.28
444.57	645.03
444.94	645.94
445.31	647.13
445.68	648.42
446.05	648.60
446.42	647.35
446.79	645.82
447.16	644.06
447.53	642.94
447.90	639.18
448.27	635.45
448.64	630.57
449.01	626.96
449.37	620.81
449.74	614.75
450.11	607.98
450.48	600.06
450.85	592.02
451.22	585.02
451.59	578.35
451.96	571.85
452.33	563.74
452.70	556.50
453.07	547.68
453.43	538.49
453.80	529.99
454.17	521.98
454.54	514.21
454.91	506.04
455.28	497.99
455.65	490.52
456.02	483.50
456.38	477.12
456.75	469.35
457.12	462.78
457.49	456.47
457.86	450.02
458.23	444.86
458.59	439.11
458.96	433.36
459.33	428.18
459.70	423.15
460.07	419.01
460.43	414.21
460.80	410.03
461.17	406.28
461.54	402.30
461.91	398.38
462.27	394.48
462.64	391.18
463.01	387.50
463.38	384.23
463.74	380.30
464.11	377.22
464.48	374.60
464.85	371.81
465.21	369.65
465.58	367.33
465.95	364.40
466.32	362.25
466.68	359.99
467.05	357.76
467.42	355.55
467.78	353.17
468.15	351.04
468.52	349.40
468.88	347.20
469.25	345.28
469.62	343.91
469.98	342.35
470.35	340.91
470.72	339.55
471.08	337.85
471.45	336.51
471.82	335.20
472.18	333.63
472.55	332.50
472.92	331.09
473.28	329.95
473.65	328.96
474.02	327.82
474.38	327.00
474.75	326.15
475.11	325.25
475.48	324.56
475.85	323.99
476.21	323.23
476.58	322.79
476.94	322.45
477.31	321.99
477.67	321.58
478.04	321.13
478.41	320.85
478.77	321.20
479.14	320.92
479.50	320.80
479.87	320.80
480.23	320.84
480.60	320.83
480.96	320.95
481.33	321.24
481.69	321.43
482.06	321.58
482.42	321.83
482.79	322.15
483.15	322.61
483.52	323.20
483.88	323.79
484.25	324.31
484.61	324.89
484.98	325.48
485.34	326.41
485.71	327.43
486.07	328.46
486.44	328.89
486.80	329.99
487.17	331.12
487.53	332.50
487.90	333.85
488.26	335.46
488.62	337.13
488.99	338.67
489.35	340.40
489.72	342.16
490.08	344.16
490.44	346.26
490.81	348.48
491.17	350.67
491.54	353.15
491.90	355.73
492.26	358.48
492.63	361.33
492.99	364.20
493.36	367.23
493.72	370.45
494.08	374.03
494.45	377.72
494.81	381.76
495.17	385.69
495.54	389.94
495.90	394.13
496.26	398.56
496.63	403.27
496.99	408.09
497.35	413.36
497.72	418.60
498.08	424.08
498.44	429.79
498.80	435.84
499.17	441.91
499.53	448.25
499.89	454.83
500.26	461.56
500.62	468.51
500.98	475.93
501.34	483.49
501.71	491.18
502.07	499.08
502.43	507.10
502.79	515.35
503.16	524.13
503.52	533.24
503.88	542.49
504.24	552.19
504.60	562.33
504.97	572.65
505.33	583.30
505.69	594.51
506.05	605.58
506.41	616.78
506.78	628.30
507.14	640.34
507.50	652.88
507.86	665.69
508.22	678.77
508.59	691.95
508.95	705.52
509.31	719.88
509.67	734.30
510.03	748.72
510.39	763.65
510.75	778.79
511.12	793.94
511.48	809.45
511.84	825.13
512.20	841.03
512.56	857.25
512.92	874.13
513.28	891.06
513.64	908.40
514.00	925.95
514.37	943.74
514.73	961.80
515.09	979.90
515.45	998.45
515.81	1017.01
516.17	1035.67
516.53	1054.36
516.89	1072.92
517.25	1092.42
517.61	1112.78
517.97	1132.99
518.33	1152.91
518.69	1173.51
519.05	1194.19
519.41	1215.04
519.77	1236.28
520.13	1256.96
520.49	1277.75
520.85	1299.92
521.21	1321.17
521.57	1342.57
521.93	1363.77
522.29	1385.34
522.65	1406.03
523.01	1427.00
523.37	1447.68
523.73	1468.89
524.09	1489.76
524.45	1510.62
524.81	1531.60
525.17	1551.94
525.53	1572.77
525.89	1593.86
526.25	1614.86
526.61	1635.32
526.97	1656.37
527.33	1677.58
527.68	1699.76
528.04	1721.07
528.40	1740.80
528.76	1762.01
529.12	1782.51
529.48	1803.32
529.84	1823.41
530.20	1844.82
530.56	1865.64
530.91	1886.80
531.27	1907.41
531.63	1928.30
531.99	1949.16
532.35	1969.28
532.71	1989.85
533.07	2010.69
533.42	2030.54
533.78	2050.61
534.14	2070.70
534.50	2090.00
534.86	2109.07
535.21	2126.86
535.57	2145.51
535.93	2163.57
536.29	2181.43
536.65	2199.71
537.00	2217.27
537.36	2235.04
537.72	2251.78
538.08	2268.97
538.44	2285.82
538.79	2302.47
539.15	2319.02
539.51	2334.70
539.87	2350.10
540.22	2364.76
540.58	2378.92
540.94	2392.65
541.29	2405.53
541.65	2418.16
542.01	2430.81
542.37	2441.71
542.72	2452.89
543.08	2463.72
543.44	2475.46
543.79	2485.67
544.15	2495.67
544.51	2506.03
544.87	2515.72
545.22	2524.57
545.58	2532.42
545.94	2540.00
546.29	2546.75
546.65	2553.19
547.01	2559.14
547.36	2564.72
547.72	2569.98
548.07	2574.49
548.43	2580.16
548.79	2584.65
549.14	2589.00
549.50	2592.86
549.86	2597.27
550.21	2601.00
550.57	2604.23
550.92	2605.60
551.28	2607.04
551.64	2609.51
551.99	2611.45
552.35	2613.03
552.70	2614.89
553.06	2616.78
553.41	2617.86
553.77	2619.85
554.13	2621.55
554.48	2623.14
554.84	2624.63
555.19	2625.87
555.55	2627.12
555.90	2626.01
556.26	2625.49
556.61	2623.96
556.97	2622.15
557.32	2621.36
557.68	2620.46
558.03	2619.01
558.39	2617.82
558.74	2617.27
559.10	2614.15
559.45	2610.95
559.81	2606.84
560.16	2602.19
560.52	2597.74
560.87	2593.54
561.23	2587.72
561.58	2581.45
561.94	2574.92
562.29	2567.19
562.64	2560.32
563.00	2552.16
563.35	2545.91
563.71	2539.13
564.06	2533.12
564.42	2526.45
564.77	2519.29
565.12	2511.55
565.48	2504.07
565.83	2496.35
566.19	2487.91
566.54	2480.58
566.89	2472.18
567.25	2464.58
567.60	2457.23
567.96	2449.40
568.31	2441.22
568.66	2432.66
569.02	2424.00
569.37	2415.65
569.72	2408.37
570.08	2399.09
570.43	2389.85
570.78	2380.56
571.14	2371.32
571.49	2361.00
571.84	2351.44
572.20	2340.73
572.55	2330.67
572.90	2319.60
573.26	2309.13
573.61	2297.93
573.96	2286.22
574.31	2274.44
574.67	2262.32
575.02	2249.20
575.37	2236.09
575.72	2222.65
576.08	2210.45
576.43	2198.07
576.78	2184.86
577.13	2170.86
577.49	2157.82
577.84	2145.60
578.19	2133.55
578.54	2120.80
578.90	2108.59
579.25	2096.11
579.60	2083.64
579.95	2070.44
580.30	2057.54
580.66	2043.87
581.01	2030.30
581.36	2016.20
581.71	2003.64
582.06	1990.61
582.42	1978.24
582.77	1965.56
583.12	1953.65
583.47	1941.16
583.82	1928.83
584.17	1916.75
584.53	1905.23
584.88	1892.48
585.23	1879.43
585.58	1864.99
585.93	1851.62
586.28	1838.26
586.63	1824.21
586.98	1810.20
587.34	1797.05
587.69	1783.68
588.04	1771.22
588.39	1759.15
588.74	1747.00
589.09	1734.23
589.44	1721.38
589.79	1709.19
590.14	1697.40
590.49	1685.12
590.84	1672.82
591.19	1660.59
591.54	1648.30
591.89	1636.00
592.25	1625.52
592.60	1614.26
592.95	1602.91
593.30	1590.91
593.65	1578.99
594.00	1566.85
594.35	1556.70
594.70	1544.69
595.05	1533.19
595.40	1520.99
595.75	1508.98
596.10	1497.75
596.45	1486.31
596.80	1475.57
597.15	1464.09
597.50	1452.11
597.85	1440.73
598.19	1429.31
598.54	1417.63
598.89	1406.33
599.24	1395.78
599.59	1384.10
599.94	1372.96
600.29	1362.15
600.64	1351.67
600.99	1340.66
601.34	1331.23
601.69	1319.80
602.04	1309.94
602.39	1300.05
602.74	1290.63
603.08	1281.31
603.43	1271.90
603.78	1262.34
604.13	1252.36
604.48	1242.40
604.83	1232.61
605.18	1222.69
605.53	1212.85
605.87	1203.48
606.22	1194.75
606.57	1185.28
606.92	1175.73
607.27	1166.69
607.62	1157.94
607.96	1149.43
608.31	1141.50
608.66	1133.02
609.01	1124.45
609.36	1115.77
609.70	1107.13
610.05	1098.29
610.40	1089.38
610.75	1080.39
611.10	1071.76
611.44	1063.02
611.79	1054.89
612.14	1047.17
612.49	1039.34
612.83	1032.08
613.18	1024.45
613.53	1016.47
613.88	1008.30
614.22	1000.63
614.57	992.71
614.92	984.82
615.27	976.94
615.61	969.23
615.96	961.47
616.31	953.88
616.65	946.95
617.00	939.53
617.35	932.41
617.70	925.48
618.04	918.46
618.39	911.49
618.74	905.18
619.08	898.19
619.43	890.92
619.78	883.63
620.12	876.30
620.47	869.27
620.82	862.17
621.16	855.30
621.51	848.96
621.85	842.52
622.20	835.81
622.55	829.25
622.89	822.67
623.24	816.16
623.59	809.69
623.93	803.12
624.28	796.73
624.62	791.01
624.97	785.03
625.32	779.24
625.66	773.15
626.01	766.85
626.35	761.25
626.70	755.61
627.04	750.39
627.39	744.75
627.73	739.34
628.08	734.21
628.43	728.66
628.77	722.90
629.12	717.58
629.46	712.73
629.81	707.81
630.15	703.05
630.50	698.03
630.84	693.30
631.19	688.57
631.53	684.10
631.88	678.87
632.22	673.82
632.57	669.24
632.91	664.63
633.26	660.05
633.60	655.39
633.95	650.75
634.29	645.87
634.64	641.41
634.98	636.55
635.32	632.08
635.67	628.14
636.01	624.04
636.36	619.64
636.70	615.58
637.05	611.38
637.39	607.11
637.73	603.02
638.08	598.92
638.42	594.57
638.77	590.13
639.11	585.53
639.45	581.37
639.80	576.95
640.14	572.85
640.49	569.09
640.83	565.36
641.17	561.69
641.52	558.06
641.86	554.45
642.20	551.29
642.55	547.54
642.89	543.87
643.23	540.37
643.58	537.25
643.92	533.55
644.26	530.22
644.61	526.95
644.95	523.53
645.29	519.96
645.64	516.74
645.98	513.71
646.32	510.90
646.66	507.79
647.01	504.85
647.35	502.01
647.69	498.82
648.04	495.90
648.38	492.96
648.72	490.02
649.06	486.90
649.41	483.79
649.75	480.87
650.09	477.99
650.43	475.08
650.78	471.89
651.12	469.10
651.46	466.20
651.80	463.49
652.14	460.87
652.49	458.46
652.83	455.73
653.17	453.00
653.51	450.32
653.85	447.77
654.20	445.22
654.54	442.60
654.88	440.11
655.22	437.66
655.56	435.25
655.90	432.80
656.25	430.50
656.59	428.20
656.93	425.88
657.27	423.83
657.61	421.29
657.95	419.16
658.29	416.92
658.64	414.78
658.98	412.48
659.32	410.21
659.66	407.98
660.00	406.01
660.34	404.02
660.68	401.98
661.02	399.99
661.36	397.95
661.70	396.00
662.05	394.17
662.39	392.26
662.73	390.35
663.07	388.76
663.41	386.91
663.75	385.10
664.09	383.37
664.43	381.25
664.77	379.70
665.11	377.93
665.45	376.25
665.79	374.65
666.13	372.93
666.47	371.22
666.81	369.52
667.15	367.69
667.49	366.14
667.83	364.77
668.17	363.25
668.51	361.73
668.85	360.32
669.19	359.10
669.53	357.54
669.87	356.01
670.21	354.37
670.55	352.96
670.89	351.74
671.23	350.30
671.57	348.96
671.91	347.57
672.25	346.28
672.58	345.05
672.92	343.53
673.26	342.23
673.60	341.07
673.94	339.95
674.28	338.92
674.62	337.75
674.96	336.47
675.30	335.27
675.64	334.03
675.97	332.78
676.31	331.40
676.65	330.22
676.99	329.33
677.33	328.16
677.67	327.17
678.01	325.89
678.34	324.76
678.68	323.79
679.02	322.69
679.36	321.68
679.70	320.61
680.04	319.70
680.37	318.83
680.71	317.78
681.05	316.82
681.39	315.92
681.73	314.90
682.06	313.88
682.40	313.00
682.74	312.20
683.08	311.36
683.42	310.46
683.75	309.68
684.09	308.71
684.43	307.91
684.77	306.89
685.10	306.14
685.44	305.41
685.78	304.56
686.12	303.85
686.45	302.98
686.79	302.24
687.13	301.64
687.46	300.82
687.80	300.24
688.14	299.47
688.48	298.68
688.81	297.95
689.15	297.43
689.49	296.62
689.82	295.89
690.16	295.09
690.50	294.45
690.83	293.69
691.17	292.96
691.51	292.27
691.84	291.82
692.18	291.10
692.52	290.28
692.85	289.65
693.19	289.18
693.52	288.56
693.86	287.81
694.20	287.05
694.53	286.41
694.87	285.76
695.21	285.10
695.54	284.52
695.88	283.87
696.21	283.06
696.55	282.56
696.88	281.98
697.22	281.45
697.56	280.82
697.89	280.18
698.23	279.64
698.56	279.10
698.90	278.57
699.23	277.98
699.57	277.51
699.90	276.96
700.24	276.25
700.58	275.78
700.91	275.34
701.25	275.20
701.58	275.08
701.92	274.66
702.25	274.19
702.59	273.62
702.92	273.17
703.26	272.86
703.59	272.38
703.93	272.43
704.26	272.05
704.60	271.63
704.93	271.21
705.26	270.71
705.60	270.36
705.93	269.70
706.27	269.45
706.60	269.23
706.94	268.99
707.27	268.60
707.61	268.26
707.94	267.94
708.27	267.18
708.61	266.41
708.94	265.96
709.28	265.62
709.61	265.23
709.94	264.83
710.28	264.41
710.61	264.08
710.95	263.22
711.28	263.18
711.61	262.88
711.95	262.69
712.28	262.39
712.61	262.01
712.95	262.06
713.28	261.89
713.61	261.41
713.95	260.95
714.28	260.66
714.61	260.24
714.95	259.82
715.28	259.46
715.61	259.05
715.95	258.70
716.28	258.40
716.61	258.19
716.95	257.90
717.28	257.62
717.61	257.28
717.94	257.06
718.28	256.35
718.61	256.00
718.94	255.62
719.27	255.37
719.61	255.13
719.94	254.62
720.27	254.09
720.60	253.92
720.94	253.72
721.27	253.50
721.60	253.37
721.93	253.20
722.27	253.10
722.60	253.00
722.93	252.70
723.26	252.46
723.59	252.16
723.93	252.08
724.26	251.85
724.59	251.65
724.92	251.37
725.25	251.32
725.59	251.10
725.92	251.04
726.25	250.74
726.58	250.56
726.91	250.34
727.24	250.25
727.57	249.96
727.91	249.62
728.24	249.47
728.57	249.20
728.90	249.03
729.23	248.78
729.56	248.82
729.89	248.72
730.22	248.49
730.55	248.30
730.89	248.06
731.22	247.85
731.55	247.68
731.88	247.55
732.21	247.25
732.54	247.08
732.87	246.77
733.20	246.67
733.53	246.51
733.86	246.46
734.19	246.19
734.52	246.12
734.85	246.32
735.18	246.09
735.51	246.09
735.84	245.93
736.17	245.77
736.50	245.39
736.83	245.78
737.16	245.64
737.49	245.49
737.82	245.30
738.15	245.31
738.48	245.15
738.81	244.96
739.14	244.75
739.47	244.55
739.80	244.45
740.13	244.31
740.46	244.14
740.79	243.84
741.12	243.70
741.45	243.49
741.78	243.09
742.11	243.09
742.44	242.83
742.77	242.74
743.10	242.60
743.43	242.44
743.75	241.74
744.08	242.27
744.41	242.14
744.74	242.00
745.07	241.76
745.40	241.66
745.73	241.74
746.06	241.62
746.39	241.52
746.71	241.42
747.04	241.23
747.37	241.09
747.70	241.08
748.03	240.98
748.36	240.87
748.68	240.81
749.01	240.53
749.34	240.39
749.67	240.29
750.00	240.37
750.33	240.65
750.65	240.62
750.98	239.86
751.31	239.71
751.64	239.65
751.97	239.80
752.29	239.69
752.62	239.40
752.95	239.34
753.28	239.17
753.60	238.93
753.93	239.04
754.26	238.92
754.59	238.75
754.91	238.60
755.24	238.47
755.57	238.35
755.90	238.23
756.22	238.15
756.55	237.96
756.88	237.58
757.20	237.13
757.53	236.93
757.86	236.89
758.19	236.80
758.51	236.73
758.84	236.39
759.17	236.25
759.49	236.21
759.82	236.32
760.15	236.32
760.47	236.32
760.80	236.08
761.13	236.07
761.45	235.90
761.78	235.90
762.11	235.87
762.43	235.66
762.76	235.54
763.08	235.39
763.41	235.36
763.74	235.40
764.06	235.35
764.39	235.23
764.71	235.17
765.04	235.11
765.37	235.05
765.69	234.93
766.02	234.84
766.34	234.68
766.67	234.40
767.00	234.43
767.32	234.68
767.65	234.91
767.97	234.84
768.30	234.83
768.62	234.74
768.95	234.57
769.27	234.59
769.60	234.59
769.92	234.50
770.25	234.39
770.57	234.14
770.90	234.08
771.22	234.00
771.55	233.93
771.87	233.80
772.20	233.75
772.52	234.08
772.85	234.65
773.17	234.55
773.50	234.52
773.82	234.38
774.15	234.01
774.47	233.65
774.80	233.52
775.12	233.55
775.45	233.45
775.77	233.46
776.09	233.44
776.42	233.41
776.74	233.56
777.07	233.52
777.39	233.57
777.72	233.43
778.04	233.52
778.36	233.30
778.69	233.34
779.01	233.28
779.33	232.86
779.66	232.19
779.98	232.13
780.31	232.05
780.63	232.17
780.95	232.21
781.28	232.14
781.60	232.04
781.92	231.88
782.25	231.85
782.57	231.78
782.89	231.67
783.22	231.59
783.54	231.39
783.86	231.27
784.19	231.20
784.51	231.25
784.83	231.04
785.16	231.10
785.48	231.02
785.80	230.97
786.12	230.92
786.45	230.95
786.77	230.96
787.09	230.88
787.42	230.66
787.74	230.62
788.06	230.61
788.38	230.54
788.71	230.54
789.03	230.55
789.35	230.53
789.67	230.43
789.99	230.42
790.32	230.34
790.64	230.37
790.96	230.72
791.28	230.50
791.61	230.53
791.93	230.48
792.25	230.50
792.57	230.70
792.89	230.65
793.21	230.65
793.54	230.61
793.86	230.52
794.18	230.56
794.50	230.41
794.82	230.34
795.14	230.42
795.47	230.44
795.79	230.40
796.11	230.37
796.43	230.34
796.75	230.30
797.07	230.29
797.39	230.25
797.71	229.95
798.04	230.06
798.36	230.05
798.68	230.10
799.00	230.04
799.32	229.80
799.64	229.83
799.96	229.82
800.28	229.90
800.60	229.86
800.92	229.87
801.24	229.88
801.56	230.00
801.89	229.95
802.21	229.97
802.53	229.85
802.85	229.87
803.17	230.15
803.49	230.12
803.81	230.08
804.13	230.06
804.45	229.99
804.77	230.00
805.09	229.95
805.41	229.91
805.73	229.83
806.05	229.76
806.37	229.71
806.69	229.69
807.01	229.60
807.33	229.71
807.65	229.53
807.97	229.73
808.28	229.64
808.60	229.62
808.92	229.55
809.24	229.90
809.56	229.81
809.88	229.64
810.20	229.68
810.52	229.73
810.84	229.61
811.16	229.49
811.48	229.45
811.80	229.65
812.12	229.60
812.43	229.72
812.75	229.82
813.07	229.76
813.39	229.74
813.71	229.67
814.03	229.58
814.35	229.62
814.67	229.37
814.98	229.29
815.30	229.23
815.62	229.21
815.94	228.89
816.26	229.10
816.58	228.97
816.89	228.97
817.21	228.90
817.53	228.95
817.85	228.98
818.17	229.01
818.48	228.79
818.80	228.90
819.12	228.76
819.44	228.61
819.76	228.54
820.07	228.49
820.39	228.49
820.71	228.56
821.03	228.46
821.34	228.50
821.66	228.55
821.98	228.63
822.30	228.55
822.61	228.80
822.93	228.55
823.25	228.49
823.57	228.35
823.88	228.48
824.20	228.43
824.52	228.46
824.83	228.39
825.15	228.30
825.47	228.27
825.79	228.34
826.10	228.33
826.42	228.30
826.74	228.27
827.05	228.15
827.37	228.13
827.69	228.11
828.00	228.09
828.32	228.12
828.64	228.02
828.95	228.24
829.27	228.14
829.58	228.10
829.90	228.22
830.22	228.29
830.53	228.12
830.85	228.09
831.17	228.00
831.48	227.95
831.80	227.96
832.11	227.90
832.43	227.84
832.75	227.85
833.06	228.19
833.38	228.12
833.69	228.18
834.01	228.16
834.32	228.18
834.64	228.16
834.96	228.11
835.27	228.06
835.59	227.85
835.90	227.75
836.22	227.69
836.53	227.58
836.85	227.54
837.16	228.00
837.48	228.05
837.79	228.16
838.11	228.22
838.42	228.33
838.74	228.37
839.05	228.36
839.37	228.27
839.68	227.97
840.00	227.99
840.31	228.04
840.63	227.95
840.94	227.94
841.26	227.87
841.57	227.88
841.88	227.90
842.20	227.89
842.51	227.76
842.83	227.81
843.14	228.27
843.46	228.24
843.77	228.01
844.08	227.90
844.40	227.75
844.71	227.67
845.03	227.49
845.34	227.40
845.65	227.43
845.97	227.49
846.28	227.47
846.60	227.41
846.91	227.36
847.22	227.44
847.54	227.48
847.85	227.52
848.16	227.49
848.48	227.45
848.79	227.67
849.10	227.78
849.42	227.82
849.73	227.28
850.04	227.39
850.36	227.12
850.67	227.24
850.98	227.28
851.30	227.33
851.61	227.36
851.92	227.36
852.23	227.47
852.55	227.46
852.86	227.55
853.17	227.63
853.49	227.73
853.80	227.81
854.11	227.89
854.42	227.94
854.74	227.94
855.05	228.02
855.36	227.78
855.67	227.82
855.99	227.84
856.30	228.46
856.61	228.37
856.92	228.48
857.23	228.56
857.55	228.54
857.86	228.52
858.17	228.60
858.48	228.56
858.79	228.50
859.11	228.46
859.42	228.44
859.73	228.37
860.04	228.37
860.35	228.24
860.66	228.07
860.98	228.05
861.29	228.08
861.60	227.93
861.91	228.04
862.22	227.94
862.53	227.89
862.84	227.37
863.16	227.50
863.47	227.39
863.78	227.30
864.09	227.30
864.40	227.37
864.71	227.35
865.02	227.35
865.33	227.24
865.64	227.21
865.95	227.19
866.27	227.50
866.58	227.40
866.89	227.48
867.20	227.58
867.51	227.52
867.82	227.44
868.13	227.69
868.44	227.45
868.75	227.56
869.06	227.57
869.37	227.58
869.68	227.47
869.99	227.57
870.30	227.57
870.61	227.65
870.92	227.52
871.23	227.50
871.54	227.57
871.85	227.73
872.16	227.74
872.47	227.72
872.78	227.49
873.09	227.57
873.40	227.48
873.71	227.46
874.02	227.48
874.33	227.46
874.64	227.35
874.95	227.52
875.26	227.32
875.56	227.28
875.87	227.28
876.18	227.12
876.49	227.64
876.80	227.60
877.11	227.50
877.42	227.55
877.73	227.48
878.04	227.37
878.35	227.26
878.66	227.30
878.96	227.26
879.27	227.17
879.58	227.12
879.89	227.00
880.20	227.16
880.51	227.08
880.82	227.13
881.12	227.07
881.43	227.01
881.74	227.04
882.05	226.99
882.36	226.97
882.67	227.06
882.97	226.58
883.28	226.57
883.59	226.55
883.90	226.57
884.21	226.70
884.51	226.70
884.82	226.69
885.13	226.69
885.44	226.63
885.74	226.60
886.05	226.56
886.36	226.63
886.67	226.45
886.98	226.73
887.28	226.71
887.59	226.76
887.90	226.76
888.20	226.78
888.51	226.97
888.82	226.95
889.13	226.93
889.43	227.21
889.74	227.12
890.05	227.07
890.35	227.03
890.66	226.97
890.97	226.96
891.28	226.87
891.58	226.87
891.89	226.89
892.20	226.86
892.50	226.89
892.81	226.91
893.12	226.87
893.42	226.60
893.73	226.66
894.04	226.61
894.34	226.64
894.65	226.60
894.95	226.46
895.26	226.42
895.57	226.66
895.87	226.20
896.18	226.36
896.48	226.40
896.79	226.38
897.10	226.43
897.40	226.46
897.71	226.59
898.01	226.55
898.32	226.61
898.63	226.62
898.93	226.63
899.24	226.64
899.54	226.63
899.85	226.67
900.15	226.61
900.46	226.60
900.76	226.65
901.07	226.65
901.38	226.67
901.68	226.74
901.99	226.49
902.29	226.52
902.60	226.50
902.90	226.53
903.21	226.53
903.51	226.50
903.82	226.56
904.12	226.56
904.43	226.59
904.73	226.59
905.03	226.63
905.34	227.10
905.64	227.06
905.95	227.05
906.25	227.00
906.56	226.98
906.86	227.05
907.17	227.00
907.47	227.09
907.77	227.09
908.08	227.00
908.38	227.02
908.69	227.08
908.99	227.12
909.30	227.15
909.60	227.17
909.90	227.15
910.21	227.04
910.51	227.00
910.81	227.03
911.12	227.05
911.42	227.09
911.73	226.55
912.03	226.59
912.33	226.72
912.64	226.70
912.94	226.64
913.24	226.52
913.55	226.42
913.85	226.29
914.15	226.38
914.46	226.40
914.76	226.36
915.06	226.35
915.37	226.25
915.67	226.24
915.97	226.25
916.27	226.24
916.58	226.23
916.88	226.16
917.18	226.10
917.49	226.42
917.79	226.36
918.09	226.45
918.39	226.60
918.70	226.59
919.00	226.64
919.30	226.96
919.60	226.92
919.91	226.91
920.21	226.95
920.51	226.79
920.81	226.78
921.12	226.87
921.42	226.88
921.72	226.94
922.02	226.92
922.32	226.99
922.63	226.95
922.93	227.20
923.23	227.26
923.53	227.23
923.83	226.95
924.13	227.01
924.44	226.98
924.74	227.02
925.04	227.09
925.34	227.09
925.64	226.82
925.94	226.83
926.24	227.12
926.55	227.15
926.85	227.21
927.15	227.24
927.45	227.33
927.75	227.29
928.05	227.27
928.35	227.23
928.65	227.29
928.95	227.36
929.26	227.18
929.56	227.23
929.86	227.30
930.16	227.27
930.46	227.22
930.76	227.23
931.06	227.03
931.36	226.91
931.66	227.03
931.96	227.10
932.26	227.21
932.56	226.93
932.86	226.99
933.16	227.05
933.46	226.98
933.76	226.86
934.06	227.00
934.36	227.18
934.66	227.19
934.96	227.07
935.26	227.04
935.56	227.14
935.86	227.08
936.16	227.05
936.46	226.96
936.76	227.00
937.06	226.88
937.36	226.85
937.66	226.87
937.96	226.74
938.26	226.65
938.56	226.60
938.86	226.62
939.16	226.65
939.46	226.65
939.76	226.71
940.06	226.69
940.35	226.64
940.65	226.46
940.95	226.47
941.25	226.44
941.55	226.37
941.85	226.29
942.15	226.36
942.45	226.46
942.75	226.50
943.04	226.49
943.34	226.68
943.64	226.69
943.94	226.62
944.24	226.69
944.54	226.71
944.84	226.72
945.13	226.75
945.43	226.68
945.73	226.72
946.03	226.67
946.33	226.68
946.62	226.54
946.92	226.48
947.22	226.57
947.52	226.57
947.82	226.72
948.11	226.72
948.41	226.65
948.71	226.48
949.01	226.51
949.31	226.49
949.60	226.48
949.90	226.56
950.20	226.57
950.50	226.55
950.79	226.56
951.09	226.59
951.39	226.56
951.69	226.51
951.98	226.55
952.28	226.56
952.58	226.57
952.87	226.64
953.17	226.70
953.47	226.65
953.76	226.69
954.06	226.54
954.36	226.46
954.66	226.44
954.95	226.63
955.25	226.62
955.55	226.59
955.84	226.48
956.14	226.53
956.44	226.48
956.73	226.39
957.03	226.40
957.32	226.40
957.62	226.35
957.92	226.50
958.21	226.43
958.51	226.99
958.81	226.98
959.10	227.05
959.40	227.16
959.69	227.16
959.99	227.19
960.29	227.20
960.58	227.21
960.88	227.35
961.17	227.25
961.47	227.28
961.76	227.32
962.06	227.45
962.36	227.37
962.65	227.39
962.95	227.44
963.24	227.35
963.54	227.42
963.83	227.50
964.13	227.37
964.42	227.23
964.72	226.90
965.01	226.90
965.31	226.86
965.60	226.71
965.90	226.97
966.19	226.86
966.49	226.90
966.78	226.92
967.08	226.92
967.37	226.89
967.67	226.80
967.96	226.91
968.26	226.81
968.55	226.84
968.85	226.91
969.14	226.91
969.43	226.96
969.73	226.86
970.02	226.87
970.32	226.84
970.61	226.83
970.91	226.68
971.20	226.65
971.49	226.63
971.79	226.68
972.08	226.31
972.38	226.42
972.67	226.35
972.96	226.44
973.26	226.26
973.55	226.44
973.85	226.44
974.14	226.30
974.43	226.39
974.73	226.32
975.02	226.24
975.31	226.21
975.61	226.24
975.90	226.21
976.19	226.17
976.49	226.24
976.78	226.27
977.07	226.25
977.37	226.30
977.66	226.36
977.95	226.23
978.24	226.26
978.54	226.32
978.83	226.31
979.12	226.16
979.42	226.25
979.71	226.15
980.00	226.09
980.29	226.12
980.59	225.94
980.88	226.05
981.17	226.03
981.46	226.08
981.76	226.01
982.05	226.16
982.34	226.20
982.63	226.18
982.93	226.16
983.22	226.25
983.51	226.22
983.80	226.25
984.09	226.37
984.39	226.43
984.68	226.36
984.97	226.46
985.26	226.46
985.55	226.43
985.85	226.26
986.14	226.34
986.43	226.43
986.72	226.54
987.01	226.43
987.30	226.43
987.59	226.37
987.89	226.42
988.18	226.18
988.47	226.19
988.76	226.22
989.05	226.27
989.34	226.16
989.63	226.29
989.92	226.15
990.22	226.11
990.51	226.03
990.80	226.02
991.09	226.01
991.38	226.05
991.67	226.03
991.96	226.10
992.25	226.19
992.54	226.12
992.83	226.10
993.12	226.08
993.41	226.24
993.70	226.42
993.99	226.52
994.28	226.64
994.58	226.69
994.87	226.65
995.16	226.65
995.45	226.66
995.74	226.50
996.03	226.61
996.32	226.73
996.61	226.90
996.90	226.86
997.19	226.83
997.48	226.91
997.77	226.87
998.06	226.91
998.34	226.88
998.63	226.88
998.92	226.87
999.21	226.99
999.50	226.88
999.79	226.73
1000.08	226.70
1000.37	226.69
1000.66	226.64
1000.95	226.75
1001.24	226.69
1001.53	226.73
1001.82	226.69
1002.11	226.54
1002.40	226.52
1002.68	226.60
1002.97	226.91
1003.26	226.87
1003.55	226.78
1003.84	226.82
1004.13	226.91
1004.42	226.82
1004.71	226.84
1004.99	226.81
1005.28	226.88
1005.57	226.84
1005.86	226.82
1006.15	226.81
1006.44	226.76
1006.72	226.72
1007.01	226.60
1007.30	226.67
1007.59	226.67
1007.88	226.69
1008.17	226.78
1008.45	226.69
1008.74	226.49
1009.03	226.33
1009.32	226.39
1009.60	226.31
1009.89	226.31
1010.18	226.10
1010.47	226.12
1010.76	226.09
1011.04	226.13
1011.33	226.19
1011.62	226.27
1011.91	226.26
1012.19	226.21
1012.48	226.22
1012.77	226.31
1013.05	226.55
1013.34	226.45
1013.63	226.41
1013.92	226.45
1014.20	226.42
1014.49	226.46
1014.78	226.47
1015.06	226.32
1015.35	226.32
1015.64	226.44
1015.92	226.49
1016.21	226.64
1016.50	226.62
1016.78	226.65
1017.07	226.66
1017.36	226.53
1017.64	226.46
1017.93	226.57
1018.22	226.59
1018.50	226.57
1018.79	226.45
1019.08	226.20
1019.36	226.27
1019.65	226.24
1019.93	226.32
1020.22	226.40
1020.51	226.55
1020.79	226.53
1021.08	226.40
1021.36	224.90
1021.65	225.35
1021.94	225.20
1022.22	226.55
1022.51	225.75
1022.79	227.70
1023.08	227.10
1023.36	230.30
1023.65	225.20
>>>>>End Processed Spectral Data<<<<<
