SpectraSuite Data File
++++++++++++++++++++++++++++++++++++
Date: Wed Sep 04 17:59:36 EDT 2013
User: lab3
Dark Spectrum Present: Yes
Reference Spectrum Present: No
Number of Sampled Component Spectra: 1
Spectrometers: USB2E7196
Integration Time (usec): 170000 (USB2E7196)
Spectra Averaged: 20 (USB2E7196)
Boxcar Smoothing: 10 (USB2E7196)
Correct for Electrical Dark: No (USB2E7196)
Strobe/Lamp Enabled: No (USB2E7196)
Correct for Detector Non-linearity: No (USB2E7196)
Correct for Stray Light: No (USB2E7196)
Number of Pixels in Processed Spectrum: 2048
>>>>>Begin Processed Spectral Data<<<<<
339.09	0.00
339.48	213.30
339.86	214.00
340.24	216.00
340.63	217.75
341.01	226.55
341.39	218.90
341.78	222.60
342.16	224.90
342.54	222.85
342.93	212.61
343.31	223.28
343.69	223.82
344.07	224.38
344.46	224.94
344.84	225.40
345.22	225.41
345.60	225.76
345.99	225.99
346.37	226.09
346.75	226.21
347.13	226.35
347.52	226.46
347.90	226.73
348.28	226.76
348.66	226.82
349.05	226.73
349.43	226.77
349.81	226.80
350.19	226.81
350.57	226.88
350.96	226.91
351.34	227.04
351.72	227.12
352.10	227.13
352.48	227.11
352.87	227.13
353.25	227.11
353.63	227.20
354.01	227.19
354.39	227.25
354.77	227.37
355.15	227.59
355.54	227.58
355.92	227.43
356.30	227.45
356.68	227.87
357.06	227.93
357.44	227.90
357.82	227.93
358.20	228.39
358.58	228.44
358.97	228.58
359.35	228.73
359.73	228.89
360.11	228.98
360.49	229.02
360.87	229.07
361.25	229.17
361.63	229.32
362.01	229.40
362.39	229.40
362.77	229.46
363.15	229.44
363.53	229.54
363.91	229.60
364.29	229.69
364.67	229.23
365.05	229.32
365.43	229.53
365.81	229.59
366.19	229.47
366.57	229.63
366.95	229.67
367.33	229.58
367.71	229.62
368.09	229.73
368.47	229.71
368.85	229.59
369.23	229.70
369.61	229.56
369.99	229.77
370.37	229.85
370.75	230.08
371.13	229.93
371.51	229.78
371.89	229.78
372.27	229.77
372.65	229.82
373.03	229.73
373.41	229.58
373.78	229.53
374.16	229.22
374.54	229.11
374.92	229.02
375.30	228.98
375.68	228.79
376.06	228.74
376.44	228.67
376.82	228.71
377.19	228.59
377.57	228.47
377.95	228.18
378.33	228.05
378.71	227.68
379.09	227.69
379.47	227.66
379.84	227.54
380.22	227.44
380.60	227.18
380.98	227.11
381.36	227.04
381.73	226.91
382.11	226.90
382.49	226.77
382.87	226.60
383.25	226.53
383.62	227.02
384.00	226.79
384.38	226.75
384.76	226.75
385.13	226.83
385.51	226.81
385.89	226.69
386.27	226.58
386.64	226.57
387.02	226.52
387.40	226.44
387.78	226.41
388.15	226.31
388.53	226.31
388.91	226.27
389.29	226.15
389.66	226.17
390.04	226.10
390.42	226.18
390.79	226.26
391.17	226.22
391.55	225.65
391.92	225.74
392.30	225.85
392.68	225.71
393.05	225.78
393.43	225.76
393.81	225.75
394.18	225.76
394.56	225.81
394.94	225.94
395.31	225.92
395.69	226.08
396.06	226.25
396.44	226.40
396.82	226.43
397.19	226.80
397.57	226.83
397.95	227.04
398.32	226.89
398.70	226.92
399.07	227.14
399.45	227.23
399.82	227.27
400.20	227.16
400.58	227.32
400.95	227.13
401.33	227.32
401.70	227.83
402.08	227.94
402.45	228.11
402.83	228.30
403.20	228.46
403.58	228.55
403.95	228.77
404.33	228.97
404.71	229.21
405.08	229.60
405.46	229.86
405.83	230.15
406.21	230.51
406.58	230.90
406.96	231.19
407.33	231.53
407.70	231.98
408.08	232.84
408.45	233.28
408.83	233.93
409.20	234.34
409.58	234.46
409.95	235.11
410.33	235.64
410.70	236.10
411.08	236.77
411.45	237.45
411.82	238.02
412.20	238.78
412.57	239.84
412.95	240.25
413.32	241.10
413.69	241.86
414.07	242.73
414.44	243.70
414.82	244.77
415.19	246.02
415.56	247.20
415.94	248.16
416.31	249.55
416.68	250.89
417.06	252.56
417.43	254.24
417.81	255.94
418.18	257.75
418.55	259.64
418.93	261.65
419.30	263.74
419.67	265.93
420.04	268.26
420.42	270.47
420.79	273.61
421.16	276.49
421.54	279.62
421.91	282.73
422.28	285.81
422.66	289.03
423.03	292.54
423.40	295.93
423.77	299.54
424.15	303.27
424.52	307.20
424.89	311.38
425.26	315.46
425.64	319.19
426.01	323.35
426.38	327.79
426.75	332.29
427.13	336.91
427.50	341.74
427.87	346.72
428.24	351.69
428.61	356.20
428.99	361.47
429.36	366.95
429.73	372.44
430.10	378.03
430.47	383.87
430.85	389.50
431.22	395.69
431.59	402.46
431.96	408.69
432.33	415.57
432.70	422.21
433.08	430.12
433.45	437.68
433.82	445.23
434.19	453.42
434.56	461.60
434.93	469.35
435.30	477.21
435.68	485.85
436.05	494.41
436.42	502.84
436.79	510.55
437.16	519.13
437.53	528.01
437.90	536.76
438.27	545.29
438.64	554.37
439.01	562.69
439.38	569.92
439.75	577.10
440.13	585.27
440.50	592.92
440.87	598.90
441.24	605.36
441.61	612.30
441.98	617.47
442.35	623.30
442.72	629.39
443.09	635.18
443.46	638.51
443.83	640.74
444.20	642.60
444.57	645.31
444.94	646.11
445.31	647.28
445.68	648.53
446.05	648.76
446.42	647.25
446.79	645.85
447.16	644.33
447.53	642.99
447.90	639.19
448.27	635.45
448.64	630.61
449.01	626.88
449.37	620.80
449.74	614.76
450.11	607.77
450.48	599.83
450.85	591.77
451.22	584.87
451.59	578.33
451.96	571.97
452.33	563.77
452.70	556.42
453.07	547.67
453.43	538.67
453.80	530.22
454.17	522.22
454.54	514.45
454.91	506.19
455.28	498.20
455.65	490.67
456.02	483.80
456.38	477.42
456.75	469.58
457.12	463.02
457.49	456.57
457.86	450.29
458.23	445.17
458.59	439.43
458.96	433.67
459.33	428.44
459.70	423.30
460.07	419.27
460.43	414.60
460.80	410.20
461.17	406.41
461.54	402.30
461.91	398.36
462.27	394.42
462.64	391.13
463.01	387.56
463.38	384.17
463.74	380.15
464.11	377.11
464.48	374.52
464.85	371.49
465.21	369.37
465.58	367.02
465.95	364.13
466.32	361.79
466.68	359.50
467.05	357.28
467.42	355.12
467.78	352.74
468.15	350.55
468.52	349.02
468.88	346.69
469.25	344.78
469.62	343.37
469.98	341.73
470.35	340.16
470.72	338.74
471.08	337.11
471.45	335.81
471.82	334.48
472.18	332.98
472.55	332.04
472.92	330.68
473.28	329.57
473.65	328.42
474.02	327.32
474.38	326.50
474.75	325.71
475.11	324.79
475.48	324.12
475.85	323.49
476.21	322.69
476.58	322.20
476.94	321.81
477.31	321.29
477.67	320.88
478.04	320.52
478.41	320.20
478.77	320.46
479.14	320.18
479.50	320.06
479.87	320.04
480.23	320.02
480.60	320.00
480.96	320.03
481.33	320.46
481.69	320.76
482.06	320.92
482.42	321.21
482.79	321.59
483.15	322.03
483.52	322.68
483.88	323.22
484.25	323.79
484.61	324.44
484.98	325.11
485.34	326.10
485.71	327.09
486.07	328.03
486.44	328.68
486.80	329.70
487.17	330.84
487.53	332.22
487.90	333.63
488.26	335.35
488.62	337.08
488.99	338.58
489.35	340.47
489.72	342.28
490.08	344.31
490.44	346.32
490.81	348.56
491.17	350.75
491.54	353.17
491.90	355.74
492.26	358.41
492.63	361.19
492.99	363.97
493.36	366.99
493.72	370.30
494.08	373.79
494.45	377.60
494.81	381.52
495.17	385.41
495.54	389.56
495.90	393.72
496.26	398.22
496.63	402.93
496.99	407.62
497.35	412.81
497.72	418.01
498.08	423.55
498.44	429.36
498.80	435.42
499.17	441.59
499.53	447.91
499.89	454.68
500.26	461.53
500.62	468.72
500.98	476.15
501.34	483.68
501.71	491.42
502.07	499.31
502.43	507.50
502.79	515.84
503.16	524.55
503.52	533.70
503.88	542.95
504.24	552.66
504.60	562.77
504.97	573.10
505.33	583.58
505.69	594.65
506.05	605.67
506.41	616.82
506.78	628.46
507.14	640.66
507.50	652.98
507.86	665.66
508.22	678.75
508.59	691.82
508.95	705.58
509.31	719.53
509.67	733.90
510.03	748.25
510.39	763.11
510.75	778.20
511.12	793.50
511.48	809.26
511.84	825.05
512.20	840.97
512.56	856.98
512.92	873.74
513.28	890.58
513.64	907.91
514.00	925.57
514.37	943.53
514.73	961.66
515.09	979.94
515.45	998.65
515.81	1016.84
516.17	1035.61
516.53	1054.32
516.89	1073.08
517.25	1092.31
517.61	1112.49
517.97	1132.83
518.33	1152.98
518.69	1173.20
519.05	1193.77
519.41	1214.42
519.77	1235.60
520.13	1256.63
520.49	1277.54
520.85	1299.90
521.21	1321.00
521.57	1342.52
521.93	1363.08
522.29	1384.60
522.65	1405.23
523.01	1426.13
523.37	1447.22
523.73	1468.32
524.09	1488.95
524.45	1510.00
524.81	1531.09
525.17	1552.03
525.53	1572.63
525.89	1593.62
526.25	1614.77
526.61	1635.40
526.97	1656.72
527.33	1678.10
527.68	1700.31
528.04	1721.60
528.40	1741.19
528.76	1762.22
529.12	1782.52
529.48	1803.63
529.84	1823.37
530.20	1844.51
530.56	1865.44
530.91	1886.39
531.27	1906.97
531.63	1927.75
531.99	1948.56
532.35	1968.46
532.71	1988.61
533.07	2009.58
533.42	2029.52
533.78	2049.60
534.14	2069.47
534.50	2088.58
534.86	2107.60
535.21	2125.08
535.57	2143.91
535.93	2161.93
536.29	2179.82
536.65	2198.10
537.00	2216.19
537.36	2234.10
537.72	2251.05
538.08	2267.99
538.44	2284.80
538.79	2301.41
539.15	2318.38
539.51	2334.27
539.87	2349.69
540.22	2363.93
540.58	2378.40
540.94	2391.82
541.29	2404.27
541.65	2416.83
542.01	2429.11
542.37	2440.13
542.72	2451.11
543.08	2461.78
543.44	2473.61
543.79	2484.06
544.15	2493.88
544.51	2503.83
544.87	2513.54
545.22	2522.40
545.58	2530.04
545.94	2537.24
546.29	2544.15
546.65	2550.20
547.01	2556.02
547.36	2561.86
547.72	2567.29
548.07	2571.34
548.43	2576.93
548.79	2581.34
549.14	2585.43
549.50	2589.56
549.86	2593.62
550.21	2597.60
550.57	2600.74
550.92	2601.93
551.28	2603.40
551.64	2605.99
551.99	2607.98
552.35	2609.60
552.70	2611.40
553.06	2613.52
553.41	2614.88
553.77	2616.67
554.13	2618.72
554.48	2620.22
554.84	2621.60
555.19	2622.87
555.55	2624.43
555.90	2623.39
556.26	2622.98
556.61	2621.65
556.97	2619.91
557.32	2619.00
557.68	2617.88
558.03	2616.41
558.39	2615.23
558.74	2614.27
559.10	2610.67
559.45	2607.00
559.81	2602.77
560.16	2597.78
560.52	2592.88
560.87	2588.19
561.23	2582.63
561.58	2576.48
561.94	2569.73
562.29	2562.52
562.64	2555.56
563.00	2547.10
563.35	2540.77
563.71	2534.34
564.06	2528.20
564.42	2521.45
564.77	2514.66
565.12	2507.20
565.48	2499.47
565.83	2491.78
566.19	2483.55
566.54	2476.26
566.89	2467.88
567.25	2459.87
567.60	2452.66
567.96	2444.97
568.31	2437.24
568.66	2428.52
569.02	2419.31
569.37	2411.30
569.72	2403.49
570.08	2394.33
570.43	2384.78
570.78	2375.34
571.14	2366.08
571.49	2355.69
571.84	2346.19
572.20	2335.32
572.55	2325.22
572.90	2314.57
573.26	2304.26
573.61	2293.06
573.96	2281.77
574.31	2270.21
574.67	2258.36
575.02	2245.77
575.37	2233.35
575.72	2220.07
576.08	2207.97
576.43	2195.50
576.78	2181.86
577.13	2168.06
577.49	2155.20
577.84	2143.40
578.19	2131.47
578.54	2118.72
578.90	2106.62
579.25	2093.88
579.60	2081.35
579.95	2068.17
580.30	2055.08
580.66	2041.44
581.01	2027.92
581.36	2013.97
581.71	2000.97
582.06	1987.83
582.42	1975.17
582.77	1962.42
583.12	1950.25
583.47	1937.51
583.82	1925.51
584.17	1913.66
584.53	1901.85
584.88	1888.97
585.23	1875.85
585.58	1861.56
585.93	1848.13
586.28	1834.75
586.63	1820.72
586.98	1806.44
587.34	1793.15
587.69	1779.70
588.04	1766.96
588.39	1754.92
588.74	1742.73
589.09	1730.62
589.44	1718.14
589.79	1705.91
590.14	1693.85
590.49	1681.85
590.84	1669.90
591.19	1657.70
591.54	1645.23
591.89	1632.94
592.25	1622.41
592.60	1611.02
592.95	1599.76
593.30	1587.73
593.65	1575.76
594.00	1563.95
594.35	1554.10
594.70	1542.37
595.05	1530.91
595.40	1518.59
595.75	1506.50
596.10	1495.16
596.45	1483.57
596.80	1472.54
597.15	1461.15
597.50	1449.13
597.85	1437.61
598.19	1426.03
598.54	1414.37
598.89	1403.25
599.24	1392.87
599.59	1381.21
599.94	1370.17
600.29	1359.56
600.64	1349.10
600.99	1338.35
601.34	1328.70
601.69	1317.45
602.04	1307.42
602.39	1297.75
602.74	1288.67
603.08	1279.27
603.43	1269.62
603.78	1259.81
604.13	1249.99
604.48	1240.00
604.83	1230.22
605.18	1220.40
605.53	1210.87
605.87	1201.56
606.22	1192.93
606.57	1183.19
606.92	1173.80
607.27	1164.84
607.62	1155.98
607.96	1147.44
608.31	1139.20
608.66	1130.62
609.01	1121.85
609.36	1113.14
609.70	1104.69
610.05	1096.03
610.40	1087.41
610.75	1078.84
611.10	1070.41
611.44	1061.88
611.79	1053.77
612.14	1046.02
612.49	1037.96
612.83	1030.20
613.18	1022.25
613.53	1014.43
613.88	1006.67
614.22	998.84
614.57	990.70
614.92	982.85
615.27	975.10
615.61	967.66
615.96	960.07
616.31	952.48
616.65	945.34
617.00	937.72
617.35	930.63
617.70	923.42
618.04	916.23
618.39	909.25
618.74	902.78
619.08	895.86
619.43	888.78
619.78	881.71
620.12	874.62
620.47	867.76
620.82	860.45
621.16	853.63
621.51	847.27
621.85	841.12
622.20	834.49
622.55	827.76
622.89	821.05
623.24	814.61
623.59	808.32
623.93	801.96
624.28	796.01
624.62	790.19
624.97	784.31
625.32	778.52
625.66	772.45
626.01	766.22
626.35	760.67
626.70	755.11
627.04	749.97
627.39	744.30
627.73	738.90
628.08	733.58
628.43	727.99
628.77	722.58
629.12	717.20
629.46	712.23
629.81	707.34
630.15	702.66
630.50	697.72
630.84	692.74
631.19	688.03
631.53	683.29
631.88	677.85
632.22	672.99
632.57	668.38
632.91	663.92
633.26	659.58
633.60	654.79
633.95	649.87
634.29	644.94
634.64	640.48
634.98	635.72
635.32	631.44
635.67	627.35
636.01	623.04
636.36	618.65
636.70	614.55
637.05	610.42
637.39	606.16
637.73	601.98
638.08	598.15
638.42	593.77
638.77	589.22
639.11	585.04
639.45	580.72
639.80	576.33
640.14	572.10
640.49	568.06
640.83	564.29
641.17	560.70
641.52	557.16
641.86	553.63
642.20	550.41
642.55	546.52
642.89	542.90
643.23	539.31
643.58	536.08
643.92	532.56
644.26	529.12
644.61	525.86
644.95	522.52
645.29	518.94
645.64	515.83
645.98	512.69
646.32	509.85
646.66	506.81
647.01	503.87
647.35	501.05
647.69	498.12
648.04	495.17
648.38	492.32
648.72	489.25
649.06	486.29
649.41	483.14
649.75	480.39
650.09	477.53
650.43	474.80
650.78	471.89
651.12	468.96
651.46	466.13
651.80	463.41
652.14	460.82
652.49	458.28
652.83	455.65
653.17	452.98
653.51	450.18
653.85	447.70
654.20	445.21
654.54	442.62
654.88	439.96
655.22	437.72
655.56	435.30
655.90	432.89
656.25	430.41
656.59	428.24
656.93	425.97
657.27	423.88
657.61	421.27
657.95	418.97
658.29	416.75
658.64	414.61
658.98	412.25
659.32	409.84
659.66	407.72
660.00	405.58
660.34	403.65
660.68	401.55
661.02	399.48
661.36	397.38
661.70	395.36
662.05	393.36
662.39	391.32
662.73	389.44
663.07	387.99
663.41	386.16
663.75	384.24
664.09	382.34
664.43	380.27
664.77	378.73
665.11	377.00
665.45	375.29
665.79	373.74
666.13	372.00
666.47	370.34
666.81	368.59
667.15	366.88
667.49	365.40
667.83	364.15
668.17	362.61
668.51	361.12
668.85	359.86
669.19	358.72
669.53	357.17
669.87	355.69
670.21	353.94
670.55	352.53
670.89	351.36
671.23	350.08
671.57	348.70
671.91	347.37
672.25	346.02
672.58	344.75
672.92	343.28
673.26	342.16
673.60	340.95
673.94	339.82
674.28	338.77
674.62	337.53
674.96	336.18
675.30	335.04
675.64	333.84
675.97	332.52
676.31	331.18
676.65	329.97
676.99	329.00
677.33	327.85
677.67	326.81
678.01	325.45
678.34	324.37
678.68	323.50
679.02	322.42
679.36	321.46
679.70	320.49
680.04	319.54
680.37	318.46
680.71	317.37
681.05	316.49
681.39	315.61
681.73	314.72
682.06	313.84
682.40	312.99
682.74	312.24
683.08	311.55
683.42	310.59
683.75	309.80
684.09	308.85
684.43	308.05
684.77	307.22
685.10	306.46
685.44	305.68
685.78	304.81
686.12	303.95
686.45	303.19
686.79	302.36
687.13	301.72
687.46	301.04
687.80	300.60
688.14	299.69
688.48	298.88
688.81	298.05
689.15	297.37
689.49	296.60
689.82	295.93
690.16	295.04
690.50	294.45
690.83	293.79
691.17	293.00
691.51	292.33
691.84	291.69
692.18	291.03
692.52	290.30
692.85	289.69
693.19	289.30
693.52	288.59
693.86	287.83
694.20	287.11
694.53	286.45
694.87	285.74
695.21	285.13
695.54	284.54
695.88	283.88
696.21	283.04
696.55	282.46
696.88	281.80
697.22	281.14
697.56	280.52
697.89	279.93
698.23	279.45
698.56	278.83
698.90	278.33
699.23	277.81
699.57	277.30
699.90	276.72
700.24	276.00
700.58	275.50
700.91	275.23
701.25	275.19
701.58	275.02
701.92	274.57
702.25	274.22
702.59	273.75
702.92	273.30
703.26	272.99
703.59	272.58
703.93	272.53
704.26	272.19
704.60	271.81
704.93	271.29
705.26	270.76
705.60	270.47
705.93	269.94
706.27	269.60
706.60	269.33
706.94	269.11
707.27	268.77
707.61	268.52
707.94	268.00
708.27	267.07
708.61	266.38
708.94	266.05
709.28	265.58
709.61	265.11
709.94	264.83
710.28	264.43
710.61	264.03
710.95	263.24
711.28	263.22
711.61	262.87
711.95	262.67
712.28	262.31
712.61	261.89
712.95	261.88
713.28	261.75
713.61	261.26
713.95	260.79
714.28	260.51
714.61	260.04
714.95	259.75
715.28	259.43
715.61	259.10
715.95	258.74
716.28	258.42
716.61	258.22
716.95	257.86
717.28	257.63
717.61	257.30
717.94	257.01
718.28	256.36
718.61	255.98
718.94	255.68
719.27	255.43
719.61	255.21
719.94	254.70
720.27	254.23
720.60	254.02
720.94	253.82
721.27	253.57
721.60	253.45
721.93	253.16
722.27	253.12
722.60	252.97
722.93	252.67
723.26	252.54
723.59	252.23
723.93	252.07
724.26	251.81
724.59	251.58
724.92	251.35
725.25	251.22
725.59	251.09
725.92	250.88
726.25	250.69
726.58	250.57
726.91	250.40
727.24	250.26
727.57	250.02
727.91	249.65
728.24	249.50
728.57	249.27
728.90	249.15
729.23	248.92
729.56	248.94
729.89	248.78
730.22	248.49
730.55	248.31
730.89	248.13
731.22	247.96
731.55	247.83
731.88	247.72
732.21	247.53
732.54	247.28
732.87	247.10
733.20	246.91
733.53	246.64
733.86	246.52
734.19	246.25
734.52	246.17
734.85	246.37
735.18	246.09
735.51	246.00
735.84	245.85
736.17	245.75
736.50	245.34
736.83	245.81
737.16	245.69
737.49	245.60
737.82	245.33
738.15	245.25
738.48	245.06
738.81	244.92
739.14	244.77
739.47	244.60
739.80	244.47
740.13	244.39
740.46	244.21
740.79	243.97
741.12	243.76
741.45	243.54
741.78	243.15
742.11	243.12
742.44	242.85
742.77	242.75
743.10	242.52
743.43	242.37
743.75	241.61
744.08	242.08
744.41	241.86
744.74	241.74
745.07	241.44
745.40	241.40
745.73	241.43
746.06	241.23
746.39	241.22
746.71	241.08
747.04	240.90
747.37	240.78
747.70	240.75
748.03	240.64
748.36	240.62
748.68	240.52
749.01	240.24
749.34	240.14
749.67	240.07
750.00	239.99
750.33	240.23
750.65	240.19
750.98	239.40
751.31	239.32
751.64	239.22
751.97	239.44
752.29	239.32
752.62	238.92
752.95	238.81
753.28	238.66
753.60	238.46
753.93	238.48
754.26	238.45
754.59	238.20
754.91	238.10
755.24	237.95
755.57	237.90
755.90	237.84
756.22	237.75
756.55	237.52
756.88	237.34
757.20	236.95
757.53	236.73
757.86	236.73
758.19	236.70
758.51	236.67
758.84	236.33
759.17	236.16
759.49	236.18
759.82	236.29
760.15	236.20
760.47	236.24
760.80	235.97
761.13	235.94
761.45	235.92
761.78	235.78
762.11	235.72
762.43	235.56
762.76	235.46
763.08	235.39
763.41	235.35
763.74	235.30
764.06	235.18
764.39	235.15
764.71	234.97
765.04	234.85
765.37	234.72
765.69	234.61
766.02	234.53
766.34	234.37
766.67	234.12
767.00	234.20
767.32	234.35
767.65	234.60
767.97	234.54
768.30	234.41
768.62	234.45
768.95	234.34
769.27	234.20
769.60	234.27
769.92	234.17
770.25	234.00
770.57	233.89
770.90	233.76
771.22	233.69
771.55	233.70
771.87	233.63
772.20	233.59
772.52	233.91
772.85	234.34
773.17	234.35
773.50	234.29
773.82	234.11
774.15	233.79
774.47	233.48
774.80	233.28
775.12	233.30
775.45	233.20
775.77	233.25
776.09	233.28
776.42	233.21
776.74	233.32
777.07	233.26
777.39	233.20
777.72	233.23
778.04	233.26
778.36	233.16
778.69	233.11
779.01	233.07
779.33	232.65
779.66	232.18
779.98	232.16
780.31	232.09
780.63	232.26
780.95	232.34
781.28	232.29
781.60	232.27
781.92	232.21
782.25	232.24
782.57	232.10
782.89	232.04
783.22	231.94
783.54	231.74
783.86	231.75
784.19	231.68
784.51	231.70
784.83	231.52
785.16	231.43
785.48	231.35
785.80	231.36
786.12	231.36
786.45	231.35
786.77	231.31
787.09	231.28
787.42	230.99
787.74	230.92
788.06	230.83
788.38	230.80
788.71	230.79
789.03	230.67
789.35	230.64
789.67	230.53
789.99	230.54
790.32	230.55
790.64	230.57
790.96	230.95
791.28	230.72
791.61	230.68
791.93	230.75
792.25	230.76
792.57	231.01
792.89	230.91
793.21	230.78
793.54	230.71
793.86	230.64
794.18	230.74
794.50	230.60
794.82	230.58
795.14	230.57
795.47	230.55
795.79	230.52
796.11	230.43
796.43	230.36
796.75	230.27
797.07	230.26
797.39	230.20
797.71	229.83
798.04	229.85
798.36	229.89
798.68	229.89
799.00	229.95
799.32	229.70
799.64	229.80
799.96	229.78
800.28	229.81
800.60	229.75
800.92	229.65
801.24	229.69
801.56	229.75
801.89	229.74
802.21	229.78
802.53	229.72
802.85	229.83
803.17	230.12
803.49	230.07
803.81	229.95
804.13	229.87
804.45	229.76
804.77	229.80
805.09	229.80
805.41	229.71
805.73	229.58
806.05	229.44
806.37	229.33
806.69	229.31
807.01	229.28
807.33	229.32
807.65	229.15
807.97	229.27
808.28	229.22
808.60	229.21
808.92	229.10
809.24	229.47
809.56	229.35
809.88	229.09
810.20	229.07
810.52	229.19
810.84	229.17
811.16	229.11
811.48	229.10
811.80	229.33
812.12	229.24
812.43	229.31
812.75	229.22
813.07	229.20
813.39	229.19
813.71	229.10
814.03	229.04
814.35	229.10
814.67	228.87
814.98	228.79
815.30	228.70
815.62	228.56
815.94	228.14
816.26	228.35
816.58	228.28
816.89	228.33
817.21	228.20
817.53	228.21
817.85	228.30
818.17	228.24
818.48	227.92
818.80	228.06
819.12	228.00
819.44	227.98
819.76	227.83
820.07	227.85
820.39	227.78
820.71	227.79
821.03	227.80
821.34	227.85
821.66	227.91
821.98	227.97
822.30	227.96
822.61	228.20
822.93	227.94
823.25	227.92
823.57	227.82
823.88	227.87
824.20	227.86
824.52	227.90
824.83	227.89
825.15	227.84
825.47	227.80
825.79	227.79
826.10	227.80
826.42	227.78
826.74	227.82
827.05	227.87
827.37	227.97
827.69	227.95
828.00	227.95
828.32	227.93
828.64	227.88
828.95	228.18
829.27	228.04
829.58	228.03
829.90	228.03
830.22	228.03
830.53	227.92
830.85	227.82
831.17	227.62
831.48	227.62
831.80	227.65
832.11	227.64
832.43	227.60
832.75	227.55
833.06	227.92
833.38	227.76
833.69	227.71
834.01	227.68
834.32	227.65
834.64	227.54
834.96	227.56
835.27	227.55
835.59	227.29
835.90	227.27
836.22	227.33
836.53	227.35
836.85	227.36
837.16	227.87
837.48	227.91
837.79	228.18
838.11	228.20
838.42	228.23
838.74	228.24
839.05	228.19
839.37	228.24
839.68	227.95
840.00	227.98
840.31	228.07
840.63	227.97
840.94	227.90
841.26	227.89
841.57	227.83
841.88	227.91
842.20	227.84
842.51	227.78
842.83	227.72
843.14	228.07
843.46	228.05
843.77	227.75
844.08	227.72
844.40	227.53
844.71	227.51
845.03	227.49
845.34	227.45
845.65	227.43
845.97	227.35
846.28	227.39
846.60	227.37
846.91	227.28
847.22	227.33
847.54	227.47
847.85	227.54
848.16	227.53
848.48	227.41
848.79	227.66
849.10	227.66
849.42	227.70
849.73	227.28
850.04	227.28
850.36	227.17
850.67	227.29
850.98	227.30
851.30	227.37
851.61	227.33
851.92	227.32
852.23	227.46
852.55	227.58
852.86	227.54
853.17	227.63
853.49	227.78
853.80	227.85
854.11	227.90
854.42	227.94
854.74	227.91
855.05	227.89
855.36	227.60
855.67	227.64
855.99	227.66
856.30	228.23
856.61	228.21
856.92	228.15
857.23	228.10
857.55	228.03
857.86	227.92
858.17	227.99
858.48	227.94
858.79	227.75
859.11	227.72
859.42	227.75
859.73	227.68
860.04	227.62
860.35	227.54
860.66	227.36
860.98	227.35
861.29	227.44
861.60	227.40
861.91	227.44
862.22	227.38
862.53	227.29
862.84	226.72
863.16	226.83
863.47	226.72
863.78	226.69
864.09	226.80
864.40	226.82
864.71	226.79
865.02	226.86
865.33	226.93
865.64	226.85
865.95	226.85
866.27	227.16
866.58	227.15
866.89	227.11
867.20	227.08
867.51	227.02
867.82	226.96
868.13	227.12
868.44	227.13
868.75	227.20
869.06	227.27
869.37	227.38
869.68	227.29
869.99	227.48
870.30	227.50
870.61	227.52
870.92	227.44
871.23	227.42
871.54	227.47
871.85	227.60
872.16	227.67
872.47	227.64
872.78	227.38
873.09	227.42
873.40	227.41
873.71	227.45
874.02	227.52
874.33	227.50
874.64	227.33
874.95	227.42
875.26	227.33
875.56	227.34
875.87	227.27
876.18	227.25
876.49	227.68
876.80	227.68
877.11	227.54
877.42	227.60
877.73	227.65
878.04	227.58
878.35	227.53
878.66	227.55
878.96	227.51
879.27	227.48
879.58	227.41
879.89	227.41
880.20	227.57
880.51	227.49
880.82	227.51
881.12	227.60
881.43	227.49
881.74	227.52
882.05	227.37
882.36	227.47
882.67	227.41
882.97	226.90
883.28	226.82
883.59	226.85
883.90	226.90
884.21	226.91
884.51	226.87
884.82	226.77
885.13	226.80
885.44	226.84
885.74	226.82
886.05	226.87
886.36	226.83
886.67	226.66
886.98	226.85
887.28	226.88
887.59	226.87
887.90	226.90
888.20	226.85
888.51	226.98
888.82	226.86
889.13	226.98
889.43	227.37
889.74	227.43
890.05	227.42
890.35	227.41
890.66	227.36
890.97	227.35
891.28	227.33
891.58	227.31
891.89	227.32
892.20	227.24
892.50	227.08
892.81	227.10
893.12	227.11
893.42	226.89
893.73	226.89
894.04	226.87
894.34	226.93
894.65	226.92
894.95	226.88
895.26	226.89
895.57	227.04
895.87	226.55
896.18	226.57
896.48	226.64
896.79	226.55
897.10	226.61
897.40	226.57
897.71	226.63
898.01	226.57
898.32	226.54
898.63	226.55
898.93	226.63
899.24	226.70
899.54	226.65
899.85	226.62
900.15	226.58
900.46	226.57
900.76	226.52
901.07	226.45
901.38	226.40
901.68	226.45
901.99	226.21
902.29	226.31
902.60	226.19
902.90	226.07
903.21	226.15
903.51	226.06
903.82	226.15
904.12	226.12
904.43	226.14
904.73	226.17
905.03	226.19
905.34	226.68
905.64	226.58
905.95	226.58
906.25	226.67
906.56	226.66
906.86	226.64
907.17	226.66
907.47	226.78
907.77	226.82
908.08	226.77
908.38	226.82
908.69	226.84
908.99	226.97
909.30	227.06
909.60	227.06
909.90	227.11
910.21	227.04
910.51	226.99
910.81	227.03
911.12	227.00
911.42	227.01
911.73	226.50
912.03	226.49
912.33	226.65
912.64	226.62
912.94	226.53
913.24	226.50
913.55	226.49
913.85	226.51
914.15	226.66
914.46	226.67
914.76	226.66
915.06	226.60
915.37	226.50
915.67	226.49
915.97	226.42
916.27	226.39
916.58	226.38
916.88	226.38
917.18	226.38
917.49	226.74
917.79	226.73
918.09	226.80
918.39	227.00
918.70	226.91
919.00	226.94
919.30	227.22
919.60	227.19
919.91	227.15
920.21	227.11
920.51	226.92
920.81	226.91
921.12	226.98
921.42	227.05
921.72	227.08
922.02	227.06
922.32	227.20
922.63	227.13
922.93	227.36
923.23	227.44
923.53	227.34
923.83	227.02
924.13	227.09
924.44	227.06
924.74	227.12
925.04	227.25
925.34	227.26
925.64	227.11
925.94	227.14
926.24	227.43
926.55	227.35
926.85	227.48
927.15	227.46
927.45	227.43
927.75	227.45
928.05	227.46
928.35	227.45
928.65	227.42
928.95	227.50
929.26	227.34
929.56	227.38
929.86	227.45
930.16	227.41
930.46	227.31
930.76	227.41
931.06	227.21
931.36	227.07
931.66	227.07
931.96	227.09
932.26	227.16
932.56	226.93
932.86	227.04
933.16	226.97
933.46	226.97
933.76	226.90
934.06	226.90
934.36	227.10
934.66	227.14
934.96	227.13
935.26	227.17
935.56	227.23
935.86	227.16
936.16	227.02
936.46	227.00
936.76	227.01
937.06	226.92
937.36	226.93
937.66	226.95
937.96	227.00
938.26	226.91
938.56	226.79
938.86	226.77
939.16	226.82
939.46	226.89
939.76	226.93
940.06	226.98
940.35	226.89
940.65	226.63
940.95	226.66
941.25	226.60
941.55	226.46
941.85	226.41
942.15	226.45
942.45	226.66
942.75	226.62
943.04	226.65
943.34	226.58
943.64	226.51
943.94	226.39
944.24	226.37
944.54	226.45
944.84	226.49
945.13	226.47
945.43	226.45
945.73	226.37
946.03	226.26
946.33	226.12
946.62	226.12
946.92	226.10
947.22	226.07
947.52	226.02
947.82	226.18
948.11	226.12
948.41	226.07
948.71	225.92
949.01	225.95
949.31	225.88
949.60	225.91
949.90	225.94
950.20	225.95
950.50	225.91
950.79	225.83
951.09	225.87
951.39	225.77
951.69	225.68
951.98	225.84
952.28	225.90
952.58	225.91
952.87	225.90
953.17	226.04
953.47	225.97
953.76	225.96
954.06	225.80
954.36	225.75
954.66	225.73
954.95	225.92
955.25	225.97
955.55	225.97
955.84	225.84
956.14	225.90
956.44	225.92
956.73	225.83
957.03	225.87
957.32	225.87
957.62	225.92
957.92	226.06
958.21	225.96
958.51	226.47
958.81	226.55
959.10	226.62
959.40	226.65
959.69	226.69
959.99	226.75
960.29	226.75
960.58	226.74
960.88	226.93
961.17	226.90
961.47	226.93
961.76	226.96
962.06	227.06
962.36	227.02
962.65	227.02
962.95	227.14
963.24	227.08
963.54	227.15
963.83	227.22
964.13	227.13
964.42	226.97
964.72	226.57
965.01	226.55
965.31	226.51
965.60	226.44
965.90	226.74
966.19	226.72
966.49	226.77
966.78	226.79
967.08	226.68
967.37	226.60
967.67	226.54
967.96	226.64
968.26	226.65
968.55	226.82
968.85	226.83
969.14	226.70
969.43	226.75
969.73	226.63
970.02	226.54
970.32	226.47
970.61	226.50
970.91	226.39
971.20	226.38
971.49	226.35
971.79	226.39
972.08	226.09
972.38	226.08
972.67	226.04
972.96	226.17
973.26	226.12
973.55	226.29
973.85	226.27
974.14	226.21
974.43	226.25
974.73	226.05
975.02	226.01
975.31	226.04
975.61	226.06
975.90	226.10
976.19	226.11
976.49	226.16
976.78	226.12
977.07	226.13
977.37	226.10
977.66	226.23
977.95	226.19
978.24	226.20
978.54	226.25
978.83	226.26
979.12	226.16
979.42	226.15
979.71	226.00
980.00	225.98
980.29	226.01
980.59	225.95
980.88	226.14
981.17	226.15
981.46	226.18
981.76	226.15
982.05	226.23
982.34	226.29
982.63	226.30
982.93	226.36
983.22	226.56
983.51	226.65
983.80	226.64
984.09	226.69
984.39	226.67
984.68	226.66
984.97	226.71
985.26	226.66
985.55	226.73
985.85	226.67
986.14	226.79
986.43	226.77
986.72	226.73
987.01	226.48
987.30	226.48
987.59	226.46
987.89	226.48
988.18	226.35
988.47	226.27
988.76	226.29
989.05	226.28
989.34	226.12
989.63	226.22
989.92	226.18
990.22	226.07
990.51	226.06
990.80	225.98
991.09	225.97
991.38	226.03
991.67	225.95
991.96	225.97
992.25	225.98
992.54	225.99
992.83	225.96
993.12	225.99
993.41	226.04
993.70	226.20
993.99	226.27
994.28	226.37
994.58	226.46
994.87	226.37
995.16	226.39
995.45	226.37
995.74	226.19
996.03	226.24
996.32	226.37
996.61	226.45
996.90	226.51
997.19	226.46
997.48	226.44
997.77	226.37
998.06	226.32
998.34	226.24
998.63	226.18
998.92	226.25
999.21	226.34
999.50	226.38
999.79	226.17
1000.08	226.10
1000.37	226.06
1000.66	226.07
1000.95	226.17
1001.24	226.22
1001.53	226.33
1001.82	226.26
1002.11	226.14
1002.40	226.07
1002.68	226.22
1002.97	226.55
1003.26	226.52
1003.55	226.56
1003.84	226.67
1004.13	226.82
1004.42	226.89
1004.71	226.92
1004.99	226.86
1005.28	227.04
1005.57	226.95
1005.86	226.97
1006.15	226.97
1006.44	226.88
1006.72	226.86
1007.01	226.76
1007.30	226.77
1007.59	226.65
1007.88	226.71
1008.17	226.74
1008.45	226.64
1008.74	226.49
1009.03	226.25
1009.32	226.27
1009.60	226.20
1009.89	226.19
1010.18	226.00
1010.47	225.95
1010.76	225.94
1011.04	225.95
1011.33	225.88
1011.62	225.95
1011.91	226.04
1012.19	226.02
1012.48	226.08
1012.77	226.14
1013.05	226.36
1013.34	226.32
1013.63	226.35
1013.92	226.39
1014.20	226.33
1014.49	226.45
1014.78	226.41
1015.06	226.24
1015.35	226.21
1015.64	226.32
1015.92	226.37
1016.21	226.38
1016.50	226.41
1016.78	226.45
1017.07	226.54
1017.36	226.48
1017.64	226.41
1017.93	226.39
1018.22	226.34
1018.50	226.25
1018.79	226.19
1019.08	225.97
1019.36	225.91
1019.65	225.82
1019.93	225.96
1020.22	226.02
1020.51	226.29
1020.79	226.27
1021.08	224.60
1021.36	224.10
1021.65	226.20
1021.94	225.25
1022.22	224.85
1022.51	224.85
1022.79	228.85
1023.08	226.00
1023.36	232.95
1023.65	225.40
>>>>>End Processed Spectral Data<<<<<
