SpectraSuite Data File
++++++++++++++++++++++++++++++++++++
Date: Wed Sep 04 17:55:11 EDT 2013
User: lab3
Dark Spectrum Present: Yes
Reference Spectrum Present: No
Number of Sampled Component Spectra: 1
Spectrometers: USB2E7196
Integration Time (usec): 170000 (USB2E7196)
Spectra Averaged: 20 (USB2E7196)
Boxcar Smoothing: 10 (USB2E7196)
Correct for Electrical Dark: No (USB2E7196)
Strobe/Lamp Enabled: No (USB2E7196)
Correct for Detector Non-linearity: No (USB2E7196)
Correct for Stray Light: No (USB2E7196)
Number of Pixels in Processed Spectrum: 2048
>>>>>Begin Processed Spectral Data<<<<<
339.09	0.00
339.48	212.65
339.86	215.20
340.24	216.20
340.63	216.60
341.01	225.60
341.39	220.05
341.78	222.85
342.16	224.55
342.54	223.70
342.93	212.34
343.31	222.96
343.69	223.57
344.07	224.01
344.46	224.49
344.84	224.91
345.22	224.86
345.60	225.20
345.99	225.36
346.37	225.46
346.75	225.55
347.13	225.62
347.52	225.67
347.90	225.92
348.28	225.93
348.66	226.01
349.05	225.96
349.43	226.05
349.81	226.11
350.19	226.17
350.57	226.28
350.96	226.40
351.34	226.58
351.72	226.64
352.10	226.70
352.48	226.67
352.87	226.72
353.25	226.81
353.63	226.79
354.01	226.84
354.39	226.89
354.77	227.00
355.15	227.15
355.54	227.19
355.92	227.08
356.30	227.16
356.68	227.58
357.06	227.57
357.44	227.52
357.82	227.59
358.20	228.11
358.58	228.14
358.97	228.18
359.35	228.36
359.73	228.52
360.11	228.60
360.49	228.74
360.87	228.77
361.25	228.90
361.63	229.10
362.01	229.16
362.39	229.14
362.77	229.19
363.15	229.22
363.53	229.29
363.91	229.40
364.29	229.39
364.67	229.00
365.05	229.13
365.43	229.28
365.81	229.38
366.19	229.22
366.57	229.36
366.95	229.40
367.33	229.31
367.71	229.31
368.09	229.43
368.47	229.39
368.85	229.38
369.23	229.47
369.61	229.32
369.99	229.48
370.37	229.55
370.75	229.86
371.13	229.72
371.51	229.65
371.89	229.68
372.27	229.62
372.65	229.59
373.03	229.60
373.41	229.46
373.78	229.35
374.16	229.06
374.54	228.89
374.92	228.82
375.30	228.68
375.68	228.49
376.06	228.41
376.44	228.38
376.82	228.38
377.19	228.25
377.57	228.17
377.95	227.90
378.33	227.80
378.71	227.33
379.09	227.31
379.47	227.32
379.84	227.19
380.22	227.16
380.60	226.97
380.98	226.81
381.36	226.87
381.73	226.76
382.11	226.74
382.49	226.71
382.87	226.55
383.25	226.53
383.62	227.04
384.00	226.88
384.38	226.81
384.76	226.83
385.13	226.97
385.51	226.92
385.89	226.82
386.27	226.75
386.64	226.77
387.02	226.68
387.40	226.57
387.78	226.47
388.15	226.43
388.53	226.43
388.91	226.40
389.29	226.29
389.66	226.46
390.04	226.43
390.42	226.51
390.79	226.56
391.17	226.60
391.55	226.06
391.92	226.11
392.30	226.14
392.68	226.03
393.05	226.01
393.43	226.11
393.81	226.17
394.18	226.16
394.56	226.18
394.94	226.30
395.31	226.26
395.69	226.45
396.06	226.58
396.44	226.63
396.82	226.64
397.19	226.89
397.57	226.86
397.95	226.94
398.32	226.86
398.70	226.95
399.07	227.15
399.45	227.22
399.82	227.29
400.20	227.33
400.58	227.47
400.95	227.38
401.33	227.52
401.70	227.99
402.08	228.11
402.45	228.27
402.83	228.53
403.20	228.72
403.58	228.79
403.95	229.03
404.33	229.27
404.71	229.48
405.08	229.92
405.46	230.14
405.83	230.45
406.21	230.72
406.58	231.00
406.96	231.24
407.33	231.60
407.70	232.02
408.08	232.77
408.45	233.24
408.83	233.80
409.20	234.20
409.58	234.33
409.95	234.96
410.33	235.54
410.70	235.90
411.08	236.59
411.45	237.25
411.82	237.78
412.20	238.56
412.57	239.64
412.95	240.02
413.32	240.89
413.69	241.72
414.07	242.59
414.44	243.55
414.82	244.50
415.19	245.76
415.56	246.94
415.94	248.01
416.31	249.37
416.68	250.73
417.06	252.32
417.43	254.00
417.81	255.81
418.18	257.58
418.55	259.57
418.93	261.55
419.30	263.70
419.67	266.00
420.04	268.26
420.42	270.49
420.79	273.59
421.16	276.36
421.54	279.45
421.91	282.48
422.28	285.60
422.66	288.91
423.03	292.37
423.40	295.68
423.77	299.28
424.15	302.98
424.52	306.69
424.89	310.90
425.26	314.98
425.64	318.68
426.01	322.83
426.38	327.24
426.75	331.74
427.13	336.37
427.50	340.97
427.87	345.83
428.24	350.71
428.61	355.12
428.99	360.47
429.36	365.73
429.73	371.15
430.10	376.67
430.47	382.39
430.85	387.92
431.22	394.05
431.59	400.79
431.96	406.95
432.33	413.97
432.70	420.60
433.08	428.24
433.45	435.63
433.82	443.04
434.19	451.16
434.56	459.21
434.93	466.79
435.30	474.66
435.68	483.27
436.05	491.74
436.42	500.12
436.79	507.73
437.16	516.14
437.53	525.01
437.90	533.66
438.27	542.29
438.64	551.24
439.01	559.53
439.38	566.67
439.75	573.88
440.13	581.85
440.50	589.32
440.87	595.44
441.24	601.92
441.61	608.91
441.98	614.04
442.35	619.89
442.72	625.78
443.09	631.58
443.46	634.93
443.83	637.33
444.20	639.24
444.57	641.99
444.94	643.04
445.31	644.15
445.68	645.52
446.05	645.60
446.42	644.28
446.79	642.99
447.16	641.25
447.53	639.90
447.90	636.19
448.27	632.44
448.64	627.61
449.01	623.71
449.37	617.59
449.74	611.50
450.11	604.76
450.48	597.07
450.85	589.04
451.22	582.08
451.59	575.40
451.96	569.28
452.33	561.04
452.70	553.93
453.07	545.21
453.43	536.16
453.80	527.78
454.17	519.72
454.54	511.94
454.91	503.92
455.28	495.91
455.65	488.47
456.02	481.66
456.38	475.41
456.75	467.75
457.12	461.10
457.49	454.88
457.86	448.48
458.23	443.44
458.59	437.76
458.96	432.23
459.33	427.09
459.70	421.85
460.07	417.83
460.43	412.96
460.80	408.74
461.17	404.99
461.54	400.99
461.91	397.26
462.27	393.40
462.64	390.15
463.01	386.66
463.38	383.37
463.74	379.52
464.11	376.45
464.48	373.87
464.85	371.11
465.21	368.88
465.58	366.53
465.95	363.73
466.32	361.48
466.68	359.16
467.05	357.03
467.42	354.79
467.78	352.48
468.15	350.45
468.52	348.89
468.88	346.60
469.25	344.67
469.62	343.13
469.98	341.45
470.35	339.88
470.72	338.46
471.08	336.78
471.45	335.45
471.82	334.14
472.18	332.58
472.55	331.54
472.92	330.24
473.28	329.18
473.65	328.03
474.02	326.90
474.38	326.12
474.75	325.29
475.11	324.46
475.48	323.74
475.85	323.09
476.21	322.42
476.58	322.07
476.94	321.70
477.31	321.26
477.67	320.80
478.04	320.45
478.41	320.11
478.77	320.41
479.14	320.15
479.50	320.16
479.87	320.25
480.23	320.35
480.60	320.30
480.96	320.26
481.33	320.64
481.69	320.89
482.06	321.09
482.42	321.29
482.79	321.64
483.15	322.15
483.52	322.77
483.88	323.26
484.25	323.67
484.61	324.24
484.98	324.82
485.34	325.83
485.71	326.75
486.07	327.77
486.44	328.33
486.80	329.41
487.17	330.41
487.53	331.77
487.90	333.07
488.26	334.80
488.62	336.47
488.99	337.92
489.35	339.73
489.72	341.49
490.08	343.53
490.44	345.64
490.81	347.94
491.17	350.18
491.54	352.62
491.90	355.30
492.26	357.95
492.63	360.82
492.99	363.71
493.36	366.85
493.72	370.22
494.08	373.71
494.45	377.51
494.81	381.42
495.17	385.28
495.54	389.38
495.90	393.58
496.26	397.94
496.63	402.61
496.99	407.38
497.35	412.51
497.72	417.71
498.08	423.05
498.44	428.59
498.80	434.46
499.17	440.51
499.53	446.75
499.89	453.46
500.26	460.26
500.62	467.25
500.98	474.50
501.34	481.89
501.71	489.57
502.07	497.35
502.43	505.41
502.79	513.72
503.16	522.56
503.52	531.57
503.88	540.97
504.24	550.70
504.60	560.68
504.97	570.97
505.33	581.39
505.69	592.57
506.05	603.62
506.41	614.87
506.78	626.50
507.14	638.64
507.50	650.82
507.86	663.46
508.22	676.47
508.59	689.45
508.95	703.08
509.31	717.16
509.67	731.33
510.03	745.78
510.39	760.42
510.75	775.40
511.12	790.43
511.48	805.89
511.84	821.66
512.20	837.61
512.56	853.85
512.92	870.81
513.28	887.69
513.64	904.89
514.00	922.39
514.37	940.12
514.73	958.03
515.09	976.46
515.45	994.81
515.81	1013.05
516.17	1031.90
516.53	1050.39
516.89	1069.17
517.25	1088.47
517.61	1108.56
517.97	1129.02
518.33	1149.25
518.69	1169.60
519.05	1190.45
519.41	1210.95
519.77	1231.88
520.13	1252.52
520.49	1272.84
520.85	1294.87
521.21	1316.28
521.57	1337.48
521.93	1358.45
522.29	1379.69
522.65	1400.20
523.01	1421.21
523.37	1442.18
523.73	1463.18
524.09	1483.87
524.45	1504.35
524.81	1525.47
525.17	1546.15
525.53	1566.54
525.89	1587.26
526.25	1607.95
526.61	1628.02
526.97	1648.91
527.33	1670.48
527.68	1692.35
528.04	1713.96
528.40	1733.44
528.76	1754.10
529.12	1774.79
529.48	1795.53
529.84	1815.83
530.20	1837.01
530.56	1857.65
530.91	1878.39
531.27	1898.95
531.63	1919.39
531.99	1940.36
532.35	1960.09
532.71	1980.14
533.07	2000.74
533.42	2020.69
533.78	2040.89
534.14	2060.53
534.50	2079.46
534.86	2098.31
535.21	2116.30
535.57	2134.61
535.93	2152.68
536.29	2170.46
536.65	2188.22
537.00	2205.73
537.36	2223.32
537.72	2239.57
538.08	2256.70
538.44	2273.48
538.79	2289.73
539.15	2306.54
539.51	2322.37
539.87	2337.58
540.22	2351.54
540.58	2366.04
540.94	2378.94
541.29	2391.28
541.65	2404.09
542.01	2416.74
542.37	2427.20
542.72	2437.66
543.08	2448.39
543.44	2459.57
543.79	2469.74
544.15	2479.82
544.51	2490.02
544.87	2499.24
545.22	2508.24
545.58	2515.95
545.94	2523.00
546.29	2529.49
546.65	2535.55
547.01	2541.05
547.36	2546.80
547.72	2552.31
548.07	2556.33
548.43	2561.89
548.79	2566.53
549.14	2570.46
549.50	2574.20
549.86	2578.15
550.21	2582.39
550.57	2585.64
550.92	2587.75
551.28	2589.16
551.64	2591.32
551.99	2592.90
552.35	2594.64
552.70	2596.80
553.06	2598.62
553.41	2600.02
553.77	2601.91
554.13	2603.55
554.48	2605.15
554.84	2606.00
555.19	2607.24
555.55	2608.65
555.90	2607.66
556.26	2607.03
556.61	2605.52
556.97	2603.80
557.32	2603.21
557.68	2601.78
558.03	2600.20
558.39	2598.48
558.74	2597.52
559.10	2594.27
559.45	2590.73
559.81	2586.38
560.16	2581.14
560.52	2576.24
560.87	2571.72
561.23	2566.20
561.58	2560.50
561.94	2553.35
562.29	2546.42
562.64	2539.60
563.00	2531.52
563.35	2525.29
563.71	2518.70
564.06	2512.47
564.42	2505.72
564.77	2498.87
565.12	2491.21
565.48	2483.75
565.83	2476.12
566.19	2467.92
566.54	2460.26
566.89	2452.47
567.25	2444.75
567.60	2437.60
567.96	2429.69
568.31	2421.70
568.66	2413.22
569.02	2403.95
569.37	2395.79
569.72	2388.37
570.08	2378.92
570.43	2369.33
570.78	2360.26
571.14	2350.85
571.49	2340.74
571.84	2331.06
572.20	2320.20
572.55	2310.04
572.90	2299.00
573.26	2288.17
573.61	2277.20
573.96	2266.06
574.31	2253.63
574.67	2242.12
575.02	2229.19
575.37	2216.89
575.72	2203.83
576.08	2191.58
576.43	2179.21
576.78	2166.33
577.13	2152.38
577.49	2139.63
577.84	2127.92
578.19	2115.52
578.54	2102.81
578.90	2090.98
579.25	2078.76
579.60	2066.30
579.95	2053.27
580.30	2040.28
580.66	2027.24
581.01	2013.83
581.36	1999.93
581.71	1987.50
582.06	1974.16
582.42	1961.81
582.77	1948.89
583.12	1936.80
583.47	1924.69
583.82	1912.65
584.17	1900.54
584.53	1888.79
584.88	1876.19
585.23	1863.14
585.58	1848.96
585.93	1835.75
586.28	1822.29
586.63	1808.30
586.98	1794.01
587.34	1780.85
587.69	1767.34
588.04	1754.57
588.39	1742.22
588.74	1729.94
589.09	1717.90
589.44	1705.22
589.79	1693.13
590.14	1681.32
590.49	1669.08
590.84	1656.70
591.19	1644.37
591.54	1632.24
591.89	1619.93
592.25	1609.32
592.60	1597.68
592.95	1586.40
593.30	1574.45
593.65	1562.65
594.00	1550.81
594.35	1541.07
594.70	1529.21
595.05	1518.08
595.40	1506.06
595.75	1494.39
596.10	1483.20
596.45	1471.72
596.80	1460.97
597.15	1449.58
597.50	1437.80
597.85	1426.44
598.19	1414.91
598.54	1403.61
598.89	1392.25
599.24	1381.91
599.59	1370.36
599.94	1359.46
600.29	1349.16
600.64	1338.82
600.99	1328.00
601.34	1318.55
601.69	1307.42
602.04	1297.60
602.39	1287.85
602.74	1278.70
603.08	1269.35
603.43	1259.89
603.78	1250.14
604.13	1240.57
604.48	1230.78
604.83	1221.22
605.18	1211.36
605.53	1202.03
605.87	1192.76
606.22	1184.32
606.57	1175.07
606.92	1165.82
607.27	1156.92
607.62	1148.20
607.96	1139.71
608.31	1131.88
608.66	1123.45
609.01	1114.81
609.36	1106.47
609.70	1097.91
610.05	1089.36
610.40	1080.85
610.75	1072.40
611.10	1064.19
611.44	1055.52
611.79	1047.25
612.14	1039.39
612.49	1031.76
612.83	1024.03
613.18	1016.18
613.53	1008.40
613.88	1000.31
614.22	992.68
614.57	984.68
614.92	976.69
615.27	969.32
615.61	961.59
615.96	953.76
616.31	946.33
616.65	939.19
617.00	931.89
617.35	924.55
617.70	917.45
618.04	910.23
618.39	903.23
618.74	896.72
619.08	890.12
619.43	882.85
619.78	875.70
620.12	868.58
620.47	861.75
620.82	854.57
621.16	847.72
621.51	841.29
621.85	835.08
622.20	828.54
622.55	821.84
622.89	815.32
623.24	808.89
623.59	802.58
623.93	796.25
624.28	790.19
624.62	784.57
624.97	778.73
625.32	773.05
625.66	767.01
626.01	761.01
626.35	755.37
626.70	750.32
627.04	745.16
627.39	739.63
627.73	734.39
628.08	729.25
628.43	724.04
628.77	718.57
629.12	713.39
629.46	708.60
629.81	703.94
630.15	699.21
630.50	694.43
630.84	689.50
631.19	684.82
631.53	680.17
631.88	675.04
632.22	670.17
632.57	665.51
632.91	661.05
633.26	656.56
633.60	651.94
633.95	647.07
634.29	642.21
634.64	637.75
634.98	632.97
635.32	628.60
635.67	624.45
636.01	620.29
636.36	615.87
636.70	611.67
637.05	607.30
637.39	603.11
637.73	599.13
638.08	595.07
638.42	590.79
638.77	586.39
639.11	582.04
639.45	577.70
639.80	573.39
640.14	569.32
640.49	565.35
640.83	561.47
641.17	557.83
641.52	554.16
641.86	550.69
642.20	547.50
642.55	543.75
642.89	540.12
643.23	536.49
643.58	533.36
643.92	529.86
644.26	526.48
644.61	523.24
644.95	519.81
645.29	516.45
645.64	513.30
645.98	510.32
646.32	507.41
646.66	504.30
647.01	501.41
647.35	498.69
647.69	495.72
648.04	492.93
648.38	490.08
648.72	487.26
649.06	484.25
649.41	481.15
649.75	478.19
650.09	475.40
650.43	472.57
650.78	469.64
651.12	466.83
651.46	464.05
651.80	461.19
652.14	458.52
652.49	456.22
652.83	453.58
653.17	450.92
653.51	448.12
653.85	445.76
654.20	443.20
654.54	440.44
654.88	437.94
655.22	435.69
655.56	433.15
655.90	430.74
656.25	428.56
656.59	426.31
656.93	424.21
657.27	422.01
657.61	419.77
657.95	417.45
658.29	415.23
658.64	413.19
658.98	411.05
659.32	408.85
659.66	406.54
660.00	404.50
660.34	402.45
660.68	400.48
661.02	398.41
661.36	396.47
661.70	394.41
662.05	392.45
662.39	390.36
662.73	388.60
663.07	387.06
663.41	385.18
663.75	383.29
664.09	381.43
664.43	379.52
664.77	377.85
665.11	376.12
665.45	374.45
665.79	372.75
666.13	371.00
666.47	369.27
666.81	367.65
667.15	365.95
667.49	364.49
667.83	363.19
668.17	361.68
668.51	360.26
668.85	358.99
669.19	357.84
669.53	356.43
669.87	354.90
670.21	353.32
670.55	351.92
670.89	350.90
671.23	349.66
671.57	348.33
671.91	346.99
672.25	345.75
672.58	344.54
672.92	343.11
673.26	341.89
673.60	340.80
673.94	339.62
674.28	338.50
674.62	337.33
674.96	336.00
675.30	334.83
675.64	333.62
675.97	332.33
676.31	331.07
676.65	329.76
676.99	328.85
677.33	327.66
677.67	326.64
678.01	325.35
678.34	324.24
678.68	323.28
679.02	322.13
679.36	321.05
679.70	320.06
680.04	319.21
680.37	318.28
680.71	317.18
681.05	316.30
681.39	315.41
681.73	314.40
682.06	313.50
682.40	312.63
682.74	311.84
683.08	311.17
683.42	310.10
683.75	309.36
684.09	308.27
684.43	307.49
684.77	306.59
685.10	305.79
685.44	304.98
685.78	304.14
686.12	303.37
686.45	302.59
686.79	301.70
687.13	300.93
687.46	300.19
687.80	299.60
688.14	298.75
688.48	297.94
688.81	297.20
689.15	296.61
689.49	295.97
689.82	295.20
690.16	294.28
690.50	293.66
690.83	292.89
691.17	292.21
691.51	291.50
691.84	290.89
692.18	290.26
692.52	289.54
692.85	288.95
693.19	288.54
693.52	287.99
693.86	287.28
694.20	286.68
694.53	286.09
694.87	285.40
695.21	284.77
695.54	284.15
695.88	283.49
696.21	282.66
696.55	281.95
696.88	281.36
697.22	280.77
697.56	280.24
697.89	279.70
698.23	279.19
698.56	278.59
698.90	278.09
699.23	277.49
699.57	277.01
699.90	276.38
700.24	275.70
700.58	275.21
700.91	274.88
701.25	274.76
701.58	274.60
701.92	274.26
702.25	273.89
702.59	273.39
702.92	273.03
703.26	272.84
703.59	272.49
703.93	272.50
704.26	272.23
704.60	271.81
704.93	271.41
705.26	270.96
705.60	270.70
705.93	270.16
706.27	269.88
706.60	269.56
706.94	269.46
707.27	268.99
707.61	268.57
707.94	268.18
708.27	267.39
708.61	266.61
708.94	266.18
709.28	265.74
709.61	265.37
709.94	264.99
710.28	264.50
710.61	264.10
710.95	263.32
711.28	263.27
711.61	262.82
711.95	262.53
712.28	262.18
712.61	261.75
712.95	261.64
713.28	261.44
713.61	261.05
713.95	260.49
714.28	260.24
714.61	259.86
714.95	259.46
715.28	259.06
715.61	258.69
715.95	258.29
716.28	257.99
716.61	257.74
716.95	257.42
717.28	257.05
717.61	256.73
717.94	256.40
718.28	255.71
718.61	255.50
718.94	255.14
719.27	254.84
719.61	254.63
719.94	254.24
720.27	253.73
720.60	253.45
720.94	253.22
721.27	252.99
721.60	252.81
721.93	252.59
722.27	252.53
722.60	252.42
722.93	252.17
723.26	251.92
723.59	251.65
723.93	251.50
724.26	251.37
724.59	251.18
724.92	251.03
725.25	250.92
725.59	250.69
725.92	250.55
726.25	250.32
726.58	250.16
726.91	250.00
727.24	249.95
727.57	249.72
727.91	249.47
728.24	249.35
728.57	249.06
728.90	248.93
729.23	248.56
729.56	248.54
729.89	248.38
730.22	248.13
730.55	247.99
730.89	247.84
731.22	247.59
731.55	247.37
731.88	247.14
732.21	246.85
732.54	246.65
732.87	246.43
733.20	246.27
733.53	245.98
733.86	245.76
734.19	245.47
734.52	245.44
734.85	245.57
735.18	245.28
735.51	245.40
735.84	245.23
736.17	245.25
736.50	244.87
736.83	245.31
737.16	245.20
737.49	245.06
737.82	244.79
738.15	244.72
738.48	244.51
738.81	244.38
739.14	244.22
739.47	244.03
739.80	243.88
740.13	243.82
740.46	243.69
740.79	243.44
741.12	243.25
741.45	242.98
741.78	242.60
742.11	242.58
742.44	242.24
742.77	242.12
743.10	241.88
743.43	241.67
743.75	240.93
744.08	241.36
744.41	241.17
744.74	241.00
745.07	240.78
745.40	240.77
745.73	240.80
746.06	240.68
746.39	240.63
746.71	240.47
747.04	240.27
747.37	240.11
747.70	240.06
748.03	240.03
748.36	239.92
748.68	239.81
749.01	239.60
749.34	239.45
749.67	239.30
750.00	239.27
750.33	239.62
750.65	239.62
750.98	238.98
751.31	238.85
751.64	238.76
751.97	238.88
752.29	238.74
752.62	238.39
752.95	238.30
753.28	238.16
753.60	238.09
753.93	238.13
754.26	238.10
754.59	237.93
754.91	237.75
755.24	237.77
755.57	237.71
755.90	237.62
756.22	237.56
756.55	237.50
756.88	237.37
757.20	236.92
757.53	236.66
757.86	236.51
758.19	236.45
758.51	236.40
758.84	236.09
759.17	235.95
759.49	235.95
759.82	236.05
760.15	236.03
760.47	235.93
760.80	235.70
761.13	235.64
761.45	235.59
761.78	235.54
762.11	235.37
762.43	235.26
762.76	235.12
763.08	235.13
763.41	235.05
763.74	235.00
764.06	234.87
764.39	234.86
764.71	234.81
765.04	234.79
765.37	234.61
765.69	234.57
766.02	234.46
766.34	234.37
766.67	234.12
767.00	234.08
767.32	234.26
767.65	234.47
767.97	234.41
768.30	234.40
768.62	234.32
768.95	234.24
769.27	234.15
769.60	234.20
769.92	234.01
770.25	233.87
770.57	233.72
770.90	233.66
771.22	233.55
771.55	233.52
771.87	233.47
772.20	233.46
772.52	233.77
772.85	234.35
773.17	234.27
773.50	234.13
773.82	234.01
774.15	233.74
774.47	233.40
774.80	233.24
775.12	233.11
775.45	233.06
775.77	233.04
776.09	232.98
776.42	232.90
776.74	233.01
777.07	232.99
777.39	232.89
777.72	232.84
778.04	232.83
778.36	232.70
778.69	232.61
779.01	232.59
779.33	232.11
779.66	231.50
779.98	231.51
780.31	231.47
780.63	231.63
780.95	231.68
781.28	231.63
781.60	231.58
781.92	231.56
782.25	231.50
782.57	231.45
782.89	231.38
783.22	231.29
783.54	231.10
783.86	230.97
784.19	230.94
784.51	231.01
784.83	230.90
785.16	230.89
785.48	230.82
785.80	230.77
786.12	230.80
786.45	230.78
786.77	230.64
787.09	230.63
787.42	230.44
787.74	230.32
788.06	230.28
788.38	230.22
788.71	230.06
789.03	230.11
789.35	230.09
789.67	229.96
789.99	229.89
790.32	229.77
790.64	229.84
790.96	230.20
791.28	230.00
791.61	229.98
791.93	229.92
792.25	229.90
792.57	230.23
792.89	230.11
793.21	230.14
793.54	230.12
793.86	230.09
794.18	230.13
794.50	230.08
794.82	230.07
795.14	230.15
795.47	230.27
795.79	230.16
796.11	230.01
796.43	230.03
796.75	230.02
797.07	230.09
797.39	230.04
797.71	229.67
798.04	229.70
798.36	229.74
798.68	229.72
799.00	229.73
799.32	229.42
799.64	229.50
799.96	229.43
800.28	229.52
800.60	229.44
800.92	229.40
801.24	229.33
801.56	229.32
801.89	229.25
802.21	229.21
802.53	229.16
802.85	229.25
803.17	229.50
803.49	229.40
803.81	229.33
804.13	229.29
804.45	229.24
804.77	229.23
805.09	229.18
805.41	229.10
805.73	229.15
806.05	229.05
806.37	229.02
806.69	228.96
807.01	228.92
807.33	229.01
807.65	228.87
807.97	229.05
808.28	229.03
808.60	228.98
808.92	228.94
809.24	229.18
809.56	229.09
809.88	228.81
810.20	228.87
810.52	228.97
810.84	228.87
811.16	228.75
811.48	228.74
811.80	228.86
812.12	228.89
812.43	228.91
812.75	228.91
813.07	228.84
813.39	228.90
813.71	228.82
814.03	228.75
814.35	228.70
814.67	228.53
814.98	228.45
815.30	228.43
815.62	228.33
815.94	228.10
816.26	228.29
816.58	228.26
816.89	228.26
817.21	228.14
817.53	228.19
817.85	228.30
818.17	228.23
818.48	228.07
818.80	228.13
819.12	227.98
819.44	227.84
819.76	227.81
820.07	227.75
820.39	227.64
820.71	227.69
821.03	227.69
821.34	227.60
821.66	227.68
821.98	227.75
822.30	227.77
822.61	228.03
822.93	227.81
823.25	227.83
823.57	227.80
823.88	227.85
824.20	227.82
824.52	227.80
824.83	227.78
825.15	227.67
825.47	227.62
825.79	227.65
826.10	227.69
826.42	227.63
826.74	227.64
827.05	227.62
827.37	227.59
827.69	227.55
828.00	227.56
828.32	227.56
828.64	227.45
828.95	227.72
829.27	227.46
829.58	227.41
829.90	227.38
830.22	227.31
830.53	227.21
830.85	227.21
831.17	227.12
831.48	227.15
831.80	227.14
832.11	227.09
832.43	227.04
832.75	227.00
833.06	227.32
833.38	227.23
833.69	227.24
834.01	227.22
834.32	227.22
834.64	227.16
834.96	227.11
835.27	227.13
835.59	226.90
835.90	226.80
836.22	226.84
836.53	226.81
836.85	226.80
837.16	227.33
837.48	227.29
837.79	227.42
838.11	227.41
838.42	227.54
838.74	227.60
839.05	227.57
839.37	227.53
839.68	227.23
840.00	227.24
840.31	227.38
840.63	227.35
840.94	227.25
841.26	227.30
841.57	227.32
841.88	227.31
842.20	227.30
842.51	227.32
842.83	227.30
843.14	227.71
843.46	227.77
843.77	227.43
844.08	227.44
844.40	227.29
844.71	227.30
845.03	227.19
845.34	227.17
845.65	227.16
845.97	227.20
846.28	227.28
846.60	227.32
846.91	227.20
847.22	227.20
847.54	227.30
847.85	227.25
848.16	227.24
848.48	227.18
848.79	227.37
849.10	227.45
849.42	227.57
849.73	227.15
850.04	227.12
850.36	227.00
850.67	227.11
850.98	227.17
851.30	227.23
851.61	227.23
851.92	227.25
852.23	227.33
852.55	227.39
852.86	227.30
853.17	227.31
853.49	227.41
853.80	227.52
854.11	227.63
854.42	227.76
854.74	227.70
855.05	227.83
855.36	227.54
855.67	227.52
855.99	227.50
856.30	228.01
856.61	228.03
856.92	228.08
857.23	228.04
857.55	228.04
857.86	227.98
858.17	228.07
858.48	227.95
858.79	227.93
859.11	227.95
859.42	227.97
859.73	227.91
860.04	227.83
860.35	227.67
860.66	227.50
860.98	227.44
861.29	227.45
861.60	227.31
861.91	227.43
862.22	227.31
862.53	227.22
862.84	226.67
863.16	226.75
863.47	226.61
863.78	226.55
864.09	226.50
864.40	226.56
864.71	226.50
865.02	226.60
865.33	226.51
865.64	226.46
865.95	226.53
866.27	226.82
866.58	226.80
866.89	226.85
867.20	226.93
867.51	226.84
867.82	226.84
868.13	227.05
868.44	226.95
868.75	227.11
869.06	227.11
869.37	227.18
869.68	227.07
869.99	227.19
870.30	227.21
870.61	227.29
870.92	227.16
871.23	227.12
871.54	227.15
871.85	227.27
872.16	227.28
872.47	227.15
872.78	226.89
873.09	226.94
873.40	226.85
873.71	226.84
874.02	226.89
874.33	226.86
874.64	226.68
874.95	226.85
875.26	226.79
875.56	226.77
875.87	226.71
876.18	226.70
876.49	227.20
876.80	227.19
877.11	227.11
877.42	227.13
877.73	227.15
878.04	227.15
878.35	227.18
878.66	227.19
878.96	227.20
879.27	227.21
879.58	227.20
879.89	227.25
880.20	227.37
880.51	227.37
880.82	227.40
881.12	227.47
881.43	227.28
881.74	227.14
882.05	227.12
882.36	227.22
882.67	227.19
882.97	226.64
883.28	226.53
883.59	226.54
883.90	226.63
884.21	226.70
884.51	226.63
884.82	226.51
885.13	226.53
885.44	226.54
885.74	226.52
886.05	226.46
886.36	226.41
886.67	226.19
886.98	226.36
887.28	226.38
887.59	226.39
887.90	226.39
888.20	226.44
888.51	226.57
888.82	226.43
889.13	226.57
889.43	226.94
889.74	226.94
890.05	226.86
890.35	226.78
890.66	226.70
890.97	226.65
891.28	226.58
891.58	226.54
891.89	226.50
892.20	226.45
892.50	226.45
892.81	226.49
893.12	226.48
893.42	226.28
893.73	226.30
894.04	226.21
894.34	226.28
894.65	226.27
894.95	226.15
895.26	226.21
895.57	226.29
895.87	225.84
896.18	226.00
896.48	226.10
896.79	226.03
897.10	226.08
897.40	226.08
897.71	226.11
898.01	226.11
898.32	226.21
898.63	226.20
898.93	226.22
899.24	226.24
899.54	226.26
899.85	226.30
900.15	226.22
900.46	226.20
900.76	226.25
901.07	226.23
901.38	226.32
901.68	226.40
901.99	226.28
902.29	226.35
902.60	226.31
902.90	226.26
903.21	226.31
903.51	226.30
903.82	226.43
904.12	226.53
904.43	226.49
904.73	226.45
905.03	226.51
905.34	226.99
905.64	226.95
905.95	227.01
906.25	226.95
906.56	227.07
906.86	227.19
907.17	227.17
907.47	227.20
907.77	227.09
908.08	226.93
908.38	226.90
908.69	226.92
908.99	226.99
909.30	227.00
909.60	227.02
909.90	227.03
910.21	226.91
910.51	226.74
910.81	226.81
911.12	226.85
911.42	226.82
911.73	226.34
912.03	226.35
912.33	226.35
912.64	226.40
912.94	226.31
913.24	226.19
913.55	226.06
913.85	226.04
914.15	226.16
914.46	226.22
914.76	226.19
915.06	226.13
915.37	226.04
915.67	226.05
915.97	226.06
916.27	225.98
916.58	226.00
916.88	226.02
917.18	225.95
917.49	226.29
917.79	226.21
918.09	226.22
918.39	226.34
918.70	226.33
919.00	226.34
919.30	226.51
919.60	226.48
919.91	226.50
920.21	226.48
920.51	226.31
920.81	226.27
921.12	226.40
921.42	226.40
921.72	226.37
922.02	226.36
922.32	226.39
922.63	226.44
922.93	226.66
923.23	226.74
923.53	226.71
923.83	226.38
924.13	226.51
924.44	226.44
924.74	226.55
925.04	226.63
925.34	226.51
925.64	226.29
925.94	226.27
926.24	226.54
926.55	226.48
926.85	226.61
927.15	226.60
927.45	226.55
927.75	226.57
928.05	226.61
928.35	226.59
928.65	226.75
928.95	226.78
929.26	226.57
929.56	226.70
929.86	226.75
930.16	226.69
930.46	226.69
930.76	226.76
931.06	226.48
931.36	226.43
931.66	226.57
931.96	226.70
932.26	226.82
932.56	226.58
932.86	226.70
933.16	226.69
933.46	226.68
933.76	226.64
934.06	226.72
934.36	226.85
934.66	226.81
934.96	226.67
935.26	226.69
935.56	226.81
935.86	226.61
936.16	226.67
936.46	226.64
936.76	226.59
937.06	226.50
937.36	226.59
937.66	226.57
937.96	226.56
938.26	226.47
938.56	226.42
938.86	226.51
939.16	226.65
939.46	226.67
939.76	226.74
940.06	226.73
940.35	226.64
940.65	226.41
940.95	226.53
941.25	226.46
941.55	226.38
941.85	226.31
942.15	226.46
942.45	226.49
942.75	226.49
943.04	226.50
943.34	226.74
943.64	226.70
943.94	226.67
944.24	226.70
944.54	226.69
944.84	226.70
945.13	226.68
945.43	226.59
945.73	226.56
946.03	226.55
946.33	226.51
946.62	226.48
946.92	226.54
947.22	226.52
947.52	226.56
947.82	226.65
948.11	226.63
948.41	226.50
948.71	226.42
949.01	226.45
949.31	226.40
949.60	226.27
949.90	226.38
950.20	226.38
950.50	226.35
950.79	226.27
951.09	226.35
951.39	226.28
951.69	226.20
951.98	226.25
952.28	226.27
952.58	226.25
952.87	226.21
953.17	226.26
953.47	226.21
953.76	226.12
954.06	226.01
954.36	225.88
954.66	225.87
954.95	225.95
955.25	225.97
955.55	226.00
955.84	225.93
956.14	225.90
956.44	225.88
956.73	225.84
957.03	225.94
957.32	225.82
957.62	225.85
957.92	225.93
958.21	225.97
958.51	226.46
958.81	226.50
959.10	226.61
959.40	226.72
959.69	226.75
959.99	226.90
960.29	226.97
960.58	227.01
960.88	227.22
961.17	227.18
961.47	227.16
961.76	227.09
962.06	227.16
962.36	227.07
962.65	227.11
962.95	227.12
963.24	227.10
963.54	227.18
963.83	227.09
964.13	226.99
964.42	226.85
964.72	226.41
965.01	226.44
965.31	226.38
965.60	226.14
965.90	226.48
966.19	226.34
966.49	226.33
966.78	226.21
967.08	226.09
967.37	226.10
967.67	226.06
967.96	226.20
968.26	226.15
968.55	226.28
968.85	226.26
969.14	226.23
969.43	226.16
969.73	226.11
970.02	226.16
970.32	226.20
970.61	226.23
970.91	226.12
971.20	226.03
971.49	225.97
971.79	226.11
972.08	225.72
972.38	225.80
972.67	225.85
972.96	226.07
973.26	226.03
973.55	226.17
973.85	226.19
974.14	226.17
974.43	226.26
974.73	226.10
975.02	226.01
975.31	226.05
975.61	226.12
975.90	226.12
976.19	226.15
976.49	226.18
976.78	226.17
977.07	226.26
977.37	226.30
977.66	226.36
977.95	226.28
978.24	226.37
978.54	226.46
978.83	226.38
979.12	226.34
979.42	226.36
979.71	226.28
980.00	226.22
980.29	226.26
980.59	226.14
980.88	226.28
981.17	226.35
981.46	226.34
981.76	226.35
982.05	226.43
982.34	226.47
982.63	226.46
982.93	226.49
983.22	226.54
983.51	226.55
983.80	226.64
984.09	226.77
984.39	226.73
984.68	226.60
984.97	226.60
985.26	226.58
985.55	226.60
985.85	226.46
986.14	226.50
986.43	226.52
986.72	226.52
987.01	226.39
987.30	226.47
987.59	226.38
987.89	226.39
988.18	226.28
988.47	226.20
988.76	226.14
989.05	226.07
989.34	226.02
989.63	226.13
989.92	226.04
990.22	225.93
990.51	225.86
990.80	225.83
991.09	225.86
991.38	225.85
991.67	225.72
991.96	225.71
992.25	225.76
992.54	225.70
992.83	225.65
993.12	225.62
993.41	225.67
993.70	225.84
993.99	225.90
994.28	225.98
994.58	226.05
994.87	226.00
995.16	226.08
995.45	225.95
995.74	225.79
996.03	225.84
996.32	225.92
996.61	226.03
996.90	226.03
997.19	226.03
997.48	226.02
997.77	225.99
998.06	226.01
998.34	225.95
998.63	225.86
998.92	225.89
999.21	225.95
999.50	225.84
999.79	225.67
1000.08	225.60
1000.37	225.53
1000.66	225.43
1000.95	225.57
1001.24	225.53
1001.53	225.62
1001.82	225.65
1002.11	225.56
1002.40	225.58
1002.68	225.73
1002.97	226.10
1003.26	226.06
1003.55	225.97
1003.84	226.04
1004.13	226.22
1004.42	226.20
1004.71	226.16
1004.99	226.17
1005.28	226.30
1005.57	226.30
1005.86	226.37
1006.15	226.30
1006.44	226.24
1006.72	226.39
1007.01	226.28
1007.30	226.23
1007.59	226.25
1007.88	226.24
1008.17	226.27
1008.45	226.13
1008.74	225.87
1009.03	225.57
1009.32	225.54
1009.60	225.64
1009.89	225.62
1010.18	225.37
1010.47	225.37
1010.76	225.42
1011.04	225.50
1011.33	225.58
1011.62	225.64
1011.91	225.67
1012.19	225.80
1012.48	225.86
1012.77	225.79
1013.05	226.03
1013.34	226.08
1013.63	226.03
1013.92	226.09
1014.20	226.08
1014.49	226.13
1014.78	226.22
1015.06	226.16
1015.35	226.20
1015.64	226.27
1015.92	226.41
1016.21	226.50
1016.50	226.53
1016.78	226.61
1017.07	226.56
1017.36	226.41
1017.64	226.36
1017.93	226.46
1018.22	226.40
1018.50	226.42
1018.79	226.40
1019.08	226.15
1019.36	226.22
1019.65	226.18
1019.93	226.29
1020.22	226.38
1020.51	226.71
1020.79	226.64
1021.08	226.00
1021.36	225.90
1021.65	225.40
1021.94	224.90
1022.22	227.10
1022.51	224.85
1022.79	228.80
1023.08	227.25
1023.36	233.10
1023.65	224.90
>>>>>End Processed Spectral Data<<<<<
