SpectraSuite Data File
++++++++++++++++++++++++++++++++++++
Date: Wed Sep 04 17:42:25 EDT 2013
User: lab3
Dark Spectrum Present: Yes
Reference Spectrum Present: No
Number of Sampled Component Spectra: 1
Spectrometers: USB2E7196
Integration Time (usec): 170000 (USB2E7196)
Spectra Averaged: 20 (USB2E7196)
Boxcar Smoothing: 10 (USB2E7196)
Correct for Electrical Dark: No (USB2E7196)
Strobe/Lamp Enabled: No (USB2E7196)
Correct for Detector Non-linearity: No (USB2E7196)
Correct for Stray Light: No (USB2E7196)
Number of Pixels in Processed Spectrum: 2048
>>>>>Begin Processed Spectral Data<<<<<
339.09	0.00
339.48	211.80
339.86	214.35
340.24	214.30
340.63	216.70
341.01	225.05
341.39	218.70
341.78	221.40
342.16	224.10
342.54	222.80
342.93	211.84
343.31	222.53
343.69	223.14
344.07	223.59
344.46	224.16
344.84	224.56
345.22	224.53
345.60	224.92
345.99	225.09
346.37	225.15
346.75	225.23
347.13	225.35
347.52	225.42
347.90	225.51
348.28	225.56
348.66	225.67
349.05	225.57
349.43	225.72
349.81	225.77
350.19	225.81
350.57	225.88
350.96	225.92
351.34	225.98
351.72	226.08
352.10	226.15
352.48	226.14
352.87	226.13
353.25	226.23
353.63	226.17
354.01	226.23
354.39	226.35
354.77	226.42
355.15	226.63
355.54	226.64
355.92	226.56
356.30	226.59
356.68	227.01
357.06	227.05
357.44	226.99
357.82	227.00
358.20	227.44
358.58	227.53
358.97	227.67
359.35	227.88
359.73	227.96
360.11	228.03
360.49	228.15
360.87	228.28
361.25	228.39
361.63	228.66
362.01	228.74
362.39	228.67
362.77	228.71
363.15	228.67
363.53	228.69
363.91	228.73
364.29	228.74
364.67	228.26
365.05	228.35
365.43	228.46
365.81	228.53
366.19	228.33
366.57	228.52
366.95	228.50
367.33	228.35
367.71	228.36
368.09	228.48
368.47	228.45
368.85	228.37
369.23	228.44
369.61	228.19
369.99	228.33
370.37	228.48
370.75	228.74
371.13	228.65
371.51	228.61
371.89	228.63
372.27	228.66
372.65	228.66
373.03	228.66
373.41	228.56
373.78	228.48
374.16	228.23
374.54	228.04
374.92	227.94
375.30	227.88
375.68	227.75
376.06	227.67
376.44	227.54
376.82	227.57
377.19	227.49
377.57	227.44
377.95	227.23
378.33	227.03
378.71	226.72
379.09	226.70
379.47	226.67
379.84	226.56
380.22	226.47
380.60	226.35
380.98	226.17
381.36	226.10
381.73	225.98
382.11	226.06
382.49	225.99
382.87	225.91
383.25	225.90
383.62	226.42
384.00	226.26
384.38	226.26
384.76	226.33
385.13	226.42
385.51	226.39
385.89	226.30
386.27	226.29
386.64	226.34
387.02	226.27
387.40	226.16
387.78	226.13
388.15	226.09
388.53	226.01
388.91	226.02
389.29	225.98
389.66	226.09
390.04	225.95
390.42	226.05
390.79	226.02
391.17	226.02
391.55	225.46
391.92	225.42
392.30	225.44
392.68	225.30
393.05	225.31
393.43	225.31
393.81	225.39
394.18	225.37
394.56	225.26
394.94	225.40
395.31	225.41
395.69	225.61
396.06	225.71
396.44	225.85
396.82	225.86
397.19	226.11
397.57	226.10
397.95	226.24
398.32	226.12
398.70	226.22
399.07	226.36
399.45	226.41
399.82	226.50
400.20	226.50
400.58	226.62
400.95	226.50
401.33	226.66
401.70	227.09
402.08	227.20
402.45	227.38
402.83	227.57
403.20	227.75
403.58	227.81
403.95	228.02
404.33	228.14
404.71	228.35
405.08	228.79
405.46	228.96
405.83	229.20
406.21	229.51
406.58	229.75
406.96	229.91
407.33	230.27
407.70	230.68
408.08	231.38
408.45	231.76
408.83	232.25
409.20	232.57
409.58	232.65
409.95	233.13
410.33	233.62
410.70	233.93
411.08	234.41
411.45	234.94
411.82	235.40
412.20	236.14
412.57	236.96
412.95	237.17
413.32	237.95
413.69	238.59
414.07	239.35
414.44	240.15
414.82	241.04
415.19	242.01
415.56	242.95
415.94	243.81
416.31	244.99
416.68	246.10
417.06	247.45
417.43	248.78
417.81	250.26
418.18	251.69
418.55	253.32
418.93	255.05
419.30	256.74
419.67	258.49
420.04	260.31
420.42	262.17
420.79	264.81
421.16	267.08
421.54	269.70
421.91	272.23
422.28	274.81
422.66	277.50
423.03	280.47
423.40	283.16
423.77	286.10
424.15	289.05
424.52	292.12
424.89	295.65
425.26	298.95
425.64	302.11
426.01	305.53
426.38	309.08
426.75	312.90
427.13	316.71
427.50	320.80
427.87	324.83
428.24	329.03
428.61	332.69
428.99	337.11
429.36	341.55
429.73	345.96
430.10	350.52
430.47	355.33
430.85	359.90
431.22	365.14
431.59	370.83
431.96	375.98
432.33	381.71
432.70	387.18
433.08	393.54
433.45	399.70
433.82	405.89
434.19	412.62
434.56	419.21
434.93	425.63
435.30	432.02
435.68	439.20
436.05	446.08
436.42	452.95
436.79	459.39
437.16	466.35
437.53	473.85
437.90	481.19
438.27	488.25
438.64	495.59
439.01	502.55
439.38	508.48
439.75	514.43
440.13	521.22
440.50	527.47
440.87	532.59
441.24	537.85
441.61	543.75
441.98	548.11
442.35	553.07
442.72	558.10
443.09	563.07
443.46	565.97
443.83	568.02
444.20	569.73
444.57	571.98
444.94	572.85
445.31	573.80
445.68	574.86
446.05	575.01
446.42	574.09
446.79	572.92
447.16	571.66
447.53	570.68
447.90	567.48
448.27	564.53
448.64	560.65
449.01	557.72
449.37	552.70
449.74	547.78
450.11	542.23
450.48	535.95
450.85	529.25
451.22	523.62
451.59	518.11
451.96	512.87
452.33	506.21
452.70	500.25
453.07	493.05
453.43	485.59
453.80	478.75
454.17	472.09
454.54	465.71
454.91	458.98
455.28	452.37
455.65	446.39
456.02	440.95
456.38	435.71
456.75	429.26
457.12	423.77
457.49	418.58
457.86	413.16
458.23	408.89
458.59	404.25
458.96	399.48
459.33	395.19
459.70	391.10
460.07	387.74
460.43	383.85
460.80	380.30
461.17	377.28
461.54	373.92
461.91	370.80
462.27	367.63
462.64	364.85
463.01	362.00
463.38	359.25
463.74	355.75
464.11	353.31
464.48	351.19
464.85	348.87
465.21	347.13
465.58	345.29
465.95	342.81
466.32	340.90
466.68	339.00
467.05	337.30
467.42	335.44
467.78	333.48
468.15	331.72
468.52	330.41
468.88	328.52
469.25	326.92
469.62	325.73
469.98	324.34
470.35	323.11
470.72	321.81
471.08	320.36
471.45	319.25
471.82	318.19
472.18	316.99
472.55	316.20
472.92	315.14
473.28	314.21
473.65	313.34
474.02	312.47
474.38	311.86
474.75	311.19
475.11	310.44
475.48	309.98
475.85	309.39
476.21	308.85
476.58	308.42
476.94	308.15
477.31	307.70
477.67	307.44
478.04	307.17
478.41	307.11
478.77	307.60
479.14	307.40
479.50	307.27
479.87	307.25
480.23	307.30
480.60	307.28
480.96	307.33
481.33	307.72
481.69	307.92
482.06	308.15
482.42	308.49
482.79	308.99
483.15	309.38
483.52	310.06
483.88	310.59
484.25	311.11
484.61	311.72
484.98	312.42
485.34	313.35
485.71	314.36
486.07	315.15
486.44	315.59
486.80	316.72
487.17	317.79
487.53	319.15
487.90	320.48
488.26	322.06
488.62	323.73
488.99	325.20
489.35	326.93
489.72	328.63
490.08	330.47
490.44	332.30
490.81	334.33
491.17	336.46
491.54	338.75
491.90	341.23
492.26	343.74
492.63	346.26
492.99	348.85
493.36	351.56
493.72	354.72
494.08	357.92
494.45	361.24
494.81	364.90
495.17	368.37
495.54	372.13
495.90	375.99
496.26	379.97
496.63	384.22
496.99	388.58
497.35	393.16
497.72	397.93
498.08	402.84
498.44	407.96
498.80	413.41
499.17	418.81
499.53	424.31
499.89	430.35
500.26	436.48
500.62	442.62
500.98	449.32
501.34	456.09
501.71	463.01
502.07	470.07
502.43	477.17
502.79	484.65
503.16	492.30
503.52	500.19
503.88	508.35
504.24	516.82
504.60	525.50
504.97	534.62
505.33	543.75
505.69	553.49
506.05	563.07
506.41	572.74
506.78	582.84
507.14	593.37
507.50	604.04
507.86	614.94
508.22	626.29
508.59	637.47
508.95	649.06
509.31	661.06
509.67	673.10
510.03	685.23
510.39	697.57
510.75	710.37
511.12	723.28
511.48	736.42
511.84	749.64
512.20	762.97
512.56	776.45
512.92	790.44
513.28	804.42
513.64	818.72
514.00	833.11
514.37	847.83
514.73	862.85
515.09	877.72
515.45	892.79
515.81	907.76
516.17	922.98
516.53	938.09
516.89	953.18
517.25	968.92
517.61	985.56
517.97	1002.11
518.33	1018.28
518.69	1034.59
519.05	1051.17
519.41	1067.55
519.77	1084.56
520.13	1100.96
520.49	1117.17
520.85	1135.09
521.21	1151.78
521.57	1168.74
521.93	1185.23
522.29	1201.81
522.65	1217.93
523.01	1234.40
523.37	1250.35
523.73	1266.89
524.09	1282.86
524.45	1298.82
524.81	1314.66
525.17	1330.21
525.53	1346.10
525.89	1361.99
526.25	1377.89
526.61	1393.10
526.97	1408.95
527.33	1424.79
527.68	1441.19
528.04	1457.15
528.40	1471.44
528.76	1487.19
529.12	1502.24
529.48	1517.39
529.84	1532.12
530.20	1547.48
530.56	1562.39
530.91	1577.50
531.27	1592.05
531.63	1606.98
531.99	1621.62
532.35	1635.92
532.71	1650.21
533.07	1664.67
533.42	1678.51
533.78	1692.18
534.14	1705.97
534.50	1719.15
534.86	1732.31
535.21	1744.09
535.57	1756.71
535.93	1768.27
536.29	1780.01
536.65	1792.01
537.00	1803.94
537.36	1815.39
537.72	1826.07
538.08	1837.26
538.44	1848.44
538.79	1858.80
539.15	1869.24
539.51	1879.68
539.87	1889.40
540.22	1897.99
540.58	1906.82
540.94	1914.71
541.29	1922.00
541.65	1929.36
542.01	1936.55
542.37	1942.32
542.72	1948.56
543.08	1954.25
543.44	1960.90
543.79	1965.87
544.15	1970.67
544.51	1975.81
544.87	1980.78
545.22	1985.07
545.58	1988.50
545.94	1991.18
546.29	1993.78
546.65	1996.09
547.01	1997.74
547.36	1999.23
547.72	2000.78
548.07	2001.10
548.43	2002.46
548.79	2003.59
549.14	2004.20
549.50	2004.46
549.86	2004.78
550.21	2005.03
550.57	2005.36
550.92	2003.79
551.28	2002.68
551.64	2002.21
551.99	2000.96
552.35	1999.43
552.70	1998.65
553.06	1997.34
553.41	1995.88
553.77	1994.85
554.13	1993.60
554.48	1992.63
554.84	1991.45
555.19	1990.20
555.55	1989.15
555.90	1986.52
556.26	1983.74
556.61	1980.34
556.97	1976.90
557.32	1974.40
557.68	1971.38
558.03	1967.80
558.39	1964.78
558.74	1961.85
559.10	1957.35
559.45	1952.39
559.81	1947.28
560.16	1941.35
560.52	1935.85
560.87	1930.90
561.23	1925.19
561.58	1919.17
561.94	1912.24
562.29	1905.29
562.64	1898.54
563.00	1890.82
563.35	1884.33
563.71	1878.09
564.06	1871.86
564.42	1865.57
564.77	1858.75
565.12	1852.05
565.48	1845.45
565.83	1838.28
566.19	1831.23
566.54	1824.37
566.89	1817.45
567.25	1810.77
567.60	1804.43
567.96	1798.19
568.31	1791.12
568.66	1783.83
569.02	1776.16
569.37	1769.07
569.72	1762.53
570.08	1754.54
570.43	1746.43
570.78	1738.70
571.14	1730.67
571.49	1722.46
571.84	1714.58
572.20	1706.20
572.55	1697.80
572.90	1688.80
573.26	1680.46
573.61	1671.59
573.96	1662.64
574.31	1653.25
574.67	1643.82
575.02	1633.89
575.37	1623.70
575.72	1613.74
576.08	1604.28
576.43	1594.61
576.78	1584.61
577.13	1574.10
577.49	1564.49
577.84	1555.82
578.19	1546.64
578.54	1537.26
578.90	1528.32
579.25	1518.96
579.60	1509.36
579.95	1499.65
580.30	1490.08
580.66	1480.13
581.01	1470.30
581.36	1460.35
581.71	1451.19
582.06	1441.93
582.42	1432.85
582.77	1423.71
583.12	1414.98
583.47	1405.82
583.82	1397.02
584.17	1387.99
584.53	1379.57
584.88	1370.18
585.23	1360.59
585.58	1350.61
585.93	1341.02
586.28	1331.54
586.63	1321.54
586.98	1311.72
587.34	1302.30
587.69	1292.67
588.04	1283.92
588.39	1275.22
588.74	1266.30
589.09	1257.50
589.44	1248.34
589.79	1239.69
590.14	1231.11
590.49	1222.23
590.84	1213.64
591.19	1205.28
591.54	1196.86
591.89	1188.13
592.25	1181.29
592.60	1173.04
592.95	1165.29
593.30	1157.09
593.65	1148.82
594.00	1140.51
594.35	1133.98
594.70	1125.87
595.05	1118.02
595.40	1109.76
595.75	1101.54
596.10	1093.80
596.45	1086.10
596.80	1078.58
597.15	1070.80
597.50	1062.75
597.85	1055.17
598.19	1047.31
598.54	1039.16
598.89	1031.53
599.24	1024.19
599.59	1015.98
599.94	1008.74
600.29	1001.57
600.64	994.59
600.99	987.23
601.34	980.69
601.69	972.50
602.04	965.92
602.39	959.42
602.74	953.01
603.08	946.55
603.43	940.32
603.78	933.57
604.13	927.08
604.48	920.35
604.83	913.77
605.18	907.04
605.53	900.69
605.87	894.56
606.22	888.77
606.57	882.38
606.92	876.17
607.27	870.17
607.62	864.15
607.96	858.40
608.31	852.93
608.66	847.27
609.01	841.60
609.36	835.72
609.70	829.84
610.05	824.11
610.40	818.64
610.75	812.75
611.10	807.23
611.44	801.23
611.79	795.85
612.14	790.70
612.49	785.28
612.83	780.04
613.18	774.75
613.53	769.43
613.88	764.16
614.22	758.88
614.57	753.38
614.92	747.88
615.27	742.51
615.61	737.20
615.96	732.10
616.31	726.89
616.65	722.20
617.00	717.09
617.35	712.20
617.70	706.98
618.04	702.05
618.39	697.31
618.74	693.10
619.08	688.32
619.43	683.63
619.78	678.95
620.12	674.18
620.47	669.48
620.82	664.58
621.16	659.95
621.51	655.66
621.85	651.43
622.20	647.20
622.55	642.65
622.89	638.42
623.24	634.13
623.59	629.99
623.93	625.55
624.28	621.61
624.62	617.85
624.97	614.09
625.32	610.11
625.66	605.99
626.01	601.81
626.35	598.16
626.70	594.22
627.04	590.56
627.39	586.78
627.73	583.41
628.08	580.01
628.43	576.34
628.77	572.52
629.12	568.96
629.46	565.73
629.81	562.73
630.15	559.41
630.50	556.15
630.84	552.83
631.19	549.54
631.53	546.25
631.88	542.53
632.22	539.29
632.57	536.27
632.91	533.16
633.26	530.19
633.60	526.89
633.95	523.75
634.29	520.55
634.64	517.44
634.98	513.94
635.32	510.92
635.67	508.32
636.01	505.50
636.36	502.52
636.70	499.70
637.05	496.72
637.39	493.90
637.73	491.10
638.08	488.48
638.42	485.77
638.77	482.92
639.11	480.06
639.45	477.09
639.80	474.16
640.14	471.48
640.49	468.69
640.83	466.12
641.17	463.65
641.52	461.07
641.86	458.77
642.20	456.83
642.55	454.30
642.89	451.71
643.23	449.23
643.58	447.18
643.92	444.53
644.26	442.16
644.61	440.16
644.95	437.72
645.29	435.26
645.64	433.05
645.98	430.82
646.32	428.75
646.66	426.51
647.01	424.50
647.35	422.55
647.69	420.65
648.04	418.83
648.38	416.86
648.72	414.90
649.06	412.68
649.41	410.39
649.75	408.20
650.09	406.23
650.43	404.36
650.78	402.19
651.12	400.26
651.46	398.38
651.80	396.24
652.14	394.33
652.49	392.70
652.83	390.91
653.17	389.16
653.51	387.30
653.85	385.74
654.20	384.03
654.54	382.19
654.88	380.35
655.22	378.79
655.56	377.11
655.90	375.59
656.25	374.08
656.59	372.51
656.93	371.14
657.27	369.72
657.61	368.02
657.95	366.57
658.29	365.08
658.64	363.57
658.98	362.04
659.32	360.55
659.66	358.98
660.00	357.47
660.34	356.00
660.68	354.62
661.02	353.25
661.36	351.98
661.70	350.62
662.05	349.35
662.39	347.92
662.73	346.71
663.07	345.53
663.41	344.27
663.75	342.99
664.09	341.67
664.43	340.31
664.77	339.17
665.11	337.92
665.45	336.79
665.79	335.63
666.13	334.41
666.47	333.28
666.81	332.15
667.15	330.89
667.49	330.02
667.83	329.20
668.17	328.10
668.51	327.03
668.85	326.17
669.19	325.35
669.53	324.30
669.87	323.26
670.21	322.23
670.55	321.35
670.89	320.57
671.23	319.74
671.57	318.72
671.91	317.82
672.25	316.91
672.58	316.06
672.92	315.03
673.26	314.15
673.60	313.28
673.94	312.43
674.28	311.71
674.62	310.84
674.96	309.82
675.30	309.04
675.64	308.15
675.97	307.29
676.31	306.30
676.65	305.33
676.99	304.62
677.33	303.71
677.67	302.87
678.01	301.91
678.34	301.14
678.68	300.64
679.02	299.85
679.36	299.10
679.70	298.31
680.04	297.74
680.37	297.13
680.71	296.45
681.05	295.74
681.39	295.09
681.73	294.38
682.06	293.72
682.40	293.10
682.74	292.54
683.08	292.04
683.42	291.38
683.75	290.90
684.09	290.19
684.43	289.70
684.77	289.10
685.10	288.55
685.44	287.93
685.78	287.21
686.12	286.74
686.45	286.24
686.79	285.71
687.13	285.17
687.46	284.63
687.80	284.21
688.14	283.65
688.48	283.15
688.81	282.67
689.15	282.35
689.49	281.79
689.82	281.22
690.16	280.42
690.50	279.96
690.83	279.44
691.17	278.86
691.51	278.29
691.84	277.85
692.18	277.35
692.52	276.88
692.85	276.50
693.19	276.09
693.52	275.60
693.86	275.10
694.20	274.63
694.53	274.19
694.87	273.60
695.21	273.10
695.54	272.64
695.88	272.06
696.21	271.31
696.55	270.91
696.88	270.39
697.22	269.97
697.56	269.56
697.89	269.07
698.23	268.73
698.56	268.30
698.90	267.89
699.23	267.46
699.57	267.10
699.90	266.63
700.24	266.12
700.58	265.75
700.91	265.48
701.25	265.47
701.58	265.42
701.92	265.20
702.25	264.87
702.59	264.51
702.92	264.25
703.26	264.00
703.59	263.61
703.93	263.80
704.26	263.57
704.60	263.32
704.93	263.02
705.26	262.60
705.60	262.40
705.93	261.97
706.27	261.87
706.60	261.68
706.94	261.63
707.27	261.31
707.61	261.04
707.94	260.66
708.27	259.94
708.61	259.35
708.94	259.02
709.28	258.74
709.61	258.42
709.94	258.12
710.28	257.94
710.61	257.71
710.95	256.93
711.28	256.89
711.61	256.55
711.95	256.40
712.28	256.12
712.61	255.80
712.95	255.84
713.28	255.70
713.61	255.22
713.95	254.75
714.28	254.53
714.61	254.20
714.95	253.93
715.28	253.69
715.61	253.33
715.95	253.05
716.28	252.81
716.61	252.59
716.95	252.24
717.28	251.91
717.61	251.64
717.94	251.49
718.28	250.96
718.61	250.69
718.94	250.39
719.27	250.14
719.61	249.95
719.94	249.61
720.27	249.16
720.60	248.97
720.94	248.75
721.27	248.56
721.60	248.43
721.93	248.24
722.27	248.17
722.60	248.14
722.93	247.95
723.26	247.77
723.59	247.62
723.93	247.52
724.26	247.41
724.59	247.16
724.92	246.91
725.25	246.86
725.59	246.63
725.92	246.51
726.25	246.40
726.58	246.26
726.91	245.97
727.24	245.84
727.57	245.67
727.91	245.46
728.24	245.33
728.57	245.06
728.90	244.94
729.23	244.67
729.56	244.68
729.89	244.49
730.22	244.33
730.55	244.13
730.89	243.96
731.22	243.72
731.55	243.56
731.88	243.51
732.21	243.33
732.54	243.16
732.87	242.96
733.20	242.82
733.53	242.63
733.86	242.65
734.19	242.49
734.52	242.46
734.85	242.68
735.18	242.49
735.51	242.66
735.84	242.55
736.17	242.64
736.50	242.19
736.83	242.62
737.16	242.50
737.49	242.41
737.82	242.30
738.15	242.24
738.48	242.24
738.81	242.01
739.14	241.82
739.47	241.73
739.80	241.59
740.13	241.51
740.46	241.30
740.79	241.05
741.12	240.95
741.45	240.77
741.78	240.42
742.11	240.43
742.44	240.09
742.77	240.04
743.10	239.70
743.43	239.60
743.75	239.00
744.08	239.48
744.41	239.26
744.74	239.09
745.07	238.87
745.40	238.75
745.73	238.88
746.06	238.76
746.39	238.69
746.71	238.54
747.04	238.33
747.37	238.26
747.70	238.23
748.03	238.05
748.36	238.04
748.68	237.86
749.01	237.62
749.34	237.44
749.67	237.35
750.00	237.33
750.33	237.61
750.65	237.52
750.98	236.81
751.31	236.82
751.64	236.78
751.97	236.93
752.29	236.80
752.62	236.48
752.95	236.35
753.28	236.18
753.60	236.08
753.93	236.15
754.26	236.12
754.59	235.85
754.91	235.78
755.24	235.66
755.57	235.65
755.90	235.52
756.22	235.49
756.55	235.32
756.88	235.11
757.20	234.65
757.53	234.50
757.86	234.46
758.19	234.38
758.51	234.27
758.84	233.90
759.17	233.74
759.49	233.71
759.82	233.88
760.15	233.90
760.47	233.85
760.80	233.70
761.13	233.67
761.45	233.69
761.78	233.59
762.11	233.54
762.43	233.36
762.76	233.27
763.08	233.25
763.41	233.28
763.74	233.32
764.06	233.25
764.39	233.14
764.71	233.05
765.04	232.85
765.37	232.73
765.69	232.72
766.02	232.67
766.34	232.55
766.67	232.29
767.00	232.30
767.32	232.48
767.65	232.63
767.97	232.51
768.30	232.44
768.62	232.42
768.95	232.26
769.27	232.19
769.60	232.18
769.92	232.02
770.25	231.79
770.57	231.62
770.90	231.58
771.22	231.52
771.55	231.45
771.87	231.49
772.20	231.46
772.52	231.85
772.85	232.39
773.17	232.35
773.50	232.27
773.82	232.19
774.15	231.85
774.47	231.52
774.80	231.45
775.12	231.35
775.45	231.24
775.77	231.20
776.09	231.21
776.42	231.14
776.74	231.21
777.07	231.19
777.39	231.21
777.72	231.07
778.04	231.06
778.36	230.95
778.69	230.87
779.01	230.82
779.33	230.34
779.66	229.76
779.98	229.65
780.31	229.68
780.63	229.75
780.95	229.82
781.28	229.74
781.60	229.63
781.92	229.57
782.25	229.58
782.57	229.57
782.89	229.47
783.22	229.42
783.54	229.27
783.86	229.23
784.19	229.09
784.51	229.26
784.83	229.14
785.16	229.11
785.48	229.11
785.80	229.08
786.12	229.01
786.45	228.95
786.77	229.00
787.09	228.93
787.42	228.73
787.74	228.69
788.06	228.69
788.38	228.65
788.71	228.54
789.03	228.53
789.35	228.52
789.67	228.41
789.99	228.44
790.32	228.41
790.64	228.48
790.96	228.94
791.28	228.72
791.61	228.75
791.93	228.76
792.25	228.75
792.57	229.10
792.89	229.12
793.21	229.19
793.54	229.04
793.86	228.99
794.18	229.01
794.50	228.92
794.82	228.96
795.14	229.03
795.47	229.23
795.79	229.16
796.11	229.03
796.43	229.12
796.75	229.16
797.07	229.19
797.39	229.17
797.71	228.68
798.04	228.69
798.36	228.67
798.68	228.69
799.00	228.76
799.32	228.48
799.64	228.46
799.96	228.43
800.28	228.60
800.60	228.54
800.92	228.58
801.24	228.55
801.56	228.57
801.89	228.56
802.21	228.54
802.53	228.49
802.85	228.60
803.17	228.79
803.49	228.59
803.81	228.59
804.13	228.51
804.45	228.54
804.77	228.57
805.09	228.56
805.41	228.44
805.73	228.29
806.05	228.17
806.37	228.20
806.69	228.19
807.01	228.17
807.33	228.26
807.65	228.10
807.97	228.28
808.28	228.28
808.60	228.29
808.92	228.18
809.24	228.49
809.56	228.40
809.88	228.22
810.20	228.29
810.52	228.26
810.84	228.19
811.16	228.10
811.48	228.11
811.80	228.27
812.12	228.28
812.43	228.33
812.75	228.40
813.07	228.33
813.39	228.27
813.71	228.16
814.03	228.03
814.35	227.97
814.67	227.79
814.98	227.65
815.30	227.59
815.62	227.58
815.94	227.26
816.26	227.42
816.58	227.29
816.89	227.30
817.21	227.27
817.53	227.30
817.85	227.35
818.17	227.25
818.48	227.10
818.80	227.22
819.12	227.17
819.44	227.04
819.76	227.01
820.07	227.01
820.39	227.00
820.71	227.07
821.03	227.08
821.34	227.06
821.66	227.12
821.98	227.12
822.30	227.02
822.61	227.25
822.93	227.01
823.25	226.97
823.57	226.86
823.88	226.85
824.20	226.83
824.52	226.87
824.83	226.90
825.15	226.79
825.47	226.69
825.79	226.70
826.10	226.65
826.42	226.64
826.74	226.60
827.05	226.56
827.37	226.53
827.69	226.50
828.00	226.46
828.32	226.45
828.64	226.46
828.95	226.70
829.27	226.56
829.58	226.57
829.90	226.65
830.22	226.70
830.53	226.61
830.85	226.58
831.17	226.54
831.48	226.54
831.80	226.60
832.11	226.56
832.43	226.46
832.75	226.53
833.06	226.79
833.38	226.74
833.69	226.74
834.01	226.77
834.32	226.80
834.64	226.74
834.96	226.76
835.27	226.64
835.59	226.56
835.90	226.52
836.22	226.50
836.53	226.40
836.85	226.39
837.16	226.89
837.48	226.90
837.79	227.03
838.11	227.04
838.42	226.98
838.74	227.09
839.05	227.09
839.37	227.05
839.68	226.72
840.00	226.71
840.31	226.79
840.63	226.75
840.94	226.67
841.26	226.74
841.57	226.65
841.88	226.75
842.20	226.67
842.51	226.58
842.83	226.65
843.14	227.14
843.46	227.17
843.77	226.93
844.08	226.85
844.40	226.73
844.71	226.71
845.03	226.70
845.34	226.60
845.65	226.59
845.97	226.55
846.28	226.59
846.60	226.59
846.91	226.53
847.22	226.51
847.54	226.57
847.85	226.62
848.16	226.65
848.48	226.54
848.79	226.73
849.10	226.83
849.42	226.82
849.73	226.39
850.04	226.33
850.36	226.15
850.67	226.29
850.98	226.20
851.30	226.20
851.61	226.16
851.92	226.21
852.23	226.36
852.55	226.40
852.86	226.41
853.17	226.46
853.49	226.55
853.80	226.66
854.11	226.81
854.42	226.82
854.74	226.71
855.05	226.80
855.36	226.53
855.67	226.56
855.99	226.54
856.30	227.11
856.61	227.10
856.92	227.10
857.23	227.11
857.55	227.10
857.86	227.11
858.17	227.19
858.48	227.03
858.79	226.92
859.11	227.02
859.42	227.03
859.73	226.95
860.04	226.85
860.35	226.64
860.66	226.41
860.98	226.41
861.29	226.52
861.60	226.47
861.91	226.62
862.22	226.47
862.53	226.38
862.84	225.84
863.16	225.98
863.47	225.87
863.78	225.80
864.09	225.85
864.40	225.87
864.71	225.86
865.02	225.97
865.33	225.91
865.64	225.74
865.95	225.71
866.27	226.06
866.58	226.04
866.89	226.15
867.20	226.23
867.51	226.16
867.82	226.15
868.13	226.32
868.44	226.20
868.75	226.26
869.06	226.30
869.37	226.32
869.68	226.15
869.99	226.28
870.30	226.28
870.61	226.30
870.92	226.25
871.23	226.28
871.54	226.35
871.85	226.49
872.16	226.60
872.47	226.57
872.78	226.29
873.09	226.33
873.40	226.26
873.71	226.21
874.02	226.17
874.33	226.08
874.64	225.91
874.95	225.97
875.26	225.95
875.56	225.97
875.87	225.89
876.18	225.89
876.49	226.32
876.80	226.24
877.11	226.15
877.42	226.15
877.73	226.01
878.04	225.97
878.35	225.95
878.66	225.94
878.96	225.94
879.27	225.90
879.58	225.89
879.89	225.87
880.20	226.07
880.51	226.10
880.82	226.16
881.12	226.18
881.43	226.17
881.74	226.08
882.05	226.04
882.36	226.12
882.67	226.15
882.97	225.73
883.28	225.78
883.59	225.83
883.90	225.93
884.21	226.13
884.51	226.12
884.82	226.06
885.13	226.02
885.44	226.09
885.74	226.10
886.05	226.12
886.36	226.10
886.67	225.89
886.98	226.08
887.28	226.12
887.59	226.15
887.90	226.08
888.20	226.12
888.51	226.17
888.82	226.09
889.13	226.11
889.43	226.42
889.74	226.41
890.05	226.48
890.35	226.35
890.66	226.29
890.97	226.24
891.28	226.15
891.58	226.16
891.89	226.07
892.20	226.03
892.50	225.99
892.81	226.05
893.12	226.05
893.42	225.95
893.73	225.90
894.04	225.87
894.34	225.95
894.65	225.85
894.95	225.87
895.26	225.88
895.57	226.13
895.87	225.69
896.18	225.79
896.48	225.75
896.79	225.83
897.10	225.79
897.40	225.82
897.71	225.95
898.01	225.91
898.32	225.96
898.63	225.92
898.93	226.00
899.24	225.99
899.54	225.98
899.85	225.87
900.15	225.83
900.46	225.80
900.76	225.78
901.07	225.87
901.38	225.83
901.68	225.92
901.99	225.69
902.29	225.73
902.60	225.67
902.90	225.65
903.21	225.60
903.51	225.62
903.82	225.76
904.12	225.76
904.43	225.88
904.73	225.87
905.03	225.94
905.34	226.33
905.64	226.26
905.95	226.29
906.25	226.37
906.56	226.35
906.86	226.32
907.17	226.36
907.47	226.36
907.77	226.32
908.08	226.22
908.38	226.17
908.69	226.24
908.99	226.35
909.30	226.38
909.60	226.42
909.90	226.42
910.21	226.26
910.51	226.17
910.81	226.09
911.12	226.15
911.42	226.12
911.73	225.67
912.03	225.74
912.33	225.82
912.64	225.77
912.94	225.79
913.24	225.84
913.55	225.76
913.85	225.76
914.15	225.87
914.46	225.90
914.76	225.95
915.06	225.87
915.37	225.71
915.67	225.68
915.97	225.63
916.27	225.60
916.58	225.61
916.88	225.62
917.18	225.64
917.49	225.94
917.79	225.96
918.09	226.05
918.39	226.15
918.70	226.16
919.00	226.18
919.30	226.42
919.60	226.34
919.91	226.32
920.21	226.31
920.51	226.15
920.81	226.10
921.12	226.21
921.42	226.18
921.72	226.22
922.02	226.21
922.32	226.37
922.63	226.39
922.93	226.62
923.23	226.66
923.53	226.63
923.83	226.32
924.13	226.41
924.44	226.40
924.74	226.46
925.04	226.48
925.34	226.46
925.64	226.21
925.94	226.21
926.24	226.50
926.55	226.51
926.85	226.64
927.15	226.71
927.45	226.66
927.75	226.70
928.05	226.78
928.35	226.75
928.65	226.74
928.95	226.80
929.26	226.71
929.56	226.79
929.86	226.81
930.16	226.79
930.46	226.79
930.76	226.80
931.06	226.62
931.36	226.59
931.66	226.63
931.96	226.77
932.26	226.79
932.56	226.58
932.86	226.61
933.16	226.58
933.46	226.47
933.76	226.42
934.06	226.57
934.36	226.68
934.66	226.71
934.96	226.65
935.26	226.60
935.56	226.63
935.86	226.51
936.16	226.48
936.46	226.45
936.76	226.39
937.06	226.29
937.36	226.37
937.66	226.33
937.96	226.36
938.26	226.29
938.56	226.26
938.86	226.25
939.16	226.31
939.46	226.37
939.76	226.41
940.06	226.38
940.35	226.22
940.65	226.03
940.95	226.02
941.25	225.86
941.55	225.78
941.85	225.70
942.15	225.80
942.45	225.96
942.75	225.92
943.04	226.01
943.34	226.14
943.64	226.05
943.94	225.96
944.24	225.87
944.54	225.89
944.84	225.88
945.13	225.77
945.43	225.69
945.73	225.71
946.03	225.66
946.33	225.60
946.62	225.55
946.92	225.52
947.22	225.52
947.52	225.55
947.82	225.62
948.11	225.52
948.41	225.38
948.71	225.16
949.01	225.20
949.31	225.08
949.60	224.99
949.90	225.10
950.20	225.10
950.50	225.18
950.79	225.05
951.09	225.13
951.39	225.17
951.69	225.14
951.98	225.15
952.28	225.19
952.58	225.26
952.87	225.24
953.17	225.33
953.47	225.29
953.76	225.35
954.06	225.24
954.36	225.25
954.66	225.22
954.95	225.41
955.25	225.46
955.55	225.49
955.84	225.43
956.14	225.39
956.44	225.46
956.73	225.39
957.03	225.49
957.32	225.50
957.62	225.49
957.92	225.52
958.21	225.42
958.51	225.96
958.81	225.97
959.10	226.10
959.40	226.12
959.69	226.14
959.99	226.20
960.29	226.24
960.58	226.20
960.88	226.43
961.17	226.32
961.47	226.32
961.76	226.26
962.06	226.37
962.36	226.38
962.65	226.36
962.95	226.37
963.24	226.34
963.54	226.39
963.83	226.41
964.13	226.46
964.42	226.40
964.72	226.01
965.01	226.05
965.31	225.94
965.60	225.97
965.90	226.29
966.19	226.15
966.49	226.25
966.78	226.24
967.08	226.15
967.37	226.23
967.67	226.15
967.96	226.24
968.26	226.21
968.55	226.22
968.85	226.21
969.14	226.17
969.43	226.14
969.73	226.13
970.02	226.12
970.32	226.04
970.61	226.08
970.91	225.97
971.20	225.81
971.49	225.76
971.79	225.73
972.08	225.36
972.38	225.45
972.67	225.31
972.96	225.40
973.26	225.37
973.55	225.48
973.85	225.47
974.14	225.38
974.43	225.37
974.73	225.32
975.02	225.27
975.31	225.29
975.61	225.31
975.90	225.26
976.19	225.26
976.49	225.39
976.78	225.35
977.07	225.35
977.37	225.40
977.66	225.48
977.95	225.48
978.24	225.51
978.54	225.62
978.83	225.62
979.12	225.56
979.42	225.55
979.71	225.43
980.00	225.36
980.29	225.40
980.59	225.36
980.88	225.39
981.17	225.36
981.46	225.35
981.76	225.35
982.05	225.43
982.34	225.43
982.63	225.32
982.93	225.37
983.22	225.57
983.51	225.63
983.80	225.73
984.09	225.71
984.39	225.69
984.68	225.59
984.97	225.63
985.26	225.62
985.55	225.65
985.85	225.60
986.14	225.73
986.43	225.73
986.72	225.67
987.01	225.60
987.30	225.67
987.59	225.65
987.89	225.68
988.18	225.52
988.47	225.48
988.76	225.47
989.05	225.42
989.34	225.22
989.63	225.25
989.92	225.16
990.22	225.09
990.51	225.06
990.80	225.05
991.09	225.05
991.38	225.06
991.67	224.99
991.96	224.89
992.25	224.88
992.54	224.80
992.83	224.88
993.12	224.83
993.41	224.94
993.70	225.16
993.99	225.26
994.28	225.35
994.58	225.46
994.87	225.39
995.16	225.40
995.45	225.35
995.74	225.30
996.03	225.36
996.32	225.49
996.61	225.62
996.90	225.55
997.19	225.54
997.48	225.60
997.77	225.56
998.06	225.61
998.34	225.52
998.63	225.55
998.92	225.53
999.21	225.63
999.50	225.59
999.79	225.41
1000.08	225.34
1000.37	225.32
1000.66	225.19
1000.95	225.40
1001.24	225.50
1001.53	225.65
1001.82	225.59
1002.11	225.44
1002.40	225.46
1002.68	225.57
1002.97	225.94
1003.26	225.92
1003.55	225.81
1003.84	225.89
1004.13	226.07
1004.42	226.10
1004.71	226.17
1004.99	226.14
1005.28	226.26
1005.57	226.22
1005.86	226.17
1006.15	226.12
1006.44	226.10
1006.72	226.21
1007.01	226.04
1007.30	225.95
1007.59	225.90
1007.88	225.97
1008.17	225.96
1008.45	225.87
1008.74	225.64
1009.03	225.35
1009.32	225.39
1009.60	225.46
1009.89	225.38
1010.18	225.15
1010.47	225.11
1010.76	225.07
1011.04	225.12
1011.33	225.15
1011.62	225.15
1011.91	225.17
1012.19	225.23
1012.48	225.22
1012.77	225.19
1013.05	225.45
1013.34	225.55
1013.63	225.53
1013.92	225.56
1014.20	225.62
1014.49	225.60
1014.78	225.66
1015.06	225.61
1015.35	225.59
1015.64	225.67
1015.92	225.77
1016.21	225.83
1016.50	225.82
1016.78	225.86
1017.07	225.88
1017.36	225.72
1017.64	225.66
1017.93	225.72
1018.22	225.68
1018.50	225.67
1018.79	225.68
1019.08	225.47
1019.36	225.45
1019.65	225.37
1019.93	225.46
1020.22	225.56
1020.51	225.85
1020.79	225.87
1021.08	224.85
1021.36	225.00
1021.65	225.55
1021.94	225.40
1022.22	226.50
1022.51	224.20
1022.79	228.15
1023.08	226.85
1023.36	231.10
1023.65	225.75
>>>>>End Processed Spectral Data<<<<<
