SpectraSuite Data File
++++++++++++++++++++++++++++++++++++
Date: Wed Sep 04 18:02:54 EDT 2013
User: lab3
Dark Spectrum Present: Yes
Reference Spectrum Present: No
Number of Sampled Component Spectra: 1
Spectrometers: USB2E7196
Integration Time (usec): 170000 (USB2E7196)
Spectra Averaged: 20 (USB2E7196)
Boxcar Smoothing: 10 (USB2E7196)
Correct for Electrical Dark: No (USB2E7196)
Strobe/Lamp Enabled: No (USB2E7196)
Correct for Detector Non-linearity: No (USB2E7196)
Correct for Stray Light: No (USB2E7196)
Number of Pixels in Processed Spectrum: 2048
>>>>>Begin Processed Spectral Data<<<<<
339.09	0.00
339.48	214.10
339.86	214.35
340.24	217.65
340.63	217.10
341.01	225.50
341.39	221.65
341.78	222.00
342.16	224.20
342.54	224.70
342.93	212.96
343.31	223.69
343.69	224.18
344.07	224.69
344.46	225.13
344.84	225.57
345.22	225.58
345.60	225.79
345.99	226.00
346.37	226.12
346.75	226.15
347.13	226.24
347.52	226.31
347.90	226.51
348.28	226.48
348.66	226.57
349.05	226.43
349.43	226.55
349.81	226.59
350.19	226.61
350.57	226.72
350.96	226.77
351.34	226.84
351.72	226.97
352.10	227.10
352.48	227.14
352.87	227.11
353.25	227.19
353.63	227.28
354.01	227.37
354.39	227.51
354.77	227.62
355.15	227.84
355.54	227.79
355.92	227.69
356.30	227.77
356.68	228.11
357.06	228.13
357.44	228.11
357.82	228.16
358.20	228.65
358.58	228.59
358.97	228.66
359.35	228.79
359.73	228.95
360.11	228.93
360.49	228.92
360.87	229.01
361.25	229.11
361.63	229.24
362.01	229.30
362.39	229.26
362.77	229.30
363.15	229.28
363.53	229.33
363.91	229.36
364.29	229.46
364.67	229.12
365.05	229.22
365.43	229.31
365.81	229.40
366.19	229.22
366.57	229.46
366.95	229.50
367.33	229.45
367.71	229.44
368.09	229.62
368.47	229.69
368.85	229.77
369.23	229.87
369.61	229.70
369.99	229.87
370.37	229.88
370.75	230.11
371.13	229.97
371.51	229.91
371.89	229.94
372.27	229.97
372.65	229.97
373.03	229.97
373.41	229.92
373.78	229.85
374.16	229.54
374.54	229.32
374.92	229.19
375.30	229.16
375.68	228.95
376.06	228.92
376.44	228.82
376.82	228.68
377.19	228.56
377.57	228.46
377.95	228.20
378.33	228.08
378.71	227.76
379.09	227.76
379.47	227.77
379.84	227.66
380.22	227.56
380.60	227.42
380.98	227.26
381.36	227.12
381.73	227.00
382.11	227.09
382.49	227.00
382.87	226.88
383.25	226.77
383.62	227.27
384.00	227.08
384.38	227.05
384.76	227.10
385.13	227.17
385.51	227.12
385.89	227.04
386.27	227.02
386.64	226.97
387.02	226.87
387.40	226.80
387.78	226.78
388.15	226.69
388.53	226.55
388.91	226.58
389.29	226.51
389.66	226.59
390.04	226.43
390.42	226.56
390.79	226.52
391.17	226.47
391.55	225.99
391.92	225.94
392.30	225.95
392.68	225.90
393.05	225.86
393.43	226.01
393.81	226.03
394.18	226.00
394.56	226.08
394.94	226.27
395.31	226.28
395.69	226.43
396.06	226.54
396.44	226.76
396.82	226.75
397.19	227.16
397.57	227.12
397.95	227.30
398.32	227.19
398.70	227.40
399.07	227.62
399.45	227.63
399.82	227.75
400.20	227.80
400.58	227.88
400.95	227.81
401.33	228.00
401.70	228.43
402.08	228.57
402.45	228.66
402.83	228.85
403.20	229.01
403.58	229.15
403.95	229.44
404.33	229.65
404.71	229.94
405.08	230.36
405.46	230.60
405.83	230.88
406.21	231.23
406.58	231.48
406.96	231.73
407.33	232.14
407.70	232.53
408.08	233.31
408.45	233.82
408.83	234.35
409.20	234.64
409.58	234.78
409.95	235.37
410.33	235.97
410.70	236.37
411.08	236.99
411.45	237.54
411.82	238.08
412.20	238.81
412.57	239.77
412.95	240.01
413.32	240.86
413.69	241.66
414.07	242.54
414.44	243.53
414.82	244.68
415.19	245.88
415.56	247.09
415.94	248.14
416.31	249.52
416.68	250.91
417.06	252.62
417.43	254.25
417.81	256.09
418.18	257.86
418.55	259.78
418.93	261.84
419.30	264.07
419.67	266.26
420.04	268.47
420.42	270.75
420.79	273.88
421.16	276.73
421.54	279.87
421.91	282.85
422.28	285.90
422.66	289.20
423.03	292.72
423.40	295.94
423.77	299.38
424.15	302.97
424.52	306.71
424.89	310.90
425.26	314.95
425.64	318.64
426.01	322.83
426.38	327.26
426.75	331.84
427.13	336.41
427.50	341.22
427.87	346.25
428.24	351.24
428.61	355.74
428.99	361.09
429.36	366.47
429.73	372.10
430.10	377.65
430.47	383.27
430.85	388.84
431.22	395.18
431.59	402.17
431.96	408.35
432.33	415.27
432.70	421.90
433.08	429.82
433.45	437.28
433.82	444.78
434.19	453.00
434.56	461.11
434.93	468.81
435.30	476.68
435.68	485.26
436.05	493.78
436.42	502.22
436.79	509.84
437.16	518.19
437.53	526.98
437.90	535.90
438.27	544.48
438.64	553.46
439.01	561.73
439.38	568.87
439.75	576.15
440.13	584.47
440.50	592.01
440.87	598.28
441.24	604.65
441.61	611.67
441.98	616.81
442.35	622.69
442.72	628.77
443.09	634.61
443.46	638.17
443.83	640.43
444.20	642.41
444.57	645.28
444.94	646.52
445.31	647.66
445.68	648.98
446.05	649.12
446.42	647.85
446.79	646.53
447.16	644.91
447.53	643.69
447.90	640.02
448.27	636.35
448.64	631.30
449.01	627.68
449.37	621.45
449.74	615.43
450.11	608.52
450.48	600.68
450.85	592.51
451.22	585.55
451.59	578.90
451.96	572.53
452.33	564.33
452.70	556.81
453.07	548.02
453.43	538.91
453.80	530.45
454.17	522.25
454.54	514.45
454.91	506.17
455.28	498.10
455.65	490.44
456.02	483.48
456.38	476.98
456.75	469.06
457.12	462.57
457.49	456.24
457.86	449.83
458.23	444.65
458.59	438.97
458.96	433.05
459.33	427.90
459.70	422.79
460.07	418.76
460.43	414.09
460.80	409.88
461.17	406.00
461.54	402.09
461.91	398.35
462.27	394.45
462.64	391.23
463.01	387.73
463.38	384.47
463.74	380.56
464.11	377.62
464.48	375.08
464.85	372.10
465.21	369.85
465.58	367.53
465.95	364.65
466.32	362.39
466.68	360.08
467.05	357.85
467.42	355.63
467.78	353.15
468.15	351.02
468.52	349.38
468.88	347.13
469.25	345.10
469.62	343.62
469.98	342.03
470.35	340.43
470.72	338.86
471.08	337.12
471.45	335.82
471.82	334.46
472.18	332.92
472.55	331.90
472.92	330.54
473.28	329.27
473.65	328.17
474.02	327.06
474.38	326.26
474.75	325.51
475.11	324.59
475.48	323.91
475.85	323.27
476.21	322.52
476.58	322.10
476.94	321.74
477.31	321.20
477.67	320.81
478.04	320.46
478.41	320.27
478.77	320.48
479.14	320.16
479.50	320.08
479.87	320.23
480.23	320.16
480.60	320.15
480.96	320.21
481.33	320.63
481.69	320.85
482.06	321.11
482.42	321.28
482.79	321.67
483.15	322.12
483.52	322.74
483.88	323.27
484.25	323.75
484.61	324.38
484.98	325.09
485.34	326.02
485.71	326.99
486.07	327.87
486.44	328.45
486.80	329.62
487.17	330.76
487.53	332.14
487.90	333.62
488.26	335.37
488.62	337.19
488.99	338.67
489.35	340.46
489.72	342.28
490.08	344.40
490.44	346.45
490.81	348.71
491.17	350.84
491.54	353.25
491.90	355.86
492.26	358.59
492.63	361.46
492.99	364.32
493.36	367.34
493.72	370.78
494.08	374.28
494.45	378.11
494.81	382.07
495.17	385.79
495.54	390.00
495.90	394.14
496.26	398.46
496.63	403.17
496.99	408.05
497.35	413.19
497.72	418.50
498.08	424.06
498.44	429.74
498.80	435.87
499.17	442.06
499.53	448.42
499.89	455.11
500.26	461.93
500.62	468.90
500.98	476.40
501.34	483.70
501.71	491.65
502.07	499.47
502.43	507.50
502.79	516.02
503.16	524.64
503.52	533.74
503.88	543.13
504.24	552.84
504.60	562.80
504.97	573.10
505.33	583.43
505.69	594.47
506.05	605.46
506.41	616.68
506.78	628.30
507.14	640.47
507.50	652.87
507.86	665.56
508.22	678.68
508.59	691.57
508.95	705.46
509.31	719.45
509.67	733.65
510.03	748.01
510.39	762.81
510.75	778.16
511.12	793.26
511.48	808.95
511.84	824.69
512.20	840.88
512.56	857.43
512.92	874.42
513.28	891.20
513.64	908.59
514.00	926.11
514.37	943.94
514.73	962.13
515.09	980.28
515.45	998.68
515.81	1017.07
516.17	1036.04
516.53	1054.70
516.89	1073.45
517.25	1092.90
517.61	1113.49
517.97	1133.82
518.33	1153.92
518.69	1174.41
519.05	1194.81
519.41	1215.53
519.77	1236.54
520.13	1256.93
520.49	1277.69
520.85	1300.35
521.21	1321.52
521.57	1342.93
521.93	1364.01
522.29	1385.26
522.65	1405.91
523.01	1426.77
523.37	1447.46
523.73	1468.54
524.09	1489.32
524.45	1510.37
524.81	1531.31
525.17	1551.56
525.53	1572.15
525.89	1592.82
526.25	1613.86
526.61	1634.35
526.97	1655.66
527.33	1676.90
527.68	1699.16
528.04	1720.51
528.40	1740.06
528.76	1761.35
529.12	1781.61
529.48	1802.05
529.84	1822.22
530.20	1843.66
530.56	1864.46
530.91	1885.53
531.27	1906.13
531.63	1926.77
531.99	1947.55
532.35	1967.67
532.71	1988.31
533.07	2009.28
533.42	2029.55
533.78	2049.38
534.14	2069.38
534.50	2088.45
534.86	2107.74
535.21	2125.52
535.57	2143.99
535.93	2161.68
536.29	2179.07
536.65	2197.64
537.00	2215.49
537.36	2233.10
537.72	2249.70
538.08	2267.22
538.44	2283.85
538.79	2300.59
539.15	2317.28
539.51	2333.04
539.87	2348.64
540.22	2362.86
540.58	2377.08
540.94	2390.42
541.29	2403.25
541.65	2416.22
542.01	2428.95
542.37	2439.80
542.72	2450.79
543.08	2461.77
543.44	2473.50
543.79	2483.94
544.15	2493.86
544.51	2504.14
544.87	2514.04
545.22	2522.99
545.58	2530.82
545.94	2538.44
546.29	2544.98
546.65	2551.25
547.01	2556.93
547.36	2562.68
547.72	2568.22
548.07	2572.55
548.43	2577.97
548.79	2582.73
549.14	2586.88
549.50	2590.81
549.86	2594.86
550.21	2598.84
550.57	2602.00
550.92	2603.74
551.28	2605.31
551.64	2608.00
551.99	2610.09
552.35	2611.78
552.70	2613.50
553.06	2615.04
553.41	2616.29
553.77	2618.48
554.13	2620.49
554.48	2622.30
554.84	2623.80
555.19	2625.20
555.55	2626.80
555.90	2626.04
556.26	2625.52
556.61	2624.02
556.97	2621.89
557.32	2621.42
557.68	2620.11
558.03	2618.71
558.39	2617.60
558.74	2617.05
559.10	2613.79
559.45	2610.20
559.81	2605.41
560.16	2601.08
560.52	2596.79
560.87	2592.54
561.23	2586.59
561.58	2580.35
561.94	2573.20
562.29	2565.78
562.64	2558.61
563.00	2550.23
563.35	2544.00
563.71	2537.38
564.06	2531.33
564.42	2525.08
564.77	2518.09
565.12	2510.64
565.48	2503.02
565.83	2494.83
566.19	2486.60
566.54	2478.64
566.89	2470.62
567.25	2463.26
567.60	2455.50
567.96	2447.74
568.31	2439.68
568.66	2431.32
569.02	2422.27
569.37	2414.21
569.72	2406.27
570.08	2397.16
570.43	2387.77
570.78	2378.50
571.14	2368.82
571.49	2358.40
571.84	2348.65
572.20	2337.67
572.55	2327.59
572.90	2316.54
573.26	2306.03
573.61	2294.81
573.96	2284.03
574.31	2272.19
574.67	2260.30
575.02	2247.86
575.37	2235.15
575.72	2221.85
576.08	2209.47
576.43	2197.23
576.78	2183.99
577.13	2170.24
577.49	2157.17
577.84	2145.39
578.19	2132.99
578.54	2120.45
578.90	2108.59
579.25	2096.20
579.60	2083.60
579.95	2070.54
580.30	2057.49
580.66	2044.08
581.01	2030.79
581.36	2016.26
581.71	2003.59
582.06	1990.45
582.42	1977.74
582.77	1964.94
583.12	1952.77
583.47	1940.46
583.82	1928.30
584.17	1916.58
584.53	1904.92
584.88	1892.29
585.23	1878.92
585.58	1865.05
585.93	1851.68
586.28	1838.10
586.63	1823.92
586.98	1809.51
587.34	1796.18
587.69	1782.97
588.04	1770.41
588.39	1758.00
588.74	1745.98
589.09	1733.49
589.44	1720.69
589.79	1708.31
590.14	1696.17
590.49	1684.02
590.84	1671.89
591.19	1659.71
591.54	1647.19
591.89	1634.71
592.25	1624.21
592.60	1612.95
592.95	1601.57
593.30	1589.76
593.65	1578.07
594.00	1566.40
594.35	1556.66
594.70	1544.76
595.05	1533.44
595.40	1521.38
595.75	1509.50
596.10	1498.14
596.45	1486.73
596.80	1475.82
597.15	1464.39
597.50	1452.55
597.85	1441.16
598.19	1429.48
598.54	1417.63
598.89	1406.37
599.24	1395.88
599.59	1383.87
599.94	1372.73
600.29	1361.90
600.64	1351.29
600.99	1340.10
601.34	1330.35
601.69	1319.05
602.04	1309.31
602.39	1299.52
602.74	1290.38
603.08	1280.70
603.43	1271.38
603.78	1261.65
604.13	1252.02
604.48	1242.38
604.83	1232.85
605.18	1223.04
605.53	1213.51
605.87	1204.30
606.22	1195.60
606.57	1186.21
606.92	1177.03
607.27	1168.04
607.62	1159.42
607.96	1150.80
608.31	1143.01
608.66	1134.32
609.01	1125.70
609.36	1116.88
609.70	1108.25
610.05	1099.27
610.40	1090.78
610.75	1082.04
611.10	1073.46
611.44	1064.61
611.79	1056.32
612.14	1048.28
612.49	1040.35
612.83	1032.81
613.18	1025.14
613.53	1017.29
613.88	1008.89
614.22	1001.00
614.57	992.94
614.92	984.69
615.27	977.31
615.61	969.47
615.96	961.74
616.31	954.32
616.65	947.27
617.00	939.80
617.35	932.53
617.70	925.47
618.04	918.20
618.39	911.14
618.74	904.90
619.08	898.00
619.43	890.73
619.78	883.49
620.12	876.22
620.47	869.17
620.82	861.92
621.16	855.39
621.51	848.98
621.85	842.57
622.20	835.88
622.55	828.96
622.89	822.26
623.24	815.74
623.59	809.23
623.93	802.68
624.28	796.37
624.62	790.58
624.97	784.45
625.32	778.60
625.66	772.72
626.01	766.41
626.35	760.71
626.70	755.24
627.04	750.10
627.39	744.29
627.73	738.77
628.08	733.57
628.43	728.14
628.77	722.59
629.12	717.37
629.46	712.56
629.81	707.58
630.15	702.79
630.50	698.03
630.84	693.00
631.19	688.27
631.53	683.67
631.88	678.60
632.22	673.76
632.57	669.17
632.91	664.57
633.26	660.14
633.60	655.40
633.95	650.68
634.29	645.84
634.64	641.50
634.98	636.83
635.32	632.30
635.67	628.16
636.01	624.05
636.36	619.63
636.70	615.56
637.05	611.51
637.39	607.39
637.73	603.14
638.08	599.20
638.42	594.84
638.77	590.44
639.11	586.00
639.45	581.69
639.80	577.41
640.14	573.15
640.49	569.08
640.83	565.24
641.17	561.53
641.52	557.68
641.86	554.01
642.20	550.81
642.55	547.26
642.89	543.73
643.23	540.17
643.58	537.12
643.92	533.38
644.26	529.88
644.61	526.62
644.95	523.17
645.29	519.67
645.64	516.61
645.98	513.69
646.32	510.66
646.66	507.54
647.01	504.38
647.35	501.66
647.69	498.76
648.04	495.89
648.38	493.00
648.72	490.17
649.06	487.15
649.41	484.00
649.75	480.95
650.09	477.97
650.43	475.07
650.78	471.98
651.12	469.19
651.46	466.40
651.80	463.53
652.14	460.88
652.49	458.46
652.83	455.77
653.17	453.02
653.51	450.30
653.85	447.85
654.20	445.39
654.54	442.61
654.88	440.10
655.22	437.85
655.56	435.47
655.90	433.10
656.25	430.83
656.59	428.56
656.93	426.37
657.27	424.24
657.61	421.78
657.95	419.49
658.29	417.32
658.64	415.25
658.98	412.97
659.32	410.63
659.66	408.28
660.00	406.05
660.34	403.93
660.68	401.91
661.02	399.76
661.36	397.76
661.70	395.77
662.05	393.71
662.39	391.75
662.73	389.87
663.07	388.27
663.41	386.40
663.75	384.53
664.09	382.67
664.43	380.63
664.77	379.04
665.11	377.30
665.45	375.54
665.79	373.89
666.13	372.14
666.47	370.50
666.81	368.90
667.15	367.25
667.49	365.66
667.83	364.36
668.17	362.98
668.51	361.40
668.85	360.07
669.19	358.82
669.53	357.19
669.87	355.67
670.21	353.94
670.55	352.56
670.89	351.44
671.23	350.10
671.57	348.70
671.91	347.31
672.25	345.90
672.58	344.71
672.92	343.20
673.26	341.95
673.60	340.71
673.94	339.60
674.28	338.48
674.62	337.43
674.96	336.05
675.30	334.84
675.64	333.74
675.97	332.45
676.31	331.14
676.65	329.96
676.99	328.94
677.33	327.87
677.67	326.75
678.01	325.38
678.34	324.29
678.68	323.39
679.02	322.28
679.36	321.34
679.70	320.35
680.04	319.35
680.37	318.42
680.71	317.43
681.05	316.45
681.39	315.55
681.73	314.59
682.06	313.74
682.40	312.89
682.74	312.01
683.08	311.36
683.42	310.41
683.75	309.70
684.09	308.75
684.43	307.92
684.77	306.98
685.10	306.15
685.44	305.30
685.78	304.44
686.12	303.68
686.45	302.85
686.79	301.98
687.13	301.46
687.46	300.71
687.80	300.12
688.14	299.27
688.48	298.50
688.81	297.76
689.15	297.04
689.49	296.29
689.82	295.64
690.16	294.72
690.50	294.05
690.83	293.23
691.17	292.56
691.51	291.91
691.84	291.38
692.18	290.73
692.52	290.06
692.85	289.45
693.19	289.01
693.52	288.36
693.86	287.64
694.20	286.97
694.53	286.31
694.87	285.63
695.21	285.06
695.54	284.45
695.88	283.72
696.21	283.05
696.55	282.48
696.88	281.81
697.22	281.24
697.56	280.77
697.89	280.21
698.23	279.71
698.56	279.12
698.90	278.67
699.23	278.08
699.57	277.59
699.90	276.98
700.24	276.21
700.58	275.76
700.91	275.41
701.25	275.25
701.58	275.15
701.92	274.77
702.25	274.32
702.59	273.85
702.92	273.51
703.26	273.14
703.59	272.68
703.93	272.72
704.26	272.28
704.60	271.89
704.93	271.46
705.26	270.99
705.60	270.63
705.93	270.10
706.27	269.89
706.60	269.65
706.94	269.49
707.27	269.18
707.61	268.82
707.94	268.40
708.27	267.58
708.61	266.88
708.94	266.46
709.28	266.11
709.61	265.68
709.94	265.33
710.28	264.86
710.61	264.50
710.95	263.69
711.28	263.66
711.61	263.23
711.95	262.96
712.28	262.45
712.61	262.06
712.95	261.93
713.28	261.74
713.61	261.26
713.95	260.83
714.28	260.54
714.61	260.14
714.95	259.85
715.28	259.49
715.61	259.06
715.95	258.82
716.28	258.34
716.61	258.09
716.95	257.65
717.28	257.35
717.61	257.01
717.94	256.70
718.28	256.10
718.61	255.81
718.94	255.46
719.27	255.31
719.61	255.07
719.94	254.64
720.27	254.09
720.60	253.86
720.94	253.55
721.27	253.34
721.60	253.14
721.93	252.83
722.27	252.79
722.60	252.66
722.93	252.28
723.26	252.19
723.59	251.96
723.93	251.84
724.26	251.65
724.59	251.38
724.92	251.18
725.25	251.10
725.59	250.82
725.92	250.69
726.25	250.53
726.58	250.38
726.91	250.19
727.24	250.11
727.57	249.94
727.91	249.64
728.24	249.44
728.57	249.20
728.90	249.01
729.23	248.64
729.56	248.67
729.89	248.50
730.22	248.32
730.55	248.10
730.89	247.90
731.22	247.69
731.55	247.58
731.88	247.52
732.21	247.24
732.54	247.06
732.87	246.89
733.20	246.68
733.53	246.53
733.86	246.47
734.19	246.21
734.52	246.13
734.85	246.38
735.18	246.17
735.51	246.13
735.84	246.07
736.17	246.08
736.50	245.67
736.83	246.11
737.16	246.01
737.49	245.87
737.82	245.76
738.15	245.71
738.48	245.56
738.81	245.37
739.14	245.10
739.47	245.01
739.80	244.90
740.13	244.79
740.46	244.58
740.79	244.22
741.12	244.10
741.45	243.78
741.78	243.30
742.11	243.31
742.44	243.05
742.77	242.97
743.10	242.80
743.43	242.69
743.75	241.97
744.08	242.46
744.41	242.28
744.74	242.11
745.07	241.88
745.40	241.89
745.73	241.90
746.06	241.87
746.39	241.81
746.71	241.55
747.04	241.33
747.37	241.15
747.70	241.18
748.03	241.12
748.36	241.16
748.68	241.08
749.01	240.77
749.34	240.64
749.67	240.45
750.00	240.36
750.33	240.54
750.65	240.53
750.98	239.74
751.31	239.72
751.64	239.65
751.97	239.80
752.29	239.60
752.62	239.32
752.95	239.20
753.28	238.97
753.60	238.91
753.93	238.94
754.26	238.97
754.59	238.69
754.91	238.46
755.24	238.30
755.57	238.18
755.90	238.08
756.22	237.98
756.55	237.83
756.88	237.57
757.20	237.17
757.53	236.94
757.86	236.85
758.19	236.76
758.51	236.60
758.84	236.23
759.17	235.99
759.49	235.95
759.82	236.01
760.15	235.98
760.47	235.85
760.80	235.62
761.13	235.54
761.45	235.47
761.78	235.45
762.11	235.35
762.43	235.20
762.76	235.10
763.08	235.01
763.41	234.98
763.74	234.95
764.06	234.85
764.39	234.81
764.71	234.65
765.04	234.51
765.37	234.39
765.69	234.27
766.02	234.29
766.34	234.09
766.67	233.89
767.00	233.93
767.32	234.10
767.65	234.32
767.97	234.20
768.30	234.16
768.62	234.03
768.95	233.90
769.27	233.90
769.60	233.91
769.92	233.78
770.25	233.60
770.57	233.48
770.90	233.50
771.22	233.31
771.55	233.29
771.87	233.24
772.20	233.17
772.52	233.52
772.85	233.88
773.17	233.85
773.50	233.80
773.82	233.64
774.15	233.35
774.47	233.00
774.80	232.87
775.12	232.81
775.45	232.79
775.77	232.80
776.09	232.72
776.42	232.70
776.74	232.85
777.07	232.81
777.39	232.80
777.72	232.71
778.04	232.76
778.36	232.66
778.69	232.67
779.01	232.71
779.33	232.34
779.66	231.93
779.98	231.95
780.31	231.90
780.63	232.05
780.95	232.12
781.28	232.17
781.60	232.17
781.92	232.16
782.25	232.10
782.57	232.02
782.89	231.95
783.22	231.86
783.54	231.74
783.86	231.77
784.19	231.75
784.51	231.86
784.83	231.78
785.16	231.68
785.48	231.67
785.80	231.66
786.12	231.62
786.45	231.55
786.77	231.50
787.09	231.43
787.42	231.29
787.74	231.30
788.06	231.20
788.38	231.09
788.71	231.04
789.03	231.09
789.35	231.10
789.67	231.02
789.99	231.04
790.32	230.98
790.64	231.00
790.96	231.31
791.28	231.08
791.61	231.05
791.93	231.15
792.25	231.08
792.57	231.39
792.89	231.28
793.21	231.21
793.54	231.12
793.86	231.07
794.18	230.99
794.50	230.87
794.82	230.83
795.14	230.97
795.47	231.01
795.79	230.94
796.11	230.81
796.43	230.80
796.75	230.70
797.07	230.73
797.39	230.65
797.71	230.26
798.04	230.27
798.36	230.29
798.68	230.17
799.00	230.15
799.32	229.81
799.64	229.91
799.96	229.87
800.28	229.89
800.60	229.93
800.92	229.92
801.24	229.85
801.56	229.90
801.89	229.80
802.21	229.78
802.53	229.68
802.85	229.81
803.17	230.05
803.49	229.92
803.81	229.80
804.13	229.74
804.45	229.71
804.77	229.76
805.09	229.75
805.41	229.73
805.73	229.62
806.05	229.51
806.37	229.50
806.69	229.47
807.01	229.48
807.33	229.47
807.65	229.36
807.97	229.54
808.28	229.54
808.60	229.52
808.92	229.41
809.24	229.74
809.56	229.64
809.88	229.40
810.20	229.51
810.52	229.60
810.84	229.52
811.16	229.48
811.48	229.43
811.80	229.57
812.12	229.55
812.43	229.60
812.75	229.63
813.07	229.51
813.39	229.56
813.71	229.46
814.03	229.39
814.35	229.33
814.67	229.13
814.98	228.97
815.30	228.95
815.62	228.94
815.94	228.57
816.26	228.81
816.58	228.72
816.89	228.67
817.21	228.59
817.53	228.72
817.85	228.74
818.17	228.66
818.48	228.44
818.80	228.56
819.12	228.50
819.44	228.46
819.76	228.38
820.07	228.36
820.39	228.34
820.71	228.35
821.03	228.39
821.34	228.41
821.66	228.57
821.98	228.55
822.30	228.51
822.61	228.88
822.93	228.59
823.25	228.58
823.57	228.65
823.88	228.74
824.20	228.67
824.52	228.70
824.83	228.69
825.15	228.60
825.47	228.52
825.79	228.54
826.10	228.45
826.42	228.51
826.74	228.50
827.05	228.50
827.37	228.49
827.69	228.43
828.00	228.41
828.32	228.31
828.64	228.28
828.95	228.51
829.27	228.27
829.58	228.23
829.90	228.29
830.22	228.25
830.53	228.12
830.85	228.05
831.17	227.94
831.48	227.95
831.80	228.06
832.11	228.00
832.43	227.93
832.75	227.96
833.06	228.20
833.38	228.04
833.69	228.02
834.01	228.02
834.32	227.98
834.64	227.95
834.96	227.97
835.27	227.93
835.59	227.72
835.90	227.65
836.22	227.64
836.53	227.56
836.85	227.45
837.16	227.94
837.48	227.94
837.79	228.08
838.11	228.08
838.42	228.07
838.74	228.10
839.05	228.09
839.37	228.04
839.68	227.77
840.00	227.78
840.31	227.85
840.63	227.78
840.94	227.77
841.26	227.65
841.57	227.55
841.88	227.58
842.20	227.59
842.51	227.56
842.83	227.53
843.14	227.90
843.46	227.96
843.77	227.64
844.08	227.58
844.40	227.43
844.71	227.34
845.03	227.20
845.34	227.18
845.65	227.15
845.97	227.16
846.28	227.19
846.60	227.22
846.91	227.14
847.22	227.13
847.54	227.23
847.85	227.30
848.16	227.31
848.48	227.15
848.79	227.33
849.10	227.39
849.42	227.39
849.73	226.95
850.04	226.92
850.36	226.71
850.67	226.83
850.98	226.92
851.30	227.01
851.61	227.10
851.92	227.17
852.23	227.36
852.55	227.39
852.86	227.35
853.17	227.32
853.49	227.36
853.80	227.48
854.11	227.51
854.42	227.56
854.74	227.52
855.05	227.60
855.36	227.25
855.67	227.21
855.99	227.30
856.30	227.93
856.61	227.95
856.92	228.02
857.23	227.95
857.55	227.83
857.86	227.78
858.17	227.83
858.48	227.73
858.79	227.57
859.11	227.63
859.42	227.57
859.73	227.62
860.04	227.63
860.35	227.54
860.66	227.45
860.98	227.37
861.29	227.49
861.60	227.51
861.91	227.78
862.22	227.74
862.53	227.62
862.84	227.03
863.16	227.12
863.47	227.05
863.78	227.07
864.09	227.10
864.40	227.15
864.71	227.16
865.02	227.25
865.33	227.12
865.64	227.09
865.95	227.09
866.27	227.31
866.58	227.26
866.89	227.29
867.20	227.24
867.51	227.19
867.82	227.12
868.13	227.21
868.44	227.02
868.75	227.08
869.06	227.13
869.37	227.15
869.68	227.05
869.99	227.07
870.30	227.09
870.61	227.22
870.92	227.15
871.23	227.05
871.54	227.09
871.85	227.27
872.16	227.27
872.47	227.29
872.78	227.14
873.09	227.15
873.40	227.11
873.71	227.10
874.02	227.19
874.33	227.14
874.64	227.07
874.95	227.12
875.26	227.00
875.56	226.98
875.87	227.09
876.18	227.02
876.49	227.50
876.80	227.48
877.11	227.30
877.42	227.28
877.73	227.34
878.04	227.24
878.35	227.21
878.66	227.20
878.96	227.12
879.27	227.09
879.58	227.09
879.89	226.98
880.20	227.17
880.51	227.13
880.82	227.11
881.12	227.14
881.43	227.09
881.74	227.09
882.05	227.07
882.36	227.06
882.67	227.08
882.97	226.57
883.28	226.53
883.59	226.55
883.90	226.61
884.21	226.70
884.51	226.70
884.82	226.66
885.13	226.69
885.44	226.72
885.74	226.68
886.05	226.72
886.36	226.79
886.67	226.63
886.98	226.85
887.28	226.93
887.59	226.96
887.90	226.98
888.20	226.95
888.51	227.06
888.82	227.01
889.13	227.09
889.43	227.50
889.74	227.52
890.05	227.50
890.35	227.49
890.66	227.34
890.97	227.29
891.28	227.22
891.58	227.13
891.89	227.20
892.20	227.17
892.50	227.03
892.81	226.99
893.12	227.00
893.42	226.83
893.73	226.83
894.04	226.80
894.34	226.83
894.65	226.85
894.95	226.79
895.26	226.79
895.57	227.00
895.87	226.53
896.18	226.60
896.48	226.61
896.79	226.59
897.10	226.71
897.40	226.74
897.71	226.87
898.01	226.92
898.32	227.00
898.63	227.00
898.93	227.08
899.24	227.10
899.54	227.02
899.85	226.98
900.15	226.95
900.46	226.90
900.76	227.00
901.07	226.94
901.38	226.93
901.68	226.95
901.99	226.68
902.29	226.71
902.60	226.62
902.90	226.52
903.21	226.50
903.51	226.46
903.82	226.56
904.12	226.51
904.43	226.48
904.73	226.33
905.03	226.30
905.34	226.74
905.64	226.73
905.95	226.75
906.25	226.73
906.56	226.73
906.86	226.75
907.17	226.57
907.47	226.62
907.77	226.50
908.08	226.43
908.38	226.50
908.69	226.54
908.99	226.61
909.30	226.71
909.60	226.72
909.90	226.65
910.21	226.41
910.51	226.35
910.81	226.38
911.12	226.42
911.42	226.41
911.73	225.93
912.03	225.90
912.33	226.00
912.64	226.00
912.94	225.95
913.24	225.85
913.55	225.82
913.85	225.81
914.15	225.91
914.46	225.96
914.76	225.91
915.06	225.84
915.37	225.79
915.67	225.70
915.97	225.70
916.27	225.66
916.58	225.84
916.88	225.80
917.18	225.79
917.49	226.05
917.79	226.07
918.09	226.19
918.39	226.35
918.70	226.28
919.00	226.18
919.30	226.40
919.60	226.44
919.91	226.46
920.21	226.50
920.51	226.44
920.81	226.45
921.12	226.51
921.42	226.55
921.72	226.56
922.02	226.63
922.32	226.68
922.63	226.75
922.93	226.92
923.23	226.95
923.53	226.82
923.83	226.65
924.13	226.73
924.44	226.66
924.74	226.74
925.04	226.87
925.34	226.98
925.64	226.80
925.94	226.80
926.24	227.08
926.55	226.98
926.85	227.09
927.15	227.05
927.45	227.07
927.75	227.11
928.05	227.15
928.35	227.11
928.65	227.26
928.95	227.20
929.26	227.04
929.56	227.17
929.86	227.30
930.16	227.27
930.46	227.20
930.76	227.25
931.06	227.03
931.36	226.93
931.66	227.07
931.96	227.12
932.26	227.16
932.56	227.02
932.86	227.11
933.16	227.16
933.46	227.10
933.76	227.00
934.06	227.05
934.36	227.15
934.66	227.15
934.96	227.07
935.26	227.16
935.56	227.25
935.86	227.07
936.16	227.08
936.46	226.99
936.76	226.98
937.06	226.88
937.36	226.87
937.66	226.87
937.96	226.80
938.26	226.71
938.56	226.70
938.86	226.71
939.16	226.82
939.46	226.74
939.76	226.77
940.06	226.79
940.35	226.70
940.65	226.53
940.95	226.57
941.25	226.41
941.55	226.34
941.85	226.25
942.15	226.39
942.45	226.49
942.75	226.46
943.04	226.43
943.34	226.53
943.64	226.54
943.94	226.49
944.24	226.47
944.54	226.50
944.84	226.50
945.13	226.43
945.43	226.29
945.73	226.30
946.03	226.21
946.33	226.16
946.62	226.15
946.92	226.15
947.22	226.20
947.52	226.24
947.82	226.25
948.11	226.22
948.41	226.11
948.71	225.92
949.01	225.95
949.31	225.90
949.60	225.83
949.90	225.85
950.20	225.84
950.50	225.83
950.79	225.77
951.09	225.80
951.39	225.76
951.69	225.73
951.98	225.80
952.28	225.88
952.58	225.83
952.87	225.85
953.17	225.92
953.47	225.84
953.76	225.86
954.06	225.83
954.36	225.76
954.66	225.80
954.95	226.00
955.25	226.08
955.55	226.21
955.84	226.17
956.14	226.25
956.44	226.23
956.73	226.18
957.03	226.23
957.32	226.19
957.62	226.14
957.92	226.28
958.21	226.23
958.51	226.79
958.81	226.84
959.10	226.83
959.40	226.97
959.69	227.04
959.99	227.08
960.29	227.10
960.58	227.12
960.88	227.30
961.17	227.26
961.47	227.29
961.76	227.24
962.06	227.35
962.36	227.31
962.65	227.32
962.95	227.29
963.24	227.29
963.54	227.36
963.83	227.46
964.13	227.47
964.42	227.36
964.72	226.98
965.01	227.04
965.31	227.06
965.60	226.98
965.90	227.30
966.19	227.20
966.49	227.24
966.78	227.32
967.08	227.27
967.37	227.27
967.67	227.20
967.96	227.34
968.26	227.30
968.55	227.44
968.85	227.51
969.14	227.58
969.43	227.60
969.73	227.51
970.02	227.45
970.32	227.39
970.61	227.45
970.91	227.25
971.20	227.20
971.49	227.21
971.79	227.20
972.08	226.87
972.38	227.02
972.67	226.98
972.96	226.98
973.26	226.87
973.55	226.94
973.85	226.88
974.14	226.74
974.43	226.80
974.73	226.63
975.02	226.53
975.31	226.44
975.61	226.38
975.90	226.38
976.19	226.36
976.49	226.35
976.78	226.38
977.07	226.40
977.37	226.41
977.66	226.38
977.95	226.35
978.24	226.34
978.54	226.37
978.83	226.30
979.12	226.28
979.42	226.32
979.71	226.25
980.00	226.22
980.29	226.28
980.59	226.15
980.88	226.27
981.17	226.24
981.46	226.29
981.76	226.32
982.05	226.46
982.34	226.56
982.63	226.55
982.93	226.58
983.22	226.71
983.51	226.70
983.80	226.74
984.09	226.77
984.39	226.71
984.68	226.56
984.97	226.57
985.26	226.48
985.55	226.44
985.85	226.37
986.14	226.45
986.43	226.45
986.72	226.45
987.01	226.28
987.30	226.37
987.59	226.40
987.89	226.36
988.18	226.22
988.47	226.11
988.76	226.08
989.05	226.00
989.34	225.95
989.63	226.09
989.92	226.05
990.22	225.91
990.51	225.95
990.80	225.92
991.09	225.97
991.38	226.05
991.67	226.04
991.96	226.02
992.25	226.06
992.54	226.03
992.83	226.07
993.12	226.13
993.41	226.11
993.70	226.22
993.99	226.35
994.28	226.44
994.58	226.52
994.87	226.47
995.16	226.52
995.45	226.50
995.74	226.31
996.03	226.35
996.32	226.44
996.61	226.57
996.90	226.57
997.19	226.59
997.48	226.61
997.77	226.67
998.06	226.66
998.34	226.57
998.63	226.59
998.92	226.66
999.21	226.70
999.50	226.72
999.79	226.61
1000.08	226.60
1000.37	226.59
1000.66	226.53
1000.95	226.69
1001.24	226.61
1001.53	226.62
1001.82	226.74
1002.11	226.59
1002.40	226.68
1002.68	226.78
1002.97	227.17
1003.26	227.11
1003.55	227.03
1003.84	226.98
1004.13	227.12
1004.42	227.16
1004.71	227.15
1004.99	227.09
1005.28	227.16
1005.57	227.16
1005.86	227.16
1006.15	227.14
1006.44	227.08
1006.72	227.16
1007.01	227.10
1007.30	227.19
1007.59	227.07
1007.88	227.02
1008.17	227.12
1008.45	227.01
1008.74	226.82
1009.03	226.57
1009.32	226.61
1009.60	226.62
1009.89	226.57
1010.18	226.48
1010.47	226.45
1010.76	226.43
1011.04	226.38
1011.33	226.45
1011.62	226.51
1011.91	226.52
1012.19	226.49
1012.48	226.50
1012.77	226.44
1013.05	226.58
1013.34	226.56
1013.63	226.63
1013.92	226.63
1014.20	226.56
1014.49	226.56
1014.78	226.64
1015.06	226.54
1015.35	226.51
1015.64	226.55
1015.92	226.68
1016.21	226.64
1016.50	226.65
1016.78	226.74
1017.07	226.76
1017.36	226.63
1017.64	226.56
1017.93	226.59
1018.22	226.57
1018.50	226.51
1018.79	226.53
1019.08	226.32
1019.36	226.32
1019.65	226.19
1019.93	226.31
1020.22	226.40
1020.51	226.71
1020.79	226.59
1021.08	225.75
1021.36	224.70
1021.65	226.70
1021.94	225.70
1022.22	226.30
1022.51	223.75
1022.79	228.10
1023.08	227.00
1023.36	233.00
1023.65	225.65
>>>>>End Processed Spectral Data<<<<<
