SpectraSuite Data File
++++++++++++++++++++++++++++++++++++
Date: Wed Sep 04 17:54:22 EDT 2013
User: lab3
Dark Spectrum Present: Yes
Reference Spectrum Present: No
Number of Sampled Component Spectra: 1
Spectrometers: USB2E7196
Integration Time (usec): 170000 (USB2E7196)
Spectra Averaged: 20 (USB2E7196)
Boxcar Smoothing: 10 (USB2E7196)
Correct for Electrical Dark: No (USB2E7196)
Strobe/Lamp Enabled: No (USB2E7196)
Correct for Detector Non-linearity: No (USB2E7196)
Correct for Stray Light: No (USB2E7196)
Number of Pixels in Processed Spectrum: 2048
>>>>>Begin Processed Spectral Data<<<<<
339.09	0.00
339.48	213.85
339.86	215.10
340.24	215.55
340.63	217.55
341.01	225.35
341.39	221.20
341.78	222.50
342.16	223.90
342.54	223.10
342.93	212.41
343.31	223.03
343.69	223.55
344.07	224.00
344.46	224.55
344.84	224.91
345.22	224.98
345.60	225.15
345.99	225.33
346.37	225.49
346.75	225.66
347.13	225.78
347.52	225.87
347.90	226.06
348.28	226.03
348.66	226.21
349.05	226.08
349.43	226.24
349.81	226.29
350.19	226.29
350.57	226.40
350.96	226.46
351.34	226.69
351.72	226.76
352.10	226.88
352.48	226.85
352.87	226.99
353.25	227.00
353.63	227.12
354.01	227.16
354.39	227.15
354.77	227.16
355.15	227.33
355.54	227.34
355.92	227.25
356.30	227.35
356.68	227.63
357.06	227.70
357.44	227.62
357.82	227.66
358.20	228.16
358.58	228.14
358.97	228.22
359.35	228.35
359.73	228.51
360.11	228.59
360.49	228.64
360.87	228.62
361.25	228.75
361.63	228.91
362.01	229.02
362.39	229.11
362.77	229.25
363.15	229.27
363.53	229.29
363.91	229.32
364.29	229.41
364.67	228.96
365.05	229.07
365.43	229.17
365.81	229.25
366.19	229.12
366.57	229.30
366.95	229.39
367.33	229.33
367.71	229.35
368.09	229.40
368.47	229.48
368.85	229.51
369.23	229.55
369.61	229.41
369.99	229.48
370.37	229.52
370.75	229.68
371.13	229.61
371.51	229.54
371.89	229.63
372.27	229.66
372.65	229.72
373.03	229.65
373.41	229.57
373.78	229.46
374.16	229.14
374.54	228.96
374.92	228.85
375.30	228.76
375.68	228.55
376.06	228.51
376.44	228.41
376.82	228.34
377.19	228.27
377.57	228.15
377.95	227.96
378.33	227.77
378.71	227.41
379.09	227.45
379.47	227.47
379.84	227.37
380.22	227.19
380.60	227.06
380.98	227.01
381.36	226.94
381.73	226.83
382.11	226.87
382.49	226.86
382.87	226.66
383.25	226.59
383.62	227.15
384.00	226.98
384.38	226.93
384.76	226.96
385.13	227.06
385.51	227.03
385.89	226.88
386.27	226.92
386.64	226.97
387.02	226.83
387.40	226.78
387.78	226.70
388.15	226.74
388.53	226.74
388.91	226.66
389.29	226.57
389.66	226.67
390.04	226.60
390.42	226.65
390.79	226.68
391.17	226.63
391.55	226.06
391.92	226.09
392.30	226.10
392.68	226.05
393.05	225.98
393.43	226.04
393.81	226.07
394.18	225.99
394.56	226.03
394.94	226.18
395.31	226.20
395.69	226.43
396.06	226.47
396.44	226.54
396.82	226.57
397.19	226.89
397.57	226.88
397.95	227.01
398.32	226.90
398.70	227.05
399.07	227.29
399.45	227.33
399.82	227.38
400.20	227.42
400.58	227.44
400.95	227.45
401.33	227.65
401.70	228.14
402.08	228.32
402.45	228.40
402.83	228.58
403.20	228.69
403.58	228.69
403.95	228.93
404.33	229.14
404.71	229.39
405.08	229.86
405.46	230.13
405.83	230.35
406.21	230.66
406.58	230.99
406.96	231.18
407.33	231.61
407.70	232.01
408.08	232.80
408.45	233.29
408.83	233.71
409.20	234.11
409.58	234.30
409.95	234.90
410.33	235.47
410.70	235.82
411.08	236.50
411.45	237.19
411.82	237.72
412.20	238.52
412.57	239.50
412.95	239.79
413.32	240.64
413.69	241.48
414.07	242.39
414.44	243.32
414.82	244.34
415.19	245.57
415.56	246.78
415.94	247.78
416.31	249.15
416.68	250.58
417.06	252.10
417.43	253.72
417.81	255.40
418.18	257.19
418.55	259.18
418.93	261.18
419.30	263.29
419.67	265.49
420.04	267.76
420.42	270.01
420.79	273.04
421.16	275.80
421.54	278.87
421.91	281.88
422.28	284.99
422.66	288.25
423.03	291.57
423.40	294.75
423.77	298.34
424.15	301.95
424.52	305.69
424.89	309.92
425.26	313.91
425.64	317.73
426.01	321.93
426.38	326.26
426.75	330.74
427.13	335.19
427.50	339.95
427.87	344.78
428.24	349.70
428.61	354.27
428.99	359.62
429.36	364.94
429.73	370.31
430.10	375.90
430.47	381.66
430.85	387.26
431.22	393.56
431.59	400.23
431.96	406.40
432.33	413.32
432.70	420.09
433.08	427.87
433.45	435.21
433.82	442.51
434.19	450.75
434.56	458.84
434.93	466.45
435.30	474.25
435.68	482.77
436.05	491.14
436.42	499.40
436.79	507.01
437.16	515.43
437.53	524.22
437.90	532.82
438.27	541.28
438.64	550.12
439.01	558.45
439.38	565.76
439.75	572.99
440.13	581.15
440.50	588.52
440.87	594.37
441.24	600.78
441.61	607.73
441.98	612.85
442.35	618.60
442.72	624.70
443.09	630.53
443.46	634.03
443.83	636.32
444.20	638.27
444.57	640.95
444.94	642.07
445.31	643.19
445.68	644.57
446.05	644.88
446.42	643.56
446.79	642.05
447.16	640.38
447.53	639.09
447.90	635.26
448.27	631.51
448.64	626.87
449.01	623.16
449.37	617.13
449.74	610.92
450.11	604.13
450.48	596.42
450.85	588.37
451.22	581.52
451.59	575.05
451.96	568.73
452.33	560.63
452.70	553.35
453.07	544.80
453.43	535.72
453.80	527.17
454.17	519.29
454.54	511.65
454.91	503.49
455.28	495.54
455.65	488.14
456.02	481.30
456.38	474.95
456.75	467.22
457.12	460.73
457.49	454.56
457.86	448.28
458.23	443.16
458.59	437.52
458.96	431.75
459.33	426.61
459.70	421.66
460.07	417.67
460.43	412.94
460.80	408.66
461.17	404.99
461.54	401.15
461.91	397.31
462.27	393.38
462.64	390.14
463.01	386.59
463.38	383.35
463.74	379.52
464.11	376.51
464.48	373.88
464.85	370.96
465.21	368.88
465.58	366.50
465.95	363.69
466.32	361.39
466.68	359.09
467.05	356.86
467.42	354.62
467.78	352.26
468.15	350.14
468.52	348.50
468.88	346.21
469.25	344.24
469.62	342.80
469.98	341.29
470.35	339.71
470.72	338.29
471.08	336.49
471.45	335.20
471.82	333.94
472.18	332.50
472.55	331.55
472.92	330.12
473.28	328.98
473.65	327.82
474.02	326.81
474.38	326.03
474.75	325.30
475.11	324.39
475.48	323.69
475.85	323.04
476.21	322.32
476.58	321.85
476.94	321.47
477.31	321.02
477.67	320.51
478.04	320.16
478.41	319.90
478.77	320.30
479.14	320.02
479.50	319.95
479.87	320.08
480.23	320.12
480.60	320.19
480.96	320.17
481.33	320.53
481.69	320.75
482.06	320.95
482.42	321.12
482.79	321.54
483.15	321.95
483.52	322.51
483.88	323.05
484.25	323.53
484.61	324.21
484.98	324.88
485.34	325.92
485.71	326.84
486.07	327.89
486.44	328.42
486.80	329.47
487.17	330.56
487.53	331.82
487.90	333.17
488.26	334.76
488.62	336.50
488.99	337.99
489.35	339.69
489.72	341.60
490.08	343.57
490.44	345.59
490.81	347.86
491.17	350.12
491.54	352.56
491.90	355.27
492.26	357.89
492.63	360.63
492.99	363.51
493.36	366.65
493.72	369.90
494.08	373.38
494.45	377.00
494.81	380.90
495.17	384.81
495.54	388.95
495.90	393.19
496.26	397.55
496.63	402.21
496.99	407.03
497.35	412.07
497.72	417.36
498.08	423.00
498.44	428.62
498.80	434.73
499.17	440.84
499.53	446.95
499.89	453.70
500.26	460.59
500.62	467.50
500.98	474.83
501.34	482.16
501.71	489.85
502.07	497.81
502.43	505.86
502.79	514.28
503.16	522.88
503.52	531.84
503.88	541.16
504.24	550.94
504.60	561.07
504.97	571.35
505.33	581.80
505.69	592.75
506.05	603.87
506.41	614.87
506.78	626.47
507.14	638.53
507.50	650.90
507.86	663.37
508.22	676.27
508.59	689.40
508.95	703.10
509.31	717.19
509.67	731.48
510.03	745.85
510.39	760.51
510.75	775.63
511.12	790.79
511.48	806.38
511.84	821.99
512.20	837.86
512.56	854.01
512.92	870.76
513.28	887.34
513.64	904.45
514.00	921.92
514.37	939.64
514.73	957.60
515.09	975.78
515.45	994.17
515.81	1012.60
516.17	1031.32
516.53	1050.02
516.89	1068.68
517.25	1087.94
517.61	1107.98
517.97	1128.28
518.33	1148.15
518.69	1168.46
519.05	1188.81
519.41	1209.23
519.77	1230.25
520.13	1250.94
520.49	1271.54
520.85	1293.64
521.21	1314.82
521.57	1336.39
521.93	1357.25
522.29	1378.80
522.65	1399.00
523.01	1419.75
523.37	1440.45
523.73	1461.56
524.09	1482.04
524.45	1502.47
524.81	1523.07
525.17	1543.84
525.53	1564.16
525.89	1585.19
526.25	1605.98
526.61	1626.45
526.97	1647.52
527.33	1668.85
527.68	1690.74
528.04	1712.06
528.40	1731.80
528.76	1752.82
529.12	1772.97
529.48	1793.96
529.84	1813.48
530.20	1834.82
530.56	1855.87
530.91	1877.04
531.27	1897.17
531.63	1917.61
531.99	1938.30
532.35	1958.39
532.71	1978.51
533.07	1999.02
533.42	2018.85
533.78	2038.70
534.14	2058.46
534.50	2077.63
534.86	2096.47
535.21	2113.78
535.57	2132.26
535.93	2150.04
536.29	2167.63
536.65	2186.11
537.00	2203.41
537.36	2221.25
537.72	2237.42
538.08	2254.38
538.44	2270.77
538.79	2287.21
539.15	2304.03
539.51	2319.99
539.87	2335.00
540.22	2348.66
540.58	2363.12
540.94	2376.26
541.29	2388.90
541.65	2401.50
542.01	2413.99
542.37	2424.24
542.72	2435.64
543.08	2446.19
543.44	2457.63
543.79	2467.75
544.15	2477.49
544.51	2487.55
544.87	2497.14
545.22	2506.03
545.58	2513.31
545.94	2520.14
546.29	2526.63
546.65	2532.79
547.01	2538.29
547.36	2544.02
547.72	2549.86
548.07	2553.55
548.43	2558.42
548.79	2562.84
549.14	2567.09
549.50	2570.80
549.86	2575.04
550.21	2578.55
550.57	2581.80
550.92	2583.20
551.28	2584.50
551.64	2586.77
551.99	2588.50
552.35	2590.16
552.70	2592.41
553.06	2594.58
553.41	2595.89
553.77	2597.39
554.13	2598.83
554.48	2600.45
554.84	2601.65
555.19	2602.58
555.55	2604.59
555.90	2604.30
556.26	2603.55
556.61	2601.77
556.97	2599.84
557.32	2599.29
557.68	2597.92
558.03	2596.78
558.39	2595.52
558.74	2594.51
559.10	2590.91
559.45	2587.47
559.81	2583.00
560.16	2577.56
560.52	2572.60
560.87	2568.58
561.23	2563.23
561.58	2557.35
561.94	2550.41
562.29	2543.31
562.64	2536.11
563.00	2527.77
563.35	2520.99
563.71	2514.65
564.06	2508.51
564.42	2501.64
564.77	2494.63
565.12	2487.35
565.48	2479.30
565.83	2471.48
566.19	2463.64
566.54	2455.65
566.89	2447.31
567.25	2439.67
567.60	2432.75
567.96	2425.14
568.31	2416.73
568.66	2408.15
569.02	2399.08
569.37	2390.91
569.72	2383.58
570.08	2374.66
570.43	2364.90
570.78	2355.86
571.14	2345.93
571.49	2335.86
571.84	2326.36
572.20	2315.42
572.55	2305.26
572.90	2294.35
573.26	2283.99
573.61	2272.93
573.96	2261.93
574.31	2250.01
574.67	2238.04
575.02	2224.98
575.37	2211.96
575.72	2198.95
576.08	2187.00
576.43	2174.51
576.78	2161.58
577.13	2147.65
577.49	2135.00
577.84	2123.38
578.19	2111.60
578.54	2099.10
578.90	2087.00
579.25	2074.85
579.60	2062.20
579.95	2049.25
580.30	2036.41
580.66	2022.89
581.01	2009.34
581.36	1995.30
581.71	1982.80
582.06	1969.75
582.42	1957.62
582.77	1945.53
583.12	1933.70
583.47	1921.33
583.82	1909.39
584.17	1897.14
584.53	1885.20
584.88	1872.41
585.23	1859.36
585.58	1845.13
585.93	1832.07
586.28	1818.77
586.63	1804.86
586.98	1790.80
587.34	1777.47
587.69	1763.89
588.04	1751.42
588.39	1739.28
588.74	1727.46
589.09	1715.63
589.44	1703.05
589.79	1691.12
590.14	1679.11
590.49	1666.81
590.84	1654.75
591.19	1642.71
591.54	1630.77
591.89	1618.63
592.25	1608.47
592.60	1596.92
592.95	1585.35
593.30	1573.54
593.65	1561.77
594.00	1549.82
594.35	1540.00
594.70	1528.34
595.05	1517.27
595.40	1505.10
595.75	1493.19
596.10	1481.97
596.45	1470.52
596.80	1459.81
597.15	1448.07
597.50	1436.35
597.85	1425.07
598.19	1413.51
598.54	1401.88
598.89	1390.60
599.24	1380.00
599.59	1368.25
599.94	1357.50
600.29	1347.34
600.64	1337.19
600.99	1326.16
601.34	1316.66
601.69	1305.72
602.04	1295.90
602.39	1286.09
602.74	1277.04
603.08	1267.63
603.43	1258.42
603.78	1248.51
604.13	1238.70
604.48	1229.18
604.83	1219.40
605.18	1209.60
605.53	1200.20
605.87	1190.97
606.22	1182.46
606.57	1173.31
606.92	1163.84
607.27	1155.03
607.62	1146.06
607.96	1137.61
608.31	1129.77
608.66	1121.29
609.01	1112.89
609.36	1104.51
609.70	1096.07
610.05	1087.65
610.40	1079.28
610.75	1070.47
611.10	1062.25
611.44	1053.64
611.79	1045.48
612.14	1037.77
612.49	1029.97
612.83	1022.51
613.18	1014.92
613.53	1006.90
613.88	998.90
614.22	991.21
614.57	983.32
614.92	975.61
615.27	967.77
615.61	960.16
615.96	952.42
616.31	944.74
616.65	937.49
617.00	930.17
617.35	922.78
617.70	915.66
618.04	908.59
618.39	901.26
618.74	895.01
619.08	888.41
619.43	881.26
619.78	874.31
620.12	867.09
620.47	860.19
620.82	853.30
621.16	846.69
621.51	840.46
621.85	834.01
622.20	827.46
622.55	820.84
622.89	814.41
623.24	808.11
623.59	801.92
623.93	795.75
624.28	789.70
624.62	784.15
624.97	778.47
625.32	772.61
625.66	766.91
626.01	760.87
626.35	755.23
626.70	749.65
627.04	744.41
627.39	738.85
627.73	733.52
628.08	728.31
628.43	722.81
628.77	717.45
629.12	712.32
629.46	707.57
629.81	703.02
630.15	698.26
630.50	693.47
630.84	688.67
631.19	683.63
631.53	678.94
631.88	673.72
632.22	668.72
632.57	664.45
632.91	659.88
633.26	655.37
633.60	650.66
633.95	646.07
634.29	641.21
634.64	636.84
634.98	632.16
635.32	627.83
635.67	623.82
636.01	619.61
636.36	615.10
636.70	610.85
637.05	606.59
637.39	602.45
637.73	598.33
638.08	594.22
638.42	590.19
638.77	585.94
639.11	581.70
639.45	577.30
639.80	572.82
640.14	568.69
640.49	564.74
640.83	560.82
641.17	557.22
641.52	553.52
641.86	549.93
642.20	546.87
642.55	543.17
642.89	539.69
643.23	536.21
643.58	533.34
643.92	529.77
644.26	526.35
644.61	523.19
644.95	519.81
645.29	516.46
645.64	513.29
645.98	510.29
646.32	507.40
646.66	504.46
647.01	501.61
647.35	498.85
647.69	496.00
648.04	493.34
648.38	490.52
648.72	487.83
649.06	484.80
649.41	481.61
649.75	478.77
650.09	475.75
650.43	472.77
650.78	469.65
651.12	466.75
651.46	463.91
651.80	461.00
652.14	458.36
652.49	455.78
652.83	453.14
653.17	450.39
653.51	447.60
653.85	445.17
654.20	442.52
654.54	440.01
654.88	437.43
655.22	435.12
655.56	432.76
655.90	430.32
656.25	428.06
656.59	425.79
656.93	423.44
657.27	421.43
657.61	419.12
657.95	416.95
658.29	414.96
658.64	412.87
658.98	410.68
659.32	408.34
659.66	406.13
660.00	404.13
660.34	402.15
660.68	400.11
661.02	398.09
661.36	396.22
661.70	394.22
662.05	392.32
662.39	390.27
662.73	388.39
663.07	386.81
663.41	385.08
663.75	383.20
664.09	381.48
664.43	379.55
664.77	377.83
665.11	376.03
665.45	374.30
665.79	372.79
666.13	371.10
666.47	369.59
666.81	368.05
667.15	366.29
667.49	364.64
667.83	363.26
668.17	361.71
668.51	360.20
668.85	358.81
669.19	357.60
669.53	356.10
669.87	354.48
670.21	352.88
670.55	351.45
670.89	350.35
671.23	349.07
671.57	347.64
671.91	346.46
672.25	345.19
672.58	343.98
672.92	342.42
673.26	341.23
673.60	340.09
673.94	338.79
674.28	337.77
674.62	336.66
674.96	335.40
675.30	334.28
675.64	333.10
675.97	331.90
676.31	330.55
676.65	329.25
676.99	328.38
677.33	327.23
677.67	326.21
678.01	324.85
678.34	323.80
678.68	322.86
679.02	321.77
679.36	320.75
679.70	319.55
680.04	318.70
680.37	317.74
680.71	316.71
681.05	315.83
681.39	314.86
681.73	313.96
682.06	313.10
682.40	312.29
682.74	311.48
683.08	310.85
683.42	309.99
683.75	309.29
684.09	308.30
684.43	307.47
684.77	306.54
685.10	305.80
685.44	304.97
685.78	304.07
686.12	303.21
686.45	302.40
686.79	301.70
687.13	301.02
687.46	300.23
687.80	299.54
688.14	298.83
688.48	298.17
688.81	297.36
689.15	296.77
689.49	295.98
689.82	295.23
690.16	294.27
690.50	293.57
690.83	292.88
691.17	292.09
691.51	291.38
691.84	290.76
692.18	290.05
692.52	289.35
692.85	288.78
693.19	288.37
693.52	287.82
693.86	287.17
694.20	286.49
694.53	285.88
694.87	285.26
695.21	284.63
695.54	283.99
695.88	283.39
696.21	282.61
696.55	281.99
696.88	281.44
697.22	280.77
697.56	280.30
697.89	279.66
698.23	279.15
698.56	278.57
698.90	278.01
699.23	277.38
699.57	276.76
699.90	276.15
700.24	275.48
700.58	274.96
700.91	274.54
701.25	274.36
701.58	274.26
701.92	273.91
702.25	273.45
702.59	272.96
702.92	272.54
703.26	272.14
703.59	271.75
703.93	271.66
704.26	271.37
704.60	270.78
704.93	270.43
705.26	270.04
705.60	269.71
705.93	269.30
706.27	269.07
706.60	268.89
706.94	268.76
707.27	268.26
707.61	267.92
707.94	267.53
708.27	266.85
708.61	266.02
708.94	265.50
709.28	265.15
709.61	264.70
709.94	264.37
710.28	264.04
710.61	263.63
710.95	262.89
711.28	262.78
711.61	262.45
711.95	262.17
712.28	261.77
712.61	261.47
712.95	261.34
713.28	261.24
713.61	260.85
713.95	260.34
714.28	260.06
714.61	259.66
714.95	259.29
715.28	258.86
715.61	258.59
715.95	258.37
716.28	257.98
716.61	257.78
716.95	257.46
717.28	257.09
717.61	256.82
717.94	256.52
718.28	255.87
718.61	255.62
718.94	255.19
719.27	254.89
719.61	254.66
719.94	254.28
720.27	253.67
720.60	253.35
720.94	253.09
721.27	252.91
721.60	252.72
721.93	252.48
722.27	252.44
722.60	252.27
722.93	251.94
723.26	251.86
723.59	251.61
723.93	251.48
724.26	251.35
724.59	251.04
724.92	250.86
725.25	250.82
725.59	250.66
725.92	250.55
726.25	250.44
726.58	250.20
726.91	249.92
727.24	249.85
727.57	249.63
727.91	249.35
728.24	249.21
728.57	249.02
728.90	248.87
729.23	248.57
729.56	248.59
729.89	248.44
730.22	248.18
730.55	247.95
730.89	247.74
731.22	247.52
731.55	247.39
731.88	247.16
732.21	246.91
732.54	246.65
732.87	246.49
733.20	246.31
733.53	246.09
733.86	246.01
734.19	245.78
734.52	245.69
734.85	245.91
735.18	245.64
735.51	245.61
735.84	245.46
736.17	245.39
736.50	245.00
736.83	245.44
737.16	245.26
737.49	245.17
737.82	244.96
738.15	244.92
738.48	244.80
738.81	244.71
739.14	244.51
739.47	244.35
739.80	244.17
740.13	244.04
740.46	243.84
740.79	243.61
741.12	243.42
741.45	243.25
741.78	242.78
742.11	242.77
742.44	242.48
742.77	242.38
743.10	242.20
743.43	242.06
743.75	241.34
744.08	241.76
744.41	241.48
744.74	241.29
745.07	241.02
745.40	240.94
745.73	240.94
746.06	240.81
746.39	240.79
746.71	240.61
747.04	240.43
747.37	240.35
747.70	240.27
748.03	240.18
748.36	240.07
748.68	239.95
749.01	239.72
749.34	239.61
749.67	239.56
750.00	239.45
750.33	239.68
750.65	239.61
750.98	238.96
751.31	238.90
751.64	238.81
751.97	238.86
752.29	238.73
752.62	238.37
752.95	238.25
753.28	238.04
753.60	237.93
753.93	237.93
754.26	237.84
754.59	237.64
754.91	237.49
755.24	237.40
755.57	237.36
755.90	237.26
756.22	237.14
756.55	236.97
756.88	236.84
757.20	236.43
757.53	236.25
757.86	236.25
758.19	236.19
758.51	236.08
758.84	235.80
759.17	235.65
759.49	235.70
759.82	235.93
760.15	235.92
760.47	235.78
760.80	235.62
761.13	235.61
761.45	235.52
761.78	235.48
762.11	235.34
762.43	235.11
762.76	234.95
763.08	234.92
763.41	234.88
763.74	234.83
764.06	234.74
764.39	234.66
764.71	234.43
765.04	234.33
765.37	234.27
765.69	234.21
766.02	234.18
766.34	234.02
766.67	233.66
767.00	233.68
767.32	233.97
767.65	234.14
767.97	234.10
768.30	234.02
768.62	233.96
768.95	233.85
769.27	233.78
769.60	233.82
769.92	233.67
770.25	233.44
770.57	233.25
770.90	233.16
771.22	233.10
771.55	233.11
771.87	233.14
772.20	233.05
772.52	233.41
772.85	233.91
773.17	233.88
773.50	233.86
773.82	233.71
774.15	233.31
774.47	232.98
774.80	232.87
775.12	232.88
775.45	232.85
775.77	232.88
776.09	232.91
776.42	232.83
776.74	232.95
777.07	232.90
777.39	232.87
777.72	232.87
778.04	232.79
778.36	232.73
778.69	232.67
779.01	232.70
779.33	232.23
779.66	231.64
779.98	231.60
780.31	231.58
780.63	231.73
780.95	231.84
781.28	231.82
781.60	231.66
781.92	231.54
782.25	231.50
782.57	231.38
782.89	231.40
783.22	231.42
783.54	231.24
783.86	231.33
784.19	231.23
784.51	231.33
784.83	231.21
785.16	231.14
785.48	231.12
785.80	231.04
786.12	231.04
786.45	230.96
786.77	230.95
787.09	230.81
787.42	230.64
787.74	230.61
788.06	230.55
788.38	230.56
788.71	230.54
789.03	230.54
789.35	230.67
789.67	230.51
789.99	230.44
790.32	230.39
790.64	230.33
790.96	230.58
791.28	230.30
791.61	230.27
791.93	230.25
792.25	230.13
792.57	230.57
792.89	230.47
793.21	230.52
793.54	230.40
793.86	230.36
794.18	230.26
794.50	230.15
794.82	230.14
795.14	230.13
795.47	230.21
795.79	230.18
796.11	230.02
796.43	229.98
796.75	229.93
797.07	229.93
797.39	229.87
797.71	229.65
798.04	229.71
798.36	229.69
798.68	229.67
799.00	229.69
799.32	229.26
799.64	229.27
799.96	229.10
800.28	229.19
800.60	229.15
800.92	229.18
801.24	229.15
801.56	229.20
801.89	229.13
802.21	229.09
802.53	228.97
802.85	229.00
803.17	229.19
803.49	229.06
803.81	228.97
804.13	228.90
804.45	228.89
804.77	228.87
805.09	228.83
805.41	228.81
805.73	228.66
806.05	228.51
806.37	228.55
806.69	228.53
807.01	228.45
807.33	228.46
807.65	228.28
807.97	228.45
808.28	228.34
808.60	228.31
808.92	228.23
809.24	228.49
809.56	228.47
809.88	228.39
810.20	228.39
810.52	228.51
810.84	228.49
811.16	228.37
811.48	228.32
811.80	228.52
812.12	228.41
812.43	228.55
812.75	228.59
813.07	228.49
813.39	228.59
813.71	228.55
814.03	228.53
814.35	228.67
814.67	228.46
814.98	228.42
815.30	228.37
815.62	228.28
815.94	227.97
816.26	228.15
816.58	227.99
816.89	228.04
817.21	227.96
817.53	228.01
817.85	228.06
818.17	228.09
818.48	227.94
818.80	228.07
819.12	227.95
819.44	227.86
819.76	227.77
820.07	227.77
820.39	227.83
820.71	227.87
821.03	227.80
821.34	227.80
821.66	227.85
821.98	228.00
822.30	228.04
822.61	228.31
822.93	228.03
823.25	228.05
823.57	228.07
823.88	228.11
824.20	228.08
824.52	228.13
824.83	228.15
825.15	228.05
825.47	228.05
825.79	228.12
826.10	228.17
826.42	228.23
826.74	228.25
827.05	228.17
827.37	228.14
827.69	228.07
828.00	228.12
828.32	228.18
828.64	228.13
828.95	228.37
829.27	228.22
829.58	228.34
829.90	228.40
830.22	228.42
830.53	228.30
830.85	228.28
831.17	228.15
831.48	228.14
831.80	228.20
832.11	228.20
832.43	228.22
832.75	228.17
833.06	228.40
833.38	228.22
833.69	228.30
834.01	228.30
834.32	228.32
834.64	228.22
834.96	228.14
835.27	228.15
835.59	227.94
835.90	227.87
836.22	227.81
836.53	227.74
836.85	227.66
837.16	228.16
837.48	228.11
837.79	228.25
838.11	228.24
838.42	228.23
838.74	228.21
839.05	228.08
839.37	228.09
839.68	227.87
840.00	227.88
840.31	227.88
840.63	227.84
840.94	227.73
841.26	227.74
841.57	227.76
841.88	227.68
842.20	227.56
842.51	227.48
842.83	227.40
843.14	227.79
843.46	227.75
843.77	227.45
844.08	227.43
844.40	227.31
844.71	227.27
845.03	227.20
845.34	227.13
845.65	227.10
845.97	227.10
846.28	227.03
846.60	227.09
846.91	226.95
847.22	226.89
847.54	227.00
847.85	226.99
848.16	226.85
848.48	226.81
848.79	227.00
849.10	227.11
849.42	227.14
849.73	226.62
850.04	226.63
850.36	226.53
850.67	226.65
850.98	226.66
851.30	226.73
851.61	226.70
851.92	226.65
852.23	226.85
852.55	226.88
852.86	226.91
853.17	226.87
853.49	226.98
853.80	227.12
854.11	227.20
854.42	227.20
854.74	227.22
855.05	227.30
855.36	227.09
855.67	227.11
855.99	227.16
856.30	227.79
856.61	227.74
856.92	227.68
857.23	227.64
857.55	227.66
857.86	227.56
858.17	227.68
858.48	227.70
858.79	227.55
859.11	227.62
859.42	227.64
859.73	227.64
860.04	227.68
860.35	227.55
860.66	227.40
860.98	227.44
861.29	227.55
861.60	227.43
861.91	227.60
862.22	227.45
862.53	227.37
862.84	226.79
863.16	226.98
863.47	226.90
863.78	226.88
864.09	226.84
864.40	226.85
864.71	226.83
865.02	226.88
865.33	226.82
865.64	226.66
865.95	226.58
866.27	226.89
866.58	226.80
866.89	226.89
867.20	226.85
867.51	226.73
867.82	226.66
868.13	226.84
868.44	226.72
868.75	226.81
869.06	226.83
869.37	226.94
869.68	226.77
869.99	226.82
870.30	226.85
870.61	226.88
870.92	226.81
871.23	226.78
871.54	226.77
871.85	226.89
872.16	227.02
872.47	227.03
872.78	226.70
873.09	226.80
873.40	226.68
873.71	226.74
874.02	226.83
874.33	226.77
874.64	226.62
874.95	226.66
875.26	226.54
875.56	226.53
875.87	226.54
876.18	226.49
876.49	226.96
876.80	226.92
877.11	226.88
877.42	226.94
877.73	226.95
878.04	226.94
878.35	226.99
878.66	226.92
878.96	226.88
879.27	226.96
879.58	226.83
879.89	226.83
880.20	226.96
880.51	226.90
880.82	226.90
881.12	226.96
881.43	226.84
881.74	226.84
882.05	226.83
882.36	226.84
882.67	226.87
882.97	226.37
883.28	226.31
883.59	226.29
883.90	226.36
884.21	226.46
884.51	226.44
884.82	226.31
885.13	226.40
885.44	226.44
885.74	226.39
886.05	226.40
886.36	226.47
886.67	226.32
886.98	226.51
887.28	226.57
887.59	226.55
887.90	226.58
888.20	226.57
888.51	226.61
888.82	226.51
889.13	226.55
889.43	226.92
889.74	226.98
890.05	227.02
890.35	226.93
890.66	226.77
890.97	226.73
891.28	226.78
891.58	226.76
891.89	226.74
892.20	226.68
892.50	226.65
892.81	226.58
893.12	226.56
893.42	226.35
893.73	226.32
894.04	226.32
894.34	226.39
894.65	226.39
894.95	226.38
895.26	226.37
895.57	226.57
895.87	226.14
896.18	226.17
896.48	226.07
896.79	226.06
897.10	226.24
897.40	226.25
897.71	226.30
898.01	226.20
898.32	226.30
898.63	226.25
898.93	226.30
899.24	226.41
899.54	226.39
899.85	226.37
900.15	226.38
900.46	226.33
900.76	226.40
901.07	226.42
901.38	226.38
901.68	226.55
901.99	226.27
902.29	226.34
902.60	226.29
902.90	226.32
903.21	226.35
903.51	226.21
903.82	226.26
904.12	226.23
904.43	226.31
904.73	226.22
905.03	226.33
905.34	226.74
905.64	226.61
905.95	226.61
906.25	226.65
906.56	226.66
906.86	226.70
907.17	226.63
907.47	226.70
907.77	226.63
908.08	226.41
908.38	226.55
908.69	226.53
908.99	226.61
909.30	226.71
909.60	226.65
909.90	226.69
910.21	226.61
910.51	226.57
910.81	226.52
911.12	226.56
911.42	226.56
911.73	226.02
912.03	226.14
912.33	226.28
912.64	226.30
912.94	226.29
913.24	226.25
913.55	226.25
913.85	226.21
914.15	226.34
914.46	226.45
914.76	226.41
915.06	226.44
915.37	226.35
915.67	226.28
915.97	226.32
916.27	226.24
916.58	226.27
916.88	226.21
917.18	226.27
917.49	226.56
917.79	226.56
918.09	226.72
918.39	226.77
918.70	226.76
919.00	226.68
919.30	226.91
919.60	226.92
919.91	226.85
920.21	226.83
920.51	226.79
920.81	226.75
921.12	226.75
921.42	226.72
921.72	226.76
922.02	226.76
922.32	226.80
922.63	226.81
922.93	227.09
923.23	227.11
923.53	227.02
923.83	226.75
924.13	226.76
924.44	226.77
924.74	226.85
925.04	226.92
925.34	226.92
925.64	226.70
925.94	226.68
926.24	226.97
926.55	226.94
926.85	226.94
927.15	226.91
927.45	226.92
927.75	226.90
928.05	226.91
928.35	226.89
928.65	226.90
928.95	226.92
929.26	226.69
929.56	226.76
929.86	226.81
930.16	226.76
930.46	226.72
930.76	226.66
931.06	226.43
931.36	226.28
931.66	226.38
931.96	226.41
932.26	226.44
932.56	226.22
932.86	226.25
933.16	226.21
933.46	226.15
933.76	226.05
934.06	226.17
934.36	226.29
934.66	226.23
934.96	226.20
935.26	226.21
935.56	226.24
935.86	226.08
936.16	225.95
936.46	225.88
936.76	225.85
937.06	225.82
937.36	225.86
937.66	225.83
937.96	225.78
938.26	225.76
938.56	225.63
938.86	225.58
939.16	225.64
939.46	225.69
939.76	225.73
940.06	225.72
940.35	225.65
940.65	225.41
940.95	225.39
941.25	225.26
941.55	225.16
941.85	225.11
942.15	225.28
942.45	225.44
942.75	225.47
943.04	225.47
943.34	225.50
943.64	225.41
943.94	225.38
944.24	225.41
944.54	225.37
944.84	225.43
945.13	225.38
945.43	225.32
945.73	225.32
946.03	225.39
946.33	225.37
946.62	225.25
946.92	225.26
947.22	225.39
947.52	225.49
947.82	225.64
948.11	225.61
948.41	225.47
948.71	225.35
949.01	225.44
949.31	225.49
949.60	225.53
949.90	225.64
950.20	225.67
950.50	225.66
950.79	225.67
951.09	225.77
951.39	225.79
951.69	225.80
951.98	225.88
952.28	225.88
952.58	225.92
952.87	226.00
953.17	226.13
953.47	226.07
953.76	226.05
954.06	225.99
954.36	225.94
954.66	225.99
954.95	226.19
955.25	226.21
955.55	226.21
955.84	226.11
956.14	226.19
956.44	226.18
956.73	226.15
957.03	226.15
957.32	226.10
957.62	226.14
957.92	226.27
958.21	226.25
958.51	226.76
958.81	226.84
959.10	226.91
959.40	227.03
959.69	227.15
959.99	227.26
960.29	227.30
960.58	227.32
960.88	227.50
961.17	227.41
961.47	227.39
961.76	227.34
962.06	227.45
962.36	227.36
962.65	227.42
962.95	227.39
963.24	227.39
963.54	227.47
963.83	227.51
964.13	227.43
964.42	227.28
964.72	226.81
965.01	226.85
965.31	226.79
965.60	226.66
965.90	226.93
966.19	226.82
966.49	226.76
966.78	226.77
967.08	226.69
967.37	226.69
967.67	226.62
967.96	226.71
968.26	226.74
968.55	226.75
968.85	226.71
969.14	226.73
969.43	226.74
969.73	226.69
970.02	226.63
970.32	226.64
970.61	226.67
970.91	226.67
971.20	226.52
971.49	226.52
971.79	226.49
972.08	226.07
972.38	226.13
972.67	226.15
972.96	226.20
973.26	226.12
973.55	226.28
973.85	226.31
974.14	226.20
974.43	226.15
974.73	226.10
975.02	226.07
975.31	226.03
975.61	225.93
975.90	225.85
976.19	225.82
976.49	225.82
976.78	225.86
977.07	225.79
977.37	225.80
977.66	225.72
977.95	225.62
978.24	225.65
978.54	225.69
978.83	225.67
979.12	225.59
979.42	225.61
979.71	225.48
980.00	225.46
980.29	225.51
980.59	225.43
980.88	225.51
981.17	225.45
981.46	225.49
981.76	225.57
982.05	225.74
982.34	225.74
982.63	225.72
982.93	225.73
983.22	225.90
983.51	225.97
983.80	226.02
984.09	226.16
984.39	226.13
984.68	226.13
984.97	226.12
985.26	226.14
985.55	226.17
985.85	226.10
986.14	226.10
986.43	226.17
986.72	226.11
987.01	226.04
987.30	226.05
987.59	225.97
987.89	225.97
988.18	225.83
988.47	225.80
988.76	225.73
989.05	225.72
989.34	225.69
989.63	225.74
989.92	225.73
990.22	225.70
990.51	225.73
990.80	225.65
991.09	225.73
991.38	225.85
991.67	225.80
991.96	225.75
992.25	225.76
992.54	225.66
992.83	225.68
993.12	225.68
993.41	225.85
993.70	226.12
993.99	226.21
994.28	226.32
994.58	226.37
994.87	226.39
995.16	226.38
995.45	226.30
995.74	226.16
996.03	226.23
996.32	226.30
996.61	226.41
996.90	226.44
997.19	226.45
997.48	226.39
997.77	226.33
998.06	226.35
998.34	226.37
998.63	226.44
998.92	226.49
999.21	226.57
999.50	226.55
999.79	226.40
1000.08	226.38
1000.37	226.33
1000.66	226.28
1000.95	226.47
1001.24	226.49
1001.53	226.53
1001.82	226.52
1002.11	226.51
1002.40	226.57
1002.68	226.63
1002.97	226.85
1003.26	226.73
1003.55	226.66
1003.84	226.69
1004.13	226.93
1004.42	226.89
1004.71	226.85
1004.99	226.94
1005.28	226.99
1005.57	226.95
1005.86	226.89
1006.15	226.83
1006.44	226.76
1006.72	226.75
1007.01	226.52
1007.30	226.48
1007.59	226.42
1007.88	226.46
1008.17	226.38
1008.45	226.20
1008.74	226.03
1009.03	225.85
1009.32	225.86
1009.60	225.82
1009.89	225.76
1010.18	225.49
1010.47	225.49
1010.76	225.37
1011.04	225.21
1011.33	225.22
1011.62	225.13
1011.91	225.12
1012.19	225.14
1012.48	225.14
1012.77	225.15
1013.05	225.42
1013.34	225.44
1013.63	225.33
1013.92	225.29
1014.20	225.28
1014.49	225.36
1014.78	225.35
1015.06	225.19
1015.35	225.15
1015.64	225.25
1015.92	225.29
1016.21	225.30
1016.50	225.25
1016.78	225.30
1017.07	225.37
1017.36	225.22
1017.64	225.22
1017.93	225.30
1018.22	225.23
1018.50	225.18
1018.79	225.17
1019.08	224.93
1019.36	224.90
1019.65	224.94
1019.93	225.07
1020.22	225.12
1020.51	225.24
1020.79	225.14
1021.08	224.35
1021.36	223.95
1021.65	224.95
1021.94	224.65
1022.22	224.70
1022.51	225.05
1022.79	227.50
1023.08	225.35
1023.36	229.85
1023.65	222.85
>>>>>End Processed Spectral Data<<<<<
