SpectraSuite Data File
++++++++++++++++++++++++++++++++++++
Date: Wed Sep 04 17:40:23 EDT 2013
User: lab3
Dark Spectrum Present: Yes
Reference Spectrum Present: No
Number of Sampled Component Spectra: 1
Spectrometers: USB2E7196
Integration Time (usec): 170000 (USB2E7196)
Spectra Averaged: 20 (USB2E7196)
Boxcar Smoothing: 10 (USB2E7196)
Correct for Electrical Dark: No (USB2E7196)
Strobe/Lamp Enabled: No (USB2E7196)
Correct for Detector Non-linearity: No (USB2E7196)
Correct for Stray Light: No (USB2E7196)
Number of Pixels in Processed Spectrum: 2048
>>>>>Begin Processed Spectral Data<<<<<
339.09	0.00
339.48	212.30
339.86	214.00
340.24	215.25
340.63	216.05
341.01	225.45
341.39	219.95
341.78	221.35
342.16	223.45
342.54	223.10
342.93	211.87
343.31	222.56
343.69	223.13
344.07	223.58
344.46	224.07
344.84	224.49
345.22	224.47
345.60	224.75
345.99	224.98
346.37	225.03
346.75	225.14
347.13	225.23
347.52	225.29
347.90	225.53
348.28	225.59
348.66	225.77
349.05	225.67
349.43	225.81
349.81	225.87
350.19	225.86
350.57	225.93
350.96	225.95
351.34	226.00
351.72	226.06
352.10	226.17
352.48	226.15
352.87	226.26
353.25	226.27
353.63	226.25
354.01	226.27
354.39	226.36
354.77	226.42
355.15	226.64
355.54	226.58
355.92	226.45
356.30	226.45
356.68	226.77
357.06	226.88
357.44	226.81
357.82	226.92
358.20	227.36
358.58	227.35
358.97	227.43
359.35	227.59
359.73	227.82
360.11	227.84
360.49	227.91
360.87	227.91
361.25	228.07
361.63	228.32
362.01	228.34
362.39	228.43
362.77	228.45
363.15	228.38
363.53	228.47
363.91	228.57
364.29	228.62
364.67	228.19
365.05	228.17
365.43	228.27
365.81	228.30
366.19	228.18
366.57	228.39
366.95	228.40
367.33	228.30
367.71	228.21
368.09	228.32
368.47	228.35
368.85	228.33
369.23	228.39
369.61	228.15
369.99	228.30
370.37	228.30
370.75	228.58
371.13	228.52
371.51	228.34
371.89	228.37
372.27	228.36
372.65	228.39
373.03	228.31
373.41	228.20
373.78	228.15
374.16	227.83
374.54	227.62
374.92	227.57
375.30	227.49
375.68	227.33
376.06	227.26
376.44	227.20
376.82	227.15
377.19	227.02
377.57	227.00
377.95	226.82
378.33	226.70
378.71	226.28
379.09	226.23
379.47	226.30
379.84	226.15
380.22	226.00
380.60	225.85
380.98	225.75
381.36	225.67
381.73	225.50
382.11	225.59
382.49	225.57
382.87	225.39
383.25	225.33
383.62	225.85
384.00	225.71
384.38	225.65
384.76	225.73
385.13	225.86
385.51	225.83
385.89	225.64
386.27	225.60
386.64	225.63
387.02	225.56
387.40	225.51
387.78	225.51
388.15	225.59
388.53	225.55
388.91	225.60
389.29	225.60
389.66	225.70
390.04	225.59
390.42	225.66
390.79	225.72
391.17	225.70
391.55	225.18
391.92	225.22
392.30	225.28
392.68	225.08
393.05	225.13
393.43	225.10
393.81	225.22
394.18	225.23
394.56	225.30
394.94	225.44
395.31	225.40
395.69	225.56
396.06	225.66
396.44	225.76
396.82	225.72
397.19	226.01
397.57	225.98
397.95	226.17
398.32	226.14
398.70	226.22
399.07	226.41
399.45	226.43
399.82	226.56
400.20	226.57
400.58	226.69
400.95	226.56
401.33	226.71
401.70	227.15
402.08	227.27
402.45	227.42
402.83	227.60
403.20	227.79
403.58	227.89
403.95	228.16
404.33	228.40
404.71	228.65
405.08	229.09
405.46	229.29
405.83	229.55
406.21	229.75
406.58	230.04
406.96	230.21
407.33	230.55
407.70	230.81
408.08	231.50
408.45	231.91
408.83	232.40
409.20	232.80
409.58	232.89
409.95	233.38
410.33	233.78
410.70	234.13
411.08	234.66
411.45	235.14
411.82	235.51
412.20	236.13
412.57	236.95
412.95	237.14
413.32	237.86
413.69	238.44
414.07	239.16
414.44	239.89
414.82	240.77
415.19	241.80
415.56	242.79
415.94	243.62
416.31	244.83
416.68	245.93
417.06	247.27
417.43	248.64
417.81	250.05
418.18	251.54
418.55	253.14
418.93	254.84
419.30	256.50
419.67	258.33
420.04	260.21
420.42	262.15
420.79	264.76
421.16	267.06
421.54	269.62
421.91	272.20
422.28	274.77
422.66	277.51
423.03	280.41
423.40	283.19
423.77	286.08
424.15	289.07
424.52	292.22
424.89	295.74
425.26	299.10
425.64	302.22
426.01	305.56
426.38	309.12
426.75	312.84
427.13	316.75
427.50	320.77
427.87	324.80
428.24	328.79
428.61	332.51
428.99	336.93
429.36	341.48
429.73	345.93
430.10	350.61
430.47	355.36
430.85	359.98
431.22	365.07
431.59	370.82
431.96	375.96
432.33	381.58
432.70	386.97
433.08	393.51
433.45	399.67
433.82	405.86
434.19	412.66
434.56	419.49
434.93	425.82
435.30	432.19
435.68	439.22
436.05	446.35
436.42	453.10
436.79	459.46
437.16	466.33
437.53	473.64
437.90	480.80
438.27	487.87
438.64	495.36
439.01	502.25
439.38	508.15
439.75	514.15
440.13	520.97
440.50	527.36
440.87	532.31
441.24	537.71
441.61	543.60
441.98	547.89
442.35	552.60
442.72	557.59
443.09	562.42
443.46	565.43
443.83	567.21
444.20	568.99
444.57	571.32
444.94	572.36
445.31	573.52
445.68	574.83
446.05	575.15
446.42	574.06
446.79	572.99
447.16	571.78
447.53	570.68
447.90	567.76
448.27	564.73
448.64	560.78
449.01	557.80
449.37	552.78
449.74	547.91
450.11	542.50
450.48	536.15
450.85	529.68
451.22	524.05
451.59	518.77
451.96	513.55
452.33	506.96
452.70	500.80
453.07	493.43
453.43	485.83
453.80	478.88
454.17	472.24
454.54	465.91
454.91	459.08
455.28	452.66
455.65	446.39
456.02	440.83
456.38	435.55
456.75	429.06
457.12	423.63
457.49	418.35
457.86	412.96
458.23	408.70
458.59	403.98
458.96	399.22
459.33	394.94
459.70	390.75
460.07	387.35
460.43	383.51
460.80	380.09
461.17	377.06
461.54	373.76
461.91	370.60
462.27	367.39
462.64	364.67
463.01	361.67
463.38	359.08
463.74	355.65
464.11	353.25
464.48	351.18
464.85	348.89
465.21	347.25
465.58	345.40
465.95	343.02
466.32	341.20
466.68	339.33
467.05	337.54
467.42	335.79
467.78	333.82
468.15	332.06
468.52	330.73
468.88	328.89
469.25	327.24
469.62	326.05
469.98	324.78
470.35	323.53
470.72	322.32
471.08	320.84
471.45	319.79
471.82	318.75
472.18	317.50
472.55	316.62
472.92	315.43
473.28	314.43
473.65	313.64
474.02	312.77
474.38	312.17
474.75	311.65
475.11	310.87
475.48	310.38
475.85	309.86
476.21	309.30
476.58	308.95
476.94	308.77
477.31	308.40
477.67	308.07
478.04	307.88
478.41	307.69
478.77	308.03
479.14	307.80
479.50	307.73
479.87	307.75
480.23	307.81
480.60	307.90
480.96	308.00
481.33	308.44
481.69	308.73
482.06	308.94
482.42	309.19
482.79	309.62
483.15	310.06
483.52	310.69
483.88	311.12
484.25	311.64
484.61	312.26
484.98	312.85
485.34	313.78
485.71	314.63
486.07	315.58
486.44	316.19
486.80	317.30
487.17	318.39
487.53	319.83
487.90	321.24
488.26	322.72
488.62	324.38
488.99	325.72
489.35	327.30
489.72	329.06
490.08	330.85
490.44	332.70
490.81	334.73
491.17	336.80
491.54	339.29
491.90	341.64
492.26	344.05
492.63	346.66
492.99	349.30
493.36	352.23
493.72	355.40
494.08	358.45
494.45	361.78
494.81	365.22
495.17	368.64
495.54	372.28
495.90	376.13
496.26	380.10
496.63	384.25
496.99	388.57
497.35	393.11
497.72	397.84
498.08	402.76
498.44	407.71
498.80	413.08
499.17	418.35
499.53	423.92
499.89	429.96
500.26	436.05
500.62	442.22
500.98	448.79
501.34	455.23
501.71	462.28
502.07	469.24
502.43	476.51
502.79	483.83
503.16	491.47
503.52	499.48
503.88	507.62
504.24	516.19
504.60	525.02
504.97	533.95
505.33	543.10
505.69	552.74
506.05	562.58
506.41	572.29
506.78	582.41
507.14	592.94
507.50	603.55
507.86	614.51
508.22	625.55
508.59	636.66
508.95	648.48
509.31	660.46
509.67	672.70
510.03	684.75
510.39	697.46
510.75	710.48
511.12	723.27
511.48	736.49
511.84	749.81
512.20	763.14
512.56	776.89
512.92	790.90
513.28	805.14
513.64	819.58
514.00	834.18
514.37	849.09
514.73	863.93
515.09	878.79
515.45	893.93
515.81	909.11
516.17	924.52
516.53	939.73
516.89	954.90
517.25	970.82
517.61	987.16
517.97	1003.70
518.33	1019.88
518.69	1036.54
519.05	1053.19
519.41	1069.46
519.77	1086.51
520.13	1103.11
520.49	1119.44
520.85	1137.25
521.21	1154.13
521.57	1170.89
521.93	1187.17
522.29	1203.92
522.65	1220.18
523.01	1236.70
523.37	1252.81
523.73	1269.27
524.09	1285.20
524.45	1301.26
524.81	1317.00
525.17	1332.85
525.53	1348.18
525.89	1363.95
526.25	1379.44
526.61	1394.51
526.97	1410.30
527.33	1425.85
527.68	1442.29
528.04	1458.31
528.40	1472.41
528.76	1487.73
529.12	1503.12
529.48	1518.46
529.84	1532.80
530.20	1548.11
530.56	1563.01
530.91	1578.34
531.27	1592.94
531.63	1607.59
531.99	1622.05
532.35	1636.41
532.71	1650.73
533.07	1665.48
533.42	1679.90
533.78	1693.64
534.14	1707.80
534.50	1721.04
534.86	1734.34
535.21	1746.00
535.57	1758.65
535.93	1770.77
536.29	1782.60
536.65	1794.67
537.00	1806.18
537.36	1818.06
537.72	1828.85
538.08	1840.01
538.44	1850.60
538.79	1861.20
539.15	1871.68
539.51	1882.24
539.87	1891.71
540.22	1900.25
540.58	1909.24
540.94	1916.46
541.29	1923.94
541.65	1931.00
542.01	1938.11
542.37	1943.78
542.72	1949.79
543.08	1955.18
543.44	1961.71
543.79	1966.86
544.15	1971.69
544.51	1976.98
544.87	1981.55
545.22	1985.77
545.58	1988.88
545.94	1991.69
546.29	1993.92
546.65	1996.15
547.01	1997.53
547.36	1999.19
547.72	2000.96
548.07	2000.92
548.43	2002.36
548.79	2003.18
549.14	2003.42
549.50	2004.05
549.86	2004.50
550.21	2004.80
550.57	2005.26
550.92	2003.50
551.28	2002.16
551.64	2001.00
551.99	1999.71
552.35	1998.33
552.70	1997.24
553.06	1996.13
553.41	1994.90
553.77	1993.90
554.13	1992.93
554.48	1991.53
554.84	1990.05
555.19	1988.64
555.55	1987.45
555.90	1984.89
556.26	1982.09
556.61	1978.95
556.97	1975.22
557.32	1972.61
557.68	1969.79
558.03	1966.02
558.39	1962.77
558.74	1959.84
559.10	1955.80
559.45	1950.98
559.81	1945.84
560.16	1940.13
560.52	1934.54
560.87	1929.19
561.23	1923.45
561.58	1917.40
561.94	1910.73
562.29	1903.90
562.64	1897.01
563.00	1889.12
563.35	1882.71
563.71	1876.38
564.06	1870.11
564.42	1863.59
564.77	1856.96
565.12	1849.83
565.48	1842.95
565.83	1836.11
566.19	1828.94
566.54	1821.89
566.89	1815.14
567.25	1808.44
567.60	1802.14
567.96	1795.82
568.31	1789.09
568.66	1781.92
569.02	1774.29
569.37	1767.19
569.72	1760.37
570.08	1752.75
570.43	1745.40
570.78	1737.73
571.14	1729.99
571.49	1722.06
571.84	1714.63
572.20	1705.88
572.55	1697.60
572.90	1688.66
573.26	1680.35
573.61	1671.76
573.96	1662.86
574.31	1653.37
574.67	1644.06
575.02	1634.16
575.37	1624.16
575.72	1613.78
576.08	1604.40
576.43	1594.90
576.78	1585.25
577.13	1575.10
577.49	1565.45
577.84	1556.50
578.19	1547.26
578.54	1537.75
578.90	1528.64
579.25	1519.23
579.60	1510.09
579.95	1500.52
580.30	1491.00
580.66	1480.93
581.01	1470.79
581.36	1460.61
581.71	1451.11
582.06	1441.71
582.42	1432.50
582.77	1423.62
583.12	1415.02
583.47	1405.89
583.82	1397.08
584.17	1388.05
584.53	1379.33
584.88	1369.68
585.23	1360.11
585.58	1349.90
585.93	1340.23
586.28	1330.60
586.63	1320.58
586.98	1310.45
587.34	1300.99
587.69	1291.63
588.04	1282.80
588.39	1274.07
588.74	1265.62
589.09	1257.36
589.44	1248.18
589.79	1239.63
590.14	1230.84
590.49	1222.05
590.84	1213.37
591.19	1204.53
591.54	1195.93
591.89	1187.31
592.25	1180.27
592.60	1172.14
592.95	1164.15
593.30	1156.11
593.65	1147.80
594.00	1139.33
594.35	1132.87
594.70	1124.60
595.05	1116.83
595.40	1108.50
595.75	1100.28
596.10	1092.29
596.45	1084.00
596.80	1076.71
597.15	1069.06
597.50	1060.80
597.85	1053.26
598.19	1045.22
598.54	1037.40
598.89	1029.81
599.24	1022.55
599.59	1014.53
599.94	1007.26
600.29	1000.34
600.64	993.30
600.99	985.88
601.34	979.48
601.69	971.28
602.04	964.62
602.39	957.93
602.74	951.82
603.08	945.38
603.43	939.18
603.78	932.58
604.13	926.10
604.48	919.30
604.83	912.88
605.18	906.20
605.53	899.83
605.87	893.64
606.22	887.96
606.57	881.58
606.92	875.39
607.27	869.45
607.62	863.60
607.96	857.72
608.31	852.55
608.66	846.95
609.01	841.42
609.36	835.66
609.70	829.79
610.05	823.75
610.40	818.25
610.75	812.28
611.10	806.89
611.44	801.15
611.79	795.71
612.14	790.30
612.49	785.10
612.83	779.99
613.18	774.61
613.53	769.23
613.88	763.99
614.22	758.77
614.57	753.17
614.92	747.59
615.27	742.55
615.61	737.11
615.96	731.72
616.31	726.50
616.65	721.77
617.00	717.00
617.35	712.26
617.70	707.35
618.04	702.55
618.39	697.96
618.74	693.75
619.08	689.15
619.43	684.41
619.78	679.53
620.12	674.75
620.47	670.15
620.82	665.33
621.16	660.89
621.51	656.61
621.85	652.49
622.20	648.34
622.55	643.74
622.89	639.66
623.24	635.63
623.59	631.28
623.93	627.03
624.28	622.70
624.62	619.06
624.97	615.17
625.32	611.24
625.66	607.07
626.01	602.70
626.35	598.78
626.70	595.05
627.04	591.51
627.39	587.76
627.73	584.24
628.08	580.77
628.43	577.04
628.77	573.37
629.12	569.73
629.46	566.36
629.81	563.33
630.15	559.94
630.50	556.62
630.84	553.43
631.19	550.27
631.53	547.20
631.88	543.33
632.22	539.90
632.57	536.93
632.91	533.85
633.26	530.93
633.60	527.75
633.95	524.70
634.29	521.44
634.64	518.46
634.98	515.23
635.32	512.25
635.67	509.59
636.01	506.69
636.36	503.73
636.70	500.86
637.05	497.94
637.39	495.12
637.73	492.27
638.08	489.60
638.42	486.65
638.77	483.83
639.11	480.97
639.45	478.02
639.80	475.02
640.14	472.26
640.49	469.49
640.83	466.96
641.17	464.32
641.52	461.71
641.86	459.17
642.20	457.08
642.55	454.49
642.89	451.87
643.23	449.30
643.58	447.14
643.92	444.54
644.26	442.11
644.61	439.85
644.95	437.52
645.29	435.14
645.64	432.98
645.98	430.73
646.32	428.71
646.66	426.61
647.01	424.45
647.35	422.47
647.69	420.38
648.04	418.45
648.38	416.64
648.72	414.59
649.06	412.60
649.41	410.38
649.75	408.26
650.09	406.25
650.43	404.34
650.78	402.26
651.12	400.52
651.46	398.52
651.80	396.62
652.14	394.75
652.49	392.97
652.83	391.21
653.17	389.45
653.51	387.53
653.85	385.97
654.20	384.34
654.54	382.57
654.88	380.83
655.22	379.28
655.56	377.53
655.90	376.16
656.25	374.49
656.59	372.94
656.93	371.50
657.27	370.19
657.61	368.60
657.95	367.08
658.29	365.42
658.64	364.10
658.98	362.55
659.32	360.93
659.66	359.46
660.00	357.92
660.34	356.51
660.68	355.18
661.02	353.72
661.36	352.40
661.70	350.97
662.05	349.47
662.39	348.07
662.73	346.91
663.07	345.84
663.41	344.60
663.75	343.13
664.09	341.86
664.43	340.44
664.77	339.30
665.11	338.07
665.45	336.93
665.79	335.74
666.13	334.58
666.47	333.47
666.81	332.36
667.15	331.12
667.49	330.06
667.83	329.12
668.17	328.07
668.51	327.03
668.85	326.10
669.19	325.48
669.53	324.41
669.87	323.28
670.21	322.07
670.55	321.18
670.89	320.60
671.23	319.75
671.57	318.74
671.91	317.76
672.25	316.94
672.58	316.19
672.92	315.18
673.26	314.31
673.60	313.53
673.94	312.64
674.28	311.93
674.62	311.16
674.96	310.27
675.30	309.49
675.64	308.62
675.97	307.75
676.31	306.74
676.65	305.81
676.99	305.17
677.33	304.38
677.67	303.62
678.01	302.61
678.34	301.82
678.68	301.17
679.02	300.41
679.36	299.64
679.70	298.81
680.04	298.10
680.37	297.39
680.71	296.64
681.05	296.00
681.39	295.31
681.73	294.63
682.06	293.92
682.40	293.27
682.74	292.80
683.08	292.26
683.42	291.65
683.75	291.18
684.09	290.43
684.43	289.84
684.77	289.14
685.10	288.65
685.44	288.05
685.78	287.48
686.12	286.93
686.45	286.31
686.79	285.68
687.13	285.18
687.46	284.55
687.80	284.15
688.14	283.50
688.48	282.95
688.81	282.41
689.15	282.05
689.49	281.46
689.82	280.89
690.16	280.31
690.50	279.83
690.83	279.29
691.17	278.71
691.51	278.12
691.84	277.68
692.18	277.10
692.52	276.55
692.85	276.07
693.19	275.83
693.52	275.34
693.86	274.87
694.20	274.46
694.53	274.06
694.87	273.52
695.21	273.05
695.54	272.68
695.88	272.17
696.21	271.53
696.55	271.16
696.88	270.71
697.22	270.25
697.56	269.87
697.89	269.45
698.23	269.10
698.56	268.74
698.90	268.39
699.23	267.95
699.57	267.67
699.90	267.19
700.24	266.58
700.58	266.24
700.91	265.93
701.25	265.85
701.58	265.84
701.92	265.53
702.25	265.22
702.59	264.76
702.92	264.38
703.26	264.18
703.59	263.75
703.93	263.83
704.26	263.51
704.60	263.15
704.93	262.77
705.26	262.35
705.60	262.05
705.93	261.58
706.27	261.38
706.60	261.12
706.94	261.10
707.27	260.81
707.61	260.52
707.94	260.23
708.27	259.56
708.61	258.82
708.94	258.43
709.28	258.09
709.61	257.76
709.94	257.55
710.28	257.19
710.61	256.99
710.95	256.23
711.28	256.26
711.61	255.88
711.95	255.77
712.28	255.53
712.61	255.18
712.95	255.21
713.28	255.17
713.61	254.77
713.95	254.27
714.28	254.05
714.61	253.79
714.95	253.59
715.28	253.22
715.61	253.05
715.95	252.82
716.28	252.52
716.61	252.41
716.95	252.07
717.28	251.84
717.61	251.55
717.94	251.29
718.28	250.70
718.61	250.53
718.94	250.24
719.27	250.03
719.61	249.78
719.94	249.45
720.27	248.98
720.60	248.73
720.94	248.56
721.27	248.33
721.60	248.16
721.93	247.89
722.27	247.95
722.60	247.78
722.93	247.57
723.26	247.49
723.59	247.16
723.93	247.04
724.26	246.85
724.59	246.62
724.92	246.55
725.25	246.53
725.59	246.30
725.92	246.10
726.25	245.88
726.58	245.83
726.91	245.64
727.24	245.56
727.57	245.45
727.91	245.24
728.24	245.10
728.57	244.86
728.90	244.78
729.23	244.49
729.56	244.59
729.89	244.43
730.22	244.20
730.55	244.13
730.89	244.02
731.22	243.86
731.55	243.71
731.88	243.50
732.21	243.21
732.54	243.06
732.87	242.84
733.20	242.75
733.53	242.55
733.86	242.38
734.19	242.13
734.52	242.02
734.85	242.17
735.18	241.98
735.51	241.99
735.84	241.83
736.17	241.84
736.50	241.48
736.83	241.91
737.16	241.81
737.49	241.67
737.82	241.45
738.15	241.33
738.48	241.20
738.81	241.05
739.14	240.90
739.47	240.72
739.80	240.61
740.13	240.47
740.46	240.33
740.79	240.17
741.12	240.05
741.45	239.90
741.78	239.50
742.11	239.49
742.44	239.28
742.77	239.21
743.10	238.95
743.43	238.79
743.75	238.19
744.08	238.75
744.41	238.61
744.74	238.51
745.07	238.33
745.40	238.31
745.73	238.39
746.06	238.30
746.39	238.27
746.71	238.13
747.04	238.01
747.37	237.90
747.70	237.87
748.03	237.79
748.36	237.76
748.68	237.59
749.01	237.37
749.34	237.19
749.67	237.07
750.00	237.05
750.33	237.35
750.65	237.27
750.98	236.50
751.31	236.44
751.64	236.40
751.97	236.61
752.29	236.48
752.62	236.19
752.95	236.11
753.28	236.00
753.60	235.99
753.93	236.05
754.26	236.00
754.59	235.80
754.91	235.73
755.24	235.56
755.57	235.61
755.90	235.57
756.22	235.44
756.55	235.31
756.88	235.15
757.20	234.78
757.53	234.52
757.86	234.43
758.19	234.31
758.51	234.23
758.84	233.87
759.17	233.72
759.49	233.66
759.82	233.81
760.15	233.70
760.47	233.47
760.80	233.24
761.13	233.20
761.45	233.14
761.78	233.09
762.11	233.02
762.43	232.89
762.76	232.76
763.08	232.79
763.41	232.81
763.74	232.74
764.06	232.61
764.39	232.61
764.71	232.51
765.04	232.40
765.37	232.26
765.69	232.20
766.02	232.15
766.34	232.11
766.67	231.82
767.00	231.91
767.32	232.24
767.65	232.50
767.97	232.42
768.30	232.36
768.62	232.20
768.95	232.10
769.27	232.08
769.60	232.13
769.92	232.07
770.25	231.89
770.57	231.81
770.90	231.71
771.22	231.61
771.55	231.59
771.87	231.64
772.20	231.63
772.52	232.02
772.85	232.61
773.17	232.54
773.50	232.46
773.82	232.32
774.15	232.02
774.47	231.63
774.80	231.53
775.12	231.45
775.45	231.45
775.77	231.48
776.09	231.47
776.42	231.44
776.74	231.55
777.07	231.49
777.39	231.50
777.72	231.43
778.04	231.47
778.36	231.41
778.69	231.36
779.01	231.31
779.33	230.89
779.66	230.26
779.98	230.19
780.31	230.19
780.63	230.37
780.95	230.44
781.28	230.44
781.60	230.31
781.92	230.33
782.25	230.37
782.57	230.30
782.89	230.17
783.22	230.07
783.54	229.90
783.86	229.93
784.19	229.86
784.51	230.05
784.83	229.91
785.16	229.90
785.48	229.86
785.80	229.89
786.12	229.90
786.45	229.84
786.77	229.86
787.09	229.88
787.42	229.62
787.74	229.56
788.06	229.66
788.38	229.75
788.71	229.68
789.03	229.60
789.35	229.60
789.67	229.54
789.99	229.56
790.32	229.50
790.64	229.44
790.96	229.86
791.28	229.64
791.61	229.58
791.93	229.57
792.25	229.62
792.57	229.90
792.89	229.75
793.21	229.80
793.54	229.74
793.86	229.60
794.18	229.60
794.50	229.51
794.82	229.35
795.14	229.37
795.47	229.43
795.79	229.41
796.11	229.33
796.43	229.31
796.75	229.23
797.07	229.27
797.39	229.29
797.71	228.79
798.04	228.83
798.36	228.92
798.68	228.94
799.00	228.87
799.32	228.61
799.64	228.68
799.96	228.65
800.28	228.74
800.60	228.74
800.92	228.90
801.24	228.82
801.56	228.97
801.89	228.91
802.21	228.92
802.53	228.82
802.85	228.89
803.17	229.15
803.49	229.05
803.81	228.98
804.13	228.94
804.45	228.95
804.77	228.97
805.09	228.94
805.41	228.80
805.73	228.62
806.05	228.41
806.37	228.35
806.69	228.30
807.01	228.19
807.33	228.16
807.65	227.85
807.97	228.07
808.28	227.87
808.60	227.82
808.92	227.81
809.24	228.14
809.56	228.08
809.88	227.89
810.20	227.97
810.52	228.04
810.84	227.90
811.16	227.81
811.48	227.77
811.80	227.89
812.12	227.93
812.43	228.10
812.75	228.20
813.07	228.17
813.39	228.15
813.71	228.16
814.03	228.15
814.35	228.21
814.67	228.04
814.98	228.05
815.30	228.02
815.62	227.87
815.94	227.49
816.26	227.59
816.58	227.42
816.89	227.46
817.21	227.36
817.53	227.40
817.85	227.39
818.17	227.38
818.48	227.11
818.80	227.17
819.12	227.06
819.44	226.95
819.76	226.87
820.07	226.83
820.39	226.79
820.71	226.85
821.03	226.77
821.34	226.71
821.66	226.81
821.98	226.84
822.30	226.85
822.61	227.21
822.93	227.03
823.25	227.01
823.57	226.95
823.88	226.94
824.20	226.96
824.52	227.04
824.83	227.02
825.15	227.07
825.47	227.04
825.79	227.03
826.10	227.03
826.42	227.04
826.74	227.11
827.05	227.10
827.37	227.07
827.69	227.14
828.00	227.17
828.32	227.05
828.64	226.95
828.95	227.22
829.27	227.04
829.58	227.10
829.90	227.15
830.22	227.16
830.53	227.14
830.85	227.10
831.17	226.96
831.48	226.94
831.80	226.89
832.11	226.87
832.43	226.89
832.75	226.92
833.06	227.16
833.38	227.06
833.69	226.99
834.01	227.01
834.32	226.99
834.64	226.96
834.96	227.02
835.27	227.09
835.59	226.87
835.90	226.79
836.22	226.76
836.53	226.67
836.85	226.65
837.16	227.09
837.48	227.08
837.79	227.27
838.11	227.30
838.42	227.37
838.74	227.43
839.05	227.32
839.37	227.28
839.68	227.01
840.00	226.97
840.31	227.08
840.63	227.05
840.94	227.05
841.26	226.99
841.57	227.01
841.88	227.05
842.20	227.00
842.51	226.94
842.83	226.95
843.14	227.47
843.46	227.47
843.77	227.21
844.08	227.19
844.40	227.04
844.71	226.93
845.03	226.83
845.34	226.77
845.65	226.81
845.97	226.85
846.28	226.89
846.60	226.95
846.91	226.90
847.22	226.86
847.54	226.86
847.85	226.95
848.16	226.92
848.48	226.80
848.79	226.95
849.10	227.00
849.42	226.99
849.73	226.54
850.04	226.46
850.36	226.30
850.67	226.43
850.98	226.42
851.30	226.46
851.61	226.50
851.92	226.44
852.23	226.61
852.55	226.59
852.86	226.56
853.17	226.58
853.49	226.61
853.80	226.66
854.11	226.67
854.42	226.67
854.74	226.57
855.05	226.55
855.36	226.31
855.67	226.35
855.99	226.34
856.30	226.91
856.61	226.89
856.92	226.89
857.23	226.80
857.55	226.79
857.86	226.76
858.17	226.85
858.48	226.86
858.79	226.66
859.11	226.70
859.42	226.69
859.73	226.56
860.04	226.55
860.35	226.44
860.66	226.30
860.98	226.26
861.29	226.27
861.60	226.29
861.91	226.44
862.22	226.34
862.53	226.21
862.84	225.60
863.16	225.83
863.47	225.74
863.78	225.73
864.09	225.79
864.40	225.86
864.71	225.85
865.02	225.87
865.33	225.87
865.64	225.75
865.95	225.72
866.27	226.06
866.58	226.02
866.89	226.10
867.20	226.09
867.51	226.01
867.82	226.00
868.13	226.15
868.44	226.00
868.75	226.06
869.06	226.17
869.37	226.25
869.68	226.07
869.99	226.12
870.30	226.16
870.61	226.22
870.92	226.14
871.23	226.04
871.54	226.06
871.85	226.21
872.16	226.32
872.47	226.29
872.78	226.06
873.09	226.09
873.40	226.08
873.71	226.17
874.02	226.25
874.33	226.25
874.64	226.18
874.95	226.32
875.26	226.24
875.56	226.18
875.87	226.09
876.18	226.09
876.49	226.64
876.80	226.57
877.11	226.43
877.42	226.50
877.73	226.52
878.04	226.52
878.35	226.53
878.66	226.47
878.96	226.51
879.27	226.46
879.58	226.43
879.89	226.38
880.20	226.54
880.51	226.43
880.82	226.41
881.12	226.37
881.43	226.30
881.74	226.24
882.05	226.24
882.36	226.33
882.67	226.27
882.97	225.74
883.28	225.74
883.59	225.73
883.90	225.72
884.21	225.78
884.51	225.76
884.82	225.67
885.13	225.70
885.44	225.75
885.74	225.77
886.05	225.70
886.36	225.76
886.67	225.57
886.98	225.90
887.28	225.97
887.59	225.94
887.90	225.95
888.20	225.98
888.51	226.09
888.82	226.01
889.13	226.06
889.43	226.41
889.74	226.36
890.05	226.40
890.35	226.39
890.66	226.37
890.97	226.31
891.28	226.23
891.58	226.21
891.89	226.15
892.20	226.06
892.50	226.05
892.81	225.98
893.12	226.01
893.42	225.74
893.73	225.71
894.04	225.74
894.34	225.78
894.65	225.84
894.95	225.72
895.26	225.75
895.57	225.97
895.87	225.62
896.18	225.79
896.48	225.79
896.79	225.78
897.10	225.77
897.40	225.80
897.71	225.90
898.01	225.89
898.32	225.93
898.63	225.97
898.93	225.95
899.24	225.96
899.54	225.92
899.85	225.93
900.15	225.93
900.46	225.93
900.76	225.96
901.07	225.86
901.38	225.92
901.68	226.01
901.99	225.75
902.29	225.76
902.60	225.63
902.90	225.60
903.21	225.58
903.51	225.62
903.82	225.73
904.12	225.74
904.43	225.86
904.73	225.86
905.03	225.88
905.34	226.42
905.64	226.44
905.95	226.50
906.25	226.53
906.56	226.48
906.86	226.43
907.17	226.34
907.47	226.37
907.77	226.31
908.08	226.15
908.38	226.24
908.69	226.21
908.99	226.33
909.30	226.35
909.60	226.40
909.90	226.40
910.21	226.26
910.51	226.21
910.81	226.20
911.12	226.21
911.42	226.27
911.73	225.79
912.03	225.82
912.33	225.91
912.64	225.89
912.94	225.88
913.24	225.88
913.55	225.86
913.85	225.89
914.15	226.04
914.46	226.15
914.76	226.09
915.06	226.13
915.37	226.11
915.67	226.07
915.97	226.03
916.27	225.95
916.58	225.98
916.88	225.97
917.18	225.88
917.49	226.22
917.79	226.19
918.09	226.28
918.39	226.35
918.70	226.31
919.00	226.34
919.30	226.63
919.60	226.63
919.91	226.62
920.21	226.61
920.51	226.47
920.81	226.51
921.12	226.54
921.42	226.48
921.72	226.44
922.02	226.50
922.32	226.64
922.63	226.70
922.93	226.89
923.23	226.91
923.53	226.86
923.83	226.58
924.13	226.69
924.44	226.65
924.74	226.74
925.04	226.78
925.34	226.72
925.64	226.49
925.94	226.40
926.24	226.67
926.55	226.63
926.85	226.69
927.15	226.63
927.45	226.68
927.75	226.67
928.05	226.72
928.35	226.61
928.65	226.66
928.95	226.64
929.26	226.43
929.56	226.51
929.86	226.52
930.16	226.37
930.46	226.23
930.76	226.22
931.06	226.03
931.36	225.89
931.66	225.97
931.96	226.02
932.26	226.05
932.56	225.85
932.86	225.93
933.16	225.90
933.46	225.87
933.76	225.71
934.06	225.82
934.36	225.94
934.66	226.01
934.96	225.96
935.26	226.03
935.56	226.07
935.86	225.94
936.16	225.87
936.46	225.89
936.76	225.91
937.06	225.85
937.36	225.83
937.66	225.81
937.96	225.69
938.26	225.60
938.56	225.60
938.86	225.60
939.16	225.69
939.46	225.72
939.76	225.71
940.06	225.77
940.35	225.62
940.65	225.42
940.95	225.42
941.25	225.27
941.55	225.14
941.85	225.16
942.15	225.30
942.45	225.50
942.75	225.50
943.04	225.50
943.34	225.63
943.64	225.63
943.94	225.62
944.24	225.71
944.54	225.70
944.84	225.71
945.13	225.68
945.43	225.58
945.73	225.56
946.03	225.51
946.33	225.46
946.62	225.52
946.92	225.47
947.22	225.50
947.52	225.51
947.82	225.64
948.11	225.56
948.41	225.38
948.71	225.25
949.01	225.25
949.31	225.19
949.60	225.13
949.90	225.17
950.20	225.20
950.50	225.25
950.79	225.29
951.09	225.36
951.39	225.29
951.69	225.24
951.98	225.35
952.28	225.38
952.58	225.39
952.87	225.39
953.17	225.45
953.47	225.38
953.76	225.40
954.06	225.21
954.36	225.18
954.66	225.21
954.95	225.34
955.25	225.43
955.55	225.50
955.84	225.42
956.14	225.46
956.44	225.43
956.73	225.31
957.03	225.36
957.32	225.34
957.62	225.35
957.92	225.49
958.21	225.44
958.51	226.00
958.81	226.02
959.10	226.00
959.40	226.10
959.69	226.11
959.99	226.17
960.29	226.22
960.58	226.18
960.88	226.41
961.17	226.37
961.47	226.31
961.76	226.25
962.06	226.42
962.36	226.36
962.65	226.37
962.95	226.39
963.24	226.33
963.54	226.38
963.83	226.41
964.13	226.35
964.42	226.21
964.72	225.76
965.01	225.81
965.31	225.82
965.60	225.67
965.90	225.95
966.19	225.85
966.49	225.90
966.78	225.88
967.08	225.75
967.37	225.73
967.67	225.70
967.96	225.81
968.26	225.71
968.55	225.81
968.85	225.77
969.14	225.80
969.43	225.80
969.73	225.76
970.02	225.81
970.32	225.77
970.61	225.74
970.91	225.67
971.20	225.61
971.49	225.63
971.79	225.74
972.08	225.39
972.38	225.49
972.67	225.49
972.96	225.66
973.26	225.53
973.55	225.70
973.85	225.69
974.14	225.61
974.43	225.67
974.73	225.59
975.02	225.62
975.31	225.64
975.61	225.63
975.90	225.57
976.19	225.43
976.49	225.51
976.78	225.57
977.07	225.56
977.37	225.64
977.66	225.65
977.95	225.59
978.24	225.68
978.54	225.66
978.83	225.55
979.12	225.50
979.42	225.57
979.71	225.37
980.00	225.41
980.29	225.47
980.59	225.39
980.88	225.54
981.17	225.47
981.46	225.46
981.76	225.47
982.05	225.64
982.34	225.74
982.63	225.79
982.93	225.78
983.22	225.98
983.51	225.99
983.80	226.08
984.09	226.14
984.39	226.12
984.68	226.10
984.97	226.22
985.26	226.23
985.55	226.32
985.85	226.32
986.14	226.35
986.43	226.42
986.72	226.35
987.01	226.15
987.30	226.20
987.59	226.14
987.89	226.12
988.18	225.92
988.47	225.92
988.76	225.81
989.05	225.75
989.34	225.60
989.63	225.70
989.92	225.50
990.22	225.42
990.51	225.37
990.80	225.35
991.09	225.37
991.38	225.33
991.67	225.25
991.96	225.16
992.25	225.20
992.54	225.00
992.83	225.04
993.12	225.04
993.41	225.08
993.70	225.33
993.99	225.45
994.28	225.53
994.58	225.52
994.87	225.44
995.16	225.48
995.45	225.50
995.74	225.27
996.03	225.50
996.32	225.54
996.61	225.62
996.90	225.60
997.19	225.56
997.48	225.60
997.77	225.54
998.06	225.63
998.34	225.55
998.63	225.65
998.92	225.64
999.21	225.70
999.50	225.74
999.79	225.53
1000.08	225.43
1000.37	225.41
1000.66	225.36
1000.95	225.47
1001.24	225.49
1001.53	225.45
1001.82	225.50
1002.11	225.28
1002.40	225.38
1002.68	225.55
1002.97	225.91
1003.26	225.86
1003.55	225.78
1003.84	225.78
1004.13	225.89
1004.42	225.95
1004.71	225.93
1004.99	225.96
1005.28	226.10
1005.57	226.05
1005.86	225.96
1006.15	225.94
1006.44	225.87
1006.72	225.98
1007.01	225.92
1007.30	225.91
1007.59	225.83
1007.88	225.86
1008.17	225.94
1008.45	225.75
1008.74	225.52
1009.03	225.30
1009.32	225.31
1009.60	225.36
1009.89	225.29
1010.18	225.06
1010.47	224.92
1010.76	224.93
1011.04	224.88
1011.33	224.81
1011.62	224.89
1011.91	224.99
1012.19	225.01
1012.48	225.07
1012.77	225.01
1013.05	225.24
1013.34	225.23
1013.63	225.26
1013.92	225.30
1014.20	225.27
1014.49	225.31
1014.78	225.36
1015.06	225.23
1015.35	225.20
1015.64	225.24
1015.92	225.36
1016.21	225.49
1016.50	225.55
1016.78	225.56
1017.07	225.59
1017.36	225.51
1017.64	225.41
1017.93	225.47
1018.22	225.50
1018.50	225.44
1018.79	225.49
1019.08	225.25
1019.36	225.32
1019.65	225.30
1019.93	225.40
1020.22	225.41
1020.51	225.72
1020.79	225.64
1021.08	225.45
1021.36	224.00
1021.65	226.15
1021.94	224.95
1022.22	226.20
1022.51	224.20
1022.79	228.10
1023.08	225.20
1023.36	231.65
1023.65	223.75
>>>>>End Processed Spectral Data<<<<<
