SpectraSuite Data File
++++++++++++++++++++++++++++++++++++
Date: Wed Sep 04 17:47:56 EDT 2013
User: lab3
Dark Spectrum Present: Yes
Reference Spectrum Present: No
Number of Sampled Component Spectra: 1
Spectrometers: USB2E7196
Integration Time (usec): 170000 (USB2E7196)
Spectra Averaged: 20 (USB2E7196)
Boxcar Smoothing: 10 (USB2E7196)
Correct for Electrical Dark: No (USB2E7196)
Strobe/Lamp Enabled: No (USB2E7196)
Correct for Detector Non-linearity: No (USB2E7196)
Correct for Stray Light: No (USB2E7196)
Number of Pixels in Processed Spectrum: 2048
>>>>>Begin Processed Spectral Data<<<<<
339.09	0.00
339.48	212.65
339.86	213.25
340.24	215.75
340.63	216.25
341.01	226.10
341.39	220.95
341.78	221.15
342.16	224.85
342.54	222.10
342.93	212.00
343.31	222.67
343.69	223.19
344.07	223.72
344.46	224.20
344.84	224.72
345.22	224.65
345.60	224.88
345.99	225.14
346.37	225.22
346.75	225.35
347.13	225.39
347.52	225.57
347.90	225.79
348.28	225.85
348.66	225.94
349.05	225.81
349.43	225.90
349.81	226.01
350.19	226.01
350.57	226.15
350.96	226.18
351.34	226.28
351.72	226.39
352.10	226.48
352.48	226.46
352.87	226.48
353.25	226.61
353.63	226.65
354.01	226.68
354.39	226.73
354.77	226.81
355.15	226.99
355.54	226.90
355.92	226.83
356.30	226.91
356.68	227.27
357.06	227.35
357.44	227.28
357.82	227.34
358.20	227.85
358.58	227.84
358.97	227.98
359.35	228.17
359.73	228.31
360.11	228.35
360.49	228.45
360.87	228.45
361.25	228.49
361.63	228.72
362.01	228.81
362.39	228.76
362.77	228.84
363.15	228.82
363.53	228.87
363.91	228.93
364.29	228.94
364.67	228.53
365.05	228.64
365.43	228.76
365.81	228.86
366.19	228.71
366.57	228.90
366.95	228.94
367.33	228.79
367.71	228.84
368.09	228.97
368.47	228.98
368.85	228.97
369.23	229.08
369.61	228.86
369.99	228.95
370.37	229.07
370.75	229.29
371.13	229.20
371.51	229.12
371.89	229.11
372.27	229.18
372.65	229.26
373.03	229.18
373.41	229.13
373.78	228.98
374.16	228.65
374.54	228.52
374.92	228.34
375.30	228.42
375.68	228.26
376.06	228.21
376.44	228.12
376.82	228.15
377.19	228.06
377.57	228.09
377.95	227.88
378.33	227.82
378.71	227.49
379.09	227.45
379.47	227.48
379.84	227.38
380.22	227.13
380.60	226.94
380.98	226.82
381.36	226.76
381.73	226.71
382.11	226.78
382.49	226.60
382.87	226.51
383.25	226.33
383.62	226.78
384.00	226.57
384.38	226.50
384.76	226.51
385.13	226.65
385.51	226.48
385.89	226.31
386.27	226.26
386.64	226.30
387.02	226.19
387.40	226.12
387.78	226.06
388.15	226.08
388.53	226.09
388.91	226.06
389.29	226.03
389.66	226.00
390.04	225.88
390.42	226.05
390.79	226.04
391.17	225.98
391.55	225.49
391.92	225.47
392.30	225.51
392.68	225.35
393.05	225.24
393.43	225.21
393.81	225.32
394.18	225.24
394.56	225.19
394.94	225.36
395.31	225.30
395.69	225.53
396.06	225.61
396.44	225.55
396.82	225.58
397.19	225.80
397.57	225.77
397.95	225.87
398.32	225.70
398.70	225.86
399.07	226.03
399.45	226.07
399.82	226.21
400.20	226.29
400.58	226.40
400.95	226.32
401.33	226.55
401.70	227.00
402.08	227.13
402.45	227.36
402.83	227.56
403.20	227.76
403.58	227.85
403.95	228.15
404.33	228.42
404.71	228.55
405.08	229.03
405.46	229.31
405.83	229.57
406.21	229.90
406.58	230.20
406.96	230.48
407.33	230.84
407.70	231.20
408.08	231.95
408.45	232.39
408.83	232.91
409.20	233.36
409.58	233.48
409.95	233.99
410.33	234.46
410.70	234.88
411.08	235.57
411.45	236.14
411.82	236.60
412.20	237.33
412.57	238.41
412.95	238.78
413.32	239.71
413.69	240.53
414.07	241.49
414.44	242.39
414.82	243.56
415.19	244.73
415.56	245.89
415.94	246.84
416.31	248.29
416.68	249.63
417.06	251.21
417.43	252.93
417.81	254.72
418.18	256.54
418.55	258.42
418.93	260.33
419.30	262.40
419.67	264.69
420.04	266.98
420.42	269.20
420.79	272.26
421.16	274.88
421.54	277.89
421.91	280.77
422.28	283.84
422.66	286.96
423.03	290.43
423.40	293.71
423.77	297.12
424.15	300.62
424.52	304.35
424.89	308.44
425.26	312.27
425.64	315.96
426.01	320.06
426.38	324.32
426.75	328.74
427.13	333.27
427.50	337.95
427.87	342.78
428.24	347.67
428.61	351.99
428.99	357.31
429.36	362.66
429.73	368.16
430.10	373.53
430.47	379.15
430.85	384.61
431.22	390.77
431.59	397.67
431.96	403.85
432.33	410.70
432.70	417.25
433.08	424.97
433.45	432.35
433.82	439.50
434.19	447.74
434.56	455.82
434.93	463.41
435.30	470.97
435.68	479.40
436.05	487.70
436.42	496.11
436.79	503.70
437.16	511.90
437.53	520.51
437.90	529.16
438.27	537.55
438.64	546.42
439.01	554.57
439.38	561.54
439.75	568.57
440.13	576.48
440.50	583.98
440.87	589.98
441.24	596.34
441.61	603.30
441.98	608.27
442.35	614.00
442.72	619.86
443.09	625.66
443.46	629.13
443.83	631.41
444.20	633.36
444.57	635.93
444.94	637.10
445.31	638.23
445.68	639.62
446.05	639.82
446.42	638.63
446.79	637.40
447.16	635.88
447.53	634.68
447.90	631.15
448.27	627.58
448.64	622.85
449.01	619.14
449.37	613.24
449.74	607.42
450.11	600.68
450.48	593.02
450.85	585.06
451.22	578.18
451.59	571.82
451.96	565.48
452.33	557.64
452.70	550.45
453.07	541.97
453.43	532.96
453.80	524.72
454.17	516.82
454.54	509.16
454.91	501.11
455.28	493.22
455.65	485.82
456.02	479.14
456.38	472.83
456.75	465.17
457.12	458.76
457.49	452.48
457.86	446.18
458.23	441.16
458.59	435.69
458.96	430.13
459.33	425.00
459.70	420.00
460.07	415.94
460.43	411.31
460.80	407.09
461.17	403.43
461.54	399.43
461.91	395.57
462.27	391.77
462.64	388.51
463.01	385.03
463.38	381.86
463.74	377.72
464.11	374.78
464.48	372.25
464.85	369.33
465.21	367.19
465.58	364.99
465.95	362.20
466.32	359.96
466.68	357.65
467.05	355.42
467.42	353.19
467.78	350.87
468.15	348.62
468.52	346.95
468.88	344.75
469.25	342.86
469.62	341.43
469.98	339.83
470.35	338.32
470.72	336.85
471.08	335.05
471.45	333.80
471.82	332.55
472.18	331.02
472.55	329.92
472.92	328.61
473.28	327.47
473.65	326.38
474.02	325.36
474.38	324.55
474.75	323.79
475.11	322.99
475.48	322.38
475.85	321.84
476.21	321.18
476.58	320.61
476.94	320.21
477.31	319.74
477.67	319.29
478.04	318.98
478.41	318.76
478.77	319.07
479.14	318.79
479.50	318.71
479.87	318.80
480.23	318.84
480.60	318.82
480.96	318.87
481.33	319.30
481.69	319.55
482.06	319.84
482.42	320.21
482.79	320.54
483.15	320.91
483.52	321.58
483.88	322.13
484.25	322.78
484.61	323.49
484.98	324.05
485.34	325.03
485.71	325.94
486.07	326.98
486.44	327.60
486.80	328.76
487.17	329.75
487.53	331.13
487.90	332.60
488.26	334.30
488.62	335.94
488.99	337.42
489.35	339.03
489.72	340.92
490.08	342.92
490.44	344.86
490.81	347.11
491.17	349.21
491.54	351.66
491.90	354.16
492.26	356.79
492.63	359.58
492.99	362.33
493.36	365.48
493.72	368.74
494.08	372.14
494.45	375.78
494.81	379.78
495.17	383.50
495.54	387.71
495.90	391.80
496.26	396.23
496.63	400.85
496.99	405.59
497.35	410.54
497.72	415.66
498.08	421.15
498.44	426.80
498.80	432.98
499.17	438.99
499.53	445.32
499.89	452.04
500.26	458.89
500.62	465.85
500.98	473.12
501.34	480.49
501.71	488.30
502.07	496.18
502.43	504.11
502.79	512.54
503.16	521.13
503.52	530.21
503.88	539.45
504.24	548.96
504.60	558.97
504.97	569.25
505.33	579.67
505.69	590.68
506.05	601.65
506.41	612.56
506.78	624.16
507.14	636.18
507.50	648.39
507.86	661.02
508.22	673.95
508.59	686.85
508.95	700.31
509.31	714.26
509.67	728.39
510.03	742.60
510.39	757.30
510.75	772.13
511.12	787.13
511.48	802.47
511.84	818.09
512.20	833.80
512.56	849.73
512.92	866.41
513.28	883.07
513.64	900.24
514.00	917.48
514.37	935.05
514.73	952.94
515.09	970.95
515.45	989.29
515.81	1007.31
516.17	1025.93
516.53	1044.47
516.89	1062.89
517.25	1082.00
517.61	1102.17
517.97	1122.19
518.33	1142.08
518.69	1162.01
519.05	1182.48
519.41	1202.84
519.77	1223.97
520.13	1244.65
520.49	1264.85
520.85	1286.93
521.21	1307.61
521.57	1328.78
521.93	1349.33
522.29	1370.26
522.65	1390.65
523.01	1410.89
523.37	1431.49
523.73	1452.28
524.09	1472.94
524.45	1493.42
524.81	1514.01
525.17	1534.17
525.53	1554.47
525.89	1575.01
526.25	1595.63
526.61	1615.54
526.97	1636.53
527.33	1657.01
527.68	1678.41
528.04	1699.68
528.40	1719.05
528.76	1740.08
529.12	1760.12
529.48	1780.58
529.84	1800.43
530.20	1821.27
530.56	1841.86
530.91	1862.48
531.27	1882.02
531.63	1901.97
531.99	1922.05
532.35	1941.59
532.71	1961.55
533.07	1981.89
533.42	2001.51
533.78	2021.05
534.14	2040.30
534.50	2058.84
534.86	2077.71
535.21	2094.92
535.57	2112.76
535.93	2130.10
536.29	2147.20
536.65	2165.27
537.00	2182.53
537.36	2199.60
537.72	2215.57
538.08	2232.17
538.44	2248.48
538.79	2265.25
539.15	2281.39
539.51	2297.07
539.87	2311.94
540.22	2325.48
540.58	2339.35
540.94	2351.90
541.29	2364.13
541.65	2376.64
542.01	2388.61
542.37	2398.70
542.72	2409.39
543.08	2419.56
543.44	2430.75
543.79	2440.49
544.15	2449.89
544.51	2459.51
544.87	2468.80
545.22	2477.27
545.58	2485.16
545.94	2492.02
546.29	2497.85
546.65	2504.05
547.01	2509.44
547.36	2514.61
547.72	2520.08
548.07	2523.50
548.43	2528.60
548.79	2533.08
549.14	2536.78
549.50	2540.62
549.86	2544.42
550.21	2547.83
550.57	2551.22
550.92	2552.25
551.28	2553.44
551.64	2555.03
551.99	2556.30
552.35	2557.53
552.70	2559.27
553.06	2560.60
553.41	2561.33
553.77	2562.87
554.13	2563.75
554.48	2565.03
554.84	2566.39
555.19	2567.33
555.55	2568.89
555.90	2567.91
556.26	2566.95
556.61	2565.19
556.97	2562.81
557.32	2562.20
557.68	2560.93
558.03	2559.20
558.39	2557.92
558.74	2556.66
559.10	2553.48
559.45	2550.01
559.81	2545.54
560.16	2540.21
560.52	2534.86
560.87	2530.57
561.23	2525.29
561.58	2519.71
561.94	2512.64
562.29	2505.10
562.64	2497.92
563.00	2489.50
563.35	2482.88
563.71	2476.33
564.06	2470.20
564.42	2463.72
564.77	2456.55
565.12	2448.90
565.48	2441.08
565.83	2433.03
566.19	2425.36
566.54	2417.74
566.89	2409.88
567.25	2402.01
567.60	2394.75
567.96	2387.43
568.31	2379.57
568.66	2370.69
569.02	2361.47
569.37	2353.42
569.72	2346.14
570.08	2336.78
570.43	2327.59
570.78	2318.58
571.14	2308.81
571.49	2298.69
571.84	2288.96
572.20	2278.15
572.55	2268.08
572.90	2257.09
573.26	2247.01
573.61	2235.71
573.96	2224.50
574.31	2212.55
574.67	2201.03
575.02	2188.74
575.37	2176.20
575.72	2163.00
576.08	2151.29
576.43	2138.99
576.78	2126.01
577.13	2112.00
577.49	2099.59
577.84	2087.93
578.19	2076.07
578.54	2063.72
578.90	2052.14
579.25	2040.13
579.60	2028.08
579.95	2015.21
580.30	2002.75
580.66	1989.32
581.01	1976.14
581.36	1962.40
581.71	1950.14
582.06	1937.45
582.42	1925.22
582.77	1912.68
583.12	1900.88
583.47	1888.50
583.82	1876.72
584.17	1865.00
584.53	1853.67
584.88	1840.82
585.23	1827.71
585.58	1813.90
585.93	1800.97
586.28	1787.52
586.63	1773.87
586.98	1759.76
587.34	1746.95
587.69	1733.76
588.04	1721.43
588.39	1709.51
588.74	1697.53
589.09	1685.33
589.44	1672.62
589.79	1660.61
590.14	1648.88
590.49	1637.08
590.84	1625.51
591.19	1613.66
591.54	1601.62
591.89	1589.60
592.25	1579.55
592.60	1568.55
592.95	1557.47
593.30	1545.93
593.65	1534.27
594.00	1522.37
594.35	1512.79
594.70	1501.28
595.05	1489.95
595.40	1478.12
595.75	1466.41
596.10	1455.62
596.45	1444.62
596.80	1434.07
597.15	1422.96
597.50	1411.32
597.85	1400.15
598.19	1388.85
598.54	1377.23
598.89	1366.13
599.24	1355.72
599.59	1344.61
599.94	1333.92
600.29	1323.57
600.64	1313.58
600.99	1303.01
601.34	1293.78
601.69	1282.86
602.04	1273.16
602.39	1263.68
602.74	1254.83
603.08	1245.87
603.43	1236.87
603.78	1227.30
604.13	1218.04
604.48	1208.62
604.83	1199.06
605.18	1189.49
605.53	1180.15
605.87	1171.32
606.22	1163.09
606.57	1154.14
606.92	1144.82
607.27	1136.07
607.62	1127.62
607.96	1119.09
608.31	1111.52
608.66	1103.33
609.01	1095.05
609.36	1087.04
609.70	1078.90
610.05	1070.35
610.40	1062.11
610.75	1053.51
611.10	1045.41
611.44	1037.04
611.79	1028.97
612.14	1021.40
612.49	1013.82
612.83	1006.29
613.18	998.97
613.53	991.46
613.88	983.68
614.22	976.20
614.57	968.40
614.92	960.52
615.27	953.26
615.61	945.68
615.96	938.11
616.31	930.76
616.65	923.58
617.00	916.34
617.35	909.17
617.70	902.11
618.04	895.07
618.39	888.13
618.74	881.90
619.08	875.24
619.43	868.57
619.78	861.70
620.12	854.82
620.47	847.86
620.82	840.70
621.16	834.14
621.51	828.00
621.85	821.90
622.20	815.59
622.55	809.02
622.89	802.70
623.24	796.47
623.59	790.20
623.93	783.99
624.28	777.98
624.62	772.55
624.97	766.80
625.32	761.09
625.66	755.53
626.01	749.42
626.35	743.95
626.70	738.38
627.04	733.18
627.39	727.69
627.73	722.58
628.08	717.51
628.43	712.20
628.77	706.80
629.12	701.64
629.46	697.01
629.81	692.53
630.15	687.92
630.50	683.18
630.84	678.53
631.19	674.14
631.53	669.77
631.88	664.68
632.22	659.82
632.57	655.63
632.91	650.86
633.26	646.62
633.60	642.05
633.95	637.79
634.29	633.15
634.64	628.90
634.98	624.20
635.32	619.96
635.67	615.97
636.01	611.94
636.36	607.63
636.70	603.55
637.05	599.25
637.39	595.15
637.73	591.27
638.08	587.32
638.42	583.08
638.77	578.88
639.11	574.75
639.45	570.49
639.80	566.15
640.14	562.41
640.49	558.47
640.83	554.66
641.17	551.01
641.52	547.40
641.86	543.89
642.20	540.91
642.55	537.53
642.89	534.02
643.23	530.52
643.58	527.45
643.92	523.87
644.26	520.42
644.61	517.38
644.95	514.06
645.29	510.68
645.64	507.62
645.98	504.60
646.32	501.69
646.66	498.84
647.01	496.02
647.35	493.26
647.69	490.43
648.04	487.88
648.38	485.07
648.72	482.28
649.06	479.29
649.41	476.20
649.75	473.05
650.09	470.26
650.43	467.38
650.78	464.60
651.12	462.02
651.46	459.43
651.80	456.62
652.14	454.03
652.49	451.80
652.83	449.22
653.17	446.60
653.51	444.03
653.85	441.64
654.20	439.23
654.54	436.65
654.88	434.21
655.22	431.84
655.56	429.44
655.90	427.06
656.25	424.93
656.59	422.78
656.93	420.85
657.27	418.86
657.61	416.65
657.95	414.46
658.29	412.20
658.64	410.13
658.98	407.94
659.32	405.73
659.66	403.50
660.00	401.35
660.34	399.41
660.68	397.50
661.02	395.54
661.36	393.53
661.70	391.64
662.05	389.61
662.39	387.66
662.73	385.96
663.07	384.42
663.41	382.60
663.75	380.66
664.09	378.72
664.43	376.66
664.77	375.11
665.11	373.28
665.45	371.75
665.79	370.19
666.13	368.47
666.47	366.82
666.81	365.19
667.15	363.53
667.49	362.05
667.83	360.66
668.17	359.22
668.51	357.79
668.85	356.40
669.19	355.40
669.53	353.92
669.87	352.39
670.21	350.92
670.55	349.49
670.89	348.45
671.23	347.19
671.57	345.90
671.91	344.50
672.25	343.26
672.58	341.92
672.92	340.49
673.26	339.34
673.60	338.24
673.94	337.05
674.28	336.00
674.62	334.87
674.96	333.54
675.30	332.27
675.64	331.08
675.97	329.81
676.31	328.44
676.65	327.19
676.99	326.18
677.33	324.89
677.67	323.84
678.01	322.53
678.34	321.52
678.68	320.64
679.02	319.60
679.36	318.68
679.70	317.76
680.04	316.85
680.37	315.92
680.71	314.86
681.05	314.04
681.39	313.13
681.73	312.20
682.06	311.28
682.40	310.52
682.74	309.83
683.08	309.13
683.42	308.25
683.75	307.55
684.09	306.58
684.43	305.87
684.77	305.08
685.10	304.27
685.44	303.48
685.78	302.71
686.12	301.98
686.45	301.22
686.79	300.35
687.13	299.76
687.46	299.05
687.80	298.56
688.14	297.70
688.48	296.88
688.81	296.10
689.15	295.60
689.49	294.81
689.82	293.94
690.16	293.06
690.50	292.42
690.83	291.73
691.17	291.05
691.51	290.39
691.84	289.75
692.18	289.13
692.52	288.39
692.85	287.76
693.19	287.24
693.52	286.51
693.86	285.88
694.20	285.21
694.53	284.60
694.87	283.80
695.21	283.22
695.54	282.67
695.88	282.02
696.21	281.25
696.55	280.72
696.88	280.15
697.22	279.57
697.56	279.08
697.89	278.43
698.23	277.99
698.56	277.37
698.90	276.90
699.23	276.38
699.57	275.92
699.90	275.35
700.24	274.74
700.58	274.38
700.91	274.04
701.25	273.80
701.58	273.66
701.92	273.34
702.25	272.90
702.59	272.46
702.92	272.04
703.26	271.70
703.59	271.20
703.93	271.20
704.26	270.90
704.60	270.45
704.93	270.02
705.26	269.45
705.60	269.10
705.93	268.60
706.27	268.29
706.60	268.04
706.94	267.82
707.27	267.39
707.61	266.98
707.94	266.40
708.27	265.74
708.61	264.93
708.94	264.38
709.28	263.97
709.61	263.52
709.94	263.24
710.28	262.78
710.61	262.49
710.95	261.70
711.28	261.66
711.61	261.27
711.95	261.10
712.28	260.85
712.61	260.56
712.95	260.48
713.28	260.28
713.61	259.77
713.95	259.27
714.28	259.00
714.61	258.62
714.95	258.37
715.28	257.95
715.61	257.65
715.95	257.48
716.28	257.14
716.61	256.90
716.95	256.53
717.28	256.27
717.61	255.91
717.94	255.61
718.28	254.88
718.61	254.63
718.94	254.24
719.27	253.94
719.61	253.70
719.94	253.31
720.27	252.89
720.60	252.59
720.94	252.40
721.27	252.18
721.60	252.09
721.93	251.94
722.27	251.94
722.60	251.85
722.93	251.57
723.26	251.36
723.59	251.11
723.93	251.05
724.26	250.85
724.59	250.70
724.92	250.55
725.25	250.57
725.59	250.28
725.92	250.18
726.25	250.01
726.58	249.74
726.91	249.61
727.24	249.47
727.57	249.39
727.91	249.16
728.24	249.08
728.57	248.79
728.90	248.58
729.23	248.21
729.56	248.31
729.89	248.13
730.22	247.92
730.55	247.77
730.89	247.54
731.22	247.35
731.55	247.15
731.88	247.01
732.21	246.69
732.54	246.52
732.87	246.38
733.20	246.10
733.53	245.99
733.86	245.79
734.19	245.50
734.52	245.38
734.85	245.51
735.18	245.17
735.51	245.19
735.84	245.06
736.17	245.04
736.50	244.56
736.83	244.99
737.16	244.86
737.49	244.73
737.82	244.54
738.15	244.47
738.48	244.36
738.81	244.21
739.14	244.01
739.47	243.94
739.80	243.71
740.13	243.70
740.46	243.55
740.79	243.27
741.12	243.11
741.45	242.87
741.78	242.46
742.11	242.42
742.44	242.16
742.77	242.11
743.10	241.87
743.43	241.66
743.75	240.94
744.08	241.39
744.41	241.23
744.74	241.07
745.07	240.81
745.40	240.76
745.73	240.79
746.06	240.74
746.39	240.53
746.71	240.35
747.04	240.09
747.37	239.88
747.70	239.85
748.03	239.80
748.36	239.73
748.68	239.57
749.01	239.38
749.34	239.22
749.67	239.05
750.00	239.07
750.33	239.26
750.65	239.26
750.98	238.53
751.31	238.38
751.64	238.34
751.97	238.45
752.29	238.25
752.62	237.90
752.95	237.75
753.28	237.66
753.60	237.56
753.93	237.65
754.26	237.58
754.59	237.42
754.91	237.19
755.24	237.04
755.57	236.95
755.90	236.83
756.22	236.69
756.55	236.53
756.88	236.28
757.20	235.89
757.53	235.59
757.86	235.57
758.19	235.55
758.51	235.44
758.84	235.16
759.17	235.08
759.49	235.00
759.82	235.19
760.15	235.06
760.47	234.97
760.80	234.69
761.13	234.68
761.45	234.46
761.78	234.46
762.11	234.39
762.43	234.20
762.76	234.20
763.08	234.18
763.41	234.12
763.74	234.12
764.06	234.07
764.39	234.09
764.71	233.92
765.04	233.75
765.37	233.68
765.69	233.56
766.02	233.49
766.34	233.37
766.67	233.06
767.00	233.06
767.32	233.25
767.65	233.46
767.97	233.38
768.30	233.47
768.62	233.36
768.95	233.28
769.27	233.35
769.60	233.31
769.92	233.19
770.25	233.05
770.57	232.92
770.90	232.87
771.22	232.75
771.55	232.76
771.87	232.76
772.20	232.54
772.52	232.93
772.85	233.41
773.17	233.42
773.50	233.35
773.82	233.27
774.15	232.93
774.47	232.68
774.80	232.60
775.12	232.50
775.45	232.48
775.77	232.45
776.09	232.38
776.42	232.36
776.74	232.50
777.07	232.43
777.39	232.41
777.72	232.30
778.04	232.34
778.36	232.26
778.69	232.17
779.01	232.29
779.33	231.80
779.66	231.19
779.98	231.10
780.31	231.05
780.63	231.21
780.95	231.26
781.28	231.14
781.60	231.08
781.92	231.04
782.25	230.97
782.57	230.95
782.89	230.90
783.22	230.79
783.54	230.59
783.86	230.64
784.19	230.51
784.51	230.65
784.83	230.53
785.16	230.44
785.48	230.50
785.80	230.41
786.12	230.49
786.45	230.47
786.77	230.48
787.09	230.42
787.42	230.17
787.74	230.18
788.06	230.24
788.38	230.16
788.71	230.04
789.03	230.05
789.35	230.05
789.67	229.92
789.99	229.85
790.32	229.75
790.64	229.69
790.96	230.04
791.28	229.75
791.61	229.73
791.93	229.78
792.25	229.74
792.57	230.04
792.89	229.92
793.21	229.92
793.54	229.83
793.86	229.74
794.18	229.75
794.50	229.64
794.82	229.53
795.14	229.55
795.47	229.64
795.79	229.59
796.11	229.47
796.43	229.50
796.75	229.49
797.07	229.47
797.39	229.47
797.71	229.18
798.04	229.24
798.36	229.21
798.68	229.17
799.00	229.13
799.32	228.86
799.64	228.94
799.96	228.82
800.28	228.96
800.60	228.96
800.92	228.97
801.24	229.00
801.56	229.07
801.89	229.07
802.21	229.10
802.53	229.04
802.85	229.14
803.17	229.36
803.49	229.28
803.81	229.25
804.13	229.22
804.45	229.06
804.77	229.18
805.09	229.16
805.41	229.10
805.73	228.94
806.05	228.79
806.37	228.70
806.69	228.74
807.01	228.65
807.33	228.64
807.65	228.42
807.97	228.61
808.28	228.50
808.60	228.37
808.92	228.26
809.24	228.52
809.56	228.47
809.88	228.24
810.20	228.26
810.52	228.36
810.84	228.25
811.16	228.21
811.48	228.07
811.80	228.25
812.12	228.25
812.43	228.42
812.75	228.44
813.07	228.37
813.39	228.35
813.71	228.28
814.03	228.27
814.35	228.36
814.67	228.12
814.98	228.17
815.30	228.22
815.62	228.16
815.94	227.82
816.26	228.01
816.58	227.93
816.89	227.94
817.21	227.78
817.53	227.79
817.85	227.85
818.17	227.84
818.48	227.62
818.80	227.65
819.12	227.51
819.44	227.43
819.76	227.41
820.07	227.45
820.39	227.40
820.71	227.40
821.03	227.44
821.34	227.35
821.66	227.35
821.98	227.37
822.30	227.30
822.61	227.63
822.93	227.40
823.25	227.35
823.57	227.30
823.88	227.44
824.20	227.42
824.52	227.49
824.83	227.50
825.15	227.40
825.47	227.41
825.79	227.42
826.10	227.40
826.42	227.40
826.74	227.46
827.05	227.54
827.37	227.49
827.69	227.43
828.00	227.48
828.32	227.44
828.64	227.33
828.95	227.64
829.27	227.45
829.58	227.38
829.90	227.40
830.22	227.48
830.53	227.36
830.85	227.33
831.17	227.16
831.48	227.15
831.80	227.23
832.11	227.20
832.43	227.17
832.75	227.20
833.06	227.46
833.38	227.21
833.69	227.16
834.01	227.19
834.32	227.14
834.64	227.09
834.96	227.13
835.27	227.20
835.59	227.04
835.90	227.00
836.22	227.00
836.53	226.97
836.85	226.87
837.16	227.38
837.48	227.45
837.79	227.69
838.11	227.67
838.42	227.65
838.74	227.68
839.05	227.68
839.37	227.67
839.68	227.33
840.00	227.37
840.31	227.42
840.63	227.39
840.94	227.40
841.26	227.40
841.57	227.31
841.88	227.38
842.20	227.30
842.51	227.21
842.83	227.31
843.14	227.75
843.46	227.79
843.77	227.51
844.08	227.44
844.40	227.23
844.71	227.19
845.03	227.15
845.34	227.14
845.65	227.12
845.97	227.09
846.28	227.20
846.60	227.20
846.91	227.10
847.22	227.09
847.54	227.19
847.85	227.16
848.16	227.16
848.48	226.98
848.79	227.20
849.10	227.32
849.42	227.28
849.73	226.82
850.04	226.75
850.36	226.60
850.67	226.80
850.98	226.87
851.30	226.91
851.61	226.88
851.92	226.85
852.23	227.03
852.55	227.07
852.86	227.00
853.17	227.09
853.49	227.22
853.80	227.28
854.11	227.27
854.42	227.39
854.74	227.32
855.05	227.31
855.36	227.00
855.67	226.90
855.99	226.87
856.30	227.44
856.61	227.47
856.92	227.38
857.23	227.30
857.55	227.19
857.86	227.18
858.17	227.26
858.48	227.17
858.79	227.01
859.11	227.05
859.42	226.96
859.73	226.76
860.04	226.73
860.35	226.59
860.66	226.49
860.98	226.45
861.29	226.53
861.60	226.56
861.91	226.74
862.22	226.69
862.53	226.58
862.84	225.98
863.16	226.05
863.47	225.99
863.78	225.89
864.09	225.96
864.40	226.00
864.71	225.99
865.02	226.04
865.33	225.96
865.64	225.89
865.95	225.92
866.27	226.33
866.58	226.32
866.89	226.33
867.20	226.29
867.51	226.18
867.82	226.19
868.13	226.39
868.44	226.28
868.75	226.43
869.06	226.42
869.37	226.54
869.68	226.38
869.99	226.43
870.30	226.47
870.61	226.45
870.92	226.35
871.23	226.29
871.54	226.39
871.85	226.58
872.16	226.64
872.47	226.65
872.78	226.35
873.09	226.35
873.40	226.36
873.71	226.40
874.02	226.49
874.33	226.40
874.64	226.27
874.95	226.35
875.26	226.21
875.56	226.28
875.87	226.18
876.18	226.20
876.49	226.75
876.80	226.76
877.11	226.73
877.42	226.81
877.73	226.82
878.04	226.68
878.35	226.68
878.66	226.66
878.96	226.69
879.27	226.73
879.58	226.71
879.89	226.74
880.20	226.89
880.51	226.81
880.82	226.80
881.12	226.81
881.43	226.71
881.74	226.73
882.05	226.79
882.36	226.86
882.67	226.91
882.97	226.36
883.28	226.32
883.59	226.29
883.90	226.34
884.21	226.45
884.51	226.48
884.82	226.34
885.13	226.41
885.44	226.44
885.74	226.40
886.05	226.42
886.36	226.43
886.67	226.22
886.98	226.50
887.28	226.59
887.59	226.66
887.90	226.67
888.20	226.66
888.51	226.69
888.82	226.63
889.13	226.64
889.43	227.07
889.74	227.04
890.05	227.06
890.35	226.95
890.66	226.86
890.97	226.83
891.28	226.93
891.58	226.89
891.89	226.84
892.20	226.82
892.50	226.73
892.81	226.70
893.12	226.70
893.42	226.42
893.73	226.43
894.04	226.37
894.34	226.40
894.65	226.36
894.95	226.29
895.26	226.33
895.57	226.63
895.87	226.19
896.18	226.19
896.48	226.20
896.79	226.25
897.10	226.31
897.40	226.35
897.71	226.31
898.01	226.27
898.32	226.31
898.63	226.30
898.93	226.34
899.24	226.30
899.54	226.31
899.85	226.34
900.15	226.27
900.46	226.30
900.76	226.39
901.07	226.39
901.38	226.39
901.68	226.42
901.99	226.09
902.29	226.07
902.60	226.07
902.90	226.09
903.21	226.05
903.51	226.01
903.82	226.13
904.12	226.11
904.43	226.15
904.73	226.07
905.03	226.00
905.34	226.47
905.64	226.50
905.95	226.50
906.25	226.52
906.56	226.51
906.86	226.37
907.17	226.22
907.47	226.26
907.77	226.25
908.08	226.14
908.38	226.15
908.69	226.26
908.99	226.31
909.30	226.27
909.60	226.30
909.90	226.31
910.21	226.15
910.51	226.07
910.81	226.03
911.12	226.15
911.42	226.26
911.73	225.71
912.03	225.78
912.33	225.84
912.64	225.77
912.94	225.75
913.24	225.78
913.55	225.76
913.85	225.66
914.15	225.74
914.46	225.80
914.76	225.75
915.06	225.63
915.37	225.52
915.67	225.55
915.97	225.53
916.27	225.45
916.58	225.46
916.88	225.47
917.18	225.48
917.49	225.75
917.79	225.71
918.09	225.85
918.39	225.88
918.70	225.94
919.00	225.96
919.30	226.25
919.60	226.18
919.91	226.16
920.21	226.20
920.51	226.07
920.81	226.06
921.12	226.20
921.42	226.23
921.72	226.27
922.02	226.28
922.32	226.39
922.63	226.35
922.93	226.54
923.23	226.57
923.53	226.53
923.83	226.22
924.13	226.27
924.44	226.31
924.74	226.43
925.04	226.50
925.34	226.46
925.64	226.20
925.94	226.22
926.24	226.51
926.55	226.50
926.85	226.59
927.15	226.58
927.45	226.60
927.75	226.63
928.05	226.70
928.35	226.68
928.65	226.71
928.95	226.72
929.26	226.58
929.56	226.68
929.86	226.69
930.16	226.63
930.46	226.58
930.76	226.52
931.06	226.21
931.36	226.07
931.66	226.24
931.96	226.26
932.26	226.30
932.56	226.12
932.86	226.20
933.16	226.20
933.46	226.22
933.76	226.09
934.06	226.14
934.36	226.26
934.66	226.25
934.96	226.20
935.26	226.26
935.56	226.36
935.86	226.29
936.16	226.20
936.46	226.18
936.76	226.18
937.06	226.10
937.36	226.21
937.66	226.21
937.96	226.18
938.26	226.14
938.56	226.13
938.86	226.16
939.16	226.21
939.46	226.19
939.76	226.23
940.06	226.19
940.35	226.10
940.65	225.87
940.95	225.87
941.25	225.77
941.55	225.67
941.85	225.73
942.15	225.79
942.45	226.01
942.75	225.99
943.04	226.01
943.34	226.13
943.64	226.08
943.94	226.01
944.24	225.97
944.54	226.01
944.84	226.04
945.13	225.92
945.43	225.85
945.73	225.85
946.03	225.81
946.33	225.84
946.62	225.77
946.92	225.80
947.22	225.84
947.52	225.86
947.82	225.95
948.11	225.75
948.41	225.60
948.71	225.40
949.01	225.49
949.31	225.47
949.60	225.44
949.90	225.50
950.20	225.53
950.50	225.52
950.79	225.45
951.09	225.39
951.39	225.43
951.69	225.41
951.98	225.54
952.28	225.57
952.58	225.54
952.87	225.60
953.17	225.71
953.47	225.64
953.76	225.64
954.06	225.61
954.36	225.58
954.66	225.56
954.95	225.70
955.25	225.74
955.55	225.76
955.84	225.63
956.14	225.68
956.44	225.66
956.73	225.64
957.03	225.69
957.32	225.77
957.62	225.70
957.92	225.77
958.21	225.67
958.51	226.18
958.81	226.22
959.10	226.25
959.40	226.23
959.69	226.31
959.99	226.43
960.29	226.44
960.58	226.44
960.88	226.72
961.17	226.65
961.47	226.58
961.76	226.57
962.06	226.68
962.36	226.70
962.65	226.73
962.95	226.68
963.24	226.64
963.54	226.65
963.83	226.76
964.13	226.69
964.42	226.58
964.72	226.15
965.01	226.15
965.31	226.12
965.60	226.05
965.90	226.35
966.19	226.28
966.49	226.26
966.78	226.24
967.08	226.20
967.37	226.21
967.67	226.15
967.96	226.19
968.26	226.22
968.55	226.27
968.85	226.27
969.14	226.32
969.43	226.31
969.73	226.24
970.02	226.09
970.32	226.13
970.61	226.12
970.91	225.97
971.20	225.93
971.49	225.91
971.79	225.96
972.08	225.57
972.38	225.59
972.67	225.60
972.96	225.65
973.26	225.51
973.55	225.65
973.85	225.67
974.14	225.60
974.43	225.56
974.73	225.44
975.02	225.38
975.31	225.31
975.61	225.28
975.90	225.31
976.19	225.31
976.49	225.30
976.78	225.34
977.07	225.33
977.37	225.42
977.66	225.45
977.95	225.45
978.24	225.49
978.54	225.53
978.83	225.52
979.12	225.51
979.42	225.46
979.71	225.38
980.00	225.40
980.29	225.45
980.59	225.40
980.88	225.50
981.17	225.47
981.46	225.54
981.76	225.54
982.05	225.63
982.34	225.68
982.63	225.72
982.93	225.70
983.22	225.89
983.51	225.85
983.80	225.88
984.09	225.88
984.39	225.82
984.68	225.75
984.97	225.73
985.26	225.74
985.55	225.80
985.85	225.72
986.14	225.72
986.43	225.73
986.72	225.70
987.01	225.56
987.30	225.57
987.59	225.50
987.89	225.54
988.18	225.37
988.47	225.38
988.76	225.30
989.05	225.30
989.34	225.25
989.63	225.40
989.92	225.35
990.22	225.29
990.51	225.37
990.80	225.35
991.09	225.44
991.38	225.47
991.67	225.40
991.96	225.34
992.25	225.43
992.54	225.44
992.83	225.50
993.12	225.52
993.41	225.70
993.70	225.94
993.99	226.05
994.28	226.20
994.58	226.22
994.87	226.21
995.16	226.21
995.45	226.05
995.74	225.93
996.03	226.03
996.32	226.10
996.61	226.20
996.90	226.27
997.19	226.23
997.48	226.31
997.77	226.39
998.06	226.43
998.34	226.35
998.63	226.30
998.92	226.28
999.21	226.35
999.50	226.31
999.79	226.14
1000.08	226.14
1000.37	226.14
1000.66	226.10
1000.95	226.23
1001.24	226.25
1001.53	226.41
1001.82	226.28
1002.11	226.23
1002.40	226.29
1002.68	226.42
1002.97	226.67
1003.26	226.58
1003.55	226.43
1003.84	226.41
1004.13	226.57
1004.42	226.58
1004.71	226.63
1004.99	226.65
1005.28	226.67
1005.57	226.67
1005.86	226.62
1006.15	226.60
1006.44	226.49
1006.72	226.55
1007.01	226.46
1007.30	226.45
1007.59	226.38
1007.88	226.48
1008.17	226.42
1008.45	226.32
1008.74	226.08
1009.03	225.81
1009.32	225.85
1009.60	225.86
1009.89	225.84
1010.18	225.68
1010.47	225.62
1010.76	225.59
1011.04	225.53
1011.33	225.60
1011.62	225.63
1011.91	225.65
1012.19	225.65
1012.48	225.66
1012.77	225.70
1013.05	225.98
1013.34	225.97
1013.63	225.94
1013.92	225.94
1014.20	225.89
1014.49	225.87
1014.78	225.92
1015.06	225.85
1015.35	225.88
1015.64	225.98
1015.92	226.09
1016.21	226.14
1016.50	226.19
1016.78	226.28
1017.07	226.30
1017.36	226.18
1017.64	226.06
1017.93	226.05
1018.22	225.97
1018.50	226.02
1018.79	225.96
1019.08	225.64
1019.36	225.66
1019.65	225.62
1019.93	225.73
1020.22	225.78
1020.51	226.02
1020.79	225.97
1021.08	225.00
1021.36	225.55
1021.65	225.65
1021.94	224.60
1022.22	225.50
1022.51	224.50
1022.79	227.75
1023.08	225.00
1023.36	230.85
1023.65	225.35
>>>>>End Processed Spectral Data<<<<<
