SpectraSuite Data File
++++++++++++++++++++++++++++++++++++
Date: Wed Sep 04 18:05:03 EDT 2013
User: lab3
Dark Spectrum Present: Yes
Reference Spectrum Present: No
Number of Sampled Component Spectra: 1
Spectrometers: USB2E7196
Integration Time (usec): 170000 (USB2E7196)
Spectra Averaged: 20 (USB2E7196)
Boxcar Smoothing: 10 (USB2E7196)
Correct for Electrical Dark: No (USB2E7196)
Strobe/Lamp Enabled: No (USB2E7196)
Correct for Detector Non-linearity: No (USB2E7196)
Correct for Stray Light: No (USB2E7196)
Number of Pixels in Processed Spectrum: 2048
>>>>>Begin Processed Spectral Data<<<<<
339.09	0.00
339.48	213.90
339.86	215.20
340.24	216.45
340.63	218.00
341.01	226.60
341.39	219.20
341.78	222.20
342.16	225.90
342.54	223.75
342.93	212.74
343.31	223.41
343.69	223.99
344.07	224.47
344.46	224.96
344.84	225.31
345.22	225.25
345.60	225.60
345.99	225.80
346.37	225.82
346.75	225.96
347.13	226.06
347.52	226.14
347.90	226.40
348.28	226.40
348.66	226.61
349.05	226.55
349.43	226.59
349.81	226.65
350.19	226.66
350.57	226.70
350.96	226.79
351.34	226.93
351.72	227.03
352.10	227.08
352.48	227.06
352.87	227.16
353.25	227.28
353.63	227.37
354.01	227.44
354.39	227.52
354.77	227.56
355.15	227.72
355.54	227.72
355.92	227.59
356.30	227.61
356.68	227.95
357.06	228.05
357.44	228.05
357.82	228.15
358.20	228.66
358.58	228.78
358.97	228.85
359.35	229.05
359.73	229.16
360.11	229.27
360.49	229.37
360.87	229.38
361.25	229.50
361.63	229.69
362.01	229.79
362.39	229.85
362.77	229.89
363.15	229.91
363.53	229.99
363.91	230.03
364.29	230.10
364.67	229.69
365.05	229.73
365.43	229.83
365.81	229.93
366.19	229.77
366.57	230.00
366.95	229.95
367.33	229.86
367.71	229.85
368.09	229.98
368.47	229.96
368.85	229.99
369.23	229.98
369.61	229.80
369.99	229.90
370.37	229.98
370.75	230.25
371.13	230.19
371.51	230.10
371.89	230.11
372.27	230.12
372.65	230.15
373.03	230.08
373.41	229.98
373.78	229.90
374.16	229.61
374.54	229.43
374.92	229.36
375.30	229.25
375.68	229.09
376.06	228.98
376.44	228.95
376.82	229.00
377.19	228.93
377.57	228.86
377.95	228.63
378.33	228.45
378.71	228.07
379.09	228.03
379.47	228.05
379.84	227.95
380.22	227.82
380.60	227.67
380.98	227.59
381.36	227.50
381.73	227.36
382.11	227.42
382.49	227.30
382.87	227.21
383.25	227.19
383.62	227.64
384.00	227.48
384.38	227.41
384.76	227.35
385.13	227.48
385.51	227.41
385.89	227.34
386.27	227.35
386.64	227.41
387.02	227.35
387.40	227.25
387.78	227.18
388.15	227.17
388.53	227.11
388.91	227.07
389.29	227.04
389.66	227.10
390.04	226.99
390.42	227.10
390.79	227.13
391.17	227.08
391.55	226.57
391.92	226.61
392.30	226.71
392.68	226.63
393.05	226.58
393.43	226.66
393.81	226.70
394.18	226.55
394.56	226.56
394.94	226.65
395.31	226.59
395.69	226.79
396.06	226.83
396.44	226.94
396.82	226.88
397.19	227.12
397.57	227.05
397.95	227.18
398.32	227.09
398.70	227.25
399.07	227.45
399.45	227.55
399.82	227.61
400.20	227.60
400.58	227.64
400.95	227.53
401.33	227.69
401.70	228.10
402.08	228.31
402.45	228.39
402.83	228.63
403.20	228.90
403.58	228.99
403.95	229.25
404.33	229.45
404.71	229.70
405.08	230.20
405.46	230.41
405.83	230.70
406.21	230.99
406.58	231.26
406.96	231.48
407.33	231.80
407.70	232.19
408.08	232.95
408.45	233.48
408.83	233.96
409.20	234.33
409.58	234.50
409.95	235.05
410.33	235.71
410.70	236.05
411.08	236.67
411.45	237.27
411.82	237.86
412.20	238.62
412.57	239.61
412.95	239.92
413.32	240.86
413.69	241.67
414.07	242.63
414.44	243.59
414.82	244.64
415.19	245.85
415.56	246.98
415.94	247.99
416.31	249.45
416.68	250.89
417.06	252.56
417.43	254.22
417.81	255.98
418.18	257.76
418.55	259.78
418.93	261.78
419.30	263.98
419.67	266.30
420.04	268.65
420.42	271.03
420.79	274.16
421.16	276.91
421.54	279.98
421.91	282.98
422.28	286.10
422.66	289.43
423.03	293.00
423.40	296.42
423.77	299.95
424.15	303.55
424.52	307.34
424.89	311.52
425.26	315.53
425.64	319.36
426.01	323.55
426.38	327.85
426.75	332.48
427.13	337.00
427.50	341.78
427.87	346.65
428.24	351.52
428.61	356.07
428.99	361.46
429.36	366.99
429.73	372.50
430.10	378.03
430.47	383.67
430.85	389.22
431.22	395.43
431.59	402.30
431.96	408.61
432.33	415.67
432.70	422.28
433.08	430.16
433.45	437.58
433.82	444.97
434.19	453.25
434.56	461.27
434.93	468.95
435.30	476.72
435.68	485.34
436.05	493.86
436.42	502.25
436.79	510.01
437.16	518.33
437.53	527.11
437.90	535.92
438.27	544.55
438.64	553.53
439.01	561.74
439.38	568.88
439.75	575.98
440.13	583.97
440.50	591.44
440.87	597.62
441.24	604.06
441.61	611.00
441.98	616.22
442.35	622.23
442.72	628.40
443.09	634.00
443.46	637.52
443.83	639.76
444.20	641.60
444.57	644.32
444.94	645.47
445.31	646.66
445.68	647.99
446.05	648.15
446.42	646.84
446.79	645.69
447.16	644.15
447.53	642.86
447.90	639.09
448.27	635.55
448.64	630.53
449.01	626.70
449.37	620.66
449.74	614.36
450.11	607.46
450.48	599.65
450.85	591.78
451.22	584.83
451.59	578.37
451.96	572.10
452.33	563.86
452.70	556.43
453.07	547.73
453.43	538.55
453.80	530.20
454.17	522.14
454.54	514.20
454.91	505.93
455.28	497.88
455.65	490.43
456.02	483.65
456.38	477.20
456.75	469.41
457.12	462.91
457.49	456.64
457.86	450.11
458.23	444.90
458.59	439.14
458.96	433.35
459.33	428.09
459.70	422.92
460.07	418.89
460.43	414.22
460.80	409.88
461.17	406.07
461.54	402.00
461.91	398.21
462.27	394.34
462.64	391.03
463.01	387.50
463.38	384.20
463.74	380.06
464.11	377.16
464.48	374.68
464.85	371.69
465.21	369.54
465.58	367.30
465.95	364.43
466.32	362.21
466.68	359.86
467.05	357.67
467.42	355.55
467.78	353.23
468.15	351.01
468.52	349.47
468.88	347.30
469.25	345.43
469.62	343.95
469.98	342.40
470.35	340.93
470.72	339.51
471.08	337.84
471.45	336.54
471.82	335.39
472.18	333.91
472.55	332.96
472.92	331.73
473.28	330.64
473.65	329.58
474.02	328.55
474.38	327.74
474.75	326.93
475.11	326.00
475.48	325.39
475.85	324.82
476.21	324.09
476.58	323.58
476.94	323.18
477.31	322.64
477.67	322.16
478.04	321.78
478.41	321.48
478.77	321.75
479.14	321.46
479.50	321.32
479.87	321.25
480.23	321.24
480.60	321.18
480.96	321.15
481.33	321.58
481.69	321.82
482.06	322.09
482.42	322.40
482.79	322.73
483.15	323.04
483.52	323.61
483.88	324.06
484.25	324.64
484.61	325.28
484.98	325.99
485.34	326.95
485.71	327.88
486.07	328.83
486.44	329.42
486.80	330.54
487.17	331.56
487.53	332.97
487.90	334.28
488.26	335.92
488.62	337.59
488.99	338.92
489.35	340.68
489.72	342.48
490.08	344.38
490.44	346.46
490.81	348.69
491.17	350.83
491.54	353.33
491.90	355.80
492.26	358.34
492.63	361.10
492.99	363.88
493.36	366.95
493.72	370.36
494.08	373.82
494.45	377.46
494.81	381.38
495.17	385.18
495.54	389.33
495.90	393.55
496.26	398.01
496.63	402.72
496.99	407.52
497.35	412.57
497.72	417.91
498.08	423.33
498.44	429.06
498.80	435.17
499.17	441.33
499.53	447.60
499.89	454.48
500.26	461.35
500.62	468.42
500.98	475.88
501.34	483.25
501.71	491.07
502.07	498.99
502.43	507.08
502.79	515.67
503.16	524.58
503.52	533.66
503.88	543.01
504.24	552.70
504.60	562.81
504.97	573.10
505.33	583.46
505.69	594.72
506.05	605.89
506.41	617.15
506.78	628.71
507.14	640.83
507.50	653.08
507.86	665.86
508.22	678.86
508.59	692.00
508.95	705.77
509.31	720.06
509.67	734.57
510.03	748.99
510.39	763.72
510.75	778.77
511.12	793.95
511.48	809.61
511.84	825.39
512.20	841.20
512.56	857.59
512.92	874.71
513.28	891.50
513.64	908.70
514.00	926.23
514.37	944.00
514.73	962.27
515.09	980.49
515.45	998.70
515.81	1017.34
516.17	1036.38
516.53	1055.24
516.89	1073.70
517.25	1093.07
517.61	1113.36
517.97	1133.56
518.33	1153.51
518.69	1173.85
519.05	1194.31
519.41	1215.27
519.77	1236.60
520.13	1257.42
520.49	1278.06
520.85	1300.50
521.21	1321.72
521.57	1343.33
521.93	1364.32
522.29	1385.40
522.65	1406.05
523.01	1427.46
523.37	1448.02
523.73	1468.85
524.09	1489.40
524.45	1510.45
524.81	1531.40
525.17	1552.15
525.53	1572.98
525.89	1594.15
526.25	1615.18
526.61	1635.65
526.97	1656.54
527.33	1677.92
527.68	1699.91
528.04	1721.34
528.40	1741.10
528.76	1762.35
529.12	1782.50
529.48	1803.32
529.84	1823.41
530.20	1844.95
530.56	1865.61
530.91	1886.60
531.27	1907.38
531.63	1928.22
531.99	1948.77
532.35	1968.54
532.71	1988.81
533.07	2009.27
533.42	2029.02
533.78	2049.15
534.14	2069.51
534.50	2088.82
534.86	2107.86
535.21	2125.48
535.57	2143.96
535.93	2161.62
536.29	2179.44
536.65	2197.65
537.00	2215.83
537.36	2233.87
537.72	2250.39
538.08	2267.75
538.44	2284.73
538.79	2301.14
539.15	2317.72
539.51	2333.86
539.87	2349.55
540.22	2364.03
540.58	2378.67
540.94	2392.04
541.29	2404.61
541.65	2416.94
542.01	2429.78
542.37	2440.51
542.72	2451.86
543.08	2462.73
543.44	2474.54
543.79	2484.56
544.15	2494.68
544.51	2504.30
544.87	2514.12
545.22	2523.25
545.58	2530.93
545.94	2538.18
546.29	2544.95
546.65	2551.53
547.01	2557.38
547.36	2563.17
547.72	2568.53
548.07	2572.76
548.43	2578.45
548.79	2583.70
549.14	2588.17
549.50	2591.78
549.86	2596.36
550.21	2600.00
550.57	2603.51
550.92	2605.29
551.28	2606.70
551.64	2609.32
551.99	2611.74
552.35	2613.31
552.70	2614.99
553.06	2616.79
553.41	2618.27
553.77	2620.15
554.13	2621.88
554.48	2623.32
554.84	2624.95
555.19	2626.22
555.55	2627.68
555.90	2626.67
556.26	2625.63
556.61	2624.35
556.97	2622.47
557.32	2621.46
557.68	2620.42
558.03	2618.79
558.39	2617.62
558.74	2617.16
559.10	2613.94
559.45	2610.40
559.81	2606.37
560.16	2601.89
560.52	2597.39
560.87	2593.06
561.23	2587.57
561.58	2581.34
561.94	2574.61
562.29	2567.19
562.64	2560.43
563.00	2552.36
563.35	2546.37
563.71	2540.04
564.06	2533.68
564.42	2527.38
564.77	2520.71
565.12	2513.18
565.48	2505.65
565.83	2497.64
566.19	2489.64
566.54	2482.21
566.89	2474.16
567.25	2466.10
567.60	2458.61
567.96	2450.80
568.31	2442.56
568.66	2433.82
569.02	2425.16
569.37	2417.05
569.72	2409.50
570.08	2400.08
570.43	2390.64
570.78	2381.43
571.14	2371.50
571.49	2361.24
571.84	2351.64
572.20	2340.39
572.55	2330.32
572.90	2319.46
573.26	2309.27
573.61	2297.94
573.96	2286.20
574.31	2273.96
574.67	2262.49
575.02	2249.58
575.37	2236.79
575.72	2223.70
576.08	2211.55
576.43	2198.79
576.78	2185.64
577.13	2171.62
577.49	2158.85
577.84	2146.82
578.19	2134.39
578.54	2122.35
578.90	2110.14
579.25	2097.62
579.60	2084.97
579.95	2071.98
580.30	2058.58
580.66	2044.83
581.01	2031.16
581.36	2017.40
581.71	2004.85
582.06	1991.57
582.42	1979.04
582.77	1966.40
583.12	1954.48
583.47	1942.04
583.82	1929.93
584.17	1918.06
584.53	1906.45
584.88	1893.83
585.23	1880.72
585.58	1866.35
585.93	1852.59
586.28	1839.21
586.63	1825.10
586.98	1811.02
587.34	1797.64
587.69	1784.64
588.04	1771.86
588.39	1759.78
588.74	1747.37
589.09	1734.94
589.44	1722.05
589.79	1710.09
590.14	1698.14
590.49	1686.03
590.84	1673.79
591.19	1661.53
591.54	1649.05
591.89	1636.60
592.25	1625.81
592.60	1614.41
592.95	1603.42
593.30	1591.49
593.65	1579.48
594.00	1567.58
594.35	1557.80
594.70	1546.09
595.05	1534.41
595.40	1522.17
595.75	1510.05
596.10	1498.74
596.45	1487.18
596.80	1476.16
597.15	1464.38
597.50	1452.56
597.85	1440.93
598.19	1429.29
598.54	1417.72
598.89	1406.28
599.24	1395.60
599.59	1383.67
599.94	1372.71
600.29	1361.77
600.64	1351.20
600.99	1340.42
601.34	1330.88
601.69	1319.48
602.04	1309.36
602.39	1299.66
602.74	1290.44
603.08	1281.13
603.43	1272.18
603.78	1262.40
604.13	1252.76
604.48	1243.14
604.83	1233.11
605.18	1223.20
605.53	1213.67
605.87	1204.20
606.22	1195.55
606.57	1186.14
606.92	1176.86
607.27	1167.70
607.62	1158.98
607.96	1150.44
608.31	1142.57
608.66	1133.65
609.01	1125.23
609.36	1116.51
609.70	1107.87
610.05	1099.13
610.40	1090.51
610.75	1081.49
611.10	1073.14
611.44	1064.34
611.79	1056.17
612.14	1048.41
612.49	1040.35
612.83	1032.85
613.18	1025.14
613.53	1017.10
613.88	1008.90
614.22	1001.05
614.57	993.10
614.92	985.10
615.27	977.71
615.61	969.83
615.96	962.22
616.31	954.51
616.65	947.46
617.00	940.09
617.35	932.95
617.70	925.86
618.04	918.51
618.39	911.63
618.74	905.38
619.08	898.27
619.43	891.16
619.78	884.11
620.12	876.78
620.47	869.94
620.82	862.97
621.16	856.16
621.51	849.94
621.85	843.50
622.20	836.88
622.55	830.15
622.89	823.56
623.24	817.14
623.59	810.65
623.93	804.27
624.28	798.10
624.62	792.29
624.97	786.26
625.32	780.49
625.66	774.32
626.01	768.03
626.35	762.43
626.70	756.75
627.04	751.69
627.39	746.08
627.73	740.61
628.08	735.21
628.43	729.85
628.77	724.12
629.12	718.73
629.46	713.90
629.81	708.91
630.15	704.01
630.50	699.09
630.84	694.23
631.19	689.32
631.53	684.66
631.88	679.30
632.22	674.44
632.57	669.94
632.91	665.25
633.26	660.77
633.60	656.12
633.95	651.33
634.29	646.16
634.64	641.88
634.98	637.02
635.32	632.56
635.67	628.36
636.01	624.28
636.36	619.85
636.70	615.71
637.05	611.33
637.39	607.13
637.73	602.94
638.08	598.94
638.42	594.61
638.77	590.09
639.11	585.76
639.45	581.35
639.80	576.84
640.14	572.63
640.49	568.62
640.83	564.59
641.17	560.92
641.52	557.39
641.86	553.66
642.20	550.59
642.55	546.78
642.89	543.20
643.23	539.60
643.58	536.56
643.92	532.88
644.26	529.60
644.61	526.37
644.95	522.87
645.29	519.36
645.64	516.23
645.98	513.12
646.32	510.18
646.66	506.99
647.01	504.01
647.35	501.35
647.69	498.29
648.04	495.59
648.38	492.71
648.72	489.72
649.06	486.61
649.41	483.40
649.75	480.47
650.09	477.63
650.43	474.67
650.78	471.63
651.12	468.92
651.46	466.04
651.80	463.26
652.14	460.65
652.49	458.17
652.83	455.69
653.17	453.12
653.51	450.35
653.85	447.97
654.20	445.47
654.54	442.74
654.88	440.14
655.22	437.66
655.56	435.09
655.90	432.72
656.25	430.43
656.59	428.25
656.93	426.10
657.27	423.95
657.61	421.55
657.95	419.34
658.29	417.07
658.64	414.96
658.98	412.67
659.32	410.38
659.66	408.14
660.00	405.90
660.34	403.76
660.68	401.79
661.02	399.83
661.36	397.89
661.70	395.94
662.05	394.10
662.39	392.20
662.73	390.58
663.07	388.98
663.41	387.08
663.75	385.10
664.09	383.25
664.43	381.30
664.77	379.74
665.11	377.92
665.45	376.34
665.79	374.65
666.13	373.02
666.47	371.35
666.81	369.68
667.15	368.05
667.49	366.58
667.83	365.35
668.17	363.74
668.51	362.24
668.85	360.91
669.19	359.69
669.53	358.15
669.87	356.55
670.21	354.93
670.55	353.60
670.89	352.46
671.23	351.10
671.57	349.73
671.91	348.28
672.25	346.96
672.58	345.70
672.92	344.35
673.26	343.00
673.60	341.81
673.94	340.63
674.28	339.49
674.62	338.35
674.96	336.94
675.30	335.81
675.64	334.59
675.97	333.35
676.31	331.97
676.65	330.70
676.99	329.79
677.33	328.56
677.67	327.47
678.01	326.14
678.34	325.15
678.68	324.24
679.02	323.23
679.36	322.23
679.70	321.08
680.04	320.02
680.37	319.07
680.71	318.08
681.05	317.14
681.39	316.23
681.73	315.26
682.06	314.33
682.40	313.45
682.74	312.69
683.08	311.95
683.42	311.06
683.75	310.30
684.09	309.30
684.43	308.53
684.77	307.64
685.10	306.85
685.44	306.04
685.78	305.10
686.12	304.37
686.45	303.52
686.79	302.60
687.13	301.98
687.46	301.24
687.80	300.57
688.14	299.74
688.48	298.93
688.81	298.12
689.15	297.51
689.49	296.75
689.82	295.96
690.16	295.01
690.50	294.31
690.83	293.60
691.17	292.80
691.51	292.09
691.84	291.46
692.18	290.78
692.52	290.08
692.85	289.51
693.19	288.99
693.52	288.38
693.86	287.87
694.20	287.14
694.53	286.63
694.87	285.95
695.21	285.34
695.54	284.74
695.88	284.09
696.21	283.34
696.55	282.78
696.88	282.15
697.22	281.55
697.56	281.08
697.89	280.46
698.23	280.07
698.56	279.53
698.90	279.10
699.23	278.54
699.57	278.05
699.90	277.43
700.24	276.76
700.58	276.36
700.91	275.88
701.25	275.87
701.58	275.60
701.92	275.25
702.25	274.85
702.59	274.34
702.92	274.00
703.26	273.64
703.59	273.08
703.93	273.02
704.26	272.70
704.60	272.20
704.93	271.79
705.26	271.28
705.60	270.92
705.93	270.41
706.27	270.15
706.60	269.89
706.94	269.75
707.27	269.33
707.61	268.95
707.94	268.56
708.27	267.68
708.61	266.93
708.94	266.46
709.28	266.09
709.61	265.77
709.94	265.36
710.28	264.91
710.61	264.62
710.95	263.83
711.28	263.74
711.61	263.45
711.95	263.23
712.28	262.74
712.61	262.34
712.95	262.15
713.28	261.98
713.61	261.52
713.95	261.04
714.28	260.76
714.61	260.32
714.95	259.91
715.28	259.54
715.61	259.20
715.95	258.95
716.28	258.50
716.61	258.18
716.95	257.85
717.28	257.60
717.61	257.32
717.94	257.09
718.28	256.43
718.61	256.05
718.94	255.66
719.27	255.47
719.61	255.31
719.94	254.94
720.27	254.40
720.60	254.11
720.94	253.76
721.27	253.56
721.60	253.35
721.93	253.19
722.27	253.16
722.60	252.96
722.93	252.60
723.26	252.57
723.59	252.31
723.93	252.18
724.26	251.99
724.59	251.74
724.92	251.63
725.25	251.56
725.59	251.41
725.92	251.27
726.25	251.02
726.58	250.76
726.91	250.54
727.24	250.48
727.57	250.27
727.91	250.09
728.24	249.94
728.57	249.71
728.90	249.53
729.23	249.27
729.56	249.36
729.89	249.27
730.22	249.00
730.55	248.82
730.89	248.60
731.22	248.40
731.55	248.18
731.88	247.91
732.21	247.69
732.54	247.43
732.87	247.22
733.20	247.16
733.53	247.03
733.86	246.96
734.19	246.71
734.52	246.61
734.85	246.71
735.18	246.50
735.51	246.49
735.84	246.38
736.17	246.31
736.50	245.91
736.83	246.25
737.16	246.06
737.49	245.93
737.82	245.73
738.15	245.62
738.48	245.48
738.81	245.39
739.14	245.24
739.47	245.09
739.80	244.95
740.13	244.80
740.46	244.61
740.79	244.30
741.12	244.16
741.45	243.94
741.78	243.50
742.11	243.44
742.44	243.24
742.77	243.13
743.10	243.00
743.43	242.77
743.75	242.06
744.08	242.57
744.41	242.45
744.74	242.29
745.07	242.11
745.40	242.16
745.73	242.09
746.06	241.97
746.39	241.91
746.71	241.72
747.04	241.51
747.37	241.37
747.70	241.31
748.03	241.20
748.36	241.15
748.68	241.05
749.01	240.81
749.34	240.62
749.67	240.52
750.00	240.35
750.33	240.57
750.65	240.53
750.98	239.79
751.31	239.64
751.64	239.54
751.97	239.60
752.29	239.37
752.62	239.06
752.95	238.89
753.28	238.69
753.60	238.61
753.93	238.65
754.26	238.58
754.59	238.42
754.91	238.22
755.24	238.06
755.57	238.01
755.90	237.90
756.22	237.79
756.55	237.57
756.88	237.41
757.20	237.00
757.53	236.81
757.86	236.68
758.19	236.61
758.51	236.55
758.84	236.19
759.17	236.07
759.49	236.05
759.82	236.21
760.15	236.22
760.47	236.14
760.80	235.97
761.13	235.90
761.45	235.73
761.78	235.66
762.11	235.63
762.43	235.43
762.76	235.33
763.08	235.32
763.41	235.27
763.74	235.15
764.06	235.12
764.39	235.05
764.71	235.07
765.04	234.95
765.37	234.80
765.69	234.75
766.02	234.70
766.34	234.55
766.67	234.23
767.00	234.23
767.32	234.44
767.65	234.58
767.97	234.52
768.30	234.54
768.62	234.49
768.95	234.37
769.27	234.34
769.60	234.35
769.92	234.14
770.25	234.06
770.57	234.00
770.90	233.98
771.22	233.91
771.55	233.81
771.87	233.76
772.20	233.66
772.52	234.01
772.85	234.50
773.17	234.50
773.50	234.49
773.82	234.35
774.15	233.96
774.47	233.66
774.80	233.54
775.12	233.47
775.45	233.41
775.77	233.36
776.09	233.38
776.42	233.32
776.74	233.46
777.07	233.31
777.39	233.22
777.72	233.06
778.04	233.04
778.36	233.00
778.69	233.02
779.01	233.01
779.33	232.54
779.66	231.96
779.98	231.88
780.31	231.81
780.63	232.00
780.95	232.08
781.28	232.04
781.60	231.98
781.92	232.01
782.25	232.03
782.57	231.98
782.89	231.82
783.22	231.74
783.54	231.60
783.86	231.64
784.19	231.60
784.51	231.78
784.83	231.65
785.16	231.55
785.48	231.45
785.80	231.40
786.12	231.50
786.45	231.45
786.77	231.49
787.09	231.45
787.42	231.18
787.74	231.10
788.06	231.08
788.38	231.03
788.71	230.88
789.03	230.82
789.35	230.85
789.67	230.84
789.99	230.81
790.32	230.76
790.64	230.80
790.96	231.21
791.28	230.97
791.61	230.95
791.93	230.95
792.25	230.90
792.57	231.21
792.89	231.08
793.21	231.04
793.54	230.93
793.86	230.90
794.18	230.87
794.50	230.84
794.82	230.83
795.14	230.82
795.47	230.87
795.79	230.85
796.11	230.74
796.43	230.65
796.75	230.70
797.07	230.70
797.39	230.65
797.71	230.23
798.04	230.25
798.36	230.26
798.68	230.28
799.00	230.31
799.32	230.05
799.64	230.13
799.96	230.07
800.28	230.15
800.60	230.07
800.92	230.11
801.24	230.10
801.56	230.10
801.89	230.05
802.21	230.05
802.53	229.91
802.85	229.96
803.17	230.20
803.49	230.04
803.81	229.99
804.13	229.87
804.45	229.79
804.77	229.81
805.09	229.85
805.41	229.69
805.73	229.62
806.05	229.53
806.37	229.45
806.69	229.52
807.01	229.45
807.33	229.43
807.65	229.25
807.97	229.37
808.28	229.26
808.60	229.28
808.92	229.17
809.24	229.46
809.56	229.33
809.88	229.17
810.20	229.20
810.52	229.27
810.84	229.22
811.16	229.13
811.48	229.03
811.80	229.18
812.12	229.21
812.43	229.28
812.75	229.30
813.07	229.24
813.39	229.21
813.71	229.09
814.03	229.09
814.35	229.07
814.67	228.95
814.98	228.87
815.30	228.81
815.62	228.77
815.94	228.48
816.26	228.74
816.58	228.65
816.89	228.71
817.21	228.49
817.53	228.49
817.85	228.62
818.17	228.63
818.48	228.39
818.80	228.53
819.12	228.50
819.44	228.38
819.76	228.34
820.07	228.28
820.39	228.34
820.71	228.36
821.03	228.35
821.34	228.26
821.66	228.31
821.98	228.40
822.30	228.39
822.61	228.62
822.93	228.37
823.25	228.30
823.57	228.26
823.88	228.34
824.20	228.39
824.52	228.43
824.83	228.38
825.15	228.31
825.47	228.20
825.79	228.14
826.10	228.07
826.42	228.08
826.74	228.09
827.05	228.06
827.37	228.03
827.69	228.00
828.00	227.97
828.32	227.97
828.64	227.87
828.95	228.12
829.27	227.96
829.58	227.98
829.90	228.12
830.22	228.13
830.53	228.11
830.85	228.04
831.17	227.95
831.48	227.97
831.80	227.96
832.11	227.86
832.43	227.85
832.75	227.90
833.06	228.20
833.38	228.06
833.69	228.04
834.01	228.11
834.32	228.13
834.64	228.16
834.96	228.23
835.27	228.24
835.59	228.10
835.90	228.06
836.22	228.03
836.53	227.90
836.85	227.82
837.16	228.30
837.48	228.31
837.79	228.37
838.11	228.35
838.42	228.36
838.74	228.43
839.05	228.35
839.37	228.36
839.68	227.98
840.00	227.99
840.31	228.02
840.63	227.87
840.94	227.79
841.26	227.68
841.57	227.60
841.88	227.63
842.20	227.55
842.51	227.53
842.83	227.54
843.14	227.87
843.46	227.91
843.77	227.61
844.08	227.53
844.40	227.44
844.71	227.42
845.03	227.39
845.34	227.39
845.65	227.41
845.97	227.41
846.28	227.48
846.60	227.47
846.91	227.46
847.22	227.50
847.54	227.64
847.85	227.72
848.16	227.60
848.48	227.52
848.79	227.68
849.10	227.66
849.42	227.66
849.73	227.29
850.04	227.23
850.36	227.03
850.67	227.16
850.98	227.16
851.30	227.22
851.61	227.25
851.92	227.22
852.23	227.34
852.55	227.38
852.86	227.40
853.17	227.51
853.49	227.55
853.80	227.68
854.11	227.72
854.42	227.79
854.74	227.80
855.05	227.84
855.36	227.60
855.67	227.64
855.99	227.66
856.30	228.25
856.61	228.23
856.92	228.25
857.23	228.23
857.55	228.15
857.86	228.10
858.17	228.12
858.48	228.06
858.79	227.94
859.11	227.94
859.42	227.88
859.73	227.81
860.04	227.79
860.35	227.63
860.66	227.42
860.98	227.31
861.29	227.35
861.60	227.35
861.91	227.50
862.22	227.40
862.53	227.40
862.84	226.77
863.16	226.89
863.47	226.83
863.78	226.76
864.09	226.84
864.40	226.88
864.71	226.89
865.02	226.97
865.33	226.92
865.64	226.86
865.95	226.85
866.27	227.09
866.58	227.00
866.89	227.07
867.20	227.12
867.51	227.08
867.82	227.07
868.13	227.15
868.44	226.94
868.75	227.05
869.06	226.92
869.37	227.00
869.68	226.81
869.99	226.85
870.30	227.02
870.61	227.12
870.92	227.03
871.23	227.00
871.54	227.06
871.85	227.15
872.16	227.24
872.47	227.19
872.78	226.91
873.09	227.06
873.40	226.96
873.71	226.95
874.02	227.00
874.33	227.02
874.64	226.95
874.95	227.13
875.26	227.02
875.56	227.11
875.87	227.11
876.18	227.13
876.49	227.69
876.80	227.56
877.11	227.42
877.42	227.49
877.73	227.47
878.04	227.37
878.35	227.33
878.66	227.32
878.96	227.34
879.27	227.36
879.58	227.29
879.89	227.35
880.20	227.50
880.51	227.46
880.82	227.46
881.12	227.50
881.43	227.40
881.74	227.38
882.05	227.34
882.36	227.34
882.67	227.38
882.97	226.79
883.28	226.71
883.59	226.69
883.90	226.78
884.21	226.87
884.51	226.90
884.82	226.93
885.13	226.87
885.44	226.86
885.74	226.88
886.05	226.85
886.36	226.81
886.67	226.66
886.98	226.90
887.28	226.94
887.59	226.92
887.90	226.89
888.20	226.85
888.51	226.89
888.82	226.80
889.13	226.90
889.43	227.34
889.74	227.36
890.05	227.44
890.35	227.31
890.66	227.22
890.97	227.17
891.28	227.08
891.58	227.16
891.89	227.21
892.20	227.20
892.50	227.10
892.81	227.09
893.12	227.08
893.42	226.79
893.73	226.86
894.04	226.92
894.34	226.96
894.65	227.01
894.95	226.94
895.26	227.02
895.57	227.22
895.87	226.73
896.18	226.80
896.48	226.77
896.79	226.74
897.10	226.79
897.40	226.84
897.71	226.92
898.01	226.85
898.32	226.86
898.63	226.84
898.93	226.94
899.24	227.01
899.54	227.02
899.85	227.06
900.15	227.04
900.46	226.94
900.76	227.05
901.07	227.00
901.38	227.02
901.68	227.07
901.99	226.84
902.29	226.91
902.60	226.85
902.90	226.83
903.21	226.83
903.51	226.85
903.82	226.87
904.12	226.91
904.43	227.01
904.73	226.97
905.03	226.97
905.34	227.42
905.64	227.32
905.95	227.34
906.25	227.43
906.56	227.38
906.86	227.42
907.17	227.29
907.47	227.38
907.77	227.40
908.08	227.31
908.38	227.22
908.69	227.27
908.99	227.35
909.30	227.38
909.60	227.39
909.90	227.37
910.21	227.31
910.51	227.17
910.81	227.15
911.12	227.24
911.42	227.29
911.73	226.78
912.03	226.90
912.33	226.96
912.64	226.96
912.94	226.90
913.24	226.86
913.55	226.90
913.85	226.84
914.15	226.90
914.46	226.99
914.76	227.06
915.06	227.02
915.37	226.96
915.67	226.95
915.97	227.03
916.27	226.90
916.58	226.95
916.88	227.00
917.18	226.90
917.49	227.25
917.79	227.16
918.09	227.30
918.39	227.35
918.70	227.34
919.00	227.30
919.30	227.53
919.60	227.52
919.91	227.40
920.21	227.45
920.51	227.36
920.81	227.30
921.12	227.40
921.42	227.42
921.72	227.44
922.02	227.41
922.32	227.40
922.63	227.46
922.93	227.63
923.23	227.68
923.53	227.66
923.83	227.30
924.13	227.41
924.44	227.35
924.74	227.39
925.04	227.48
925.34	227.45
925.64	227.21
925.94	227.23
926.24	227.53
926.55	227.46
926.85	227.50
927.15	227.50
927.45	227.45
927.75	227.44
928.05	227.46
928.35	227.53
928.65	227.64
928.95	227.71
929.26	227.55
929.56	227.62
929.86	227.69
930.16	227.63
930.46	227.56
930.76	227.57
931.06	227.34
931.36	227.24
931.66	227.34
931.96	227.38
932.26	227.40
932.56	227.19
932.86	227.15
933.16	227.17
933.46	227.08
933.76	226.96
934.06	227.01
934.36	227.24
934.66	227.09
934.96	226.95
935.26	226.90
935.56	226.94
935.86	226.81
936.16	226.74
936.46	226.66
936.76	226.68
937.06	226.60
937.36	226.70
937.66	226.66
937.96	226.59
938.26	226.54
938.56	226.50
938.86	226.56
939.16	226.74
939.46	226.76
939.76	226.78
940.06	226.76
940.35	226.69
940.65	226.35
940.95	226.44
941.25	226.39
941.55	226.33
941.85	226.35
942.15	226.33
942.45	226.46
942.75	226.49
943.04	226.51
943.34	226.69
943.64	226.63
943.94	226.53
944.24	226.54
944.54	226.56
944.84	226.50
945.13	226.46
945.43	226.43
945.73	226.46
946.03	226.46
946.33	226.44
946.62	226.42
946.92	226.44
947.22	226.41
947.52	226.38
947.82	226.44
948.11	226.38
948.41	226.43
948.71	226.26
949.01	226.31
949.31	226.23
949.60	226.09
949.90	226.13
950.20	226.21
950.50	226.16
950.79	226.13
951.09	226.28
951.39	226.28
951.69	226.17
951.98	226.16
952.28	226.25
952.58	226.32
952.87	226.29
953.17	226.40
953.47	226.42
953.76	226.47
954.06	226.38
954.36	226.34
954.66	226.30
954.95	226.45
955.25	226.47
955.55	226.52
955.84	226.50
956.14	226.58
956.44	226.55
956.73	226.58
957.03	226.68
957.32	226.60
957.62	226.50
957.92	226.62
958.21	226.65
958.51	227.14
958.81	227.18
959.10	227.28
959.40	227.33
959.69	227.33
959.99	227.35
960.29	227.36
960.58	227.27
960.88	227.45
961.17	227.37
961.47	227.40
961.76	227.37
962.06	227.40
962.36	227.35
962.65	227.37
962.95	227.36
963.24	227.27
963.54	227.29
963.83	227.39
964.13	227.32
964.42	227.17
964.72	226.82
965.01	226.79
965.31	226.67
965.60	226.59
965.90	226.92
966.19	226.91
966.49	226.89
966.78	226.90
967.08	226.88
967.37	226.85
967.67	226.72
967.96	226.73
968.26	226.77
968.55	226.78
968.85	226.77
969.14	226.72
969.43	226.67
969.73	226.62
970.02	226.59
970.32	226.57
970.61	226.60
970.91	226.41
971.20	226.35
971.49	226.43
971.79	226.45
972.08	226.04
972.38	225.94
972.67	226.00
972.96	226.14
973.26	226.00
973.55	226.23
973.85	226.25
974.14	226.22
974.43	226.28
974.73	226.24
975.02	226.16
975.31	226.17
975.61	226.17
975.90	226.16
976.19	226.12
976.49	226.17
976.78	226.12
977.07	226.10
977.37	226.24
977.66	226.24
977.95	226.19
978.24	226.32
978.54	226.50
978.83	226.39
979.12	226.32
979.42	226.30
979.71	226.17
980.00	226.18
980.29	226.32
980.59	226.12
980.88	226.26
981.17	226.27
981.46	226.34
981.76	226.41
982.05	226.53
982.34	226.56
982.63	226.55
982.93	226.59
983.22	226.76
983.51	226.71
983.80	226.79
984.09	226.85
984.39	226.81
984.68	226.67
984.97	226.74
985.26	226.73
985.55	226.82
985.85	226.71
986.14	226.78
986.43	226.77
986.72	226.85
987.01	226.64
987.30	226.70
987.59	226.66
987.89	226.68
988.18	226.48
988.47	226.45
988.76	226.40
989.05	226.40
989.34	226.30
989.63	226.34
989.92	226.23
990.22	226.17
990.51	226.12
990.80	226.19
991.09	226.30
991.38	226.31
991.67	226.25
991.96	226.21
992.25	226.20
992.54	226.08
992.83	226.07
993.12	226.20
993.41	226.22
993.70	226.42
993.99	226.50
994.28	226.70
994.58	226.82
994.87	226.74
995.16	226.72
995.45	226.70
995.74	226.58
996.03	226.65
996.32	226.71
996.61	226.89
996.90	226.85
997.19	226.77
997.48	226.73
997.77	226.69
998.06	226.75
998.34	226.74
998.63	226.74
998.92	226.79
999.21	226.79
999.50	226.86
999.79	226.72
1000.08	226.70
1000.37	226.67
1000.66	226.63
1000.95	226.82
1001.24	226.86
1001.53	227.02
1001.82	227.05
1002.11	226.91
1002.40	226.99
1002.68	227.04
1002.97	227.39
1003.26	227.35
1003.55	227.30
1003.84	227.32
1004.13	227.52
1004.42	227.44
1004.71	227.48
1004.99	227.48
1005.28	227.59
1005.57	227.45
1005.86	227.36
1006.15	227.34
1006.44	227.27
1006.72	227.28
1007.01	227.15
1007.30	227.17
1007.59	227.06
1007.88	227.00
1008.17	227.05
1008.45	226.95
1008.74	226.70
1009.03	226.43
1009.32	226.48
1009.60	226.55
1009.89	226.55
1010.18	226.30
1010.47	226.36
1010.76	226.30
1011.04	226.25
1011.33	226.26
1011.62	226.39
1011.91	226.39
1012.19	226.36
1012.48	226.40
1012.77	226.39
1013.05	226.63
1013.34	226.55
1013.63	226.42
1013.92	226.50
1014.20	226.50
1014.49	226.44
1014.78	226.56
1015.06	226.45
1015.35	226.47
1015.64	226.48
1015.92	226.54
1016.21	226.61
1016.50	226.52
1016.78	226.62
1017.07	226.64
1017.36	226.54
1017.64	226.47
1017.93	226.61
1018.22	226.56
1018.50	226.51
1018.79	226.45
1019.08	226.20
1019.36	226.31
1019.65	226.35
1019.93	226.49
1020.22	226.55
1020.51	226.85
1020.79	226.75
1021.08	225.30
1021.36	226.15
1021.65	225.60
1021.94	225.75
1022.22	227.45
1022.51	225.30
1022.79	229.80
1023.08	226.95
1023.36	232.15
1023.65	225.00
>>>>>End Processed Spectral Data<<<<<
