SpectraSuite Data File
++++++++++++++++++++++++++++++++++++
Date: Wed Sep 04 17:48:55 EDT 2013
User: lab3
Dark Spectrum Present: Yes
Reference Spectrum Present: No
Number of Sampled Component Spectra: 1
Spectrometers: USB2E7196
Integration Time (usec): 170000 (USB2E7196)
Spectra Averaged: 20 (USB2E7196)
Boxcar Smoothing: 10 (USB2E7196)
Correct for Electrical Dark: No (USB2E7196)
Strobe/Lamp Enabled: No (USB2E7196)
Correct for Detector Non-linearity: No (USB2E7196)
Correct for Stray Light: No (USB2E7196)
Number of Pixels in Processed Spectrum: 2048
>>>>>Begin Processed Spectral Data<<<<<
339.09	0.00
339.48	214.00
339.86	215.20
340.24	216.65
340.63	217.15
341.01	224.85
341.39	219.60
341.78	222.10
342.16	222.35
342.54	222.25
342.93	212.01
343.31	222.68
343.69	223.13
344.07	223.58
344.46	224.07
344.84	224.45
345.22	224.46
345.60	224.77
345.99	224.96
346.37	225.12
346.75	225.29
347.13	225.39
347.52	225.50
347.90	225.71
348.28	225.74
348.66	225.97
349.05	225.84
349.43	225.89
349.81	225.93
350.19	225.96
350.57	226.07
350.96	226.16
351.34	226.31
351.72	226.45
352.10	226.53
352.48	226.51
352.87	226.54
353.25	226.60
353.63	226.58
354.01	226.59
354.39	226.65
354.77	226.69
355.15	226.87
355.54	226.90
355.92	226.78
356.30	226.82
356.68	227.11
357.06	227.17
357.44	227.20
357.82	227.26
358.20	227.73
358.58	227.75
358.97	227.85
359.35	227.95
359.73	228.09
360.11	228.12
360.49	228.15
360.87	228.22
361.25	228.32
361.63	228.53
362.01	228.64
362.39	228.67
362.77	228.76
363.15	228.80
363.53	228.77
363.91	228.82
364.29	228.84
364.67	228.50
365.05	228.57
365.43	228.64
365.81	228.67
366.19	228.60
366.57	228.80
366.95	228.81
367.33	228.75
367.71	228.67
368.09	228.76
368.47	228.80
368.85	228.78
369.23	228.92
369.61	228.79
369.99	228.89
370.37	228.98
370.75	229.23
371.13	229.14
371.51	229.10
371.89	229.17
372.27	229.25
372.65	229.20
373.03	229.19
373.41	229.17
373.78	229.12
374.16	228.83
374.54	228.63
374.92	228.49
375.30	228.37
375.68	228.30
376.06	228.26
376.44	228.22
376.82	228.19
377.19	228.07
377.57	228.00
377.95	227.77
378.33	227.64
378.71	227.28
379.09	227.29
379.47	227.32
379.84	227.13
380.22	226.94
380.60	226.82
380.98	226.72
381.36	226.68
381.73	226.61
382.11	226.68
382.49	226.66
382.87	226.57
383.25	226.57
383.62	227.18
384.00	227.00
384.38	226.93
384.76	226.94
385.13	227.07
385.51	227.00
385.89	226.91
386.27	226.90
386.64	226.90
387.02	226.74
387.40	226.60
387.78	226.60
388.15	226.62
388.53	226.49
388.91	226.45
389.29	226.35
389.66	226.40
390.04	226.27
390.42	226.27
390.79	226.30
391.17	226.29
391.55	225.61
391.92	225.68
392.30	225.76
392.68	225.69
393.05	225.65
393.43	225.63
393.81	225.69
394.18	225.71
394.56	225.72
394.94	225.89
395.31	225.92
395.69	226.15
396.06	226.26
396.44	226.36
396.82	226.34
397.19	226.61
397.57	226.55
397.95	226.69
398.32	226.60
398.70	226.72
399.07	226.97
399.45	227.10
399.82	227.23
400.20	227.24
400.58	227.40
400.95	227.28
401.33	227.57
401.70	227.99
402.08	228.09
402.45	228.30
402.83	228.43
403.20	228.58
403.58	228.67
403.95	228.89
404.33	229.20
404.71	229.54
405.08	230.01
405.46	230.30
405.83	230.51
406.21	230.81
406.58	231.19
406.96	231.44
407.33	231.73
407.70	232.07
408.08	232.80
408.45	233.20
408.83	233.74
409.20	234.03
409.58	234.19
409.95	234.75
410.33	235.13
410.70	235.57
411.08	236.22
411.45	236.82
411.82	237.32
412.20	237.93
412.57	238.89
412.95	239.22
413.32	240.14
413.69	240.97
414.07	241.87
414.44	242.83
414.82	243.81
415.19	245.00
415.56	246.14
415.94	247.08
416.31	248.55
416.68	249.91
417.06	251.54
417.43	253.16
417.81	254.91
418.18	256.71
418.55	258.68
418.93	260.63
419.30	262.65
419.67	264.86
420.04	267.32
420.42	269.51
420.79	272.53
421.16	275.18
421.54	278.12
421.91	281.22
422.28	284.15
422.66	287.41
423.03	290.80
423.40	294.12
423.77	297.63
424.15	301.06
424.52	304.71
424.89	308.86
425.26	312.76
425.64	316.40
426.01	320.56
426.38	324.74
426.75	329.27
427.13	333.77
427.50	338.48
427.87	343.19
428.24	348.05
428.61	352.51
428.99	357.80
429.36	363.20
429.73	368.46
430.10	374.00
430.47	379.58
430.85	385.13
431.22	391.26
431.59	398.14
431.96	404.37
432.33	411.34
432.70	417.92
433.08	425.64
433.45	432.93
433.82	440.29
434.19	448.49
434.56	456.39
434.93	464.00
435.30	471.79
435.68	480.39
436.05	488.70
436.42	496.90
436.79	504.43
437.16	512.74
437.53	521.37
437.90	530.00
438.27	538.58
438.64	547.53
439.01	555.65
439.38	562.73
439.75	569.83
440.13	577.82
440.50	585.26
440.87	591.53
441.24	598.09
441.61	605.02
441.98	610.12
442.35	615.91
442.72	621.89
443.09	627.67
443.46	630.96
443.83	633.32
444.20	635.34
444.57	638.06
444.94	639.25
445.31	640.52
445.68	641.87
446.05	641.93
446.42	640.69
446.79	639.38
447.16	637.76
447.53	636.50
447.90	632.87
448.27	629.20
448.64	624.22
449.01	620.38
449.37	614.23
449.74	608.26
450.11	601.60
450.48	593.96
450.85	585.91
451.22	579.07
451.59	572.54
451.96	566.30
452.33	558.33
452.70	550.93
453.07	542.37
453.43	533.35
453.80	525.09
454.17	516.90
454.54	509.22
454.91	501.21
455.28	493.23
455.65	485.80
456.02	479.04
456.38	472.71
456.75	465.09
457.12	458.69
457.49	452.35
457.86	445.95
458.23	440.89
458.59	435.25
458.96	429.66
459.33	424.64
459.70	419.51
460.07	415.30
460.43	410.70
460.80	406.41
461.17	402.64
461.54	398.71
461.91	395.13
462.27	391.41
462.64	388.04
463.01	384.66
463.38	381.36
463.74	377.40
464.11	374.40
464.48	371.80
464.85	368.98
465.21	366.92
465.58	364.66
465.95	361.80
466.32	359.64
466.68	357.35
467.05	355.14
467.42	353.06
467.78	350.86
468.15	348.72
468.52	347.13
468.88	344.92
469.25	343.00
469.62	341.41
469.98	339.75
470.35	338.19
470.72	336.61
471.08	334.87
471.45	333.64
471.82	332.45
472.18	331.06
472.55	330.08
472.92	328.75
473.28	327.55
473.65	326.39
474.02	325.24
474.38	324.40
474.75	323.63
475.11	322.70
475.48	322.13
475.85	321.51
476.21	320.86
476.58	320.29
476.94	319.84
477.31	319.45
477.67	318.98
478.04	318.63
478.41	318.48
478.77	318.84
479.14	318.52
479.50	318.45
479.87	318.42
480.23	318.40
480.60	318.37
480.96	318.42
481.33	318.91
481.69	319.20
482.06	319.38
482.42	319.58
482.79	319.90
483.15	320.30
483.52	320.87
483.88	321.34
484.25	322.07
484.61	322.75
484.98	323.41
485.34	324.47
485.71	325.43
486.07	326.37
486.44	326.93
486.80	328.05
487.17	329.10
487.53	330.47
487.90	331.89
488.26	333.67
488.62	335.33
488.99	336.78
489.35	338.51
489.72	340.47
490.08	342.47
490.44	344.51
490.81	346.66
491.17	348.86
491.54	351.37
491.90	353.90
492.26	356.51
492.63	359.24
492.99	361.98
493.36	365.07
493.72	368.34
494.08	371.77
494.45	375.46
494.81	379.39
495.17	383.15
495.54	387.22
495.90	391.33
496.26	395.85
496.63	400.55
496.99	405.34
497.35	410.24
497.72	415.51
498.08	420.99
498.44	426.81
498.80	432.94
499.17	439.07
499.53	445.25
499.89	451.85
500.26	458.57
500.62	465.58
500.98	473.05
501.34	480.46
501.71	488.16
502.07	495.89
502.43	503.89
502.79	512.42
503.16	521.15
503.52	530.17
503.88	539.39
504.24	548.91
504.60	559.01
504.97	569.43
505.33	579.84
505.69	590.95
506.05	601.80
506.41	612.88
506.78	624.31
507.14	636.38
507.50	648.72
507.86	661.37
508.22	674.35
508.59	687.23
508.95	700.86
509.31	714.95
509.67	729.31
510.03	743.50
510.39	758.02
510.75	772.92
511.12	788.04
511.48	803.58
511.84	819.21
512.20	834.87
512.56	851.01
512.92	867.78
513.28	884.33
513.64	901.47
514.00	918.83
514.37	936.33
514.73	954.49
515.09	972.64
515.45	990.60
515.81	1008.76
516.17	1027.23
516.53	1045.81
516.89	1064.40
517.25	1083.37
517.61	1103.30
517.97	1123.37
518.33	1143.25
518.69	1163.34
519.05	1183.68
519.41	1204.13
519.77	1225.36
520.13	1245.91
520.49	1266.34
520.85	1288.41
521.21	1309.44
521.57	1330.51
521.93	1351.28
522.29	1372.27
522.65	1392.74
523.01	1413.82
523.37	1434.50
523.73	1455.32
524.09	1475.67
524.45	1496.11
524.81	1516.75
525.17	1537.25
525.53	1557.65
525.89	1578.45
526.25	1598.81
526.61	1618.68
526.97	1639.70
527.33	1660.24
527.68	1681.66
528.04	1702.52
528.40	1721.84
528.76	1742.64
529.12	1763.07
529.48	1783.70
529.84	1803.22
530.20	1824.00
530.56	1844.40
530.91	1864.98
531.27	1885.33
531.63	1905.65
531.99	1926.04
532.35	1946.07
532.71	1966.12
533.07	1986.60
533.42	2005.88
533.78	2025.80
534.14	2045.56
534.50	2064.02
534.86	2082.92
535.21	2100.51
535.57	2118.66
535.93	2136.46
536.29	2153.82
536.65	2171.49
537.00	2188.90
537.36	2206.47
537.72	2222.71
538.08	2239.40
538.44	2255.55
538.79	2271.47
539.15	2287.73
539.51	2303.39
539.87	2318.29
540.22	2331.89
540.58	2345.81
540.94	2358.94
541.29	2371.37
541.65	2384.15
542.01	2396.58
542.37	2406.80
542.72	2417.25
543.08	2427.48
543.44	2438.70
543.79	2448.13
544.15	2457.83
544.51	2467.71
544.87	2476.81
545.22	2485.18
545.58	2492.85
545.94	2499.89
546.29	2506.27
546.65	2512.27
547.01	2517.80
547.36	2522.78
547.72	2528.09
548.07	2531.75
548.43	2537.25
548.79	2541.45
549.14	2544.97
549.50	2548.51
549.86	2552.29
550.21	2556.03
550.57	2559.43
550.92	2560.42
551.28	2561.81
551.64	2563.90
551.99	2565.28
552.35	2566.85
552.70	2568.88
553.06	2570.28
553.41	2571.40
553.77	2572.93
554.13	2574.36
554.48	2575.35
554.84	2576.83
555.19	2578.14
555.55	2579.79
555.90	2578.50
556.26	2577.55
556.61	2575.66
556.97	2573.29
557.32	2572.65
557.68	2571.42
558.03	2569.80
558.39	2568.49
558.74	2567.61
559.10	2563.91
559.45	2560.16
559.81	2555.40
560.16	2549.58
560.52	2544.73
560.87	2540.17
561.23	2534.84
561.58	2528.90
561.94	2522.13
562.29	2514.93
562.64	2507.71
563.00	2499.35
563.35	2492.74
563.71	2486.06
564.06	2480.22
564.42	2473.99
564.77	2467.16
565.12	2459.57
565.48	2452.01
565.83	2444.12
566.19	2436.04
566.54	2428.58
566.89	2420.76
567.25	2413.02
567.60	2406.64
567.96	2399.11
568.31	2391.15
568.66	2382.43
569.02	2373.56
569.37	2365.33
569.72	2357.64
570.08	2348.23
570.43	2338.99
570.78	2330.06
571.14	2320.61
571.49	2309.90
571.84	2300.03
572.20	2289.04
572.55	2278.65
572.90	2267.47
573.26	2257.10
573.61	2246.32
573.96	2234.83
574.31	2222.53
574.67	2210.90
575.02	2198.00
575.37	2185.42
575.72	2172.47
576.08	2160.65
576.43	2148.04
576.78	2135.32
577.13	2121.85
577.49	2109.44
577.84	2097.39
578.19	2085.23
578.54	2073.09
578.90	2061.55
579.25	2049.46
579.60	2037.10
579.95	2024.60
580.30	2011.94
580.66	1998.62
581.01	1985.00
581.36	1971.65
581.71	1959.46
582.06	1946.73
582.42	1934.17
582.77	1921.51
583.12	1909.52
583.47	1897.35
583.82	1885.52
584.17	1873.33
584.53	1861.53
584.88	1848.84
585.23	1835.86
585.58	1822.05
585.93	1808.59
586.28	1795.40
586.63	1781.74
586.98	1767.71
587.34	1754.44
587.69	1741.37
588.04	1728.89
588.39	1717.10
588.74	1705.04
589.09	1693.13
589.44	1680.61
589.79	1668.65
590.14	1656.88
590.49	1644.89
590.84	1632.87
591.19	1621.04
591.54	1608.90
591.89	1596.99
592.25	1586.87
592.60	1575.48
592.95	1564.18
593.30	1552.70
593.65	1540.91
594.00	1529.15
594.35	1519.69
594.70	1508.03
595.05	1496.94
595.40	1485.20
595.75	1473.39
596.10	1462.28
596.45	1450.82
596.80	1440.22
597.15	1429.09
597.50	1417.56
597.85	1406.49
598.19	1395.02
598.54	1383.56
598.89	1372.60
599.24	1361.88
599.59	1350.51
599.94	1340.18
600.29	1330.10
600.64	1319.85
600.99	1309.27
601.34	1299.79
601.69	1288.92
602.04	1279.27
602.39	1269.56
602.74	1260.72
603.08	1251.45
603.43	1242.10
603.78	1232.77
604.13	1223.20
604.48	1214.04
604.83	1204.48
605.18	1195.00
605.53	1185.68
605.87	1176.64
606.22	1168.35
606.57	1159.34
606.92	1150.10
607.27	1141.30
607.62	1132.50
607.96	1124.35
608.31	1116.74
608.66	1108.47
609.01	1099.92
609.36	1091.67
609.70	1083.48
610.05	1074.88
610.40	1066.63
610.75	1058.24
611.10	1049.93
611.44	1041.36
611.79	1033.09
612.14	1025.58
612.49	1017.61
612.83	1010.15
613.18	1002.55
613.53	994.81
613.88	987.00
614.22	979.40
614.57	971.35
614.92	963.67
615.27	956.20
615.61	948.46
615.96	940.90
616.31	933.49
616.65	926.55
617.00	919.31
617.35	912.13
617.70	905.14
618.04	898.20
618.39	891.44
618.74	885.45
619.08	878.89
619.43	871.81
619.78	864.85
620.12	858.06
620.47	851.20
620.82	844.15
621.16	837.52
621.51	831.21
621.85	825.16
622.20	818.73
622.55	812.15
622.89	805.88
623.24	799.66
623.59	793.37
623.93	787.04
624.28	780.89
624.62	775.41
624.97	769.73
625.32	764.17
625.66	758.43
626.01	752.34
626.35	746.71
626.70	741.21
627.04	736.19
627.39	730.74
627.73	725.62
628.08	720.59
628.43	715.31
628.77	709.89
629.12	704.81
629.46	700.00
629.81	695.37
630.15	690.70
630.50	685.97
630.84	681.34
631.19	676.68
631.53	672.20
631.88	666.96
632.22	662.12
632.57	657.63
632.91	653.01
633.26	648.72
633.60	644.16
633.95	639.77
634.29	635.19
634.64	630.77
634.98	626.07
635.32	621.84
635.67	617.93
636.01	614.04
636.36	609.69
636.70	605.66
637.05	601.48
637.39	597.42
637.73	593.40
638.08	589.44
638.42	585.30
638.77	581.12
639.11	576.96
639.45	572.74
639.80	568.41
640.14	564.35
640.49	560.35
640.83	556.70
641.17	553.07
641.52	549.50
641.86	546.05
642.20	543.01
642.55	539.55
642.89	535.90
643.23	532.35
643.58	529.40
643.92	525.77
644.26	522.28
644.61	519.08
644.95	515.87
645.29	512.57
645.64	509.66
645.98	506.61
646.32	503.79
646.66	500.80
647.01	497.89
647.35	495.19
647.69	492.31
648.04	489.53
648.38	486.74
648.72	483.87
649.06	480.80
649.41	477.85
649.75	474.84
650.09	472.11
650.43	469.17
650.78	466.05
651.12	463.31
651.46	460.70
651.80	458.00
652.14	455.25
652.49	452.79
652.83	450.07
653.17	447.45
653.51	444.70
653.85	442.32
654.20	439.93
654.54	437.30
654.88	434.80
655.22	432.43
655.56	430.10
655.90	427.80
656.25	425.68
656.59	423.47
656.93	421.35
657.27	419.18
657.61	416.91
657.95	414.86
658.29	412.84
658.64	410.79
658.98	408.57
659.32	406.33
659.66	404.14
660.00	402.14
660.34	400.10
660.68	398.31
661.02	396.30
661.36	394.44
661.70	392.59
662.05	390.59
662.39	388.81
662.73	386.99
663.07	385.39
663.41	383.57
663.75	381.60
664.09	379.73
664.43	377.87
664.77	376.25
665.11	374.47
665.45	372.80
665.79	371.17
666.13	369.52
666.47	367.93
666.81	366.34
667.15	364.63
667.49	363.25
667.83	361.86
668.17	360.39
668.51	359.01
668.85	357.67
669.19	356.66
669.53	355.00
669.87	353.51
670.21	351.92
670.55	350.44
670.89	349.35
671.23	348.03
671.57	346.76
671.91	345.42
672.25	344.13
672.58	342.90
672.92	341.52
673.26	340.24
673.60	339.13
673.94	338.01
674.28	336.93
674.62	335.76
674.96	334.40
675.30	333.17
675.64	331.80
675.97	330.56
676.31	329.11
676.65	327.99
676.99	327.00
677.33	325.85
677.67	324.83
678.01	323.44
678.34	322.40
678.68	321.29
679.02	320.35
679.36	319.36
679.70	318.35
680.04	317.34
680.37	316.45
680.71	315.45
681.05	314.54
681.39	313.61
681.73	312.67
682.06	311.83
682.40	311.00
682.74	310.29
683.08	309.62
683.42	308.74
683.75	308.00
684.09	307.07
684.43	306.29
684.77	305.43
685.10	304.75
685.44	303.92
685.78	303.14
686.12	302.26
686.45	301.42
686.79	300.51
687.13	299.88
687.46	299.08
687.80	298.41
688.14	297.49
688.48	296.70
688.81	295.91
689.15	295.31
689.49	294.62
689.82	293.88
690.16	292.94
690.50	292.23
690.83	291.56
691.17	290.78
691.51	290.08
691.84	289.45
692.18	288.64
692.52	288.02
692.85	287.46
693.19	287.05
693.52	286.50
693.86	285.88
694.20	285.17
694.53	284.65
694.87	284.01
695.21	283.46
695.54	282.90
695.88	282.30
696.21	281.53
696.55	280.95
696.88	280.34
697.22	279.81
697.56	279.35
697.89	278.65
698.23	278.14
698.56	277.54
698.90	277.04
699.23	276.55
699.57	276.04
699.90	275.42
700.24	274.80
700.58	274.33
700.91	274.03
701.25	273.93
701.58	273.75
701.92	273.38
702.25	272.98
702.59	272.55
702.92	272.10
703.26	271.74
703.59	271.33
703.93	271.28
704.26	270.92
704.60	270.45
704.93	270.06
705.26	269.60
705.60	269.27
705.93	268.80
706.27	268.59
706.60	268.38
706.94	268.28
707.27	267.80
707.61	267.44
707.94	267.07
708.27	266.31
708.61	265.60
708.94	265.15
709.28	264.65
709.61	264.16
709.94	263.79
710.28	263.40
710.61	262.95
710.95	262.21
711.28	262.12
711.61	261.81
711.95	261.60
712.28	261.31
712.61	261.00
712.95	260.90
713.28	260.72
713.61	260.27
713.95	259.72
714.28	259.39
714.61	259.00
714.95	258.65
715.28	258.25
715.61	257.89
715.95	257.59
716.28	257.28
716.61	257.11
716.95	256.81
717.28	256.49
717.61	256.22
717.94	255.94
718.28	255.28
718.61	255.00
718.94	254.66
719.27	254.38
719.61	254.15
719.94	253.82
720.27	253.33
720.60	253.02
720.94	252.84
721.27	252.77
721.60	252.64
721.93	252.35
722.27	252.34
722.60	252.25
722.93	252.01
723.26	251.88
723.59	251.62
723.93	251.49
724.26	251.37
724.59	251.14
724.92	250.93
725.25	250.88
725.59	250.62
725.92	250.44
726.25	250.24
726.58	249.95
726.91	249.72
727.24	249.62
727.57	249.40
727.91	249.11
728.24	248.92
728.57	248.63
728.90	248.53
729.23	248.18
729.56	248.20
729.89	248.08
730.22	247.84
730.55	247.64
730.89	247.45
731.22	247.14
731.55	247.00
731.88	246.86
732.21	246.59
732.54	246.43
732.87	246.26
733.20	246.13
733.53	246.08
733.86	245.92
734.19	245.64
734.52	245.60
734.85	245.83
735.18	245.51
735.51	245.59
735.84	245.38
736.17	245.33
736.50	244.95
736.83	245.32
737.16	245.18
737.49	245.04
737.82	244.88
738.15	244.85
738.48	244.70
738.81	244.50
739.14	244.31
739.47	244.10
739.80	243.92
740.13	243.87
740.46	243.62
740.79	243.33
741.12	243.26
741.45	242.92
741.78	242.47
742.11	242.51
742.44	242.18
742.77	242.16
743.10	241.91
743.43	241.70
743.75	240.98
744.08	241.48
744.41	241.30
744.74	241.05
745.07	240.84
745.40	240.77
745.73	240.86
746.06	240.72
746.39	240.60
746.71	240.43
747.04	240.16
747.37	240.05
747.70	240.10
748.03	239.95
748.36	240.03
748.68	239.89
749.01	239.62
749.34	239.51
749.67	239.26
750.00	239.28
750.33	239.49
750.65	239.42
750.98	238.63
751.31	238.53
751.64	238.46
751.97	238.59
752.29	238.44
752.62	238.07
752.95	237.94
753.28	237.79
753.60	237.62
753.93	237.67
754.26	237.52
754.59	237.28
754.91	237.09
755.24	236.92
755.57	236.83
755.90	236.72
756.22	236.51
756.55	236.40
756.88	236.16
757.20	235.72
757.53	235.47
757.86	235.42
758.19	235.34
758.51	235.31
758.84	234.97
759.17	234.79
759.49	234.77
759.82	234.94
760.15	234.97
760.47	234.91
760.80	234.68
761.13	234.72
761.45	234.62
761.78	234.59
762.11	234.50
762.43	234.42
762.76	234.39
763.08	234.41
763.41	234.39
763.74	234.35
764.06	234.27
764.39	234.24
764.71	234.15
765.04	234.03
765.37	233.83
765.69	233.82
766.02	233.78
766.34	233.66
766.67	233.42
767.00	233.40
767.32	233.61
767.65	233.78
767.97	233.64
768.30	233.67
768.62	233.62
768.95	233.49
769.27	233.37
769.60	233.39
769.92	233.29
770.25	233.08
770.57	232.93
770.90	232.94
771.22	232.86
771.55	232.79
771.87	232.74
772.20	232.69
772.52	232.95
772.85	233.50
773.17	233.48
773.50	233.38
773.82	233.25
774.15	232.88
774.47	232.50
774.80	232.41
775.12	232.26
775.45	232.14
775.77	232.11
776.09	232.15
776.42	232.03
776.74	232.09
777.07	232.06
777.39	232.05
777.72	232.00
778.04	232.08
778.36	232.01
778.69	231.97
779.01	231.97
779.33	231.58
779.66	230.93
779.98	230.85
780.31	230.81
780.63	230.94
780.95	231.10
781.28	231.10
781.60	230.95
781.92	230.95
782.25	230.95
782.57	230.93
782.89	230.80
783.22	230.71
783.54	230.63
783.86	230.59
784.19	230.50
784.51	230.55
784.83	230.38
785.16	230.31
785.48	230.33
785.80	230.34
786.12	230.31
786.45	230.32
786.77	230.36
787.09	230.32
787.42	230.12
787.74	230.10
788.06	230.12
788.38	230.19
788.71	230.10
789.03	230.03
789.35	230.08
789.67	229.95
789.99	229.96
790.32	229.85
790.64	230.00
790.96	230.41
791.28	230.25
791.61	230.23
791.93	230.24
792.25	230.20
792.57	230.47
792.89	230.30
793.21	230.35
793.54	230.25
793.86	230.16
794.18	230.15
794.50	229.95
794.82	229.95
795.14	229.95
795.47	230.00
795.79	230.05
796.11	229.86
796.43	229.90
796.75	229.89
797.07	229.90
797.39	229.86
797.71	229.46
798.04	229.47
798.36	229.50
798.68	229.44
799.00	229.42
799.32	229.18
799.64	229.28
799.96	229.20
800.28	229.23
800.60	229.22
800.92	229.24
801.24	229.27
801.56	229.27
801.89	229.23
802.21	229.23
802.53	229.09
802.85	229.19
803.17	229.43
803.49	229.29
803.81	229.21
804.13	229.08
804.45	229.02
804.77	229.01
805.09	228.93
805.41	228.93
805.73	228.80
806.05	228.64
806.37	228.65
806.69	228.58
807.01	228.56
807.33	228.60
807.65	228.39
807.97	228.63
808.28	228.52
808.60	228.49
808.92	228.43
809.24	228.74
809.56	228.68
809.88	228.44
810.20	228.51
810.52	228.65
810.84	228.60
811.16	228.54
811.48	228.52
811.80	228.69
812.12	228.67
812.43	228.80
812.75	228.87
813.07	228.85
813.39	228.88
813.71	228.78
814.03	228.75
814.35	228.85
814.67	228.59
814.98	228.57
815.30	228.51
815.62	228.39
815.94	228.09
816.26	228.27
816.58	228.13
816.89	228.10
817.21	227.94
817.53	227.94
817.85	228.01
818.17	227.91
818.48	227.75
818.80	227.85
819.12	227.74
819.44	227.65
819.76	227.53
820.07	227.49
820.39	227.53
820.71	227.53
821.03	227.45
821.34	227.40
821.66	227.51
821.98	227.60
822.30	227.68
822.61	227.93
822.93	227.73
823.25	227.73
823.57	227.67
823.88	227.72
824.20	227.72
824.52	227.69
824.83	227.74
825.15	227.70
825.47	227.61
825.79	227.58
826.10	227.56
826.42	227.52
826.74	227.52
827.05	227.43
827.37	227.46
827.69	227.45
828.00	227.45
828.32	227.36
828.64	227.28
828.95	227.47
829.27	227.33
829.58	227.26
829.90	227.31
830.22	227.36
830.53	227.35
830.85	227.28
831.17	227.25
831.48	227.26
831.80	227.26
832.11	227.17
832.43	227.15
832.75	227.10
833.06	227.46
833.38	227.37
833.69	227.37
834.01	227.31
834.32	227.27
834.64	227.21
834.96	227.17
835.27	227.20
835.59	227.04
835.90	227.00
836.22	227.00
836.53	226.95
836.85	226.90
837.16	227.31
837.48	227.29
837.79	227.38
838.11	227.40
838.42	227.33
838.74	227.48
839.05	227.42
839.37	227.49
839.68	227.15
840.00	227.15
840.31	227.24
840.63	227.23
840.94	227.22
841.26	227.17
841.57	227.22
841.88	227.18
842.20	227.13
842.51	226.95
842.83	226.91
843.14	227.30
843.46	227.25
843.77	226.95
844.08	226.95
844.40	226.76
844.71	226.60
845.03	226.60
845.34	226.52
845.65	226.62
845.97	226.55
846.28	226.49
846.60	226.51
846.91	226.45
847.22	226.43
847.54	226.55
847.85	226.56
848.16	226.47
848.48	226.45
848.79	226.64
849.10	226.81
849.42	226.92
849.73	226.59
850.04	226.59
850.36	226.50
850.67	226.57
850.98	226.68
851.30	226.78
851.61	226.76
851.92	226.79
852.23	226.91
852.55	226.96
852.86	227.07
853.17	227.10
853.49	227.20
853.80	227.31
854.11	227.43
854.42	227.50
854.74	227.50
855.05	227.55
855.36	227.26
855.67	227.25
855.99	227.27
856.30	227.79
856.61	227.88
856.92	227.83
857.23	227.82
857.55	227.74
857.86	227.74
858.17	227.79
858.48	227.73
858.79	227.60
859.11	227.63
859.42	227.58
859.73	227.49
860.04	227.52
860.35	227.32
860.66	227.12
860.98	227.16
861.29	227.30
861.60	227.26
861.91	227.47
862.22	227.39
862.53	227.29
862.84	226.69
863.16	226.79
863.47	226.73
863.78	226.66
864.09	226.68
864.40	226.72
864.71	226.79
865.02	226.83
865.33	226.81
865.64	226.75
865.95	226.77
866.27	227.14
866.58	227.05
866.89	227.16
867.20	227.18
867.51	227.11
867.82	226.99
868.13	227.07
868.44	226.91
868.75	227.05
869.06	227.07
869.37	227.13
869.68	226.93
869.99	226.99
870.30	227.09
870.61	227.23
870.92	227.18
871.23	227.12
871.54	227.19
871.85	227.24
872.16	227.20
872.47	227.13
872.78	226.86
873.09	226.89
873.40	226.83
873.71	226.78
874.02	226.77
874.33	226.72
874.64	226.70
874.95	226.80
875.26	226.59
875.56	226.55
875.87	226.53
876.18	226.51
876.49	226.98
876.80	226.90
877.11	226.72
877.42	226.71
877.73	226.71
878.04	226.61
878.35	226.66
878.66	226.69
878.96	226.68
879.27	226.55
879.58	226.48
879.89	226.45
880.20	226.58
880.51	226.57
880.82	226.60
881.12	226.58
881.43	226.41
881.74	226.45
882.05	226.44
882.36	226.53
882.67	226.65
882.97	226.11
883.28	226.06
883.59	226.08
883.90	226.10
884.21	226.10
884.51	226.07
884.82	226.01
885.13	226.00
885.44	225.99
885.74	226.06
886.05	226.02
886.36	226.09
886.67	225.95
886.98	226.16
887.28	226.26
887.59	226.25
887.90	226.33
888.20	226.32
888.51	226.41
888.82	226.26
889.13	226.21
889.43	226.59
889.74	226.60
890.05	226.59
890.35	226.54
890.66	226.52
890.97	226.53
891.28	226.44
891.58	226.47
891.89	226.50
892.20	226.43
892.50	226.45
892.81	226.43
893.12	226.46
893.42	226.27
893.73	226.17
894.04	226.14
894.34	226.17
894.65	226.14
894.95	226.08
895.26	226.18
895.57	226.34
895.87	225.94
896.18	225.97
896.48	226.00
896.79	225.98
897.10	226.10
897.40	226.11
897.71	226.14
898.01	226.04
898.32	226.09
898.63	226.09
898.93	226.11
899.24	226.11
899.54	226.06
899.85	226.01
900.15	226.07
900.46	226.08
900.76	226.10
901.07	226.12
901.38	226.09
901.68	226.16
901.99	225.98
902.29	226.01
902.60	226.01
902.90	226.02
903.21	226.11
903.51	225.95
903.82	226.03
904.12	226.06
904.43	226.20
904.73	226.15
905.03	226.18
905.34	226.63
905.64	226.55
905.95	226.61
906.25	226.63
906.56	226.52
906.86	226.60
907.17	226.55
907.47	226.62
907.77	226.64
908.08	226.49
908.38	226.58
908.69	226.62
908.99	226.81
909.30	226.77
909.60	226.68
909.90	226.80
910.21	226.74
910.51	226.66
910.81	226.56
911.12	226.65
911.42	226.63
911.73	226.12
912.03	226.22
912.33	226.26
912.64	226.23
912.94	226.24
913.24	226.15
913.55	226.13
913.85	226.01
914.15	226.04
914.46	226.13
914.76	226.07
915.06	226.05
915.37	225.87
915.67	225.89
915.97	225.90
916.27	225.77
916.58	225.71
916.88	225.75
917.18	225.75
917.49	225.97
917.79	225.97
918.09	226.03
918.39	226.15
918.70	226.07
919.00	226.13
919.30	226.40
919.60	226.27
919.91	226.20
920.21	226.28
920.51	226.15
920.81	226.15
921.12	226.20
921.42	226.10
921.72	226.16
922.02	226.17
922.32	226.22
922.63	226.27
922.93	226.50
923.23	226.55
923.53	226.56
923.83	226.30
924.13	226.37
924.44	226.35
924.74	226.38
925.04	226.52
925.34	226.52
925.64	226.24
925.94	226.26
926.24	226.52
926.55	226.51
926.85	226.61
927.15	226.54
927.45	226.52
927.75	226.60
928.05	226.59
928.35	226.55
928.65	226.70
928.95	226.69
929.26	226.60
929.56	226.59
929.86	226.54
930.16	226.50
930.46	226.43
930.76	226.51
931.06	226.29
931.36	226.18
931.66	226.24
931.96	226.33
932.26	226.41
932.56	226.25
932.86	226.15
933.16	226.20
933.46	226.17
933.76	226.11
934.06	226.22
934.36	226.43
934.66	226.41
934.96	226.35
935.26	226.39
935.56	226.39
935.86	226.32
936.16	226.34
936.46	226.25
936.76	226.26
937.06	226.20
937.36	226.19
937.66	226.23
937.96	226.13
938.26	225.99
938.56	225.86
938.86	225.90
939.16	226.06
939.46	226.03
939.76	226.07
940.06	226.06
940.35	225.88
940.65	225.52
940.95	225.56
941.25	225.45
941.55	225.38
941.85	225.31
942.15	225.45
942.45	225.62
942.75	225.60
943.04	225.67
943.34	225.73
943.64	225.74
943.94	225.58
944.24	225.62
944.54	225.76
944.84	225.81
945.13	225.69
945.43	225.62
945.73	225.62
946.03	225.59
946.33	225.54
946.62	225.51
946.92	225.59
947.22	225.63
947.52	225.61
947.82	225.71
948.11	225.67
948.41	225.54
948.71	225.36
949.01	225.49
949.31	225.39
949.60	225.30
949.90	225.36
950.20	225.33
950.50	225.35
950.79	225.25
951.09	225.35
951.39	225.41
951.69	225.35
951.98	225.42
952.28	225.46
952.58	225.49
952.87	225.55
953.17	225.55
953.47	225.47
953.76	225.46
954.06	225.30
954.36	225.28
954.66	225.29
954.95	225.42
955.25	225.40
955.55	225.43
955.84	225.44
956.14	225.48
956.44	225.58
956.73	225.39
957.03	225.47
957.32	225.43
957.62	225.38
957.92	225.48
958.21	225.47
958.51	226.03
958.81	226.01
959.10	226.09
959.40	226.25
959.69	226.33
959.99	226.40
960.29	226.45
960.58	226.39
960.88	226.60
961.17	226.51
961.47	226.63
961.76	226.63
962.06	226.75
962.36	226.64
962.65	226.67
962.95	226.74
963.24	226.67
963.54	226.69
963.83	226.71
964.13	226.65
964.42	226.48
964.72	226.08
965.01	226.17
965.31	226.09
965.60	225.92
965.90	226.22
966.19	226.06
966.49	226.15
966.78	226.16
967.08	226.13
967.37	226.18
967.67	226.05
967.96	226.12
968.26	226.05
968.55	226.15
968.85	226.17
969.14	226.23
969.43	226.23
969.73	226.24
970.02	226.29
970.32	226.29
970.61	226.35
970.91	226.22
971.20	226.11
971.49	226.09
971.79	226.15
972.08	225.85
972.38	225.95
972.67	225.90
972.96	226.00
973.26	225.84
973.55	225.93
973.85	225.90
974.14	225.89
974.43	225.89
974.73	225.76
975.02	225.69
975.31	225.67
975.61	225.68
975.90	225.62
976.19	225.52
976.49	225.58
976.78	225.62
977.07	225.56
977.37	225.56
977.66	225.63
977.95	225.48
978.24	225.47
978.54	225.52
978.83	225.45
979.12	225.38
979.42	225.39
979.71	225.32
980.00	225.31
980.29	225.34
980.59	225.29
980.88	225.43
981.17	225.44
981.46	225.49
981.76	225.50
982.05	225.68
982.34	225.75
982.63	225.76
982.93	225.73
983.22	225.95
983.51	225.98
983.80	226.01
984.09	226.21
984.39	226.21
984.68	226.21
984.97	226.28
985.26	226.25
985.55	226.32
985.85	226.22
986.14	226.34
986.43	226.35
986.72	226.32
987.01	226.20
987.30	226.16
987.59	226.14
987.89	226.15
988.18	226.00
988.47	226.02
988.76	225.94
989.05	225.88
989.34	225.68
989.63	225.82
989.92	225.83
990.22	225.74
990.51	225.68
990.80	225.61
991.09	225.70
991.38	225.78
991.67	225.73
991.96	225.66
992.25	225.63
992.54	225.55
992.83	225.51
993.12	225.51
993.41	225.57
993.70	225.79
993.99	225.90
994.28	225.94
994.58	226.03
994.87	226.05
995.16	226.08
995.45	226.09
995.74	225.93
996.03	225.98
996.32	226.09
996.61	226.23
996.90	226.21
997.19	226.15
997.48	226.19
997.77	226.09
998.06	226.15
998.34	226.07
998.63	226.04
998.92	226.12
999.21	226.16
999.50	226.20
999.79	225.97
1000.08	225.91
1000.37	225.96
1000.66	225.87
1000.95	225.94
1001.24	225.95
1001.53	226.10
1001.82	226.07
1002.11	225.97
1002.40	225.97
1002.68	226.13
1002.97	226.45
1003.26	226.38
1003.55	226.21
1003.84	226.31
1004.13	226.42
1004.42	226.48
1004.71	226.53
1004.99	226.50
1005.28	226.64
1005.57	226.57
1005.86	226.54
1006.15	226.50
1006.44	226.35
1006.72	226.40
1007.01	226.34
1007.30	226.27
1007.59	226.19
1007.88	226.19
1008.17	226.20
1008.45	226.10
1008.74	225.83
1009.03	225.65
1009.32	225.69
1009.60	225.72
1009.89	225.67
1010.18	225.53
1010.47	225.44
1010.76	225.37
1011.04	225.31
1011.33	225.27
1011.62	225.33
1011.91	225.37
1012.19	225.39
1012.48	225.40
1012.77	225.37
1013.05	225.55
1013.34	225.69
1013.63	225.61
1013.92	225.69
1014.20	225.66
1014.49	225.68
1014.78	225.79
1015.06	225.58
1015.35	225.55
1015.64	225.74
1015.92	225.86
1016.21	225.84
1016.50	225.91
1016.78	225.97
1017.07	226.02
1017.36	225.90
1017.64	225.85
1017.93	225.90
1018.22	225.87
1018.50	225.85
1018.79	225.69
1019.08	225.47
1019.36	225.47
1019.65	225.43
1019.93	225.45
1020.22	225.51
1020.51	225.74
1020.79	225.61
1021.08	225.15
1021.36	224.10
1021.65	222.95
1021.94	225.10
1022.22	226.75
1022.51	224.35
1022.79	226.40
1023.08	226.60
1023.36	231.00
1023.65	224.15
>>>>>End Processed Spectral Data<<<<<
