SpectraSuite Data File
++++++++++++++++++++++++++++++++++++
Date: Wed Sep 04 17:43:21 EDT 2013
User: lab3
Dark Spectrum Present: Yes
Reference Spectrum Present: No
Number of Sampled Component Spectra: 1
Spectrometers: USB2E7196
Integration Time (usec): 170000 (USB2E7196)
Spectra Averaged: 20 (USB2E7196)
Boxcar Smoothing: 10 (USB2E7196)
Correct for Electrical Dark: No (USB2E7196)
Strobe/Lamp Enabled: No (USB2E7196)
Correct for Detector Non-linearity: No (USB2E7196)
Correct for Stray Light: No (USB2E7196)
Number of Pixels in Processed Spectrum: 2048
>>>>>Begin Processed Spectral Data<<<<<
339.09	0.00
339.48	212.00
339.86	214.85
340.24	215.65
340.63	216.20
341.01	225.95
341.39	219.60
341.78	221.80
342.16	224.85
342.54	223.70
342.93	212.18
343.31	222.86
343.69	223.38
344.07	223.81
344.46	224.32
344.84	224.79
345.22	224.70
345.60	225.03
345.99	225.27
346.37	225.36
346.75	225.39
347.13	225.51
347.52	225.50
347.90	225.75
348.28	225.76
348.66	225.84
349.05	225.76
349.43	225.80
349.81	225.84
350.19	225.89
350.57	225.92
350.96	226.05
351.34	226.23
351.72	226.32
352.10	226.38
352.48	226.41
352.87	226.41
353.25	226.50
353.63	226.47
354.01	226.52
354.39	226.54
354.77	226.63
355.15	226.80
355.54	226.80
355.92	226.70
356.30	226.83
356.68	227.24
357.06	227.31
357.44	227.31
357.82	227.41
358.20	227.90
358.58	227.91
358.97	227.95
359.35	228.06
359.73	228.23
360.11	228.26
360.49	228.30
360.87	228.38
361.25	228.52
361.63	228.69
362.01	228.76
362.39	228.76
362.77	228.88
363.15	229.00
363.53	229.03
363.91	229.04
364.29	228.94
364.67	228.49
365.05	228.51
365.43	228.61
365.81	228.68
366.19	228.44
366.57	228.64
366.95	228.74
367.33	228.56
367.71	228.60
368.09	228.82
368.47	228.83
368.85	228.80
369.23	228.83
369.61	228.68
369.99	228.75
370.37	228.79
370.75	228.98
371.13	228.78
371.51	228.69
371.89	228.71
372.27	228.85
372.65	228.90
373.03	228.87
373.41	228.75
373.78	228.58
374.16	228.40
374.54	228.16
374.92	227.97
375.30	227.99
375.68	227.87
376.06	227.79
376.44	227.67
376.82	227.62
377.19	227.62
377.57	227.57
377.95	227.39
378.33	227.30
378.71	226.97
379.09	227.00
379.47	227.08
379.84	226.96
380.22	226.78
380.60	226.66
380.98	226.61
381.36	226.62
381.73	226.57
382.11	226.66
382.49	226.75
382.87	226.69
383.25	226.69
383.62	227.12
384.00	226.98
384.38	226.95
384.76	227.12
385.13	227.22
385.51	227.19
385.89	227.09
386.27	227.10
386.64	227.11
387.02	227.00
387.40	226.89
387.78	226.85
388.15	226.82
388.53	226.74
388.91	226.68
389.29	226.62
389.66	226.64
390.04	226.54
390.42	226.57
390.79	226.59
391.17	226.51
391.55	226.03
391.92	226.04
392.30	226.10
392.68	225.90
393.05	225.79
393.43	225.85
393.81	225.89
394.18	225.82
394.56	225.89
394.94	226.00
395.31	226.06
395.69	226.32
396.06	226.45
396.44	226.56
396.82	226.53
397.19	226.83
397.57	226.87
397.95	226.93
398.32	226.91
398.70	227.03
399.07	227.16
399.45	227.23
399.82	227.28
400.20	227.26
400.58	227.43
400.95	227.37
401.33	227.56
401.70	228.02
402.08	228.17
402.45	228.27
402.83	228.48
403.20	228.59
403.58	228.67
403.95	228.96
404.33	229.17
404.71	229.40
405.08	229.83
405.46	230.05
405.83	230.34
406.21	230.51
406.58	230.75
406.96	230.98
407.33	231.38
407.70	231.75
408.08	232.56
408.45	232.95
408.83	233.41
409.20	233.69
409.58	233.83
409.95	234.33
410.33	234.87
410.70	235.25
411.08	235.84
411.45	236.38
411.82	236.80
412.20	237.55
412.57	238.50
412.95	238.76
413.32	239.61
413.69	240.34
414.07	241.17
414.44	242.17
414.82	243.21
415.19	244.26
415.56	245.40
415.94	246.34
416.31	247.66
416.68	249.00
417.06	250.56
417.43	252.13
417.81	253.88
418.18	255.65
418.55	257.53
418.93	259.43
419.30	261.37
419.67	263.55
420.04	265.66
420.42	267.90
420.79	270.95
421.16	273.64
421.54	276.61
421.91	279.54
422.28	282.38
422.66	285.50
423.03	288.89
423.40	292.02
423.77	295.39
424.15	298.84
424.52	302.51
424.89	306.60
425.26	310.34
425.64	313.87
426.01	317.71
426.38	321.83
426.75	326.24
427.13	330.80
427.50	335.29
427.87	340.01
428.24	344.69
428.61	348.88
428.99	354.00
429.36	359.18
429.73	364.44
430.10	369.81
430.47	375.22
430.85	380.49
431.22	386.55
431.59	393.20
431.96	399.16
432.33	405.77
432.70	412.05
433.08	419.60
433.45	426.74
433.82	433.88
434.19	441.73
434.56	449.50
434.93	456.62
435.30	464.02
435.68	472.16
436.05	480.22
436.42	488.28
436.79	495.55
437.16	503.55
437.53	511.93
437.90	520.33
438.27	528.50
438.64	537.03
439.01	544.89
439.38	551.50
439.75	558.39
440.13	566.07
440.50	573.35
440.87	579.20
441.24	585.36
441.61	591.97
441.98	596.94
442.35	602.42
442.72	608.28
443.09	614.00
443.46	617.28
443.83	619.46
444.20	621.35
444.57	623.88
444.94	624.97
445.31	626.03
445.68	627.44
446.05	627.55
446.42	626.36
446.79	624.93
447.16	623.69
447.53	622.44
447.90	618.95
448.27	615.47
448.64	610.76
449.01	607.18
449.37	601.32
449.74	595.41
450.11	588.86
450.48	581.42
450.85	573.69
451.22	567.27
451.59	561.09
451.96	555.09
452.33	547.40
452.70	540.30
453.07	532.13
453.43	523.23
453.80	515.27
454.17	507.57
454.54	500.35
454.91	492.27
455.28	484.61
455.65	477.45
456.02	470.83
456.38	464.71
456.75	457.25
457.12	451.07
457.49	445.04
457.86	438.98
458.23	434.11
458.59	428.72
458.96	423.15
459.33	418.18
459.70	413.25
460.07	409.28
460.43	404.77
460.80	400.72
461.17	397.24
461.54	393.45
461.91	389.75
462.27	386.04
462.64	383.04
463.01	379.71
463.38	376.54
463.74	372.78
464.11	369.94
464.48	367.47
464.85	364.72
465.21	362.74
465.58	360.55
465.95	357.81
466.32	355.65
466.68	353.46
467.05	351.34
467.42	349.26
467.78	347.11
468.15	345.10
468.52	343.48
468.88	341.23
469.25	339.48
469.62	338.11
469.98	336.57
470.35	335.15
470.72	333.75
471.08	332.19
471.45	330.96
471.82	329.83
472.18	328.44
472.55	327.53
472.92	326.33
473.28	325.19
473.65	324.09
474.02	323.06
474.38	322.29
474.75	321.63
475.11	320.79
475.48	320.16
475.85	319.54
476.21	318.84
476.58	318.45
476.94	318.05
477.31	317.67
477.67	317.28
478.04	316.84
478.41	316.60
478.77	316.91
479.14	316.63
479.50	316.49
479.87	316.59
480.23	316.59
480.60	316.60
480.96	316.80
481.33	317.32
481.69	317.61
482.06	317.82
482.42	318.02
482.79	318.38
483.15	318.89
483.52	319.56
483.88	320.21
484.25	320.67
484.61	321.21
484.98	321.85
485.34	322.74
485.71	323.71
486.07	324.64
486.44	325.16
486.80	326.26
487.17	327.41
487.53	328.71
487.90	330.02
488.26	331.60
488.62	333.24
488.99	334.62
489.35	336.29
489.72	338.15
490.08	340.13
490.44	342.13
490.81	344.23
491.17	346.33
491.54	348.68
491.90	351.37
492.26	354.02
492.63	356.72
492.99	359.49
493.36	362.56
493.72	365.89
494.08	369.31
494.45	372.88
494.81	376.70
495.17	380.54
495.54	384.70
495.90	388.83
496.26	393.17
496.63	397.71
496.99	402.41
497.35	407.26
497.72	412.50
498.08	417.76
498.44	423.22
498.80	429.25
499.17	435.24
499.53	441.17
499.89	447.64
500.26	454.40
500.62	461.16
500.98	468.30
501.34	475.54
501.71	483.14
502.07	490.74
502.43	498.61
502.79	506.66
503.16	515.01
503.52	523.71
503.88	532.62
504.24	542.05
504.60	551.89
504.97	562.09
505.33	572.24
505.69	583.05
506.05	593.91
506.41	604.78
506.78	616.11
507.14	627.91
507.50	639.85
507.86	652.02
508.22	664.92
508.59	677.57
508.95	690.83
509.31	704.46
509.67	718.24
510.03	732.21
510.39	746.57
510.75	761.29
511.12	776.15
511.48	791.35
511.84	806.47
512.20	821.67
512.56	837.31
512.92	853.57
513.28	869.88
513.64	886.41
514.00	903.16
514.37	920.14
514.73	937.60
515.09	955.25
515.45	973.00
515.81	990.47
516.17	1008.46
516.53	1026.26
516.89	1044.35
517.25	1063.08
517.61	1082.52
517.97	1102.07
518.33	1121.41
518.69	1140.80
519.05	1160.40
519.41	1180.28
519.77	1200.64
520.13	1220.49
520.49	1240.00
520.85	1259.81
521.21	1280.14
521.57	1300.57
521.93	1320.50
522.29	1340.75
522.65	1360.37
523.01	1380.24
523.37	1399.85
523.73	1419.82
524.09	1439.49
524.45	1459.08
524.81	1478.80
525.17	1498.37
525.53	1517.68
525.89	1537.10
526.25	1556.50
526.61	1575.64
526.97	1595.40
527.33	1615.28
527.68	1635.89
528.04	1656.25
528.40	1676.10
528.76	1695.85
529.12	1715.07
529.48	1734.50
529.84	1753.14
530.20	1773.04
530.56	1792.52
530.91	1812.14
531.27	1831.48
531.63	1850.70
531.99	1869.58
532.35	1888.12
532.71	1906.65
533.07	1925.91
533.42	1944.39
533.78	1963.08
534.14	1981.78
534.50	1999.30
534.86	2017.07
535.21	2033.04
535.57	2049.86
535.93	2066.06
536.29	2082.16
536.65	2098.76
537.00	2115.16
537.36	2131.30
537.72	2146.24
538.08	2161.63
538.44	2176.62
538.79	2191.11
539.15	2205.90
539.51	2220.39
539.87	2234.57
540.22	2247.35
540.58	2260.20
540.94	2272.06
541.29	2283.34
541.65	2294.33
542.01	2305.59
542.37	2314.60
542.72	2324.61
543.08	2333.66
543.44	2343.85
543.79	2352.50
544.15	2360.83
544.51	2369.19
544.87	2377.45
545.22	2385.03
545.58	2391.68
545.94	2397.46
546.29	2402.89
546.65	2408.11
547.01	2412.99
547.36	2416.80
547.72	2421.21
548.07	2423.95
548.43	2427.85
548.79	2431.43
549.14	2434.28
549.50	2436.75
549.86	2439.88
550.21	2442.44
550.57	2444.51
550.92	2445.10
551.28	2445.45
551.64	2446.84
551.99	2447.81
552.35	2448.40
552.70	2449.25
553.06	2450.25
553.41	2450.96
553.77	2452.05
554.13	2452.56
554.48	2453.09
554.84	2454.00
555.19	2454.14
555.55	2455.12
555.90	2454.17
556.26	2452.55
556.61	2450.46
556.97	2448.11
557.32	2446.46
557.68	2444.41
558.03	2442.49
558.39	2440.31
558.74	2439.08
559.10	2435.36
559.45	2431.39
559.81	2426.49
560.16	2421.22
560.52	2415.54
560.87	2410.72
561.23	2404.95
561.58	2399.25
561.94	2392.23
562.29	2384.59
562.64	2377.23
563.00	2368.62
563.35	2361.53
563.71	2354.68
564.06	2348.32
564.42	2341.37
564.77	2334.43
565.12	2326.63
565.48	2319.11
565.83	2311.30
566.19	2302.97
566.54	2295.14
566.89	2286.95
567.25	2279.58
567.60	2272.53
567.96	2265.13
568.31	2257.36
568.66	2248.75
569.02	2239.65
569.37	2231.33
569.72	2224.05
570.08	2215.08
570.43	2205.63
570.78	2196.79
571.14	2187.55
571.49	2177.50
571.84	2168.24
572.20	2157.70
572.55	2148.31
572.90	2137.83
573.26	2128.10
573.61	2117.92
573.96	2107.09
574.31	2095.86
574.67	2084.61
575.02	2072.10
575.37	2060.04
575.72	2047.28
576.08	2035.76
576.43	2023.91
576.78	2011.47
577.13	1998.23
577.49	1986.28
577.84	1975.56
578.19	1964.23
578.54	1952.55
578.90	1941.34
579.25	1929.92
579.60	1918.26
579.95	1905.87
580.30	1893.60
580.66	1880.72
581.01	1867.70
581.36	1854.91
581.71	1842.62
582.06	1830.29
582.42	1819.08
582.77	1807.25
583.12	1796.01
583.47	1784.54
583.82	1773.40
584.17	1762.35
584.53	1751.21
584.88	1739.14
585.23	1726.75
585.58	1713.74
585.93	1701.37
586.28	1689.19
586.63	1676.19
586.98	1663.16
587.34	1651.12
587.69	1638.77
588.04	1627.29
588.39	1616.09
588.74	1604.70
589.09	1593.86
589.44	1582.00
589.79	1570.56
590.14	1559.54
590.49	1548.33
590.84	1537.23
591.19	1526.09
591.54	1514.64
591.89	1503.51
592.25	1494.21
592.60	1483.46
592.95	1472.99
593.30	1461.90
593.65	1450.54
594.00	1439.53
594.35	1430.63
594.70	1419.60
595.05	1408.94
595.40	1397.86
595.75	1386.97
596.10	1376.62
596.45	1365.86
596.80	1355.95
597.15	1345.22
597.50	1334.39
597.85	1324.15
598.19	1313.35
598.54	1302.44
598.89	1292.11
599.24	1282.39
599.59	1271.70
599.94	1261.90
600.29	1252.20
600.64	1242.76
600.99	1233.25
601.34	1224.57
601.69	1214.08
602.04	1205.05
602.39	1196.35
602.74	1187.76
603.08	1179.13
603.43	1170.65
603.78	1161.92
604.13	1153.09
604.48	1144.40
604.83	1135.52
605.18	1126.55
605.53	1117.81
605.87	1109.59
606.22	1101.93
606.57	1093.57
606.92	1085.00
607.27	1076.96
607.62	1069.16
607.96	1061.58
608.31	1054.43
608.66	1046.68
609.01	1039.09
609.36	1031.42
609.70	1023.68
610.05	1015.90
610.40	1008.40
610.75	1000.58
611.10	993.03
611.44	985.22
611.79	977.80
612.14	970.63
612.49	963.55
612.83	956.84
613.18	949.79
613.53	942.71
613.88	935.34
614.22	928.32
614.57	920.98
614.92	913.59
615.27	906.70
615.61	899.43
615.96	892.51
616.31	885.55
616.65	879.02
617.00	872.24
617.35	865.49
617.70	858.65
618.04	852.12
618.39	845.73
618.74	839.97
619.08	833.70
619.43	827.48
619.78	821.00
620.12	814.53
620.47	808.01
620.82	801.50
621.16	795.40
621.51	789.59
621.85	783.96
622.20	778.01
622.55	771.88
622.89	766.13
623.24	760.32
623.59	754.50
623.93	748.79
624.28	743.47
624.62	738.65
624.97	733.74
625.32	728.46
625.66	723.04
626.01	717.53
626.35	712.66
626.70	707.73
627.04	703.15
627.39	698.25
627.73	693.79
628.08	689.03
628.43	684.14
628.77	679.28
629.12	674.46
629.46	670.09
629.81	665.77
630.15	661.44
630.50	656.95
630.84	652.53
631.19	648.23
631.53	643.91
631.88	639.12
632.22	634.43
632.57	630.51
632.91	626.40
633.26	622.39
633.60	618.01
633.95	613.60
634.29	608.94
634.64	604.81
634.98	600.23
635.32	596.27
635.67	592.65
636.01	588.79
636.36	584.73
636.70	581.08
637.05	577.24
637.39	573.53
637.73	569.78
638.08	566.20
638.42	562.39
638.77	558.38
639.11	554.36
639.45	550.53
639.80	546.35
640.14	542.61
640.49	538.86
640.83	535.24
641.17	531.88
641.52	528.71
641.86	525.55
642.20	522.85
642.55	519.56
642.89	516.14
643.23	512.89
643.58	510.17
643.92	506.74
644.26	503.51
644.61	500.46
644.95	497.40
645.29	494.17
645.64	491.24
645.98	488.61
646.32	486.02
646.66	483.18
647.01	480.57
647.35	477.95
647.69	475.38
648.04	472.90
648.38	470.30
648.72	467.66
649.06	464.75
649.41	461.76
649.75	458.99
650.09	456.45
650.43	453.81
650.78	450.96
651.12	448.39
651.46	445.91
651.80	443.36
652.14	440.88
652.49	438.72
652.83	436.25
653.17	433.79
653.51	431.23
653.85	429.11
654.20	426.88
654.54	424.57
654.88	422.16
655.22	420.08
655.56	417.92
655.90	415.73
656.25	413.77
656.59	411.77
656.93	409.79
657.27	407.90
657.61	405.72
657.95	403.65
658.29	401.69
658.64	399.95
658.98	397.91
659.32	395.87
659.66	393.89
660.00	392.03
660.34	390.11
660.68	388.48
661.02	386.55
661.36	384.67
661.70	382.84
662.05	381.11
662.39	379.37
662.73	377.78
663.07	376.33
663.41	374.65
663.75	372.92
664.09	371.29
664.43	369.42
664.77	367.91
665.11	366.33
665.45	364.84
665.79	363.24
666.13	361.70
666.47	360.14
666.81	358.66
667.15	357.04
667.49	355.73
667.83	354.48
668.17	353.08
668.51	351.78
668.85	350.62
669.19	349.66
669.53	348.22
669.87	346.82
670.21	345.27
670.55	343.92
670.89	342.94
671.23	341.75
671.57	340.62
671.91	339.48
672.25	338.31
672.58	337.18
672.92	335.89
673.26	334.71
673.60	333.69
673.94	332.58
674.28	331.69
674.62	330.57
674.96	329.30
675.30	328.30
675.64	327.19
675.97	325.99
676.31	324.70
676.65	323.64
676.99	322.78
677.33	321.72
677.67	320.80
678.01	319.58
678.34	318.51
678.68	317.61
679.02	316.59
679.36	315.65
679.70	314.70
680.04	313.83
680.37	312.90
680.71	311.97
681.05	311.13
681.39	310.25
681.73	309.33
682.06	308.43
682.40	307.56
682.74	306.81
683.08	306.15
683.42	305.29
683.75	304.52
684.09	303.63
684.43	302.90
684.77	302.05
685.10	301.30
685.44	300.56
685.78	299.74
686.12	298.95
686.45	298.17
686.79	297.41
687.13	296.75
687.46	296.06
687.80	295.49
688.14	294.71
688.48	294.00
688.81	293.37
689.15	292.81
689.49	292.10
689.82	291.35
690.16	290.51
690.50	289.88
690.83	289.11
691.17	288.31
691.51	287.69
691.84	287.10
692.18	286.40
692.52	285.58
692.85	285.01
693.19	284.70
693.52	284.14
693.86	283.52
694.20	282.85
694.53	282.34
694.87	281.67
695.21	281.08
695.54	280.50
695.88	279.84
696.21	279.03
696.55	278.49
696.88	277.95
697.22	277.39
697.56	276.80
697.89	276.32
698.23	275.77
698.56	275.27
698.90	274.72
699.23	274.31
699.57	274.06
699.90	273.51
700.24	272.80
700.58	272.35
700.91	271.96
701.25	271.85
701.58	271.75
701.92	271.47
702.25	270.98
702.59	270.52
702.92	270.09
703.26	269.83
703.59	269.43
703.93	269.48
704.26	269.15
704.60	268.75
704.93	268.32
705.26	267.94
705.60	267.62
705.93	267.17
706.27	266.85
706.60	266.58
706.94	266.44
707.27	266.03
707.61	265.75
707.94	265.38
708.27	264.70
708.61	263.94
708.94	263.49
709.28	263.20
709.61	262.83
709.94	262.59
710.28	262.20
710.61	261.86
710.95	261.02
711.28	261.03
711.61	260.70
711.95	260.50
712.28	260.20
712.61	259.89
712.95	259.87
713.28	259.74
713.61	259.24
713.95	258.75
714.28	258.51
714.61	258.10
714.95	257.78
715.28	257.39
715.61	257.05
715.95	256.70
716.28	256.40
716.61	256.20
716.95	255.76
717.28	255.49
717.61	255.16
717.94	254.88
718.28	254.11
718.61	253.81
718.94	253.50
719.27	253.19
719.61	252.92
719.94	252.51
720.27	252.01
720.60	251.80
720.94	251.60
721.27	251.42
721.60	251.30
721.93	250.99
722.27	250.98
722.60	250.89
722.93	250.67
723.26	250.47
723.59	250.10
723.93	249.99
724.26	249.86
724.59	249.67
724.92	249.55
725.25	249.56
725.59	249.37
725.92	249.25
726.25	249.13
726.58	248.91
726.91	248.63
727.24	248.49
727.57	248.32
727.91	248.05
728.24	247.86
728.57	247.64
728.90	247.63
729.23	247.33
729.56	247.43
729.89	247.27
730.22	247.10
730.55	246.98
730.89	246.82
731.22	246.60
731.55	246.49
731.88	246.36
732.21	246.11
732.54	245.92
732.87	245.66
733.20	245.54
733.53	245.44
733.86	245.39
734.19	245.20
734.52	245.11
734.85	245.41
735.18	245.17
735.51	245.15
735.84	244.95
736.17	244.94
736.50	244.54
736.83	245.03
737.16	244.87
737.49	244.78
737.82	244.57
738.15	244.48
738.48	244.32
738.81	244.07
739.14	243.82
739.47	243.67
739.80	243.57
740.13	243.49
740.46	243.24
740.79	242.97
741.12	242.76
741.45	242.51
741.78	242.01
742.11	241.94
742.44	241.72
742.77	241.62
743.10	241.32
743.43	241.05
743.75	240.35
744.08	240.81
744.41	240.61
744.74	240.53
745.07	240.30
745.40	240.25
745.73	240.35
746.06	240.34
746.39	240.31
746.71	240.14
747.04	239.94
747.37	239.80
747.70	239.82
748.03	239.70
748.36	239.69
748.68	239.55
749.01	239.33
749.34	239.18
749.67	239.12
750.00	239.13
750.33	239.36
750.65	239.30
750.98	238.64
751.31	238.59
751.64	238.50
751.97	238.63
752.29	238.44
752.62	238.13
752.95	238.04
753.28	237.82
753.60	237.73
753.93	237.66
754.26	237.70
754.59	237.44
754.91	237.29
755.24	237.14
755.57	237.09
755.90	237.05
756.22	236.91
756.55	236.75
756.88	236.49
757.20	236.13
757.53	235.89
757.86	235.74
758.19	235.68
758.51	235.53
758.84	235.25
759.17	235.15
759.49	235.16
759.82	235.23
760.15	235.22
760.47	235.13
760.80	234.94
761.13	234.87
761.45	234.80
761.78	234.81
762.11	234.79
762.43	234.60
762.76	234.44
763.08	234.41
763.41	234.36
763.74	234.30
764.06	234.23
764.39	234.23
764.71	234.17
765.04	234.03
765.37	233.96
765.69	233.86
766.02	233.79
766.34	233.61
766.67	233.40
767.00	233.37
767.32	233.58
767.65	233.78
767.97	233.67
768.30	233.60
768.62	233.60
768.95	233.42
769.27	233.35
769.60	233.40
769.92	233.27
770.25	233.04
770.57	232.94
770.90	232.83
771.22	232.66
771.55	232.65
771.87	232.62
772.20	232.52
772.52	232.86
772.85	233.35
773.17	233.36
773.50	233.27
773.82	233.12
774.15	232.78
774.47	232.47
774.80	232.38
775.12	232.37
775.45	232.18
775.77	232.27
776.09	232.29
776.42	232.15
776.74	232.25
777.07	232.29
777.39	232.35
777.72	232.27
778.04	232.35
778.36	232.21
778.69	232.24
779.01	232.25
779.33	231.80
779.66	231.24
779.98	231.07
780.31	231.02
780.63	231.29
780.95	231.38
781.28	231.28
781.60	231.20
781.92	231.15
782.25	231.14
782.57	231.03
782.89	230.98
783.22	231.04
783.54	230.91
783.86	230.85
784.19	230.65
784.51	230.81
784.83	230.64
785.16	230.56
785.48	230.42
785.80	230.36
786.12	230.34
786.45	230.34
786.77	230.40
787.09	230.34
787.42	230.03
787.74	229.94
788.06	229.97
788.38	229.94
788.71	229.90
789.03	229.88
789.35	229.90
789.67	229.76
789.99	229.70
790.32	229.57
790.64	229.57
790.96	229.98
791.28	229.75
791.61	229.70
791.93	229.75
792.25	229.70
792.57	230.00
792.89	229.89
793.21	229.90
793.54	229.81
793.86	229.75
794.18	229.81
794.50	229.73
794.82	229.73
795.14	229.75
795.47	229.74
795.79	229.67
796.11	229.50
796.43	229.45
796.75	229.38
797.07	229.40
797.39	229.39
797.71	229.02
798.04	229.05
798.36	229.07
798.68	229.03
799.00	229.08
799.32	228.87
799.64	228.92
799.96	228.90
800.28	228.96
800.60	228.99
800.92	228.91
801.24	228.87
801.56	228.87
801.89	228.82
802.21	228.90
802.53	228.90
802.85	228.96
803.17	229.25
803.49	229.18
803.81	229.12
804.13	229.07
804.45	229.02
804.77	228.98
805.09	229.00
805.41	228.91
805.73	228.79
806.05	228.72
806.37	228.70
806.69	228.64
807.01	228.56
807.33	228.61
807.65	228.45
807.97	228.69
808.28	228.62
808.60	228.61
808.92	228.55
809.24	228.85
809.56	228.78
809.88	228.66
810.20	228.70
810.52	228.83
810.84	228.72
811.16	228.70
811.48	228.69
811.80	228.80
812.12	228.82
812.43	228.91
812.75	228.84
813.07	228.79
813.39	228.74
813.71	228.68
814.03	228.55
814.35	228.55
814.67	228.32
814.98	228.28
815.30	228.33
815.62	228.16
815.94	227.84
816.26	228.00
816.58	227.79
816.89	227.82
817.21	227.62
817.53	227.72
817.85	227.72
818.17	227.69
818.48	227.52
818.80	227.59
819.12	227.53
819.44	227.47
819.76	227.40
820.07	227.41
820.39	227.39
820.71	227.43
821.03	227.46
821.34	227.43
821.66	227.44
821.98	227.38
822.30	227.30
822.61	227.56
822.93	227.38
823.25	227.31
823.57	227.22
823.88	227.33
824.20	227.30
824.52	227.34
824.83	227.29
825.15	227.25
825.47	227.19
825.79	227.20
826.10	227.19
826.42	227.21
826.74	227.20
827.05	227.23
827.37	227.16
827.69	227.15
828.00	227.19
828.32	227.15
828.64	227.17
828.95	227.51
829.27	227.36
829.58	227.37
829.90	227.53
830.22	227.58
830.53	227.46
830.85	227.39
831.17	227.27
831.48	227.31
831.80	227.30
832.11	227.29
832.43	227.20
832.75	227.21
833.06	227.45
833.38	227.36
833.69	227.32
834.01	227.42
834.32	227.34
834.64	227.22
834.96	227.21
835.27	227.11
835.59	226.89
835.90	226.80
836.22	226.79
836.53	226.62
836.85	226.53
837.16	227.07
837.48	227.09
837.79	227.30
838.11	227.30
838.42	227.27
838.74	227.30
839.05	227.23
839.37	227.17
839.68	226.88
840.00	226.85
840.31	226.84
840.63	226.71
840.94	226.69
841.26	226.70
841.57	226.66
841.88	226.73
842.20	226.66
842.51	226.57
842.83	226.55
843.14	227.05
843.46	227.07
843.77	226.77
844.08	226.73
844.40	226.52
844.71	226.52
845.03	226.50
845.34	226.50
845.65	226.55
845.97	226.57
846.28	226.62
846.60	226.64
846.91	226.61
847.22	226.61
847.54	226.75
847.85	226.75
848.16	226.76
848.48	226.60
848.79	226.84
849.10	226.94
849.42	226.96
849.73	226.51
850.04	226.47
850.36	226.32
850.67	226.40
850.98	226.43
851.30	226.39
851.61	226.43
851.92	226.44
852.23	226.51
852.55	226.51
852.86	226.52
853.17	226.62
853.49	226.67
853.80	226.78
854.11	226.77
854.42	226.87
854.74	226.82
855.05	226.82
855.36	226.52
855.67	226.51
855.99	226.58
856.30	227.17
856.61	227.24
856.92	227.21
857.23	227.20
857.55	227.16
857.86	227.13
858.17	227.20
858.48	227.04
858.79	227.01
859.11	227.07
859.42	227.08
859.73	226.97
860.04	227.08
860.35	226.97
860.66	226.85
860.98	226.84
861.29	226.94
861.60	226.97
861.91	227.10
862.22	227.08
862.53	226.95
862.84	226.40
863.16	226.46
863.47	226.35
863.78	226.26
864.09	226.28
864.40	226.35
864.71	226.32
865.02	226.43
865.33	226.37
865.64	226.30
865.95	226.32
866.27	226.60
866.58	226.43
866.89	226.44
867.20	226.38
867.51	226.29
867.82	226.23
868.13	226.35
868.44	226.32
868.75	226.28
869.06	226.25
869.37	226.18
869.68	226.14
869.99	226.20
870.30	226.24
870.61	226.34
870.92	226.28
871.23	226.22
871.54	226.30
871.85	226.46
872.16	226.50
872.47	226.45
872.78	226.14
873.09	226.23
873.40	226.25
873.71	226.35
874.02	226.31
874.33	226.26
874.64	226.19
874.95	226.19
875.26	226.20
875.56	226.24
875.87	226.26
876.18	226.12
876.49	226.57
876.80	226.56
877.11	226.42
877.42	226.48
877.73	226.54
878.04	226.38
878.35	226.33
878.66	226.29
878.96	226.25
879.27	226.31
879.58	226.30
879.89	226.26
880.20	226.36
880.51	226.33
880.82	226.37
881.12	226.39
881.43	226.34
881.74	226.19
882.05	226.18
882.36	226.17
882.67	226.23
882.97	225.76
883.28	225.77
883.59	225.80
883.90	225.83
884.21	225.85
884.51	225.90
884.82	225.78
885.13	225.79
885.44	225.77
885.74	225.71
886.05	225.71
886.36	225.71
886.67	225.55
886.98	225.84
887.28	225.90
887.59	225.88
887.90	225.87
888.20	225.98
888.51	226.03
888.82	226.07
889.13	226.13
889.43	226.53
889.74	226.50
890.05	226.45
890.35	226.40
890.66	226.32
890.97	226.25
891.28	226.29
891.58	226.27
891.89	226.28
892.20	226.26
892.50	226.16
892.81	226.19
893.12	226.23
893.42	226.05
893.73	226.03
894.04	226.09
894.34	226.18
894.65	226.17
894.95	226.14
895.26	226.14
895.57	226.43
895.87	226.05
896.18	226.08
896.48	226.11
896.79	226.08
897.10	226.15
897.40	226.28
897.71	226.30
898.01	226.30
898.32	226.35
898.63	226.44
898.93	226.54
899.24	226.53
899.54	226.45
899.85	226.41
900.15	226.45
900.46	226.40
900.76	226.42
901.07	226.46
901.38	226.54
901.68	226.54
901.99	226.28
902.29	226.32
902.60	226.36
902.90	226.28
903.21	226.27
903.51	226.26
903.82	226.33
904.12	226.35
904.43	226.46
904.73	226.48
905.03	226.45
905.34	226.93
905.64	226.89
905.95	226.95
906.25	226.96
906.56	226.90
906.86	226.93
907.17	226.86
907.47	226.83
907.77	226.72
908.08	226.65
908.38	226.66
908.69	226.64
908.99	226.68
909.30	226.82
909.60	226.84
909.90	226.80
910.21	226.61
910.51	226.51
910.81	226.49
911.12	226.50
911.42	226.51
911.73	225.95
912.03	225.97
912.33	226.11
912.64	226.10
912.94	226.10
913.24	226.04
913.55	226.00
913.85	226.00
914.15	226.11
914.46	226.20
914.76	226.15
915.06	226.14
915.37	226.05
915.67	225.98
915.97	225.99
916.27	226.01
916.58	226.00
916.88	226.00
917.18	225.94
917.49	226.27
917.79	226.20
918.09	226.31
918.39	226.38
918.70	226.32
919.00	226.31
919.30	226.43
919.60	226.36
919.91	226.33
920.21	226.38
920.51	226.22
920.81	226.22
921.12	226.20
921.42	226.15
921.72	226.17
922.02	226.15
922.32	226.26
922.63	226.22
922.93	226.48
923.23	226.53
923.53	226.46
923.83	226.06
924.13	226.12
924.44	226.04
924.74	226.11
925.04	226.15
925.34	226.15
925.64	225.96
925.94	226.00
926.24	226.30
926.55	226.26
926.85	226.35
927.15	226.28
927.45	226.37
927.75	226.37
928.05	226.46
928.35	226.43
928.65	226.45
928.95	226.47
929.26	226.27
929.56	226.40
929.86	226.44
930.16	226.43
930.46	226.45
930.76	226.49
931.06	226.25
931.36	226.12
931.66	226.21
931.96	226.31
932.26	226.32
932.56	226.10
932.86	226.08
933.16	226.09
933.46	226.02
933.76	225.92
934.06	226.12
934.36	226.23
934.66	226.24
934.96	226.15
935.26	226.24
935.56	226.38
935.86	226.19
936.16	226.14
936.46	226.17
936.76	226.12
937.06	226.01
937.36	226.11
937.66	226.21
937.96	226.17
938.26	226.02
938.56	225.97
938.86	226.04
939.16	226.16
939.46	226.19
939.76	226.23
940.06	226.24
940.35	226.07
940.65	225.81
940.95	225.85
941.25	225.80
941.55	225.72
941.85	225.64
942.15	225.75
942.45	225.85
942.75	225.86
943.04	225.92
943.34	226.05
943.64	225.98
943.94	225.91
944.24	225.92
944.54	225.98
944.84	226.01
945.13	225.87
945.43	225.84
945.73	225.84
946.03	225.83
946.33	225.80
946.62	225.71
946.92	225.78
947.22	225.86
947.52	225.90
947.82	225.91
948.11	225.87
948.41	225.75
948.71	225.67
949.01	225.69
949.31	225.57
949.60	225.57
949.90	225.69
950.20	225.63
950.50	225.58
950.79	225.59
951.09	225.63
951.39	225.69
951.69	225.58
951.98	225.69
952.28	225.74
952.58	225.80
952.87	225.88
953.17	225.89
953.47	225.81
953.76	225.70
954.06	225.64
954.36	225.62
954.66	225.62
954.95	225.67
955.25	225.69
955.55	225.74
955.84	225.61
956.14	225.61
956.44	225.58
956.73	225.53
957.03	225.55
957.32	225.62
957.62	225.57
957.92	225.62
958.21	225.52
958.51	226.00
958.81	225.92
959.10	225.97
959.40	226.05
959.69	226.00
959.99	226.14
960.29	226.17
960.58	226.15
960.88	226.26
961.17	226.22
961.47	226.24
961.76	226.16
962.06	226.32
962.36	226.27
962.65	226.38
962.95	226.35
963.24	226.34
963.54	226.24
963.83	226.21
964.13	226.17
964.42	226.08
964.72	225.79
965.01	225.85
965.31	225.85
965.60	225.72
965.90	226.01
966.19	225.96
966.49	225.95
966.78	225.94
967.08	225.92
967.37	225.93
967.67	225.83
967.96	225.99
968.26	225.98
968.55	225.98
968.85	225.94
969.14	225.96
969.43	225.89
969.73	225.86
970.02	225.92
970.32	225.97
970.61	225.94
970.91	225.68
971.20	225.59
971.49	225.55
971.79	225.58
972.08	225.26
972.38	225.33
972.67	225.32
972.96	225.41
973.26	225.38
973.55	225.58
973.85	225.60
974.14	225.52
974.43	225.49
974.73	225.45
975.02	225.34
975.31	225.40
975.61	225.41
975.90	225.46
976.19	225.35
976.49	225.41
976.78	225.46
977.07	225.60
977.37	225.68
977.66	225.63
977.95	225.60
978.24	225.67
978.54	225.75
978.83	225.68
979.12	225.66
979.42	225.68
979.71	225.57
980.00	225.59
980.29	225.68
980.59	225.59
980.88	225.74
981.17	225.91
981.46	225.94
981.76	226.02
982.05	226.18
982.34	226.27
982.63	226.19
982.93	226.17
983.22	226.27
983.51	226.28
983.80	226.42
984.09	226.49
984.39	226.45
984.68	226.39
984.97	226.51
985.26	226.47
985.55	226.50
985.85	226.40
986.14	226.55
986.43	226.59
986.72	226.64
987.01	226.45
987.30	226.40
987.59	226.37
987.89	226.35
988.18	226.20
988.47	226.19
988.76	226.15
989.05	226.14
989.34	226.03
989.63	226.18
989.92	226.11
990.22	226.06
990.51	226.01
990.80	225.94
991.09	225.97
991.38	225.99
991.67	225.91
991.96	225.84
992.25	225.76
992.54	225.63
992.83	225.62
993.12	225.66
993.41	225.71
993.70	225.88
993.99	226.00
994.28	226.05
994.58	226.05
994.87	226.04
995.16	226.01
995.45	225.93
995.74	225.81
996.03	225.90
996.32	225.92
996.61	226.07
996.90	226.11
997.19	226.00
997.48	225.98
997.77	225.93
998.06	225.94
998.34	225.95
998.63	226.00
998.92	225.96
999.21	225.97
999.50	225.93
999.79	225.74
1000.08	225.64
1000.37	225.64
1000.66	225.70
1000.95	225.80
1001.24	225.81
1001.53	225.93
1001.82	225.84
1002.11	225.65
1002.40	225.72
1002.68	225.87
1002.97	226.15
1003.26	226.08
1003.55	226.05
1003.84	226.09
1004.13	226.29
1004.42	226.23
1004.71	226.19
1004.99	226.18
1005.28	226.31
1005.57	226.26
1005.86	226.25
1006.15	226.21
1006.44	226.07
1006.72	226.04
1007.01	225.95
1007.30	225.99
1007.59	225.94
1007.88	225.92
1008.17	225.99
1008.45	225.86
1008.74	225.63
1009.03	225.44
1009.32	225.51
1009.60	225.47
1009.89	225.41
1010.18	225.22
1010.47	225.23
1010.76	225.23
1011.04	225.22
1011.33	225.28
1011.62	225.36
1011.91	225.39
1012.19	225.42
1012.48	225.49
1012.77	225.44
1013.05	225.65
1013.34	225.60
1013.63	225.53
1013.92	225.56
1014.20	225.52
1014.49	225.54
1014.78	225.54
1015.06	225.34
1015.35	225.33
1015.64	225.51
1015.92	225.64
1016.21	225.65
1016.50	225.62
1016.78	225.65
1017.07	225.77
1017.36	225.65
1017.64	225.55
1017.93	225.58
1018.22	225.53
1018.50	225.52
1018.79	225.59
1019.08	225.42
1019.36	225.47
1019.65	225.48
1019.93	225.67
1020.22	225.76
1020.51	226.01
1020.79	226.00
1021.08	224.50
1021.36	225.35
1021.65	226.00
1021.94	226.05
1022.22	225.45
1022.51	224.70
1022.79	229.20
1023.08	226.45
1023.36	231.10
1023.65	224.90
>>>>>End Processed Spectral Data<<<<<
