SpectraSuite Data File
++++++++++++++++++++++++++++++++++++
Date: Wed Sep 04 18:03:11 EDT 2013
User: lab3
Dark Spectrum Present: Yes
Reference Spectrum Present: No
Number of Sampled Component Spectra: 1
Spectrometers: USB2E7196
Integration Time (usec): 170000 (USB2E7196)
Spectra Averaged: 20 (USB2E7196)
Boxcar Smoothing: 10 (USB2E7196)
Correct for Electrical Dark: No (USB2E7196)
Strobe/Lamp Enabled: No (USB2E7196)
Correct for Detector Non-linearity: No (USB2E7196)
Correct for Stray Light: No (USB2E7196)
Number of Pixels in Processed Spectrum: 2048
>>>>>Begin Processed Spectral Data<<<<<
339.09	0.00
339.48	213.90
339.86	214.60
340.24	216.55
340.63	216.85
341.01	226.55
341.39	219.95
341.78	223.15
342.16	223.40
342.54	223.10
342.93	212.74
343.31	223.43
343.69	224.02
344.07	224.54
344.46	224.97
344.84	225.38
345.22	225.36
345.60	225.67
345.99	225.79
346.37	225.93
346.75	226.06
347.13	226.13
347.52	226.19
347.90	226.41
348.28	226.31
348.66	226.42
349.05	226.35
349.43	226.46
349.81	226.51
350.19	226.53
350.57	226.55
350.96	226.62
351.34	226.74
351.72	226.75
352.10	226.83
352.48	226.97
352.87	227.00
353.25	227.12
353.63	227.16
354.01	227.28
354.39	227.35
354.77	227.47
355.15	227.69
355.54	227.72
355.92	227.67
356.30	227.82
356.68	228.19
357.06	228.32
357.44	228.33
357.82	228.35
358.20	228.80
358.58	228.89
358.97	228.99
359.35	229.19
359.73	229.35
360.11	229.38
360.49	229.40
360.87	229.50
361.25	229.51
361.63	229.73
362.01	229.76
362.39	229.77
362.77	229.83
363.15	229.82
363.53	229.90
363.91	229.96
364.29	229.92
364.67	229.51
365.05	229.49
365.43	229.60
365.81	229.75
366.19	229.60
366.57	229.80
366.95	229.81
367.33	229.69
367.71	229.68
368.09	229.78
368.47	229.76
368.85	229.71
369.23	229.82
369.61	229.62
369.99	229.82
370.37	229.90
370.75	230.09
371.13	229.95
371.51	229.84
371.89	229.83
372.27	229.96
372.65	230.02
373.03	230.04
373.41	229.91
373.78	229.80
374.16	229.56
374.54	229.34
374.92	229.21
375.30	229.17
375.68	229.01
376.06	228.98
376.44	228.96
376.82	228.96
377.19	228.86
377.57	228.75
377.95	228.51
378.33	228.38
378.71	228.07
379.09	228.11
379.47	228.11
379.84	228.04
380.22	227.90
380.60	227.67
380.98	227.55
381.36	227.45
381.73	227.30
382.11	227.28
382.49	227.25
382.87	227.09
383.25	227.03
383.62	227.55
384.00	227.37
384.38	227.32
384.76	227.37
385.13	227.53
385.51	227.51
385.89	227.43
386.27	227.40
386.64	227.40
387.02	227.30
387.40	227.20
387.78	227.18
388.15	227.12
388.53	227.12
388.91	227.07
389.29	227.00
389.66	227.04
390.04	226.98
390.42	226.97
390.79	227.01
391.17	227.01
391.55	226.51
391.92	226.51
392.30	226.50
392.68	226.33
393.05	226.28
393.43	226.37
393.81	226.40
394.18	226.35
394.56	226.33
394.94	226.45
395.31	226.49
395.69	226.60
396.06	226.74
396.44	226.77
396.82	226.79
397.19	227.15
397.57	227.18
397.95	227.34
398.32	227.36
398.70	227.40
399.07	227.51
399.45	227.59
399.82	227.65
400.20	227.70
400.58	227.81
400.95	227.69
401.33	227.80
401.70	228.21
402.08	228.36
402.45	228.58
402.83	228.93
403.20	229.12
403.58	229.21
403.95	229.46
404.33	229.76
404.71	230.09
405.08	230.48
405.46	230.72
405.83	230.93
406.21	231.15
406.58	231.57
406.96	231.80
407.33	232.15
407.70	232.50
408.08	233.27
408.45	233.80
408.83	234.25
409.20	234.64
409.58	234.78
409.95	235.35
410.33	235.80
410.70	236.09
411.08	236.68
411.45	237.32
411.82	237.80
412.20	238.51
412.57	239.44
412.95	239.86
413.32	240.76
413.69	241.57
414.07	242.58
414.44	243.53
414.82	244.59
415.19	245.75
415.56	247.02
415.94	248.01
416.31	249.45
416.68	250.95
417.06	252.62
417.43	254.33
417.81	256.01
418.18	257.88
418.55	259.75
418.93	261.80
419.30	263.90
419.67	266.23
420.04	268.43
420.42	270.70
420.79	273.74
421.16	276.47
421.54	279.62
421.91	282.55
422.28	285.60
422.66	288.95
423.03	292.39
423.40	295.69
423.77	299.26
424.15	302.83
424.52	306.69
424.89	310.83
425.26	314.79
425.64	318.63
426.01	322.77
426.38	327.32
426.75	331.97
427.13	336.62
427.50	341.32
427.87	346.34
428.24	351.21
428.61	355.78
428.99	361.22
429.36	366.60
429.73	372.10
430.10	377.81
430.47	383.47
430.85	389.20
431.22	395.57
431.59	402.42
431.96	408.65
432.33	415.62
432.70	422.46
433.08	430.35
433.45	437.80
433.82	445.31
434.19	453.45
434.56	461.48
434.93	469.25
435.30	477.23
435.68	485.98
436.05	494.60
436.42	503.00
436.79	510.60
437.16	519.10
437.53	528.09
437.90	536.82
438.27	545.52
438.64	554.45
439.01	562.64
439.38	569.87
439.75	576.94
440.13	584.99
440.50	592.52
440.87	598.58
441.24	605.06
441.61	612.00
441.98	617.09
442.35	622.90
442.72	628.81
443.09	634.47
443.46	637.81
443.83	640.05
444.20	642.03
444.57	644.85
444.94	645.95
445.31	646.98
445.68	648.21
446.05	648.35
446.42	647.05
446.79	645.78
447.16	644.06
447.53	643.02
447.90	639.27
448.27	635.44
448.64	630.70
449.01	626.99
449.37	620.76
449.74	614.85
450.11	608.07
450.48	600.33
450.85	592.40
451.22	585.57
451.59	578.95
451.96	572.59
452.33	564.40
452.70	556.96
453.07	548.20
453.43	539.11
453.80	530.67
454.17	522.58
454.54	514.79
454.91	506.63
455.28	498.54
455.65	491.04
456.02	484.25
456.38	477.70
456.75	470.00
457.12	463.51
457.49	457.05
457.86	450.56
458.23	445.31
458.59	439.58
458.96	433.71
459.33	428.64
459.70	423.57
460.07	419.36
460.43	414.63
460.80	410.35
461.17	406.55
461.54	402.53
461.91	398.71
462.27	394.76
462.64	391.46
463.01	387.87
463.38	384.56
463.74	380.52
464.11	377.56
464.48	374.84
464.85	371.99
465.21	369.84
465.58	367.57
465.95	364.78
466.32	362.58
466.68	360.27
467.05	357.96
467.42	355.70
467.78	353.48
468.15	351.38
468.52	349.80
468.88	347.50
469.25	345.53
469.62	343.99
469.98	342.34
470.35	340.80
470.72	339.31
471.08	337.61
471.45	336.26
471.82	334.93
472.18	333.42
472.55	332.35
472.92	330.97
473.28	329.79
473.65	328.69
474.02	327.51
474.38	326.63
474.75	325.85
475.11	324.90
475.48	324.24
475.85	323.63
476.21	322.85
476.58	322.35
476.94	321.96
477.31	321.47
477.67	321.04
478.04	320.67
478.41	320.44
478.77	320.62
479.14	320.22
479.50	320.12
479.87	320.07
480.23	320.09
480.60	320.12
480.96	320.06
481.33	320.39
481.69	320.59
482.06	320.84
482.42	321.07
482.79	321.44
483.15	321.82
483.52	322.30
483.88	322.83
484.25	323.51
484.61	324.23
484.98	324.98
485.34	325.86
485.71	326.78
486.07	327.75
486.44	328.36
486.80	329.59
487.17	330.73
487.53	332.16
487.90	333.56
488.26	335.20
488.62	336.92
488.99	338.43
489.35	340.14
489.72	342.03
490.08	344.01
490.44	346.09
490.81	348.31
491.17	350.56
491.54	353.02
491.90	355.47
492.26	357.95
492.63	360.70
492.99	363.57
493.36	366.77
493.72	370.09
494.08	373.65
494.45	377.53
494.81	381.41
495.17	385.33
495.54	389.38
495.90	393.59
496.26	398.05
496.63	402.80
496.99	407.72
497.35	412.79
497.72	418.16
498.08	423.60
498.44	429.36
498.80	435.43
499.17	441.49
499.53	447.85
499.89	454.47
500.26	461.35
500.62	468.47
500.98	475.76
501.34	483.21
501.71	490.94
502.07	498.65
502.43	506.79
502.79	515.10
503.16	523.91
503.52	533.07
503.88	542.29
504.24	552.01
504.60	562.00
504.97	572.28
505.33	582.67
505.69	593.74
506.05	604.80
506.41	616.05
506.78	627.82
507.14	639.76
507.50	652.37
507.86	664.98
508.22	678.02
508.59	691.22
508.95	704.89
509.31	719.02
509.67	733.25
510.03	747.74
510.39	762.80
510.75	777.99
511.12	793.20
511.48	808.93
511.84	824.61
512.20	840.56
512.56	856.91
512.92	873.79
513.28	890.74
513.64	907.99
514.00	925.73
514.37	943.72
514.73	962.16
515.09	980.38
515.45	998.79
515.81	1017.30
516.17	1036.26
516.53	1054.76
516.89	1073.49
517.25	1093.11
517.61	1113.37
517.97	1133.47
518.33	1153.55
518.69	1173.98
519.05	1194.68
519.41	1215.56
519.77	1236.77
520.13	1257.57
520.49	1278.41
520.85	1300.80
521.21	1322.26
521.57	1343.36
521.93	1364.13
522.29	1385.05
522.65	1405.81
523.01	1427.00
523.37	1447.84
523.73	1469.15
524.09	1489.86
524.45	1510.59
524.81	1531.61
525.17	1551.97
525.53	1572.61
525.89	1593.43
526.25	1614.21
526.61	1634.65
526.97	1655.67
527.33	1677.09
527.68	1699.29
528.04	1720.45
528.40	1740.10
528.76	1760.83
529.12	1781.29
529.48	1802.27
529.84	1822.60
530.20	1844.21
530.56	1864.93
530.91	1885.87
531.27	1906.23
531.63	1927.45
531.99	1948.32
532.35	1968.38
532.71	1989.00
533.07	2009.65
533.42	2029.51
533.78	2049.68
534.14	2069.54
534.50	2088.69
534.86	2107.72
535.21	2125.08
535.57	2143.68
535.93	2161.43
536.29	2179.31
536.65	2197.53
537.00	2215.02
537.36	2232.80
537.72	2249.14
538.08	2266.69
538.44	2283.28
538.79	2299.67
539.15	2315.80
539.51	2331.55
539.87	2346.86
540.22	2361.16
540.58	2375.56
540.94	2389.45
541.29	2401.99
541.65	2414.87
542.01	2427.69
542.37	2438.58
542.72	2449.66
543.08	2460.70
543.44	2472.62
543.79	2483.22
544.15	2493.18
544.51	2503.35
544.87	2513.03
545.22	2521.87
545.58	2529.26
545.94	2536.79
546.29	2543.53
546.65	2550.20
547.01	2556.07
547.36	2561.62
547.72	2567.10
548.07	2571.20
548.43	2576.36
548.79	2581.04
549.14	2585.20
549.50	2588.95
549.86	2593.03
550.21	2597.01
550.57	2600.47
550.92	2601.80
551.28	2602.99
551.64	2605.55
551.99	2607.79
552.35	2609.32
552.70	2611.36
553.06	2613.56
553.41	2615.07
553.77	2616.87
554.13	2619.06
554.48	2620.99
554.84	2622.85
555.19	2623.96
555.55	2625.59
555.90	2625.01
556.26	2624.47
556.61	2622.84
556.97	2621.01
557.32	2620.62
557.68	2619.51
558.03	2618.10
558.39	2617.45
558.74	2616.76
559.10	2613.67
559.45	2610.39
559.81	2606.83
560.16	2601.65
560.52	2596.80
560.87	2592.46
561.23	2587.12
561.58	2580.81
561.94	2574.01
562.29	2566.34
562.64	2559.57
563.00	2551.60
563.35	2545.23
563.71	2538.75
564.06	2532.72
564.42	2526.01
564.77	2518.69
565.12	2511.35
565.48	2503.40
565.83	2495.25
566.19	2487.03
566.54	2479.04
566.89	2470.52
567.25	2462.57
567.60	2455.78
567.96	2448.22
568.31	2439.95
568.66	2431.16
569.02	2422.21
569.37	2414.02
569.72	2406.32
570.08	2396.96
570.43	2387.55
570.78	2378.17
571.14	2368.74
571.49	2358.89
571.84	2349.46
572.20	2338.36
572.55	2328.19
572.90	2317.42
573.26	2306.83
573.61	2295.85
573.96	2285.19
574.31	2273.16
574.67	2260.99
575.02	2248.05
575.37	2234.83
575.72	2221.34
576.08	2209.27
576.43	2196.80
576.78	2183.82
577.13	2170.45
577.49	2157.82
577.84	2145.82
578.19	2133.71
578.54	2121.03
578.90	2108.75
579.25	2096.24
579.60	2083.89
579.95	2070.83
580.30	2057.69
580.66	2044.17
581.01	2030.75
581.36	2016.42
581.71	2004.06
582.06	1991.01
582.42	1978.31
582.77	1965.98
583.12	1954.47
583.47	1941.98
583.82	1929.89
584.17	1917.70
584.53	1905.80
584.88	1892.98
585.23	1880.11
585.58	1865.82
585.93	1852.41
586.28	1838.65
586.63	1824.50
586.98	1810.33
587.34	1797.10
587.69	1783.56
588.04	1771.05
588.39	1758.77
588.74	1746.45
589.09	1734.03
589.44	1721.08
589.79	1709.24
590.14	1697.19
590.49	1685.05
590.84	1672.79
591.19	1660.52
591.54	1647.82
591.89	1635.41
592.25	1625.05
592.60	1613.18
592.95	1601.80
593.30	1589.92
593.65	1578.17
594.00	1566.40
594.35	1556.65
594.70	1544.61
595.05	1533.23
595.40	1521.13
595.75	1509.10
596.10	1497.87
596.45	1486.19
596.80	1475.45
597.15	1463.54
597.50	1451.62
597.85	1439.85
598.19	1428.15
598.54	1416.34
598.89	1405.33
599.24	1394.64
599.59	1382.54
599.94	1371.59
600.29	1361.07
600.64	1350.62
600.99	1339.63
601.34	1330.05
601.69	1318.58
602.04	1308.59
602.39	1298.88
602.74	1289.45
603.08	1279.93
603.43	1270.58
603.78	1260.80
604.13	1251.20
604.48	1241.57
604.83	1231.95
605.18	1222.15
605.53	1212.65
605.87	1203.42
606.22	1194.63
606.57	1185.19
606.92	1175.81
607.27	1166.94
607.62	1158.05
607.96	1149.51
608.31	1141.58
608.66	1133.05
609.01	1124.63
609.36	1116.07
609.70	1107.53
610.05	1098.87
610.40	1090.27
610.75	1081.19
611.10	1072.78
611.44	1063.97
611.79	1055.82
612.14	1047.81
612.49	1039.77
612.83	1032.35
613.18	1024.57
613.53	1016.59
613.88	1008.64
614.22	1000.96
614.57	992.80
614.92	984.91
615.27	977.33
615.61	969.63
615.96	961.67
616.31	954.02
616.65	947.02
617.00	939.66
617.35	932.36
617.70	925.33
618.04	918.38
618.39	911.47
618.74	905.04
619.08	897.97
619.43	890.83
619.78	883.73
620.12	876.40
620.47	869.40
620.82	862.34
621.16	855.44
621.51	849.06
621.85	842.77
622.20	835.98
622.55	829.03
622.89	822.35
623.24	815.91
623.59	809.35
623.93	802.69
624.28	796.42
624.62	790.68
624.97	784.74
625.32	778.86
625.66	772.75
626.01	766.48
626.35	760.90
626.70	755.29
627.04	750.10
627.39	744.35
627.73	738.96
628.08	733.60
628.43	728.03
628.77	722.42
629.12	717.00
629.46	712.23
629.81	707.56
630.15	702.75
630.50	697.91
630.84	693.15
631.19	688.35
631.53	683.80
631.88	678.62
632.22	673.50
632.57	668.94
632.91	664.28
633.26	659.85
633.60	655.13
633.95	650.45
634.29	645.49
634.64	641.08
634.98	636.23
635.32	631.89
635.67	627.94
636.01	623.69
636.36	619.42
636.70	615.36
637.05	611.00
637.39	606.85
637.73	602.66
638.08	598.68
638.42	594.53
638.77	589.92
639.11	585.25
639.45	580.94
639.80	576.46
640.14	572.38
640.49	568.25
640.83	564.27
641.17	560.55
641.52	556.84
641.86	553.20
642.20	550.03
642.55	546.30
642.89	542.63
643.23	539.01
643.58	535.88
643.92	532.08
644.26	528.73
644.61	525.52
644.95	522.16
645.29	518.62
645.64	515.34
645.98	512.41
646.32	509.73
646.66	506.75
647.01	503.83
647.35	501.06
647.69	498.12
648.04	495.45
648.38	492.56
648.72	489.62
649.06	486.69
649.41	483.55
649.75	480.60
650.09	477.81
650.43	475.06
650.78	471.95
651.12	469.16
651.46	466.35
651.80	463.53
652.14	460.87
652.49	458.44
652.83	455.99
653.17	453.31
653.51	450.48
653.85	448.07
654.20	445.56
654.54	442.94
654.88	440.37
655.22	438.00
655.56	435.55
655.90	433.23
656.25	430.96
656.59	428.69
656.93	426.46
657.27	424.34
657.61	421.84
657.95	419.61
658.29	417.52
658.64	415.34
658.98	413.10
659.32	410.72
659.66	408.40
660.00	406.20
660.34	404.12
660.68	402.18
661.02	400.07
661.36	398.07
661.70	396.05
662.05	394.17
662.39	392.19
662.73	390.40
663.07	388.77
663.41	386.85
663.75	384.93
664.09	383.10
664.43	380.89
664.77	379.30
665.11	377.48
665.45	375.82
665.79	374.18
666.13	372.43
666.47	370.85
666.81	369.18
667.15	367.33
667.49	365.73
667.83	364.30
668.17	362.85
668.51	361.31
668.85	359.91
669.19	358.72
669.53	357.23
669.87	355.68
670.21	354.08
670.55	352.68
670.89	351.53
671.23	350.21
671.57	348.90
671.91	347.52
672.25	346.19
672.58	344.93
672.92	343.40
673.26	342.18
673.60	340.86
673.94	339.81
674.28	338.77
674.62	337.67
674.96	336.35
675.30	335.10
675.64	334.01
675.97	332.73
676.31	331.35
676.65	330.09
676.99	329.14
677.33	328.03
677.67	326.95
678.01	325.66
678.34	324.59
678.68	323.74
679.02	322.73
679.36	321.72
679.70	320.68
680.04	319.86
680.37	318.93
680.71	317.97
681.05	316.95
681.39	316.08
681.73	315.06
682.06	314.20
682.40	313.35
682.74	312.49
683.08	311.83
683.42	311.00
683.75	310.18
684.09	309.14
684.43	308.20
684.77	307.39
685.10	306.64
685.44	305.77
685.78	304.95
686.12	304.08
686.45	303.27
686.79	302.36
687.13	301.63
687.46	300.79
687.80	300.16
688.14	299.39
688.48	298.60
688.81	297.85
689.15	297.25
689.49	296.45
689.82	295.80
690.16	294.92
690.50	294.21
690.83	293.48
691.17	292.76
691.51	292.15
691.84	291.47
692.18	290.74
692.52	290.04
692.85	289.40
693.19	289.00
693.52	288.44
693.86	287.87
694.20	287.18
694.53	286.67
694.87	286.00
695.21	285.32
695.54	284.75
695.88	284.14
696.21	283.32
696.55	282.75
696.88	282.01
697.22	281.39
697.56	280.83
697.89	280.25
698.23	279.78
698.56	279.26
698.90	278.85
699.23	278.25
699.57	277.79
699.90	277.23
700.24	276.49
700.58	275.98
700.91	275.52
701.25	275.41
701.58	275.13
701.92	274.74
702.25	274.32
702.59	273.79
702.92	273.38
703.26	272.99
703.59	272.61
703.93	272.65
704.26	272.28
704.60	271.86
704.93	271.42
705.26	270.96
705.60	270.62
705.93	269.98
706.27	269.77
706.60	269.49
706.94	269.27
707.27	268.90
707.61	268.57
707.94	268.12
708.27	267.34
708.61	266.64
708.94	266.21
709.28	265.78
709.61	265.40
709.94	265.05
710.28	264.67
710.61	264.30
710.95	263.51
711.28	263.42
711.61	263.05
711.95	262.89
712.28	262.52
712.61	262.09
712.95	262.03
713.28	261.86
713.61	261.40
713.95	260.85
714.28	260.60
714.61	260.15
714.95	259.86
715.28	259.53
715.61	259.25
715.95	258.97
716.28	258.70
716.61	258.48
716.95	258.15
717.28	257.78
717.61	257.44
717.94	257.14
718.28	256.49
718.61	256.16
718.94	255.70
719.27	255.44
719.61	255.27
719.94	254.98
720.27	254.44
720.60	254.19
720.94	253.97
721.27	253.65
721.60	253.56
721.93	253.26
722.27	253.14
722.60	252.96
722.93	252.71
723.26	252.52
723.59	252.17
723.93	252.01
724.26	251.88
724.59	251.69
724.92	251.50
725.25	251.48
725.59	251.27
725.92	251.18
726.25	251.01
726.58	250.79
726.91	250.43
727.24	250.41
727.57	250.18
727.91	249.95
728.24	249.81
728.57	249.54
728.90	249.46
729.23	249.18
729.56	249.26
729.89	249.08
730.22	248.83
730.55	248.79
730.89	248.55
731.22	248.35
731.55	248.12
731.88	247.96
732.21	247.66
732.54	247.45
732.87	247.25
733.20	247.07
733.53	246.87
733.86	246.74
734.19	246.38
734.52	246.34
734.85	246.51
735.18	246.32
735.51	246.33
735.84	246.21
736.17	246.21
736.50	245.72
736.83	246.06
737.16	245.98
737.49	245.80
737.82	245.67
738.15	245.60
738.48	245.45
738.81	245.27
739.14	245.09
739.47	245.01
739.80	244.80
740.13	244.67
740.46	244.50
740.79	244.37
741.12	244.31
741.45	244.02
741.78	243.65
742.11	243.70
742.44	243.42
742.77	243.25
743.10	243.02
743.43	242.85
743.75	242.15
744.08	242.60
744.41	242.40
744.74	242.21
745.07	242.02
745.40	241.92
745.73	242.01
746.06	241.86
746.39	241.67
746.71	241.61
747.04	241.40
747.37	241.25
747.70	241.09
748.03	240.97
748.36	240.92
748.68	240.74
749.01	240.36
749.34	240.30
749.67	240.19
750.00	240.08
750.33	240.40
750.65	240.36
750.98	239.61
751.31	239.48
751.64	239.39
751.97	239.49
752.29	239.40
752.62	239.04
752.95	238.92
753.28	238.87
753.60	238.68
753.93	238.68
754.26	238.58
754.59	238.40
754.91	238.19
755.24	238.10
755.57	237.98
755.90	237.92
756.22	237.73
756.55	237.57
756.88	237.41
757.20	236.94
757.53	236.74
757.86	236.70
758.19	236.63
758.51	236.49
758.84	236.08
759.17	235.93
759.49	235.83
759.82	235.96
760.15	235.90
760.47	235.81
760.80	235.57
761.13	235.55
761.45	235.47
761.78	235.45
762.11	235.40
762.43	235.23
762.76	235.12
763.08	235.11
763.41	235.06
763.74	234.95
764.06	234.80
764.39	234.74
764.71	234.60
765.04	234.44
765.37	234.36
765.69	234.30
766.02	234.23
766.34	234.18
766.67	233.91
767.00	233.88
767.32	234.10
767.65	234.36
767.97	234.21
768.30	234.22
768.62	234.11
768.95	233.88
769.27	233.87
769.60	233.89
769.92	233.76
770.25	233.65
770.57	233.43
770.90	233.43
771.22	233.28
771.55	233.28
771.87	233.32
772.20	233.29
772.52	233.61
772.85	234.12
773.17	234.10
773.50	234.04
773.82	233.91
774.15	233.66
774.47	233.30
774.80	233.23
775.12	233.12
775.45	233.01
775.77	233.04
776.09	232.98
776.42	232.91
776.74	233.01
777.07	232.86
777.39	232.92
777.72	232.79
778.04	232.84
778.36	232.67
778.69	232.67
779.01	232.68
779.33	232.27
779.66	231.74
779.98	231.59
780.31	231.53
780.63	231.68
780.95	231.62
781.28	231.57
781.60	231.47
781.92	231.41
782.25	231.47
782.57	231.41
782.89	231.38
783.22	231.33
783.54	231.15
783.86	231.22
784.19	231.10
784.51	231.24
784.83	231.13
785.16	231.10
785.48	230.99
785.80	230.94
786.12	230.96
786.45	230.80
786.77	230.83
787.09	230.81
787.42	230.63
787.74	230.66
788.06	230.62
788.38	230.59
788.71	230.55
789.03	230.48
789.35	230.55
789.67	230.41
789.99	230.32
790.32	230.26
790.64	230.26
790.96	230.67
791.28	230.51
791.61	230.47
791.93	230.50
792.25	230.44
792.57	230.67
792.89	230.48
793.21	230.58
793.54	230.57
793.86	230.50
794.18	230.42
794.50	230.25
794.82	230.22
795.14	230.27
795.47	230.39
795.79	230.41
796.11	230.19
796.43	230.16
796.75	230.18
797.07	230.10
797.39	230.05
797.71	229.77
798.04	229.79
798.36	229.75
798.68	229.72
799.00	229.71
799.32	229.46
799.64	229.54
799.96	229.46
800.28	229.47
800.60	229.40
800.92	229.40
801.24	229.44
801.56	229.50
801.89	229.43
802.21	229.37
802.53	229.21
802.85	229.35
803.17	229.61
803.49	229.54
803.81	229.51
804.13	229.44
804.45	229.25
804.77	229.24
805.09	229.28
805.41	229.14
805.73	229.06
806.05	228.94
806.37	228.95
806.69	228.97
807.01	228.94
807.33	228.96
807.65	228.78
807.97	228.96
808.28	228.90
808.60	228.93
808.92	228.84
809.24	229.19
809.56	229.08
809.88	228.85
810.20	228.86
810.52	229.03
810.84	228.92
811.16	228.92
811.48	228.88
811.80	229.00
812.12	229.01
812.43	229.17
812.75	229.26
813.07	229.24
813.39	229.24
813.71	229.15
814.03	229.09
814.35	229.15
814.67	228.93
814.98	228.89
815.30	228.86
815.62	228.77
815.94	228.43
816.26	228.68
816.58	228.62
816.89	228.65
817.21	228.48
817.53	228.58
817.85	228.66
818.17	228.63
818.48	228.48
818.80	228.67
819.12	228.49
819.44	228.32
819.76	228.28
820.07	228.24
820.39	228.25
820.71	228.28
821.03	228.35
821.34	228.29
821.66	228.42
821.98	228.45
822.30	228.44
822.61	228.75
822.93	228.48
823.25	228.39
823.57	228.31
823.88	228.40
824.20	228.34
824.52	228.27
824.83	228.26
825.15	228.22
825.47	228.09
825.79	228.18
826.10	228.26
826.42	228.19
826.74	228.23
827.05	228.18
827.37	228.28
827.69	228.19
828.00	228.25
828.32	228.14
828.64	228.03
828.95	228.29
829.27	228.17
829.58	228.18
829.90	228.32
830.22	228.37
830.53	228.26
830.85	228.21
831.17	228.14
831.48	228.15
831.80	228.16
832.11	228.10
832.43	228.02
832.75	227.95
833.06	228.25
833.38	228.05
833.69	227.99
834.01	227.90
834.32	227.88
834.64	227.81
834.96	227.82
835.27	227.86
835.59	227.72
835.90	227.56
836.22	227.54
836.53	227.38
836.85	227.29
837.16	227.74
837.48	227.75
837.79	227.92
838.11	227.94
838.42	227.89
838.74	227.95
839.05	227.94
839.37	227.87
839.68	227.57
840.00	227.63
840.31	227.78
840.63	227.77
840.94	227.71
841.26	227.60
841.57	227.58
841.88	227.60
842.20	227.45
842.51	227.42
842.83	227.33
843.14	227.73
843.46	227.85
843.77	227.60
844.08	227.56
844.40	227.42
844.71	227.33
845.03	227.26
845.34	227.23
845.65	227.21
845.97	227.27
846.28	227.29
846.60	227.29
846.91	227.16
847.22	227.19
847.54	227.33
847.85	227.42
848.16	227.44
848.48	227.41
848.79	227.61
849.10	227.74
849.42	227.90
849.73	227.46
850.04	227.30
850.36	227.10
850.67	227.25
850.98	227.28
851.30	227.36
851.61	227.45
851.92	227.52
852.23	227.65
852.55	227.66
852.86	227.65
853.17	227.66
853.49	227.81
853.80	227.85
854.11	227.84
854.42	227.87
854.74	227.79
855.05	227.70
855.36	227.52
855.67	227.46
855.99	227.43
856.30	228.03
856.61	228.14
856.92	228.16
857.23	228.10
857.55	228.09
857.86	228.02
858.17	228.04
858.48	227.90
858.79	227.83
859.11	227.88
859.42	227.84
859.73	227.76
860.04	227.70
860.35	227.58
860.66	227.43
860.98	227.38
861.29	227.49
861.60	227.46
861.91	227.52
862.22	227.45
862.53	227.45
862.84	226.87
863.16	226.97
863.47	226.91
863.78	226.91
864.09	226.99
864.40	227.04
864.71	227.02
865.02	227.11
865.33	227.04
865.64	226.93
865.95	226.93
866.27	227.31
866.58	227.23
866.89	227.30
867.20	227.34
867.51	227.31
867.82	227.28
868.13	227.43
868.44	227.33
868.75	227.41
869.06	227.35
869.37	227.45
869.68	227.26
869.99	227.32
870.30	227.31
870.61	227.23
870.92	227.18
871.23	227.19
871.54	227.16
871.85	227.22
872.16	227.27
872.47	227.27
872.78	226.92
873.09	227.01
873.40	226.98
873.71	226.92
874.02	226.95
874.33	226.88
874.64	226.81
874.95	226.95
875.26	226.84
875.56	226.85
875.87	226.87
876.18	226.81
876.49	227.35
876.80	227.30
877.11	227.25
877.42	227.22
877.73	227.24
878.04	227.22
878.35	227.22
878.66	227.31
878.96	227.31
879.27	227.39
879.58	227.30
879.89	227.29
880.20	227.45
880.51	227.36
880.82	227.43
881.12	227.49
881.43	227.39
881.74	227.37
882.05	227.31
882.36	227.34
882.67	227.42
882.97	226.84
883.28	226.90
883.59	226.92
883.90	227.00
884.21	227.06
884.51	227.04
884.82	226.99
885.13	226.93
885.44	226.96
885.74	226.91
886.05	226.87
886.36	226.90
886.67	226.72
886.98	227.00
887.28	227.05
887.59	227.03
887.90	227.08
888.20	227.02
888.51	227.16
888.82	227.03
889.13	227.06
889.43	227.55
889.74	227.45
890.05	227.41
890.35	227.37
890.66	227.27
890.97	227.29
891.28	227.26
891.58	227.28
891.89	227.25
892.20	227.23
892.50	227.24
892.81	227.15
893.12	227.22
893.42	226.98
893.73	226.95
894.04	226.99
894.34	226.95
894.65	226.97
894.95	226.86
895.26	226.90
895.57	227.10
895.87	226.61
896.18	226.72
896.48	226.72
896.79	226.69
897.10	226.77
897.40	226.73
897.71	226.81
898.01	226.75
898.32	226.78
898.63	226.76
898.93	226.80
899.24	226.87
899.54	226.84
899.85	226.92
900.15	226.88
900.46	226.86
900.76	226.94
901.07	226.94
901.38	226.95
901.68	227.08
901.99	226.79
902.29	226.80
902.60	226.75
902.90	226.74
903.21	226.75
903.51	226.69
903.82	226.77
904.12	226.80
904.43	226.81
904.73	226.80
905.03	226.85
905.34	227.32
905.64	227.30
905.95	227.26
906.25	227.19
906.56	227.09
906.86	227.05
907.17	227.03
907.47	227.09
907.77	227.09
908.08	226.89
908.38	226.95
908.69	226.95
908.99	227.05
909.30	227.11
909.60	227.08
909.90	227.13
910.21	227.00
910.51	226.92
910.81	226.96
911.12	226.97
911.42	226.98
911.73	226.52
912.03	226.53
912.33	226.65
912.64	226.68
912.94	226.70
913.24	226.68
913.55	226.61
913.85	226.58
914.15	226.59
914.46	226.68
914.76	226.67
915.06	226.67
915.37	226.55
915.67	226.46
915.97	226.48
916.27	226.33
916.58	226.39
916.88	226.37
917.18	226.32
917.49	226.67
917.79	226.65
918.09	226.73
918.39	226.83
918.70	226.85
919.00	226.84
919.30	227.03
919.60	226.99
919.91	226.97
920.21	226.95
920.51	226.90
920.81	226.88
921.12	226.89
921.42	226.85
921.72	226.90
922.02	226.96
922.32	227.05
922.63	227.10
922.93	227.33
923.23	227.35
923.53	227.37
923.83	227.07
924.13	227.09
924.44	227.05
924.74	227.10
925.04	227.21
925.34	227.20
925.64	226.99
925.94	227.03
926.24	227.32
926.55	227.38
926.85	227.44
927.15	227.42
927.45	227.47
927.75	227.48
928.05	227.55
928.35	227.52
928.65	227.61
928.95	227.70
929.26	227.55
929.56	227.66
929.86	227.64
930.16	227.58
930.46	227.56
930.76	227.55
931.06	227.40
931.36	227.24
931.66	227.29
931.96	227.40
932.26	227.41
932.56	227.19
932.86	227.19
933.16	227.17
933.46	227.15
933.76	227.09
934.06	227.21
934.36	227.30
934.66	227.28
934.96	227.24
935.26	227.27
935.56	227.32
935.86	227.18
936.16	227.10
936.46	227.03
936.76	226.99
937.06	226.97
937.36	226.98
937.66	226.96
937.96	226.93
938.26	226.81
938.56	226.69
938.86	226.68
939.16	226.74
939.46	226.76
939.76	226.73
940.06	226.70
940.35	226.55
940.65	226.30
940.95	226.40
941.25	226.24
941.55	226.15
941.85	226.16
942.15	226.24
942.45	226.38
942.75	226.39
943.04	226.32
943.34	226.43
943.64	226.35
943.94	226.30
944.24	226.35
944.54	226.44
944.84	226.42
945.13	226.32
945.43	226.17
945.73	226.15
946.03	226.16
946.33	226.12
946.62	226.10
946.92	226.11
947.22	226.05
947.52	226.04
947.82	226.06
948.11	225.90
948.41	225.78
948.71	225.60
949.01	225.58
949.31	225.58
949.60	225.48
949.90	225.60
950.20	225.56
950.50	225.51
950.79	225.45
951.09	225.55
951.39	225.53
951.69	225.55
951.98	225.66
952.28	225.69
952.58	225.75
952.87	225.80
953.17	225.91
953.47	225.94
953.76	225.97
954.06	225.90
954.36	225.83
954.66	225.87
954.95	226.01
955.25	226.10
955.55	226.21
955.84	226.14
956.14	226.10
956.44	226.19
956.73	226.13
957.03	226.14
957.32	226.13
957.62	226.16
957.92	226.23
958.21	226.22
958.51	226.75
958.81	226.75
959.10	226.78
959.40	226.84
959.69	226.84
959.99	226.93
960.29	226.94
960.58	227.01
960.88	227.23
961.17	227.19
961.47	227.25
961.76	227.13
962.06	227.21
962.36	227.16
962.65	227.16
962.95	227.25
963.24	227.24
963.54	227.33
963.83	227.39
964.13	227.37
964.42	227.23
964.72	226.89
965.01	226.89
965.31	226.91
965.60	226.83
965.90	227.04
966.19	226.92
966.49	226.94
966.78	226.92
967.08	226.88
967.37	226.89
967.67	226.78
967.96	226.93
968.26	226.96
968.55	227.02
968.85	227.06
969.14	226.97
969.43	226.96
969.73	226.88
970.02	226.78
970.32	226.75
970.61	226.75
970.91	226.60
971.20	226.53
971.49	226.43
971.79	226.48
972.08	226.16
972.38	226.17
972.67	226.17
972.96	226.20
973.26	226.00
973.55	226.09
973.85	226.10
974.14	226.00
974.43	226.00
974.73	225.99
975.02	225.90
975.31	225.87
975.61	225.78
975.90	225.77
976.19	225.80
976.49	225.91
976.78	225.95
977.07	225.92
977.37	225.93
977.66	226.00
977.95	225.95
978.24	226.01
978.54	226.22
978.83	226.14
979.12	226.11
979.42	226.11
979.71	226.04
980.00	226.01
980.29	226.08
980.59	226.01
980.88	226.08
981.17	226.08
981.46	226.12
981.76	226.18
982.05	226.31
982.34	226.38
982.63	226.35
982.93	226.38
983.22	226.49
983.51	226.57
983.80	226.65
984.09	226.60
984.39	226.51
984.68	226.35
984.97	226.46
985.26	226.42
985.55	226.50
985.85	226.45
986.14	226.51
986.43	226.59
986.72	226.52
987.01	226.42
987.30	226.40
987.59	226.39
987.89	226.40
988.18	226.24
988.47	226.14
988.76	226.11
989.05	226.01
989.34	225.94
989.63	226.05
989.92	225.95
990.22	225.94
990.51	225.92
990.80	225.85
991.09	225.81
991.38	225.87
991.67	225.82
991.96	225.71
992.25	225.67
992.54	225.54
992.83	225.57
993.12	225.49
993.41	225.55
993.70	225.80
993.99	225.94
994.28	226.00
994.58	226.10
994.87	226.01
995.16	226.02
995.45	226.00
995.74	225.84
996.03	225.89
996.32	225.96
996.61	226.10
996.90	226.17
997.19	226.24
997.48	226.28
997.77	226.36
998.06	226.44
998.34	226.46
998.63	226.50
998.92	226.47
999.21	226.61
999.50	226.59
999.79	226.40
1000.08	226.32
1000.37	226.27
1000.66	226.22
1000.95	226.40
1001.24	226.46
1001.53	226.51
1001.82	226.55
1002.11	226.53
1002.40	226.58
1002.68	226.75
1002.97	227.05
1003.26	226.97
1003.55	226.88
1003.84	226.87
1004.13	227.09
1004.42	227.02
1004.71	227.03
1004.99	227.12
1005.28	227.21
1005.57	227.24
1005.86	227.22
1006.15	227.26
1006.44	227.25
1006.72	227.35
1007.01	227.26
1007.30	227.29
1007.59	227.26
1007.88	227.29
1008.17	227.26
1008.45	227.18
1008.74	226.99
1009.03	226.81
1009.32	226.82
1009.60	226.87
1009.89	226.84
1010.18	226.58
1010.47	226.61
1010.76	226.55
1011.04	226.51
1011.33	226.53
1011.62	226.56
1011.91	226.58
1012.19	226.59
1012.48	226.62
1012.77	226.58
1013.05	226.76
1013.34	226.75
1013.63	226.73
1013.92	226.67
1014.20	226.67
1014.49	226.74
1014.78	226.72
1015.06	226.48
1015.35	226.48
1015.64	226.53
1015.92	226.56
1016.21	226.62
1016.50	226.67
1016.78	226.77
1017.07	226.83
1017.36	226.71
1017.64	226.67
1017.93	226.68
1018.22	226.60
1018.50	226.59
1018.79	226.62
1019.08	226.33
1019.36	226.32
1019.65	226.28
1019.93	226.41
1020.22	226.42
1020.51	226.58
1020.79	226.56
1021.08	225.55
1021.36	225.65
1021.65	227.25
1021.94	224.60
1022.22	226.60
1022.51	225.60
1022.79	228.40
1023.08	226.25
1023.36	231.35
1023.65	225.30
>>>>>End Processed Spectral Data<<<<<
