SpectraSuite Data File
++++++++++++++++++++++++++++++++++++
Date: Wed Sep 04 17:57:06 EDT 2013
User: lab3
Dark Spectrum Present: Yes
Reference Spectrum Present: No
Number of Sampled Component Spectra: 1
Spectrometers: USB2E7196
Integration Time (usec): 170000 (USB2E7196)
Spectra Averaged: 20 (USB2E7196)
Boxcar Smoothing: 10 (USB2E7196)
Correct for Electrical Dark: No (USB2E7196)
Strobe/Lamp Enabled: No (USB2E7196)
Correct for Detector Non-linearity: No (USB2E7196)
Correct for Stray Light: No (USB2E7196)
Number of Pixels in Processed Spectrum: 2048
>>>>>Begin Processed Spectral Data<<<<<
339.09	0.00
339.48	213.60
339.86	214.15
340.24	215.85
340.63	215.95
341.01	225.55
341.39	220.45
341.78	221.85
342.16	222.85
342.54	222.95
342.93	212.11
343.31	222.83
343.69	223.39
344.07	223.89
344.46	224.37
344.84	224.94
345.22	224.93
345.60	225.25
345.99	225.45
346.37	225.60
346.75	225.79
347.13	225.86
347.52	225.95
347.90	226.20
348.28	226.28
348.66	226.45
349.05	226.33
349.43	226.36
349.81	226.36
350.19	226.47
350.57	226.47
350.96	226.61
351.34	226.70
351.72	226.79
352.10	226.90
352.48	226.97
352.87	226.87
353.25	226.97
353.63	226.96
354.01	226.93
354.39	227.00
354.77	227.02
355.15	227.23
355.54	227.20
355.92	227.07
356.30	227.09
356.68	227.43
357.06	227.61
357.44	227.70
357.82	227.75
358.20	228.22
358.58	228.37
358.97	228.39
359.35	228.56
359.73	228.70
360.11	228.74
360.49	228.79
360.87	228.92
361.25	229.03
361.63	229.21
362.01	229.36
362.39	229.34
362.77	229.35
363.15	229.32
363.53	229.33
363.91	229.46
364.29	229.50
364.67	229.06
365.05	229.04
365.43	229.16
365.81	229.30
366.19	229.22
366.57	229.37
366.95	229.40
367.33	229.29
367.71	229.25
368.09	229.37
368.47	229.32
368.85	229.30
369.23	229.35
369.61	229.17
369.99	229.35
370.37	229.42
370.75	229.73
371.13	229.58
371.51	229.55
371.89	229.58
372.27	229.61
372.65	229.66
373.03	229.65
373.41	229.55
373.78	229.49
374.16	229.25
374.54	229.02
374.92	228.96
375.30	228.94
375.68	228.83
376.06	228.78
376.44	228.72
376.82	228.68
377.19	228.65
377.57	228.67
377.95	228.40
378.33	228.34
378.71	227.95
379.09	228.00
379.47	228.00
379.84	227.82
380.22	227.64
380.60	227.47
380.98	227.36
381.36	227.31
381.73	227.12
382.11	227.06
382.49	227.04
382.87	226.91
383.25	226.85
383.62	227.39
384.00	227.23
384.38	227.22
384.76	227.26
385.13	227.30
385.51	227.20
385.89	227.17
386.27	227.14
386.64	227.20
387.02	227.10
387.40	227.06
387.78	227.10
388.15	227.13
388.53	227.10
388.91	227.05
389.29	226.93
389.66	227.05
390.04	226.97
390.42	227.06
390.79	227.05
391.17	227.02
391.55	226.44
391.92	226.37
392.30	226.41
392.68	226.39
393.05	226.38
393.43	226.40
393.81	226.43
394.18	226.34
394.56	226.32
394.94	226.45
395.31	226.44
395.69	226.55
396.06	226.60
396.44	226.70
396.82	226.75
397.19	227.10
397.57	227.09
397.95	227.23
398.32	227.13
398.70	227.20
399.07	227.37
399.45	227.40
399.82	227.58
400.20	227.59
400.58	227.57
400.95	227.51
401.33	227.71
401.70	228.09
402.08	228.25
402.45	228.40
402.83	228.61
403.20	228.72
403.58	228.80
403.95	229.11
404.33	229.36
404.71	229.55
405.08	229.97
405.46	230.20
405.83	230.41
406.21	230.67
406.58	231.07
406.96	231.29
407.33	231.62
407.70	231.99
408.08	232.74
408.45	233.25
408.83	233.76
409.20	234.13
409.58	234.34
409.95	234.93
410.33	235.43
410.70	235.90
411.08	236.56
411.45	237.23
411.82	237.74
412.20	238.50
412.57	239.40
412.95	239.75
413.32	240.59
413.69	241.45
414.07	242.42
414.44	243.38
414.82	244.49
415.19	245.74
415.56	246.95
415.94	247.91
416.31	249.35
416.68	250.78
417.06	252.47
417.43	254.15
417.81	255.85
418.18	257.73
418.55	259.60
418.93	261.58
419.30	263.70
419.67	265.97
420.04	268.16
420.42	270.49
420.79	273.63
421.16	276.32
421.54	279.39
421.91	282.39
422.28	285.46
422.66	288.68
423.03	292.18
423.40	295.50
423.77	299.01
424.15	302.55
424.52	306.28
424.89	310.43
425.26	314.30
425.64	318.10
426.01	322.28
426.38	326.73
426.75	331.31
427.13	335.85
427.50	340.55
427.87	345.56
428.24	350.56
428.61	355.04
428.99	360.49
429.36	365.97
429.73	371.54
430.10	377.07
430.47	382.74
430.85	388.29
431.22	394.52
431.59	401.39
431.96	407.75
432.33	414.70
432.70	421.33
433.08	429.34
433.45	436.81
433.82	444.15
434.19	452.27
434.56	460.30
434.93	468.00
435.30	475.85
435.68	484.39
436.05	492.91
436.42	501.38
436.79	509.01
437.16	517.36
437.53	526.16
437.90	534.96
438.27	543.66
438.64	552.76
439.01	561.11
439.38	568.30
439.75	575.36
440.13	583.36
440.50	590.93
440.87	596.94
441.24	603.26
441.61	610.31
441.98	615.46
442.35	621.35
442.72	627.44
443.09	633.31
443.46	636.77
443.83	639.07
444.20	640.87
444.57	643.64
444.94	644.72
445.31	645.92
445.68	647.16
446.05	647.24
446.42	645.80
446.79	644.27
447.16	642.59
447.53	641.12
447.90	637.48
448.27	633.71
448.64	628.80
449.01	625.09
449.37	618.90
449.74	612.80
450.11	606.02
450.48	598.08
450.85	590.03
451.22	583.02
451.59	576.36
451.96	570.08
452.33	561.95
452.70	554.62
453.07	545.67
453.43	536.57
453.80	528.20
454.17	520.19
454.54	512.58
454.91	504.33
455.28	496.55
455.65	489.05
456.02	482.18
456.38	475.80
456.75	468.11
457.12	461.49
457.49	455.24
457.86	448.69
458.23	443.53
458.59	437.73
458.96	432.07
459.33	426.89
459.70	421.72
460.07	417.57
460.43	412.89
460.80	408.67
461.17	404.85
461.54	400.72
461.91	396.86
462.27	392.86
462.64	389.72
463.01	386.20
463.38	382.91
463.74	378.94
464.11	375.93
464.48	373.29
464.85	370.44
465.21	368.30
465.58	366.06
465.95	363.34
466.32	361.15
466.68	358.90
467.05	356.70
467.42	354.47
467.78	352.10
468.15	349.90
468.52	348.36
468.88	346.16
469.25	344.34
469.62	342.81
469.98	341.30
470.35	339.70
470.72	338.21
471.08	336.50
471.45	335.27
471.82	333.93
472.18	332.46
472.55	331.49
472.92	330.12
473.28	328.98
473.65	327.86
474.02	326.71
474.38	325.80
474.75	324.99
475.11	324.19
475.48	323.71
475.85	323.11
476.21	322.41
476.58	321.98
476.94	321.52
477.31	321.07
477.67	320.63
478.04	320.45
478.41	320.21
478.77	320.41
479.14	320.04
479.50	320.02
479.87	320.11
480.23	320.10
480.60	320.01
480.96	319.99
481.33	320.30
481.69	320.58
482.06	320.78
482.42	321.08
482.79	321.46
483.15	321.80
483.52	322.38
483.88	322.97
484.25	323.51
484.61	324.22
484.98	324.84
485.34	325.78
485.71	326.67
486.07	327.56
486.44	328.23
486.80	329.35
487.17	330.44
487.53	331.80
487.90	333.22
488.26	334.96
488.62	336.68
488.99	338.35
489.35	340.17
489.72	342.22
490.08	344.19
490.44	346.23
490.81	348.50
491.17	350.76
491.54	353.12
491.90	355.60
492.26	358.33
492.63	361.21
492.99	363.90
493.36	366.89
493.72	370.26
494.08	373.75
494.45	377.60
494.81	381.49
495.17	385.28
495.54	389.43
495.90	393.72
496.26	398.17
496.63	402.65
496.99	407.40
497.35	412.43
497.72	417.70
498.08	423.14
498.44	428.72
498.80	434.67
499.17	440.82
499.53	447.19
499.89	453.82
500.26	460.65
500.62	467.80
500.98	475.26
501.34	482.71
501.71	490.45
502.07	498.20
502.43	506.42
502.79	514.95
503.16	523.71
503.52	532.67
503.88	541.97
504.24	551.80
504.60	561.79
504.97	572.06
505.33	582.50
505.69	593.68
506.05	604.71
506.41	615.94
506.78	627.57
507.14	639.55
507.50	651.86
507.86	664.49
508.22	677.45
508.59	690.43
508.95	704.06
509.31	718.38
509.67	732.61
510.03	746.89
510.39	761.62
510.75	776.50
511.12	791.87
511.48	807.54
511.84	823.23
512.20	839.18
512.56	855.47
512.92	872.35
513.28	889.01
513.64	906.22
514.00	923.78
514.37	941.51
514.73	959.69
515.09	978.01
515.45	996.48
515.81	1015.10
516.17	1034.25
516.53	1052.97
516.89	1071.50
517.25	1091.02
517.61	1111.19
517.97	1131.40
518.33	1151.62
518.69	1171.83
519.05	1192.21
519.41	1212.90
519.77	1234.07
520.13	1254.84
520.49	1275.47
520.85	1298.00
521.21	1319.24
521.57	1340.61
521.93	1361.48
522.29	1382.79
522.65	1403.35
523.01	1424.30
523.37	1444.78
523.73	1465.61
524.09	1486.23
524.45	1507.02
524.81	1528.00
525.17	1548.85
525.53	1569.42
525.89	1590.14
526.25	1610.85
526.61	1631.32
526.97	1652.55
527.33	1673.79
527.68	1695.61
528.04	1716.94
528.40	1736.64
528.76	1757.68
529.12	1778.31
529.48	1799.21
529.84	1819.32
530.20	1840.75
530.56	1861.68
530.91	1882.79
531.27	1903.40
531.63	1924.24
531.99	1944.73
532.35	1964.77
532.71	1985.09
533.07	2005.93
533.42	2026.00
533.78	2046.35
534.14	2066.22
534.50	2084.99
534.86	2103.85
535.21	2121.83
535.57	2140.56
535.93	2158.23
536.29	2176.07
536.65	2194.25
537.00	2211.83
537.36	2229.69
537.72	2246.16
538.08	2263.05
538.44	2279.85
538.79	2296.18
539.15	2312.62
539.51	2328.45
539.87	2343.40
540.22	2357.41
540.58	2371.70
540.94	2385.31
541.29	2397.76
541.65	2410.57
542.01	2423.35
542.37	2434.21
542.72	2444.65
543.08	2455.16
543.44	2466.85
543.79	2476.81
544.15	2486.25
544.51	2496.29
544.87	2505.60
545.22	2514.42
545.58	2522.27
545.94	2529.12
546.29	2535.88
546.65	2541.85
547.01	2547.92
547.36	2553.82
547.72	2559.30
548.07	2563.14
548.43	2568.29
548.79	2573.08
549.14	2577.20
549.50	2581.22
549.86	2585.14
550.21	2589.06
550.57	2592.42
550.92	2593.92
551.28	2595.39
551.64	2597.89
551.99	2599.55
552.35	2601.20
552.70	2603.31
553.06	2605.33
553.41	2606.82
553.77	2608.48
554.13	2610.52
554.48	2612.01
554.84	2613.50
555.19	2614.83
555.55	2616.39
555.90	2615.65
556.26	2614.96
556.61	2613.50
556.97	2611.22
557.32	2610.83
557.68	2609.70
558.03	2608.07
558.39	2606.49
558.74	2605.86
559.10	2602.89
559.45	2599.43
559.81	2595.22
560.16	2589.71
560.52	2584.82
560.87	2580.74
561.23	2575.18
561.58	2569.18
561.94	2562.27
562.29	2554.91
562.64	2547.70
563.00	2539.89
563.35	2533.29
563.71	2526.43
564.06	2520.12
564.42	2513.84
564.77	2507.05
565.12	2499.58
565.48	2492.07
565.83	2484.22
566.19	2475.80
566.54	2467.93
566.89	2460.33
567.25	2452.53
567.60	2445.54
567.96	2438.05
568.31	2429.79
568.66	2421.06
569.02	2412.15
569.37	2404.09
569.72	2396.27
570.08	2386.91
570.43	2377.46
570.78	2368.37
571.14	2359.08
571.49	2348.94
571.84	2339.06
572.20	2328.19
572.55	2318.30
572.90	2307.40
573.26	2297.02
573.61	2286.27
573.96	2275.19
574.31	2262.94
574.67	2251.36
575.02	2238.75
575.37	2225.75
575.72	2212.51
576.08	2200.65
576.43	2187.99
576.78	2174.64
577.13	2161.11
577.49	2148.61
577.84	2136.60
578.19	2124.64
578.54	2111.88
578.90	2099.79
579.25	2087.51
579.60	2074.50
579.95	2061.46
580.30	2048.30
580.66	2035.03
581.01	2021.34
581.36	2007.27
581.71	1994.63
582.06	1981.05
582.42	1968.41
582.77	1955.72
583.12	1943.88
583.47	1931.60
583.82	1919.85
584.17	1907.93
584.53	1895.97
584.88	1883.06
585.23	1869.81
585.58	1855.52
585.93	1842.39
586.28	1829.01
586.63	1814.82
586.98	1800.88
587.34	1787.35
587.69	1774.00
588.04	1761.41
588.39	1749.23
588.74	1736.92
589.09	1724.87
589.44	1712.24
589.79	1700.29
590.14	1688.64
590.49	1676.15
590.84	1663.83
591.19	1651.38
591.54	1639.04
591.89	1626.58
592.25	1616.39
592.60	1604.95
592.95	1593.40
593.30	1581.39
593.65	1569.28
594.00	1557.36
594.35	1547.62
594.70	1535.85
595.05	1524.72
595.40	1512.35
595.75	1500.46
596.10	1489.34
596.45	1477.58
596.80	1466.86
597.15	1455.18
597.50	1443.05
597.85	1431.80
598.19	1419.99
598.54	1408.30
598.89	1397.36
599.24	1386.81
599.59	1374.77
599.94	1363.94
600.29	1353.52
600.64	1343.02
600.99	1332.29
601.34	1322.76
601.69	1311.35
602.04	1301.56
602.39	1291.75
602.74	1282.96
603.08	1273.64
603.43	1264.19
603.78	1254.40
604.13	1244.80
604.48	1235.07
604.83	1225.42
605.18	1215.60
605.53	1206.13
605.87	1196.90
606.22	1187.96
606.57	1178.68
606.92	1169.32
607.27	1160.35
607.62	1151.49
607.96	1143.01
608.31	1135.01
608.66	1126.52
609.01	1117.93
609.36	1109.36
609.70	1100.61
610.05	1091.68
610.40	1082.97
610.75	1074.32
611.10	1065.99
611.44	1057.38
611.79	1049.15
612.14	1041.31
612.49	1033.30
612.83	1025.90
613.18	1018.26
613.53	1010.42
613.88	1002.35
614.22	994.89
614.57	986.90
614.92	979.29
615.27	971.80
615.61	964.29
615.96	956.83
616.31	949.26
616.65	942.11
617.00	934.95
617.35	927.75
617.70	920.63
618.04	913.50
618.39	906.77
618.74	900.40
619.08	893.54
619.43	886.33
619.78	879.34
620.12	872.03
620.47	865.16
620.82	857.98
621.16	851.15
621.51	844.45
621.85	837.94
622.20	831.10
622.55	824.29
622.89	817.78
623.24	811.17
623.59	804.95
623.93	798.68
624.28	792.61
624.62	786.81
624.97	781.11
625.32	775.25
625.66	769.17
626.01	762.69
626.35	757.18
626.70	751.67
627.04	746.45
627.39	741.00
627.73	735.58
628.08	730.51
628.43	725.30
628.77	719.88
629.12	714.68
629.46	709.78
629.81	704.98
630.15	700.12
630.50	695.30
630.84	690.39
631.19	685.63
631.53	680.76
631.88	675.60
632.22	670.53
632.57	666.16
632.91	661.46
633.26	657.27
633.60	652.60
633.95	648.00
634.29	643.28
634.64	638.77
634.98	634.00
635.32	629.69
635.67	625.68
636.01	621.69
636.36	617.31
636.70	613.30
637.05	609.08
637.39	604.95
637.73	600.83
638.08	596.99
638.42	592.62
638.77	588.36
639.11	584.02
639.45	579.73
639.80	575.20
640.14	571.16
640.49	567.13
640.83	563.40
641.17	559.91
641.52	556.30
641.86	552.77
642.20	549.57
642.55	545.71
642.89	542.00
643.23	538.27
643.58	535.16
643.92	531.51
644.26	528.25
644.61	525.09
644.95	521.71
645.29	518.13
645.64	515.11
645.98	512.04
646.32	509.19
646.66	506.13
647.01	503.14
647.35	500.44
647.69	497.44
648.04	494.46
648.38	491.43
648.72	488.42
649.06	485.35
649.41	482.25
649.75	479.39
650.09	476.51
650.43	473.65
650.78	470.59
651.12	467.73
651.46	464.86
651.80	461.98
652.14	459.29
652.49	456.84
652.83	454.13
653.17	451.46
653.51	448.61
653.85	446.21
654.20	443.78
654.54	441.13
654.88	438.66
655.22	436.46
655.56	434.10
655.90	431.74
656.25	429.49
656.59	427.32
656.93	425.16
657.27	423.07
657.61	420.71
657.95	418.55
658.29	416.40
658.64	414.27
658.98	411.99
659.32	409.70
659.66	407.43
660.00	405.23
660.34	403.25
660.68	401.30
661.02	399.24
661.36	397.21
661.70	395.13
662.05	393.22
662.39	391.21
662.73	389.28
663.07	387.65
663.41	385.78
663.75	383.81
664.09	382.03
664.43	380.07
664.77	378.46
665.11	376.69
665.45	374.95
665.79	373.27
666.13	371.58
666.47	370.01
666.81	368.47
667.15	366.86
667.49	365.21
667.83	363.87
668.17	362.39
668.51	360.94
668.85	359.54
669.19	358.35
669.53	356.80
669.87	355.25
670.21	353.66
670.55	352.15
670.89	351.07
671.23	349.67
671.57	348.26
671.91	346.93
672.25	345.58
672.58	344.37
672.92	342.98
673.26	341.71
673.60	340.48
673.94	339.22
674.28	338.14
674.62	337.05
674.96	335.71
675.30	334.62
675.64	333.37
675.97	332.15
676.31	330.73
676.65	329.43
676.99	328.49
677.33	327.20
677.67	326.17
678.01	324.83
678.34	323.75
678.68	322.78
679.02	321.65
679.36	320.68
679.70	319.68
680.04	318.70
680.37	317.70
680.71	316.62
681.05	315.72
681.39	314.71
681.73	313.77
682.06	312.87
682.40	311.90
682.74	311.14
683.08	310.43
683.42	309.54
683.75	308.83
684.09	307.86
684.43	307.24
684.77	306.37
685.10	305.52
685.44	304.72
685.78	303.96
686.12	303.13
686.45	302.40
686.79	301.51
687.13	300.87
687.46	300.18
687.80	299.72
688.14	298.91
688.48	298.20
688.81	297.43
689.15	296.83
689.49	296.05
689.82	295.38
690.16	294.54
690.50	293.84
690.83	292.95
691.17	292.16
691.51	291.46
691.84	290.84
692.18	290.25
692.52	289.47
692.85	288.88
693.19	288.54
693.52	287.81
693.86	287.22
694.20	286.54
694.53	285.97
694.87	285.15
695.21	284.49
695.54	283.88
695.88	283.19
696.21	282.46
696.55	281.94
696.88	281.24
697.22	280.60
697.56	280.10
697.89	279.63
698.23	279.13
698.56	278.57
698.90	278.14
699.23	277.47
699.57	276.96
699.90	276.38
700.24	275.70
700.58	275.29
700.91	274.94
701.25	274.80
701.58	274.61
701.92	274.34
702.25	273.93
702.59	273.47
702.92	273.09
703.26	272.70
703.59	272.20
703.93	272.19
704.26	271.84
704.60	271.43
704.93	271.03
705.26	270.59
705.60	270.18
705.93	269.65
706.27	269.38
706.60	269.13
706.94	268.84
707.27	268.35
707.61	268.06
707.94	267.60
708.27	266.83
708.61	266.11
708.94	265.62
709.28	265.17
709.61	264.77
709.94	264.41
710.28	264.00
710.61	263.64
710.95	262.82
711.28	262.76
711.61	262.36
711.95	262.05
712.28	261.60
712.61	261.27
712.95	261.22
713.28	261.07
713.61	260.66
713.95	260.29
714.28	260.01
714.61	259.52
714.95	259.16
715.28	258.80
715.61	258.49
715.95	258.18
716.28	257.93
716.61	257.65
716.95	257.24
717.28	256.94
717.61	256.72
717.94	256.51
718.28	255.88
718.61	255.62
718.94	255.29
719.27	255.01
719.61	254.79
719.94	254.29
720.27	253.85
720.60	253.59
720.94	253.30
721.27	253.09
721.60	252.93
721.93	252.66
722.27	252.64
722.60	252.41
722.93	252.08
723.26	251.90
723.59	251.63
723.93	251.52
724.26	251.34
724.59	251.05
724.92	250.77
725.25	250.64
725.59	250.40
725.92	250.24
726.25	250.16
726.58	249.93
726.91	249.77
727.24	249.64
727.57	249.43
727.91	249.18
728.24	249.01
728.57	248.82
728.90	248.75
729.23	248.35
729.56	248.45
729.89	248.34
730.22	248.15
730.55	248.01
730.89	247.85
731.22	247.62
731.55	247.42
731.88	247.25
732.21	247.07
732.54	246.87
732.87	246.74
733.20	246.52
733.53	246.44
733.86	246.30
734.19	246.08
734.52	245.93
734.85	246.06
735.18	245.85
735.51	245.85
735.84	245.70
736.17	245.70
736.50	245.27
736.83	245.60
737.16	245.35
737.49	245.12
737.82	244.89
738.15	244.79
738.48	244.68
738.81	244.60
739.14	244.37
739.47	244.20
739.80	244.02
740.13	243.93
740.46	243.68
740.79	243.51
741.12	243.33
741.45	243.18
741.78	242.79
742.11	242.78
742.44	242.49
742.77	242.46
743.10	242.31
743.43	242.17
743.75	241.50
744.08	242.01
744.41	241.96
744.74	241.89
745.07	241.67
745.40	241.63
745.73	241.56
746.06	241.40
746.39	241.39
746.71	241.26
747.04	241.06
747.37	240.92
747.70	240.85
748.03	240.76
748.36	240.72
748.68	240.57
749.01	240.29
749.34	240.16
749.67	240.03
750.00	239.95
750.33	240.14
750.65	240.14
750.98	239.42
751.31	239.38
751.64	239.30
751.97	239.39
752.29	239.30
752.62	239.07
752.95	239.03
753.28	238.76
753.60	238.53
753.93	238.60
754.26	238.54
754.59	238.31
754.91	238.16
755.24	237.94
755.57	237.85
755.90	237.74
756.22	237.55
756.55	237.30
756.88	237.09
757.20	236.63
757.53	236.41
757.86	236.29
758.19	236.12
758.51	235.93
758.84	235.68
759.17	235.51
759.49	235.43
759.82	235.52
760.15	235.56
760.47	235.49
760.80	235.25
761.13	235.23
761.45	235.06
761.78	234.99
762.11	234.96
762.43	234.85
762.76	234.77
763.08	234.79
763.41	234.82
763.74	234.75
764.06	234.70
764.39	234.60
764.71	234.58
765.04	234.44
765.37	234.34
765.69	234.27
766.02	234.20
766.34	234.12
766.67	233.86
767.00	233.84
767.32	234.05
767.65	234.25
767.97	234.16
768.30	234.20
768.62	234.09
768.95	234.00
769.27	233.94
769.60	233.92
769.92	233.78
770.25	233.57
770.57	233.42
770.90	233.35
771.22	233.33
771.55	233.21
771.87	233.23
772.20	233.11
772.52	233.46
772.85	233.94
773.17	233.87
773.50	233.80
773.82	233.63
774.15	233.36
774.47	232.94
774.80	232.79
775.12	232.75
775.45	232.68
775.77	232.67
776.09	232.66
776.42	232.63
776.74	232.70
777.07	232.63
777.39	232.66
777.72	232.59
778.04	232.57
778.36	232.46
778.69	232.45
779.01	232.53
779.33	232.10
779.66	231.47
779.98	231.36
780.31	231.39
780.63	231.62
780.95	231.70
781.28	231.73
781.60	231.72
781.92	231.65
782.25	231.64
782.57	231.58
782.89	231.43
783.22	231.40
783.54	231.22
783.86	231.25
784.19	231.13
784.51	231.24
784.83	231.10
785.16	231.16
785.48	231.07
785.80	231.00
786.12	230.95
786.45	230.97
786.77	231.02
787.09	230.91
787.42	230.68
787.74	230.65
788.06	230.63
788.38	230.54
788.71	230.52
789.03	230.49
789.35	230.53
789.67	230.51
789.99	230.52
790.32	230.51
790.64	230.52
790.96	230.88
791.28	230.76
791.61	230.73
791.93	230.72
792.25	230.72
792.57	231.02
792.89	230.87
793.21	230.87
793.54	230.79
793.86	230.77
794.18	230.75
794.50	230.63
794.82	230.59
795.14	230.63
795.47	230.64
795.79	230.68
796.11	230.52
796.43	230.51
796.75	230.38
797.07	230.41
797.39	230.36
797.71	230.02
798.04	230.02
798.36	230.07
798.68	229.98
799.00	229.96
799.32	229.70
799.64	229.81
799.96	229.80
800.28	229.88
800.60	229.80
800.92	229.81
801.24	229.77
801.56	229.81
801.89	229.79
802.21	229.80
802.53	229.67
802.85	229.79
803.17	230.00
803.49	230.04
803.81	229.92
804.13	229.84
804.45	229.73
804.77	229.69
805.09	229.64
805.41	229.61
805.73	229.51
806.05	229.41
806.37	229.41
806.69	229.36
807.01	229.29
807.33	229.29
807.65	229.09
807.97	229.24
808.28	229.12
808.60	229.10
808.92	229.06
809.24	229.33
809.56	229.20
809.88	229.00
810.20	228.98
810.52	229.16
810.84	229.11
811.16	229.15
811.48	229.10
811.80	229.27
812.12	229.24
812.43	229.31
812.75	229.34
813.07	229.26
813.39	229.28
813.71	229.23
814.03	229.20
814.35	229.26
814.67	229.09
814.98	229.11
815.30	229.05
815.62	228.97
815.94	228.60
816.26	228.80
816.58	228.64
816.89	228.63
817.21	228.48
817.53	228.47
817.85	228.37
818.17	228.31
818.48	228.15
818.80	228.30
819.12	228.18
819.44	228.05
819.76	227.98
820.07	227.92
820.39	227.87
820.71	227.96
821.03	227.89
821.34	227.89
821.66	227.87
821.98	227.83
822.30	227.79
822.61	228.06
822.93	227.85
823.25	227.89
823.57	227.84
823.88	227.90
824.20	227.90
824.52	228.07
824.83	228.10
825.15	227.97
825.47	227.80
825.79	227.87
826.10	227.88
826.42	227.81
826.74	227.80
827.05	227.79
827.37	227.70
827.69	227.66
828.00	227.59
828.32	227.57
828.64	227.52
828.95	227.71
829.27	227.59
829.58	227.57
829.90	227.56
830.22	227.63
830.53	227.51
830.85	227.44
831.17	227.23
831.48	227.16
831.80	227.23
832.11	227.16
832.43	227.07
832.75	227.09
833.06	227.32
833.38	227.20
833.69	227.19
834.01	227.18
834.32	227.15
834.64	227.09
834.96	227.06
835.27	227.09
835.59	226.97
835.90	226.93
836.22	226.90
836.53	226.81
836.85	226.64
837.16	227.11
837.48	227.09
837.79	227.25
838.11	227.31
838.42	227.27
838.74	227.46
839.05	227.41
839.37	227.38
839.68	227.15
840.00	227.16
840.31	227.18
840.63	227.15
840.94	227.20
841.26	227.28
841.57	227.32
841.88	227.42
842.20	227.37
842.51	227.30
842.83	227.30
843.14	227.79
843.46	227.88
843.77	227.59
844.08	227.65
844.40	227.50
844.71	227.55
845.03	227.52
845.34	227.44
845.65	227.45
845.97	227.51
846.28	227.55
846.60	227.60
846.91	227.57
847.22	227.55
847.54	227.63
847.85	227.61
848.16	227.58
848.48	227.48
848.79	227.61
849.10	227.65
849.42	227.66
849.73	227.16
850.04	227.14
850.36	226.98
850.67	227.07
850.98	227.11
851.30	227.04
851.61	227.03
851.92	227.02
852.23	227.15
852.55	227.13
852.86	227.13
853.17	227.25
853.49	227.35
853.80	227.50
854.11	227.53
854.42	227.55
854.74	227.48
855.05	227.46
855.36	227.26
855.67	227.30
855.99	227.32
856.30	227.97
856.61	227.89
856.92	227.90
857.23	227.81
857.55	227.73
857.86	227.76
858.17	227.87
858.48	227.70
858.79	227.62
859.11	227.65
859.42	227.62
859.73	227.42
860.04	227.44
860.35	227.25
860.66	227.09
860.98	227.09
861.29	227.11
861.60	227.11
861.91	227.21
862.22	227.13
862.53	227.01
862.84	226.37
863.16	226.51
863.47	226.40
863.78	226.44
864.09	226.49
864.40	226.49
864.71	226.44
865.02	226.56
865.33	226.48
865.64	226.44
865.95	226.46
866.27	226.80
866.58	226.65
866.89	226.72
867.20	226.76
867.51	226.65
867.82	226.63
868.13	226.77
868.44	226.61
868.75	226.66
869.06	226.74
869.37	226.89
869.68	226.77
869.99	226.88
870.30	226.87
870.61	226.88
870.92	226.78
871.23	226.78
871.54	226.87
871.85	227.00
872.16	227.00
872.47	226.88
872.78	226.60
873.09	226.67
873.40	226.62
873.71	226.65
874.02	226.73
874.33	226.76
874.64	226.57
874.95	226.68
875.26	226.61
875.56	226.63
875.87	226.59
876.18	226.62
876.49	227.15
876.80	227.12
877.11	227.11
877.42	227.18
877.73	227.18
878.04	227.13
878.35	227.18
878.66	227.21
878.96	227.28
879.27	227.30
879.58	227.29
879.89	227.32
880.20	227.51
880.51	227.50
880.82	227.45
881.12	227.59
881.43	227.48
881.74	227.44
882.05	227.41
882.36	227.40
882.67	227.43
882.97	226.86
883.28	226.80
883.59	226.76
883.90	226.79
884.21	226.90
884.51	226.85
884.82	226.74
885.13	226.73
885.44	226.75
885.74	226.74
886.05	226.79
886.36	226.74
886.67	226.50
886.98	226.84
887.28	226.89
887.59	226.85
887.90	226.91
888.20	226.94
888.51	227.05
888.82	227.01
889.13	227.04
889.43	227.42
889.74	227.47
890.05	227.50
890.35	227.44
890.66	227.34
890.97	227.34
891.28	227.39
891.58	227.37
891.89	227.37
892.20	227.35
892.50	227.25
892.81	227.23
893.12	227.26
893.42	226.97
893.73	227.07
894.04	227.10
894.34	227.18
894.65	227.20
894.95	227.09
895.26	227.16
895.57	227.46
895.87	227.08
896.18	227.18
896.48	227.20
896.79	227.26
897.10	227.29
897.40	227.32
897.71	227.30
898.01	227.33
898.32	227.37
898.63	227.35
898.93	227.41
899.24	227.44
899.54	227.41
899.85	227.33
900.15	227.26
900.46	227.24
900.76	227.30
901.07	227.25
901.38	227.24
901.68	227.21
901.99	226.89
902.29	226.95
902.60	226.87
902.90	226.85
903.21	226.79
903.51	226.81
903.82	226.84
904.12	226.87
904.43	226.87
904.73	226.86
905.03	226.93
905.34	227.36
905.64	227.37
905.95	227.43
906.25	227.49
906.56	227.45
906.86	227.45
907.17	227.36
907.47	227.38
907.77	227.30
908.08	227.25
908.38	227.28
908.69	227.27
908.99	227.33
909.30	227.32
909.60	227.33
909.90	227.32
910.21	227.19
910.51	227.11
910.81	227.11
911.12	227.09
911.42	227.03
911.73	226.55
912.03	226.52
912.33	226.58
912.64	226.55
912.94	226.54
913.24	226.46
913.55	226.35
913.85	226.32
914.15	226.50
914.46	226.54
914.76	226.44
915.06	226.42
915.37	226.31
915.67	226.28
915.97	226.30
916.27	226.24
916.58	226.26
916.88	226.29
917.18	226.20
917.49	226.49
917.79	226.48
918.09	226.54
918.39	226.67
918.70	226.57
919.00	226.61
919.30	226.87
919.60	226.83
919.91	226.84
920.21	226.92
920.51	226.75
920.81	226.75
921.12	226.87
921.42	226.81
921.72	226.89
922.02	226.90
922.32	226.96
922.63	226.95
922.93	227.21
923.23	227.16
923.53	227.14
923.83	226.87
924.13	226.98
924.44	227.02
924.74	227.11
925.04	227.28
925.34	227.23
925.64	226.96
925.94	226.99
926.24	227.27
926.55	227.17
926.85	227.22
927.15	227.24
927.45	227.24
927.75	227.25
928.05	227.30
928.35	227.32
928.65	227.39
928.95	227.42
929.26	227.25
929.56	227.42
929.86	227.57
930.16	227.49
930.46	227.36
930.76	227.35
931.06	227.09
931.36	226.93
931.66	227.05
931.96	227.16
932.26	227.24
932.56	227.04
932.86	227.07
933.16	227.09
933.46	227.05
933.76	226.98
934.06	227.17
934.36	227.24
934.66	227.20
934.96	227.09
935.26	227.08
935.56	227.05
935.86	226.87
936.16	226.68
936.46	226.66
936.76	226.72
937.06	226.72
937.36	226.81
937.66	226.83
937.96	226.76
938.26	226.65
938.56	226.58
938.86	226.58
939.16	226.76
939.46	226.81
939.76	226.76
940.06	226.75
940.35	226.62
940.65	226.41
940.95	226.45
941.25	226.41
941.55	226.38
941.85	226.47
942.15	226.60
942.45	226.84
942.75	226.87
943.04	226.84
943.34	226.85
943.64	226.79
943.94	226.69
944.24	226.67
944.54	226.67
944.84	226.66
945.13	226.62
945.43	226.50
945.73	226.40
946.03	226.46
946.33	226.40
946.62	226.25
946.92	226.24
947.22	226.26
947.52	226.25
947.82	226.33
948.11	226.17
948.41	225.99
948.71	225.85
949.01	225.87
949.31	225.80
949.60	225.80
949.90	225.88
950.20	225.90
950.50	225.88
950.79	225.83
951.09	225.93
951.39	225.87
951.69	225.83
951.98	225.91
952.28	225.93
952.58	225.94
952.87	226.00
953.17	226.02
953.47	225.94
953.76	225.90
954.06	225.89
954.36	225.80
954.66	225.83
954.95	225.89
955.25	225.88
955.55	225.94
955.84	225.81
956.14	225.79
956.44	225.80
956.73	225.74
957.03	225.78
957.32	225.75
957.62	225.75
957.92	225.78
958.21	225.70
958.51	226.14
958.81	226.23
959.10	226.30
959.40	226.38
959.69	226.36
959.99	226.43
960.29	226.35
960.58	226.41
960.88	226.57
961.17	226.51
961.47	226.55
961.76	226.47
962.06	226.56
962.36	226.53
962.65	226.56
962.95	226.60
963.24	226.59
963.54	226.60
963.83	226.66
964.13	226.63
964.42	226.57
964.72	226.20
965.01	226.19
965.31	226.11
965.60	226.06
965.90	226.46
966.19	226.33
966.49	226.40
966.78	226.40
967.08	226.40
967.37	226.45
967.67	226.31
967.96	226.41
968.26	226.39
968.55	226.44
968.85	226.39
969.14	226.35
969.43	226.35
969.73	226.30
970.02	226.26
970.32	226.23
970.61	226.29
970.91	226.19
971.20	226.11
971.49	226.00
971.79	226.09
972.08	225.68
972.38	225.76
972.67	225.74
972.96	225.83
973.26	225.68
973.55	225.83
973.85	225.94
974.14	225.98
974.43	226.06
974.73	225.95
975.02	225.95
975.31	225.96
975.61	225.94
975.90	225.92
976.19	225.87
976.49	225.94
976.78	225.98
977.07	225.99
977.37	226.10
977.66	226.21
977.95	226.17
978.24	226.25
978.54	226.37
978.83	226.32
979.12	226.26
979.42	226.34
979.71	226.16
980.00	226.15
980.29	226.09
980.59	226.00
980.88	226.14
981.17	226.14
981.46	226.26
981.76	226.32
982.05	226.49
982.34	226.51
982.63	226.49
982.93	226.43
983.22	226.56
983.51	226.55
983.80	226.66
984.09	226.63
984.39	226.67
984.68	226.55
984.97	226.57
985.26	226.54
985.55	226.56
985.85	226.57
986.14	226.58
986.43	226.65
986.72	226.60
987.01	226.47
987.30	226.53
987.59	226.39
987.89	226.43
988.18	226.21
988.47	226.26
988.76	226.28
989.05	226.22
989.34	226.15
989.63	226.22
989.92	226.14
990.22	226.09
990.51	226.05
990.80	225.96
991.09	226.02
991.38	226.04
991.67	226.02
991.96	225.98
992.25	226.01
992.54	225.95
992.83	225.97
993.12	226.00
993.41	226.05
993.70	226.26
993.99	226.32
994.28	226.48
994.58	226.49
994.87	226.46
995.16	226.51
995.45	226.47
995.74	226.32
996.03	226.39
996.32	226.45
996.61	226.56
996.90	226.65
997.19	226.64
997.48	226.66
997.77	226.57
998.06	226.64
998.34	226.56
998.63	226.53
998.92	226.56
999.21	226.63
999.50	226.60
999.79	226.46
1000.08	226.41
1000.37	226.41
1000.66	226.35
1000.95	226.41
1001.24	226.46
1001.53	226.55
1001.82	226.53
1002.11	226.44
1002.40	226.49
1002.68	226.56
1002.97	226.89
1003.26	226.79
1003.55	226.72
1003.84	226.85
1004.13	226.95
1004.42	226.98
1004.71	227.04
1004.99	227.08
1005.28	227.14
1005.57	227.13
1005.86	227.13
1006.15	227.11
1006.44	226.98
1006.72	227.02
1007.01	226.99
1007.30	226.98
1007.59	226.96
1007.88	226.93
1008.17	226.92
1008.45	226.80
1008.74	226.62
1009.03	226.42
1009.32	226.47
1009.60	226.45
1009.89	226.35
1010.18	226.17
1010.47	226.15
1010.76	226.08
1011.04	225.93
1011.33	225.92
1011.62	225.93
1011.91	225.93
1012.19	225.98
1012.48	225.97
1012.77	226.02
1013.05	226.26
1013.34	226.25
1013.63	226.16
1013.92	226.27
1014.20	226.32
1014.49	226.30
1014.78	226.34
1015.06	226.11
1015.35	226.15
1015.64	226.23
1015.92	226.26
1016.21	226.26
1016.50	226.24
1016.78	226.27
1017.07	226.37
1017.36	226.31
1017.64	226.24
1017.93	226.26
1018.22	226.12
1018.50	226.11
1018.79	226.10
1019.08	225.80
1019.36	225.88
1019.65	225.82
1019.93	225.89
1020.22	225.86
1020.51	226.19
1020.79	226.16
1021.08	224.90
1021.36	224.60
1021.65	226.80
1021.94	225.35
1022.22	227.40
1022.51	224.80
1022.79	228.55
1023.08	225.85
1023.36	232.30
1023.65	225.25
>>>>>End Processed Spectral Data<<<<<
