SpectraSuite Data File
++++++++++++++++++++++++++++++++++++
Date: Wed Sep 04 17:59:15 EDT 2013
User: lab3
Dark Spectrum Present: Yes
Reference Spectrum Present: No
Number of Sampled Component Spectra: 1
Spectrometers: USB2E7196
Integration Time (usec): 170000 (USB2E7196)
Spectra Averaged: 20 (USB2E7196)
Boxcar Smoothing: 10 (USB2E7196)
Correct for Electrical Dark: No (USB2E7196)
Strobe/Lamp Enabled: No (USB2E7196)
Correct for Detector Non-linearity: No (USB2E7196)
Correct for Stray Light: No (USB2E7196)
Number of Pixels in Processed Spectrum: 2048
>>>>>Begin Processed Spectral Data<<<<<
339.09	0.00
339.48	212.50
339.86	215.55
340.24	216.85
340.63	217.55
341.01	226.30
341.39	219.35
341.78	221.20
342.16	224.65
342.54	222.75
342.93	212.52
343.31	223.21
343.69	223.79
344.07	224.20
344.46	224.74
344.84	225.17
345.22	225.18
345.60	225.53
345.99	225.76
346.37	225.86
346.75	226.01
347.13	226.01
347.52	226.13
347.90	226.34
348.28	226.34
348.66	226.55
349.05	226.35
349.43	226.50
349.81	226.51
350.19	226.60
350.57	226.62
350.96	226.71
351.34	226.82
351.72	226.85
352.10	227.00
352.48	226.88
352.87	226.90
353.25	226.90
353.63	226.93
354.01	226.96
354.39	227.02
354.77	227.07
355.15	227.28
355.54	227.27
355.92	227.15
356.30	227.25
356.68	227.62
357.06	227.72
357.44	227.62
357.82	227.66
358.20	228.12
358.58	228.15
358.97	228.21
359.35	228.38
359.73	228.66
360.11	228.66
360.49	228.85
360.87	228.89
361.25	229.02
361.63	229.25
362.01	229.36
362.39	229.37
362.77	229.47
363.15	229.55
363.53	229.60
363.91	229.61
364.29	229.70
364.67	229.26
365.05	229.31
365.43	229.51
365.81	229.54
366.19	229.37
366.57	229.59
366.95	229.60
367.33	229.50
367.71	229.43
368.09	229.55
368.47	229.57
368.85	229.57
369.23	229.67
369.61	229.46
369.99	229.62
370.37	229.68
370.75	229.94
371.13	229.85
371.51	229.81
371.89	229.95
372.27	229.90
372.65	229.91
373.03	229.87
373.41	229.75
373.78	229.77
374.16	229.53
374.54	229.35
374.92	229.29
375.30	229.31
375.68	229.17
376.06	229.07
376.44	228.95
376.82	228.90
377.19	228.80
377.57	228.73
377.95	228.50
378.33	228.43
378.71	227.98
379.09	227.91
379.47	227.93
379.84	227.70
380.22	227.57
380.60	227.46
380.98	227.37
381.36	227.25
381.73	227.06
382.11	227.00
382.49	226.99
382.87	226.87
383.25	226.80
383.62	227.30
384.00	227.10
384.38	227.06
384.76	227.13
385.13	227.29
385.51	227.21
385.89	227.10
386.27	227.00
386.64	227.01
387.02	226.92
387.40	226.80
387.78	226.81
388.15	226.77
388.53	226.70
388.91	226.71
389.29	226.63
389.66	226.75
390.04	226.70
390.42	226.70
390.79	226.63
391.17	226.54
391.55	225.97
391.92	226.05
392.30	226.05
392.68	225.93
393.05	225.83
393.43	225.89
393.81	225.94
394.18	225.96
394.56	226.04
394.94	226.11
395.31	226.08
395.69	226.29
396.06	226.39
396.44	226.52
396.82	226.50
397.19	226.91
397.57	226.91
397.95	227.10
398.32	227.03
398.70	227.17
399.07	227.39
399.45	227.47
399.82	227.59
400.20	227.61
400.58	227.75
400.95	227.66
401.33	227.82
401.70	228.25
402.08	228.39
402.45	228.48
402.83	228.80
403.20	229.06
403.58	229.06
403.95	229.34
404.33	229.52
404.71	229.76
405.08	230.13
405.46	230.33
405.83	230.60
406.21	230.82
406.58	231.12
406.96	231.33
407.33	231.72
407.70	232.12
408.08	232.85
408.45	233.32
408.83	233.82
409.20	234.25
409.58	234.44
409.95	235.00
410.33	235.63
410.70	235.98
411.08	236.59
411.45	237.23
411.82	237.76
412.20	238.57
412.57	239.63
412.95	239.95
413.32	240.88
413.69	241.57
414.07	242.57
414.44	243.59
414.82	244.64
415.19	245.80
415.56	246.91
415.94	247.96
416.31	249.34
416.68	250.75
417.06	252.33
417.43	253.91
417.81	255.62
418.18	257.42
418.55	259.39
418.93	261.40
419.30	263.63
419.67	265.88
420.04	268.16
420.42	270.46
420.79	273.61
421.16	276.44
421.54	279.63
421.91	282.63
422.28	285.71
422.66	288.99
423.03	292.45
423.40	295.95
423.77	299.52
424.15	303.14
424.52	306.93
424.89	311.13
425.26	315.19
425.64	319.07
426.01	323.16
426.38	327.61
426.75	332.25
427.13	336.85
427.50	341.68
427.87	346.58
428.24	351.55
428.61	355.99
428.99	361.27
429.36	366.70
429.73	372.29
430.10	377.92
430.47	383.76
430.85	389.43
431.22	395.59
431.59	402.38
431.96	408.70
432.33	415.77
432.70	422.46
433.08	430.43
433.45	437.89
433.82	445.37
434.19	453.56
434.56	461.65
434.93	469.31
435.30	477.11
435.68	485.84
436.05	494.25
436.42	502.81
436.79	510.51
437.16	519.05
437.53	527.84
437.90	536.64
438.27	545.13
438.64	554.16
439.01	562.58
439.38	569.91
439.75	576.94
440.13	584.87
440.50	592.56
440.87	598.77
441.24	605.15
441.61	612.32
441.98	617.41
442.35	623.32
442.72	629.37
443.09	635.18
443.46	638.55
443.83	640.83
444.20	642.67
444.57	645.42
444.94	646.54
445.31	647.62
445.68	648.87
446.05	649.11
446.42	647.65
446.79	646.15
447.16	644.43
447.53	643.28
447.90	639.66
448.27	635.73
448.64	630.58
449.01	626.77
449.37	620.41
449.74	614.29
450.11	607.33
450.48	599.44
450.85	591.26
451.22	584.25
451.59	577.62
451.96	571.25
452.33	562.97
452.70	555.35
453.07	546.51
453.43	537.31
453.80	528.69
454.17	520.56
454.54	512.83
454.91	504.55
455.28	496.47
455.65	488.95
456.02	482.16
456.38	475.76
456.75	468.10
457.12	461.60
457.49	455.27
457.86	448.87
458.23	443.71
458.59	438.03
458.96	432.16
459.33	426.98
459.70	421.80
460.07	417.65
460.43	413.01
460.80	408.83
461.17	405.10
461.54	401.23
461.91	397.48
462.27	393.54
462.64	390.25
463.01	386.59
463.38	383.36
463.74	379.35
464.11	376.47
464.48	373.82
464.85	370.94
465.21	368.82
465.58	366.37
465.95	363.51
466.32	361.23
466.68	359.06
467.05	356.78
467.42	354.68
467.78	352.49
468.15	350.34
468.52	348.63
468.88	346.40
469.25	344.42
469.62	343.02
469.98	341.38
470.35	339.89
470.72	338.54
471.08	336.79
471.45	335.52
471.82	334.18
472.18	332.70
472.55	331.64
472.92	330.28
473.28	329.19
473.65	328.14
474.02	327.19
474.38	326.41
474.75	325.70
475.11	324.85
475.48	324.20
475.85	323.60
476.21	322.97
476.58	322.54
476.94	322.26
477.31	321.80
477.67	321.41
478.04	321.11
478.41	320.82
478.77	321.00
479.14	320.77
479.50	320.70
479.87	320.72
480.23	320.80
480.60	320.81
480.96	320.85
481.33	321.28
481.69	321.48
482.06	321.64
482.42	321.92
482.79	322.22
483.15	322.66
483.52	323.31
483.88	323.89
484.25	324.26
484.61	324.90
484.98	325.56
485.34	326.53
485.71	327.41
486.07	328.44
486.44	329.08
486.80	330.08
487.17	331.11
487.53	332.49
487.90	333.86
488.26	335.52
488.62	337.27
488.99	338.67
489.35	340.45
489.72	342.38
490.08	344.34
490.44	346.35
490.81	348.59
491.17	350.72
491.54	353.17
491.90	355.90
492.26	358.53
492.63	361.31
492.99	364.17
493.36	367.22
493.72	370.57
494.08	373.94
494.45	377.82
494.81	381.66
495.17	385.55
495.54	389.64
495.90	393.94
496.26	398.35
496.63	403.10
496.99	407.91
497.35	413.01
497.72	418.33
498.08	423.81
498.44	429.48
498.80	435.70
499.17	441.74
499.53	447.98
499.89	454.64
500.26	461.43
500.62	468.36
500.98	475.80
501.34	483.15
501.71	491.06
502.07	498.69
502.43	506.98
502.79	515.37
503.16	524.20
503.52	533.23
503.88	542.61
504.24	552.33
504.60	562.32
504.97	572.47
505.33	582.88
505.69	594.01
506.05	605.07
506.41	616.28
506.78	627.90
507.14	640.00
507.50	652.37
507.86	664.96
508.22	678.15
508.59	691.03
508.95	704.89
509.31	718.99
509.67	733.54
510.03	747.93
510.39	762.75
510.75	777.82
511.12	793.10
511.48	808.85
511.84	824.70
512.20	840.73
512.56	856.96
512.92	873.73
513.28	890.75
513.64	907.99
514.00	925.46
514.37	943.30
514.73	961.46
515.09	979.77
515.45	998.18
515.81	1016.53
516.17	1035.72
516.53	1054.27
516.89	1072.99
517.25	1092.38
517.61	1112.46
517.97	1132.92
518.33	1153.09
518.69	1173.48
519.05	1193.92
519.41	1214.46
519.77	1235.76
520.13	1256.86
520.49	1277.90
520.85	1300.24
521.21	1321.50
521.57	1343.10
521.93	1364.14
522.29	1385.50
522.65	1405.95
523.01	1427.04
523.37	1447.90
523.73	1468.79
524.09	1489.73
524.45	1510.54
524.81	1531.46
525.17	1552.26
525.53	1572.97
525.89	1593.87
526.25	1614.65
526.61	1635.16
526.97	1656.52
527.33	1677.58
527.68	1699.45
528.04	1720.56
528.40	1739.88
528.76	1760.82
529.12	1781.00
529.48	1801.79
529.84	1821.83
530.20	1843.26
530.56	1864.25
530.91	1885.23
531.27	1905.80
531.63	1926.51
531.99	1947.19
532.35	1967.26
532.71	1987.52
533.07	2008.02
533.42	2028.12
533.78	2048.24
534.14	2068.30
534.50	2087.40
534.86	2106.88
535.21	2124.69
535.57	2143.16
535.93	2161.06
536.29	2178.98
536.65	2197.64
537.00	2215.29
537.36	2233.24
537.72	2249.93
538.08	2267.31
538.44	2284.39
538.79	2301.01
539.15	2317.49
539.51	2333.60
539.87	2348.76
540.22	2363.12
540.58	2377.67
540.94	2390.80
541.29	2403.58
541.65	2415.96
542.01	2428.60
542.37	2439.08
542.72	2450.06
543.08	2460.81
543.44	2472.76
543.79	2482.85
544.15	2492.63
544.51	2503.06
544.87	2512.78
545.22	2521.47
545.58	2529.39
545.94	2536.28
546.29	2543.10
546.65	2549.64
547.01	2555.54
547.36	2561.56
547.72	2567.03
548.07	2570.70
548.43	2576.08
548.79	2580.83
549.14	2585.18
549.50	2588.83
549.86	2593.07
550.21	2596.97
550.57	2600.87
550.92	2602.28
551.28	2604.17
551.64	2606.52
551.99	2608.26
552.35	2609.94
552.70	2612.19
553.06	2613.53
553.41	2614.83
553.77	2615.96
554.13	2617.62
554.48	2619.28
554.84	2620.59
555.19	2621.52
555.55	2623.34
555.90	2622.64
556.26	2621.74
556.61	2620.19
556.97	2618.39
557.32	2617.98
557.68	2616.58
558.03	2614.50
558.39	2613.25
558.74	2611.84
559.10	2608.45
559.45	2604.94
559.81	2600.18
560.16	2595.04
560.52	2590.48
560.87	2585.93
561.23	2581.14
561.58	2574.96
561.94	2567.83
562.29	2560.30
562.64	2553.75
563.00	2545.60
563.35	2539.09
563.71	2532.75
564.06	2526.45
564.42	2519.74
564.77	2512.52
565.12	2505.25
565.48	2497.98
565.83	2490.21
566.19	2482.48
566.54	2474.75
566.89	2466.49
567.25	2459.05
567.60	2452.00
567.96	2444.22
568.31	2436.45
568.66	2427.63
569.02	2418.63
569.37	2410.50
569.72	2403.09
570.08	2393.40
570.43	2383.90
570.78	2374.73
571.14	2365.05
571.49	2354.70
571.84	2345.21
572.20	2334.39
572.55	2324.31
572.90	2313.37
573.26	2302.94
573.61	2291.65
573.96	2280.59
574.31	2268.90
574.67	2257.31
575.02	2244.41
575.37	2231.65
575.72	2218.53
576.08	2206.40
576.43	2193.73
576.78	2180.41
577.13	2166.41
577.49	2153.85
577.84	2142.11
578.19	2129.91
578.54	2117.32
578.90	2105.77
579.25	2093.30
579.60	2080.69
579.95	2067.68
580.30	2054.58
580.66	2041.19
581.01	2027.77
581.36	2013.58
581.71	2000.76
582.06	1987.39
582.42	1974.69
582.77	1962.15
583.12	1950.11
583.47	1937.78
583.82	1925.85
584.17	1913.99
584.53	1902.18
584.88	1889.32
585.23	1876.21
585.58	1862.29
585.93	1848.70
586.28	1835.22
586.63	1821.52
586.98	1807.23
587.34	1793.66
587.69	1780.25
588.04	1767.50
588.39	1755.19
588.74	1743.04
589.09	1730.74
589.44	1717.77
589.79	1705.79
590.14	1693.67
590.49	1681.46
590.84	1668.98
591.19	1656.72
591.54	1644.19
591.89	1632.06
592.25	1621.71
592.60	1610.12
592.95	1598.61
593.30	1586.56
593.65	1574.43
594.00	1562.05
594.35	1552.41
594.70	1540.42
595.05	1528.77
595.40	1516.46
595.75	1504.64
596.10	1493.49
596.45	1482.15
596.80	1471.39
597.15	1459.68
597.50	1447.98
597.85	1436.43
598.19	1425.03
598.54	1413.30
598.89	1402.28
599.24	1391.61
599.59	1379.75
599.94	1368.64
600.29	1357.91
600.64	1347.76
600.99	1337.01
601.34	1327.55
601.69	1315.94
602.04	1306.40
602.39	1296.90
602.74	1287.94
603.08	1278.56
603.43	1268.97
603.78	1258.95
604.13	1249.13
604.48	1239.67
604.83	1229.77
605.18	1219.92
605.53	1210.43
605.87	1201.33
606.22	1192.61
606.57	1183.16
606.92	1173.73
607.27	1164.86
607.62	1156.24
607.96	1147.61
608.31	1139.71
608.66	1131.04
609.01	1122.59
609.36	1113.83
609.70	1105.21
610.05	1096.45
610.40	1087.96
610.75	1079.29
611.10	1071.04
611.44	1062.63
611.79	1054.36
612.14	1046.35
612.49	1038.32
612.83	1030.82
613.18	1022.86
613.53	1014.98
613.88	1006.95
614.22	999.28
614.57	991.28
614.92	983.36
615.27	975.82
615.61	967.89
615.96	960.24
616.31	952.59
616.65	945.54
617.00	938.14
617.35	930.68
617.70	923.37
618.04	916.21
618.39	909.16
618.74	902.53
619.08	895.54
619.43	888.52
619.78	881.54
620.12	874.20
620.47	867.57
620.82	860.40
621.16	853.61
621.51	847.12
621.85	840.85
622.20	834.09
622.55	827.44
622.89	820.81
623.24	814.31
623.59	808.06
623.93	801.69
624.28	795.27
624.62	789.62
624.97	783.74
625.32	777.90
625.66	771.92
626.01	765.92
626.35	760.26
626.70	754.57
627.04	749.35
627.39	743.58
627.73	738.00
628.08	732.81
628.43	727.52
628.77	722.14
629.12	716.79
629.46	711.92
629.81	707.02
630.15	702.26
630.50	697.38
630.84	692.40
631.19	687.38
631.53	682.94
631.88	677.73
632.22	672.73
632.57	668.18
632.91	663.56
633.26	659.00
633.60	654.35
633.95	649.81
634.29	644.92
634.64	640.51
634.98	635.77
635.32	631.21
635.67	627.04
636.01	622.92
636.36	618.44
636.70	614.38
637.05	610.24
637.39	606.01
637.73	601.90
638.08	598.03
638.42	593.80
638.77	589.42
639.11	585.09
639.45	580.87
639.80	576.45
640.14	572.34
640.49	568.15
640.83	564.28
641.17	560.51
641.52	556.85
641.86	553.32
642.20	550.14
642.55	546.48
642.89	542.79
643.23	539.25
643.58	536.02
643.92	532.30
644.26	528.83
644.61	525.52
644.95	522.18
645.29	518.53
645.64	515.45
645.98	512.38
646.32	509.39
646.66	506.16
647.01	503.19
647.35	500.25
647.69	497.41
648.04	494.52
648.38	491.72
648.72	488.76
649.06	485.67
649.41	482.55
649.75	479.65
650.09	476.74
650.43	473.72
650.78	470.94
651.12	468.20
651.46	465.34
651.80	462.66
652.14	459.97
652.49	457.60
652.83	454.97
653.17	452.33
653.51	449.49
653.85	447.24
654.20	444.76
654.54	442.18
654.88	439.60
655.22	437.42
655.56	434.89
655.90	432.58
656.25	430.33
656.59	428.14
656.93	425.90
657.27	423.83
657.61	421.42
657.95	419.03
658.29	416.68
658.64	414.66
658.98	412.32
659.32	410.01
659.66	407.69
660.00	405.53
660.34	403.44
660.68	401.49
661.02	399.32
661.36	397.38
661.70	395.38
662.05	393.41
662.39	391.33
662.73	389.65
663.07	387.97
663.41	386.20
663.75	384.28
664.09	382.40
664.43	380.48
664.77	378.79
665.11	377.05
665.45	375.45
665.79	373.69
666.13	371.99
666.47	370.30
666.81	368.68
667.15	366.92
667.49	365.41
667.83	364.09
668.17	362.64
668.51	361.10
668.85	359.69
669.19	358.59
669.53	357.02
669.87	355.45
670.21	353.93
670.55	352.46
670.89	351.32
671.23	350.06
671.57	348.62
671.91	347.27
672.25	345.91
672.58	344.70
672.92	343.31
673.26	342.01
673.60	340.81
673.94	339.67
674.28	338.63
674.62	337.46
674.96	336.13
675.30	334.88
675.64	333.68
675.97	332.51
676.31	331.15
676.65	330.06
676.99	329.04
677.33	327.87
677.67	326.86
678.01	325.57
678.34	324.49
678.68	323.50
679.02	322.47
679.36	321.48
679.70	320.37
680.04	319.48
680.37	318.63
680.71	317.72
681.05	316.79
681.39	315.93
681.73	314.96
682.06	314.17
682.40	313.33
682.74	312.51
683.08	311.77
683.42	310.88
683.75	310.06
684.09	309.10
684.43	308.27
684.77	307.34
685.10	306.56
685.44	305.77
685.78	305.01
686.12	304.20
686.45	303.43
686.79	302.67
687.13	302.00
687.46	301.30
687.80	300.61
688.14	299.79
688.48	299.00
688.81	298.25
689.15	297.49
689.49	296.65
689.82	295.96
690.16	295.07
690.50	294.35
690.83	293.65
691.17	292.89
691.51	292.18
691.84	291.52
692.18	290.74
692.52	289.98
692.85	289.35
693.19	288.98
693.52	288.37
693.86	287.70
694.20	287.00
694.53	286.37
694.87	285.68
695.21	285.00
695.54	284.35
695.88	283.69
696.21	282.93
696.55	282.48
696.88	281.83
697.22	281.24
697.56	280.72
697.89	280.01
698.23	279.59
698.56	279.00
698.90	278.55
699.23	278.01
699.57	277.49
699.90	276.90
700.24	276.17
700.58	275.69
700.91	275.27
701.25	275.10
701.58	274.92
701.92	274.56
702.25	274.13
702.59	273.64
702.92	273.23
703.26	272.89
703.59	272.36
703.93	272.35
704.26	272.01
704.60	271.53
704.93	271.15
705.26	270.57
705.60	270.23
705.93	269.59
706.27	269.30
706.60	269.03
706.94	268.93
707.27	268.53
707.61	268.14
707.94	267.74
708.27	267.01
708.61	266.22
708.94	265.75
709.28	265.40
709.61	264.98
709.94	264.58
710.28	264.20
710.61	263.95
710.95	263.07
711.28	262.99
711.61	262.63
711.95	262.37
712.28	262.09
712.61	261.77
712.95	261.79
713.28	261.68
713.61	261.26
713.95	260.71
714.28	260.41
714.61	260.00
714.95	259.61
715.28	259.17
715.61	258.94
715.95	258.63
716.28	258.26
716.61	258.10
716.95	257.83
717.28	257.50
717.61	257.16
717.94	256.97
718.28	256.39
718.61	256.11
718.94	255.77
719.27	255.54
719.61	255.33
719.94	254.93
720.27	254.48
720.60	254.21
720.94	253.95
721.27	253.70
721.60	253.57
721.93	253.35
722.27	253.41
722.60	253.27
722.93	253.02
723.26	252.92
723.59	252.54
723.93	252.33
724.26	252.14
724.59	251.87
724.92	251.62
725.25	251.46
725.59	251.25
725.92	251.14
726.25	250.84
726.58	250.65
726.91	250.42
727.24	250.27
727.57	250.13
727.91	249.87
728.24	249.79
728.57	249.52
728.90	249.41
729.23	249.03
729.56	248.97
729.89	248.75
730.22	248.50
730.55	248.33
730.89	248.19
731.22	248.03
731.55	247.86
731.88	247.73
732.21	247.47
732.54	247.21
732.87	246.95
733.20	246.82
733.53	246.57
733.86	246.41
734.19	246.08
734.52	245.91
734.85	246.04
735.18	245.75
735.51	245.75
735.84	245.63
736.17	245.58
736.50	245.25
736.83	245.72
737.16	245.50
737.49	245.44
737.82	245.24
738.15	245.15
738.48	245.02
738.81	244.82
739.14	244.63
739.47	244.47
739.80	244.39
740.13	244.26
740.46	244.10
740.79	243.90
741.12	243.81
741.45	243.52
741.78	243.18
742.11	243.20
742.44	242.92
742.77	242.77
743.10	242.55
743.43	242.30
743.75	241.63
744.08	242.18
744.41	241.97
744.74	241.81
745.07	241.58
745.40	241.50
745.73	241.66
746.06	241.60
746.39	241.55
746.71	241.34
747.04	241.10
747.37	240.93
747.70	240.84
748.03	240.71
748.36	240.73
748.68	240.58
749.01	240.23
749.34	240.13
749.67	240.02
750.00	239.91
750.33	240.18
750.65	240.11
750.98	239.41
751.31	239.32
751.64	239.20
751.97	239.31
752.29	239.13
752.62	238.78
752.95	238.60
753.28	238.49
753.60	238.39
753.93	238.47
754.26	238.45
754.59	238.26
754.91	238.12
755.24	238.01
755.57	237.97
755.90	237.89
756.22	237.76
756.55	237.55
756.88	237.44
757.20	237.11
757.53	236.84
757.86	236.68
758.19	236.62
758.51	236.54
758.84	236.30
759.17	236.19
759.49	236.15
759.82	236.26
760.15	236.23
760.47	236.10
760.80	235.85
761.13	235.76
761.45	235.70
761.78	235.68
762.11	235.50
762.43	235.31
762.76	235.21
763.08	235.19
763.41	235.21
763.74	235.19
764.06	235.08
764.39	235.08
764.71	235.04
765.04	234.87
765.37	234.78
765.69	234.65
766.02	234.60
766.34	234.41
766.67	234.17
767.00	234.11
767.32	234.30
767.65	234.58
767.97	234.41
768.30	234.42
768.62	234.24
768.95	234.15
769.27	234.03
769.60	234.04
769.92	233.90
770.25	233.70
770.57	233.52
770.90	233.46
771.22	233.31
771.55	233.23
771.87	233.22
772.20	233.15
772.52	233.47
772.85	233.99
773.17	233.93
773.50	233.85
773.82	233.75
774.15	233.51
774.47	233.09
774.80	233.15
775.12	233.01
775.45	232.99
775.77	233.05
776.09	233.08
776.42	233.00
776.74	233.10
777.07	233.05
777.39	233.07
777.72	232.89
778.04	232.97
778.36	232.91
778.69	232.86
779.01	232.90
779.33	232.45
779.66	231.78
779.98	231.75
780.31	231.82
780.63	231.97
780.95	231.94
781.28	231.91
781.60	231.79
781.92	231.80
782.25	231.77
782.57	231.72
782.89	231.62
783.22	231.62
783.54	231.41
783.86	231.42
784.19	231.25
784.51	231.39
784.83	231.24
785.16	231.15
785.48	231.16
785.80	231.07
786.12	231.11
786.45	231.12
786.77	231.11
787.09	230.97
787.42	230.74
787.74	230.78
788.06	230.84
788.38	230.78
788.71	230.70
789.03	230.64
789.35	230.69
789.67	230.57
789.99	230.61
790.32	230.58
790.64	230.64
790.96	231.00
791.28	230.80
791.61	230.81
791.93	230.82
792.25	230.73
792.57	231.00
792.89	230.84
793.21	230.85
793.54	230.85
793.86	230.77
794.18	230.75
794.50	230.64
794.82	230.51
795.14	230.51
795.47	230.55
795.79	230.67
796.11	230.52
796.43	230.53
796.75	230.44
797.07	230.48
797.39	230.42
797.71	230.15
798.04	230.19
798.36	230.13
798.68	230.11
799.00	230.07
799.32	229.81
799.64	229.87
799.96	229.78
800.28	229.76
800.60	229.70
800.92	229.74
801.24	229.63
801.56	229.64
801.89	229.62
802.21	229.58
802.53	229.38
802.85	229.45
803.17	229.69
803.49	229.53
803.81	229.40
804.13	229.32
804.45	229.17
804.77	229.19
805.09	229.14
805.41	229.12
805.73	229.05
806.05	228.94
806.37	228.89
806.69	228.94
807.01	228.91
807.33	229.01
807.65	228.84
807.97	229.08
808.28	229.05
808.60	229.07
808.92	229.00
809.24	229.24
809.56	229.18
809.88	228.95
810.20	229.05
810.52	229.16
810.84	229.08
811.16	229.04
811.48	228.93
811.80	229.12
812.12	229.05
812.43	229.13
812.75	229.13
813.07	229.11
813.39	229.08
813.71	229.01
814.03	228.97
814.35	228.94
814.67	228.72
814.98	228.71
815.30	228.69
815.62	228.64
815.94	228.33
816.26	228.50
816.58	228.45
816.89	228.43
817.21	228.29
817.53	228.38
817.85	228.45
818.17	228.45
818.48	228.27
818.80	228.35
819.12	228.25
819.44	228.21
819.76	228.21
820.07	228.19
820.39	228.20
820.71	228.26
821.03	228.28
821.34	228.22
821.66	228.23
821.98	228.20
822.30	228.17
822.61	228.50
822.93	228.23
823.25	228.24
823.57	228.25
823.88	228.39
824.20	228.39
824.52	228.44
824.83	228.42
825.15	228.40
825.47	228.32
825.79	228.38
826.10	228.35
826.42	228.28
826.74	228.25
827.05	228.21
827.37	228.18
827.69	228.14
828.00	228.21
828.32	228.18
828.64	228.14
828.95	228.41
829.27	228.32
829.58	228.33
829.90	228.32
830.22	228.34
830.53	228.27
830.85	228.16
831.17	228.08
831.48	228.07
831.80	228.06
832.11	228.04
832.43	227.92
832.75	227.91
833.06	228.26
833.38	228.11
833.69	228.09
834.01	228.04
834.32	228.01
834.64	228.00
834.96	228.00
835.27	228.00
835.59	227.80
835.90	227.63
836.22	227.57
836.53	227.45
836.85	227.34
837.16	227.71
837.48	227.71
837.79	227.78
838.11	227.85
838.42	227.84
838.74	227.83
839.05	227.84
839.37	227.75
839.68	227.31
840.00	227.35
840.31	227.34
840.63	227.28
840.94	227.27
841.26	227.15
841.57	227.19
841.88	227.19
842.20	227.14
842.51	227.08
842.83	227.09
843.14	227.51
843.46	227.49
843.77	227.22
844.08	227.14
844.40	226.94
844.71	226.83
845.03	226.77
845.34	226.76
845.65	226.70
845.97	226.81
846.28	226.93
846.60	226.97
846.91	226.92
847.22	226.84
847.54	226.93
847.85	226.94
848.16	226.83
848.48	226.73
848.79	226.82
849.10	226.92
849.42	226.97
849.73	226.54
850.04	226.54
850.36	226.38
850.67	226.46
850.98	226.53
851.30	226.52
851.61	226.56
851.92	226.58
852.23	226.71
852.55	226.67
852.86	226.61
853.17	226.60
853.49	226.78
853.80	226.94
854.11	226.98
854.42	227.10
854.74	227.06
855.05	227.11
855.36	226.96
855.67	226.97
855.99	226.98
856.30	227.54
856.61	227.47
856.92	227.59
857.23	227.58
857.55	227.52
857.86	227.54
858.17	227.57
858.48	227.51
858.79	227.46
859.11	227.46
859.42	227.51
859.73	227.50
860.04	227.41
860.35	227.31
860.66	227.21
860.98	227.10
861.29	227.17
861.60	227.07
861.91	227.17
862.22	227.05
862.53	226.97
862.84	226.49
863.16	226.64
863.47	226.45
863.78	226.50
864.09	226.59
864.40	226.71
864.71	226.86
865.02	226.95
865.33	226.94
865.64	226.90
865.95	226.87
866.27	227.21
866.58	227.17
866.89	227.21
867.20	227.21
867.51	227.28
867.82	227.31
868.13	227.55
868.44	227.45
868.75	227.58
869.06	227.65
869.37	227.66
869.68	227.60
869.99	227.75
870.30	227.77
870.61	227.79
870.92	227.64
871.23	227.45
871.54	227.50
871.85	227.53
872.16	227.63
872.47	227.56
872.78	227.32
873.09	227.42
873.40	227.30
873.71	227.34
874.02	227.34
874.33	227.26
874.64	227.16
874.95	227.22
875.26	227.14
875.56	227.08
875.87	227.07
876.18	227.05
876.49	227.53
876.80	227.44
877.11	227.33
877.42	227.34
877.73	227.36
878.04	227.30
878.35	227.30
878.66	227.36
878.96	227.41
879.27	227.38
879.58	227.28
879.89	227.34
880.20	227.44
880.51	227.42
880.82	227.42
881.12	227.42
881.43	227.34
881.74	227.32
882.05	227.31
882.36	227.40
882.67	227.43
882.97	226.90
883.28	226.86
883.59	226.90
883.90	226.99
884.21	227.09
884.51	227.08
884.82	227.05
885.13	226.99
885.44	226.95
885.74	226.92
886.05	226.88
886.36	226.85
886.67	226.73
886.98	226.94
887.28	226.94
887.59	226.91
887.90	226.82
888.20	226.80
888.51	226.90
888.82	226.75
889.13	226.77
889.43	227.10
889.74	227.02
890.05	227.00
890.35	226.89
890.66	226.80
890.97	226.70
891.28	226.70
891.58	226.73
891.89	226.73
892.20	226.68
892.50	226.73
892.81	226.74
893.12	226.71
893.42	226.45
893.73	226.46
894.04	226.50
894.34	226.64
894.65	226.63
894.95	226.59
895.26	226.61
895.57	226.82
895.87	226.38
896.18	226.55
896.48	226.54
896.79	226.57
897.10	226.69
897.40	226.70
897.71	226.74
898.01	226.71
898.32	226.75
898.63	226.72
898.93	226.74
899.24	226.73
899.54	226.71
899.85	226.76
900.15	226.76
900.46	226.75
900.76	226.78
901.07	226.81
901.38	226.79
901.68	226.90
901.99	226.69
902.29	226.78
902.60	226.68
902.90	226.69
903.21	226.72
903.51	226.60
903.82	226.66
904.12	226.68
904.43	226.71
904.73	226.80
905.03	226.80
905.34	227.29
905.64	227.20
905.95	227.21
906.25	227.26
906.56	227.33
906.86	227.37
907.17	227.33
907.47	227.37
907.77	227.35
908.08	227.21
908.38	227.15
908.69	227.17
908.99	227.28
909.30	227.31
909.60	227.29
909.90	227.38
910.21	227.27
910.51	227.18
910.81	227.17
911.12	227.09
911.42	227.17
911.73	226.60
912.03	226.71
912.33	226.85
912.64	226.73
912.94	226.64
913.24	226.52
913.55	226.45
913.85	226.37
914.15	226.49
914.46	226.53
914.76	226.56
915.06	226.56
915.37	226.54
915.67	226.55
915.97	226.48
916.27	226.41
916.58	226.50
916.88	226.45
917.18	226.46
917.49	226.83
917.79	226.78
918.09	226.92
918.39	227.04
918.70	227.01
919.00	227.04
919.30	227.27
919.60	227.30
919.91	227.26
920.21	227.29
920.51	227.09
920.81	227.12
921.12	227.19
921.42	227.14
921.72	227.12
922.02	227.10
922.32	227.26
922.63	227.20
922.93	227.45
923.23	227.47
923.53	227.35
923.83	227.00
924.13	227.04
924.44	226.96
924.74	227.03
925.04	227.05
925.34	227.05
925.64	226.91
925.94	226.95
926.24	227.21
926.55	227.15
926.85	227.30
927.15	227.29
927.45	227.27
927.75	227.26
928.05	227.34
928.35	227.30
928.65	227.28
928.95	227.40
929.26	227.12
929.56	227.25
929.86	227.36
930.16	227.31
930.46	227.35
930.76	227.38
931.06	227.12
931.36	226.96
931.66	227.08
931.96	227.05
932.26	227.00
932.56	226.82
932.86	226.90
933.16	226.78
933.46	226.74
933.76	226.66
934.06	226.79
934.36	226.89
934.66	226.86
934.96	226.83
935.26	226.84
935.56	226.96
935.86	226.76
936.16	226.61
936.46	226.54
936.76	226.41
937.06	226.36
937.36	226.45
937.66	226.51
937.96	226.41
938.26	226.34
938.56	226.34
938.86	226.32
939.16	226.39
939.46	226.49
939.76	226.50
940.06	226.52
940.35	226.40
940.65	226.04
940.95	226.13
941.25	225.99
941.55	225.88
941.85	225.83
942.15	225.99
942.45	226.17
942.75	226.20
943.04	226.27
943.34	226.35
943.64	226.30
943.94	226.23
944.24	226.25
944.54	226.26
944.84	226.20
945.13	226.15
945.43	226.11
945.73	226.10
946.03	226.04
946.33	226.01
946.62	226.00
946.92	226.06
947.22	226.06
947.52	226.19
947.82	226.32
948.11	226.24
948.41	226.13
948.71	225.96
949.01	225.99
949.31	225.93
949.60	225.89
949.90	225.97
950.20	226.00
950.50	226.05
950.79	226.01
951.09	226.09
951.39	226.16
951.69	226.06
951.98	226.15
952.28	226.28
952.58	226.25
952.87	226.26
953.17	226.40
953.47	226.32
953.76	226.24
954.06	226.13
954.36	226.10
954.66	226.17
954.95	226.37
955.25	226.32
955.55	226.41
955.84	226.35
956.14	226.41
956.44	226.42
956.73	226.35
957.03	226.36
957.32	226.34
957.62	226.27
957.92	226.43
958.21	226.39
958.51	226.88
958.81	226.96
959.10	227.02
959.40	227.12
959.69	227.20
959.99	227.29
960.29	227.27
960.58	227.26
960.88	227.38
961.17	227.30
961.47	227.42
961.76	227.39
962.06	227.49
962.36	227.39
962.65	227.38
962.95	227.32
963.24	227.34
963.54	227.39
963.83	227.45
964.13	227.39
964.42	227.26
964.72	226.85
965.01	226.89
965.31	226.80
965.60	226.61
965.90	226.90
966.19	226.77
966.49	226.79
966.78	226.77
967.08	226.75
967.37	226.71
967.67	226.58
967.96	226.66
968.26	226.57
968.55	226.66
968.85	226.65
969.14	226.64
969.43	226.60
969.73	226.54
970.02	226.53
970.32	226.45
970.61	226.46
970.91	226.29
971.20	226.20
971.49	226.14
971.79	226.23
972.08	225.84
972.38	225.95
972.67	225.95
972.96	226.06
973.26	225.97
973.55	226.17
973.85	226.20
974.14	226.15
974.43	226.24
974.73	226.12
975.02	226.09
975.31	226.17
975.61	226.17
975.90	226.09
976.19	225.99
976.49	226.09
976.78	226.14
977.07	226.13
977.37	226.16
977.66	226.24
977.95	226.13
978.24	226.14
978.54	226.20
978.83	226.16
979.12	226.13
979.42	226.16
979.71	226.02
980.00	226.01
980.29	226.02
980.59	225.91
980.88	226.07
981.17	226.04
981.46	226.01
981.76	226.01
982.05	226.25
982.34	226.30
982.63	226.27
982.93	226.32
983.22	226.49
983.51	226.51
983.80	226.63
984.09	226.76
984.39	226.84
984.68	226.75
984.97	226.83
985.26	226.83
985.55	226.83
985.85	226.79
986.14	226.90
986.43	226.94
986.72	226.94
987.01	226.78
987.30	226.83
987.59	226.81
987.89	226.86
988.18	226.71
988.47	226.66
988.76	226.66
989.05	226.57
989.34	226.49
989.63	226.60
989.92	226.50
990.22	226.41
990.51	226.32
990.80	226.29
991.09	226.30
991.38	226.35
991.67	226.34
991.96	226.28
992.25	226.27
992.54	226.19
992.83	226.20
993.12	226.23
993.41	226.27
993.70	226.44
993.99	226.46
994.28	226.54
994.58	226.62
994.87	226.60
995.16	226.57
995.45	226.54
995.74	226.32
996.03	226.42
996.32	226.49
996.61	226.60
996.90	226.58
997.19	226.52
997.48	226.48
997.77	226.33
998.06	226.30
998.34	226.21
998.63	226.24
998.92	226.25
999.21	226.29
999.50	226.32
999.79	226.19
1000.08	226.24
1000.37	226.18
1000.66	226.13
1000.95	226.18
1001.24	226.22
1001.53	226.24
1001.82	226.26
1002.11	226.05
1002.40	226.08
1002.68	226.17
1002.97	226.56
1003.26	226.50
1003.55	226.38
1003.84	226.51
1004.13	226.70
1004.42	226.74
1004.71	226.79
1004.99	226.78
1005.28	226.84
1005.57	226.79
1005.86	226.67
1006.15	226.58
1006.44	226.54
1006.72	226.60
1007.01	226.56
1007.30	226.53
1007.59	226.50
1007.88	226.51
1008.17	226.61
1008.45	226.52
1008.74	226.30
1009.03	226.09
1009.32	226.14
1009.60	226.17
1009.89	226.08
1010.18	225.91
1010.47	225.88
1010.76	225.73
1011.04	225.71
1011.33	225.79
1011.62	225.85
1011.91	225.95
1012.19	226.00
1012.48	226.03
1012.77	226.05
1013.05	226.25
1013.34	226.25
1013.63	226.26
1013.92	226.29
1014.20	226.27
1014.49	226.33
1014.78	226.47
1015.06	226.30
1015.35	226.30
1015.64	226.41
1015.92	226.48
1016.21	226.52
1016.50	226.51
1016.78	226.63
1017.07	226.67
1017.36	226.53
1017.64	226.37
1017.93	226.41
1018.22	226.39
1018.50	226.35
1018.79	226.31
1019.08	226.05
1019.36	226.10
1019.65	226.01
1019.93	226.07
1020.22	226.15
1020.51	226.36
1020.79	226.22
1021.08	226.35
1021.36	224.95
1021.65	226.35
1021.94	225.05
1022.22	226.45
1022.51	225.00
1022.79	227.05
1023.08	227.45
1023.36	231.50
1023.65	224.05
>>>>>End Processed Spectral Data<<<<<
