SpectraSuite Data File
++++++++++++++++++++++++++++++++++++
Date: Wed Sep 04 17:46:32 EDT 2013
User: lab3
Dark Spectrum Present: Yes
Reference Spectrum Present: No
Number of Sampled Component Spectra: 1
Spectrometers: USB2E7196
Integration Time (usec): 170000 (USB2E7196)
Spectra Averaged: 20 (USB2E7196)
Boxcar Smoothing: 10 (USB2E7196)
Correct for Electrical Dark: No (USB2E7196)
Strobe/Lamp Enabled: No (USB2E7196)
Correct for Detector Non-linearity: No (USB2E7196)
Correct for Stray Light: No (USB2E7196)
Number of Pixels in Processed Spectrum: 2048
>>>>>Begin Processed Spectral Data<<<<<
339.09	0.00
339.48	212.90
339.86	213.95
340.24	216.70
340.63	217.50
341.01	225.65
341.39	220.70
341.78	223.00
342.16	224.10
342.54	222.75
342.93	212.19
343.31	222.85
343.69	223.43
344.07	223.96
344.46	224.37
344.84	224.76
345.22	224.70
345.60	225.00
345.99	225.13
346.37	225.24
346.75	225.38
347.13	225.47
347.52	225.44
347.90	225.68
348.28	225.77
348.66	225.92
349.05	225.77
349.43	225.89
349.81	225.95
350.19	225.98
350.57	226.03
350.96	226.18
351.34	226.30
351.72	226.28
352.10	226.40
352.48	226.36
352.87	226.38
353.25	226.48
353.63	226.41
354.01	226.45
354.39	226.43
354.77	226.48
355.15	226.69
355.54	226.74
355.92	226.64
356.30	226.68
356.68	227.03
357.06	227.12
357.44	227.08
357.82	227.13
358.20	227.61
358.58	227.67
358.97	227.73
359.35	227.92
359.73	228.15
360.11	228.12
360.49	228.29
360.87	228.37
361.25	228.43
361.63	228.69
362.01	228.79
362.39	228.88
362.77	228.97
363.15	228.97
363.53	229.00
363.91	229.09
364.29	229.12
364.67	228.68
365.05	228.75
365.43	228.86
365.81	228.97
366.19	228.85
366.57	229.10
366.95	229.10
367.33	229.00
367.71	228.95
368.09	229.06
368.47	229.04
368.85	229.02
369.23	229.18
369.61	229.07
369.99	229.25
370.37	229.27
370.75	229.44
371.13	229.41
371.51	229.35
371.89	229.33
372.27	229.36
372.65	229.37
373.03	229.34
373.41	229.33
373.78	229.22
374.16	228.95
374.54	228.71
374.92	228.56
375.30	228.47
375.68	228.37
376.06	228.32
376.44	228.24
376.82	228.20
377.19	228.09
377.57	227.95
377.95	227.70
378.33	227.60
378.71	227.27
379.09	227.26
379.47	227.19
379.84	227.02
380.22	226.83
380.60	226.68
380.98	226.63
381.36	226.45
381.73	226.33
382.11	226.28
382.49	226.25
382.87	226.16
383.25	226.11
383.62	226.65
384.00	226.48
384.38	226.44
384.76	226.51
385.13	226.57
385.51	226.50
385.89	226.34
386.27	226.33
386.64	226.40
387.02	226.21
387.40	226.20
387.78	226.20
388.15	226.22
388.53	226.17
388.91	226.11
389.29	226.04
389.66	226.10
390.04	226.08
390.42	226.12
390.79	226.23
391.17	226.27
391.55	225.71
391.92	225.77
392.30	225.84
392.68	225.71
393.05	225.75
393.43	225.86
393.81	225.98
394.18	225.92
394.56	225.91
394.94	225.98
395.31	225.94
395.69	226.12
396.06	226.24
396.44	226.29
396.82	226.31
397.19	226.65
397.57	226.67
397.95	226.80
398.32	226.74
398.70	226.86
399.07	226.99
399.45	226.99
399.82	227.10
400.20	227.12
400.58	227.17
400.95	227.06
401.33	227.13
401.70	227.49
402.08	227.68
402.45	227.81
402.83	228.15
403.20	228.41
403.58	228.45
403.95	228.64
404.33	228.95
404.71	229.16
405.08	229.66
405.46	229.87
405.83	230.11
406.21	230.39
406.58	230.61
406.96	230.87
407.33	231.27
407.70	231.65
408.08	232.33
408.45	232.81
408.83	233.29
409.20	233.68
409.58	233.89
409.95	234.46
410.33	235.02
410.70	235.33
411.08	235.90
411.45	236.56
411.82	237.14
412.20	237.87
412.57	238.84
412.95	239.10
413.32	239.97
413.69	240.83
414.07	241.79
414.44	242.77
414.82	243.76
415.19	244.95
415.56	246.00
415.94	247.04
416.31	248.44
416.68	249.83
417.06	251.43
417.43	252.99
417.81	254.62
418.18	256.41
418.55	258.39
418.93	260.35
419.30	262.43
419.67	264.60
420.04	266.72
420.42	269.02
420.79	272.12
421.16	274.86
421.54	277.82
421.91	280.75
422.28	283.68
422.66	286.91
423.03	290.21
423.40	293.50
423.77	296.92
424.15	300.44
424.52	304.24
424.89	308.37
425.26	312.30
425.64	316.14
426.01	320.18
426.38	324.39
426.75	328.90
427.13	333.35
427.50	338.09
427.87	342.96
428.24	347.77
428.61	352.07
428.99	357.20
429.36	362.45
429.73	367.78
430.10	373.26
430.47	378.81
430.85	384.39
431.22	390.60
431.59	397.35
431.96	403.60
432.33	410.20
432.70	416.77
433.08	424.47
433.45	431.67
433.82	439.01
434.19	447.06
434.56	455.07
434.93	462.55
435.30	470.19
435.68	478.55
436.05	486.81
436.42	495.07
436.79	502.62
437.16	510.90
437.53	519.66
437.90	528.27
438.27	536.67
438.64	545.40
439.01	553.37
439.38	560.28
439.75	567.13
440.13	575.12
440.50	582.51
440.87	588.58
441.24	594.74
441.61	601.65
441.98	606.60
442.35	612.16
442.72	618.13
443.09	623.80
443.46	627.40
443.83	629.66
444.20	631.54
444.57	634.16
444.94	635.44
445.31	636.33
445.68	637.59
446.05	637.87
446.42	636.76
446.79	635.75
447.16	634.29
447.53	633.06
447.90	629.40
448.27	625.61
448.64	620.70
449.01	617.17
449.37	611.01
449.74	605.33
450.11	598.70
450.48	591.30
450.85	583.40
451.22	576.53
451.59	570.07
451.96	563.93
452.33	556.03
452.70	548.63
453.07	540.30
453.43	531.37
453.80	523.06
454.17	515.00
454.54	507.24
454.91	499.15
455.28	491.31
455.65	484.07
456.02	477.56
456.38	471.32
456.75	463.80
457.12	457.46
457.49	451.18
457.86	444.91
458.23	439.76
458.59	434.13
458.96	428.54
459.33	423.55
459.70	418.49
460.07	414.47
460.43	409.86
460.80	405.64
461.17	402.05
461.54	398.14
461.91	394.42
462.27	390.61
462.64	387.49
463.01	384.05
463.38	380.78
463.74	376.83
464.11	373.95
464.48	371.35
464.85	368.57
465.21	366.43
465.58	364.14
465.95	361.26
466.32	359.20
466.68	356.92
467.05	354.71
467.42	352.56
467.78	350.28
468.15	348.19
468.52	346.69
468.88	344.44
469.25	342.56
469.62	341.16
469.98	339.62
470.35	338.10
470.72	336.65
471.08	334.97
471.45	333.76
471.82	332.51
472.18	331.11
472.55	330.01
472.92	328.72
473.28	327.66
473.65	326.68
474.02	325.55
474.38	324.66
474.75	323.96
475.11	323.12
475.48	322.56
475.85	321.98
476.21	321.12
476.58	320.70
476.94	320.28
477.31	319.74
477.67	319.20
478.04	318.85
478.41	318.75
478.77	319.11
479.14	318.77
479.50	318.67
479.87	318.70
480.23	318.83
480.60	318.77
480.96	318.71
481.33	318.98
481.69	319.24
482.06	319.47
482.42	319.64
482.79	320.04
483.15	320.45
483.52	321.08
483.88	321.65
484.25	322.14
484.61	322.71
484.98	323.33
485.34	324.36
485.71	325.33
486.07	326.16
486.44	326.74
486.80	327.79
487.17	328.91
487.53	330.19
487.90	331.45
488.26	333.15
488.62	334.86
488.99	336.48
489.35	338.19
489.72	340.11
490.08	342.15
490.44	344.12
490.81	346.32
491.17	348.42
491.54	350.88
491.90	353.50
492.26	356.24
492.63	359.16
492.99	361.90
493.36	364.98
493.72	368.35
494.08	371.62
494.45	375.32
494.81	379.13
495.17	382.99
495.54	387.08
495.90	391.20
496.26	395.63
496.63	400.24
496.99	405.00
497.35	409.97
497.72	415.21
498.08	420.63
498.44	426.19
498.80	432.20
499.17	438.24
499.53	444.38
499.89	450.97
500.26	457.58
500.62	464.57
500.98	471.92
501.34	479.24
501.71	487.04
502.07	494.93
502.43	502.95
502.79	511.17
503.16	519.95
503.52	528.81
503.88	537.89
504.24	547.34
504.60	557.33
504.97	567.55
505.33	577.82
505.69	588.86
506.05	599.90
506.41	610.89
506.78	622.36
507.14	634.36
507.50	646.59
507.86	658.97
508.22	671.75
508.59	684.49
508.95	698.00
509.31	711.89
509.67	725.90
510.03	740.13
510.39	754.68
510.75	769.35
511.12	784.38
511.48	799.87
511.84	815.64
512.20	831.26
512.56	847.30
512.92	863.76
513.28	880.37
513.64	897.35
514.00	914.59
514.37	932.09
514.73	949.91
515.09	967.98
515.45	986.25
515.81	1004.46
516.17	1023.15
516.53	1041.65
516.89	1059.97
517.25	1079.14
517.61	1099.07
517.97	1119.20
518.33	1138.91
518.69	1159.18
519.05	1179.36
519.41	1199.46
519.77	1220.42
520.13	1240.88
520.49	1261.31
520.85	1283.13
521.21	1303.96
521.57	1325.14
521.93	1345.58
522.29	1366.36
522.65	1386.45
523.01	1407.17
523.37	1427.49
523.73	1447.93
524.09	1467.97
524.45	1488.24
524.81	1508.38
525.17	1528.58
525.53	1548.43
525.89	1569.11
526.25	1589.36
526.61	1609.17
526.97	1629.58
527.33	1650.04
527.68	1671.40
528.04	1692.42
528.40	1711.91
528.76	1732.32
529.12	1752.39
529.48	1772.90
529.84	1792.70
530.20	1813.59
530.56	1833.86
530.91	1854.27
531.27	1874.16
531.63	1894.46
531.99	1914.74
532.35	1934.56
532.71	1954.21
533.07	1974.30
533.42	1993.48
533.78	2012.98
534.14	2032.31
534.50	2051.18
534.86	2070.12
535.21	2086.99
535.57	2104.99
535.93	2121.86
536.29	2138.96
536.65	2156.69
537.00	2174.02
537.36	2191.24
537.72	2207.12
538.08	2223.48
538.44	2239.69
538.79	2255.79
539.15	2271.68
539.51	2287.06
539.87	2301.46
540.22	2314.92
540.58	2329.01
540.94	2341.95
541.29	2354.08
541.65	2366.47
542.01	2378.44
542.37	2388.27
542.72	2398.92
543.08	2408.76
543.44	2419.87
543.79	2429.63
544.15	2438.80
544.51	2447.92
544.87	2456.84
545.22	2464.99
545.58	2472.62
545.94	2479.02
546.29	2485.05
546.65	2490.78
547.01	2496.45
547.36	2501.89
547.72	2506.92
548.07	2510.23
548.43	2514.94
548.79	2519.13
549.14	2522.99
549.50	2526.33
549.86	2529.97
550.21	2533.42
550.57	2536.59
550.92	2537.58
551.28	2538.82
551.64	2541.06
551.99	2542.82
552.35	2543.93
552.70	2545.88
553.06	2547.31
553.41	2548.71
553.77	2550.09
554.13	2551.54
554.48	2552.26
554.84	2553.08
555.19	2554.30
555.55	2556.05
555.90	2555.15
556.26	2553.95
556.61	2551.94
556.97	2549.47
557.32	2548.61
557.68	2547.38
558.03	2545.59
558.39	2544.41
558.74	2543.34
559.10	2539.58
559.45	2535.46
559.81	2530.91
560.16	2525.46
560.52	2520.28
560.87	2515.56
561.23	2510.18
561.58	2504.20
561.94	2497.25
562.29	2490.20
562.64	2483.05
563.00	2474.57
563.35	2468.17
563.71	2461.58
564.06	2455.10
564.42	2448.89
564.77	2441.83
565.12	2434.17
565.48	2426.57
565.83	2418.35
566.19	2410.17
566.54	2402.34
566.89	2394.46
567.25	2386.80
567.60	2379.72
567.96	2372.09
568.31	2364.30
568.66	2355.93
569.02	2346.84
569.37	2338.70
569.72	2331.10
570.08	2321.72
570.43	2312.54
570.78	2303.41
571.14	2294.20
571.49	2284.25
571.84	2274.73
572.20	2264.17
572.55	2254.04
572.90	2243.21
573.26	2233.42
573.61	2222.48
573.96	2211.45
574.31	2199.60
574.67	2187.88
575.02	2175.41
575.37	2162.70
575.72	2149.51
576.08	2137.51
576.43	2125.25
576.78	2112.20
577.13	2098.48
577.49	2086.08
577.84	2074.49
578.19	2062.45
578.54	2049.78
578.90	2038.06
579.25	2025.91
579.60	2013.56
579.95	2000.78
580.30	1987.61
580.66	1974.03
581.01	1960.60
581.36	1946.93
581.71	1934.76
582.06	1922.15
582.42	1909.80
582.77	1897.63
583.12	1886.20
583.47	1874.05
583.82	1862.55
584.17	1850.88
584.53	1839.77
584.88	1827.23
585.23	1814.10
585.58	1800.08
585.93	1787.27
586.28	1774.39
586.63	1760.70
586.98	1746.83
587.34	1734.12
587.69	1721.40
588.04	1709.15
588.39	1697.45
588.74	1685.45
589.09	1673.72
589.44	1661.29
589.79	1649.60
590.14	1637.89
590.49	1625.95
590.84	1614.12
591.19	1602.06
591.54	1590.21
591.89	1578.20
592.25	1568.23
592.60	1557.03
592.95	1546.28
593.30	1534.70
593.65	1523.01
594.00	1511.43
594.35	1501.99
594.70	1490.51
595.05	1479.39
595.40	1468.00
595.75	1456.39
596.10	1445.62
596.45	1434.20
596.80	1424.03
597.15	1412.79
597.50	1401.32
597.85	1390.25
598.19	1378.84
598.54	1367.54
598.89	1356.79
599.24	1346.31
599.59	1335.15
599.94	1324.51
600.29	1314.47
600.64	1304.52
600.99	1294.17
601.34	1284.92
601.69	1274.00
602.04	1264.40
602.39	1255.27
602.74	1246.18
603.08	1237.28
603.43	1228.32
603.78	1219.00
604.13	1209.49
604.48	1200.21
604.83	1191.07
605.18	1181.67
605.53	1172.54
605.87	1163.93
606.22	1155.75
606.57	1146.82
606.92	1137.67
607.27	1129.35
607.62	1120.83
607.96	1112.55
608.31	1104.70
608.66	1096.48
609.01	1088.31
609.36	1079.96
609.70	1071.71
610.05	1063.32
610.40	1054.94
610.75	1046.51
611.10	1038.55
611.44	1030.13
611.79	1022.37
612.14	1014.76
612.49	1007.15
612.83	999.95
613.18	992.10
613.53	984.56
613.88	976.92
614.22	969.42
614.57	961.64
614.92	953.95
615.27	946.82
615.61	939.38
615.96	932.04
616.31	924.78
616.65	918.14
617.00	910.88
617.35	903.90
617.70	897.16
618.04	890.33
618.39	883.48
618.74	877.45
619.08	870.66
619.43	863.65
619.78	856.93
620.12	849.93
620.47	843.44
620.82	836.36
621.16	829.79
621.51	823.54
621.85	817.39
622.20	811.14
622.55	804.64
622.89	798.36
623.24	792.25
623.59	785.93
623.93	779.66
624.28	773.76
624.62	768.32
624.97	762.57
625.32	756.95
625.66	751.21
626.01	745.12
626.35	739.74
626.70	734.54
627.04	729.17
627.39	723.71
627.73	718.53
628.08	713.60
628.43	708.33
628.77	703.06
629.12	698.12
629.46	693.37
629.81	688.77
630.15	684.39
630.50	679.52
630.84	674.91
631.19	670.46
631.53	666.10
631.88	660.87
632.22	656.12
632.57	651.74
632.91	647.32
633.26	643.06
633.60	638.46
633.95	633.97
634.29	629.50
634.64	625.32
634.98	620.66
635.32	616.29
635.67	612.40
636.01	608.42
636.36	604.17
636.70	600.24
637.05	596.20
637.39	592.07
637.73	588.11
638.08	584.32
638.42	580.14
638.77	576.07
639.11	572.16
639.45	568.03
639.80	563.71
640.14	559.84
640.49	555.96
640.83	552.38
641.17	548.86
641.52	545.22
641.86	541.79
642.20	538.81
642.55	535.36
642.89	531.90
643.23	528.39
643.58	525.36
643.92	521.89
644.26	518.44
644.61	515.28
644.95	512.07
645.29	508.73
645.64	505.69
645.98	502.64
646.32	499.77
646.66	496.78
647.01	493.98
647.35	491.25
647.69	488.32
648.04	485.55
648.38	482.80
648.72	480.04
649.06	477.22
649.41	474.15
649.75	471.19
650.09	468.41
650.43	465.69
650.78	462.85
651.12	460.00
651.46	457.38
651.80	454.53
652.14	452.01
652.49	449.61
652.83	447.04
653.17	444.43
653.51	441.76
653.85	439.58
654.20	437.21
654.54	434.69
654.88	432.31
655.22	430.20
655.56	427.80
655.90	425.52
656.25	423.24
656.59	421.30
656.93	419.29
657.27	417.21
657.61	414.95
657.95	412.73
658.29	410.69
658.64	408.65
658.98	406.68
659.32	404.42
659.66	402.29
660.00	400.37
660.34	398.45
660.68	396.66
661.02	394.60
661.36	392.74
661.70	390.85
662.05	389.06
662.39	387.10
662.73	385.36
663.07	383.80
663.41	382.04
663.75	380.03
664.09	378.30
664.43	376.44
664.77	374.85
665.11	373.14
665.45	371.60
665.79	369.97
666.13	368.34
666.47	366.77
666.81	365.14
667.15	363.39
667.49	361.93
667.83	360.57
668.17	359.19
668.51	357.73
668.85	356.43
669.19	355.29
669.53	353.75
669.87	352.24
670.21	350.73
670.55	349.37
670.89	348.35
671.23	346.98
671.57	345.65
671.91	344.38
672.25	343.05
672.58	341.74
672.92	340.35
673.26	339.03
673.60	337.96
673.94	336.87
674.28	335.79
674.62	334.62
674.96	333.26
675.30	332.04
675.64	330.87
675.97	329.54
676.31	328.13
676.65	326.91
676.99	325.95
677.33	324.77
677.67	323.73
678.01	322.46
678.34	321.41
678.68	320.42
679.02	319.33
679.36	318.36
679.70	317.39
680.04	316.47
680.37	315.60
680.71	314.52
681.05	313.70
681.39	312.72
681.73	311.72
682.06	310.85
682.40	310.02
682.74	309.24
683.08	308.62
683.42	307.72
683.75	306.91
684.09	305.96
684.43	305.28
684.77	304.42
685.10	303.65
685.44	302.98
685.78	302.13
686.12	301.35
686.45	300.51
686.79	299.69
687.13	299.10
687.46	298.35
687.80	297.79
688.14	296.92
688.48	296.27
688.81	295.60
689.15	295.02
689.49	294.27
689.82	293.57
690.16	292.57
690.50	291.93
690.83	291.27
691.17	290.55
691.51	289.83
691.84	289.25
692.18	288.50
692.52	287.73
692.85	287.23
693.19	286.83
693.52	286.32
693.86	285.66
694.20	284.97
694.53	284.37
694.87	283.72
695.21	283.12
695.54	282.55
695.88	281.90
696.21	281.20
696.55	280.54
696.88	279.88
697.22	279.33
697.56	278.91
697.89	278.31
698.23	277.94
698.56	277.39
698.90	276.85
699.23	276.31
699.57	275.90
699.90	275.19
700.24	274.54
700.58	274.07
700.91	273.72
701.25	273.57
701.58	273.49
701.92	273.10
702.25	272.63
702.59	272.11
702.92	271.73
703.26	271.29
703.59	270.97
703.93	271.09
704.26	270.77
704.60	270.31
704.93	269.85
705.26	269.32
705.60	268.93
705.93	268.43
706.27	268.25
706.60	268.00
706.94	267.99
707.27	267.60
707.61	267.29
707.94	266.88
708.27	266.15
708.61	265.27
708.94	264.85
709.28	264.50
709.61	264.08
709.94	263.80
710.28	263.50
710.61	263.16
710.95	262.35
711.28	262.31
711.61	261.93
711.95	261.78
712.28	261.41
712.61	261.11
712.95	261.08
713.28	260.87
713.61	260.40
713.95	259.87
714.28	259.55
714.61	259.13
714.95	258.74
715.28	258.36
715.61	258.14
715.95	257.87
716.28	257.58
716.61	257.40
716.95	256.93
717.28	256.53
717.61	256.19
717.94	255.85
718.28	255.25
718.61	254.96
718.94	254.58
719.27	254.32
719.61	254.08
719.94	253.65
720.27	253.21
720.60	252.91
720.94	252.64
721.27	252.48
721.60	252.31
721.93	252.13
722.27	252.09
722.60	252.02
722.93	251.75
723.26	251.56
723.59	251.27
723.93	251.14
724.26	250.98
724.59	250.82
724.92	250.65
725.25	250.51
725.59	250.21
725.92	250.08
726.25	249.87
726.58	249.76
726.91	249.50
727.24	249.36
727.57	249.16
727.91	248.88
728.24	248.70
728.57	248.42
728.90	248.28
729.23	247.91
729.56	247.83
729.89	247.68
730.22	247.40
730.55	247.24
730.89	247.09
731.22	246.86
731.55	246.59
731.88	246.43
732.21	246.24
732.54	246.12
732.87	245.92
733.20	245.75
733.53	245.51
733.86	245.43
734.19	245.14
734.52	245.10
734.85	245.30
735.18	245.10
735.51	245.13
735.84	244.95
736.17	244.89
736.50	244.54
736.83	244.88
737.16	244.68
737.49	244.55
737.82	244.37
738.15	244.28
738.48	244.17
738.81	243.98
739.14	243.75
739.47	243.61
739.80	243.42
740.13	243.35
740.46	243.11
740.79	242.86
741.12	242.69
741.45	242.41
741.78	242.06
742.11	242.05
742.44	241.76
742.77	241.72
743.10	241.49
743.43	241.30
743.75	240.66
744.08	241.16
744.41	240.96
744.74	240.80
745.07	240.49
745.40	240.41
745.73	240.51
746.06	240.39
746.39	240.29
746.71	240.17
747.04	239.91
747.37	239.75
747.70	239.70
748.03	239.57
748.36	239.51
748.68	239.34
749.01	239.03
749.34	238.91
749.67	238.78
750.00	238.74
750.33	238.93
750.65	238.84
750.98	238.17
751.31	238.11
751.64	238.00
751.97	238.21
752.29	238.08
752.62	237.66
752.95	237.56
753.28	237.38
753.60	237.22
753.93	237.28
754.26	237.28
754.59	237.04
754.91	236.87
755.24	236.75
755.57	236.62
755.90	236.53
756.22	236.30
756.55	236.13
756.88	235.97
757.20	235.55
757.53	235.35
757.86	235.24
758.19	235.20
758.51	235.14
758.84	234.82
759.17	234.64
759.49	234.61
759.82	234.74
760.15	234.69
760.47	234.68
760.80	234.43
761.13	234.42
761.45	234.33
761.78	234.34
762.11	234.30
762.43	234.18
762.76	234.06
763.08	234.12
763.41	234.06
763.74	234.03
764.06	234.05
764.39	233.96
764.71	233.93
765.04	233.78
765.37	233.55
765.69	233.54
766.02	233.46
766.34	233.37
766.67	233.09
767.00	233.20
767.32	233.38
767.65	233.61
767.97	233.49
768.30	233.46
768.62	233.43
768.95	233.34
769.27	233.33
769.60	233.41
769.92	233.35
770.25	233.22
770.57	233.10
770.90	232.95
771.22	232.98
771.55	232.88
771.87	232.76
772.20	232.77
772.52	233.13
772.85	233.74
773.17	233.76
773.50	233.77
773.82	233.55
774.15	233.24
774.47	232.94
774.80	232.85
775.12	232.89
775.45	232.79
775.77	232.71
776.09	232.66
776.42	232.58
776.74	232.61
777.07	232.56
777.39	232.59
777.72	232.57
778.04	232.49
778.36	232.43
778.69	232.51
779.01	232.54
779.33	232.04
779.66	231.45
779.98	231.38
780.31	231.33
780.63	231.53
780.95	231.55
781.28	231.51
781.60	231.41
781.92	231.31
782.25	231.27
782.57	231.27
782.89	231.20
783.22	231.13
783.54	230.99
783.86	230.99
784.19	230.87
784.51	231.01
784.83	230.94
785.16	230.89
785.48	230.82
785.80	230.82
786.12	230.78
786.45	230.74
786.77	230.72
787.09	230.62
787.42	230.42
787.74	230.44
788.06	230.40
788.38	230.43
788.71	230.37
789.03	230.33
789.35	230.36
789.67	230.27
789.99	230.29
790.32	230.20
790.64	230.16
790.96	230.53
791.28	230.26
791.61	230.11
791.93	230.13
792.25	230.05
792.57	230.31
792.89	230.25
793.21	230.13
793.54	230.00
793.86	229.94
794.18	229.93
794.50	229.79
794.82	229.74
795.14	229.70
795.47	229.77
795.79	229.70
796.11	229.51
796.43	229.53
796.75	229.34
797.07	229.31
797.39	229.25
797.71	228.84
798.04	228.85
798.36	228.94
798.68	228.85
799.00	228.83
799.32	228.57
799.64	228.65
799.96	228.69
800.28	228.81
800.60	228.79
800.92	228.75
801.24	228.70
801.56	228.75
801.89	228.73
802.21	228.69
802.53	228.69
802.85	228.80
803.17	229.01
803.49	229.06
803.81	229.02
804.13	229.05
804.45	229.04
804.77	229.10
805.09	229.11
805.41	229.09
805.73	229.00
806.05	228.91
806.37	228.79
806.69	228.73
807.01	228.66
807.33	228.71
807.65	228.56
807.97	228.76
808.28	228.72
808.60	228.74
808.92	228.64
809.24	228.94
809.56	228.87
809.88	228.63
810.20	228.61
810.52	228.75
810.84	228.69
811.16	228.62
811.48	228.53
811.80	228.61
812.12	228.58
812.43	228.70
812.75	228.70
813.07	228.68
813.39	228.75
813.71	228.74
814.03	228.63
814.35	228.65
814.67	228.51
814.98	228.40
815.30	228.38
815.62	228.32
815.94	228.00
816.26	228.21
816.58	228.12
816.89	228.19
817.21	228.08
817.53	228.12
817.85	228.16
818.17	228.23
818.48	228.04
818.80	228.21
819.12	228.15
819.44	228.04
819.76	228.00
820.07	227.94
820.39	227.90
820.71	227.97
821.03	227.92
821.34	227.74
821.66	227.84
821.98	227.84
822.30	227.86
822.61	228.10
822.93	227.76
823.25	227.76
823.57	227.59
823.88	227.60
824.20	227.51
824.52	227.53
824.83	227.47
825.15	227.50
825.47	227.46
825.79	227.45
826.10	227.39
826.42	227.42
826.74	227.43
827.05	227.41
827.37	227.32
827.69	227.36
828.00	227.49
828.32	227.46
828.64	227.45
828.95	227.74
829.27	227.53
829.58	227.54
829.90	227.60
830.22	227.69
830.53	227.66
830.85	227.61
831.17	227.51
831.48	227.45
831.80	227.29
832.11	227.16
832.43	227.04
832.75	227.07
833.06	227.36
833.38	227.21
833.69	227.19
834.01	227.29
834.32	227.19
834.64	227.11
834.96	227.10
835.27	227.05
835.59	226.85
835.90	226.83
836.22	226.86
836.53	226.73
836.85	226.66
837.16	227.11
837.48	227.09
837.79	227.20
838.11	227.30
838.42	227.40
838.74	227.52
839.05	227.58
839.37	227.52
839.68	227.16
840.00	227.20
840.31	227.25
840.63	227.14
840.94	227.16
841.26	227.11
841.57	227.06
841.88	227.10
842.20	226.99
842.51	226.91
842.83	226.93
843.14	227.43
843.46	227.51
843.77	227.25
844.08	227.27
844.40	227.20
844.71	227.06
845.03	227.08
845.34	227.00
845.65	226.99
845.97	227.07
846.28	227.09
846.60	227.09
846.91	227.04
847.22	227.05
847.54	227.18
847.85	227.22
848.16	227.24
848.48	227.17
848.79	227.39
849.10	227.50
849.42	227.52
849.73	227.10
850.04	227.01
850.36	226.81
850.67	226.91
850.98	226.93
851.30	227.02
851.61	226.95
851.92	226.95
852.23	227.15
852.55	227.11
852.86	227.22
853.17	227.31
853.49	227.40
853.80	227.51
854.11	227.48
854.42	227.61
854.74	227.60
855.05	227.59
855.36	227.28
855.67	227.23
855.99	227.22
856.30	227.75
856.61	227.79
856.92	227.84
857.23	227.74
857.55	227.64
857.86	227.53
858.17	227.68
858.48	227.61
858.79	227.44
859.11	227.49
859.42	227.37
859.73	227.26
860.04	227.21
860.35	227.11
860.66	226.99
860.98	226.92
861.29	226.95
861.60	226.89
861.91	227.11
862.22	227.06
862.53	226.98
862.84	226.44
863.16	226.52
863.47	226.44
863.78	226.47
864.09	226.51
864.40	226.63
864.71	226.64
865.02	226.71
865.33	226.66
865.64	226.50
865.95	226.55
866.27	226.87
866.58	226.85
866.89	226.87
867.20	226.85
867.51	226.77
867.82	226.73
868.13	226.90
868.44	226.76
868.75	226.88
869.06	226.95
869.37	226.90
869.68	226.74
869.99	226.81
870.30	226.82
870.61	226.84
870.92	226.70
871.23	226.62
871.54	226.67
871.85	226.79
872.16	226.93
872.47	226.87
872.78	226.63
873.09	226.63
873.40	226.62
873.71	226.69
874.02	226.78
874.33	226.70
874.64	226.51
874.95	226.59
875.26	226.43
875.56	226.33
875.87	226.35
876.18	226.36
876.49	226.81
876.80	226.84
877.11	226.77
877.42	226.87
877.73	226.87
878.04	226.79
878.35	226.76
878.66	226.80
878.96	226.78
879.27	226.74
879.58	226.76
879.89	226.74
880.20	226.76
880.51	226.67
880.82	226.66
881.12	226.77
881.43	226.67
881.74	226.68
882.05	226.73
882.36	226.75
882.67	226.82
882.97	226.23
883.28	226.20
883.59	226.20
883.90	226.21
884.21	226.32
884.51	226.27
884.82	226.21
885.13	226.15
885.44	226.15
885.74	226.11
886.05	226.05
886.36	226.01
886.67	225.87
886.98	226.19
887.28	226.26
887.59	226.26
887.90	226.27
888.20	226.23
888.51	226.28
888.82	226.25
889.13	226.30
889.43	226.71
889.74	226.65
890.05	226.67
890.35	226.71
890.66	226.54
890.97	226.52
891.28	226.40
891.58	226.43
891.89	226.44
892.20	226.47
892.50	226.45
892.81	226.47
893.12	226.47
893.42	226.15
893.73	226.12
894.04	226.07
894.34	226.16
894.65	226.20
894.95	226.19
895.26	226.22
895.57	226.42
895.87	226.00
896.18	226.08
896.48	226.07
896.79	226.01
897.10	226.15
897.40	226.17
897.71	226.31
898.01	226.29
898.32	226.28
898.63	226.18
898.93	226.29
899.24	226.22
899.54	226.24
899.85	226.20
900.15	226.30
900.46	226.31
900.76	226.25
901.07	226.19
901.38	226.15
901.68	226.20
901.99	225.96
902.29	226.05
902.60	225.96
902.90	225.97
903.21	225.96
903.51	225.87
903.82	226.01
904.12	226.01
904.43	226.10
904.73	226.16
905.03	226.26
905.34	226.65
905.64	226.69
905.95	226.72
906.25	226.75
906.56	226.63
906.86	226.68
907.17	226.68
907.47	226.78
907.77	226.72
908.08	226.55
908.38	226.54
908.69	226.54
908.99	226.65
909.30	226.70
909.60	226.61
909.90	226.70
910.21	226.48
910.51	226.36
910.81	226.24
911.12	226.31
911.42	226.25
911.73	225.73
912.03	225.81
912.33	225.92
912.64	225.94
912.94	225.94
913.24	225.81
913.55	225.77
913.85	225.64
914.15	225.78
914.46	225.89
914.76	225.91
915.06	225.85
915.37	225.77
915.67	225.69
915.97	225.76
916.27	225.63
916.58	225.65
916.88	225.68
917.18	225.65
917.49	225.91
917.79	225.93
918.09	226.02
918.39	226.11
918.70	226.02
919.00	226.02
919.30	226.27
919.60	226.26
919.91	226.26
920.21	226.34
920.51	226.18
920.81	226.11
921.12	226.14
921.42	226.16
921.72	226.14
922.02	226.19
922.32	226.24
922.63	226.27
922.93	226.60
923.23	226.67
923.53	226.64
923.83	226.29
924.13	226.26
924.44	226.23
924.74	226.30
925.04	226.50
925.34	226.48
925.64	226.34
925.94	226.35
926.24	226.63
926.55	226.55
926.85	226.62
927.15	226.67
927.45	226.65
927.75	226.65
928.05	226.69
928.35	226.60
928.65	226.75
928.95	226.79
929.26	226.54
929.56	226.59
929.86	226.70
930.16	226.67
930.46	226.67
930.76	226.65
931.06	226.43
931.36	226.27
931.66	226.38
931.96	226.34
932.26	226.43
932.56	226.19
932.86	226.27
933.16	226.31
933.46	226.29
933.76	226.26
934.06	226.33
934.36	226.49
934.66	226.56
934.96	226.45
935.26	226.46
935.56	226.55
935.86	226.48
936.16	226.40
936.46	226.43
936.76	226.48
937.06	226.46
937.36	226.44
937.66	226.36
937.96	226.34
938.26	226.32
938.56	226.25
938.86	226.32
939.16	226.41
939.46	226.47
939.76	226.47
940.06	226.51
940.35	226.47
940.65	226.28
940.95	226.30
941.25	226.23
941.55	226.20
941.85	226.16
942.15	226.23
942.45	226.40
942.75	226.35
943.04	226.35
943.34	226.42
943.64	226.43
943.94	226.44
944.24	226.42
944.54	226.44
944.84	226.42
945.13	226.35
945.43	226.30
945.73	226.29
946.03	226.34
946.33	226.27
946.62	226.25
946.92	226.23
947.22	226.29
947.52	226.31
947.82	226.39
948.11	226.36
948.41	226.22
948.71	226.03
949.01	226.02
949.31	225.98
949.60	225.96
949.90	226.05
950.20	226.03
950.50	225.95
950.79	225.90
951.09	225.98
951.39	225.97
951.69	225.85
951.98	225.92
952.28	225.83
952.58	225.76
952.87	225.77
953.17	225.77
953.47	225.67
953.76	225.60
954.06	225.48
954.36	225.42
954.66	225.41
954.95	225.64
955.25	225.69
955.55	225.72
955.84	225.65
956.14	225.71
956.44	225.79
956.73	225.78
957.03	225.79
957.32	225.80
957.62	225.74
957.92	225.87
958.21	225.81
958.51	226.36
958.81	226.44
959.10	226.45
959.40	226.60
959.69	226.60
959.99	226.68
960.29	226.65
960.58	226.55
960.88	226.78
961.17	226.68
961.47	226.71
961.76	226.67
962.06	226.76
962.36	226.67
962.65	226.64
962.95	226.73
963.24	226.70
963.54	226.70
963.83	226.75
964.13	226.65
964.42	226.47
964.72	226.09
965.01	226.05
965.31	225.99
965.60	225.87
965.90	226.22
966.19	226.05
966.49	226.08
966.78	226.14
967.08	226.04
967.37	225.98
967.67	225.92
967.96	225.97
968.26	225.94
968.55	225.96
968.85	225.98
969.14	225.90
969.43	225.85
969.73	225.78
970.02	225.72
970.32	225.80
970.61	225.78
970.91	225.67
971.20	225.63
971.49	225.64
971.79	225.65
972.08	225.28
972.38	225.38
972.67	225.39
972.96	225.38
973.26	225.28
973.55	225.47
973.85	225.40
974.14	225.35
974.43	225.43
974.73	225.32
975.02	225.28
975.31	225.30
975.61	225.31
975.90	225.31
976.19	225.34
976.49	225.30
976.78	225.37
977.07	225.37
977.37	225.46
977.66	225.52
977.95	225.45
978.24	225.48
978.54	225.60
978.83	225.57
979.12	225.59
979.42	225.62
979.71	225.48
980.00	225.49
980.29	225.52
980.59	225.40
980.88	225.58
981.17	225.50
981.46	225.56
981.76	225.60
982.05	225.69
982.34	225.75
982.63	225.79
982.93	225.83
983.22	226.00
983.51	225.94
983.80	225.98
984.09	226.11
984.39	226.12
984.68	226.03
984.97	226.08
985.26	226.00
985.55	226.06
985.85	225.96
986.14	226.08
986.43	226.07
986.72	226.02
987.01	225.82
987.30	225.95
987.59	225.87
987.89	225.92
988.18	225.78
988.47	225.68
988.76	225.63
989.05	225.56
989.34	225.44
989.63	225.59
989.92	225.54
990.22	225.37
990.51	225.37
990.80	225.40
991.09	225.40
991.38	225.48
991.67	225.35
991.96	225.33
992.25	225.35
992.54	225.25
992.83	225.29
993.12	225.29
993.41	225.29
993.70	225.51
993.99	225.51
994.28	225.63
994.58	225.74
994.87	225.71
995.16	225.69
995.45	225.69
995.74	225.56
996.03	225.58
996.32	225.74
996.61	225.83
996.90	225.77
997.19	225.76
997.48	225.84
997.77	225.81
998.06	225.88
998.34	225.80
998.63	225.84
998.92	225.87
999.21	225.90
999.50	225.88
999.79	225.63
1000.08	225.60
1000.37	225.59
1000.66	225.51
1000.95	225.64
1001.24	225.69
1001.53	225.72
1001.82	225.75
1002.11	225.66
1002.40	225.65
1002.68	225.77
1002.97	226.15
1003.26	226.03
1003.55	225.97
1003.84	226.10
1004.13	226.25
1004.42	226.20
1004.71	226.17
1004.99	226.15
1005.28	226.35
1005.57	226.38
1005.86	226.38
1006.15	226.38
1006.44	226.24
1006.72	226.34
1007.01	226.20
1007.30	226.24
1007.59	226.19
1007.88	226.11
1008.17	226.15
1008.45	226.06
1008.74	225.85
1009.03	225.59
1009.32	225.69
1009.60	225.69
1009.89	225.59
1010.18	225.45
1010.47	225.44
1010.76	225.57
1011.04	225.50
1011.33	225.47
1011.62	225.52
1011.91	225.55
1012.19	225.55
1012.48	225.66
1012.77	225.60
1013.05	225.85
1013.34	225.86
1013.63	225.84
1013.92	225.89
1014.20	225.85
1014.49	225.87
1014.78	225.91
1015.06	225.71
1015.35	225.74
1015.64	225.77
1015.92	225.83
1016.21	225.84
1016.50	225.86
1016.78	225.87
1017.07	225.97
1017.36	225.86
1017.64	225.69
1017.93	225.76
1018.22	225.70
1018.50	225.63
1018.79	225.63
1019.08	225.39
1019.36	225.39
1019.65	225.37
1019.93	225.49
1020.22	225.56
1020.51	225.79
1020.79	225.72
1021.08	224.60
1021.36	224.30
1021.65	225.55
1021.94	225.00
1022.22	226.15
1022.51	224.90
1022.79	227.80
1023.08	226.05
1023.36	231.05
1023.65	224.05
>>>>>End Processed Spectral Data<<<<<
