SpectraSuite Data File
++++++++++++++++++++++++++++++++++++
Date: Wed Sep 04 17:55:08 EDT 2013
User: lab3
Dark Spectrum Present: Yes
Reference Spectrum Present: No
Number of Sampled Component Spectra: 1
Spectrometers: USB2E7196
Integration Time (usec): 170000 (USB2E7196)
Spectra Averaged: 20 (USB2E7196)
Boxcar Smoothing: 10 (USB2E7196)
Correct for Electrical Dark: No (USB2E7196)
Strobe/Lamp Enabled: No (USB2E7196)
Correct for Detector Non-linearity: No (USB2E7196)
Correct for Stray Light: No (USB2E7196)
Number of Pixels in Processed Spectrum: 2048
>>>>>Begin Processed Spectral Data<<<<<
339.09	0.00
339.48	212.95
339.86	215.55
340.24	216.75
340.63	219.00
341.01	226.25
341.39	219.75
341.78	221.90
342.16	222.55
342.54	222.00
342.93	212.43
343.31	223.07
343.69	223.64
344.07	224.06
344.46	224.53
344.84	224.89
345.22	224.89
345.60	225.23
345.99	225.39
346.37	225.60
346.75	225.75
347.13	225.87
347.52	226.00
347.90	226.20
348.28	226.19
348.66	226.36
349.05	226.26
349.43	226.29
349.81	226.43
350.19	226.45
350.57	226.50
350.96	226.64
351.34	226.85
351.72	226.93
352.10	227.05
352.48	227.06
352.87	227.07
353.25	227.10
353.63	227.04
354.01	227.05
354.39	227.06
354.77	227.10
355.15	227.31
355.54	227.31
355.92	227.27
356.30	227.37
356.68	227.80
357.06	227.89
357.44	227.94
357.82	227.87
358.20	228.37
358.58	228.46
358.97	228.50
359.35	228.60
359.73	228.77
360.11	228.79
360.49	228.92
360.87	229.03
361.25	229.13
361.63	229.37
362.01	229.55
362.39	229.59
362.77	229.75
363.15	229.72
363.53	229.69
363.91	229.63
364.29	229.65
364.67	229.17
365.05	229.22
365.43	229.25
365.81	229.37
366.19	229.18
366.57	229.38
366.95	229.46
367.33	229.40
367.71	229.38
368.09	229.53
368.47	229.50
368.85	229.44
369.23	229.53
369.61	229.38
369.99	229.51
370.37	229.59
370.75	229.75
371.13	229.57
371.51	229.51
371.89	229.60
372.27	229.60
372.65	229.64
373.03	229.62
373.41	229.56
373.78	229.49
374.16	229.24
374.54	229.01
374.92	228.94
375.30	228.89
375.68	228.79
376.06	228.70
376.44	228.66
376.82	228.69
377.19	228.64
377.57	228.61
377.95	228.42
378.33	228.30
378.71	228.03
379.09	228.12
379.47	228.15
379.84	228.02
380.22	227.92
380.60	227.75
380.98	227.70
381.36	227.65
381.73	227.57
382.11	227.61
382.49	227.56
382.87	227.43
383.25	227.42
383.62	227.94
384.00	227.81
384.38	227.69
384.76	227.70
385.13	227.75
385.51	227.68
385.89	227.55
386.27	227.51
386.64	227.46
387.02	227.28
387.40	227.21
387.78	227.26
388.15	227.22
388.53	227.12
388.91	227.07
389.29	226.97
389.66	226.93
390.04	226.81
390.42	226.83
390.79	226.86
391.17	226.72
391.55	226.08
391.92	226.09
392.30	226.11
392.68	225.99
393.05	226.00
393.43	226.01
393.81	226.03
394.18	226.01
394.56	226.02
394.94	226.20
395.31	226.24
395.69	226.37
396.06	226.44
396.44	226.52
396.82	226.51
397.19	226.85
397.57	226.88
397.95	227.03
398.32	226.99
398.70	227.10
399.07	227.29
399.45	227.40
399.82	227.48
400.20	227.57
400.58	227.66
400.95	227.50
401.33	227.70
401.70	228.12
402.08	228.23
402.45	228.37
402.83	228.50
403.20	228.67
403.58	228.78
403.95	229.04
404.33	229.28
404.71	229.54
405.08	229.93
405.46	230.10
405.83	230.33
406.21	230.57
406.58	230.85
406.96	231.10
407.33	231.47
407.70	231.86
408.08	232.56
408.45	232.98
408.83	233.52
409.20	233.90
409.58	234.08
409.95	234.66
410.33	235.24
410.70	235.68
411.08	236.24
411.45	236.87
411.82	237.43
412.20	238.24
412.57	239.22
412.95	239.65
413.32	240.50
413.69	241.31
414.07	242.29
414.44	243.18
414.82	244.21
415.19	245.30
415.56	246.52
415.94	247.52
416.31	248.91
416.68	250.29
417.06	251.90
417.43	253.50
417.81	255.21
418.18	257.02
418.55	258.99
418.93	261.15
419.30	263.20
419.67	265.47
420.04	267.79
420.42	270.10
420.79	273.14
421.16	275.96
421.54	279.04
421.91	282.06
422.28	285.20
422.66	288.53
423.03	292.04
423.40	295.35
423.77	298.80
424.15	302.43
424.52	306.24
424.89	310.38
425.26	314.39
425.64	318.18
426.01	322.30
426.38	326.65
426.75	331.07
427.13	335.76
427.50	340.46
427.87	345.21
428.24	350.11
428.61	354.62
428.99	359.95
429.36	365.45
429.73	371.07
430.10	376.58
430.47	382.25
430.85	387.91
431.22	394.13
431.59	401.11
431.96	407.34
432.33	414.42
432.70	421.11
433.08	428.95
433.45	436.46
433.82	443.88
434.19	452.20
434.56	460.28
434.93	467.89
435.30	475.57
435.68	484.24
436.05	492.82
436.42	501.21
436.79	508.82
437.16	517.06
437.53	525.64
437.90	534.46
438.27	543.03
438.64	551.89
439.01	560.24
439.38	567.36
439.75	574.54
440.13	582.42
440.50	589.81
440.87	595.94
441.24	602.29
441.61	609.31
441.98	614.21
442.35	619.97
442.72	625.94
443.09	631.78
443.46	635.11
443.83	637.39
444.20	639.24
444.57	642.01
444.94	643.12
445.31	644.19
445.68	645.49
446.05	645.74
446.42	644.40
446.79	642.88
447.16	641.29
447.53	640.11
447.90	636.44
448.27	632.92
448.64	628.06
449.01	624.27
449.37	618.09
449.74	612.10
450.11	605.38
450.48	597.71
450.85	589.94
451.22	583.15
451.59	576.45
451.96	570.13
452.33	561.97
452.70	554.53
453.07	545.90
453.43	536.67
453.80	528.21
454.17	520.16
454.54	512.55
454.91	504.23
455.28	496.00
455.65	488.51
456.02	481.57
456.38	475.13
456.75	467.39
457.12	460.80
457.49	454.49
457.86	448.06
458.23	442.73
458.59	436.86
458.96	431.02
459.33	425.81
459.70	420.71
460.07	416.63
460.43	411.98
460.80	407.69
461.17	404.00
461.54	399.99
461.91	396.25
462.27	392.30
462.64	389.12
463.01	385.68
463.38	382.45
463.74	378.47
464.11	375.53
464.48	372.88
464.85	369.97
465.21	367.89
465.58	365.55
465.95	362.80
466.32	360.56
466.68	358.27
467.05	356.05
467.42	353.87
467.78	351.59
468.15	349.49
468.52	347.99
468.88	345.74
469.25	343.84
469.62	342.37
469.98	340.75
470.35	339.20
470.72	337.71
471.08	335.97
471.45	334.79
471.82	333.48
472.18	332.08
472.55	331.19
472.92	329.93
473.28	328.83
473.65	327.75
474.02	326.69
474.38	325.87
474.75	325.16
475.11	324.30
475.48	323.70
475.85	323.09
476.21	322.40
476.58	322.04
476.94	321.75
477.31	321.10
477.67	320.61
478.04	320.35
478.41	320.16
478.77	320.50
479.14	320.19
479.50	320.19
479.87	320.27
480.23	320.28
480.60	320.18
480.96	320.27
481.33	320.62
481.69	320.86
482.06	321.11
482.42	321.42
482.79	321.85
483.15	322.23
483.52	322.91
483.88	323.46
484.25	323.91
484.61	324.47
484.98	325.21
485.34	326.26
485.71	327.19
486.07	328.17
486.44	328.71
486.80	329.84
487.17	330.80
487.53	332.14
487.90	333.50
488.26	335.35
488.62	336.92
488.99	338.44
489.35	340.20
489.72	342.03
490.08	344.06
490.44	346.05
490.81	348.25
491.17	350.42
491.54	352.86
491.90	355.46
492.26	358.14
492.63	361.08
492.99	363.85
493.36	366.93
493.72	370.32
494.08	373.75
494.45	377.41
494.81	381.35
495.17	385.19
495.54	389.30
495.90	393.37
496.26	397.87
496.63	402.53
496.99	407.26
497.35	412.41
497.72	417.62
498.08	423.07
498.44	428.76
498.80	434.84
499.17	440.89
499.53	447.09
499.89	453.62
500.26	460.40
500.62	467.28
500.98	474.68
501.34	482.09
501.71	489.86
502.07	497.74
502.43	505.85
502.79	514.28
503.16	523.08
503.52	532.08
503.88	541.34
504.24	551.04
504.60	561.12
504.97	571.36
505.33	581.79
505.69	592.89
506.05	603.84
506.41	615.08
506.78	626.68
507.14	638.70
507.50	651.02
507.86	663.68
508.22	676.76
508.59	689.78
508.95	703.36
509.31	717.45
509.67	731.69
510.03	746.01
510.39	760.59
510.75	775.33
511.12	790.52
511.48	806.00
511.84	821.78
512.20	837.66
512.56	853.85
512.92	870.67
513.28	887.55
513.64	904.82
514.00	922.26
514.37	939.96
514.73	958.25
515.09	976.61
515.45	994.79
515.81	1013.18
516.17	1031.74
516.53	1050.42
516.89	1069.10
517.25	1088.33
517.61	1108.70
517.97	1129.26
518.33	1149.60
518.69	1169.90
519.05	1190.17
519.41	1210.75
519.77	1231.49
520.13	1252.15
520.49	1272.68
520.85	1294.57
521.21	1315.66
521.57	1336.87
521.93	1357.85
522.29	1378.91
522.65	1399.43
523.01	1420.36
523.37	1441.08
523.73	1462.14
524.09	1482.86
524.45	1503.54
524.81	1524.46
525.17	1544.89
525.53	1565.17
525.89	1585.87
526.25	1606.65
526.61	1627.10
526.97	1648.10
527.33	1669.60
527.68	1691.38
528.04	1712.68
528.40	1732.52
528.76	1753.62
529.12	1774.17
529.48	1794.68
529.84	1814.60
530.20	1835.80
530.56	1856.77
530.91	1877.40
531.27	1897.93
531.63	1918.60
531.99	1939.22
532.35	1959.15
532.71	1979.05
533.07	1999.82
533.42	2019.77
533.78	2039.83
534.14	2059.55
534.50	2078.40
534.86	2097.53
535.21	2115.27
535.57	2133.61
535.93	2151.30
536.29	2168.99
536.65	2187.07
537.00	2204.81
537.36	2222.41
537.72	2238.75
538.08	2255.79
538.44	2272.76
538.79	2289.06
539.15	2305.42
539.51	2321.44
539.87	2336.74
540.22	2351.03
540.58	2365.10
540.94	2378.44
541.29	2390.98
541.65	2403.71
542.01	2416.62
542.37	2427.16
542.72	2438.01
543.08	2448.77
543.44	2460.52
543.79	2470.50
544.15	2480.42
544.51	2490.47
544.87	2500.07
545.22	2508.91
545.58	2516.58
545.94	2523.77
546.29	2530.43
546.65	2536.71
547.01	2542.57
547.36	2548.11
547.72	2553.66
548.07	2557.56
548.43	2562.82
548.79	2567.22
549.14	2571.58
549.50	2575.10
549.86	2579.26
550.21	2582.95
550.57	2586.30
550.92	2587.67
551.28	2589.09
551.64	2591.32
551.99	2592.91
552.35	2594.41
552.70	2596.44
553.06	2598.05
553.41	2599.14
553.77	2600.92
554.13	2602.21
554.48	2603.64
554.84	2605.07
555.19	2606.22
555.55	2608.03
555.90	2607.30
556.26	2606.69
556.61	2604.73
556.97	2602.53
557.32	2601.86
557.68	2600.89
558.03	2599.53
558.39	2598.15
558.74	2597.12
559.10	2593.92
559.45	2590.40
559.81	2586.16
560.16	2580.98
560.52	2575.95
560.87	2571.72
561.23	2566.31
561.58	2560.62
561.94	2553.60
562.29	2546.05
562.64	2538.94
563.00	2530.67
563.35	2524.08
563.71	2517.58
564.06	2511.58
564.42	2505.11
564.77	2497.79
565.12	2490.21
565.48	2482.34
565.83	2474.60
566.19	2466.51
566.54	2458.40
566.89	2450.65
567.25	2442.98
567.60	2435.73
567.96	2428.47
568.31	2420.36
568.66	2411.68
569.02	2402.66
569.37	2394.43
569.72	2386.96
570.08	2377.63
570.43	2368.23
570.78	2358.98
571.14	2349.47
571.49	2339.02
571.84	2329.56
572.20	2318.81
572.55	2308.76
572.90	2297.66
573.26	2287.28
573.61	2276.50
573.96	2265.46
574.31	2253.32
574.67	2241.72
575.02	2229.10
575.37	2216.32
575.72	2203.00
576.08	2190.77
576.43	2178.12
576.78	2165.08
577.13	2151.30
577.49	2138.76
577.84	2126.95
578.19	2114.90
578.54	2102.10
578.90	2090.47
579.25	2077.95
579.60	2065.53
579.95	2052.54
580.30	2039.63
580.66	2026.29
581.01	2012.65
581.36	1998.67
581.71	1986.21
582.06	1973.10
582.42	1960.80
582.77	1948.21
583.12	1936.46
583.47	1924.17
583.82	1912.47
584.17	1900.14
584.53	1888.38
584.88	1875.70
585.23	1862.44
585.58	1848.25
585.93	1835.23
586.28	1821.69
586.63	1807.83
586.98	1793.57
587.34	1780.42
587.69	1767.45
588.04	1754.55
588.39	1742.35
588.74	1730.25
589.09	1718.14
589.44	1705.21
589.79	1693.05
590.14	1681.03
590.49	1668.83
590.84	1656.83
591.19	1644.75
591.54	1632.61
591.89	1620.33
592.25	1609.79
592.60	1598.27
592.95	1586.92
593.30	1574.73
593.65	1563.17
594.00	1551.53
594.35	1541.92
594.70	1530.07
595.05	1518.62
595.40	1506.87
595.75	1495.16
596.10	1483.89
596.45	1472.10
596.80	1461.40
597.15	1449.90
597.50	1438.09
597.85	1426.88
598.19	1415.20
598.54	1403.52
598.89	1392.34
599.24	1381.93
599.59	1370.40
599.94	1359.75
600.29	1349.46
600.64	1339.45
600.99	1328.70
601.34	1319.04
601.69	1307.67
602.04	1297.87
602.39	1287.91
602.74	1278.54
603.08	1269.09
603.43	1259.94
603.78	1250.34
604.13	1240.74
604.48	1231.06
604.83	1221.55
605.18	1211.56
605.53	1202.15
605.87	1192.92
606.22	1184.48
606.57	1174.99
606.92	1165.77
607.27	1156.69
607.62	1147.95
607.96	1139.31
608.31	1131.46
608.66	1123.00
609.01	1114.61
609.36	1106.12
609.70	1097.78
610.05	1089.23
610.40	1080.78
610.75	1071.99
611.10	1063.60
611.44	1054.93
611.79	1046.76
612.14	1038.93
612.49	1031.22
612.83	1023.75
613.18	1015.89
613.53	1008.12
613.88	1000.23
614.22	992.36
614.57	984.43
614.92	976.50
615.27	968.90
615.61	961.06
615.96	953.37
616.31	945.74
616.65	938.58
617.00	931.22
617.35	924.06
617.70	916.86
618.04	909.85
618.39	902.99
618.74	896.71
619.08	889.78
619.43	882.61
619.78	875.58
620.12	868.45
620.47	861.81
620.82	854.51
621.16	847.70
621.51	841.47
621.85	835.27
622.20	828.80
622.55	822.28
622.89	815.79
623.24	809.42
623.59	803.27
623.93	797.10
624.28	790.99
624.62	785.16
624.97	779.42
625.32	773.60
625.66	767.68
626.01	761.54
626.35	756.06
626.70	750.56
627.04	745.34
627.39	739.65
627.73	734.31
628.08	729.25
628.43	723.96
628.77	718.42
629.12	713.00
629.46	708.11
629.81	703.23
630.15	698.43
630.50	693.37
630.84	688.48
631.19	683.43
631.53	678.84
631.88	673.60
632.22	668.68
632.57	664.18
632.91	659.55
633.26	655.38
633.60	650.65
633.95	646.12
634.29	641.29
634.64	636.89
634.98	632.13
635.32	627.87
635.67	623.90
636.01	619.67
636.36	615.43
636.70	611.32
637.05	607.32
637.39	603.21
637.73	599.28
638.08	595.32
638.42	591.10
638.77	586.78
639.11	582.54
639.45	578.22
639.80	573.92
640.14	569.97
640.49	565.71
640.83	561.98
641.17	558.29
641.52	554.65
641.86	551.21
642.20	547.86
642.55	544.16
642.89	540.56
643.23	537.11
643.58	534.02
643.92	530.31
644.26	526.76
644.61	523.47
644.95	520.21
645.29	516.80
645.64	513.73
645.98	510.70
646.32	507.84
646.66	504.73
647.01	501.75
647.35	498.87
647.69	495.76
648.04	492.89
648.38	490.04
648.72	487.14
649.06	484.05
649.41	480.96
649.75	477.94
650.09	475.11
650.43	472.28
650.78	469.37
651.12	466.58
651.46	463.83
651.80	461.09
652.14	458.29
652.49	455.83
652.83	453.25
653.17	450.58
653.51	447.94
653.85	445.61
654.20	443.11
654.54	440.62
654.88	438.36
655.22	436.08
655.56	433.68
655.90	431.32
656.25	429.08
656.59	427.05
656.93	424.83
657.27	422.65
657.61	420.26
657.95	417.97
658.29	416.01
658.64	413.99
658.98	411.83
659.32	409.64
659.66	407.30
660.00	405.26
660.34	403.28
660.68	401.24
661.02	399.18
661.36	397.29
661.70	395.21
662.05	393.21
662.39	391.31
662.73	389.48
663.07	387.77
663.41	385.91
663.75	383.86
664.09	382.05
664.43	380.15
664.77	378.56
665.11	376.71
665.45	374.97
665.79	373.25
666.13	371.52
666.47	369.93
666.81	368.50
667.15	366.71
667.49	365.18
667.83	363.78
668.17	362.21
668.51	360.68
668.85	359.33
669.19	358.19
669.53	356.54
669.87	354.91
670.21	353.33
670.55	351.91
670.89	350.84
671.23	349.50
671.57	347.99
671.91	346.52
672.25	345.31
672.58	344.01
672.92	342.60
673.26	341.17
673.60	339.79
673.94	338.47
674.28	337.53
674.62	336.37
674.96	335.11
675.30	333.99
675.64	332.87
675.97	331.61
676.31	330.18
676.65	328.97
676.99	328.11
677.33	327.05
677.67	325.98
678.01	324.59
678.34	323.50
678.68	322.60
679.02	321.60
679.36	320.55
679.70	319.49
680.04	318.53
680.37	317.71
680.71	316.81
681.05	315.95
681.39	314.91
681.73	313.89
682.06	313.00
682.40	312.12
682.74	311.26
683.08	310.56
683.42	309.67
683.75	309.03
684.09	307.97
684.43	307.13
684.77	306.26
685.10	305.50
685.44	304.70
685.78	303.90
686.12	303.14
686.45	302.32
686.79	301.47
687.13	300.77
687.46	300.00
687.80	299.44
688.14	298.63
688.48	297.95
688.81	297.27
689.15	296.54
689.49	295.84
689.82	295.14
690.16	294.21
690.50	293.52
690.83	292.72
691.17	292.09
691.51	291.49
691.84	290.88
692.18	290.23
692.52	289.49
692.85	288.89
693.19	288.42
693.52	287.87
693.86	287.30
694.20	286.67
694.53	286.08
694.87	285.32
695.21	284.59
695.54	283.90
695.88	283.24
696.21	282.50
696.55	281.83
696.88	281.17
697.22	280.65
697.56	280.18
697.89	279.56
698.23	279.16
698.56	278.46
698.90	277.97
699.23	277.39
699.57	277.03
699.90	276.44
700.24	275.82
700.58	275.29
700.91	274.85
701.25	274.75
701.58	274.61
701.92	274.26
702.25	273.94
702.59	273.55
702.92	273.12
703.26	272.83
703.59	272.44
703.93	272.42
704.26	272.00
704.60	271.54
704.93	271.09
705.26	270.50
705.60	270.15
705.93	269.65
706.27	269.41
706.60	269.05
706.94	268.89
707.27	268.43
707.61	268.10
707.94	267.77
708.27	267.03
708.61	266.24
708.94	265.84
709.28	265.40
709.61	264.92
709.94	264.51
710.28	264.07
710.61	263.77
710.95	262.96
711.28	262.90
711.61	262.60
711.95	262.33
712.28	262.00
712.61	261.69
712.95	261.59
713.28	261.34
713.61	260.94
713.95	260.40
714.28	260.18
714.61	259.82
714.95	259.35
715.28	258.87
715.61	258.51
715.95	258.18
716.28	257.78
716.61	257.56
716.95	257.21
717.28	256.88
717.61	256.47
717.94	256.20
718.28	255.55
718.61	255.24
718.94	254.94
719.27	254.63
719.61	254.44
719.94	254.07
720.27	253.62
720.60	253.37
720.94	253.16
721.27	252.80
721.60	252.65
721.93	252.45
722.27	252.40
722.60	252.26
722.93	251.94
723.26	251.85
723.59	251.54
723.93	251.49
724.26	251.36
724.59	251.14
724.92	250.98
725.25	250.98
725.59	250.69
725.92	250.55
726.25	250.40
726.58	250.13
726.91	249.91
727.24	249.81
727.57	249.57
727.91	249.32
728.24	249.27
728.57	249.01
728.90	248.87
729.23	248.58
729.56	248.62
729.89	248.54
730.22	248.27
730.55	248.14
730.89	247.92
731.22	247.66
731.55	247.54
731.88	247.34
732.21	247.07
732.54	246.96
732.87	246.70
733.20	246.55
733.53	246.35
733.86	246.15
734.19	245.90
734.52	245.85
734.85	246.06
735.18	245.76
735.51	245.75
735.84	245.69
736.17	245.67
736.50	245.30
736.83	245.68
737.16	245.57
737.49	245.46
737.82	245.28
738.15	245.21
738.48	245.03
738.81	244.95
739.14	244.74
739.47	244.56
739.80	244.46
740.13	244.31
740.46	244.21
740.79	243.98
741.12	243.79
741.45	243.60
741.78	243.16
742.11	243.24
742.44	242.93
742.77	242.78
743.10	242.56
743.43	242.40
743.75	241.75
744.08	242.25
744.41	242.01
744.74	241.85
745.07	241.62
745.40	241.55
745.73	241.62
746.06	241.48
746.39	241.35
746.71	241.13
747.04	240.89
747.37	240.75
747.70	240.82
748.03	240.72
748.36	240.63
748.68	240.49
749.01	240.20
749.34	240.10
749.67	239.95
750.00	239.98
750.33	240.26
750.65	240.15
750.98	239.42
751.31	239.35
751.64	239.24
751.97	239.35
752.29	239.25
752.62	238.80
752.95	238.69
753.28	238.55
753.60	238.47
753.93	238.51
754.26	238.40
754.59	238.10
754.91	237.92
755.24	237.73
755.57	237.63
755.90	237.50
756.22	237.37
756.55	237.22
756.88	237.00
757.20	236.49
757.53	236.29
757.86	236.15
758.19	236.08
758.51	236.01
758.84	235.74
759.17	235.57
759.49	235.58
759.82	235.66
760.15	235.64
760.47	235.54
760.80	235.35
761.13	235.36
761.45	235.28
761.78	235.21
762.11	235.27
762.43	234.99
762.76	234.87
763.08	234.80
763.41	234.82
763.74	234.74
764.06	234.64
764.39	234.54
764.71	234.46
765.04	234.37
765.37	234.28
765.69	234.17
766.02	234.07
766.34	233.88
766.67	233.71
767.00	233.70
767.32	233.85
767.65	234.05
767.97	233.93
768.30	233.91
768.62	233.88
768.95	233.66
769.27	233.70
769.60	233.76
769.92	233.68
770.25	233.43
770.57	233.28
770.90	233.25
771.22	233.14
771.55	233.10
771.87	233.04
772.20	232.98
772.52	233.33
772.85	233.89
773.17	233.85
773.50	233.79
773.82	233.60
774.15	233.36
774.47	233.02
774.80	232.88
775.12	232.80
775.45	232.78
775.77	232.80
776.09	232.83
776.42	232.77
776.74	232.86
777.07	232.77
777.39	232.73
777.72	232.66
778.04	232.70
778.36	232.70
778.69	232.68
779.01	232.64
779.33	232.24
779.66	231.63
779.98	231.64
780.31	231.58
780.63	231.81
780.95	231.85
781.28	231.86
781.60	231.76
781.92	231.81
782.25	231.69
782.57	231.57
782.89	231.48
783.22	231.34
783.54	231.16
783.86	231.28
784.19	231.17
784.51	231.22
784.83	231.14
785.16	231.01
785.48	230.98
785.80	230.88
786.12	230.89
786.45	230.90
786.77	230.87
787.09	230.81
787.42	230.53
787.74	230.48
788.06	230.41
788.38	230.45
788.71	230.29
789.03	230.31
789.35	230.42
789.67	230.36
789.99	230.36
790.32	230.27
790.64	230.21
790.96	230.65
791.28	230.59
791.61	230.50
791.93	230.51
792.25	230.42
792.57	230.73
792.89	230.59
793.21	230.56
793.54	230.46
793.86	230.38
794.18	230.39
794.50	230.28
794.82	230.26
795.14	230.21
795.47	230.28
795.79	230.29
796.11	230.09
796.43	229.95
796.75	229.89
797.07	229.95
797.39	229.93
797.71	229.57
798.04	229.45
798.36	229.50
798.68	229.47
799.00	229.50
799.32	229.26
799.64	229.41
799.96	229.42
800.28	229.52
800.60	229.51
800.92	229.49
801.24	229.50
801.56	229.54
801.89	229.55
802.21	229.61
802.53	229.50
802.85	229.68
803.17	229.93
803.49	229.97
803.81	229.97
804.13	229.93
804.45	229.84
804.77	229.99
805.09	229.92
805.41	229.84
805.73	229.72
806.05	229.57
806.37	229.49
806.69	229.44
807.01	229.30
807.33	229.32
807.65	229.20
807.97	229.36
808.28	229.34
808.60	229.28
808.92	229.18
809.24	229.42
809.56	229.29
809.88	229.13
810.20	229.09
810.52	229.11
810.84	229.02
811.16	228.95
811.48	228.82
811.80	229.02
812.12	229.02
812.43	229.12
812.75	229.14
813.07	229.01
813.39	228.95
813.71	228.89
814.03	228.80
814.35	228.81
814.67	228.57
814.98	228.41
815.30	228.36
815.62	228.24
815.94	227.91
816.26	228.03
816.58	227.92
816.89	227.90
817.21	227.72
817.53	227.80
817.85	227.80
818.17	227.72
818.48	227.45
818.80	227.58
819.12	227.49
819.44	227.41
819.76	227.36
820.07	227.32
820.39	227.32
820.71	227.31
821.03	227.28
821.34	227.28
821.66	227.37
821.98	227.40
822.30	227.40
822.61	227.64
822.93	227.43
823.25	227.44
823.57	227.45
823.88	227.54
824.20	227.46
824.52	227.60
824.83	227.63
825.15	227.58
825.47	227.48
825.79	227.51
826.10	227.51
826.42	227.52
826.74	227.60
827.05	227.64
827.37	227.75
827.69	227.77
828.00	227.80
828.32	227.81
828.64	227.83
828.95	228.09
829.27	227.98
829.58	228.05
829.90	228.07
830.22	228.05
830.53	228.00
830.85	227.99
831.17	227.86
831.48	227.82
831.80	227.92
832.11	227.95
832.43	227.86
832.75	227.83
833.06	228.07
833.38	227.98
833.69	227.92
834.01	227.88
834.32	227.88
834.64	227.88
834.96	227.85
835.27	227.81
835.59	227.68
835.90	227.77
836.22	227.77
836.53	227.73
836.85	227.66
837.16	228.20
837.48	228.15
837.79	228.35
838.11	228.43
838.42	228.42
838.74	228.47
839.05	228.50
839.37	228.48
839.68	228.23
840.00	228.24
840.31	228.35
840.63	228.38
840.94	228.37
841.26	228.23
841.57	228.23
841.88	228.29
842.20	228.22
842.51	228.08
842.83	228.11
843.14	228.51
843.46	228.56
843.77	228.20
844.08	228.28
844.40	228.10
844.71	228.01
845.03	227.93
845.34	227.93
845.65	227.85
845.97	227.97
846.28	228.02
846.60	228.01
846.91	227.99
847.22	227.94
847.54	228.03
847.85	228.13
848.16	228.10
848.48	228.04
848.79	228.10
849.10	228.11
849.42	228.11
849.73	227.68
850.04	227.63
850.36	227.39
850.67	227.46
850.98	227.51
851.30	227.50
851.61	227.47
851.92	227.35
852.23	227.52
852.55	227.41
852.86	227.40
853.17	227.39
853.49	227.41
853.80	227.48
854.11	227.40
854.42	227.45
854.74	227.34
855.05	227.32
855.36	227.12
855.67	227.14
855.99	227.08
856.30	227.62
856.61	227.63
856.92	227.71
857.23	227.63
857.55	227.54
857.86	227.55
858.17	227.67
858.48	227.65
858.79	227.50
859.11	227.56
859.42	227.52
859.73	227.46
860.04	227.38
860.35	227.24
860.66	227.13
860.98	227.07
861.29	227.21
861.60	227.12
861.91	227.27
862.22	227.16
862.53	227.08
862.84	226.50
863.16	226.60
863.47	226.40
863.78	226.32
864.09	226.28
864.40	226.27
864.71	226.24
865.02	226.28
865.33	226.25
865.64	226.14
865.95	226.10
866.27	226.40
866.58	226.43
866.89	226.46
867.20	226.44
867.51	226.35
867.82	226.24
868.13	226.41
868.44	226.31
868.75	226.39
869.06	226.43
869.37	226.53
869.68	226.36
869.99	226.53
870.30	226.64
870.61	226.74
870.92	226.72
871.23	226.71
871.54	226.74
871.85	226.83
872.16	226.94
872.47	226.91
872.78	226.65
873.09	226.66
873.40	226.64
873.71	226.71
874.02	226.75
874.33	226.78
874.64	226.66
874.95	226.74
875.26	226.65
875.56	226.60
875.87	226.58
876.18	226.59
876.49	227.15
876.80	227.12
877.11	227.08
877.42	227.11
877.73	227.10
878.04	227.07
878.35	227.12
878.66	227.13
878.96	227.17
879.27	227.10
879.58	227.10
879.89	227.05
880.20	227.17
880.51	227.21
880.82	227.19
881.12	227.26
881.43	227.18
881.74	227.16
882.05	227.18
882.36	227.28
882.67	227.25
882.97	226.70
883.28	226.61
883.59	226.61
883.90	226.64
884.21	226.74
884.51	226.77
884.82	226.71
885.13	226.70
885.44	226.65
885.74	226.69
886.05	226.67
886.36	226.72
886.67	226.64
886.98	226.93
887.28	227.07
887.59	227.11
887.90	227.12
888.20	227.15
888.51	227.27
888.82	227.16
889.13	227.30
889.43	227.64
889.74	227.67
890.05	227.63
890.35	227.57
890.66	227.47
890.97	227.37
891.28	227.33
891.58	227.30
891.89	227.40
892.20	227.38
892.50	227.29
892.81	227.27
893.12	227.20
893.42	226.90
893.73	226.82
894.04	226.81
894.34	226.83
894.65	226.75
894.95	226.73
895.26	226.79
895.57	226.95
895.87	226.55
896.18	226.60
896.48	226.62
896.79	226.65
897.10	226.77
897.40	226.83
897.71	226.82
898.01	226.82
898.32	226.80
898.63	226.81
898.93	226.88
899.24	226.90
899.54	226.86
899.85	226.83
900.15	226.81
900.46	226.76
900.76	226.87
901.07	226.93
901.38	226.88
901.68	226.85
901.99	226.59
902.29	226.55
902.60	226.52
902.90	226.50
903.21	226.50
903.51	226.40
903.82	226.53
904.12	226.60
904.43	226.63
904.73	226.60
905.03	226.65
905.34	227.15
905.64	227.19
905.95	227.25
906.25	227.23
906.56	227.29
906.86	227.29
907.17	227.25
907.47	227.33
907.77	227.33
908.08	227.24
908.38	227.34
908.69	227.43
908.99	227.41
909.30	227.49
909.60	227.47
909.90	227.47
910.21	227.35
910.51	227.25
910.81	227.23
911.12	227.30
911.42	227.23
911.73	226.67
912.03	226.65
912.33	226.69
912.64	226.71
912.94	226.64
913.24	226.58
913.55	226.52
913.85	226.43
914.15	226.44
914.46	226.44
914.76	226.34
915.06	226.33
915.37	226.33
915.67	226.22
915.97	226.25
916.27	226.22
916.58	226.19
916.88	226.22
917.18	226.18
917.49	226.45
917.79	226.50
918.09	226.55
918.39	226.62
918.70	226.67
919.00	226.65
919.30	226.86
919.60	226.83
919.91	226.82
920.21	226.83
920.51	226.73
920.81	226.78
921.12	226.83
921.42	226.84
921.72	226.88
922.02	226.90
922.32	226.93
922.63	226.91
922.93	227.09
923.23	227.14
923.53	227.15
923.83	226.84
924.13	226.85
924.44	226.92
924.74	227.01
925.04	227.01
925.34	227.07
925.64	226.85
925.94	226.86
926.24	227.09
926.55	227.07
926.85	227.24
927.15	227.24
927.45	227.25
927.75	227.21
928.05	227.23
928.35	227.22
928.65	227.36
928.95	227.42
929.26	227.29
929.56	227.35
929.86	227.37
930.16	227.36
930.46	227.29
930.76	227.28
931.06	227.06
931.36	226.96
931.66	227.01
931.96	227.09
932.26	227.14
932.56	226.96
932.86	226.97
933.16	226.92
933.46	226.91
933.76	226.82
934.06	226.95
934.36	227.11
934.66	227.14
934.96	227.06
935.26	227.08
935.56	227.14
935.86	227.00
936.16	226.94
936.46	226.85
936.76	226.83
937.06	226.74
937.36	226.77
937.66	226.80
937.96	226.82
938.26	226.75
938.56	226.82
938.86	226.77
939.16	226.84
939.46	226.88
939.76	226.88
940.06	226.93
940.35	226.80
940.65	226.58
940.95	226.62
941.25	226.43
941.55	226.36
941.85	226.29
942.15	226.36
942.45	226.52
942.75	226.55
943.04	226.61
943.34	226.76
943.64	226.71
943.94	226.68
944.24	226.62
944.54	226.65
944.84	226.57
945.13	226.55
945.43	226.45
945.73	226.38
946.03	226.32
946.33	226.23
946.62	226.20
946.92	226.16
947.22	226.12
947.52	226.20
947.82	226.26
948.11	226.17
948.41	226.11
948.71	225.89
949.01	225.96
949.31	225.88
949.60	225.79
949.90	225.94
950.20	225.90
950.50	225.90
950.79	225.89
951.09	225.99
951.39	225.96
951.69	225.94
951.98	225.98
952.28	226.02
952.58	226.06
952.87	226.09
953.17	226.14
953.47	226.15
953.76	226.11
954.06	226.02
954.36	226.05
954.66	226.08
954.95	226.20
955.25	226.25
955.55	226.30
955.84	226.25
956.14	226.27
956.44	226.26
956.73	226.16
957.03	226.09
957.32	226.00
957.62	226.02
957.92	226.12
958.21	226.15
958.51	226.65
958.81	226.75
959.10	226.76
959.40	226.88
959.69	226.88
959.99	227.00
960.29	227.00
960.58	227.00
960.88	227.20
961.17	227.18
961.47	227.15
961.76	227.17
962.06	227.21
962.36	227.15
962.65	227.27
962.95	227.37
963.24	227.37
963.54	227.45
963.83	227.43
964.13	227.43
964.42	227.30
964.72	226.88
965.01	226.82
965.31	226.77
965.60	226.61
965.90	226.95
966.19	226.85
966.49	226.91
966.78	226.93
967.08	226.84
967.37	226.87
967.67	226.87
967.96	226.91
968.26	226.92
968.55	227.00
968.85	226.90
969.14	226.86
969.43	226.85
969.73	226.81
970.02	226.83
970.32	226.81
970.61	226.79
970.91	226.69
971.20	226.58
971.49	226.57
971.79	226.75
972.08	226.45
972.38	226.47
972.67	226.48
972.96	226.55
973.26	226.51
973.55	226.65
973.85	226.62
974.14	226.55
974.43	226.62
974.73	226.50
975.02	226.47
975.31	226.45
975.61	226.46
975.90	226.39
976.19	226.37
976.49	226.41
976.78	226.53
977.07	226.63
977.37	226.74
977.66	226.85
977.95	226.70
978.24	226.70
978.54	226.79
978.83	226.74
979.12	226.65
979.42	226.70
979.71	226.57
980.00	226.56
980.29	226.61
980.59	226.48
980.88	226.54
981.17	226.56
981.46	226.59
981.76	226.63
982.05	226.80
982.34	226.80
982.63	226.79
982.93	226.74
983.22	226.79
983.51	226.82
983.80	226.79
984.09	226.82
984.39	226.76
984.68	226.70
984.97	226.71
985.26	226.73
985.55	226.70
985.85	226.65
986.14	226.70
986.43	226.75
986.72	226.71
987.01	226.54
987.30	226.58
987.59	226.59
987.89	226.59
988.18	226.41
988.47	226.41
988.76	226.36
989.05	226.28
989.34	226.24
989.63	226.36
989.92	226.35
990.22	226.31
990.51	226.25
990.80	226.20
991.09	226.25
991.38	226.29
991.67	226.20
991.96	226.17
992.25	226.20
992.54	226.07
992.83	226.09
993.12	226.19
993.41	226.23
993.70	226.36
993.99	226.43
994.28	226.52
994.58	226.55
994.87	226.44
995.16	226.47
995.45	226.37
995.74	226.24
996.03	226.28
996.32	226.30
996.61	226.49
996.90	226.50
997.19	226.40
997.48	226.33
997.77	226.32
998.06	226.32
998.34	226.20
998.63	226.24
998.92	226.20
999.21	226.22
999.50	226.21
999.79	226.06
1000.08	226.08
1000.37	226.04
1000.66	226.00
1000.95	226.18
1001.24	226.18
1001.53	226.25
1001.82	226.17
1002.11	226.06
1002.40	226.16
1002.68	226.25
1002.97	226.57
1003.26	226.56
1003.55	226.56
1003.84	226.55
1004.13	226.71
1004.42	226.75
1004.71	226.74
1004.99	226.78
1005.28	226.92
1005.57	226.85
1005.86	226.79
1006.15	226.70
1006.44	226.57
1006.72	226.59
1007.01	226.49
1007.30	226.51
1007.59	226.50
1007.88	226.48
1008.17	226.48
1008.45	226.44
1008.74	226.22
1009.03	226.02
1009.32	226.00
1009.60	225.96
1009.89	225.95
1010.18	225.75
1010.47	225.67
1010.76	225.71
1011.04	225.69
1011.33	225.64
1011.62	225.70
1011.91	225.78
1012.19	225.80
1012.48	225.85
1012.77	225.88
1013.05	226.14
1013.34	226.12
1013.63	226.05
1013.92	226.15
1014.20	226.14
1014.49	226.13
1014.78	226.14
1015.06	225.94
1015.35	225.99
1015.64	226.08
1015.92	226.19
1016.21	226.25
1016.50	226.37
1016.78	226.42
1017.07	226.48
1017.36	226.37
1017.64	226.28
1017.93	226.33
1018.22	226.29
1018.50	226.35
1018.79	226.34
1019.08	226.05
1019.36	226.12
1019.65	226.05
1019.93	226.03
1020.22	226.07
1020.51	226.29
1020.79	226.24
1021.08	225.65
1021.36	225.60
1021.65	226.20
1021.94	224.85
1022.22	226.60
1022.51	224.30
1022.79	226.30
1023.08	225.80
1023.36	231.85
1023.65	224.80
>>>>>End Processed Spectral Data<<<<<
