SpectraSuite Data File
++++++++++++++++++++++++++++++++++++
Date: Wed Sep 04 17:42:39 EDT 2013
User: lab3
Dark Spectrum Present: Yes
Reference Spectrum Present: No
Number of Sampled Component Spectra: 1
Spectrometers: USB2E7196
Integration Time (usec): 170000 (USB2E7196)
Spectra Averaged: 20 (USB2E7196)
Boxcar Smoothing: 10 (USB2E7196)
Correct for Electrical Dark: No (USB2E7196)
Strobe/Lamp Enabled: No (USB2E7196)
Correct for Detector Non-linearity: No (USB2E7196)
Correct for Stray Light: No (USB2E7196)
Number of Pixels in Processed Spectrum: 2048
>>>>>Begin Processed Spectral Data<<<<<
339.09	0.00
339.48	213.95
339.86	213.70
340.24	215.95
340.63	217.15
341.01	225.95
341.39	218.10
341.78	222.15
342.16	223.40
342.54	222.20
342.93	212.05
343.31	222.67
343.69	223.13
344.07	223.66
344.46	224.19
344.84	224.57
345.22	224.48
345.60	224.85
345.99	225.05
346.37	225.14
346.75	225.30
347.13	225.37
347.52	225.50
347.90	225.69
348.28	225.75
348.66	225.87
349.05	225.69
349.43	225.80
349.81	225.89
350.19	225.90
350.57	225.87
350.96	225.99
351.34	226.13
351.72	226.22
352.10	226.28
352.48	226.21
352.87	226.25
353.25	226.36
353.63	226.38
354.01	226.38
354.39	226.45
354.77	226.45
355.15	226.63
355.54	226.56
355.92	226.46
356.30	226.47
356.68	226.81
357.06	226.90
357.44	226.85
357.82	226.83
358.20	227.24
358.58	227.32
358.97	227.30
359.35	227.48
359.73	227.65
360.11	227.66
360.49	227.73
360.87	227.80
361.25	227.88
361.63	228.08
362.01	228.14
362.39	228.11
362.77	228.20
363.15	228.17
363.53	228.25
363.91	228.27
364.29	228.31
364.67	227.87
365.05	227.94
365.43	228.03
365.81	228.17
366.19	228.03
366.57	228.24
366.95	228.23
367.33	228.12
367.71	228.12
368.09	228.29
368.47	228.28
368.85	228.22
369.23	228.30
369.61	228.12
369.99	228.26
370.37	228.35
370.75	228.63
371.13	228.52
371.51	228.42
371.89	228.49
372.27	228.50
372.65	228.46
373.03	228.45
373.41	228.35
373.78	228.27
374.16	227.96
374.54	227.74
374.92	227.66
375.30	227.51
375.68	227.34
376.06	227.19
376.44	227.14
376.82	227.15
377.19	227.05
377.57	227.03
377.95	226.82
378.33	226.68
378.71	226.29
379.09	226.28
379.47	226.28
379.84	226.09
380.22	226.02
380.60	225.88
380.98	225.79
381.36	225.70
381.73	225.57
382.11	225.70
382.49	225.68
382.87	225.60
383.25	225.60
383.62	226.14
384.00	225.95
384.38	225.92
384.76	225.96
385.13	226.10
385.51	226.06
385.89	225.94
386.27	225.96
386.64	225.99
387.02	225.98
387.40	225.90
387.78	225.93
388.15	225.87
388.53	225.86
388.91	225.79
389.29	225.80
389.66	225.83
390.04	225.69
390.42	225.67
390.79	225.67
391.17	225.67
391.55	225.12
391.92	225.24
392.30	225.27
392.68	225.13
393.05	225.12
393.43	225.10
393.81	225.17
394.18	225.15
394.56	225.10
394.94	225.14
395.31	225.12
395.69	225.34
396.06	225.42
396.44	225.51
396.82	225.53
397.19	225.84
397.57	225.85
397.95	225.97
398.32	225.98
398.70	226.09
399.07	226.25
399.45	226.32
399.82	226.40
400.20	226.37
400.58	226.52
400.95	226.44
401.33	226.67
401.70	227.11
402.08	227.24
402.45	227.42
402.83	227.69
403.20	227.89
403.58	227.91
403.95	228.13
404.33	228.39
404.71	228.60
405.08	228.96
405.46	229.19
405.83	229.43
406.21	229.65
406.58	229.87
406.96	230.04
407.33	230.31
407.70	230.64
408.08	231.38
408.45	231.74
408.83	232.19
409.20	232.43
409.58	232.55
409.95	233.02
410.33	233.42
410.70	233.69
411.08	234.28
411.45	234.85
411.82	235.34
412.20	235.97
412.57	236.82
412.95	237.05
413.32	237.80
413.69	238.47
414.07	239.32
414.44	240.21
414.82	241.20
415.19	242.29
415.56	243.24
415.94	244.05
416.31	245.18
416.68	246.27
417.06	247.64
417.43	248.96
417.81	250.45
418.18	251.95
418.55	253.57
418.93	255.26
419.30	256.95
419.67	258.78
420.04	260.64
420.42	262.48
420.79	265.05
421.16	267.35
421.54	269.92
421.91	272.30
422.28	274.82
422.66	277.44
423.03	280.24
423.40	282.96
423.77	285.82
424.15	288.82
424.52	291.87
424.89	295.33
425.26	298.62
425.64	301.68
426.01	305.11
426.38	308.70
426.75	312.39
427.13	316.10
427.50	320.02
427.87	324.07
428.24	328.20
428.61	331.87
428.99	336.32
429.36	340.83
429.73	345.39
430.10	349.98
430.47	354.74
430.85	359.39
431.22	364.57
431.59	370.35
431.96	375.58
432.33	381.45
432.70	387.01
433.08	393.53
433.45	399.74
433.82	405.97
434.19	412.86
434.56	419.63
434.93	426.00
435.30	432.56
435.68	439.63
436.05	446.62
436.42	453.56
436.79	459.92
437.16	466.87
437.53	474.25
437.90	481.52
438.27	488.56
438.64	495.92
439.01	502.84
439.38	508.65
439.75	514.61
440.13	521.30
440.50	527.60
440.87	532.72
441.24	538.04
441.61	543.80
441.98	547.95
442.35	552.78
442.72	557.95
443.09	562.88
443.46	565.80
443.83	567.81
444.20	569.52
444.57	571.87
444.94	572.84
445.31	573.83
445.68	575.10
446.05	575.41
446.42	574.38
446.79	573.16
447.16	572.05
447.53	571.01
447.90	568.03
448.27	565.03
448.64	560.98
449.01	557.87
449.37	552.93
449.74	548.10
450.11	542.65
450.48	536.16
450.85	529.51
451.22	523.91
451.59	518.54
451.96	513.29
452.33	506.52
452.70	500.46
453.07	493.33
453.43	485.65
453.80	478.58
454.17	472.01
454.54	465.73
454.91	458.89
455.28	452.31
455.65	446.20
456.02	440.68
456.38	435.48
456.75	429.23
457.12	423.78
457.49	418.59
457.86	413.13
458.23	408.98
458.59	404.28
458.96	399.54
459.33	395.26
459.70	391.15
460.07	387.76
460.43	383.86
460.80	380.31
461.17	377.31
461.54	374.19
461.91	371.03
462.27	367.81
462.64	365.13
463.01	362.23
463.38	359.46
463.74	355.95
464.11	353.42
464.48	351.21
464.85	348.81
465.21	347.00
465.58	345.10
465.95	342.72
466.32	340.81
466.68	338.91
467.05	337.15
467.42	335.24
467.78	333.33
468.15	331.59
468.52	330.26
468.88	328.37
469.25	326.69
469.62	325.60
469.98	324.30
470.35	323.01
470.72	321.84
471.08	320.42
471.45	319.42
471.82	318.50
472.18	317.26
472.55	316.51
472.92	315.40
473.28	314.53
473.65	313.70
474.02	312.80
474.38	312.19
474.75	311.50
475.11	310.90
475.48	310.37
475.85	309.84
476.21	309.32
476.58	309.04
476.94	308.80
477.31	308.45
477.67	308.19
478.04	308.05
478.41	307.93
478.77	308.31
479.14	308.10
479.50	308.07
479.87	308.19
480.23	308.20
480.60	308.27
480.96	308.36
481.33	308.77
481.69	309.02
482.06	309.24
482.42	309.50
482.79	309.81
483.15	310.29
483.52	311.09
483.88	311.51
484.25	311.95
484.61	312.60
484.98	313.17
485.34	313.99
485.71	314.86
486.07	315.72
486.44	316.29
486.80	317.30
487.17	318.29
487.53	319.62
487.90	320.88
488.26	322.50
488.62	324.08
488.99	325.35
489.35	327.05
489.72	328.82
490.08	330.65
490.44	332.62
490.81	334.68
491.17	336.55
491.54	338.88
491.90	341.32
492.26	343.77
492.63	346.39
492.99	349.12
493.36	351.96
493.72	354.94
494.08	357.98
494.45	361.43
494.81	365.00
495.17	368.42
495.54	372.31
495.90	375.97
496.26	380.00
496.63	384.29
496.99	388.49
497.35	392.98
497.72	397.88
498.08	402.72
498.44	407.85
498.80	413.38
499.17	418.94
499.53	424.51
499.89	430.46
500.26	436.58
500.62	442.82
500.98	449.41
501.34	456.07
501.71	463.01
502.07	469.89
502.43	477.14
502.79	484.51
503.16	492.19
503.52	500.26
503.88	508.41
504.24	516.89
504.60	525.80
504.97	534.76
505.33	543.80
505.69	553.54
506.05	563.04
506.41	572.63
506.78	582.60
507.14	593.07
507.50	603.67
507.86	614.51
508.22	625.60
508.59	636.89
508.95	648.53
509.31	660.65
509.67	672.91
510.03	685.00
510.39	697.57
510.75	710.23
511.12	723.03
511.48	736.06
511.84	749.38
512.20	762.77
512.56	776.47
512.92	790.43
513.28	804.45
513.64	818.99
514.00	833.65
514.37	848.44
514.73	863.36
515.09	878.60
515.45	893.83
515.81	908.91
516.17	924.10
516.53	939.40
516.89	954.46
517.25	970.33
517.61	986.62
517.97	1003.15
518.33	1019.41
518.69	1035.73
519.05	1052.32
519.41	1068.60
519.77	1085.45
520.13	1102.00
520.49	1118.38
520.85	1136.28
521.21	1152.99
521.57	1169.72
521.93	1186.03
522.29	1202.88
522.65	1218.75
523.01	1234.77
523.37	1251.17
523.73	1267.42
524.09	1283.30
524.45	1299.07
524.81	1314.80
525.17	1330.63
525.53	1346.00
525.89	1361.84
526.25	1377.68
526.61	1392.80
526.97	1408.85
527.33	1424.68
527.68	1441.10
528.04	1456.90
528.40	1471.16
528.76	1486.44
529.12	1501.23
529.48	1516.40
529.84	1530.77
530.20	1546.35
530.56	1561.54
530.91	1576.44
531.27	1590.97
531.63	1605.49
531.99	1620.31
532.35	1634.72
532.71	1648.78
533.07	1663.59
533.42	1677.45
533.78	1691.27
534.14	1705.34
534.50	1718.42
534.86	1731.63
535.21	1743.40
535.57	1756.08
535.93	1767.80
536.29	1779.86
536.65	1792.21
537.00	1804.00
537.36	1815.63
537.72	1826.17
538.08	1837.56
538.44	1848.28
538.79	1859.06
539.15	1869.98
539.51	1880.14
539.87	1889.49
540.22	1898.30
540.58	1907.16
540.94	1915.19
541.29	1922.57
541.65	1929.93
542.01	1937.12
542.37	1942.67
542.72	1948.45
543.08	1954.17
543.44	1960.61
543.79	1965.66
544.15	1970.85
544.51	1975.83
544.87	1980.35
545.22	1984.83
545.58	1988.18
545.94	1990.93
546.29	1993.31
546.65	1995.34
547.01	1997.34
547.36	1999.20
547.72	2000.95
548.07	2001.23
548.43	2002.49
548.79	2003.64
549.14	2003.90
549.50	2004.52
549.86	2004.94
550.21	2005.52
550.57	2005.47
550.92	2004.29
551.28	2002.94
551.64	2002.04
551.99	2001.12
552.35	1999.89
552.70	1998.67
553.06	1997.33
553.41	1996.16
553.77	1995.22
554.13	1994.36
554.48	1993.21
554.84	1991.86
555.19	1990.29
555.55	1989.45
555.90	1986.79
556.26	1983.61
556.61	1980.49
556.97	1976.79
557.32	1974.36
557.68	1971.42
558.03	1967.97
558.39	1964.79
558.74	1962.10
559.10	1957.71
559.45	1952.94
559.81	1948.01
560.16	1942.14
560.52	1936.54
560.87	1931.55
561.23	1925.71
561.58	1919.63
561.94	1912.60
562.29	1905.45
562.64	1898.71
563.00	1890.73
563.35	1884.14
563.71	1877.86
564.06	1871.64
564.42	1865.32
564.77	1858.69
565.12	1851.81
565.48	1845.41
565.83	1838.27
566.19	1830.90
566.54	1824.08
566.89	1817.25
567.25	1810.27
567.60	1804.43
567.96	1797.85
568.31	1790.64
568.66	1783.59
569.02	1775.91
569.37	1768.95
569.72	1762.49
570.08	1754.69
570.43	1746.88
570.78	1739.53
571.14	1731.75
571.49	1723.41
571.84	1715.20
572.20	1706.42
572.55	1698.11
572.90	1688.94
573.26	1680.62
573.61	1672.26
573.96	1663.15
574.31	1653.96
574.67	1644.75
575.02	1634.55
575.37	1624.85
575.72	1614.97
576.08	1605.23
576.43	1595.51
576.78	1585.58
577.13	1575.24
577.49	1565.72
577.84	1556.73
578.19	1547.56
578.54	1538.24
578.90	1529.48
579.25	1520.40
579.60	1511.08
579.95	1501.49
580.30	1491.95
580.66	1481.97
581.01	1471.86
581.36	1461.72
581.71	1452.14
582.06	1442.97
582.42	1433.88
582.77	1424.61
583.12	1415.82
583.47	1406.93
583.82	1398.16
584.17	1389.53
584.53	1380.96
584.88	1371.54
585.23	1362.06
585.58	1351.84
585.93	1342.08
586.28	1332.71
586.63	1322.66
586.98	1312.74
587.34	1303.26
587.69	1293.64
588.04	1284.74
588.39	1276.01
588.74	1267.23
589.09	1258.60
589.44	1249.38
589.79	1240.67
590.14	1232.23
590.49	1223.49
590.84	1214.85
591.19	1206.38
591.54	1197.46
591.89	1188.56
592.25	1181.42
592.60	1173.49
592.95	1165.39
593.30	1157.22
593.65	1148.75
594.00	1140.36
594.35	1133.85
594.70	1125.64
595.05	1117.86
595.40	1109.43
595.75	1101.07
596.10	1093.35
596.45	1085.44
596.80	1077.91
597.15	1070.10
597.50	1062.01
597.85	1054.39
598.19	1046.46
598.54	1038.49
598.89	1030.98
599.24	1023.89
599.59	1015.93
599.94	1008.48
600.29	1001.74
600.64	994.65
600.99	987.33
601.34	980.96
601.69	972.82
602.04	965.91
602.39	959.30
602.74	953.21
603.08	947.05
603.43	940.84
603.78	934.26
604.13	927.90
604.48	921.35
604.83	914.62
605.18	907.60
605.53	901.07
605.87	894.71
606.22	888.86
606.57	882.65
606.92	876.32
607.27	870.17
607.62	864.02
607.96	858.38
608.31	853.01
608.66	847.28
609.01	841.65
609.36	836.17
609.70	830.53
610.05	824.59
610.40	818.75
610.75	812.84
611.10	807.17
611.44	801.30
611.79	795.72
612.14	790.41
612.49	785.21
612.83	780.15
613.18	775.01
613.53	769.73
613.88	764.22
614.22	758.75
614.57	753.56
614.92	748.17
615.27	743.00
615.61	737.58
615.96	732.39
616.31	727.22
616.65	722.35
617.00	717.32
617.35	712.36
617.70	707.41
618.04	702.60
618.39	697.88
618.74	693.49
619.08	688.94
619.43	684.34
619.78	679.68
620.12	674.78
620.47	670.00
620.82	665.03
621.16	660.42
621.51	656.45
621.85	652.04
622.20	647.69
622.55	643.11
622.89	638.74
623.24	634.49
623.59	630.16
623.93	625.98
624.28	621.83
624.62	618.22
624.97	614.48
625.32	610.61
625.66	606.45
626.01	602.24
626.35	598.35
626.70	594.50
627.04	590.88
627.39	587.20
627.73	583.78
628.08	580.42
628.43	576.70
628.77	572.84
629.12	569.29
629.46	566.05
629.81	562.97
630.15	559.77
630.50	556.38
630.84	553.03
631.19	549.60
631.53	546.44
631.88	542.70
632.22	539.28
632.57	536.15
632.91	533.12
633.26	530.12
633.60	527.05
633.95	523.85
634.29	520.64
634.64	517.69
634.98	514.38
635.32	511.44
635.67	508.79
636.01	505.84
636.36	502.80
636.70	500.03
637.05	497.14
637.39	494.35
637.73	491.65
638.08	489.01
638.42	486.20
638.77	483.35
639.11	480.52
639.45	477.53
639.80	474.49
640.14	471.67
640.49	468.90
640.83	466.17
641.17	463.67
641.52	461.10
641.86	458.59
642.20	456.43
642.55	453.84
642.89	451.25
643.23	448.93
643.58	446.84
643.92	444.21
644.26	441.76
644.61	439.43
644.95	437.04
645.29	434.70
645.64	432.58
645.98	430.33
646.32	428.26
646.66	426.27
647.01	424.23
647.35	422.38
647.69	420.39
648.04	418.48
648.38	416.49
648.72	414.52
649.06	412.45
649.41	410.23
649.75	408.12
650.09	406.30
650.43	404.27
650.78	402.15
651.12	400.21
651.46	398.33
651.80	396.45
652.14	394.57
652.49	392.80
652.83	390.90
653.17	389.15
653.51	387.32
653.85	385.66
654.20	383.98
654.54	382.09
654.88	380.26
655.22	378.76
655.56	377.09
655.90	375.55
656.25	373.96
656.59	372.44
656.93	371.08
657.27	369.66
657.61	368.12
657.95	366.72
658.29	365.21
658.64	363.77
658.98	362.28
659.32	360.80
659.66	359.34
660.00	358.02
660.34	356.66
660.68	355.29
661.02	353.86
661.36	352.46
661.70	351.08
662.05	349.85
662.39	348.43
662.73	347.23
663.07	346.17
663.41	344.90
663.75	343.57
664.09	342.30
664.43	340.88
664.77	339.68
665.11	338.34
665.45	337.34
665.79	336.24
666.13	334.99
666.47	333.76
666.81	332.61
667.15	331.30
667.49	330.24
667.83	329.32
668.17	328.26
668.51	327.30
668.85	326.38
669.19	325.65
669.53	324.59
669.87	323.50
670.21	322.21
670.55	321.22
670.89	320.53
671.23	319.42
671.57	318.45
671.91	317.59
672.25	316.69
672.58	315.82
672.92	314.80
673.26	313.99
673.60	313.26
673.94	312.49
674.28	311.74
674.62	310.85
674.96	309.85
675.30	308.98
675.64	308.08
675.97	307.21
676.31	306.17
676.65	305.32
676.99	304.71
677.33	303.95
677.67	303.35
678.01	302.29
678.34	301.66
678.68	301.07
679.02	300.26
679.36	299.51
679.70	298.67
680.04	297.88
680.37	297.17
680.71	296.44
681.05	295.77
681.39	295.12
681.73	294.44
682.06	293.86
682.40	293.27
682.74	292.75
683.08	292.29
683.42	291.56
683.75	291.05
684.09	290.26
684.43	289.66
684.77	288.93
685.10	288.45
685.44	287.80
685.78	287.06
686.12	286.52
686.45	285.93
686.79	285.36
687.13	284.92
687.46	284.36
687.80	283.96
688.14	283.36
688.48	282.82
688.81	282.19
689.15	281.74
689.49	281.21
689.82	280.73
690.16	280.10
690.50	279.68
690.83	279.12
691.17	278.59
691.51	278.13
691.84	277.67
692.18	277.10
692.52	276.66
692.85	276.27
693.19	275.90
693.52	275.46
693.86	274.94
694.20	274.49
694.53	274.05
694.87	273.49
695.21	273.01
695.54	272.64
695.88	272.18
696.21	271.60
696.55	271.17
696.88	270.60
697.22	270.16
697.56	269.78
697.89	269.27
698.23	268.89
698.56	268.45
698.90	268.12
699.23	267.76
699.57	267.38
699.90	266.92
700.24	266.42
700.58	266.05
700.91	265.82
701.25	265.79
701.58	265.81
701.92	265.56
702.25	265.22
702.59	264.71
702.92	264.43
703.26	264.10
703.59	263.69
703.93	263.80
704.26	263.41
704.60	263.14
704.93	262.85
705.26	262.44
705.60	262.19
705.93	261.76
706.27	261.58
706.60	261.43
706.94	261.35
707.27	261.04
707.61	260.80
707.94	260.38
708.27	259.68
708.61	259.01
708.94	258.67
709.28	258.39
709.61	258.09
709.94	257.87
710.28	257.60
710.61	257.37
710.95	256.70
711.28	256.75
711.61	256.38
711.95	256.24
712.28	255.99
712.61	255.71
712.95	255.66
713.28	255.52
713.61	255.10
713.95	254.65
714.28	254.44
714.61	254.08
714.95	253.84
715.28	253.54
715.61	253.21
715.95	252.91
716.28	252.63
716.61	252.58
716.95	252.27
717.28	252.01
717.61	251.80
717.94	251.60
718.28	251.03
718.61	250.81
718.94	250.48
719.27	250.32
719.61	250.14
719.94	249.80
720.27	249.30
720.60	249.08
720.94	248.94
721.27	248.70
721.60	248.66
721.93	248.42
722.27	248.46
722.60	248.39
722.93	248.17
723.26	248.01
723.59	247.66
723.93	247.51
724.26	247.39
724.59	247.24
724.92	247.10
725.25	247.06
725.59	246.90
725.92	246.83
726.25	246.54
726.58	246.38
726.91	246.19
727.24	246.11
727.57	245.94
727.91	245.68
728.24	245.61
728.57	245.31
728.90	245.24
729.23	244.90
729.56	244.93
729.89	244.80
730.22	244.51
730.55	244.38
730.89	244.21
731.22	244.02
731.55	243.72
731.88	243.52
732.21	243.25
732.54	243.02
732.87	242.72
733.20	242.62
733.53	242.47
733.86	242.38
734.19	242.22
734.52	242.15
734.85	242.28
735.18	242.04
735.51	242.05
735.84	241.88
736.17	241.87
736.50	241.48
736.83	241.91
737.16	241.89
737.49	241.77
737.82	241.62
738.15	241.53
738.48	241.48
738.81	241.32
739.14	241.21
739.47	241.10
739.80	240.98
740.13	240.92
740.46	240.69
740.79	240.47
741.12	240.32
741.45	240.10
741.78	239.73
742.11	239.70
742.44	239.46
742.77	239.45
743.10	239.20
743.43	239.08
743.75	238.41
744.08	238.87
744.41	238.71
744.74	238.58
745.07	238.32
745.40	238.27
745.73	238.37
746.06	238.26
746.39	238.26
746.71	238.15
747.04	238.08
747.37	237.93
747.70	237.99
748.03	237.91
748.36	237.90
748.68	237.81
749.01	237.62
749.34	237.58
749.67	237.45
750.00	237.51
750.33	237.87
750.65	237.90
750.98	237.11
751.31	237.08
751.64	236.97
751.97	237.20
752.29	237.09
752.62	236.80
752.95	236.68
753.28	236.48
753.60	236.44
753.93	236.38
754.26	236.43
754.59	236.23
754.91	236.10
755.24	235.92
755.57	235.91
755.90	235.86
756.22	235.70
756.55	235.53
756.88	235.30
757.20	234.83
757.53	234.62
757.86	234.58
758.19	234.48
758.51	234.43
758.84	234.12
759.17	234.02
759.49	233.99
759.82	234.13
760.15	234.04
760.47	233.91
760.80	233.73
761.13	233.72
761.45	233.58
761.78	233.55
762.11	233.62
762.43	233.48
762.76	233.32
763.08	233.32
763.41	233.34
763.74	233.34
764.06	233.17
764.39	233.08
764.71	233.06
765.04	232.94
765.37	232.84
765.69	232.75
766.02	232.58
766.34	232.47
766.67	232.24
767.00	232.29
767.32	232.53
767.65	232.72
767.97	232.51
768.30	232.51
768.62	232.40
768.95	232.23
769.27	232.11
769.60	232.18
769.92	232.06
770.25	231.84
770.57	231.65
770.90	231.63
771.22	231.51
771.55	231.43
771.87	231.40
772.20	231.36
772.52	231.70
772.85	232.29
773.17	232.22
773.50	232.15
773.82	232.02
774.15	231.71
774.47	231.30
774.80	231.24
775.12	231.19
775.45	231.11
775.77	231.10
776.09	231.12
776.42	231.12
776.74	231.20
777.07	231.18
777.39	231.17
777.72	231.16
778.04	231.20
778.36	231.14
778.69	231.17
779.01	231.18
779.33	230.76
779.66	230.19
779.98	230.12
780.31	230.10
780.63	230.25
780.95	230.29
781.28	230.35
781.60	230.31
781.92	230.23
782.25	230.25
782.57	230.13
782.89	230.02
783.22	229.89
783.54	229.77
783.86	229.80
784.19	229.78
784.51	229.87
784.83	229.79
785.16	229.78
785.48	229.73
785.80	229.64
786.12	229.64
786.45	229.60
786.77	229.65
787.09	229.56
787.42	229.40
787.74	229.42
788.06	229.35
788.38	229.29
788.71	229.25
789.03	229.29
789.35	229.43
789.67	229.44
789.99	229.48
790.32	229.40
790.64	229.39
790.96	229.75
791.28	229.51
791.61	229.51
791.93	229.51
792.25	229.44
792.57	229.81
792.89	229.69
793.21	229.73
793.54	229.64
793.86	229.60
794.18	229.60
794.50	229.52
794.82	229.54
795.14	229.64
795.47	229.73
795.79	229.71
796.11	229.53
796.43	229.44
796.75	229.44
797.07	229.46
797.39	229.47
797.71	229.08
798.04	229.11
798.36	229.10
798.68	229.07
799.00	229.10
799.32	228.84
799.64	228.94
799.96	228.96
800.28	229.01
800.60	229.02
800.92	229.02
801.24	228.90
801.56	229.02
801.89	228.95
802.21	228.92
802.53	228.81
802.85	228.96
803.17	229.21
803.49	229.04
803.81	228.99
804.13	228.87
804.45	228.84
804.77	228.93
805.09	228.91
805.41	228.86
805.73	228.78
806.05	228.58
806.37	228.56
806.69	228.45
807.01	228.48
807.33	228.44
807.65	228.34
807.97	228.60
808.28	228.46
808.60	228.45
808.92	228.39
809.24	228.69
809.56	228.50
809.88	228.33
810.20	228.40
810.52	228.51
810.84	228.47
811.16	228.45
811.48	228.38
811.80	228.52
812.12	228.53
812.43	228.57
812.75	228.59
813.07	228.55
813.39	228.49
813.71	228.36
814.03	228.31
814.35	228.26
814.67	228.00
814.98	227.96
815.30	227.82
815.62	227.75
815.94	227.37
816.26	227.54
816.58	227.43
816.89	227.38
817.21	227.26
817.53	227.30
817.85	227.30
818.17	227.23
818.48	227.06
818.80	227.17
819.12	227.13
819.44	227.15
819.76	227.05
820.07	227.13
820.39	227.12
820.71	227.08
821.03	227.07
821.34	227.01
821.66	227.06
821.98	227.21
822.30	227.18
822.61	227.53
822.93	227.32
823.25	227.32
823.57	227.34
823.88	227.39
824.20	227.35
824.52	227.38
824.83	227.36
825.15	227.28
825.47	227.21
825.79	227.25
826.10	227.19
826.42	227.22
826.74	227.20
827.05	227.20
827.37	227.28
827.69	227.28
828.00	227.29
828.32	227.30
828.64	227.21
828.95	227.50
829.27	227.32
829.58	227.39
829.90	227.44
830.22	227.44
830.53	227.33
830.85	227.28
831.17	227.15
831.48	227.22
831.80	227.28
832.11	227.27
832.43	227.20
832.75	227.17
833.06	227.45
833.38	227.30
833.69	227.34
834.01	227.42
834.32	227.49
834.64	227.50
834.96	227.52
835.27	227.52
835.59	227.35
835.90	227.28
836.22	227.33
836.53	227.25
836.85	227.16
837.16	227.71
837.48	227.76
837.79	227.99
838.11	227.93
838.42	227.87
838.74	227.88
839.05	227.81
839.37	227.82
839.68	227.45
840.00	227.51
840.31	227.52
840.63	227.39
840.94	227.26
841.26	227.21
841.57	227.15
841.88	227.22
842.20	227.14
842.51	227.05
842.83	227.02
843.14	227.38
843.46	227.42
843.77	227.06
844.08	226.96
844.40	226.86
844.71	226.86
845.03	226.91
845.34	226.90
845.65	226.98
845.97	226.99
846.28	227.10
846.60	227.05
846.91	226.92
847.22	226.90
847.54	226.97
847.85	227.00
848.16	226.99
848.48	226.87
848.79	227.07
849.10	227.12
849.42	227.13
849.73	226.75
850.04	226.70
850.36	226.58
850.67	226.69
850.98	226.55
851.30	226.58
851.61	226.51
851.92	226.46
852.23	226.41
852.55	226.38
852.86	226.30
853.17	226.42
853.49	226.54
853.80	226.62
854.11	226.69
854.42	226.83
854.74	226.72
855.05	226.80
855.36	226.54
855.67	226.55
855.99	226.50
856.30	227.01
856.61	227.03
856.92	227.03
857.23	226.99
857.55	227.02
857.86	226.91
858.17	226.92
858.48	226.82
858.79	226.79
859.11	226.77
859.42	226.71
859.73	226.62
860.04	226.60
860.35	226.45
860.66	226.24
860.98	226.10
861.29	226.15
861.60	226.03
861.91	226.11
862.22	225.99
862.53	225.93
862.84	225.33
863.16	225.39
863.47	225.27
863.78	225.30
864.09	225.35
864.40	225.42
864.71	225.42
865.02	225.53
865.33	225.45
865.64	225.40
865.95	225.40
866.27	225.66
866.58	225.55
866.89	225.61
867.20	225.63
867.51	225.59
867.82	225.63
868.13	225.75
868.44	225.72
868.75	225.81
869.06	225.83
869.37	225.96
869.68	225.82
869.99	225.89
870.30	225.87
870.61	225.90
870.92	225.85
871.23	225.84
871.54	225.85
871.85	226.05
872.16	226.16
872.47	226.21
872.78	225.97
873.09	226.04
873.40	225.97
873.71	225.99
874.02	226.02
874.33	225.99
874.64	225.90
874.95	225.96
875.26	225.89
875.56	225.83
875.87	225.77
876.18	225.87
876.49	226.39
876.80	226.35
877.11	226.25
877.42	226.33
877.73	226.31
878.04	226.27
878.35	226.19
878.66	226.20
878.96	226.19
879.27	226.11
879.58	226.13
879.89	226.18
880.20	226.33
880.51	226.31
880.82	226.29
881.12	226.33
881.43	226.22
881.74	226.16
882.05	226.16
882.36	226.15
882.67	226.08
882.97	225.59
883.28	225.59
883.59	225.60
883.90	225.56
884.21	225.69
884.51	225.66
884.82	225.60
885.13	225.56
885.44	225.57
885.74	225.67
886.05	225.65
886.36	225.65
886.67	225.50
886.98	225.80
887.28	225.80
887.59	225.83
887.90	225.86
888.20	225.88
888.51	226.00
888.82	225.99
889.13	226.07
889.43	226.42
889.74	226.40
890.05	226.37
890.35	226.37
890.66	226.25
890.97	226.17
891.28	226.20
891.58	226.24
891.89	226.20
892.20	226.12
892.50	226.09
892.81	226.09
893.12	226.10
893.42	225.84
893.73	225.90
894.04	225.92
894.34	225.99
894.65	225.99
894.95	225.95
895.26	225.97
895.57	226.13
895.87	225.66
896.18	225.75
896.48	225.75
896.79	225.73
897.10	225.80
897.40	225.82
897.71	225.84
898.01	225.75
898.32	225.77
898.63	225.73
898.93	225.76
899.24	225.69
899.54	225.64
899.85	225.70
900.15	225.64
900.46	225.59
900.76	225.55
901.07	225.52
901.38	225.48
901.68	225.50
901.99	225.31
902.29	225.36
902.60	225.25
902.90	225.22
903.21	225.23
903.51	225.26
903.82	225.35
904.12	225.37
904.43	225.48
904.73	225.50
905.03	225.52
905.34	226.00
905.64	226.05
905.95	226.13
906.25	226.10
906.56	226.05
906.86	226.09
907.17	226.09
907.47	226.19
907.77	226.18
908.08	226.22
908.38	226.27
908.69	226.36
908.99	226.51
909.30	226.62
909.60	226.63
909.90	226.60
910.21	226.52
910.51	226.42
910.81	226.38
911.12	226.43
911.42	226.46
911.73	225.94
912.03	225.95
912.33	225.90
912.64	225.85
912.94	225.82
913.24	225.74
913.55	225.70
913.85	225.69
914.15	225.80
914.46	225.73
914.76	225.67
915.06	225.58
915.37	225.49
915.67	225.38
915.97	225.38
916.27	225.28
916.58	225.26
916.88	225.36
917.18	225.41
917.49	225.74
917.79	225.74
918.09	225.88
918.39	226.05
918.70	226.10
919.00	226.11
919.30	226.39
919.60	226.37
919.91	226.36
920.21	226.36
920.51	226.25
920.81	226.26
921.12	226.38
921.42	226.42
921.72	226.45
922.02	226.50
922.32	226.53
922.63	226.58
922.93	226.85
923.23	226.80
923.53	226.68
923.83	226.35
924.13	226.44
924.44	226.39
924.74	226.43
925.04	226.55
925.34	226.57
925.64	226.37
925.94	226.41
926.24	226.65
926.55	226.60
926.85	226.66
927.15	226.63
927.45	226.59
927.75	226.56
928.05	226.57
928.35	226.55
928.65	226.63
928.95	226.69
929.26	226.47
929.56	226.59
929.86	226.61
930.16	226.53
930.46	226.41
930.76	226.40
931.06	226.17
931.36	225.99
931.66	226.04
931.96	226.06
932.26	226.08
932.56	225.89
932.86	225.89
933.16	225.86
933.46	225.86
933.76	225.76
934.06	225.87
934.36	226.05
934.66	226.00
934.96	225.93
935.26	225.93
935.56	226.05
935.86	225.90
936.16	225.85
936.46	225.87
936.76	225.90
937.06	225.88
937.36	225.91
937.66	225.98
937.96	225.94
938.26	225.85
938.56	225.79
938.86	225.78
939.16	225.86
939.46	225.90
939.76	225.88
940.06	225.90
940.35	225.79
940.65	225.49
940.95	225.58
941.25	225.52
941.55	225.40
941.85	225.36
942.15	225.55
942.45	225.71
942.75	225.71
943.04	225.72
943.34	225.75
943.64	225.77
943.94	225.71
944.24	225.72
944.54	225.73
944.84	225.77
945.13	225.70
945.43	225.71
945.73	225.69
946.03	225.78
946.33	225.74
946.62	225.73
946.92	225.79
947.22	225.82
947.52	225.86
947.82	226.06
948.11	226.09
948.41	225.97
948.71	225.85
949.01	225.87
949.31	225.83
949.60	225.77
949.90	225.87
950.20	225.88
950.50	225.86
950.79	225.82
951.09	225.84
951.39	225.92
951.69	225.83
951.98	225.88
952.28	225.79
952.58	225.83
952.87	225.82
953.17	225.90
953.47	225.88
953.76	225.85
954.06	225.71
954.36	225.52
954.66	225.49
954.95	225.66
955.25	225.72
955.55	225.75
955.84	225.73
956.14	225.70
956.44	225.75
956.73	225.71
957.03	225.78
957.32	225.80
957.62	225.80
957.92	226.02
958.21	225.97
958.51	226.54
958.81	226.60
959.10	226.68
959.40	226.78
959.69	226.76
959.99	226.73
960.29	226.76
960.58	226.76
960.88	226.93
961.17	226.86
961.47	226.87
961.76	226.80
962.06	226.92
962.36	226.78
962.65	226.69
962.95	226.71
963.24	226.71
963.54	226.70
963.83	226.70
964.13	226.64
964.42	226.56
964.72	226.16
965.01	226.14
965.31	226.05
965.60	225.91
965.90	226.21
966.19	226.18
966.49	226.18
966.78	226.24
967.08	226.16
967.37	226.13
967.67	226.02
967.96	226.04
968.26	225.98
968.55	226.15
968.85	226.12
969.14	226.16
969.43	226.11
969.73	226.04
970.02	225.97
970.32	225.85
970.61	225.86
970.91	225.68
971.20	225.68
971.49	225.69
971.79	225.77
972.08	225.40
972.38	225.44
972.67	225.45
972.96	225.48
973.26	225.39
973.55	225.51
973.85	225.49
974.14	225.50
974.43	225.54
974.73	225.39
975.02	225.45
975.31	225.41
975.61	225.38
975.90	225.34
976.19	225.34
976.49	225.39
976.78	225.37
977.07	225.41
977.37	225.34
977.66	225.35
977.95	225.28
978.24	225.32
978.54	225.39
978.83	225.33
979.12	225.33
979.42	225.33
979.71	225.19
980.00	225.22
980.29	225.29
980.59	225.23
980.88	225.41
981.17	225.32
981.46	225.30
981.76	225.35
982.05	225.56
982.34	225.59
982.63	225.59
982.93	225.57
983.22	225.72
983.51	225.79
983.80	225.89
984.09	225.87
984.39	225.83
984.68	225.77
984.97	225.79
985.26	225.72
985.55	225.79
985.85	225.74
986.14	225.81
986.43	225.87
986.72	225.85
987.01	225.67
987.30	225.78
987.59	225.79
987.89	225.80
988.18	225.70
988.47	225.67
988.76	225.66
989.05	225.72
989.34	225.62
989.63	225.68
989.92	225.59
990.22	225.56
990.51	225.53
990.80	225.50
991.09	225.60
991.38	225.66
991.67	225.63
991.96	225.51
992.25	225.55
992.54	225.38
992.83	225.39
993.12	225.36
993.41	225.42
993.70	225.57
993.99	225.73
994.28	225.77
994.58	225.85
994.87	225.84
995.16	225.84
995.45	225.78
995.74	225.67
996.03	225.80
996.32	225.89
996.61	226.04
996.90	226.02
997.19	226.04
997.48	226.10
997.77	226.01
998.06	226.12
998.34	226.09
998.63	226.14
998.92	226.15
999.21	226.23
999.50	226.27
999.79	226.07
1000.08	226.00
1000.37	225.99
1000.66	225.90
1000.95	225.93
1001.24	225.91
1001.53	225.96
1001.82	225.97
1002.11	225.82
1002.40	225.85
1002.68	226.00
1002.97	226.35
1003.26	226.21
1003.55	226.08
1003.84	226.15
1004.13	226.30
1004.42	226.24
1004.71	226.30
1004.99	226.29
1005.28	226.39
1005.57	226.26
1005.86	226.23
1006.15	226.14
1006.44	226.03
1006.72	226.07
1007.01	226.06
1007.30	226.04
1007.59	226.01
1007.88	225.96
1008.17	226.01
1008.45	225.82
1008.74	225.59
1009.03	225.36
1009.32	225.38
1009.60	225.47
1009.89	225.41
1010.18	225.24
1010.47	225.19
1010.76	225.12
1011.04	225.09
1011.33	225.11
1011.62	225.15
1011.91	225.20
1012.19	225.28
1012.48	225.29
1012.77	225.25
1013.05	225.38
1013.34	225.36
1013.63	225.38
1013.92	225.37
1014.20	225.35
1014.49	225.46
1014.78	225.46
1015.06	225.31
1015.35	225.29
1015.64	225.29
1015.92	225.36
1016.21	225.35
1016.50	225.37
1016.78	225.37
1017.07	225.39
1017.36	225.23
1017.64	225.16
1017.93	225.16
1018.22	225.13
1018.50	225.08
1018.79	225.07
1019.08	224.90
1019.36	224.95
1019.65	224.83
1019.93	224.97
1020.22	224.98
1020.51	225.23
1020.79	225.15
1021.08	225.55
1021.36	223.60
1021.65	224.90
1021.94	225.00
1022.22	225.30
1022.51	223.45
1022.79	227.15
1023.08	225.75
1023.36	231.20
1023.65	223.10
>>>>>End Processed Spectral Data<<<<<
