SpectraSuite Data File
++++++++++++++++++++++++++++++++++++
Date: Wed Sep 04 17:50:26 EDT 2013
User: lab3
Dark Spectrum Present: Yes
Reference Spectrum Present: No
Number of Sampled Component Spectra: 1
Spectrometers: USB2E7196
Integration Time (usec): 170000 (USB2E7196)
Spectra Averaged: 20 (USB2E7196)
Boxcar Smoothing: 10 (USB2E7196)
Correct for Electrical Dark: No (USB2E7196)
Strobe/Lamp Enabled: No (USB2E7196)
Correct for Detector Non-linearity: No (USB2E7196)
Correct for Stray Light: No (USB2E7196)
Number of Pixels in Processed Spectrum: 2048
>>>>>Begin Processed Spectral Data<<<<<
339.09	0.00
339.48	213.20
339.86	213.85
340.24	213.85
340.63	217.75
341.01	223.75
341.39	220.45
341.78	222.65
342.16	225.05
342.54	222.80
342.93	212.05
343.31	222.75
343.69	223.27
344.07	223.78
344.46	224.36
344.84	224.68
345.22	224.72
345.60	224.96
345.99	225.15
346.37	225.17
346.75	225.29
347.13	225.39
347.52	225.46
347.90	225.68
348.28	225.64
348.66	225.86
349.05	225.72
349.43	225.81
349.81	225.94
350.19	225.99
350.57	226.05
350.96	226.13
351.34	226.20
351.72	226.35
352.10	226.43
352.48	226.46
352.87	226.53
353.25	226.61
353.63	226.63
354.01	226.64
354.39	226.75
354.77	226.80
355.15	227.01
355.54	226.99
355.92	226.88
356.30	226.95
356.68	227.32
357.06	227.41
357.44	227.37
357.82	227.46
358.20	227.84
358.58	227.77
358.97	227.89
359.35	228.06
359.73	228.22
360.11	228.36
360.49	228.39
360.87	228.48
361.25	228.59
361.63	228.83
362.01	228.93
362.39	228.92
362.77	229.05
363.15	229.07
363.53	229.12
363.91	229.18
364.29	229.22
364.67	228.77
365.05	228.87
365.43	228.99
365.81	229.02
366.19	228.91
366.57	229.25
366.95	229.21
367.33	229.09
367.71	229.03
368.09	228.99
368.47	229.00
368.85	228.97
369.23	229.04
369.61	228.87
369.99	229.00
370.37	229.11
370.75	229.31
371.13	229.15
371.51	229.14
371.89	229.20
372.27	229.23
372.65	229.27
373.03	229.24
373.41	229.14
373.78	229.04
374.16	228.84
374.54	228.61
374.92	228.49
375.30	228.50
375.68	228.38
376.06	228.36
376.44	228.32
376.82	228.34
377.19	228.29
377.57	228.25
377.95	228.02
378.33	227.80
378.71	227.40
379.09	227.38
379.47	227.37
379.84	227.26
380.22	227.16
380.60	226.92
380.98	226.86
381.36	226.76
381.73	226.70
382.11	226.63
382.49	226.66
382.87	226.56
383.25	226.48
383.62	226.93
384.00	226.85
384.38	226.77
384.76	226.78
385.13	226.91
385.51	226.83
385.89	226.71
386.27	226.73
386.64	226.78
387.02	226.77
387.40	226.70
387.78	226.65
388.15	226.63
388.53	226.61
388.91	226.51
389.29	226.47
389.66	226.49
390.04	226.40
390.42	226.35
390.79	226.34
391.17	226.32
391.55	225.76
391.92	225.74
392.30	225.80
392.68	225.68
393.05	225.59
393.43	225.63
393.81	225.65
394.18	225.56
394.56	225.66
394.94	225.73
395.31	225.65
395.69	225.90
396.06	226.00
396.44	226.12
396.82	226.18
397.19	226.57
397.57	226.52
397.95	226.65
398.32	226.59
398.70	226.75
399.07	226.88
399.45	227.00
399.82	227.07
400.20	227.10
400.58	227.15
400.95	227.12
401.33	227.36
401.70	227.83
402.08	228.06
402.45	228.13
402.83	228.31
403.20	228.46
403.58	228.54
403.95	228.72
404.33	228.94
404.71	229.16
405.08	229.55
405.46	229.79
405.83	229.98
406.21	230.30
406.58	230.63
406.96	230.90
407.33	231.24
407.70	231.60
408.08	232.35
408.45	232.81
408.83	233.24
409.20	233.60
409.58	233.77
409.95	234.27
410.33	234.82
410.70	235.26
411.08	235.98
411.45	236.52
411.82	237.12
412.20	237.86
412.57	238.85
412.95	239.15
413.32	240.14
413.69	241.06
414.07	241.92
414.44	242.86
414.82	243.87
415.19	245.00
415.56	246.23
415.94	247.24
416.31	248.65
416.68	250.05
417.06	251.66
417.43	253.31
417.81	255.05
418.18	256.87
418.55	258.77
418.93	260.73
419.30	262.76
419.67	264.87
420.04	267.07
420.42	269.30
420.79	272.33
421.16	274.95
421.54	277.93
421.91	280.89
422.28	283.89
422.66	287.13
423.03	290.66
423.40	293.89
423.77	297.41
424.15	300.91
424.52	304.79
424.89	308.88
425.26	312.77
425.64	316.57
426.01	320.63
426.38	324.93
426.75	329.33
427.13	333.88
427.50	338.66
427.87	343.66
428.24	348.51
428.61	352.95
428.99	358.25
429.36	363.73
429.73	369.17
430.10	374.71
430.47	380.29
430.85	385.76
431.22	391.87
431.59	398.51
431.96	404.79
432.33	411.53
432.70	418.15
433.08	425.90
433.45	433.26
433.82	440.54
434.19	448.71
434.56	456.85
434.93	464.49
435.30	472.21
435.68	480.59
436.05	489.00
436.42	497.32
436.79	504.94
437.16	513.23
437.53	522.03
437.90	530.64
438.27	539.25
438.64	548.10
439.01	556.42
439.38	563.68
439.75	570.73
440.13	578.78
440.50	586.28
440.87	592.45
441.24	598.67
441.61	605.71
441.98	610.66
442.35	616.41
442.72	622.43
443.09	628.27
443.46	631.75
443.83	633.99
444.20	635.95
444.57	638.81
444.94	639.93
445.31	641.10
445.68	642.48
446.05	642.71
446.42	641.53
446.79	640.25
447.16	638.64
447.53	637.54
447.90	633.82
448.27	630.09
448.64	625.30
449.01	621.78
449.37	615.66
449.74	609.76
450.11	602.89
450.48	595.26
450.85	587.41
451.22	580.60
451.59	574.10
451.96	567.89
452.33	559.69
452.70	552.40
453.07	543.75
453.43	534.72
453.80	526.34
454.17	518.39
454.54	510.62
454.91	502.42
455.28	494.49
455.65	487.11
456.02	480.31
456.38	473.81
456.75	466.17
457.12	459.65
457.49	453.53
457.86	447.22
458.23	442.08
458.59	436.44
458.96	430.77
459.33	425.78
459.70	420.75
460.07	416.79
460.43	412.09
460.80	407.84
461.17	404.15
461.54	400.15
461.91	396.30
462.27	392.56
462.64	389.38
463.01	385.73
463.38	382.44
463.74	378.53
464.11	375.73
464.48	373.09
464.85	370.26
465.21	368.09
465.58	365.95
465.95	363.10
466.32	360.78
466.68	358.51
467.05	356.21
467.42	353.95
467.78	351.62
468.15	349.45
468.52	347.79
468.88	345.54
469.25	343.58
469.62	342.15
469.98	340.38
470.35	338.79
470.72	337.41
471.08	335.75
471.45	334.54
471.82	333.15
472.18	331.63
472.55	330.62
472.92	329.25
473.28	327.98
473.65	326.90
474.02	325.87
474.38	325.06
474.75	324.36
475.11	323.43
475.48	322.81
475.85	322.22
476.21	321.65
476.58	321.14
476.94	320.74
477.31	320.15
477.67	319.79
478.04	319.50
478.41	319.28
478.77	319.51
479.14	319.24
479.50	319.16
479.87	319.21
480.23	319.30
480.60	319.33
480.96	319.41
481.33	319.86
481.69	320.00
482.06	320.20
482.42	320.50
482.79	320.96
483.15	321.26
483.52	321.89
483.88	322.31
484.25	322.90
484.61	323.61
484.98	324.32
485.34	325.26
485.71	326.27
486.07	327.18
486.44	327.78
486.80	328.82
487.17	329.92
487.53	331.34
487.90	332.72
488.26	334.31
488.62	335.98
488.99	337.47
489.35	339.19
489.72	341.06
490.08	343.00
490.44	345.02
490.81	347.31
491.17	349.44
491.54	351.95
491.90	354.53
492.26	357.21
492.63	360.06
492.99	362.88
493.36	365.90
493.72	369.26
494.08	372.67
494.45	376.33
494.81	380.29
495.17	384.05
495.54	388.23
495.90	392.49
496.26	396.95
496.63	401.50
496.99	406.34
497.35	411.40
497.72	416.64
498.08	422.07
498.44	427.64
498.80	433.62
499.17	439.71
499.53	446.03
499.89	452.58
500.26	459.48
500.62	466.52
500.98	474.01
501.34	481.36
501.71	489.11
502.07	496.92
502.43	505.01
502.79	513.42
503.16	522.07
503.52	530.89
503.88	539.88
504.24	549.50
504.60	559.47
504.97	569.70
505.33	579.97
505.69	590.99
506.05	602.08
506.41	613.31
506.78	624.93
507.14	636.90
507.50	649.35
507.86	661.80
508.22	674.79
508.59	687.71
508.95	701.35
509.31	715.35
509.67	729.49
510.03	743.61
510.39	758.17
510.75	773.09
511.12	788.33
511.48	803.99
511.84	819.54
512.20	835.37
512.56	851.41
512.92	868.40
513.28	884.99
513.64	902.16
514.00	919.53
514.37	937.08
514.73	955.09
515.09	973.23
515.45	991.67
515.81	1010.04
516.17	1028.79
516.53	1047.60
516.89	1066.15
517.25	1085.21
517.61	1105.49
517.97	1125.76
518.33	1145.62
518.69	1165.77
519.05	1186.17
519.41	1206.91
519.77	1227.83
520.13	1248.73
520.49	1268.91
520.85	1291.25
521.21	1312.13
521.57	1333.34
521.93	1353.93
522.29	1374.91
522.65	1395.40
523.01	1416.08
523.37	1436.53
523.73	1457.41
524.09	1477.63
524.45	1498.34
524.81	1519.35
525.17	1539.60
525.53	1559.80
525.89	1580.60
526.25	1601.15
526.61	1621.44
526.97	1642.19
527.33	1663.35
527.68	1684.75
528.04	1706.14
528.40	1725.36
528.76	1746.26
529.12	1766.62
529.48	1787.57
529.84	1807.23
530.20	1828.30
530.56	1848.86
530.91	1869.73
531.27	1889.75
531.63	1910.30
531.99	1930.55
532.35	1950.41
532.71	1970.34
533.07	1991.05
533.42	2010.70
533.78	2030.51
534.14	2050.17
534.50	2069.38
534.86	2088.36
535.21	2105.59
535.57	2123.71
535.93	2141.49
536.29	2159.01
536.65	2176.90
537.00	2194.24
537.36	2212.11
537.72	2227.96
538.08	2244.84
538.44	2261.04
538.79	2277.29
539.15	2293.49
539.51	2309.37
539.87	2324.61
540.22	2338.77
540.58	2352.81
540.94	2365.98
541.29	2378.58
541.65	2391.03
542.01	2403.29
542.37	2413.23
542.72	2424.53
543.08	2434.67
543.44	2446.19
543.79	2455.84
544.15	2465.36
544.51	2475.26
544.87	2484.46
545.22	2493.11
545.58	2500.70
545.94	2507.69
546.29	2514.32
546.65	2520.25
547.01	2525.76
547.36	2531.06
547.72	2536.14
548.07	2539.98
548.43	2545.14
548.79	2550.07
549.14	2553.90
549.50	2557.57
549.86	2561.62
550.21	2565.05
550.57	2568.72
550.92	2570.03
551.28	2571.29
551.64	2573.65
551.99	2575.25
552.35	2576.84
552.70	2578.93
553.06	2580.81
553.41	2582.29
553.77	2583.65
554.13	2585.33
554.48	2586.78
554.84	2587.95
555.19	2589.07
555.55	2590.62
555.90	2589.57
556.26	2588.23
556.61	2586.65
556.97	2584.22
557.32	2583.76
557.68	2582.38
558.03	2580.53
558.39	2578.98
558.74	2578.32
559.10	2574.85
559.45	2571.21
559.81	2566.55
560.16	2561.29
560.52	2555.84
560.87	2551.02
561.23	2545.87
561.58	2539.65
561.94	2532.75
562.29	2525.33
562.64	2518.20
563.00	2509.93
563.35	2503.36
563.71	2496.66
564.06	2490.14
564.42	2483.62
564.77	2476.36
565.12	2468.81
565.48	2461.19
565.83	2453.00
566.19	2444.79
566.54	2437.07
566.89	2428.94
567.25	2421.15
567.60	2414.02
567.96	2406.81
568.31	2398.77
568.66	2389.71
569.02	2380.87
569.37	2372.55
569.72	2365.14
570.08	2355.74
570.43	2346.12
570.78	2337.20
571.14	2327.63
571.49	2317.97
571.84	2308.30
572.20	2297.32
572.55	2287.22
572.90	2276.39
573.26	2266.46
573.61	2255.56
573.96	2244.53
574.31	2232.28
574.67	2220.64
575.02	2208.02
575.37	2195.36
575.72	2182.51
576.08	2170.68
576.43	2158.22
576.78	2145.35
577.13	2131.52
577.49	2119.18
577.84	2107.60
578.19	2095.59
578.54	2083.40
578.90	2071.18
579.25	2059.18
579.60	2047.00
579.95	2034.00
580.30	2021.20
580.66	2007.73
581.01	1994.23
581.36	1980.22
581.71	1968.06
582.06	1955.18
582.42	1942.91
582.77	1930.20
583.12	1918.16
583.47	1905.86
583.82	1894.27
584.17	1882.06
584.53	1870.41
584.88	1857.86
585.23	1844.66
585.58	1830.66
585.93	1817.37
586.28	1804.54
586.63	1790.68
586.98	1776.85
587.34	1764.15
587.69	1751.18
588.04	1738.60
588.39	1726.76
588.74	1714.81
589.09	1702.86
589.44	1690.33
589.79	1678.28
590.14	1666.59
590.49	1654.55
590.84	1642.83
591.19	1630.84
591.54	1618.92
591.89	1606.79
592.25	1596.31
592.60	1585.28
592.95	1574.07
593.30	1562.23
593.65	1549.99
594.00	1538.13
594.35	1528.24
594.70	1516.33
595.05	1504.74
595.40	1493.01
595.75	1481.33
596.10	1470.15
596.45	1458.59
596.80	1448.05
597.15	1436.50
597.50	1424.85
597.85	1413.83
598.19	1401.91
598.54	1390.26
598.89	1379.07
599.24	1368.60
599.59	1357.23
599.94	1346.24
600.29	1335.87
600.64	1326.00
600.99	1315.49
601.34	1306.03
601.69	1294.96
602.04	1285.25
602.39	1275.81
602.74	1266.60
603.08	1257.20
603.43	1248.01
603.78	1238.44
604.13	1228.70
604.48	1219.09
604.83	1209.43
605.18	1199.66
605.53	1190.63
605.87	1181.64
606.22	1173.31
606.57	1163.98
606.92	1154.77
607.27	1145.94
607.62	1137.31
607.96	1128.49
608.31	1120.66
608.66	1112.14
609.01	1103.71
609.36	1095.32
609.70	1086.76
610.05	1078.16
610.40	1069.72
610.75	1061.05
611.10	1052.80
611.44	1044.22
611.79	1036.25
612.14	1028.46
612.49	1020.64
612.83	1013.08
613.18	1005.27
613.53	997.36
613.88	989.67
614.22	981.91
614.57	974.23
614.92	966.43
615.27	958.96
615.61	951.38
615.96	944.04
616.31	936.67
616.65	929.75
617.00	922.70
617.35	915.68
617.70	908.62
618.04	901.88
618.39	895.15
618.74	888.94
619.08	882.40
619.43	875.47
619.78	868.57
620.12	861.38
620.47	854.58
620.82	847.64
621.16	840.97
621.51	834.65
621.85	828.28
622.20	821.79
622.55	815.25
622.89	808.95
623.24	802.69
623.59	796.42
623.93	790.00
624.28	783.95
624.62	778.45
624.97	772.71
625.32	766.94
625.66	761.10
626.01	755.10
626.35	749.51
626.70	744.11
627.04	738.94
627.39	733.56
627.73	728.31
628.08	723.34
628.43	718.06
628.77	712.85
629.12	707.81
629.46	703.12
629.81	698.52
630.15	693.78
630.50	688.75
630.84	683.98
631.19	679.36
631.53	674.67
631.88	669.41
632.22	664.60
632.57	660.10
632.91	655.50
633.26	651.17
633.60	646.55
633.95	641.92
634.29	637.11
634.64	632.86
634.98	628.25
635.32	623.93
635.67	619.98
636.01	615.76
636.36	611.40
636.70	607.21
637.05	603.14
637.39	598.99
637.73	595.05
638.08	591.24
638.42	587.05
638.77	582.91
639.11	578.83
639.45	574.50
639.80	569.99
640.14	566.03
640.49	561.99
640.83	558.24
641.17	554.67
641.52	551.10
641.86	547.46
642.20	544.24
642.55	540.64
642.89	536.96
643.23	533.46
643.58	530.27
643.92	526.75
644.26	523.35
644.61	520.33
644.95	517.00
645.29	513.61
645.64	510.52
645.98	507.47
646.32	504.44
646.66	501.58
647.01	498.78
647.35	495.90
647.69	493.00
648.04	490.41
648.38	487.55
648.72	484.67
649.06	481.71
649.41	478.83
649.75	475.73
650.09	472.94
650.43	470.22
650.78	467.24
651.12	464.45
651.46	461.65
651.80	458.72
652.14	455.99
652.49	453.45
652.83	450.91
653.17	448.14
653.51	445.57
653.85	443.15
654.20	440.68
654.54	438.16
654.88	435.75
655.22	433.40
655.56	431.04
655.90	428.74
656.25	426.52
656.59	424.32
656.93	422.22
657.27	420.14
657.61	417.72
657.95	415.62
658.29	413.40
658.64	411.50
658.98	409.42
659.32	407.31
659.66	405.13
660.00	403.07
660.34	401.15
660.68	399.17
661.02	397.20
661.36	395.30
661.70	393.35
662.05	391.41
662.39	389.48
662.73	387.72
663.07	386.14
663.41	384.35
663.75	382.31
664.09	380.57
664.43	378.62
664.77	377.02
665.11	375.31
665.45	373.72
665.79	371.96
666.13	370.21
666.47	368.59
666.81	366.90
667.15	365.17
667.49	363.66
667.83	362.36
668.17	360.85
668.51	359.46
668.85	358.12
669.19	356.96
669.53	355.33
669.87	353.80
670.21	352.27
670.55	350.86
670.89	349.88
671.23	348.45
671.57	347.09
671.91	345.74
672.25	344.52
672.58	343.36
672.92	341.90
673.26	340.64
673.60	339.44
673.94	338.33
674.28	337.17
674.62	335.99
674.96	334.57
675.30	333.44
675.64	332.19
675.97	331.00
676.31	329.66
676.65	328.45
676.99	327.46
677.33	326.35
677.67	325.26
678.01	323.90
678.34	322.90
678.68	321.97
679.02	320.99
679.36	319.95
679.70	318.92
680.04	318.08
680.37	317.12
680.71	316.20
681.05	315.36
681.39	314.54
681.73	313.61
682.06	312.73
682.40	311.76
682.74	310.98
683.08	310.35
683.42	309.45
683.75	308.78
684.09	307.89
684.43	307.16
684.77	306.39
685.10	305.63
685.44	304.87
685.78	304.04
686.12	303.24
686.45	302.38
686.79	301.49
687.13	300.61
687.46	299.93
687.80	299.25
688.14	298.31
688.48	297.54
688.81	296.82
689.15	296.25
689.49	295.56
689.82	294.83
690.16	293.77
690.50	293.11
690.83	292.36
691.17	291.60
691.51	290.72
691.84	290.06
692.18	289.35
692.52	288.62
692.85	288.08
693.19	287.59
693.52	286.93
693.86	286.25
694.20	285.73
694.53	285.10
694.87	284.50
695.21	283.92
695.54	283.29
695.88	282.58
696.21	281.81
696.55	281.29
696.88	280.68
697.22	280.10
697.56	279.51
697.89	278.95
698.23	278.45
698.56	277.93
698.90	277.45
699.23	276.91
699.57	276.43
699.90	275.79
700.24	275.18
700.58	274.76
700.91	274.50
701.25	274.39
701.58	274.21
701.92	273.78
702.25	273.34
702.59	272.91
702.92	272.56
703.26	272.11
703.59	271.53
703.93	271.49
704.26	271.07
704.60	270.65
704.93	270.13
705.26	269.62
705.60	269.42
705.93	268.88
706.27	268.58
706.60	268.34
706.94	268.28
707.27	267.82
707.61	267.52
707.94	267.01
708.27	266.22
708.61	265.48
708.94	265.00
709.28	264.65
709.61	264.23
709.94	263.92
710.28	263.56
710.61	263.30
710.95	262.52
711.28	262.61
711.61	262.23
711.95	262.04
712.28	261.70
712.61	261.30
712.95	261.20
713.28	261.02
713.61	260.49
713.95	259.87
714.28	259.61
714.61	259.18
714.95	258.87
715.28	258.51
715.61	258.21
715.95	257.95
716.28	257.67
716.61	257.46
716.95	257.04
717.28	256.71
717.61	256.43
717.94	256.21
718.28	255.53
718.61	255.22
718.94	254.81
719.27	254.50
719.61	254.19
719.94	253.84
720.27	253.38
720.60	253.16
720.94	252.91
721.27	252.67
721.60	252.56
721.93	252.29
722.27	252.24
722.60	252.15
722.93	251.88
723.26	251.62
723.59	251.31
723.93	251.22
724.26	251.10
724.59	250.75
724.92	250.56
725.25	250.52
725.59	250.32
725.92	250.22
726.25	250.07
726.58	249.89
726.91	249.61
727.24	249.41
727.57	249.17
727.91	248.84
728.24	248.77
728.57	248.46
728.90	248.29
729.23	248.00
729.56	248.01
729.89	247.87
730.22	247.70
730.55	247.51
730.89	247.29
731.22	247.10
731.55	246.99
731.88	246.75
732.21	246.45
732.54	246.16
732.87	246.02
733.20	245.89
733.53	245.70
733.86	245.64
734.19	245.50
734.52	245.43
734.85	245.64
735.18	245.34
735.51	245.30
735.84	245.16
736.17	245.11
736.50	244.66
736.83	245.03
737.16	244.86
737.49	244.73
737.82	244.59
738.15	244.46
738.48	244.28
738.81	244.12
739.14	243.89
739.47	243.80
739.80	243.62
740.13	243.46
740.46	243.25
740.79	242.97
741.12	242.74
741.45	242.55
741.78	242.13
742.11	242.09
742.44	241.86
742.77	241.79
743.10	241.40
743.43	241.26
743.75	240.63
744.08	241.14
744.41	240.99
744.74	240.76
745.07	240.51
745.40	240.42
745.73	240.53
746.06	240.47
746.39	240.37
746.71	240.18
747.04	239.99
747.37	239.86
747.70	239.79
748.03	239.63
748.36	239.54
748.68	239.42
749.01	239.17
749.34	239.05
749.67	238.98
750.00	239.05
750.33	239.30
750.65	239.18
750.98	238.50
751.31	238.40
751.64	238.35
751.97	238.53
752.29	238.50
752.62	238.17
752.95	238.03
753.28	237.86
753.60	237.78
753.93	237.86
754.26	237.83
754.59	237.60
754.91	237.54
755.24	237.43
755.57	237.31
755.90	237.24
756.22	237.06
756.55	236.85
756.88	236.62
757.20	236.15
757.53	235.94
757.86	235.83
758.19	235.73
758.51	235.66
758.84	235.29
759.17	235.10
759.49	235.03
759.82	235.20
760.15	235.24
760.47	235.10
760.80	234.86
761.13	234.85
761.45	234.73
761.78	234.74
762.11	234.67
762.43	234.57
762.76	234.51
763.08	234.50
763.41	234.46
763.74	234.45
764.06	234.34
764.39	234.31
764.71	234.19
765.04	234.10
765.37	233.96
765.69	233.94
766.02	233.85
766.34	233.72
766.67	233.43
767.00	233.51
767.32	233.69
767.65	233.90
767.97	233.77
768.30	233.82
768.62	233.76
768.95	233.66
769.27	233.60
769.60	233.55
769.92	233.45
770.25	233.28
770.57	233.18
770.90	233.17
771.22	233.07
771.55	233.05
771.87	233.04
772.20	233.02
772.52	233.42
772.85	234.01
773.17	233.97
773.50	233.95
773.82	233.75
774.15	233.52
774.47	233.26
774.80	233.20
775.12	233.16
775.45	233.02
775.77	233.00
776.09	232.96
776.42	232.93
776.74	233.05
777.07	233.03
777.39	233.03
777.72	232.95
778.04	233.00
778.36	232.89
778.69	232.88
779.01	232.86
779.33	232.34
779.66	231.77
779.98	231.75
780.31	231.72
780.63	231.82
780.95	231.78
781.28	231.65
781.60	231.58
781.92	231.45
782.25	231.47
782.57	231.47
782.89	231.42
783.22	231.34
783.54	231.16
783.86	231.19
784.19	231.12
784.51	231.20
784.83	231.08
785.16	230.99
785.48	230.95
785.80	230.90
786.12	230.94
786.45	230.85
786.77	230.89
787.09	230.79
787.42	230.63
787.74	230.65
788.06	230.64
788.38	230.51
788.71	230.55
789.03	230.48
789.35	230.47
789.67	230.35
789.99	230.37
790.32	230.25
790.64	230.18
790.96	230.53
791.28	230.28
791.61	230.21
791.93	230.19
792.25	230.05
792.57	230.35
792.89	230.13
793.21	230.09
793.54	229.95
793.86	229.87
794.18	229.83
794.50	229.63
794.82	229.64
795.14	229.75
795.47	229.74
795.79	229.78
796.11	229.60
796.43	229.59
796.75	229.51
797.07	229.55
797.39	229.47
797.71	229.09
798.04	229.12
798.36	229.11
798.68	229.11
799.00	229.11
799.32	228.77
799.64	228.89
799.96	228.83
800.28	228.86
800.60	228.84
800.92	228.87
801.24	228.86
801.56	228.86
801.89	228.71
802.21	228.66
802.53	228.50
802.85	228.61
803.17	228.81
803.49	228.77
803.81	228.75
804.13	228.70
804.45	228.64
804.77	228.65
805.09	228.65
805.41	228.55
805.73	228.45
806.05	228.35
806.37	228.32
806.69	228.35
807.01	228.24
807.33	228.25
807.65	227.99
807.97	228.29
808.28	228.18
808.60	228.23
808.92	228.25
809.24	228.54
809.56	228.40
809.88	228.22
810.20	228.20
810.52	228.22
810.84	228.19
811.16	228.13
811.48	228.12
811.80	228.24
812.12	228.25
812.43	228.34
812.75	228.39
813.07	228.30
813.39	228.28
813.71	228.22
814.03	228.11
814.35	228.15
814.67	227.83
814.98	227.85
815.30	227.86
815.62	227.73
815.94	227.42
816.26	227.70
816.58	227.60
816.89	227.65
817.21	227.52
817.53	227.55
817.85	227.59
818.17	227.55
818.48	227.35
818.80	227.41
819.12	227.34
819.44	227.17
819.76	227.08
820.07	227.07
820.39	227.12
820.71	227.21
821.03	227.23
821.34	227.24
821.66	227.26
821.98	227.23
822.30	227.25
822.61	227.55
822.93	227.27
823.25	227.30
823.57	227.24
823.88	227.38
824.20	227.40
824.52	227.49
824.83	227.41
825.15	227.37
825.47	227.40
825.79	227.44
826.10	227.45
826.42	227.46
826.74	227.44
827.05	227.45
827.37	227.52
827.69	227.58
828.00	227.56
828.32	227.53
828.64	227.45
828.95	227.70
829.27	227.55
829.58	227.53
829.90	227.56
830.22	227.62
830.53	227.53
830.85	227.47
831.17	227.31
831.48	227.35
831.80	227.39
832.11	227.34
832.43	227.25
832.75	227.29
833.06	227.60
833.38	227.54
833.69	227.54
834.01	227.46
834.32	227.39
834.64	227.42
834.96	227.45
835.27	227.50
835.59	227.34
835.90	227.24
836.22	227.24
836.53	227.19
836.85	227.12
837.16	227.56
837.48	227.57
837.79	227.70
838.11	227.75
838.42	227.69
838.74	227.73
839.05	227.80
839.37	227.83
839.68	227.52
840.00	227.55
840.31	227.60
840.63	227.58
840.94	227.49
841.26	227.49
841.57	227.44
841.88	227.47
842.20	227.41
842.51	227.34
842.83	227.32
843.14	227.77
843.46	227.76
843.77	227.49
844.08	227.48
844.40	227.34
844.71	227.29
845.03	227.30
845.34	227.23
845.65	227.15
845.97	227.12
846.28	227.18
846.60	227.15
846.91	227.05
847.22	227.05
847.54	227.14
847.85	227.10
848.16	227.10
848.48	226.96
848.79	227.15
849.10	227.22
849.42	227.32
849.73	226.86
850.04	226.77
850.36	226.63
850.67	226.70
850.98	226.70
851.30	226.75
851.61	226.71
851.92	226.75
852.23	226.87
852.55	226.91
852.86	226.91
853.17	226.90
853.49	227.01
853.80	227.13
854.11	227.17
854.42	227.26
854.74	227.21
855.05	227.25
855.36	226.94
855.67	226.92
855.99	226.85
856.30	227.40
856.61	227.51
856.92	227.49
857.23	227.49
857.55	227.46
857.86	227.34
858.17	227.49
858.48	227.37
858.79	227.31
859.11	227.29
859.42	227.28
859.73	227.26
860.04	227.21
860.35	227.04
860.66	226.91
860.98	226.84
861.29	226.86
861.60	226.82
861.91	227.00
862.22	226.90
862.53	226.83
862.84	226.19
863.16	226.30
863.47	226.21
863.78	226.11
864.09	226.19
864.40	226.25
864.71	226.22
865.02	226.30
865.33	226.24
865.64	226.19
865.95	226.16
866.27	226.46
866.58	226.37
866.89	226.36
867.20	226.32
867.51	226.29
867.82	226.26
868.13	226.37
868.44	226.27
868.75	226.47
869.06	226.54
869.37	226.64
869.68	226.46
869.99	226.56
870.30	226.66
870.61	226.60
870.92	226.54
871.23	226.51
871.54	226.55
871.85	226.64
872.16	226.65
872.47	226.60
872.78	226.28
873.09	226.40
873.40	226.45
873.71	226.56
874.02	226.58
874.33	226.56
874.64	226.49
874.95	226.55
875.26	226.35
875.56	226.31
875.87	226.31
876.18	226.37
876.49	226.83
876.80	226.74
877.11	226.69
877.42	226.76
877.73	226.76
878.04	226.67
878.35	226.62
878.66	226.66
878.96	226.64
879.27	226.62
879.58	226.59
879.89	226.50
880.20	226.61
880.51	226.56
880.82	226.57
881.12	226.61
881.43	226.44
881.74	226.39
882.05	226.38
882.36	226.30
882.67	226.29
882.97	225.81
883.28	225.78
883.59	225.77
883.90	225.72
884.21	225.82
884.51	225.80
884.82	225.79
885.13	225.79
885.44	225.84
885.74	225.88
886.05	225.80
886.36	225.80
886.67	225.58
886.98	225.86
887.28	225.97
887.59	225.94
887.90	225.95
888.20	225.99
888.51	226.00
888.82	226.03
889.13	226.08
889.43	226.49
889.74	226.45
890.05	226.44
890.35	226.45
890.66	226.37
890.97	226.40
891.28	226.35
891.58	226.40
891.89	226.41
892.20	226.42
892.50	226.42
892.81	226.43
893.12	226.46
893.42	226.26
893.73	226.21
894.04	226.19
894.34	226.35
894.65	226.31
894.95	226.31
895.26	226.30
895.57	226.48
895.87	225.98
896.18	226.15
896.48	226.19
896.79	226.14
897.10	226.19
897.40	226.23
897.71	226.28
898.01	226.20
898.32	226.25
898.63	226.18
898.93	226.20
899.24	226.21
899.54	226.17
899.85	226.12
900.15	226.15
900.46	226.16
900.76	226.12
901.07	226.19
901.38	226.17
901.68	226.31
901.99	226.08
902.29	226.15
902.60	226.07
902.90	226.07
903.21	226.14
903.51	226.11
903.82	226.21
904.12	226.17
904.43	226.21
904.73	226.21
905.03	226.27
905.34	226.77
905.64	226.74
905.95	226.84
906.25	226.81
906.56	226.78
906.86	226.78
907.17	226.79
907.47	226.77
907.77	226.78
908.08	226.65
908.38	226.67
908.69	226.69
908.99	226.77
909.30	226.77
909.60	226.80
909.90	226.81
910.21	226.73
910.51	226.75
910.81	226.71
911.12	226.64
911.42	226.69
911.73	226.19
912.03	226.26
912.33	226.35
912.64	226.38
912.94	226.30
913.24	226.31
913.55	226.26
913.85	226.23
914.15	226.34
914.46	226.39
914.76	226.35
915.06	226.34
915.37	226.19
915.67	226.14
915.97	226.15
916.27	226.08
916.58	226.00
916.88	225.94
917.18	225.92
917.49	226.28
917.79	226.28
918.09	226.33
918.39	226.50
918.70	226.45
919.00	226.47
919.30	226.76
919.60	226.72
919.91	226.67
920.21	226.70
920.51	226.54
920.81	226.51
921.12	226.56
921.42	226.50
921.72	226.60
922.02	226.67
922.32	226.64
922.63	226.63
922.93	226.90
923.23	226.90
923.53	226.89
923.83	226.55
924.13	226.58
924.44	226.56
924.74	226.57
925.04	226.60
925.34	226.50
925.64	226.25
925.94	226.24
926.24	226.44
926.55	226.39
926.85	226.51
927.15	226.49
927.45	226.45
927.75	226.44
928.05	226.45
928.35	226.38
928.65	226.50
928.95	226.51
929.26	226.31
929.56	226.42
929.86	226.45
930.16	226.46
930.46	226.42
930.76	226.41
931.06	226.13
931.36	226.02
931.66	226.15
931.96	226.21
932.26	226.22
932.56	226.02
932.86	226.01
933.16	225.94
933.46	225.88
933.76	225.80
934.06	225.96
934.36	226.06
934.66	226.08
934.96	226.00
935.26	225.95
935.56	226.06
935.86	225.94
936.16	225.91
936.46	225.81
936.76	225.68
937.06	225.71
937.36	225.79
937.66	225.85
937.96	225.85
938.26	225.73
938.56	225.70
938.86	225.78
939.16	225.94
939.46	226.01
939.76	226.13
940.06	226.22
940.35	226.06
940.65	225.86
940.95	225.90
941.25	225.82
941.55	225.82
941.85	225.77
942.15	225.84
942.45	225.97
942.75	226.04
943.04	226.13
943.34	226.17
943.64	226.16
943.94	226.06
944.24	226.03
944.54	226.06
944.84	226.13
945.13	226.07
945.43	226.00
945.73	226.03
946.03	225.95
946.33	225.85
946.62	225.86
946.92	225.93
947.22	225.92
947.52	225.96
947.82	226.08
948.11	226.03
948.41	225.92
948.71	225.80
949.01	225.83
949.31	225.83
949.60	225.71
949.90	225.77
950.20	225.81
950.50	225.89
950.79	225.87
951.09	225.83
951.39	225.91
951.69	225.88
951.98	225.93
952.28	225.97
952.58	225.93
952.87	225.95
953.17	225.97
953.47	225.95
953.76	225.92
954.06	225.77
954.36	225.69
954.66	225.75
954.95	225.84
955.25	225.88
955.55	225.89
955.84	225.93
956.14	225.94
956.44	226.01
956.73	225.89
957.03	225.93
957.32	225.94
957.62	225.83
957.92	226.00
958.21	225.92
958.51	226.42
958.81	226.52
959.10	226.55
959.40	226.60
959.69	226.59
959.99	226.67
960.29	226.76
960.58	226.78
960.88	226.98
961.17	226.95
961.47	226.97
961.76	226.93
962.06	226.95
962.36	226.87
962.65	226.79
962.95	226.82
963.24	226.74
963.54	226.74
963.83	226.81
964.13	226.71
964.42	226.61
964.72	226.25
965.01	226.23
965.31	226.22
965.60	226.18
965.90	226.47
966.19	226.37
966.49	226.40
966.78	226.36
967.08	226.27
967.37	226.24
967.67	226.13
967.96	226.15
968.26	226.14
968.55	226.23
968.85	226.22
969.14	226.21
969.43	226.28
969.73	226.30
970.02	226.23
970.32	226.16
970.61	226.11
970.91	226.00
971.20	225.97
971.49	225.90
971.79	225.94
972.08	225.61
972.38	225.65
972.67	225.58
972.96	225.64
973.26	225.55
973.55	225.78
973.85	225.77
974.14	225.76
974.43	225.79
974.73	225.73
975.02	225.71
975.31	225.73
975.61	225.70
975.90	225.61
976.19	225.60
976.49	225.64
976.78	225.75
977.07	225.70
977.37	225.80
977.66	225.84
977.95	225.75
978.24	225.77
978.54	225.81
978.83	225.82
979.12	225.81
979.42	225.82
979.71	225.68
980.00	225.70
980.29	225.75
980.59	225.68
980.88	225.80
981.17	225.80
981.46	225.74
981.76	225.74
982.05	225.95
982.34	225.93
982.63	225.97
982.93	225.92
983.22	226.10
983.51	226.04
983.80	226.13
984.09	226.19
984.39	226.15
984.68	226.14
984.97	226.14
985.26	226.05
985.55	226.12
985.85	226.05
986.14	226.13
986.43	226.18
986.72	226.17
987.01	225.98
987.30	225.98
987.59	225.91
987.89	225.87
988.18	225.67
988.47	225.61
988.76	225.52
989.05	225.48
989.34	225.38
989.63	225.57
989.92	225.51
990.22	225.45
990.51	225.53
990.80	225.52
991.09	225.54
991.38	225.67
991.67	225.62
991.96	225.61
992.25	225.62
992.54	225.52
992.83	225.55
993.12	225.56
993.41	225.64
993.70	225.88
993.99	226.03
994.28	226.08
994.58	226.23
994.87	226.31
995.16	226.31
995.45	226.26
995.74	226.02
996.03	226.08
996.32	226.21
996.61	226.31
996.90	226.23
997.19	226.25
997.48	226.28
997.77	226.24
998.06	226.21
998.34	226.19
998.63	226.16
998.92	226.17
999.21	226.22
999.50	226.22
999.79	226.11
1000.08	226.08
1000.37	226.13
1000.66	226.08
1000.95	226.13
1001.24	226.20
1001.53	226.32
1001.82	226.30
1002.11	226.15
1002.40	226.11
1002.68	226.17
1002.97	226.59
1003.26	226.57
1003.55	226.50
1003.84	226.52
1004.13	226.68
1004.42	226.61
1004.71	226.61
1004.99	226.55
1005.28	226.64
1005.57	226.59
1005.86	226.48
1006.15	226.38
1006.44	226.29
1006.72	226.35
1007.01	226.30
1007.30	226.24
1007.59	226.18
1007.88	226.12
1008.17	226.20
1008.45	226.13
1008.74	225.90
1009.03	225.61
1009.32	225.70
1009.60	225.72
1009.89	225.68
1010.18	225.57
1010.47	225.59
1010.76	225.59
1011.04	225.62
1011.33	225.65
1011.62	225.68
1011.91	225.76
1012.19	225.82
1012.48	225.86
1012.77	225.84
1013.05	226.02
1013.34	226.09
1013.63	225.96
1013.92	226.05
1014.20	226.02
1014.49	226.02
1014.78	226.13
1015.06	226.00
1015.35	225.86
1015.64	225.85
1015.92	225.92
1016.21	225.90
1016.50	225.89
1016.78	226.00
1017.07	226.03
1017.36	225.95
1017.64	225.89
1017.93	225.91
1018.22	225.85
1018.50	225.83
1018.79	225.84
1019.08	225.58
1019.36	225.58
1019.65	225.54
1019.93	225.65
1020.22	225.66
1020.51	225.91
1020.79	225.80
1021.08	224.60
1021.36	224.75
1021.65	226.40
1021.94	224.75
1022.22	226.30
1022.51	223.55
1022.79	227.30
1023.08	225.60
1023.36	230.80
1023.65	224.55
>>>>>End Processed Spectral Data<<<<<
