SpectraSuite Data File
++++++++++++++++++++++++++++++++++++
Date: Wed Sep 04 17:44:17 EDT 2013
User: lab3
Dark Spectrum Present: Yes
Reference Spectrum Present: No
Number of Sampled Component Spectra: 1
Spectrometers: USB2E7196
Integration Time (usec): 170000 (USB2E7196)
Spectra Averaged: 20 (USB2E7196)
Boxcar Smoothing: 10 (USB2E7196)
Correct for Electrical Dark: No (USB2E7196)
Strobe/Lamp Enabled: No (USB2E7196)
Correct for Detector Non-linearity: No (USB2E7196)
Correct for Stray Light: No (USB2E7196)
Number of Pixels in Processed Spectrum: 2048
>>>>>Begin Processed Spectral Data<<<<<
339.09	0.00
339.48	211.85
339.86	214.30
340.24	215.85
340.63	216.60
341.01	224.90
341.39	219.05
341.78	222.55
342.16	223.70
342.54	222.75
342.93	211.97
343.31	222.64
343.69	223.23
344.07	223.64
344.46	224.11
344.84	224.55
345.22	224.60
345.60	224.85
345.99	225.02
346.37	225.08
346.75	225.24
347.13	225.31
347.52	225.37
347.90	225.52
348.28	225.56
348.66	225.66
349.05	225.55
349.43	225.58
349.81	225.71
350.19	225.76
350.57	225.82
350.96	225.95
351.34	226.10
351.72	226.17
352.10	226.31
352.48	226.35
352.87	226.35
353.25	226.44
353.63	226.50
354.01	226.48
354.39	226.60
354.77	226.65
355.15	226.80
355.54	226.80
355.92	226.68
356.30	226.73
356.68	227.06
357.06	227.14
357.44	227.15
357.82	227.17
358.20	227.64
358.58	227.70
358.97	227.71
359.35	227.84
359.73	227.98
360.11	228.04
360.49	228.13
360.87	228.20
361.25	228.26
361.63	228.53
362.01	228.65
362.39	228.65
362.77	228.75
363.15	228.78
363.53	228.79
363.91	228.97
364.29	229.05
364.67	228.64
365.05	228.65
365.43	228.71
365.81	228.75
366.19	228.64
366.57	228.79
366.95	228.86
367.33	228.76
367.71	228.79
368.09	228.85
368.47	228.85
368.85	228.88
369.23	228.98
369.61	228.76
369.99	228.98
370.37	229.03
370.75	229.17
371.13	229.11
371.51	229.11
371.89	229.10
372.27	229.05
372.65	229.10
373.03	229.13
373.41	229.05
373.78	229.07
374.16	228.79
374.54	228.73
374.92	228.70
375.30	228.65
375.68	228.48
376.06	228.50
376.44	228.41
376.82	228.35
377.19	228.22
377.57	228.18
377.95	227.89
378.33	227.75
378.71	227.39
379.09	227.44
379.47	227.42
379.84	227.25
380.22	227.19
380.60	227.06
380.98	226.90
381.36	226.87
381.73	226.67
382.11	226.72
382.49	226.58
382.87	226.40
383.25	226.33
383.62	226.91
384.00	226.78
384.38	226.72
384.76	226.80
385.13	226.90
385.51	226.80
385.89	226.71
386.27	226.73
386.64	226.82
387.02	226.66
387.40	226.60
387.78	226.60
388.15	226.53
388.53	226.45
388.91	226.48
389.29	226.39
389.66	226.52
390.04	226.39
390.42	226.38
390.79	226.38
391.17	226.36
391.55	225.74
391.92	225.69
392.30	225.70
392.68	225.58
393.05	225.58
393.43	225.65
393.81	225.78
394.18	225.67
394.56	225.67
394.94	225.83
395.31	225.78
395.69	225.95
396.06	226.11
396.44	226.19
396.82	226.13
397.19	226.47
397.57	226.45
397.95	226.62
398.32	226.58
398.70	226.71
399.07	226.88
399.45	226.92
399.82	227.04
400.20	227.16
400.58	227.22
400.95	227.03
401.33	227.24
401.70	227.62
402.08	227.89
402.45	227.99
402.83	228.15
403.20	228.34
403.58	228.38
403.95	228.57
404.33	228.84
404.71	229.08
405.08	229.48
405.46	229.65
405.83	229.92
406.21	230.21
406.58	230.49
406.96	230.78
407.33	231.17
407.70	231.57
408.08	232.28
408.45	232.70
408.83	233.25
409.20	233.56
409.58	233.69
409.95	234.18
410.33	234.72
410.70	235.13
411.08	235.78
411.45	236.48
411.82	237.06
412.20	237.85
412.57	238.94
412.95	239.20
413.32	240.12
413.69	240.82
414.07	241.74
414.44	242.67
414.82	243.65
415.19	244.80
415.56	245.92
415.94	246.91
416.31	248.35
416.68	249.77
417.06	251.37
417.43	253.00
417.81	254.75
418.18	256.52
418.55	258.44
418.93	260.36
419.30	262.30
419.67	264.45
420.04	266.56
420.42	268.69
420.79	271.74
421.16	274.44
421.54	277.45
421.91	280.33
422.28	283.32
422.66	286.47
423.03	289.75
423.40	293.02
423.77	296.46
424.15	299.85
424.52	303.47
424.89	307.48
425.26	311.15
425.64	314.66
426.01	318.62
426.38	322.85
426.75	327.26
427.13	331.79
427.50	336.37
427.87	341.09
428.24	345.82
428.61	350.15
428.99	355.22
429.36	360.40
429.73	365.73
430.10	370.97
430.47	376.49
430.85	382.00
431.22	387.99
431.59	394.55
431.96	400.60
432.33	407.31
432.70	413.77
433.08	421.44
433.45	428.79
433.82	436.00
434.19	443.88
434.56	451.71
434.93	458.92
435.30	466.39
435.68	474.66
436.05	482.76
436.42	490.81
436.79	498.14
437.16	506.35
437.53	514.75
437.90	523.27
438.27	531.45
438.64	540.03
439.01	548.12
439.38	554.97
439.75	562.00
440.13	569.78
440.50	577.08
440.87	582.89
441.24	588.84
441.61	595.53
441.98	600.32
442.35	605.76
442.72	611.75
443.09	617.45
443.46	620.77
443.83	623.05
444.20	625.00
444.57	627.70
444.94	628.55
445.31	629.67
445.68	630.95
446.05	631.44
446.42	630.19
446.79	628.83
447.16	627.30
447.53	626.06
447.90	622.35
448.27	618.72
448.64	614.13
449.01	610.74
449.37	604.89
449.74	599.13
450.11	592.64
450.48	585.05
450.85	577.34
451.22	570.85
451.59	564.57
451.96	558.49
452.33	550.71
452.70	543.77
453.07	535.38
453.43	526.61
453.80	518.34
454.17	510.52
454.54	502.92
454.91	495.05
455.28	487.25
455.65	480.29
456.02	473.84
456.38	467.59
456.75	460.12
457.12	453.73
457.49	447.60
457.86	441.46
458.23	436.52
458.59	430.99
458.96	425.38
459.33	420.45
459.70	415.42
460.07	411.44
460.43	406.89
460.80	402.79
461.17	399.17
461.54	395.21
461.91	391.52
462.27	387.86
462.64	384.63
463.01	381.14
463.38	377.95
463.74	373.94
464.11	371.19
464.48	368.57
464.85	365.79
465.21	363.82
465.58	361.67
465.95	359.01
466.32	356.86
466.68	354.52
467.05	352.28
467.42	350.19
467.78	348.02
468.15	345.96
468.52	344.48
468.88	342.30
469.25	340.49
469.62	339.18
469.98	337.57
470.35	336.06
470.72	334.80
471.08	332.98
471.45	331.79
471.82	330.56
472.18	329.09
472.55	328.22
472.92	326.96
473.28	325.81
473.65	324.70
474.02	323.65
474.38	323.01
474.75	322.30
475.11	321.50
475.48	320.90
475.85	320.35
476.21	319.65
476.58	319.27
476.94	318.92
477.31	318.32
477.67	317.95
478.04	317.72
478.41	317.42
478.77	317.80
479.14	317.48
479.50	317.43
479.87	317.57
480.23	317.57
480.60	317.51
480.96	317.50
481.33	317.99
481.69	318.20
482.06	318.43
482.42	318.72
482.79	319.11
483.15	319.45
483.52	320.11
483.88	320.55
484.25	321.09
484.61	321.69
484.98	322.52
485.34	323.41
485.71	324.44
486.07	325.38
486.44	325.99
486.80	327.20
487.17	328.28
487.53	329.59
487.90	330.99
488.26	332.71
488.62	334.46
488.99	335.96
489.35	337.65
489.72	339.48
490.08	341.37
490.44	343.30
490.81	345.59
491.17	347.64
491.54	350.10
491.90	352.62
492.26	355.33
492.63	358.04
492.99	360.89
493.36	363.87
493.72	367.16
494.08	370.52
494.45	374.05
494.81	377.88
495.17	381.76
495.54	385.87
495.90	389.96
496.26	394.24
496.63	398.70
496.99	403.48
497.35	408.53
497.72	413.81
498.08	419.20
498.44	424.60
498.80	430.67
499.17	436.71
499.53	442.98
499.89	449.36
500.26	455.99
500.62	462.78
500.98	470.07
501.34	477.44
501.71	484.96
502.07	492.91
502.43	500.89
502.79	509.06
503.16	517.67
503.52	526.61
503.88	535.76
504.24	545.43
504.60	555.35
504.97	565.33
505.33	575.54
505.69	586.45
506.05	597.28
506.41	608.25
506.78	619.61
507.14	631.51
507.50	643.70
507.86	656.14
508.22	668.90
508.59	681.63
508.95	694.96
509.31	708.93
509.67	722.90
510.03	736.95
510.39	751.33
510.75	766.01
511.12	781.01
511.48	796.23
511.84	811.54
512.20	827.05
512.56	843.05
512.92	859.39
513.28	875.75
513.64	892.73
514.00	909.81
514.37	927.38
514.73	944.96
515.09	962.81
515.45	980.73
515.81	998.79
516.17	1017.25
516.53	1035.48
516.89	1053.79
517.25	1072.40
517.61	1092.18
517.97	1111.89
518.33	1131.33
518.69	1150.91
519.05	1170.96
519.41	1191.01
519.77	1211.55
520.13	1231.54
520.49	1251.43
520.85	1271.83
521.21	1292.49
521.57	1313.12
521.93	1333.12
522.29	1353.59
522.65	1373.21
523.01	1393.54
523.37	1413.43
523.73	1433.60
524.09	1453.36
524.45	1473.28
524.81	1493.60
525.17	1513.34
525.53	1533.27
525.89	1553.60
526.25	1573.62
526.61	1593.05
526.97	1613.23
527.33	1633.51
527.68	1654.45
528.04	1675.10
528.40	1695.17
528.76	1715.11
529.12	1734.88
529.48	1755.00
529.84	1774.01
530.20	1794.58
530.56	1814.11
530.91	1834.16
531.27	1853.65
531.63	1873.15
531.99	1892.82
532.35	1911.75
532.71	1930.91
533.07	1950.23
533.42	1968.96
533.78	1987.55
534.14	2006.59
534.50	2024.82
534.86	2042.88
535.21	2059.42
535.57	2076.97
535.93	2093.76
536.29	2110.55
536.65	2127.63
537.00	2144.15
537.36	2160.74
537.72	2176.11
538.08	2192.54
538.44	2208.35
538.79	2223.75
539.15	2239.49
539.51	2254.62
539.87	2268.86
540.22	2281.77
540.58	2295.49
540.94	2307.86
541.29	2319.91
541.65	2331.50
542.01	2342.83
542.37	2352.68
542.72	2363.04
543.08	2372.47
543.44	2383.25
543.79	2392.22
544.15	2401.02
544.51	2410.13
544.87	2418.99
545.22	2426.99
545.58	2434.10
545.94	2440.40
546.29	2446.25
546.65	2451.71
547.01	2456.49
547.36	2461.46
547.72	2466.49
548.07	2469.55
548.43	2474.07
548.79	2477.95
549.14	2481.64
549.50	2484.92
549.86	2487.99
550.21	2490.99
550.57	2494.07
550.92	2494.60
551.28	2495.35
551.64	2496.94
551.99	2498.19
552.35	2499.15
552.70	2500.51
553.06	2501.57
553.41	2502.23
553.77	2503.33
554.13	2504.28
554.48	2505.26
554.84	2505.80
555.19	2506.55
555.55	2507.95
555.90	2506.69
556.26	2505.57
556.61	2503.56
556.97	2500.84
557.32	2499.99
557.68	2498.73
558.03	2496.84
558.39	2494.97
558.74	2493.81
559.10	2490.33
559.45	2485.93
559.81	2481.28
560.16	2476.01
560.52	2470.67
560.87	2466.06
561.23	2460.27
561.58	2454.15
561.94	2446.96
562.29	2439.50
562.64	2432.28
563.00	2423.82
563.35	2417.09
563.71	2410.15
564.06	2403.55
564.42	2396.99
564.77	2389.64
565.12	2382.00
565.48	2374.10
565.83	2366.42
566.19	2358.58
566.54	2350.58
566.89	2343.10
567.25	2335.66
567.60	2328.63
567.96	2321.03
568.31	2313.00
568.66	2304.41
569.02	2295.71
569.37	2287.54
569.72	2280.11
570.08	2270.78
570.43	2261.54
570.78	2252.77
571.14	2243.69
571.49	2233.42
571.84	2224.03
572.20	2213.56
572.55	2203.30
572.90	2192.89
573.26	2182.82
573.61	2171.75
573.96	2160.86
574.31	2148.93
574.67	2137.14
575.02	2124.83
575.37	2112.72
575.72	2099.95
576.08	2088.42
576.43	2076.25
576.78	2063.50
577.13	2050.40
577.49	2038.24
577.84	2026.51
578.19	2014.79
578.54	2002.80
578.90	1991.54
579.25	1979.90
579.60	1967.91
579.95	1955.46
580.30	1942.60
580.66	1929.91
581.01	1917.10
581.36	1903.98
581.71	1892.04
582.06	1879.75
582.42	1867.56
582.77	1855.32
583.12	1843.80
583.47	1832.14
583.82	1820.69
584.17	1809.22
584.53	1797.86
584.88	1785.45
585.23	1773.03
585.58	1759.41
585.93	1746.17
586.28	1733.20
586.63	1719.64
586.98	1706.23
587.34	1693.75
587.69	1681.04
588.04	1668.91
588.39	1657.32
588.74	1645.60
589.09	1633.96
589.44	1621.94
589.79	1610.27
590.14	1598.70
590.49	1587.15
590.84	1575.42
591.19	1564.04
591.54	1552.14
591.89	1540.50
592.25	1530.92
592.60	1520.16
592.95	1509.22
593.30	1498.25
593.65	1487.07
594.00	1475.87
594.35	1466.52
594.70	1455.09
595.05	1444.50
595.40	1433.08
595.75	1421.71
596.10	1411.16
596.45	1400.26
596.80	1389.76
597.15	1379.06
597.50	1368.13
597.85	1357.51
598.19	1346.81
598.54	1335.64
598.89	1325.52
599.24	1315.56
599.59	1304.65
599.94	1294.34
600.29	1284.57
600.64	1274.82
600.99	1264.76
601.34	1255.74
601.69	1245.10
602.04	1236.14
602.39	1226.93
602.74	1218.17
603.08	1209.44
603.43	1200.55
603.78	1191.38
604.13	1182.59
604.48	1173.49
604.83	1164.42
605.18	1155.00
605.53	1145.90
605.87	1137.21
606.22	1129.01
606.57	1120.46
606.92	1111.48
607.27	1103.25
607.62	1095.10
607.96	1087.28
608.31	1080.15
608.66	1072.13
609.01	1064.24
609.36	1056.20
609.70	1048.38
610.05	1040.44
610.40	1032.81
610.75	1024.89
611.10	1017.32
611.44	1009.05
611.79	1001.43
612.14	993.96
612.49	986.73
612.83	979.66
613.18	972.32
613.53	965.01
613.88	957.33
614.22	950.20
614.57	942.54
614.92	935.18
615.27	927.88
615.61	920.29
615.96	913.25
616.31	906.16
616.65	899.40
617.00	892.54
617.35	885.65
617.70	878.55
618.04	871.69
618.39	864.86
618.74	858.88
619.08	852.45
619.43	846.02
619.78	839.43
620.12	832.55
620.47	826.27
620.82	819.47
621.16	813.08
621.51	807.00
621.85	801.00
622.20	794.80
622.55	788.54
622.89	782.59
623.24	776.55
623.59	770.54
623.93	764.60
624.28	758.72
624.62	753.44
624.97	748.15
625.32	742.90
625.66	737.51
626.01	731.68
626.35	726.47
626.70	721.16
627.04	716.21
627.39	711.41
627.73	706.47
628.08	701.71
628.43	696.66
628.77	691.55
629.12	686.63
629.46	682.27
629.81	677.96
630.15	673.45
630.50	668.93
630.84	664.40
631.19	660.03
631.53	655.70
631.88	650.75
632.22	646.00
632.57	641.64
632.91	637.34
633.26	633.36
633.60	628.86
633.95	624.55
634.29	620.14
634.64	615.78
634.98	611.20
635.32	607.09
635.67	603.25
636.01	599.40
636.36	595.35
636.70	591.24
637.05	587.17
637.39	583.30
637.73	579.40
638.08	575.77
638.42	571.70
638.77	567.71
639.11	563.66
639.45	559.60
639.80	555.42
640.14	551.58
640.49	547.68
640.83	544.16
641.17	540.66
641.52	537.21
641.86	533.83
642.20	531.05
642.55	527.59
642.89	524.21
643.23	520.90
643.58	518.08
643.92	514.77
644.26	511.58
644.61	508.57
644.95	505.40
645.29	502.11
645.64	499.19
645.98	496.22
646.32	493.49
646.66	490.81
647.01	488.17
647.35	485.62
647.69	482.94
648.04	480.35
648.38	477.67
648.72	474.94
649.06	472.13
649.41	469.13
649.75	466.49
650.09	463.86
650.43	461.04
650.78	458.09
651.12	455.39
651.46	452.88
651.80	450.11
652.14	447.65
652.49	445.33
652.83	442.85
653.17	440.36
653.51	437.82
653.85	435.36
654.20	432.91
654.54	430.37
654.88	427.93
655.22	425.72
655.56	423.42
655.90	421.20
656.25	419.08
656.59	416.94
656.93	414.82
657.27	412.81
657.61	410.71
657.95	408.72
658.29	406.82
658.64	404.73
658.98	402.71
659.32	400.57
659.66	398.52
660.00	396.50
660.34	394.56
660.68	392.71
661.02	390.88
661.36	389.01
661.70	387.06
662.05	385.22
662.39	383.36
662.73	381.70
663.07	380.27
663.41	378.54
663.75	376.69
664.09	374.89
664.43	373.05
664.77	371.52
665.11	369.71
665.45	368.13
665.79	366.67
666.13	365.05
666.47	363.51
666.81	361.88
667.15	360.24
667.49	358.91
667.83	357.60
668.17	356.13
668.51	354.80
668.85	353.53
669.19	352.48
669.53	351.00
669.87	349.50
670.21	347.86
670.55	346.44
670.89	345.39
671.23	344.11
671.57	342.84
671.91	341.46
672.25	340.31
672.58	339.02
672.92	337.54
673.26	336.39
673.60	335.15
673.94	334.10
674.28	333.07
674.62	331.90
674.96	330.59
675.30	329.44
675.64	328.37
675.97	327.22
676.31	325.95
676.65	324.81
676.99	323.97
677.33	322.84
677.67	321.96
678.01	320.78
678.34	319.76
678.68	318.84
679.02	317.85
679.36	316.89
679.70	315.83
680.04	315.00
680.37	314.01
680.71	313.09
681.05	312.23
681.39	311.35
681.73	310.40
682.06	309.53
682.40	308.68
682.74	307.83
683.08	307.17
683.42	306.29
683.75	305.58
684.09	304.58
684.43	303.83
684.77	302.95
685.10	302.21
685.44	301.45
685.78	300.66
686.12	299.87
686.45	299.08
686.79	298.35
687.13	297.68
687.46	296.99
687.80	296.44
688.14	295.60
688.48	294.94
688.81	294.24
689.15	293.71
689.49	293.06
689.82	292.41
690.16	291.54
690.50	290.95
690.83	290.23
691.17	289.48
691.51	288.75
691.84	288.13
692.18	287.43
692.52	286.80
692.85	286.25
693.19	285.91
693.52	285.37
693.86	284.74
694.20	284.18
694.53	283.59
694.87	282.94
695.21	282.33
695.54	281.75
695.88	281.14
696.21	280.47
696.55	280.00
696.88	279.48
697.22	278.95
697.56	278.43
697.89	277.84
698.23	277.44
698.56	277.04
698.90	276.63
699.23	276.14
699.57	275.66
699.90	275.12
700.24	274.46
700.58	274.02
700.91	273.68
701.25	273.55
701.58	273.55
701.92	273.20
702.25	272.89
702.59	272.40
702.92	272.15
703.26	271.80
703.59	271.33
703.93	271.22
704.26	270.83
704.60	270.45
704.93	270.06
705.26	269.55
705.60	269.14
705.93	268.57
706.27	268.28
706.60	267.99
706.94	267.77
707.27	267.37
707.61	267.05
707.94	266.63
708.27	265.82
708.61	265.01
708.94	264.57
709.28	264.12
709.61	263.71
709.94	263.24
710.28	262.82
710.61	262.46
710.95	261.75
711.28	261.70
711.61	261.22
711.95	260.98
712.28	260.63
712.61	260.25
712.95	260.18
713.28	259.99
713.61	259.57
713.95	259.04
714.28	258.73
714.61	258.30
714.95	257.95
715.28	257.63
715.61	257.24
715.95	256.83
716.28	256.48
716.61	256.35
716.95	255.96
717.28	255.72
717.61	255.40
717.94	255.05
718.28	254.47
718.61	254.20
718.94	253.84
719.27	253.61
719.61	253.40
719.94	253.01
720.27	252.48
720.60	252.21
720.94	251.98
721.27	251.74
721.60	251.59
721.93	251.34
722.27	251.27
722.60	251.16
722.93	251.02
723.26	250.79
723.59	250.42
723.93	250.26
724.26	250.00
724.59	249.70
724.92	249.51
725.25	249.40
725.59	249.20
725.92	249.07
726.25	248.90
726.58	248.73
726.91	248.49
727.24	248.38
727.57	248.22
727.91	247.85
728.24	247.65
728.57	247.34
728.90	247.25
729.23	246.89
729.56	246.98
729.89	246.76
730.22	246.56
730.55	246.39
730.89	246.30
731.22	246.10
731.55	245.99
731.88	245.85
732.21	245.60
732.54	245.37
732.87	245.22
733.20	245.05
733.53	244.92
733.86	244.84
734.19	244.64
734.52	244.57
734.85	244.95
735.18	244.74
735.51	244.83
735.84	244.67
736.17	244.68
736.50	244.25
736.83	244.68
737.16	244.63
737.49	244.51
737.82	244.31
738.15	244.34
738.48	244.18
738.81	244.00
739.14	243.87
739.47	243.73
739.80	243.59
740.13	243.58
740.46	243.39
740.79	243.19
741.12	243.09
741.45	242.81
741.78	242.36
742.11	242.41
742.44	242.16
742.77	242.12
743.10	241.92
743.43	241.72
743.75	240.94
744.08	241.49
744.41	241.28
744.74	241.13
745.07	240.83
745.40	240.76
745.73	240.85
746.06	240.78
746.39	240.77
746.71	240.59
747.04	240.33
747.37	240.16
747.70	240.16
748.03	240.02
748.36	239.96
748.68	239.77
749.01	239.51
749.34	239.35
749.67	239.20
750.00	239.05
750.33	239.37
750.65	239.43
750.98	238.59
751.31	238.55
751.64	238.51
751.97	238.64
752.29	238.58
752.62	238.24
752.95	238.06
753.28	237.92
753.60	237.75
753.93	237.76
754.26	237.71
754.59	237.43
754.91	237.29
755.24	237.20
755.57	237.19
755.90	237.07
756.22	236.93
756.55	236.72
756.88	236.56
757.20	236.12
757.53	235.87
757.86	235.77
758.19	235.67
758.51	235.49
758.84	235.17
759.17	234.97
759.49	234.94
759.82	235.03
760.15	234.92
760.47	234.83
760.80	234.58
761.13	234.59
761.45	234.50
761.78	234.42
762.11	234.31
762.43	234.10
762.76	234.03
763.08	234.04
763.41	234.00
763.74	234.02
764.06	233.94
764.39	233.89
764.71	233.82
765.04	233.68
765.37	233.61
765.69	233.52
766.02	233.47
766.34	233.31
766.67	233.08
767.00	233.07
767.32	233.30
767.65	233.49
767.97	233.37
768.30	233.34
768.62	233.27
768.95	233.19
769.27	233.12
769.60	233.12
769.92	232.91
770.25	232.80
770.57	232.65
770.90	232.52
771.22	232.39
771.55	232.33
771.87	232.31
772.20	232.22
772.52	232.60
772.85	233.12
773.17	233.14
773.50	233.05
773.82	233.05
774.15	232.76
774.47	232.49
774.80	232.40
775.12	232.29
775.45	232.25
775.77	232.27
776.09	232.31
776.42	232.23
776.74	232.43
777.07	232.35
777.39	232.30
777.72	232.25
778.04	232.35
778.36	232.26
778.69	232.23
779.01	232.29
779.33	231.80
779.66	231.20
779.98	231.06
780.31	231.05
780.63	231.12
780.95	231.19
781.28	231.15
781.60	231.07
781.92	231.08
782.25	231.05
782.57	230.99
782.89	230.88
783.22	230.86
783.54	230.60
783.86	230.62
784.19	230.60
784.51	230.72
784.83	230.54
785.16	230.50
785.48	230.50
785.80	230.45
786.12	230.41
786.45	230.38
786.77	230.40
787.09	230.37
787.42	230.17
787.74	230.13
788.06	230.07
788.38	230.07
788.71	230.07
789.03	230.06
789.35	230.11
789.67	230.02
789.99	229.99
790.32	230.01
790.64	230.04
790.96	230.42
791.28	230.19
791.61	230.23
791.93	230.26
792.25	230.18
792.57	230.45
792.89	230.36
793.21	230.35
793.54	230.31
793.86	230.17
794.18	230.11
794.50	230.00
794.82	229.98
795.14	229.95
795.47	229.98
795.79	229.93
796.11	229.83
796.43	229.90
796.75	229.90
797.07	229.94
797.39	229.89
797.71	229.50
798.04	229.55
798.36	229.53
798.68	229.49
799.00	229.52
799.32	229.28
799.64	229.34
799.96	229.25
800.28	229.30
800.60	229.32
800.92	229.38
801.24	229.37
801.56	229.44
801.89	229.41
802.21	229.44
802.53	229.35
802.85	229.38
803.17	229.50
803.49	229.35
803.81	229.22
804.13	229.12
804.45	229.11
804.77	229.15
805.09	229.14
805.41	229.13
805.73	229.00
806.05	228.81
806.37	228.78
806.69	228.74
807.01	228.72
807.33	228.74
807.65	228.58
807.97	228.74
808.28	228.69
808.60	228.62
808.92	228.51
809.24	228.76
809.56	228.68
809.88	228.50
810.20	228.55
810.52	228.59
810.84	228.53
811.16	228.39
811.48	228.37
811.80	228.45
812.12	228.34
812.43	228.44
812.75	228.47
813.07	228.44
813.39	228.48
813.71	228.33
814.03	228.30
814.35	228.32
814.67	228.12
814.98	227.98
815.30	227.99
815.62	227.86
815.94	227.53
816.26	227.74
816.58	227.65
816.89	227.68
817.21	227.59
817.53	227.68
817.85	227.70
818.17	227.63
818.48	227.46
818.80	227.52
819.12	227.41
819.44	227.36
819.76	227.32
820.07	227.34
820.39	227.41
820.71	227.41
821.03	227.38
821.34	227.33
821.66	227.35
821.98	227.40
822.30	227.43
822.61	227.73
822.93	227.41
823.25	227.37
823.57	227.35
823.88	227.47
824.20	227.46
824.52	227.57
824.83	227.52
825.15	227.51
825.47	227.49
825.79	227.55
826.10	227.54
826.42	227.54
826.74	227.57
827.05	227.53
827.37	227.57
827.69	227.51
828.00	227.57
828.32	227.64
828.64	227.57
828.95	227.85
829.27	227.77
829.58	227.82
829.90	227.90
830.22	227.91
830.53	227.80
830.85	227.75
831.17	227.65
831.48	227.69
831.80	227.66
832.11	227.69
832.43	227.66
832.75	227.66
833.06	227.91
833.38	227.75
833.69	227.75
834.01	227.78
834.32	227.78
834.64	227.68
834.96	227.70
835.27	227.67
835.59	227.40
835.90	227.33
836.22	227.31
836.53	227.20
836.85	227.19
837.16	227.66
837.48	227.62
837.79	227.72
838.11	227.79
838.42	227.80
838.74	227.85
839.05	227.79
839.37	227.79
839.68	227.47
840.00	227.44
840.31	227.57
840.63	227.48
840.94	227.47
841.26	227.43
841.57	227.37
841.88	227.41
842.20	227.36
842.51	227.18
842.83	227.23
843.14	227.64
843.46	227.56
843.77	227.28
844.08	227.27
844.40	227.20
844.71	227.10
845.03	227.15
845.34	227.01
845.65	226.99
845.97	226.96
846.28	227.02
846.60	227.04
846.91	226.93
847.22	226.86
847.54	226.94
847.85	226.97
848.16	226.97
848.48	226.92
848.79	227.18
849.10	227.34
849.42	227.34
849.73	226.97
850.04	226.94
850.36	226.83
850.67	226.85
850.98	226.75
851.30	226.80
851.61	226.68
851.92	226.74
852.23	226.88
852.55	226.83
852.86	226.82
853.17	226.93
853.49	226.97
853.80	227.04
854.11	227.05
854.42	227.08
854.74	227.00
855.05	226.96
855.36	226.71
855.67	226.68
855.99	226.67
856.30	227.16
856.61	227.19
856.92	227.12
857.23	227.19
857.55	227.15
857.86	227.06
858.17	227.12
858.48	227.01
858.79	226.91
859.11	227.01
859.42	226.95
859.73	226.84
860.04	226.78
860.35	226.66
860.66	226.53
860.98	226.54
861.29	226.56
861.60	226.54
861.91	226.66
862.22	226.54
862.53	226.45
862.84	225.93
863.16	226.01
863.47	225.90
863.78	225.80
864.09	225.91
864.40	225.99
864.71	225.99
865.02	226.05
865.33	226.05
865.64	225.96
865.95	226.02
866.27	226.35
866.58	226.31
866.89	226.36
867.20	226.36
867.51	226.31
867.82	226.32
868.13	226.46
868.44	226.30
868.75	226.45
869.06	226.47
869.37	226.47
869.68	226.32
869.99	226.46
870.30	226.51
870.61	226.58
870.92	226.46
871.23	226.43
871.54	226.52
871.85	226.63
872.16	226.73
872.47	226.68
872.78	226.30
873.09	226.43
873.40	226.45
873.71	226.50
874.02	226.54
874.33	226.51
874.64	226.42
874.95	226.51
875.26	226.37
875.56	226.36
875.87	226.36
876.18	226.37
876.49	226.83
876.80	226.77
877.11	226.65
877.42	226.73
877.73	226.78
878.04	226.65
878.35	226.63
878.66	226.63
878.96	226.65
879.27	226.67
879.58	226.62
879.89	226.62
880.20	226.79
880.51	226.68
880.82	226.69
881.12	226.68
881.43	226.57
881.74	226.52
882.05	226.47
882.36	226.52
882.67	226.59
882.97	226.04
883.28	226.00
883.59	226.00
883.90	226.00
884.21	226.07
884.51	226.07
884.82	225.98
885.13	225.91
885.44	225.94
885.74	225.96
886.05	225.91
886.36	225.83
886.67	225.58
886.98	225.87
887.28	225.88
887.59	225.90
887.90	225.91
888.20	225.92
888.51	226.06
888.82	226.03
889.13	226.01
889.43	226.45
889.74	226.37
890.05	226.34
890.35	226.28
890.66	226.16
890.97	226.07
891.28	226.05
891.58	226.03
891.89	225.95
892.20	225.97
892.50	225.95
892.81	225.92
893.12	225.92
893.42	225.66
893.73	225.69
894.04	225.65
894.34	225.67
894.65	225.61
894.95	225.52
895.26	225.50
895.57	225.66
895.87	225.20
896.18	225.33
896.48	225.37
896.79	225.40
897.10	225.43
897.40	225.47
897.71	225.52
898.01	225.49
898.32	225.55
898.63	225.48
898.93	225.52
899.24	225.56
899.54	225.56
899.85	225.59
900.15	225.55
900.46	225.55
900.76	225.60
901.07	225.68
901.38	225.68
901.68	225.72
901.99	225.52
902.29	225.58
902.60	225.59
902.90	225.56
903.21	225.51
903.51	225.48
903.82	225.62
904.12	225.60
904.43	225.68
904.73	225.71
905.03	225.72
905.34	226.15
905.64	226.15
905.95	226.16
906.25	226.13
906.56	226.13
906.86	226.12
907.17	226.12
907.47	226.10
907.77	226.01
908.08	225.90
908.38	225.90
908.69	225.93
908.99	225.96
909.30	226.00
909.60	226.05
909.90	226.14
910.21	226.02
910.51	226.00
910.81	226.05
911.12	226.00
911.42	226.00
911.73	225.55
912.03	225.57
912.33	225.73
912.64	225.78
912.94	225.73
913.24	225.73
913.55	225.70
913.85	225.72
914.15	225.87
914.46	226.06
914.76	226.08
915.06	226.07
915.37	225.96
915.67	225.93
915.97	225.95
916.27	225.83
916.58	225.88
916.88	225.86
917.18	225.76
917.49	226.10
917.79	226.14
918.09	226.20
918.39	226.38
918.70	226.29
919.00	226.23
919.30	226.49
919.60	226.47
919.91	226.42
920.21	226.45
920.51	226.33
920.81	226.22
921.12	226.29
921.42	226.22
921.72	226.24
922.02	226.28
922.32	226.21
922.63	226.31
922.93	226.51
923.23	226.49
923.53	226.46
923.83	226.11
924.13	226.18
924.44	226.17
924.74	226.22
925.04	226.38
925.34	226.38
925.64	226.10
925.94	226.08
926.24	226.35
926.55	226.29
926.85	226.35
927.15	226.33
927.45	226.35
927.75	226.43
928.05	226.47
928.35	226.45
928.65	226.68
928.95	226.64
929.26	226.42
929.56	226.56
929.86	226.62
930.16	226.66
930.46	226.65
930.76	226.63
931.06	226.33
931.36	226.12
931.66	226.20
931.96	226.25
932.26	226.26
932.56	226.06
932.86	226.07
933.16	226.09
933.46	226.04
933.76	225.89
934.06	225.96
934.36	226.11
934.66	226.09
934.96	225.94
935.26	226.07
935.56	226.15
935.86	226.04
936.16	225.97
936.46	225.88
936.76	225.80
937.06	225.74
937.36	225.83
937.66	225.90
937.96	225.83
938.26	225.82
938.56	225.79
938.86	225.79
939.16	225.90
939.46	225.98
939.76	225.99
940.06	226.01
940.35	225.93
940.65	225.71
940.95	225.69
941.25	225.61
941.55	225.44
941.85	225.38
942.15	225.48
942.45	225.65
942.75	225.65
943.04	225.70
943.34	225.84
943.64	225.72
943.94	225.69
944.24	225.74
944.54	225.74
944.84	225.80
945.13	225.75
945.43	225.70
945.73	225.65
946.03	225.68
946.33	225.67
946.62	225.71
946.92	225.70
947.22	225.77
947.52	225.84
947.82	225.91
948.11	225.95
948.41	225.82
948.71	225.68
949.01	225.68
949.31	225.61
949.60	225.50
949.90	225.62
950.20	225.57
950.50	225.59
950.79	225.57
951.09	225.66
951.39	225.67
951.69	225.60
951.98	225.67
952.28	225.65
952.58	225.60
952.87	225.50
953.17	225.55
953.47	225.50
953.76	225.53
954.06	225.50
954.36	225.33
954.66	225.37
954.95	225.53
955.25	225.61
955.55	225.65
955.84	225.62
956.14	225.67
956.44	225.66
956.73	225.58
957.03	225.62
957.32	225.55
957.62	225.59
957.92	225.68
958.21	225.67
958.51	226.27
958.81	226.37
959.10	226.43
959.40	226.51
959.69	226.59
959.99	226.60
960.29	226.59
960.58	226.64
960.88	226.79
961.17	226.70
961.47	226.77
961.76	226.75
962.06	226.81
962.36	226.76
962.65	226.86
962.95	226.91
963.24	226.85
963.54	226.85
963.83	226.87
964.13	226.80
964.42	226.69
964.72	226.24
965.01	226.24
965.31	226.23
965.60	226.15
965.90	226.40
966.19	226.36
966.49	226.35
966.78	226.31
967.08	226.30
967.37	226.23
967.67	226.06
967.96	226.13
968.26	226.14
968.55	226.21
968.85	226.20
969.14	226.20
969.43	226.21
969.73	226.14
970.02	226.07
970.32	226.06
970.61	226.01
970.91	225.95
971.20	225.86
971.49	225.81
971.79	225.85
972.08	225.55
972.38	225.48
972.67	225.49
972.96	225.61
973.26	225.49
973.55	225.63
973.85	225.66
974.14	225.58
974.43	225.58
974.73	225.48
975.02	225.42
975.31	225.50
975.61	225.50
975.90	225.48
976.19	225.43
976.49	225.44
976.78	225.45
977.07	225.38
977.37	225.47
977.66	225.52
977.95	225.46
978.24	225.49
978.54	225.63
978.83	225.66
979.12	225.65
979.42	225.64
979.71	225.61
980.00	225.61
980.29	225.60
980.59	225.52
980.88	225.68
981.17	225.63
981.46	225.52
981.76	225.55
982.05	225.69
982.34	225.77
982.63	225.81
982.93	225.83
983.22	226.01
983.51	226.01
983.80	226.05
984.09	226.14
984.39	226.10
984.68	226.02
984.97	225.99
985.26	225.82
985.55	225.89
985.85	225.69
986.14	225.78
986.43	225.90
986.72	225.86
987.01	225.70
987.30	225.77
987.59	225.75
987.89	225.75
988.18	225.65
988.47	225.64
988.76	225.61
989.05	225.60
989.34	225.51
989.63	225.60
989.92	225.58
990.22	225.47
990.51	225.46
990.80	225.39
991.09	225.42
991.38	225.58
991.67	225.51
991.96	225.57
992.25	225.50
992.54	225.36
992.83	225.40
993.12	225.33
993.41	225.31
993.70	225.52
993.99	225.59
994.28	225.64
994.58	225.70
994.87	225.64
995.16	225.60
995.45	225.54
995.74	225.36
996.03	225.44
996.32	225.55
996.61	225.66
996.90	225.69
997.19	225.66
997.48	225.70
997.77	225.70
998.06	225.71
998.34	225.73
998.63	225.80
998.92	225.77
999.21	225.88
999.50	226.00
999.79	225.82
1000.08	225.74
1000.37	225.76
1000.66	225.67
1000.95	225.78
1001.24	225.82
1001.53	225.84
1001.82	225.84
1002.11	225.71
1002.40	225.77
1002.68	225.89
1002.97	226.21
1003.26	226.17
1003.55	225.96
1003.84	226.00
1004.13	226.18
1004.42	226.15
1004.71	226.09
1004.99	226.03
1005.28	226.13
1005.57	226.03
1005.86	225.99
1006.15	226.01
1006.44	225.91
1006.72	225.98
1007.01	225.91
1007.30	225.89
1007.59	225.90
1007.88	225.85
1008.17	225.88
1008.45	225.77
1008.74	225.51
1009.03	225.24
1009.32	225.25
1009.60	225.34
1009.89	225.26
1010.18	225.03
1010.47	224.99
1010.76	225.09
1011.04	225.21
1011.33	225.19
1011.62	225.27
1011.91	225.33
1012.19	225.35
1012.48	225.38
1012.77	225.40
1013.05	225.59
1013.34	225.65
1013.63	225.64
1013.92	225.74
1014.20	225.66
1014.49	225.66
1014.78	225.75
1015.06	225.58
1015.35	225.62
1015.64	225.72
1015.92	225.81
1016.21	225.89
1016.50	225.94
1016.78	225.99
1017.07	226.02
1017.36	225.98
1017.64	225.88
1017.93	225.95
1018.22	225.96
1018.50	225.95
1018.79	225.87
1019.08	225.69
1019.36	225.75
1019.65	225.72
1019.93	225.81
1020.22	225.94
1020.51	226.15
1020.79	226.08
1021.08	226.20
1021.36	224.75
1021.65	225.20
1021.94	225.45
1022.22	227.00
1022.51	225.35
1022.79	227.40
1023.08	226.65
1023.36	230.55
1023.65	224.80
>>>>>End Processed Spectral Data<<<<<
