SpectraSuite Data File
++++++++++++++++++++++++++++++++++++
Date: Wed Sep 04 18:03:15 EDT 2013
User: lab3
Dark Spectrum Present: Yes
Reference Spectrum Present: No
Number of Sampled Component Spectra: 1
Spectrometers: USB2E7196
Integration Time (usec): 170000 (USB2E7196)
Spectra Averaged: 20 (USB2E7196)
Boxcar Smoothing: 10 (USB2E7196)
Correct for Electrical Dark: No (USB2E7196)
Strobe/Lamp Enabled: No (USB2E7196)
Correct for Detector Non-linearity: No (USB2E7196)
Correct for Stray Light: No (USB2E7196)
Number of Pixels in Processed Spectrum: 2048
>>>>>Begin Processed Spectral Data<<<<<
339.09	0.00
339.48	214.35
339.86	214.40
340.24	215.60
340.63	218.60
341.01	226.25
341.39	221.05
341.78	223.45
342.16	224.45
342.54	223.40
342.93	212.80
343.31	223.51
343.69	224.09
344.07	224.53
344.46	225.07
344.84	225.52
345.22	225.47
345.60	225.69
345.99	225.77
346.37	225.83
346.75	225.88
347.13	225.96
347.52	226.08
347.90	226.30
348.28	226.31
348.66	226.51
349.05	226.32
349.43	226.43
349.81	226.46
350.19	226.49
350.57	226.49
350.96	226.57
351.34	226.64
351.72	226.65
352.10	226.85
352.48	226.89
352.87	226.80
353.25	226.88
353.63	226.96
354.01	227.03
354.39	227.18
354.77	227.33
355.15	227.50
355.54	227.52
355.92	227.43
356.30	227.60
356.68	227.95
357.06	228.05
357.44	227.98
357.82	228.02
358.20	228.45
358.58	228.57
358.97	228.65
359.35	228.83
359.73	228.98
360.11	228.99
360.49	228.98
360.87	229.05
361.25	229.19
361.63	229.40
362.01	229.52
362.39	229.53
362.77	229.57
363.15	229.61
363.53	229.61
363.91	229.71
364.29	229.65
364.67	229.22
365.05	229.27
365.43	229.43
365.81	229.57
366.19	229.49
366.57	229.66
366.95	229.64
367.33	229.52
367.71	229.47
368.09	229.55
368.47	229.65
368.85	229.72
369.23	229.79
369.61	229.60
369.99	229.75
370.37	229.77
370.75	230.03
371.13	229.99
371.51	229.95
371.89	229.89
372.27	229.93
372.65	229.93
373.03	229.98
373.41	229.88
373.78	229.76
374.16	229.50
374.54	229.30
374.92	229.25
375.30	229.25
375.68	229.17
376.06	229.14
376.44	229.03
376.82	228.95
377.19	228.86
377.57	228.77
377.95	228.54
378.33	228.46
378.71	228.09
379.09	228.07
379.47	228.03
379.84	227.96
380.22	227.85
380.60	227.72
380.98	227.55
381.36	227.48
381.73	227.41
382.11	227.38
382.49	227.34
382.87	227.19
383.25	227.10
383.62	227.53
384.00	227.32
384.38	227.27
384.76	227.40
385.13	227.53
385.51	227.51
385.89	227.42
386.27	227.36
386.64	227.34
387.02	227.22
387.40	227.18
387.78	227.21
388.15	227.23
388.53	227.20
388.91	227.14
389.29	227.13
389.66	227.20
390.04	227.11
390.42	227.17
390.79	227.17
391.17	227.15
391.55	226.61
391.92	226.68
392.30	226.75
392.68	226.60
393.05	226.52
393.43	226.52
393.81	226.53
394.18	226.48
394.56	226.52
394.94	226.59
395.31	226.62
395.69	226.75
396.06	226.84
396.44	226.88
396.82	226.86
397.19	227.09
397.57	227.09
397.95	227.24
398.32	227.18
398.70	227.31
399.07	227.52
399.45	227.60
399.82	227.57
400.20	227.59
400.58	227.67
400.95	227.64
401.33	227.86
401.70	228.36
402.08	228.48
402.45	228.64
402.83	228.89
403.20	228.99
403.58	229.04
403.95	229.31
404.33	229.62
404.71	229.84
405.08	230.30
405.46	230.47
405.83	230.74
406.21	231.02
406.58	231.35
406.96	231.55
407.33	231.94
407.70	232.45
408.08	233.17
408.45	233.63
408.83	234.08
409.20	234.44
409.58	234.56
409.95	235.17
410.33	235.70
410.70	236.16
411.08	236.84
411.45	237.48
411.82	237.93
412.20	238.67
412.57	239.70
412.95	239.98
413.32	240.88
413.69	241.65
414.07	242.55
414.44	243.52
414.82	244.65
415.19	245.84
415.56	247.00
415.94	247.98
416.31	249.33
416.68	250.71
417.06	252.31
417.43	253.92
417.81	255.65
418.18	257.51
418.55	259.34
418.93	261.36
419.30	263.44
419.67	265.75
420.04	267.95
420.42	270.32
420.79	273.44
421.16	276.27
421.54	279.45
421.91	282.53
422.28	285.68
422.66	288.96
423.03	292.49
423.40	295.88
423.77	299.54
424.15	303.22
424.52	307.11
424.89	311.32
425.26	315.33
425.64	319.09
426.01	323.19
426.38	327.71
426.75	332.25
427.13	336.92
427.50	341.75
427.87	346.76
428.24	351.60
428.61	356.17
428.99	361.45
429.36	366.84
429.73	372.20
430.10	377.75
430.47	383.46
430.85	388.97
431.22	395.06
431.59	401.78
431.96	408.05
432.33	415.11
432.70	421.97
433.08	429.98
433.45	437.54
433.82	445.01
434.19	453.23
434.56	461.31
434.93	469.03
435.30	476.76
435.68	485.44
436.05	494.02
436.42	502.41
436.79	510.14
437.16	518.60
437.53	527.49
437.90	536.21
438.27	544.65
438.64	553.59
439.01	561.99
439.38	569.25
439.75	576.48
440.13	584.53
440.50	592.07
440.87	598.18
441.24	604.57
441.61	611.69
441.98	616.93
442.35	622.75
442.72	628.77
443.09	634.66
443.46	638.26
443.83	640.59
444.20	642.53
444.57	645.25
444.94	646.20
445.31	647.32
445.68	648.73
446.05	649.24
446.42	647.99
446.79	646.63
447.16	645.12
447.53	643.76
447.90	640.07
448.27	636.33
448.64	631.39
449.01	627.66
449.37	621.36
449.74	615.11
450.11	608.37
450.48	600.56
450.85	592.42
451.22	585.24
451.59	578.62
451.96	572.35
452.33	564.32
452.70	557.12
453.07	548.52
453.43	539.29
453.80	530.64
454.17	522.66
454.54	514.95
454.91	506.65
455.28	498.61
455.65	491.03
456.02	484.06
456.38	477.64
456.75	469.87
457.12	463.32
457.49	457.05
457.86	450.53
458.23	445.33
458.59	439.67
458.96	433.94
459.33	428.71
459.70	423.55
460.07	419.35
460.43	414.40
460.80	410.05
461.17	406.32
461.54	402.31
461.91	398.43
462.27	394.48
462.64	391.12
463.01	387.48
463.38	384.10
463.74	380.00
464.11	376.95
464.48	374.25
464.85	371.35
465.21	369.08
465.58	366.80
465.95	363.97
466.32	361.80
466.68	359.53
467.05	357.28
467.42	355.03
467.78	352.65
468.15	350.61
468.52	348.91
468.88	346.66
469.25	344.82
469.62	343.35
469.98	341.69
470.35	340.14
470.72	338.70
471.08	336.99
471.45	335.86
471.82	334.54
472.18	333.10
472.55	332.06
472.92	330.80
473.28	329.59
473.65	328.52
474.02	327.32
474.38	326.49
474.75	325.79
475.11	324.94
475.48	324.31
475.85	323.65
476.21	323.03
476.58	322.57
476.94	322.13
477.31	321.58
477.67	321.18
478.04	320.86
478.41	320.66
478.77	320.96
479.14	320.61
479.50	320.48
479.87	320.58
480.23	320.57
480.60	320.58
480.96	320.72
481.33	321.11
481.69	321.40
482.06	321.55
482.42	321.85
482.79	322.18
483.15	322.66
483.52	323.40
483.88	323.85
484.25	324.39
484.61	324.97
484.98	325.61
485.34	326.52
485.71	327.42
486.07	328.37
486.44	328.92
486.80	330.05
487.17	331.15
487.53	332.57
487.90	334.04
488.26	335.74
488.62	337.42
488.99	338.85
489.35	340.63
489.72	342.49
490.08	344.38
490.44	346.45
490.81	348.77
491.17	350.90
491.54	353.42
491.90	356.06
492.26	358.83
492.63	361.71
492.99	364.68
493.36	367.94
493.72	371.37
494.08	374.85
494.45	378.59
494.81	382.59
495.17	386.39
495.54	390.67
495.90	394.84
496.26	399.30
496.63	403.94
496.99	408.74
497.35	413.90
497.72	419.28
498.08	424.70
498.44	430.20
498.80	436.23
499.17	442.30
499.53	448.58
499.89	455.17
500.26	461.96
500.62	468.91
500.98	476.31
501.34	483.73
501.71	491.49
502.07	499.38
502.43	507.58
502.79	515.96
503.16	524.52
503.52	533.55
503.88	542.85
504.24	552.57
504.60	562.52
504.97	572.76
505.33	583.20
505.69	594.43
506.05	605.55
506.41	616.79
506.78	628.46
507.14	640.60
507.50	652.90
507.86	665.64
508.22	678.59
508.59	691.58
508.95	705.19
509.31	719.17
509.67	733.29
510.03	747.68
510.39	762.20
510.75	777.31
511.12	792.60
511.48	808.27
511.84	824.10
512.20	839.99
512.56	856.28
512.92	873.12
513.28	890.03
513.64	907.30
514.00	924.87
514.37	942.55
514.73	960.71
515.09	978.99
515.45	997.37
515.81	1015.88
516.17	1034.63
516.53	1053.53
516.89	1072.33
517.25	1092.04
517.61	1112.26
517.97	1132.86
518.33	1153.04
518.69	1173.60
519.05	1194.06
519.41	1214.96
519.77	1236.32
520.13	1257.00
520.49	1277.92
520.85	1300.19
521.21	1321.43
521.57	1342.88
521.93	1364.10
522.29	1385.21
522.65	1406.04
523.01	1427.13
523.37	1448.17
523.73	1469.36
524.09	1490.16
524.45	1511.10
524.81	1531.90
525.17	1552.55
525.53	1573.13
525.89	1594.19
526.25	1614.95
526.61	1635.66
526.97	1656.61
527.33	1677.75
527.68	1700.12
528.04	1721.15
528.40	1740.71
528.76	1761.82
529.12	1782.10
529.48	1802.76
529.84	1822.91
530.20	1844.31
530.56	1865.44
530.91	1886.21
531.27	1906.88
531.63	1927.50
531.99	1948.63
532.35	1968.83
532.71	1989.24
533.07	2010.15
533.42	2029.85
533.78	2049.67
534.14	2069.56
534.50	2088.80
534.86	2108.22
535.21	2125.82
535.57	2144.45
535.93	2162.48
536.29	2180.18
536.65	2198.47
537.00	2216.12
537.36	2233.90
537.72	2250.51
538.08	2267.66
538.44	2284.69
538.79	2301.14
539.15	2317.54
539.51	2333.52
539.87	2348.58
540.22	2362.74
540.58	2376.75
540.94	2390.57
541.29	2403.50
541.65	2416.45
542.01	2429.13
542.37	2439.90
542.72	2450.90
543.08	2461.86
543.44	2473.67
543.79	2484.12
544.15	2494.48
544.51	2504.71
544.87	2514.15
545.22	2522.96
545.58	2530.46
545.94	2537.65
546.29	2544.38
546.65	2550.70
547.01	2556.18
547.36	2562.40
547.72	2568.02
548.07	2572.68
548.43	2578.13
548.79	2582.74
549.14	2586.88
549.50	2590.80
549.86	2595.24
550.21	2598.99
550.57	2602.29
550.92	2603.77
551.28	2605.22
551.64	2607.25
551.99	2609.06
552.35	2610.97
552.70	2612.82
553.06	2614.68
553.41	2616.12
553.77	2618.14
554.13	2620.15
554.48	2621.79
554.84	2623.00
555.19	2624.08
555.55	2625.76
555.90	2624.60
556.26	2623.93
556.61	2622.13
556.97	2620.49
557.32	2619.60
557.68	2618.87
558.03	2617.47
558.39	2616.24
558.74	2615.65
559.10	2612.70
559.45	2609.45
559.81	2605.22
560.16	2600.60
560.52	2596.22
560.87	2591.89
561.23	2586.20
561.58	2580.29
561.94	2573.34
562.29	2566.43
562.64	2559.72
563.00	2551.37
563.35	2545.37
563.71	2539.07
564.06	2532.99
564.42	2526.13
564.77	2519.24
565.12	2511.14
565.48	2503.65
565.83	2495.82
566.19	2487.49
566.54	2479.58
566.89	2471.46
567.25	2463.85
567.60	2456.41
567.96	2448.51
568.31	2440.40
568.66	2431.87
569.02	2422.89
569.37	2414.83
569.72	2406.65
570.08	2397.20
570.43	2387.79
570.78	2378.30
571.14	2368.77
571.49	2358.74
571.84	2349.06
572.20	2338.06
572.55	2328.38
572.90	2317.27
573.26	2307.17
573.61	2295.89
573.96	2285.15
574.31	2273.44
574.67	2261.51
575.02	2248.94
575.37	2236.24
575.72	2223.17
576.08	2211.31
576.43	2198.80
576.78	2185.43
577.13	2171.72
577.49	2159.13
577.84	2146.94
578.19	2134.84
578.54	2122.44
578.90	2110.13
579.25	2097.73
579.60	2085.09
579.95	2072.13
580.30	2058.89
580.66	2044.83
581.01	2031.35
581.36	2016.93
581.71	2004.11
582.06	1991.24
582.42	1978.74
582.77	1966.03
583.12	1953.97
583.47	1941.28
583.82	1929.08
584.17	1917.20
584.53	1905.11
584.88	1891.99
585.23	1878.96
585.58	1864.67
585.93	1851.04
586.28	1837.72
586.63	1823.53
586.98	1809.47
587.34	1795.99
587.69	1782.87
588.04	1770.48
588.39	1758.22
588.74	1745.90
589.09	1733.56
589.44	1720.49
589.79	1708.22
590.14	1696.21
590.49	1683.93
590.84	1671.50
591.19	1659.30
591.54	1646.98
591.89	1634.91
592.25	1624.60
592.60	1612.99
592.95	1601.68
593.30	1589.64
593.65	1577.91
594.00	1566.11
594.35	1556.09
594.70	1544.15
595.05	1532.63
595.40	1520.33
595.75	1508.29
596.10	1496.91
596.45	1485.25
596.80	1474.25
597.15	1462.53
597.50	1450.72
597.85	1439.33
598.19	1427.88
598.54	1416.08
598.89	1404.77
599.24	1394.45
599.59	1382.66
599.94	1371.78
600.29	1361.10
600.64	1350.80
600.99	1339.87
601.34	1330.32
601.69	1318.85
602.04	1308.83
602.39	1299.18
602.74	1289.88
603.08	1280.56
603.43	1271.55
603.78	1261.90
604.13	1252.30
604.48	1242.50
604.83	1232.74
605.18	1222.70
605.53	1213.09
605.87	1203.88
606.22	1195.23
606.57	1185.56
606.92	1176.03
607.27	1166.90
607.62	1158.04
607.96	1149.29
608.31	1141.32
608.66	1132.49
609.01	1124.11
609.36	1115.42
609.70	1106.61
610.05	1097.81
610.40	1089.35
610.75	1080.30
611.10	1071.82
611.44	1063.24
611.79	1055.25
612.14	1047.22
612.49	1039.15
612.83	1031.44
613.18	1023.55
613.53	1015.69
613.88	1007.58
614.22	1000.14
614.57	992.16
614.92	984.19
615.27	976.49
615.61	968.68
615.96	961.08
616.31	953.46
616.65	946.39
617.00	938.71
617.35	931.58
617.70	924.44
618.04	917.36
618.39	910.48
618.74	904.00
619.08	896.74
619.43	889.52
619.78	882.54
620.12	875.52
620.47	868.73
620.82	861.43
621.16	854.80
621.51	848.15
621.85	841.83
622.20	835.26
622.55	828.59
622.89	821.77
623.24	815.32
623.59	808.91
623.93	802.55
624.28	796.59
624.62	790.78
624.97	784.80
625.32	779.01
625.66	772.85
626.01	766.53
626.35	761.21
626.70	755.74
627.04	750.55
627.39	744.94
627.73	739.55
628.08	734.34
628.43	728.70
628.77	723.14
629.12	717.76
629.46	712.91
629.81	708.18
630.15	703.36
630.50	698.52
630.84	693.62
631.19	688.84
631.53	684.31
631.88	679.06
632.22	674.09
632.57	669.35
632.91	664.68
633.26	660.22
633.60	655.39
633.95	650.58
634.29	645.70
634.64	641.15
634.98	636.36
635.32	631.96
635.67	627.87
636.01	623.65
636.36	619.35
636.70	615.24
637.05	610.91
637.39	606.79
637.73	602.49
638.08	598.34
638.42	594.04
638.77	589.55
639.11	585.25
639.45	580.88
639.80	576.62
640.14	572.52
640.49	568.54
640.83	564.67
641.17	561.01
641.52	557.08
641.86	553.47
642.20	550.33
642.55	546.55
642.89	542.87
643.23	539.44
643.58	536.23
643.92	532.61
644.26	529.17
644.61	525.86
644.95	522.61
645.29	519.28
645.64	516.17
645.98	513.14
646.32	510.32
646.66	507.16
647.01	504.17
647.35	501.36
647.69	498.40
648.04	495.60
648.38	492.78
648.72	489.99
649.06	486.88
649.41	483.71
649.75	480.64
650.09	477.86
650.43	474.93
650.78	471.88
651.12	468.95
651.46	466.16
651.80	463.37
652.14	460.63
652.49	458.12
652.83	455.40
653.17	452.80
653.51	450.04
653.85	447.68
654.20	445.19
654.54	442.57
654.88	439.88
655.22	437.53
655.56	435.10
655.90	432.63
656.25	430.39
656.59	428.13
656.93	426.00
657.27	423.85
657.61	421.42
657.95	419.26
658.29	417.11
658.64	415.04
658.98	412.80
659.32	410.55
659.66	408.24
660.00	406.20
660.34	404.07
660.68	401.96
661.02	399.97
661.36	398.02
661.70	395.99
662.05	394.12
662.39	392.05
662.73	390.11
663.07	388.58
663.41	386.76
663.75	384.76
664.09	383.01
664.43	381.04
664.77	379.33
665.11	377.55
665.45	375.95
665.79	374.23
666.13	372.46
666.47	370.72
666.81	369.09
667.15	367.31
667.49	365.81
667.83	364.46
668.17	362.96
668.51	361.40
668.85	359.99
669.19	358.82
669.53	357.20
669.87	355.83
670.21	354.17
670.55	352.73
670.89	351.67
671.23	350.33
671.57	348.85
671.91	347.53
672.25	346.24
672.58	344.95
672.92	343.60
673.26	342.38
673.60	341.29
673.94	340.18
674.28	339.13
674.62	337.95
674.96	336.61
675.30	335.27
675.64	334.11
675.97	332.92
676.31	331.53
676.65	330.42
676.99	329.43
677.33	328.35
677.67	327.28
678.01	325.93
678.34	324.81
678.68	323.89
679.02	322.81
679.36	321.77
679.70	320.69
680.04	319.60
680.37	318.70
680.71	317.68
681.05	316.78
681.39	315.85
681.73	314.94
682.06	314.04
682.40	313.19
682.74	312.36
683.08	311.60
683.42	310.73
683.75	309.96
684.09	308.97
684.43	308.11
684.77	307.19
685.10	306.35
685.44	305.53
685.78	304.80
686.12	303.99
686.45	303.12
686.79	302.27
687.13	301.75
687.46	300.96
687.80	300.28
688.14	299.40
688.48	298.62
688.81	297.79
689.15	297.15
689.49	296.44
689.82	295.73
690.16	294.80
690.50	294.07
690.83	293.32
691.17	292.50
691.51	291.85
691.84	291.31
692.18	290.61
692.52	289.89
692.85	289.18
693.19	288.77
693.52	288.21
693.86	287.59
694.20	286.80
694.53	286.16
694.87	285.45
695.21	284.82
695.54	284.14
695.88	283.53
696.21	282.76
696.55	282.19
696.88	281.55
697.22	281.00
697.56	280.47
697.89	279.90
698.23	279.43
698.56	278.82
698.90	278.36
699.23	277.77
699.57	277.30
699.90	276.66
700.24	276.00
700.58	275.50
700.91	275.12
701.25	275.05
701.58	274.92
701.92	274.61
702.25	274.15
702.59	273.73
702.92	273.29
703.26	272.90
703.59	272.44
703.93	272.27
704.26	271.94
704.60	271.59
704.93	271.13
705.26	270.64
705.60	270.32
705.93	269.77
706.27	269.58
706.60	269.30
706.94	269.23
707.27	268.74
707.61	268.47
707.94	268.05
708.27	267.23
708.61	266.49
708.94	266.01
709.28	265.68
709.61	265.28
709.94	265.00
710.28	264.59
710.61	264.21
710.95	263.48
711.28	263.38
711.61	262.94
711.95	262.69
712.28	262.28
712.61	261.92
712.95	261.80
713.28	261.69
713.61	261.27
713.95	260.76
714.28	260.55
714.61	260.05
714.95	259.72
715.28	259.29
715.61	258.91
715.95	258.58
716.28	258.17
716.61	257.86
716.95	257.50
717.28	257.26
717.61	257.00
717.94	256.77
718.28	256.13
718.61	255.84
718.94	255.48
719.27	255.34
719.61	255.10
719.94	254.65
720.27	254.12
720.60	253.85
720.94	253.52
721.27	253.31
721.60	253.16
721.93	252.81
722.27	252.80
722.60	252.65
722.93	252.32
723.26	252.16
723.59	251.90
723.93	251.72
724.26	251.56
724.59	251.40
724.92	251.14
725.25	251.13
725.59	250.85
725.92	250.72
726.25	250.46
726.58	250.22
726.91	250.08
727.24	249.87
727.57	249.69
727.91	249.45
728.24	249.30
728.57	249.09
728.90	249.01
729.23	248.71
729.56	248.77
729.89	248.62
730.22	248.38
730.55	248.22
730.89	248.03
731.22	247.75
731.55	247.43
731.88	247.30
732.21	246.99
732.54	246.82
732.87	246.66
733.20	246.45
733.53	246.30
733.86	246.11
734.19	245.89
734.52	245.74
734.85	245.87
735.18	245.55
735.51	245.48
735.84	245.36
736.17	245.30
736.50	244.74
736.83	245.13
737.16	245.01
737.49	244.99
737.82	244.77
738.15	244.74
738.48	244.69
738.81	244.47
739.14	244.30
739.47	244.17
739.80	244.01
740.13	243.90
740.46	243.68
740.79	243.47
741.12	243.35
741.45	243.16
741.78	242.78
742.11	242.81
742.44	242.57
742.77	242.41
743.10	242.16
743.43	242.13
743.75	241.52
744.08	241.95
744.41	241.67
744.74	241.56
745.07	241.31
745.40	241.22
745.73	241.31
746.06	241.16
746.39	241.02
746.71	240.83
747.04	240.69
747.37	240.50
747.70	240.46
748.03	240.32
748.36	240.29
748.68	240.18
749.01	239.92
749.34	239.78
749.67	239.71
750.00	239.72
750.33	239.90
750.65	239.86
750.98	239.23
751.31	239.03
751.64	238.95
751.97	239.07
752.29	238.89
752.62	238.56
752.95	238.49
753.28	238.37
753.60	238.22
753.93	238.22
754.26	238.18
754.59	237.95
754.91	237.81
755.24	237.65
755.57	237.55
755.90	237.45
756.22	237.35
756.55	237.18
756.88	236.99
757.20	236.64
757.53	236.44
757.86	236.31
758.19	236.34
758.51	236.26
758.84	235.93
759.17	235.81
759.49	235.79
759.82	235.91
760.15	235.90
760.47	235.82
760.80	235.63
761.13	235.70
761.45	235.62
761.78	235.62
762.11	235.59
762.43	235.49
762.76	235.45
763.08	235.42
763.41	235.36
763.74	235.30
764.06	235.23
764.39	235.13
764.71	235.07
765.04	234.97
765.37	234.83
765.69	234.80
766.02	234.78
766.34	234.65
766.67	234.35
767.00	234.37
767.32	234.65
767.65	234.86
767.97	234.68
768.30	234.66
768.62	234.58
768.95	234.48
769.27	234.36
769.60	234.36
769.92	234.18
770.25	234.05
770.57	233.99
770.90	233.85
771.22	233.74
771.55	233.71
771.87	233.73
772.20	233.61
772.52	233.93
772.85	234.44
773.17	234.45
773.50	234.43
773.82	234.25
774.15	233.93
774.47	233.59
774.80	233.53
775.12	233.55
775.45	233.45
775.77	233.39
776.09	233.41
776.42	233.35
776.74	233.46
777.07	233.40
777.39	233.27
777.72	233.26
778.04	233.32
778.36	233.18
778.69	233.12
779.01	233.13
779.33	232.67
779.66	231.96
779.98	231.81
780.31	231.75
780.63	231.90
780.95	231.90
781.28	231.81
781.60	231.72
781.92	231.61
782.25	231.59
782.57	231.53
782.89	231.48
783.22	231.37
783.54	231.19
783.86	231.15
784.19	231.15
784.51	231.18
784.83	231.08
785.16	231.06
785.48	230.98
785.80	230.95
786.12	230.97
786.45	230.98
786.77	230.98
787.09	230.93
787.42	230.72
787.74	230.71
788.06	230.73
788.38	230.63
788.71	230.50
789.03	230.48
789.35	230.48
789.67	230.43
789.99	230.47
790.32	230.40
790.64	230.39
790.96	230.75
791.28	230.63
791.61	230.59
791.93	230.54
792.25	230.49
792.57	230.81
792.89	230.72
793.21	230.61
793.54	230.59
793.86	230.53
794.18	230.54
794.50	230.44
794.82	230.43
795.14	230.55
795.47	230.70
795.79	230.72
796.11	230.57
796.43	230.47
796.75	230.41
797.07	230.54
797.39	230.50
797.71	230.13
798.04	230.09
798.36	230.13
798.68	230.11
799.00	230.19
799.32	229.85
799.64	229.86
799.96	229.93
800.28	229.99
800.60	229.93
800.92	229.94
801.24	229.82
801.56	229.80
801.89	229.73
802.21	229.64
802.53	229.51
802.85	229.64
803.17	229.84
803.49	229.67
803.81	229.53
804.13	229.55
804.45	229.51
804.77	229.62
805.09	229.55
805.41	229.53
805.73	229.36
806.05	229.31
806.37	229.30
806.69	229.28
807.01	229.22
807.33	229.25
807.65	229.08
807.97	229.36
808.28	229.30
808.60	229.21
808.92	229.20
809.24	229.47
809.56	229.34
809.88	229.20
810.20	229.35
810.52	229.39
810.84	229.27
811.16	229.25
811.48	229.18
811.80	229.32
812.12	229.27
812.43	229.44
812.75	229.50
813.07	229.44
813.39	229.45
813.71	229.48
814.03	229.45
814.35	229.41
814.67	229.21
814.98	229.16
815.30	229.17
815.62	229.09
815.94	228.75
816.26	229.00
816.58	228.91
816.89	228.86
817.21	228.80
817.53	228.85
817.85	228.80
818.17	228.74
818.48	228.60
818.80	228.73
819.12	228.59
819.44	228.43
819.76	228.43
820.07	228.40
820.39	228.31
820.71	228.35
821.03	228.43
821.34	228.38
821.66	228.52
821.98	228.52
822.30	228.44
822.61	228.75
822.93	228.48
823.25	228.50
823.57	228.42
823.88	228.48
824.20	228.43
824.52	228.48
824.83	228.45
825.15	228.36
825.47	228.21
825.79	228.17
826.10	228.14
826.42	228.09
826.74	228.07
827.05	228.11
827.37	228.09
827.69	228.06
828.00	228.10
828.32	227.97
828.64	227.95
828.95	228.29
829.27	228.13
829.58	228.12
829.90	228.18
830.22	228.24
830.53	228.17
830.85	228.10
831.17	228.00
831.48	228.01
831.80	228.04
832.11	228.11
832.43	228.10
832.75	228.09
833.06	228.36
833.38	228.29
833.69	228.22
834.01	228.24
834.32	228.18
834.64	228.11
834.96	228.13
835.27	228.12
835.59	227.93
835.90	227.82
836.22	227.79
836.53	227.72
836.85	227.64
837.16	228.05
837.48	228.09
837.79	228.24
838.11	228.19
838.42	228.18
838.74	228.22
839.05	228.15
839.37	228.18
839.68	227.95
840.00	227.91
840.31	228.00
840.63	227.92
840.94	227.91
841.26	227.84
841.57	227.77
841.88	227.84
842.20	227.71
842.51	227.70
842.83	227.67
843.14	228.04
843.46	228.05
843.77	227.81
844.08	227.76
844.40	227.59
844.71	227.56
845.03	227.54
845.34	227.49
845.65	227.45
845.97	227.39
846.28	227.34
846.60	227.35
846.91	227.24
847.22	227.26
847.54	227.37
847.85	227.38
848.16	227.40
848.48	227.31
848.79	227.65
849.10	227.69
849.42	227.73
849.73	227.25
850.04	227.31
850.36	227.06
850.67	227.14
850.98	227.19
851.30	227.19
851.61	227.15
851.92	227.12
852.23	227.35
852.55	227.38
852.86	227.40
853.17	227.44
853.49	227.56
853.80	227.65
854.11	227.65
854.42	227.75
854.74	227.78
855.05	227.76
855.36	227.41
855.67	227.41
855.99	227.43
856.30	227.98
856.61	227.94
856.92	227.97
857.23	227.98
857.55	227.88
857.86	227.90
858.17	227.93
858.48	227.87
858.79	227.74
859.11	227.74
859.42	227.70
859.73	227.65
860.04	227.60
860.35	227.53
860.66	227.39
860.98	227.31
861.29	227.31
861.60	227.27
861.91	227.41
862.22	227.37
862.53	227.30
862.84	226.78
863.16	226.89
863.47	226.88
863.78	226.90
864.09	226.94
864.40	227.05
864.71	227.08
865.02	227.10
865.33	227.02
865.64	227.01
865.95	227.07
866.27	227.37
866.58	227.31
866.89	227.31
867.20	227.40
867.51	227.36
867.82	227.30
868.13	227.43
868.44	227.30
868.75	227.37
869.06	227.48
869.37	227.53
869.68	227.35
869.99	227.45
870.30	227.46
870.61	227.56
870.92	227.44
871.23	227.42
871.54	227.50
871.85	227.68
872.16	227.68
872.47	227.61
872.78	227.33
873.09	227.45
873.40	227.33
873.71	227.26
874.02	227.32
874.33	227.31
874.64	227.26
874.95	227.39
875.26	227.27
875.56	227.20
875.87	227.15
876.18	227.10
876.49	227.51
876.80	227.40
877.11	227.25
877.42	227.30
877.73	227.34
878.04	227.23
878.35	227.15
878.66	227.24
878.96	227.27
879.27	227.27
879.58	227.13
879.89	227.12
880.20	227.29
880.51	227.30
880.82	227.31
881.12	227.29
881.43	227.11
881.74	227.11
882.05	227.10
882.36	227.19
882.67	227.19
882.97	226.67
883.28	226.68
883.59	226.72
883.90	226.75
884.21	226.75
884.51	226.75
884.82	226.71
885.13	226.64
885.44	226.59
885.74	226.55
886.05	226.61
886.36	226.68
886.67	226.46
886.98	226.68
887.28	226.70
887.59	226.73
887.90	226.83
888.20	226.82
888.51	226.90
888.82	226.84
889.13	226.95
889.43	227.35
889.74	227.30
890.05	227.32
890.35	227.32
890.66	227.22
890.97	227.22
891.28	227.13
891.58	227.20
891.89	227.21
892.20	227.19
892.50	227.13
892.81	227.06
893.12	227.11
893.42	226.87
893.73	226.89
894.04	226.84
894.34	226.88
894.65	226.85
894.95	226.77
895.26	226.78
895.57	226.99
895.87	226.62
896.18	226.69
896.48	226.72
896.79	226.68
897.10	226.83
897.40	226.87
897.71	226.97
898.01	226.90
898.32	226.93
898.63	226.91
898.93	226.96
899.24	227.00
899.54	226.99
899.85	226.94
900.15	226.99
900.46	227.06
900.76	227.13
901.07	227.09
901.38	227.14
901.68	227.27
901.99	227.05
902.29	227.03
902.60	227.01
902.90	226.98
903.21	226.92
903.51	226.87
903.82	226.96
904.12	226.97
904.43	227.07
904.73	227.10
905.03	227.21
905.34	227.65
905.64	227.63
905.95	227.62
906.25	227.70
906.56	227.62
906.86	227.60
907.17	227.51
907.47	227.59
907.77	227.52
908.08	227.31
908.38	227.29
908.69	227.27
908.99	227.34
909.30	227.35
909.60	227.28
909.90	227.29
910.21	227.16
910.51	227.10
910.81	227.04
911.12	227.00
911.42	227.00
911.73	226.49
912.03	226.46
912.33	226.52
912.64	226.39
912.94	226.35
913.24	226.25
913.55	226.21
913.85	226.20
914.15	226.28
914.46	226.43
914.76	226.39
915.06	226.42
915.37	226.36
915.67	226.31
915.97	226.40
916.27	226.28
916.58	226.32
916.88	226.24
917.18	226.23
917.49	226.56
917.79	226.52
918.09	226.53
918.39	226.67
918.70	226.64
919.00	226.72
919.30	226.91
919.60	226.77
919.91	226.74
920.21	226.75
920.51	226.58
920.81	226.52
921.12	226.63
921.42	226.63
921.72	226.69
922.02	226.75
922.32	226.75
922.63	226.75
922.93	226.96
923.23	227.02
923.53	226.92
923.83	226.61
924.13	226.66
924.44	226.69
924.74	226.78
925.04	226.84
925.34	226.84
925.64	226.65
925.94	226.75
926.24	226.97
926.55	226.91
926.85	226.99
927.15	226.97
927.45	226.94
927.75	226.92
928.05	226.95
928.35	226.89
928.65	227.05
928.95	227.10
929.26	226.87
929.56	227.01
929.86	227.06
930.16	227.09
930.46	227.04
930.76	227.14
931.06	226.89
931.36	226.73
931.66	226.79
931.96	226.86
932.26	226.90
932.56	226.75
932.86	226.78
933.16	226.84
933.46	226.82
933.76	226.73
934.06	226.79
934.36	226.91
934.66	226.92
934.96	226.87
935.26	226.92
935.56	227.02
935.86	226.87
936.16	226.83
936.46	226.77
936.76	226.71
937.06	226.64
937.36	226.73
937.66	226.81
937.96	226.79
938.26	226.74
938.56	226.71
938.86	226.69
939.16	226.86
939.46	226.91
939.76	226.93
940.06	227.00
940.35	226.93
940.65	226.65
940.95	226.62
941.25	226.49
941.55	226.43
941.85	226.35
942.15	226.46
942.45	226.60
942.75	226.53
943.04	226.62
943.34	226.66
943.64	226.51
943.94	226.45
944.24	226.41
944.54	226.43
944.84	226.40
945.13	226.30
945.43	226.15
945.73	226.13
946.03	226.05
946.33	225.97
946.62	225.96
946.92	225.98
947.22	226.05
947.52	226.07
947.82	226.12
948.11	226.10
948.41	226.04
948.71	225.88
949.01	225.95
949.31	225.87
949.60	225.85
949.90	225.97
950.20	225.99
950.50	225.99
950.79	225.96
951.09	226.07
951.39	226.06
951.69	225.98
951.98	226.05
952.28	226.13
952.58	226.15
952.87	226.11
953.17	226.19
953.47	226.17
953.76	226.18
954.06	226.00
954.36	226.04
954.66	225.97
954.95	226.15
955.25	226.14
955.55	226.22
955.84	226.08
956.14	226.16
956.44	226.20
956.73	226.20
957.03	226.24
957.32	226.24
957.62	226.29
957.92	226.36
958.21	226.22
958.51	226.77
958.81	226.78
959.10	226.87
959.40	226.94
959.69	226.97
959.99	227.05
960.29	227.13
960.58	227.08
960.88	227.30
961.17	227.28
961.47	227.41
961.76	227.38
962.06	227.57
962.36	227.49
962.65	227.48
962.95	227.55
963.24	227.43
963.54	227.42
963.83	227.46
964.13	227.55
964.42	227.49
964.72	227.11
965.01	227.15
965.31	227.12
965.60	227.05
965.90	227.35
966.19	227.29
966.49	227.43
966.78	227.34
967.08	227.30
967.37	227.27
967.67	227.13
967.96	227.17
968.26	227.18
968.55	227.24
968.85	227.25
969.14	227.23
969.43	227.33
969.73	227.32
970.02	227.34
970.32	227.33
970.61	227.40
970.91	227.21
971.20	227.13
971.49	227.09
971.79	227.13
972.08	226.81
972.38	226.82
972.67	226.74
972.96	226.85
973.26	226.71
973.55	226.84
973.85	226.91
974.14	226.87
974.43	226.85
974.73	226.75
975.02	226.76
975.31	226.80
975.61	226.78
975.90	226.70
976.19	226.59
976.49	226.53
976.78	226.53
977.07	226.59
977.37	226.65
977.66	226.64
977.95	226.56
978.24	226.55
978.54	226.62
978.83	226.55
979.12	226.52
979.42	226.54
979.71	226.38
980.00	226.29
980.29	226.27
980.59	226.17
980.88	226.30
981.17	226.24
981.46	226.18
981.76	226.15
982.05	226.38
982.34	226.42
982.63	226.45
982.93	226.46
983.22	226.63
983.51	226.59
983.80	226.72
984.09	226.82
984.39	226.83
984.68	226.76
984.97	226.78
985.26	226.74
985.55	226.78
985.85	226.78
986.14	226.93
986.43	227.02
986.72	226.98
987.01	226.83
987.30	226.88
987.59	226.86
987.89	226.95
988.18	226.70
988.47	226.66
988.76	226.61
989.05	226.54
989.34	226.36
989.63	226.45
989.92	226.36
990.22	226.25
990.51	226.25
990.80	226.24
991.09	226.27
991.38	226.40
991.67	226.37
991.96	226.36
992.25	226.29
992.54	226.21
992.83	226.25
993.12	226.25
993.41	226.28
993.70	226.45
993.99	226.43
994.28	226.56
994.58	226.68
994.87	226.65
995.16	226.65
995.45	226.63
995.74	226.50
996.03	226.50
996.32	226.66
996.61	226.63
996.90	226.59
997.19	226.54
997.48	226.54
997.77	226.44
998.06	226.40
998.34	226.42
998.63	226.40
998.92	226.42
999.21	226.48
999.50	226.52
999.79	226.35
1000.08	226.42
1000.37	226.40
1000.66	226.32
1000.95	226.42
1001.24	226.45
1001.53	226.53
1001.82	226.57
1002.11	226.52
1002.40	226.47
1002.68	226.64
1002.97	227.08
1003.26	227.04
1003.55	226.93
1003.84	227.00
1004.13	227.20
1004.42	227.18
1004.71	227.17
1004.99	227.17
1005.28	227.27
1005.57	227.23
1005.86	227.18
1006.15	227.08
1006.44	226.98
1006.72	227.00
1007.01	227.03
1007.30	227.04
1007.59	227.03
1007.88	226.99
1008.17	227.01
1008.45	226.90
1008.74	226.70
1009.03	226.41
1009.32	226.41
1009.60	226.37
1009.89	226.36
1010.18	226.10
1010.47	226.02
1010.76	225.95
1011.04	225.91
1011.33	225.92
1011.62	225.89
1011.91	225.91
1012.19	225.92
1012.48	225.95
1012.77	225.93
1013.05	226.03
1013.34	226.00
1013.63	225.95
1013.92	226.05
1014.20	225.93
1014.49	226.02
1014.78	226.04
1015.06	225.84
1015.35	225.88
1015.64	225.98
1015.92	226.00
1016.21	226.05
1016.50	226.11
1016.78	226.25
1017.07	226.32
1017.36	226.24
1017.64	226.15
1017.93	226.24
1018.22	226.17
1018.50	226.20
1018.79	226.15
1019.08	225.90
1019.36	225.96
1019.65	225.94
1019.93	226.00
1020.22	226.14
1020.51	226.36
1020.79	226.30
1021.08	224.70
1021.36	225.75
1021.65	225.05
1021.94	224.70
1022.22	226.70
1022.51	225.95
1022.79	228.35
1023.08	226.40
1023.36	232.10
1023.65	224.45
>>>>>End Processed Spectral Data<<<<<
