SpectraSuite Data File
++++++++++++++++++++++++++++++++++++
Date: Wed Sep 04 17:42:11 EDT 2013
User: lab3
Dark Spectrum Present: Yes
Reference Spectrum Present: No
Number of Sampled Component Spectra: 1
Spectrometers: USB2E7196
Integration Time (usec): 170000 (USB2E7196)
Spectra Averaged: 20 (USB2E7196)
Boxcar Smoothing: 10 (USB2E7196)
Correct for Electrical Dark: No (USB2E7196)
Strobe/Lamp Enabled: No (USB2E7196)
Correct for Detector Non-linearity: No (USB2E7196)
Correct for Stray Light: No (USB2E7196)
Number of Pixels in Processed Spectrum: 2048
>>>>>Begin Processed Spectral Data<<<<<
339.09	0.00
339.48	213.30
339.86	214.35
340.24	216.45
340.63	216.70
341.01	226.00
341.39	218.60
341.78	222.10
342.16	223.35
342.54	221.65
342.93	211.97
343.31	222.61
343.69	223.14
344.07	223.59
344.46	223.99
344.84	224.40
345.22	224.30
345.60	224.61
345.99	224.79
346.37	224.87
346.75	225.04
347.13	225.08
347.52	225.13
347.90	225.31
348.28	225.25
348.66	225.43
349.05	225.25
349.43	225.33
349.81	225.36
350.19	225.39
350.57	225.54
350.96	225.64
351.34	225.74
351.72	225.78
352.10	225.91
352.48	225.93
352.87	225.97
353.25	226.09
353.63	226.16
354.01	226.13
354.39	226.25
354.77	226.28
355.15	226.45
355.54	226.45
355.92	226.37
356.30	226.42
356.68	226.75
357.06	226.86
357.44	226.78
357.82	226.88
358.20	227.36
358.58	227.40
358.97	227.51
359.35	227.71
359.73	227.87
360.11	227.87
360.49	227.98
360.87	227.99
361.25	228.05
361.63	228.26
362.01	228.38
362.39	228.38
362.77	228.54
363.15	228.58
363.53	228.69
363.91	228.77
364.29	228.83
364.67	228.41
365.05	228.46
365.43	228.60
365.81	228.69
366.19	228.52
366.57	228.71
366.95	228.74
367.33	228.63
367.71	228.59
368.09	228.69
368.47	228.72
368.85	228.76
369.23	228.85
369.61	228.66
369.99	228.84
370.37	228.86
370.75	229.00
371.13	228.89
371.51	228.73
371.89	228.74
372.27	228.78
372.65	228.84
373.03	228.81
373.41	228.77
373.78	228.65
374.16	228.35
374.54	228.15
374.92	228.03
375.30	227.95
375.68	227.90
376.06	227.85
376.44	227.72
376.82	227.66
377.19	227.58
377.57	227.51
377.95	227.26
378.33	227.17
378.71	226.83
379.09	226.82
379.47	226.90
379.84	226.81
380.22	226.69
380.60	226.51
380.98	226.41
381.36	226.26
381.73	226.16
382.11	226.15
382.49	226.03
382.87	225.91
383.25	225.90
383.62	226.34
384.00	226.14
384.38	226.04
384.76	226.19
385.13	226.32
385.51	226.23
385.89	226.14
386.27	226.15
386.64	226.20
387.02	226.08
387.40	225.94
387.78	225.83
388.15	225.73
388.53	225.64
388.91	225.61
389.29	225.51
389.66	225.58
390.04	225.50
390.42	225.62
390.79	225.60
391.17	225.52
391.55	225.00
391.92	225.06
392.30	225.12
392.68	224.88
393.05	224.83
393.43	224.85
393.81	224.88
394.18	224.78
394.56	224.69
394.94	224.82
395.31	224.76
395.69	224.93
396.06	225.12
396.44	225.22
396.82	225.20
397.19	225.57
397.57	225.52
397.95	225.61
398.32	225.47
398.70	225.59
399.07	225.82
399.45	225.88
399.82	225.93
400.20	225.98
400.58	226.12
400.95	226.01
401.33	226.18
401.70	226.59
402.08	226.75
402.45	226.97
402.83	227.16
403.20	227.37
403.58	227.46
403.95	227.65
404.33	227.82
404.71	228.01
405.08	228.38
405.46	228.58
405.83	228.84
406.21	229.11
406.58	229.39
406.96	229.60
407.33	229.93
407.70	230.31
408.08	231.01
408.45	231.43
408.83	231.82
409.20	232.16
409.58	232.33
409.95	232.79
410.33	233.20
410.70	233.56
411.08	234.12
411.45	234.68
411.82	235.15
412.20	235.80
412.57	236.70
412.95	237.05
413.32	237.87
413.69	238.61
414.07	239.40
414.44	240.26
414.82	241.06
415.19	242.00
415.56	242.95
415.94	243.74
416.31	244.95
416.68	246.20
417.06	247.59
417.43	248.93
417.81	250.37
418.18	251.89
418.55	253.50
418.93	255.15
419.30	256.87
419.67	258.80
420.04	260.77
420.42	262.65
420.79	265.19
421.16	267.40
421.54	269.92
421.91	272.37
422.28	274.91
422.66	277.61
423.03	280.56
423.40	283.35
423.77	286.25
424.15	289.14
424.52	292.20
424.89	295.68
425.26	298.91
425.64	302.09
426.01	305.56
426.38	309.07
426.75	312.75
427.13	316.54
427.50	320.36
427.87	324.38
428.24	328.47
428.61	332.01
428.99	336.45
429.36	341.01
429.73	345.50
430.10	349.95
430.47	354.69
430.85	359.30
431.22	364.40
431.59	370.12
431.96	375.33
432.33	381.08
432.70	386.52
433.08	393.07
433.45	399.24
433.82	405.34
434.19	412.28
434.56	419.17
434.93	425.51
435.30	432.00
435.68	439.15
436.05	446.12
436.42	453.09
436.79	459.41
437.16	466.30
437.53	473.60
437.90	480.83
438.27	488.05
438.64	495.40
439.01	502.40
439.38	508.26
439.75	514.16
440.13	520.89
440.50	527.07
440.87	532.04
441.24	537.35
441.61	543.15
441.98	547.41
442.35	552.08
442.72	557.07
443.09	561.85
443.46	564.77
443.83	566.59
444.20	568.36
444.57	570.59
444.94	571.57
445.31	572.68
445.68	574.04
446.05	574.17
446.42	573.13
446.79	572.11
447.16	570.77
447.53	569.80
447.90	566.76
448.27	563.87
448.64	560.00
449.01	556.94
449.37	551.99
449.74	546.99
450.11	541.58
450.48	535.24
450.85	528.76
451.22	523.02
451.59	517.83
451.96	512.66
452.33	506.08
452.70	500.16
453.07	493.13
453.43	485.58
453.80	478.63
454.17	472.10
454.54	465.67
454.91	459.01
455.28	452.45
455.65	446.35
456.02	440.90
456.38	435.71
456.75	429.52
457.12	424.09
457.49	418.90
457.86	413.55
458.23	409.36
458.59	404.70
458.96	400.03
459.33	395.77
459.70	391.50
460.07	388.20
460.43	384.20
460.80	380.60
461.17	377.65
461.54	374.44
461.91	371.30
462.27	368.08
462.64	365.43
463.01	362.50
463.38	359.76
463.74	356.27
464.11	353.70
464.48	351.46
464.85	349.20
465.21	347.49
465.58	345.62
465.95	343.23
466.32	341.35
466.68	339.43
467.05	337.59
467.42	335.77
467.78	333.79
468.15	332.06
468.52	330.73
468.88	328.79
469.25	327.22
469.62	326.05
469.98	324.71
470.35	323.54
470.72	322.39
471.08	321.00
471.45	320.01
471.82	319.14
472.18	317.84
472.55	316.95
472.92	315.84
473.28	314.93
473.65	314.10
474.02	313.22
474.38	312.68
474.75	312.05
475.11	311.47
475.48	311.02
475.85	310.55
476.21	310.03
476.58	309.66
476.94	309.34
477.31	308.93
477.67	308.60
478.04	308.28
478.41	308.17
478.77	308.55
479.14	308.20
479.50	308.08
479.87	308.23
480.23	308.30
480.60	308.29
480.96	308.38
481.33	308.75
481.69	308.99
482.06	309.22
482.42	309.52
482.79	309.84
483.15	310.29
483.52	310.88
483.88	311.29
484.25	311.85
484.61	312.39
484.98	313.09
485.34	314.06
485.71	314.90
486.07	315.78
486.44	316.37
486.80	317.53
487.17	318.57
487.53	319.82
487.90	321.17
488.26	322.75
488.62	324.21
488.99	325.63
489.35	327.31
489.72	329.04
490.08	330.90
490.44	332.78
490.81	334.82
491.17	336.80
491.54	339.08
491.90	341.32
492.26	343.92
492.63	346.47
492.99	348.99
493.36	351.86
493.72	354.92
494.08	357.89
494.45	361.26
494.81	364.81
495.17	368.28
495.54	371.99
495.90	375.88
496.26	379.99
496.63	384.24
496.99	388.51
497.35	392.89
497.72	397.69
498.08	402.62
498.44	407.70
498.80	413.22
499.17	418.65
499.53	424.28
499.89	430.09
500.26	436.20
500.62	442.36
500.98	449.10
501.34	455.68
501.71	462.74
502.07	469.72
502.43	476.81
502.79	484.15
503.16	491.84
503.52	499.66
503.88	507.66
504.24	516.01
504.60	524.91
504.97	534.14
505.33	543.35
505.69	553.10
506.05	562.72
506.41	572.41
506.78	582.43
507.14	593.08
507.50	603.76
507.86	614.63
508.22	625.82
508.59	636.92
508.95	648.59
509.31	660.72
509.67	672.99
510.03	685.30
510.39	697.95
510.75	710.71
511.12	723.52
511.48	736.91
511.84	750.20
512.20	763.49
512.56	776.97
512.92	790.94
513.28	804.81
513.64	819.19
514.00	833.55
514.37	848.45
514.73	863.25
515.09	878.41
515.45	893.42
515.81	908.60
516.17	923.86
516.53	938.97
516.89	954.13
517.25	969.80
517.61	986.27
517.97	1002.65
518.33	1018.73
518.69	1035.19
519.05	1051.54
519.41	1068.04
519.77	1085.09
520.13	1101.80
520.49	1118.13
520.85	1136.39
521.21	1152.86
521.57	1170.00
521.93	1186.13
522.29	1202.69
522.65	1218.83
523.01	1235.04
523.37	1251.26
523.73	1267.65
524.09	1283.57
524.45	1299.36
524.81	1315.23
525.17	1330.86
525.53	1346.39
525.89	1362.15
526.25	1377.94
526.61	1393.42
526.97	1409.23
527.33	1424.70
527.68	1440.97
528.04	1456.89
528.40	1470.60
528.76	1486.22
529.12	1500.97
529.48	1516.51
529.84	1531.07
530.20	1546.51
530.56	1561.71
530.91	1576.88
531.27	1591.61
531.63	1606.53
531.99	1621.50
532.35	1636.00
532.71	1650.20
533.07	1664.97
533.42	1679.29
533.78	1692.96
534.14	1706.58
534.50	1719.70
534.86	1733.27
535.21	1744.83
535.57	1757.30
535.93	1769.38
536.29	1781.21
536.65	1793.59
537.00	1805.28
537.36	1816.92
537.72	1827.43
538.08	1838.77
538.44	1849.25
538.79	1859.68
539.15	1870.32
539.51	1880.28
539.87	1889.35
540.22	1898.18
540.58	1907.28
540.94	1914.76
541.29	1922.34
541.65	1929.81
542.01	1937.23
542.37	1942.84
542.72	1949.22
543.08	1954.93
543.44	1961.24
543.79	1966.73
544.15	1971.40
544.51	1976.45
544.87	1981.35
545.22	1985.49
545.58	1988.61
545.94	1991.52
546.29	1994.15
546.65	1996.15
547.01	1997.94
547.36	1999.81
547.72	2001.17
548.07	2001.09
548.43	2002.71
548.79	2003.71
549.14	2004.12
549.50	2004.17
549.86	2004.53
550.21	2004.91
550.57	2004.92
550.92	2003.68
551.28	2002.20
551.64	2001.63
551.99	2000.39
552.35	1999.01
552.70	1998.11
553.06	1997.24
553.41	1995.92
553.77	1994.74
554.13	1993.78
554.48	1992.54
554.84	1991.32
555.19	1990.01
555.55	1989.25
555.90	1986.43
556.26	1983.55
556.61	1980.10
556.97	1976.40
557.32	1973.66
557.68	1970.46
558.03	1966.98
558.39	1964.02
558.74	1961.24
559.10	1956.66
559.45	1952.17
559.81	1947.01
560.16	1941.23
560.52	1935.60
560.87	1930.67
561.23	1924.95
561.58	1918.85
561.94	1911.98
562.29	1904.77
562.64	1897.96
563.00	1890.18
563.35	1883.92
563.71	1877.50
564.06	1871.73
564.42	1865.63
564.77	1859.27
565.12	1852.16
565.48	1845.43
565.83	1838.10
566.19	1830.91
566.54	1823.77
566.89	1816.63
567.25	1809.90
567.60	1803.70
567.96	1797.10
568.31	1790.01
568.66	1782.59
569.02	1774.86
569.37	1767.98
569.72	1761.51
570.08	1753.78
570.43	1745.82
570.78	1738.35
571.14	1730.83
571.49	1722.28
571.84	1714.30
572.20	1705.64
572.55	1697.53
572.90	1688.79
573.26	1680.35
573.61	1671.55
573.96	1663.12
574.31	1653.89
574.67	1644.79
575.02	1634.95
575.37	1625.00
575.72	1614.78
576.08	1605.47
576.43	1596.20
576.78	1586.01
577.13	1575.68
577.49	1566.07
577.84	1556.98
578.19	1547.74
578.54	1538.14
578.90	1529.54
579.25	1520.52
579.60	1511.05
579.95	1501.43
580.30	1491.83
580.66	1482.00
581.01	1472.05
581.36	1461.58
581.71	1452.26
582.06	1442.83
582.42	1433.55
582.77	1424.34
583.12	1415.74
583.47	1406.89
583.82	1397.67
584.17	1389.06
584.53	1380.46
584.88	1371.00
585.23	1361.71
585.58	1351.53
585.93	1341.92
586.28	1331.92
586.63	1321.91
586.98	1311.80
587.34	1302.53
587.69	1292.97
588.04	1284.10
588.39	1275.45
588.74	1266.99
589.09	1258.46
589.44	1249.20
589.79	1240.55
590.14	1231.89
590.49	1223.17
590.84	1214.40
591.19	1206.10
591.54	1197.33
591.89	1188.58
592.25	1181.60
592.60	1173.33
592.95	1165.28
593.30	1157.00
593.65	1148.83
594.00	1140.33
594.35	1133.95
594.70	1125.71
595.05	1117.78
595.40	1109.21
595.75	1101.16
596.10	1093.17
596.45	1084.89
596.80	1077.45
597.15	1069.67
597.50	1061.80
597.85	1054.04
598.19	1046.01
598.54	1038.07
598.89	1030.40
599.24	1023.41
599.59	1015.27
599.94	1007.94
600.29	1000.74
600.64	993.76
600.99	986.34
601.34	979.76
601.69	971.69
602.04	964.90
602.39	958.38
602.74	952.45
603.08	945.82
603.43	939.71
603.78	933.25
604.13	926.65
604.48	920.08
604.83	913.49
605.18	906.77
605.53	900.34
605.87	894.07
606.22	888.27
606.57	881.82
606.92	875.53
607.27	869.51
607.62	863.64
607.96	857.84
608.31	852.69
608.66	847.27
609.01	841.51
609.36	835.90
609.70	830.08
610.05	823.92
610.40	818.15
610.75	812.26
611.10	806.63
611.44	800.94
611.79	795.41
612.14	790.06
612.49	784.68
612.83	779.55
613.18	774.32
613.53	769.00
613.88	763.80
614.22	758.60
614.57	753.32
614.92	747.95
615.27	742.89
615.61	737.47
615.96	732.16
616.31	727.08
616.65	722.28
617.00	717.45
617.35	712.77
617.70	708.06
618.04	703.23
618.39	698.60
618.74	694.26
619.08	689.62
619.43	684.89
619.78	680.10
620.12	675.40
620.47	670.76
620.82	666.01
621.16	661.22
621.51	656.98
621.85	652.87
622.20	648.52
622.55	643.83
622.89	639.62
623.24	635.42
623.59	631.12
623.93	626.78
624.28	622.47
624.62	618.87
624.97	615.05
625.32	611.12
625.66	606.93
626.01	602.70
626.35	599.00
626.70	595.37
627.04	591.99
627.39	588.17
627.73	584.46
628.08	580.99
628.43	577.35
628.77	573.55
629.12	569.75
629.46	566.48
629.81	563.42
630.15	560.05
630.50	556.65
630.84	553.25
631.19	549.94
631.53	546.76
631.88	543.03
632.22	539.47
632.57	536.48
632.91	533.36
633.26	530.37
633.60	527.17
633.95	523.87
634.29	520.44
634.64	517.42
634.98	514.14
635.32	511.29
635.67	508.48
636.01	505.63
636.36	502.71
636.70	499.84
637.05	496.89
637.39	494.00
637.73	491.21
638.08	488.54
638.42	485.70
638.77	482.91
639.11	479.90
639.45	476.97
639.80	473.91
640.14	471.09
640.49	468.27
640.83	465.70
641.17	463.19
641.52	460.79
641.86	458.31
642.20	456.23
642.55	453.60
642.89	451.00
643.23	448.58
643.58	446.43
643.92	443.92
644.26	441.56
644.61	439.43
644.95	437.18
645.29	434.79
645.64	432.66
645.98	430.49
646.32	428.45
646.66	426.36
647.01	424.30
647.35	422.37
647.69	420.48
648.04	418.50
648.38	416.54
648.72	414.50
649.06	412.35
649.41	410.20
649.75	408.13
650.09	406.38
650.43	404.31
650.78	402.12
651.12	400.12
651.46	398.27
651.80	396.30
652.14	394.42
652.49	392.76
652.83	390.82
653.17	388.99
653.51	387.29
653.85	385.64
654.20	383.98
654.54	382.28
654.88	380.44
655.22	378.96
655.56	377.30
655.90	375.74
656.25	374.23
656.59	372.66
656.93	371.25
657.27	369.82
657.61	368.17
657.95	366.69
658.29	365.27
658.64	363.80
658.98	362.31
659.32	360.68
659.66	359.20
660.00	357.88
660.34	356.50
660.68	355.13
661.02	353.82
661.36	352.43
661.70	351.06
662.05	349.76
662.39	348.32
662.73	347.12
663.07	346.08
663.41	344.88
663.75	343.52
664.09	342.28
664.43	340.88
664.77	339.75
665.11	338.53
665.45	337.35
665.79	336.20
666.13	334.91
666.47	333.85
666.81	332.64
667.15	331.38
667.49	330.31
667.83	329.31
668.17	328.26
668.51	327.27
668.85	326.38
669.19	325.61
669.53	324.44
669.87	323.39
670.21	322.25
670.55	321.21
670.89	320.54
671.23	319.53
671.57	318.62
671.91	317.75
672.25	316.91
672.58	316.12
672.92	315.08
673.26	314.27
673.60	313.38
673.94	312.65
674.28	311.95
674.62	311.10
674.96	310.09
675.30	309.19
675.64	308.27
675.97	307.23
676.31	306.25
676.65	305.44
676.99	304.73
677.33	303.87
677.67	303.17
678.01	302.25
678.34	301.49
678.68	300.83
679.02	299.96
679.36	299.15
679.70	298.32
680.04	297.66
680.37	296.99
680.71	296.33
681.05	295.58
681.39	294.82
681.73	294.21
682.06	293.57
682.40	293.00
682.74	292.43
683.08	292.09
683.42	291.39
683.75	290.91
684.09	290.21
684.43	289.66
684.77	288.88
685.10	288.27
685.44	287.67
685.78	286.99
686.12	286.49
686.45	285.91
686.79	285.32
687.13	284.79
687.46	284.19
687.80	283.72
688.14	283.16
688.48	282.73
688.81	282.11
689.15	281.69
689.49	281.05
689.82	280.65
690.16	279.88
690.50	279.49
690.83	278.92
691.17	278.40
691.51	277.83
691.84	277.45
692.18	276.96
692.52	276.40
692.85	275.96
693.19	275.77
693.52	275.34
693.86	274.90
694.20	274.46
694.53	274.09
694.87	273.53
695.21	272.96
695.54	272.45
695.88	272.03
696.21	271.44
696.55	271.05
696.88	270.54
697.22	270.15
697.56	269.76
697.89	269.27
698.23	268.88
698.56	268.53
698.90	268.26
699.23	267.75
699.57	267.45
699.90	267.02
700.24	266.37
700.58	266.00
700.91	265.65
701.25	265.67
701.58	265.61
701.92	265.41
702.25	265.18
702.59	264.74
702.92	264.37
703.26	264.09
703.59	263.73
703.93	263.75
704.26	263.44
704.60	263.06
704.93	262.68
705.26	262.36
705.60	261.98
705.93	261.45
706.27	261.28
706.60	261.04
706.94	260.96
707.27	260.64
707.61	260.31
707.94	260.00
708.27	259.25
708.61	258.53
708.94	258.16
709.28	257.83
709.61	257.54
709.94	257.26
710.28	256.93
710.61	256.65
710.95	255.91
711.28	255.95
711.61	255.63
711.95	255.51
712.28	255.15
712.61	254.92
712.95	254.95
713.28	254.89
713.61	254.55
713.95	254.14
714.28	253.92
714.61	253.61
714.95	253.29
715.28	252.98
715.61	252.71
715.95	252.44
716.28	252.14
716.61	251.96
716.95	251.67
717.28	251.37
717.61	251.09
717.94	250.84
718.28	250.24
718.61	250.02
718.94	249.63
719.27	249.43
719.61	249.20
719.94	248.82
720.27	248.28
720.60	248.02
720.94	247.84
721.27	247.66
721.60	247.58
721.93	247.38
722.27	247.38
722.60	247.31
722.93	247.09
723.26	247.02
723.59	246.73
723.93	246.58
724.26	246.49
724.59	246.33
724.92	246.20
725.25	246.21
725.59	245.98
725.92	245.96
726.25	245.72
726.58	245.60
726.91	245.48
727.24	245.46
727.57	245.39
727.91	245.08
728.24	244.98
728.57	244.78
728.90	244.67
729.23	244.37
729.56	244.43
729.89	244.31
730.22	244.15
730.55	244.06
730.89	243.96
731.22	243.86
731.55	243.73
731.88	243.67
732.21	243.38
732.54	243.22
732.87	243.04
733.20	243.05
733.53	242.92
733.86	242.82
734.19	242.65
734.52	242.55
734.85	242.73
735.18	242.49
735.51	242.45
735.84	242.38
736.17	242.47
736.50	242.14
736.83	242.56
737.16	242.42
737.49	242.28
737.82	242.12
738.15	242.12
738.48	242.01
738.81	241.81
739.14	241.68
739.47	241.54
739.80	241.33
740.13	241.25
740.46	241.05
740.79	240.92
741.12	240.79
741.45	240.54
741.78	240.19
742.11	240.26
742.44	240.08
742.77	240.07
743.10	239.81
743.43	239.65
743.75	239.03
744.08	239.52
744.41	239.43
744.74	239.27
745.07	238.95
745.40	238.90
745.73	239.05
746.06	239.00
746.39	238.97
746.71	238.86
747.04	238.60
747.37	238.45
747.70	238.37
748.03	238.24
748.36	238.29
748.68	238.30
749.01	238.05
749.34	237.91
749.67	237.75
750.00	237.75
750.33	238.02
750.65	237.98
750.98	237.25
751.31	237.17
751.64	237.08
751.97	237.32
752.29	237.17
752.62	236.78
752.95	236.56
753.28	236.42
753.60	236.34
753.93	236.41
754.26	236.42
754.59	236.17
754.91	236.11
755.24	235.85
755.57	235.72
755.90	235.59
756.22	235.44
756.55	235.26
756.88	234.99
757.20	234.56
757.53	234.21
757.86	234.11
758.19	234.10
758.51	234.02
758.84	233.61
759.17	233.48
759.49	233.45
759.82	233.66
760.15	233.65
760.47	233.59
760.80	233.36
761.13	233.30
761.45	233.21
761.78	233.07
762.11	233.02
762.43	232.86
762.76	232.78
763.08	232.87
763.41	232.81
763.74	232.82
764.06	232.75
764.39	232.76
764.71	232.69
765.04	232.51
765.37	232.39
765.69	232.40
766.02	232.31
766.34	232.25
766.67	231.97
767.00	231.92
767.32	232.12
767.65	232.36
767.97	232.28
768.30	232.27
768.62	232.28
768.95	232.19
769.27	232.08
769.60	232.10
769.92	231.91
770.25	231.83
770.57	231.62
770.90	231.56
771.22	231.49
771.55	231.38
771.87	231.32
772.20	231.27
772.52	231.60
772.85	232.14
773.17	232.05
773.50	232.03
773.82	231.90
774.15	231.67
774.47	231.35
774.80	231.27
775.12	231.19
775.45	231.09
775.77	231.14
776.09	231.19
776.42	231.12
776.74	231.23
777.07	231.19
777.39	231.22
777.72	231.16
778.04	231.19
778.36	231.20
778.69	231.26
779.01	231.30
779.33	230.82
779.66	230.30
779.98	230.25
780.31	230.24
780.63	230.43
780.95	230.38
781.28	230.29
781.60	230.24
781.92	230.27
782.25	230.24
782.57	230.23
782.89	230.11
783.22	230.05
783.54	229.94
783.86	229.92
784.19	229.83
784.51	229.95
784.83	229.80
785.16	229.78
785.48	229.69
785.80	229.62
786.12	229.63
786.45	229.54
786.77	229.55
787.09	229.50
787.42	229.33
787.74	229.38
788.06	229.41
788.38	229.36
788.71	229.24
789.03	229.21
789.35	229.15
789.67	229.11
789.99	229.09
790.32	229.11
790.64	229.13
790.96	229.52
791.28	229.35
791.61	229.39
791.93	229.33
792.25	229.35
792.57	229.72
792.89	229.65
793.21	229.71
793.54	229.73
793.86	229.66
794.18	229.66
794.50	229.49
794.82	229.36
795.14	229.42
795.47	229.55
795.79	229.65
796.11	229.53
796.43	229.49
796.75	229.50
797.07	229.40
797.39	229.40
797.71	229.09
798.04	229.08
798.36	229.10
798.68	229.11
799.00	229.06
799.32	228.72
799.64	228.76
799.96	228.74
800.28	228.81
800.60	228.82
800.92	228.85
801.24	228.80
801.56	228.92
801.89	228.84
802.21	228.79
802.53	228.64
802.85	228.77
803.17	229.03
803.49	228.91
803.81	228.88
804.13	228.79
804.45	228.75
804.77	228.81
805.09	228.76
805.41	228.76
805.73	228.70
806.05	228.65
806.37	228.63
806.69	228.55
807.01	228.43
807.33	228.37
807.65	228.15
807.97	228.41
808.28	228.33
808.60	228.40
808.92	228.42
809.24	228.71
809.56	228.63
809.88	228.46
810.20	228.51
810.52	228.63
810.84	228.57
811.16	228.50
811.48	228.43
811.80	228.65
812.12	228.67
812.43	228.72
812.75	228.71
813.07	228.65
813.39	228.68
813.71	228.65
814.03	228.66
814.35	228.71
814.67	228.55
814.98	228.50
815.30	228.40
815.62	228.24
815.94	227.94
816.26	228.11
816.58	228.02
816.89	228.05
817.21	227.90
817.53	227.85
817.85	227.85
818.17	227.80
818.48	227.53
818.80	227.59
819.12	227.58
819.44	227.51
819.76	227.44
820.07	227.43
820.39	227.47
820.71	227.46
821.03	227.52
821.34	227.46
821.66	227.49
821.98	227.48
822.30	227.48
822.61	227.72
822.93	227.45
823.25	227.45
823.57	227.41
823.88	227.55
824.20	227.55
824.52	227.61
824.83	227.65
825.15	227.60
825.47	227.46
825.79	227.47
826.10	227.41
826.42	227.48
826.74	227.45
827.05	227.36
827.37	227.34
827.69	227.27
828.00	227.26
828.32	227.32
828.64	227.37
828.95	227.61
829.27	227.51
829.58	227.45
829.90	227.43
830.22	227.38
830.53	227.20
830.85	227.20
831.17	227.09
831.48	226.97
831.80	226.97
832.11	227.00
832.43	226.90
832.75	226.86
833.06	227.04
833.38	226.84
833.69	226.87
834.01	226.86
834.32	226.80
834.64	226.78
834.96	226.73
835.27	226.67
835.59	226.50
835.90	226.35
836.22	226.44
836.53	226.40
836.85	226.40
837.16	226.90
837.48	226.89
837.79	227.07
838.11	227.13
838.42	227.16
838.74	227.20
839.05	227.16
839.37	227.18
839.68	226.90
840.00	227.01
840.31	227.06
840.63	227.07
840.94	227.03
841.26	226.96
841.57	227.02
841.88	226.99
842.20	226.94
842.51	226.88
842.83	226.91
843.14	227.34
843.46	227.35
843.77	227.11
844.08	227.08
844.40	226.99
844.71	226.99
845.03	226.93
845.34	226.95
845.65	226.97
845.97	226.96
846.28	227.05
846.60	227.07
846.91	226.96
847.22	227.03
847.54	227.15
847.85	227.25
848.16	227.18
848.48	227.15
848.79	227.28
849.10	227.44
849.42	227.46
849.73	227.06
850.04	227.02
850.36	226.83
850.67	226.90
850.98	226.87
851.30	226.84
851.61	226.85
851.92	226.82
852.23	226.91
852.55	226.95
852.86	226.94
853.17	226.93
853.49	227.10
853.80	227.08
854.11	227.10
854.42	227.14
854.74	227.05
855.05	227.06
855.36	226.87
855.67	226.87
855.99	226.85
856.30	227.34
856.61	227.34
856.92	227.34
857.23	227.29
857.55	227.23
857.86	227.17
858.17	227.27
858.48	227.19
858.79	227.07
859.11	227.15
859.42	227.06
859.73	226.96
860.04	226.86
860.35	226.74
860.66	226.58
860.98	226.50
861.29	226.60
861.60	226.56
861.91	226.62
862.22	226.50
862.53	226.40
862.84	225.81
863.16	225.96
863.47	225.78
863.78	225.78
864.09	225.80
864.40	225.83
864.71	225.76
865.02	225.84
865.33	225.84
865.64	225.73
865.95	225.71
866.27	226.11
866.58	226.10
866.89	226.16
867.20	226.16
867.51	226.06
867.82	225.93
868.13	226.07
868.44	226.01
868.75	226.08
869.06	226.15
869.37	226.30
869.68	226.12
869.99	226.30
870.30	226.32
870.61	226.35
870.92	226.34
871.23	226.28
871.54	226.32
871.85	226.41
872.16	226.47
872.47	226.54
872.78	226.17
873.09	226.20
873.40	226.14
873.71	226.20
874.02	226.29
874.33	226.36
874.64	226.24
874.95	226.32
875.26	226.21
875.56	226.18
875.87	226.08
876.18	226.03
876.49	226.53
876.80	226.47
877.11	226.41
877.42	226.44
877.73	226.51
878.04	226.41
878.35	226.41
878.66	226.48
878.96	226.41
879.27	226.52
879.58	226.58
879.89	226.62
880.20	226.79
880.51	226.71
880.82	226.70
881.12	226.79
881.43	226.65
881.74	226.59
882.05	226.53
882.36	226.56
882.67	226.68
882.97	226.13
883.28	226.15
883.59	226.22
883.90	226.24
884.21	226.30
884.51	226.29
884.82	226.22
885.13	226.20
885.44	226.19
885.74	226.15
886.05	226.06
886.36	226.05
886.67	225.86
886.98	226.14
887.28	226.17
887.59	226.15
887.90	226.29
888.20	226.34
888.51	226.45
888.82	226.40
889.13	226.35
889.43	226.73
889.74	226.70
890.05	226.58
890.35	226.52
890.66	226.44
890.97	226.35
891.28	226.29
891.58	226.29
891.89	226.33
892.20	226.23
892.50	226.11
892.81	226.07
893.12	226.04
893.42	225.79
893.73	225.77
894.04	225.76
894.34	225.73
894.65	225.67
894.95	225.55
895.26	225.54
895.57	225.73
895.87	225.25
896.18	225.28
896.48	225.32
896.79	225.27
897.10	225.34
897.40	225.39
897.71	225.46
898.01	225.36
898.32	225.36
898.63	225.45
898.93	225.45
899.24	225.41
899.54	225.35
899.85	225.36
900.15	225.28
900.46	225.28
900.76	225.29
901.07	225.26
901.38	225.26
901.68	225.34
901.99	225.06
902.29	225.12
902.60	225.15
902.90	225.11
903.21	225.22
903.51	225.11
903.82	225.23
904.12	225.27
904.43	225.32
904.73	225.26
905.03	225.22
905.34	225.70
905.64	225.73
905.95	225.77
906.25	225.75
906.56	225.77
906.86	225.72
907.17	225.73
907.47	225.83
907.77	225.82
908.08	225.70
908.38	225.82
908.69	225.93
908.99	226.00
909.30	226.01
909.60	225.94
909.90	226.04
910.21	225.96
910.51	225.82
910.81	225.85
911.12	225.95
911.42	225.94
911.73	225.50
912.03	225.48
912.33	225.61
912.64	225.59
912.94	225.62
913.24	225.61
913.55	225.48
913.85	225.41
914.15	225.55
914.46	225.64
914.76	225.53
915.06	225.48
915.37	225.40
915.67	225.37
915.97	225.41
916.27	225.32
916.58	225.35
916.88	225.38
917.18	225.40
917.49	225.70
917.79	225.70
918.09	225.78
918.39	225.92
918.70	225.90
919.00	225.99
919.30	226.24
919.60	226.18
919.91	226.15
920.21	226.18
920.51	226.09
920.81	226.02
921.12	226.12
921.42	226.17
921.72	226.17
922.02	226.25
922.32	226.33
922.63	226.30
922.93	226.50
923.23	226.53
923.53	226.43
923.83	226.17
924.13	226.16
924.44	226.16
924.74	226.30
925.04	226.35
925.34	226.30
925.64	226.06
925.94	226.09
926.24	226.45
926.55	226.37
926.85	226.41
927.15	226.44
927.45	226.42
927.75	226.33
928.05	226.34
928.35	226.38
928.65	226.42
928.95	226.48
929.26	226.33
929.56	226.40
929.86	226.47
930.16	226.35
930.46	226.35
930.76	226.38
931.06	226.11
931.36	225.99
931.66	226.07
931.96	226.16
932.26	226.22
932.56	225.98
932.86	226.04
933.16	226.05
933.46	226.04
933.76	225.99
934.06	226.08
934.36	226.25
934.66	226.15
934.96	226.07
935.26	226.05
935.56	226.01
935.86	225.91
936.16	225.84
936.46	225.83
936.76	225.85
937.06	225.73
937.36	225.77
937.66	225.88
937.96	225.81
938.26	225.68
938.56	225.61
938.86	225.62
939.16	225.78
939.46	225.78
939.76	225.78
940.06	225.75
940.35	225.65
940.65	225.43
940.95	225.54
941.25	225.41
941.55	225.34
941.85	225.39
942.15	225.47
942.45	225.61
942.75	225.53
943.04	225.51
943.34	225.63
943.64	225.52
943.94	225.35
944.24	225.40
944.54	225.43
944.84	225.45
945.13	225.37
945.43	225.23
945.73	225.22
946.03	225.22
946.33	225.15
946.62	225.10
946.92	225.04
947.22	224.99
947.52	225.06
947.82	225.15
948.11	225.10
948.41	224.94
948.71	224.87
949.01	224.99
949.31	224.95
949.60	224.98
949.90	225.12
950.20	225.15
950.50	225.09
950.79	225.05
951.09	225.15
951.39	225.15
951.69	225.14
951.98	225.28
952.28	225.28
952.58	225.33
952.87	225.39
953.17	225.48
953.47	225.43
953.76	225.41
954.06	225.38
954.36	225.35
954.66	225.39
954.95	225.50
955.25	225.54
955.55	225.54
955.84	225.35
956.14	225.41
956.44	225.46
956.73	225.42
957.03	225.50
957.32	225.45
957.62	225.44
957.92	225.57
958.21	225.56
958.51	226.07
958.81	226.13
959.10	226.20
959.40	226.31
959.69	226.33
959.99	226.45
960.29	226.45
960.58	226.47
960.88	226.63
961.17	226.63
961.47	226.61
961.76	226.66
962.06	226.83
962.36	226.71
962.65	226.69
962.95	226.77
963.24	226.67
963.54	226.66
963.83	226.68
964.13	226.59
964.42	226.47
964.72	226.10
965.01	226.09
965.31	226.09
965.60	225.94
965.90	226.34
966.19	226.29
966.49	226.39
966.78	226.25
967.08	226.30
967.37	226.27
967.67	226.25
967.96	226.25
968.26	226.18
968.55	226.23
968.85	226.21
969.14	226.16
969.43	226.18
969.73	226.17
970.02	226.18
970.32	226.17
970.61	226.20
970.91	226.08
971.20	226.06
971.49	226.00
971.79	226.14
972.08	225.80
972.38	225.77
972.67	225.67
972.96	225.86
973.26	225.70
973.55	225.82
973.85	225.76
974.14	225.82
974.43	225.90
974.73	225.85
975.02	225.82
975.31	225.83
975.61	225.86
975.90	225.85
976.19	225.80
976.49	225.87
976.78	225.83
977.07	225.84
977.37	225.86
977.66	225.92
977.95	225.81
978.24	225.83
978.54	225.87
978.83	225.86
979.12	225.81
979.42	225.83
979.71	225.73
980.00	225.71
980.29	225.81
980.59	225.73
980.88	225.84
981.17	225.84
981.46	225.86
981.76	225.83
982.05	225.98
982.34	226.08
982.63	226.08
982.93	226.11
983.22	226.26
983.51	226.22
983.80	226.30
984.09	226.39
984.39	226.36
984.68	226.32
984.97	226.38
985.26	226.28
985.55	226.35
985.85	226.22
986.14	226.27
986.43	226.18
986.72	226.19
987.01	226.07
987.30	226.05
987.59	225.95
987.89	225.96
988.18	225.82
988.47	225.67
988.76	225.55
989.05	225.51
989.34	225.41
989.63	225.60
989.92	225.50
990.22	225.35
990.51	225.37
990.80	225.36
991.09	225.33
991.38	225.37
991.67	225.33
991.96	225.30
992.25	225.26
992.54	225.15
992.83	225.13
993.12	225.09
993.41	225.26
993.70	225.52
993.99	225.64
994.28	225.71
994.58	225.83
994.87	225.82
995.16	225.83
995.45	225.72
995.74	225.45
996.03	225.54
996.32	225.64
996.61	225.66
996.90	225.66
997.19	225.66
997.48	225.75
997.77	225.65
998.06	225.69
998.34	225.73
998.63	225.78
998.92	225.80
999.21	225.95
999.50	225.83
999.79	225.72
1000.08	225.68
1000.37	225.61
1000.66	225.57
1000.95	225.69
1001.24	225.73
1001.53	225.91
1001.82	226.00
1002.11	225.88
1002.40	226.00
1002.68	226.19
1002.97	226.46
1003.26	226.40
1003.55	226.25
1003.84	226.31
1004.13	226.44
1004.42	226.45
1004.71	226.41
1004.99	226.32
1005.28	226.38
1005.57	226.46
1005.86	226.32
1006.15	226.30
1006.44	226.28
1006.72	226.41
1007.01	226.28
1007.30	226.18
1007.59	226.09
1007.88	225.96
1008.17	226.03
1008.45	225.84
1008.74	225.50
1009.03	225.29
1009.32	225.29
1009.60	225.39
1009.89	225.35
1010.18	225.21
1010.47	225.21
1010.76	225.23
1011.04	225.26
1011.33	225.25
1011.62	225.24
1011.91	225.32
1012.19	225.28
1012.48	225.23
1012.77	225.15
1013.05	225.43
1013.34	225.50
1013.63	225.49
1013.92	225.62
1014.20	225.59
1014.49	225.66
1014.78	225.77
1015.06	225.67
1015.35	225.66
1015.64	225.63
1015.92	225.74
1016.21	225.72
1016.50	225.69
1016.78	225.79
1017.07	225.85
1017.36	225.77
1017.64	225.70
1017.93	225.69
1018.22	225.65
1018.50	225.73
1018.79	225.72
1019.08	225.51
1019.36	225.50
1019.65	225.54
1019.93	225.67
1020.22	225.71
1020.51	225.94
1020.79	225.85
1021.08	224.10
1021.36	225.80
1021.65	225.85
1021.94	225.35
1022.22	225.70
1022.51	226.55
1022.79	228.00
1023.08	226.40
1023.36	230.95
1023.65	223.90
>>>>>End Processed Spectral Data<<<<<
