SpectraSuite Data File
++++++++++++++++++++++++++++++++++++
Date: Wed Sep 04 18:04:52 EDT 2013
User: lab3
Dark Spectrum Present: Yes
Reference Spectrum Present: No
Number of Sampled Component Spectra: 1
Spectrometers: USB2E7196
Integration Time (usec): 170000 (USB2E7196)
Spectra Averaged: 20 (USB2E7196)
Boxcar Smoothing: 10 (USB2E7196)
Correct for Electrical Dark: No (USB2E7196)
Strobe/Lamp Enabled: No (USB2E7196)
Correct for Detector Non-linearity: No (USB2E7196)
Correct for Stray Light: No (USB2E7196)
Number of Pixels in Processed Spectrum: 2048
>>>>>Begin Processed Spectral Data<<<<<
339.09	0.00
339.48	213.35
339.86	215.60
340.24	216.10
340.63	217.25
341.01	226.30
341.39	219.50
341.78	223.15
342.16	224.95
342.54	224.70
342.93	212.91
343.31	223.61
343.69	224.16
344.07	224.60
344.46	225.17
344.84	225.60
345.22	225.59
345.60	225.87
345.99	226.03
346.37	226.10
346.75	226.17
347.13	226.20
347.52	226.25
347.90	226.42
348.28	226.38
348.66	226.49
349.05	226.31
349.43	226.42
349.81	226.45
350.19	226.57
350.57	226.69
350.96	226.85
351.34	226.97
351.72	227.08
352.10	227.15
352.48	227.07
352.87	227.13
353.25	227.15
353.63	227.27
354.01	227.24
354.39	227.33
354.77	227.35
355.15	227.60
355.54	227.56
355.92	227.44
356.30	227.50
356.68	227.95
357.06	228.12
357.44	228.06
357.82	228.07
358.20	228.47
358.58	228.50
358.97	228.53
359.35	228.69
359.73	228.80
360.11	228.83
360.49	228.99
360.87	229.00
361.25	229.15
361.63	229.32
362.01	229.46
362.39	229.47
362.77	229.58
363.15	229.59
363.53	229.69
363.91	229.75
364.29	229.81
364.67	229.28
365.05	229.32
365.43	229.45
365.81	229.61
366.19	229.45
366.57	229.66
366.95	229.62
367.33	229.50
367.71	229.53
368.09	229.69
368.47	229.63
368.85	229.70
369.23	229.81
369.61	229.65
369.99	229.84
370.37	229.91
370.75	230.14
371.13	230.04
371.51	230.01
371.89	230.07
372.27	230.05
372.65	230.04
373.03	230.02
373.41	229.85
373.78	229.73
374.16	229.46
374.54	229.21
374.92	229.14
375.30	229.16
375.68	229.02
376.06	228.93
376.44	228.82
376.82	228.78
377.19	228.69
377.57	228.65
377.95	228.36
378.33	228.24
378.71	227.88
379.09	227.86
379.47	227.90
379.84	227.67
380.22	227.60
380.60	227.50
380.98	227.39
381.36	227.40
381.73	227.28
382.11	227.26
382.49	227.24
382.87	227.16
383.25	227.05
383.62	227.54
384.00	227.39
384.38	227.35
384.76	227.36
385.13	227.43
385.51	227.36
385.89	227.35
386.27	227.28
386.64	227.30
387.02	227.15
387.40	226.97
387.78	227.05
388.15	226.96
388.53	226.94
388.91	226.89
389.29	226.79
389.66	226.85
390.04	226.82
390.42	226.85
390.79	226.89
391.17	226.85
391.55	226.30
391.92	226.31
392.30	226.40
392.68	226.35
393.05	226.35
393.43	226.36
393.81	226.35
394.18	226.30
394.56	226.35
394.94	226.54
395.31	226.56
395.69	226.79
396.06	226.96
396.44	227.04
396.82	227.03
397.19	227.31
397.57	227.32
397.95	227.44
398.32	227.41
398.70	227.53
399.07	227.79
399.45	227.86
399.82	227.94
400.20	227.99
400.58	228.13
400.95	227.99
401.33	228.22
401.70	228.66
402.08	228.82
402.45	228.98
402.83	229.16
403.20	229.37
403.58	229.43
403.95	229.68
404.33	229.85
404.71	230.07
405.08	230.56
405.46	230.78
405.83	231.01
406.21	231.29
406.58	231.56
406.96	231.75
407.33	232.09
407.70	232.49
408.08	233.25
408.45	233.64
408.83	234.12
409.20	234.44
409.58	234.65
409.95	235.24
410.33	235.75
410.70	236.16
411.08	236.80
411.45	237.37
411.82	237.94
412.20	238.79
412.57	239.79
412.95	240.13
413.32	240.99
413.69	241.88
414.07	242.90
414.44	243.91
414.82	245.04
415.19	246.27
415.56	247.49
415.94	248.49
416.31	249.98
416.68	251.37
417.06	253.03
417.43	254.64
417.81	256.40
418.18	258.18
418.55	260.14
418.93	262.22
419.30	264.37
419.67	266.68
420.04	268.98
420.42	271.35
420.79	274.48
421.16	277.33
421.54	280.35
421.91	283.35
422.28	286.44
422.66	289.61
423.03	293.05
423.40	296.37
423.77	299.93
424.15	303.40
424.52	307.16
424.89	311.46
425.26	315.54
425.64	319.38
426.01	323.64
426.38	328.00
426.75	332.45
427.13	337.01
427.50	341.72
427.87	346.66
428.24	351.54
428.61	355.95
428.99	361.32
429.36	366.88
429.73	372.40
430.10	377.95
430.47	383.68
430.85	389.43
431.22	395.63
431.59	402.46
431.96	408.82
432.33	415.95
432.70	422.42
433.08	430.25
433.45	437.59
433.82	445.01
434.19	453.42
434.56	461.66
434.93	469.30
435.30	477.02
435.68	485.64
436.05	494.28
436.42	502.68
436.79	510.41
437.16	518.84
437.53	527.70
437.90	536.37
438.27	545.07
438.64	553.90
439.01	562.25
439.38	569.46
439.75	576.71
440.13	584.75
440.50	592.60
440.87	598.65
441.24	605.21
441.61	612.13
441.98	617.07
442.35	622.80
442.72	628.98
443.09	634.81
443.46	638.19
443.83	640.33
444.20	642.30
444.57	644.93
444.94	645.88
445.31	647.05
445.68	648.44
446.05	648.52
446.42	647.20
446.79	645.66
447.16	644.02
447.53	642.52
447.90	638.85
448.27	634.97
448.64	630.13
449.01	626.35
449.37	620.39
449.74	614.41
450.11	607.59
450.48	599.73
450.85	591.80
451.22	584.99
451.59	578.56
451.96	572.29
452.33	564.10
452.70	556.80
453.07	547.94
453.43	538.82
453.80	530.35
454.17	522.31
454.54	514.59
454.91	506.42
455.28	498.49
455.65	490.92
456.02	484.00
456.38	477.62
456.75	469.74
457.12	463.05
457.49	456.65
457.86	450.28
458.23	445.16
458.59	439.34
458.96	433.46
459.33	428.09
459.70	422.97
460.07	419.00
460.43	414.18
460.80	409.93
461.17	406.06
461.54	402.12
461.91	398.33
462.27	394.56
462.64	391.22
463.01	387.68
463.38	384.40
463.74	380.34
464.11	377.38
464.48	374.87
464.85	371.85
465.21	369.74
465.58	367.25
465.95	364.23
466.32	362.11
466.68	359.87
467.05	357.66
467.42	355.39
467.78	352.95
468.15	350.83
468.52	349.11
468.88	346.94
469.25	345.06
469.62	343.51
469.98	341.78
470.35	340.19
470.72	338.66
471.08	336.91
471.45	335.75
471.82	334.39
472.18	332.87
472.55	332.02
472.92	330.66
473.28	329.58
473.65	328.56
474.02	327.42
474.38	326.53
474.75	325.82
475.11	324.85
475.48	324.22
475.85	323.61
476.21	323.02
476.58	322.59
476.94	322.16
477.31	321.73
477.67	321.42
478.04	321.17
478.41	320.95
478.77	321.29
479.14	320.88
479.50	320.79
479.87	320.79
480.23	320.75
480.60	320.67
480.96	320.79
481.33	321.23
481.69	321.40
482.06	321.65
482.42	321.85
482.79	322.32
483.15	322.71
483.52	323.32
483.88	323.79
484.25	324.29
484.61	324.85
484.98	325.53
485.34	326.42
485.71	327.37
486.07	328.26
486.44	328.85
486.80	330.02
487.17	331.04
487.53	332.43
487.90	333.87
488.26	335.61
488.62	337.19
488.99	338.66
489.35	340.41
489.72	342.29
490.08	344.20
490.44	346.23
490.81	348.50
491.17	350.75
491.54	353.22
491.90	355.82
492.26	358.63
492.63	361.39
492.99	364.29
493.36	367.35
493.72	370.76
494.08	374.17
494.45	377.90
494.81	381.99
495.17	385.87
495.54	390.06
495.90	394.07
496.26	398.57
496.63	403.28
496.99	408.24
497.35	413.39
497.72	418.75
498.08	424.38
498.44	430.05
498.80	435.94
499.17	441.98
499.53	448.26
499.89	454.89
500.26	461.61
500.62	468.49
500.98	475.92
501.34	483.41
501.71	491.09
502.07	498.87
502.43	506.86
502.79	515.17
503.16	523.69
503.52	532.81
503.88	542.16
504.24	551.79
504.60	561.78
504.97	572.00
505.33	582.44
505.69	593.55
506.05	604.75
506.41	616.17
506.78	627.93
507.14	640.10
507.50	652.35
507.86	665.13
508.22	678.27
508.59	691.42
508.95	705.25
509.31	719.50
509.67	733.90
510.03	748.36
510.39	763.34
510.75	778.68
511.12	793.92
511.48	809.50
511.84	825.23
512.20	841.08
512.56	857.42
512.92	874.31
513.28	891.00
513.64	908.29
514.00	925.84
514.37	943.64
514.73	961.79
515.09	980.31
515.45	998.91
515.81	1017.40
516.17	1036.15
516.53	1054.67
516.89	1073.37
517.25	1092.86
517.61	1113.12
517.97	1133.42
518.33	1153.27
518.69	1173.82
519.05	1194.44
519.41	1215.31
519.77	1236.59
520.13	1257.48
520.49	1278.31
520.85	1300.71
521.21	1321.58
521.57	1342.87
521.93	1363.80
522.29	1385.20
522.65	1405.85
523.01	1426.91
523.37	1447.58
523.73	1468.80
524.09	1489.61
524.45	1510.37
524.81	1531.40
525.17	1551.98
525.53	1572.66
525.89	1593.66
526.25	1614.75
526.61	1635.35
526.97	1656.37
527.33	1677.70
527.68	1699.73
528.04	1720.97
528.40	1740.72
528.76	1762.20
529.12	1782.62
529.48	1803.36
529.84	1823.12
530.20	1844.09
530.56	1864.85
530.91	1886.35
531.27	1907.20
531.63	1927.74
531.99	1948.56
532.35	1968.57
532.71	1989.01
533.07	2009.56
533.42	2029.52
533.78	2049.38
534.14	2069.17
534.50	2088.46
534.86	2107.39
535.21	2125.07
535.57	2143.92
535.93	2161.56
536.29	2179.41
536.65	2197.93
537.00	2215.69
537.36	2233.80
537.72	2250.61
538.08	2268.18
538.44	2284.50
538.79	2300.71
539.15	2317.56
539.51	2333.28
539.87	2349.02
540.22	2363.20
540.58	2377.61
540.94	2391.12
541.29	2403.87
541.65	2416.52
542.01	2429.00
542.37	2439.91
542.72	2450.90
543.08	2461.67
543.44	2474.22
543.79	2484.45
544.15	2494.18
544.51	2504.29
544.87	2513.96
545.22	2523.30
545.58	2530.55
545.94	2538.05
546.29	2544.88
546.65	2551.25
547.01	2557.36
547.36	2562.94
547.72	2568.62
548.07	2572.79
548.43	2578.51
548.79	2583.34
549.14	2588.18
549.50	2592.61
549.86	2596.92
550.21	2600.75
550.57	2604.01
550.92	2605.23
551.28	2606.77
551.64	2609.62
551.99	2611.60
552.35	2613.17
552.70	2614.92
553.06	2617.00
553.41	2618.51
553.77	2620.53
554.13	2622.31
554.48	2624.02
554.84	2625.47
555.19	2626.69
555.55	2628.41
555.90	2627.61
556.26	2627.00
556.61	2625.18
556.97	2622.79
557.32	2622.30
557.68	2621.05
558.03	2619.81
558.39	2618.63
558.74	2618.19
559.10	2614.83
559.45	2611.89
559.81	2607.62
560.16	2602.41
560.52	2597.86
560.87	2593.67
561.23	2587.97
561.58	2582.02
561.94	2575.09
562.29	2567.11
562.64	2560.49
563.00	2552.41
563.35	2546.36
563.71	2539.57
564.06	2533.47
564.42	2527.12
564.77	2520.01
565.12	2512.58
565.48	2504.57
565.83	2496.52
566.19	2488.10
566.54	2480.33
566.89	2471.60
567.25	2464.09
567.60	2457.50
567.96	2449.71
568.31	2441.44
568.66	2432.93
569.02	2423.90
569.37	2415.84
569.72	2408.85
570.08	2399.26
570.43	2389.70
570.78	2380.23
571.14	2370.57
571.49	2360.45
571.84	2350.89
572.20	2339.79
572.55	2329.83
572.90	2319.11
573.26	2308.68
573.61	2297.30
573.96	2286.22
574.31	2274.46
574.67	2262.55
575.02	2249.33
575.37	2236.36
575.72	2223.01
576.08	2210.67
576.43	2198.21
576.78	2184.91
577.13	2170.93
577.49	2158.32
577.84	2146.47
578.19	2134.30
578.54	2121.98
578.90	2109.71
579.25	2097.17
579.60	2084.84
579.95	2071.75
580.30	2058.57
580.66	2044.80
581.01	2031.36
581.36	2017.34
581.71	2004.68
582.06	1991.69
582.42	1979.18
582.77	1966.47
583.12	1954.44
583.47	1942.02
583.82	1929.89
584.17	1918.03
584.53	1906.15
584.88	1893.30
585.23	1879.98
585.58	1865.56
585.93	1852.49
586.28	1838.98
586.63	1824.52
586.98	1810.19
587.34	1796.79
587.69	1783.50
588.04	1771.09
588.39	1758.91
588.74	1746.57
589.09	1734.34
589.44	1721.43
589.79	1709.49
590.14	1697.75
590.49	1685.80
590.84	1673.39
591.19	1661.14
591.54	1648.54
591.89	1636.45
592.25	1625.71
592.60	1614.27
592.95	1602.94
593.30	1590.56
593.65	1578.83
594.00	1567.27
594.35	1557.44
594.70	1545.64
595.05	1534.05
595.40	1521.79
595.75	1509.91
596.10	1498.48
596.45	1486.98
596.80	1475.90
597.15	1464.07
597.50	1452.10
597.85	1440.50
598.19	1428.86
598.54	1417.14
598.89	1405.84
599.24	1394.84
599.59	1383.18
599.94	1372.12
600.29	1361.41
600.64	1351.02
600.99	1339.82
601.34	1330.33
601.69	1319.16
602.04	1309.34
602.39	1299.66
602.74	1290.56
603.08	1281.00
603.43	1271.70
603.78	1261.81
604.13	1252.29
604.48	1242.62
604.83	1233.06
605.18	1223.09
605.53	1213.60
605.87	1204.38
606.22	1195.80
606.57	1186.48
606.92	1177.17
607.27	1168.15
607.62	1159.30
607.96	1150.69
608.31	1142.87
608.66	1134.27
609.01	1125.40
609.36	1116.63
609.70	1108.09
610.05	1099.22
610.40	1090.55
610.75	1081.61
611.10	1073.05
611.44	1064.27
611.79	1055.72
612.14	1047.62
612.49	1039.58
612.83	1032.24
613.18	1024.50
613.53	1016.85
613.88	1008.80
614.22	1000.94
614.57	992.91
614.92	985.02
615.27	977.38
615.61	969.54
615.96	961.61
616.31	954.38
616.65	947.23
617.00	939.85
617.35	932.43
617.70	925.20
618.04	918.30
618.39	911.41
618.74	904.86
619.08	898.00
619.43	890.84
619.78	883.90
620.12	876.42
620.47	869.41
620.82	862.09
621.16	855.49
621.51	849.07
621.85	842.75
622.20	835.94
622.55	829.19
622.89	822.51
623.24	816.07
623.59	809.42
623.93	803.05
624.28	796.77
624.62	791.13
624.97	785.38
625.32	779.32
625.66	773.24
626.01	767.14
626.35	761.63
626.70	756.13
627.04	750.79
627.39	745.25
627.73	739.82
628.08	734.41
628.43	728.77
628.77	723.28
629.12	717.98
629.46	713.20
629.81	708.33
630.15	703.51
630.50	698.79
630.84	693.91
631.19	689.05
631.53	684.41
631.88	679.18
632.22	674.11
632.57	669.53
632.91	664.83
633.26	660.26
633.60	655.49
633.95	650.75
634.29	645.80
634.64	641.36
634.98	636.58
635.32	632.25
635.67	628.30
636.01	624.01
636.36	619.50
636.70	615.55
637.05	611.27
637.39	607.11
637.73	602.69
638.08	598.57
638.42	594.28
638.77	589.90
639.11	585.45
639.45	581.18
639.80	576.71
640.14	572.74
640.49	568.69
640.83	564.92
641.17	561.04
641.52	557.38
641.86	553.78
642.20	550.53
642.55	546.73
642.89	542.92
643.23	539.37
643.58	536.29
643.92	532.52
644.26	529.32
644.61	526.23
644.95	522.93
645.29	519.60
645.64	516.41
645.98	513.36
646.32	510.65
646.66	507.47
647.01	504.58
647.35	501.68
647.69	498.71
648.04	495.81
648.38	493.06
648.72	490.22
649.06	487.13
649.41	484.02
649.75	481.18
650.09	478.34
650.43	475.39
650.78	472.39
651.12	469.61
651.46	466.68
651.80	463.72
652.14	460.90
652.49	458.31
652.83	455.79
653.17	453.05
653.51	450.23
653.85	447.85
654.20	445.34
654.54	442.80
654.88	440.42
655.22	438.10
655.56	435.70
655.90	433.20
656.25	430.92
656.59	428.75
656.93	426.52
657.27	424.49
657.61	422.07
657.95	419.80
658.29	417.57
658.64	415.42
658.98	413.20
659.32	411.05
659.66	408.79
660.00	406.63
660.34	404.64
660.68	402.52
661.02	400.47
661.36	398.63
661.70	396.50
662.05	394.48
662.39	392.48
662.73	390.63
663.07	389.05
663.41	387.21
663.75	385.15
664.09	383.25
664.43	381.18
664.77	379.62
665.11	377.84
665.45	376.19
665.79	374.49
666.13	372.82
666.47	371.15
666.81	369.54
667.15	367.74
667.49	366.18
667.83	364.89
668.17	363.41
668.51	361.80
668.85	360.53
669.19	359.36
669.53	357.78
669.87	356.16
670.21	354.60
670.55	353.22
670.89	352.23
671.23	350.83
671.57	349.40
671.91	347.97
672.25	346.69
672.58	345.41
672.92	344.07
673.26	342.80
673.60	341.65
673.94	340.44
674.28	339.43
674.62	338.22
674.96	336.80
675.30	335.62
675.64	334.38
675.97	333.10
676.31	331.67
676.65	330.60
676.99	329.64
677.33	328.48
677.67	327.36
678.01	325.94
678.34	324.95
678.68	324.06
679.02	322.99
679.36	321.98
679.70	320.91
680.04	319.92
680.37	318.86
680.71	317.74
681.05	316.81
681.39	315.83
681.73	314.84
682.06	313.88
682.40	312.98
682.74	312.21
683.08	311.53
683.42	310.63
683.75	309.79
684.09	308.79
684.43	307.93
684.77	307.01
685.10	306.26
685.44	305.40
685.78	304.52
686.12	303.75
686.45	302.94
686.79	302.05
687.13	301.41
687.46	300.79
687.80	300.18
688.14	299.33
688.48	298.63
688.81	297.91
689.15	297.38
689.49	296.65
689.82	295.86
690.16	294.90
690.50	294.36
690.83	293.60
691.17	292.85
691.51	292.19
691.84	291.59
692.18	290.85
692.52	290.16
692.85	289.62
693.19	289.21
693.52	288.60
693.86	288.07
694.20	287.34
694.53	286.73
694.87	286.06
695.21	285.53
695.54	284.95
695.88	284.30
696.21	283.54
696.55	282.87
696.88	282.34
697.22	281.76
697.56	281.18
697.89	280.61
698.23	280.09
698.56	279.54
698.90	279.05
699.23	278.54
699.57	278.03
699.90	277.45
700.24	276.74
700.58	276.25
700.91	275.77
701.25	275.69
701.58	275.49
701.92	275.19
702.25	274.70
702.59	274.18
702.92	273.82
703.26	273.49
703.59	273.06
703.93	272.98
704.26	272.64
704.60	272.15
704.93	271.72
705.26	271.30
705.60	270.94
705.93	270.36
706.27	270.15
706.60	269.85
706.94	269.60
707.27	269.22
707.61	268.88
707.94	268.44
708.27	267.58
708.61	266.86
708.94	266.31
709.28	265.96
709.61	265.51
709.94	265.06
710.28	264.61
710.61	264.23
710.95	263.45
711.28	263.32
711.61	262.91
711.95	262.64
712.28	262.22
712.61	261.87
712.95	261.86
713.28	261.55
713.61	261.05
713.95	260.49
714.28	260.07
714.61	259.65
714.95	259.28
715.28	258.99
715.61	258.60
715.95	258.33
716.28	257.88
716.61	257.69
716.95	257.27
717.28	257.00
717.61	256.70
717.94	256.32
718.28	255.75
718.61	255.45
718.94	255.04
719.27	254.78
719.61	254.50
719.94	254.01
720.27	253.47
720.60	253.24
720.94	252.97
721.27	252.83
721.60	252.67
721.93	252.40
722.27	252.33
722.60	252.24
722.93	251.94
723.26	251.75
723.59	251.42
723.93	251.39
724.26	251.20
724.59	250.91
724.92	250.82
725.25	250.68
725.59	250.48
725.92	250.40
726.25	250.20
726.58	249.97
726.91	249.74
727.24	249.76
727.57	249.55
727.91	249.34
728.24	249.20
728.57	248.93
728.90	248.89
729.23	248.56
729.56	248.54
729.89	248.36
730.22	248.27
730.55	248.06
730.89	247.85
731.22	247.65
731.55	247.52
731.88	247.28
732.21	247.01
732.54	246.82
732.87	246.62
733.20	246.44
733.53	246.37
733.86	246.27
734.19	246.00
734.52	245.92
734.85	246.23
735.18	245.94
735.51	245.95
735.84	245.81
736.17	245.82
736.50	245.43
736.83	245.88
737.16	245.75
737.49	245.70
737.82	245.56
738.15	245.55
738.48	245.45
738.81	245.40
739.14	245.26
739.47	245.14
739.80	244.98
740.13	244.96
740.46	244.68
740.79	244.56
741.12	244.40
741.45	244.21
741.78	243.75
742.11	243.74
742.44	243.50
742.77	243.45
743.10	243.20
743.43	243.09
743.75	242.42
744.08	242.88
744.41	242.64
744.74	242.45
745.07	242.17
745.40	242.15
745.73	242.23
746.06	242.21
746.39	242.15
746.71	242.03
747.04	241.79
747.37	241.71
747.70	241.62
748.03	241.53
748.36	241.49
748.68	241.31
749.01	241.02
749.34	240.90
749.67	240.81
750.00	240.74
750.33	240.94
750.65	240.88
750.98	240.19
751.31	240.16
751.64	240.12
751.97	240.22
752.29	240.05
752.62	239.64
752.95	239.46
753.28	239.25
753.60	239.04
753.93	239.07
754.26	239.01
754.59	238.75
754.91	238.69
755.24	238.54
755.57	238.47
755.90	238.39
756.22	238.19
756.55	237.89
756.88	237.70
757.20	237.29
757.53	237.04
757.86	236.93
758.19	236.80
758.51	236.62
758.84	236.29
759.17	236.06
759.49	236.00
759.82	236.07
760.15	236.02
760.47	235.94
760.80	235.72
761.13	235.72
761.45	235.61
761.78	235.44
762.11	235.33
762.43	235.16
762.76	235.05
763.08	235.07
763.41	235.03
763.74	234.96
764.06	234.84
764.39	234.77
764.71	234.62
765.04	234.44
765.37	234.36
765.69	234.29
766.02	234.22
766.34	234.14
766.67	233.91
767.00	233.95
767.32	234.15
767.65	234.37
767.97	234.15
768.30	234.19
768.62	234.18
768.95	234.10
769.27	234.04
769.60	234.12
769.92	233.99
770.25	233.84
770.57	233.67
770.90	233.58
771.22	233.49
771.55	233.52
771.87	233.57
772.20	233.48
772.52	233.81
772.85	234.36
773.17	234.34
773.50	234.26
773.82	234.11
774.15	233.86
774.47	233.50
774.80	233.50
775.12	233.41
775.45	233.30
775.77	233.23
776.09	233.25
776.42	233.15
776.74	233.21
777.07	233.18
777.39	233.22
777.72	233.16
778.04	233.22
778.36	233.10
778.69	233.05
779.01	233.02
779.33	232.63
779.66	232.03
779.98	231.99
780.31	232.03
780.63	232.24
780.95	232.18
781.28	232.13
781.60	232.00
781.92	231.98
782.25	231.95
782.57	232.00
782.89	231.92
783.22	231.82
783.54	231.80
783.86	231.85
784.19	231.71
784.51	231.83
784.83	231.76
785.16	231.74
785.48	231.65
785.80	231.69
786.12	231.62
786.45	231.63
786.77	231.55
787.09	231.48
787.42	231.17
787.74	231.30
788.06	231.35
788.38	231.31
788.71	231.21
789.03	231.24
789.35	231.18
789.67	231.11
789.99	231.17
790.32	231.01
790.64	230.99
790.96	231.39
791.28	231.20
791.61	231.10
791.93	231.10
792.25	231.07
792.57	231.30
792.89	231.20
793.21	231.19
793.54	231.11
793.86	231.04
794.18	231.07
794.50	230.86
794.82	230.77
795.14	230.86
795.47	230.97
795.79	230.95
796.11	230.86
796.43	230.85
796.75	230.79
797.07	230.82
797.39	230.78
797.71	230.39
798.04	230.36
798.36	230.44
798.68	230.38
799.00	230.37
799.32	230.14
799.64	230.25
799.96	230.11
800.28	230.22
800.60	230.15
800.92	230.14
801.24	230.06
801.56	230.11
801.89	229.99
802.21	229.97
802.53	229.95
802.85	229.98
803.17	230.12
803.49	229.99
803.81	229.89
804.13	229.80
804.45	229.79
804.77	229.86
805.09	229.73
805.41	229.69
805.73	229.59
806.05	229.44
806.37	229.35
806.69	229.41
807.01	229.35
807.33	229.38
807.65	229.18
807.97	229.39
808.28	229.28
808.60	229.28
808.92	229.17
809.24	229.36
809.56	229.29
809.88	229.15
810.20	229.23
810.52	229.33
810.84	229.31
811.16	229.20
811.48	229.10
811.80	229.28
812.12	229.18
812.43	229.25
812.75	229.27
813.07	229.21
813.39	229.19
813.71	229.05
814.03	228.98
814.35	229.02
814.67	228.88
814.98	228.83
815.30	228.80
815.62	228.75
815.94	228.38
816.26	228.60
816.58	228.49
816.89	228.44
817.21	228.33
817.53	228.32
817.85	228.45
818.17	228.38
818.48	228.19
818.80	228.33
819.12	228.25
819.44	228.19
819.76	228.11
820.07	228.15
820.39	228.10
820.71	228.13
821.03	228.08
821.34	228.03
821.66	228.12
821.98	228.17
822.30	228.16
822.61	228.46
822.93	228.13
823.25	228.14
823.57	228.09
823.88	228.14
824.20	228.13
824.52	228.02
824.83	228.06
825.15	228.04
825.47	228.05
825.79	228.11
826.10	228.07
826.42	228.10
826.74	228.10
827.05	228.23
827.37	228.28
827.69	228.37
828.00	228.43
828.32	228.38
828.64	228.30
828.95	228.56
829.27	228.36
829.58	228.48
829.90	228.62
830.22	228.65
830.53	228.55
830.85	228.55
831.17	228.50
831.48	228.41
831.80	228.36
832.11	228.34
832.43	228.25
832.75	228.31
833.06	228.58
833.38	228.44
833.69	228.38
834.01	228.38
834.32	228.29
834.64	228.24
834.96	228.27
835.27	228.21
835.59	228.02
835.90	228.02
836.22	227.92
836.53	227.80
836.85	227.76
837.16	228.21
837.48	228.16
837.79	228.35
838.11	228.51
838.42	228.59
838.74	228.59
839.05	228.56
839.37	228.52
839.68	228.27
840.00	228.28
840.31	228.26
840.63	228.22
840.94	228.17
841.26	228.07
841.57	228.07
841.88	228.16
842.20	228.08
842.51	228.03
842.83	228.09
843.14	228.48
843.46	228.45
843.77	228.26
844.08	228.26
844.40	228.09
844.71	227.99
845.03	227.91
845.34	227.89
845.65	227.91
845.97	228.01
846.28	227.95
846.60	227.99
846.91	227.92
847.22	227.90
847.54	228.03
847.85	228.01
848.16	227.94
848.48	227.86
848.79	228.05
849.10	228.00
849.42	228.00
849.73	227.54
850.04	227.50
850.36	227.30
850.67	227.47
850.98	227.55
851.30	227.58
851.61	227.55
851.92	227.51
852.23	227.63
852.55	227.63
852.86	227.66
853.17	227.68
853.49	227.81
853.80	227.94
854.11	227.89
854.42	227.99
854.74	227.87
855.05	227.85
855.36	227.60
855.67	227.66
855.99	227.64
856.30	228.27
856.61	228.30
856.92	228.30
857.23	228.19
857.55	228.12
857.86	228.09
858.17	228.21
858.48	228.16
858.79	228.10
859.11	228.07
859.42	228.06
859.73	227.99
860.04	227.91
860.35	227.68
860.66	227.61
860.98	227.67
861.29	227.77
861.60	227.77
861.91	227.90
862.22	227.82
862.53	227.77
862.84	227.19
863.16	227.30
863.47	227.25
863.78	227.20
864.09	227.25
864.40	227.23
864.71	227.13
865.02	227.16
865.33	227.03
865.64	227.00
865.95	226.96
866.27	227.27
866.58	227.27
866.89	227.38
867.20	227.29
867.51	227.16
867.82	227.12
868.13	227.34
868.44	227.28
868.75	227.41
869.06	227.43
869.37	227.45
869.68	227.25
869.99	227.35
870.30	227.34
870.61	227.35
870.92	227.35
871.23	227.29
871.54	227.34
871.85	227.48
872.16	227.48
872.47	227.47
872.78	227.19
873.09	227.26
873.40	227.13
873.71	227.23
874.02	227.28
874.33	227.29
874.64	227.12
874.95	227.17
875.26	227.05
875.56	227.04
875.87	227.04
876.18	227.05
876.49	227.49
876.80	227.43
877.11	227.36
877.42	227.41
877.73	227.50
878.04	227.41
878.35	227.38
878.66	227.39
878.96	227.41
879.27	227.36
879.58	227.30
879.89	227.36
880.20	227.53
880.51	227.42
880.82	227.40
881.12	227.43
881.43	227.29
881.74	227.22
882.05	227.24
882.36	227.21
882.67	227.23
882.97	226.75
883.28	226.72
883.59	226.76
883.90	226.80
884.21	226.83
884.51	226.81
884.82	226.71
885.13	226.75
885.44	226.72
885.74	226.74
886.05	226.68
886.36	226.70
886.67	226.46
886.98	226.76
887.28	226.81
887.59	226.76
887.90	226.80
888.20	226.85
888.51	226.95
888.82	226.83
889.13	226.93
889.43	227.30
889.74	227.30
890.05	227.22
890.35	227.08
890.66	226.98
890.97	226.99
891.28	227.01
891.58	226.97
891.89	227.04
892.20	227.05
892.50	227.09
892.81	227.01
893.12	227.09
893.42	226.80
893.73	226.82
894.04	226.90
894.34	226.96
894.65	226.90
894.95	226.72
895.26	226.78
895.57	226.94
895.87	226.54
896.18	226.65
896.48	226.72
896.79	226.80
897.10	226.93
897.40	226.93
897.71	226.97
898.01	226.98
898.32	227.03
898.63	227.00
898.93	226.99
899.24	227.07
899.54	227.06
899.85	227.06
900.15	227.05
900.46	227.05
900.76	227.15
901.07	227.17
901.38	227.25
901.68	227.30
901.99	227.10
902.29	227.10
902.60	227.12
902.90	227.03
903.21	227.08
903.51	226.99
903.82	227.12
904.12	227.12
904.43	227.16
904.73	227.14
905.03	227.19
905.34	227.71
905.64	227.70
905.95	227.75
906.25	227.80
906.56	227.80
906.86	227.84
907.17	227.75
907.47	227.70
907.77	227.69
908.08	227.64
908.38	227.63
908.69	227.67
908.99	227.73
909.30	227.80
909.60	227.73
909.90	227.73
910.21	227.56
910.51	227.45
910.81	227.43
911.12	227.41
911.42	227.36
911.73	226.76
912.03	226.77
912.33	226.80
912.64	226.75
912.94	226.67
913.24	226.53
913.55	226.45
913.85	226.54
914.15	226.60
914.46	226.64
914.76	226.66
915.06	226.55
915.37	226.42
915.67	226.37
915.97	226.40
916.27	226.31
916.58	226.35
916.88	226.38
917.18	226.26
917.49	226.61
917.79	226.64
918.09	226.77
918.39	226.92
918.70	226.90
919.00	226.93
919.30	227.15
919.60	227.18
919.91	227.14
920.21	227.10
920.51	226.92
920.81	226.87
921.12	226.86
921.42	226.89
921.72	226.95
922.02	227.01
922.32	227.10
922.63	227.20
922.93	227.38
923.23	227.42
923.53	227.42
923.83	227.08
924.13	227.15
924.44	227.10
924.74	227.15
925.04	227.22
925.34	227.21
925.64	227.06
925.94	226.95
926.24	227.24
926.55	227.17
926.85	227.38
927.15	227.36
927.45	227.37
927.75	227.36
928.05	227.35
928.35	227.33
928.65	227.35
928.95	227.35
929.26	227.22
929.56	227.33
929.86	227.37
930.16	227.30
930.46	227.23
930.76	227.25
931.06	227.04
931.36	226.94
931.66	227.06
931.96	227.09
932.26	227.24
932.56	227.00
932.86	227.08
933.16	227.03
933.46	227.00
933.76	227.00
934.06	227.13
934.36	227.30
934.66	227.26
934.96	227.31
935.26	227.33
935.56	227.41
935.86	227.27
936.16	227.20
936.46	227.19
936.76	227.25
937.06	227.19
937.36	227.24
937.66	227.21
937.96	227.11
938.26	226.98
938.56	226.92
938.86	226.96
939.16	227.01
939.46	227.00
939.76	227.05
940.06	227.03
940.35	226.92
940.65	226.70
940.95	226.72
941.25	226.55
941.55	226.46
941.85	226.39
942.15	226.53
942.45	226.68
942.75	226.71
943.04	226.69
943.34	226.85
943.64	226.80
943.94	226.80
944.24	226.81
944.54	226.85
944.84	226.84
945.13	226.79
945.43	226.75
945.73	226.77
946.03	226.83
946.33	226.78
946.62	226.75
946.92	226.78
947.22	226.77
947.52	226.77
947.82	226.92
948.11	226.88
948.41	226.80
948.71	226.67
949.01	226.62
949.31	226.58
949.60	226.46
949.90	226.48
950.20	226.43
950.50	226.45
950.79	226.40
951.09	226.55
951.39	226.54
951.69	226.50
951.98	226.55
952.28	226.48
952.58	226.49
952.87	226.55
953.17	226.59
953.47	226.53
953.76	226.51
954.06	226.36
954.36	226.29
954.66	226.20
954.95	226.32
955.25	226.40
955.55	226.45
955.84	226.40
956.14	226.43
956.44	226.40
956.73	226.35
957.03	226.40
957.32	226.31
957.62	226.30
957.92	226.33
958.21	226.26
958.51	226.80
958.81	226.88
959.10	226.89
959.40	227.00
959.69	227.08
959.99	227.13
960.29	227.18
960.58	227.15
960.88	227.36
961.17	227.30
961.47	227.31
961.76	227.24
962.06	227.33
962.36	227.30
962.65	227.27
962.95	227.30
963.24	227.31
963.54	227.34
963.83	227.33
964.13	227.44
964.42	227.29
964.72	226.92
965.01	226.90
965.31	226.87
965.60	226.74
965.90	227.08
966.19	227.01
966.49	227.03
966.78	227.07
967.08	226.96
967.37	227.03
967.67	227.00
967.96	227.04
968.26	227.11
968.55	227.19
968.85	227.28
969.14	227.23
969.43	227.22
969.73	227.12
970.02	227.09
970.32	226.99
970.61	227.00
970.91	226.90
971.20	226.80
971.49	226.75
971.79	226.85
972.08	226.46
972.38	226.50
972.67	226.47
972.96	226.48
973.26	226.47
973.55	226.58
973.85	226.54
974.14	226.55
974.43	226.49
974.73	226.37
975.02	226.33
975.31	226.38
975.61	226.34
975.90	226.32
976.19	226.25
976.49	226.33
976.78	226.39
977.07	226.34
977.37	226.37
977.66	226.43
977.95	226.29
978.24	226.26
978.54	226.45
978.83	226.38
979.12	226.44
979.42	226.44
979.71	226.31
980.00	226.25
980.29	226.29
980.59	226.16
980.88	226.31
981.17	226.31
981.46	226.25
981.76	226.22
982.05	226.39
982.34	226.49
982.63	226.48
982.93	226.47
983.22	226.65
983.51	226.62
983.80	226.65
984.09	226.75
984.39	226.81
984.68	226.68
984.97	226.72
985.26	226.65
985.55	226.73
985.85	226.65
986.14	226.78
986.43	226.80
986.72	226.82
987.01	226.65
987.30	226.69
987.59	226.71
987.89	226.75
988.18	226.61
988.47	226.50
988.76	226.48
989.05	226.43
989.34	226.29
989.63	226.43
989.92	226.30
990.22	226.24
990.51	226.20
990.80	226.20
991.09	226.30
991.38	226.39
991.67	226.32
991.96	226.32
992.25	226.29
992.54	226.13
992.83	226.14
993.12	226.10
993.41	226.18
993.70	226.36
993.99	226.45
994.28	226.50
994.58	226.65
994.87	226.52
995.16	226.61
995.45	226.57
995.74	226.44
996.03	226.53
996.32	226.64
996.61	226.72
996.90	226.63
997.19	226.57
997.48	226.63
997.77	226.47
998.06	226.47
998.34	226.42
998.63	226.47
998.92	226.53
999.21	226.66
999.50	226.65
999.79	226.48
1000.08	226.49
1000.37	226.52
1000.66	226.46
1000.95	226.64
1001.24	226.64
1001.53	226.69
1001.82	226.70
1002.11	226.64
1002.40	226.66
1002.68	226.80
1002.97	227.19
1003.26	227.12
1003.55	226.96
1003.84	227.07
1004.13	227.24
1004.42	227.30
1004.71	227.33
1004.99	227.35
1005.28	227.47
1005.57	227.41
1005.86	227.38
1006.15	227.33
1006.44	227.24
1006.72	227.36
1007.01	227.28
1007.30	227.27
1007.59	227.26
1007.88	227.21
1008.17	227.24
1008.45	227.13
1008.74	226.87
1009.03	226.70
1009.32	226.65
1009.60	226.66
1009.89	226.65
1010.18	226.40
1010.47	226.31
1010.76	226.29
1011.04	226.23
1011.33	226.25
1011.62	226.24
1011.91	226.25
1012.19	226.23
1012.48	226.22
1012.77	226.14
1013.05	226.32
1013.34	226.31
1013.63	226.25
1013.92	226.31
1014.20	226.27
1014.49	226.35
1014.78	226.36
1015.06	226.16
1015.35	226.18
1015.64	226.24
1015.92	226.29
1016.21	226.35
1016.50	226.45
1016.78	226.46
1017.07	226.50
1017.36	226.31
1017.64	226.29
1017.93	226.43
1018.22	226.40
1018.50	226.40
1018.79	226.39
1019.08	226.19
1019.36	226.22
1019.65	226.17
1019.93	226.30
1020.22	226.38
1020.51	226.53
1020.79	226.52
1021.08	225.50
1021.36	225.25
1021.65	226.30
1021.94	226.20
1022.22	226.45
1022.51	224.75
1022.79	228.45
1023.08	227.15
1023.36	231.55
1023.65	224.90
>>>>>End Processed Spectral Data<<<<<
