SpectraSuite Data File
++++++++++++++++++++++++++++++++++++
Date: Wed Sep 04 17:54:57 EDT 2013
User: lab3
Dark Spectrum Present: Yes
Reference Spectrum Present: No
Number of Sampled Component Spectra: 1
Spectrometers: USB2E7196
Integration Time (usec): 170000 (USB2E7196)
Spectra Averaged: 20 (USB2E7196)
Boxcar Smoothing: 10 (USB2E7196)
Correct for Electrical Dark: No (USB2E7196)
Strobe/Lamp Enabled: No (USB2E7196)
Correct for Detector Non-linearity: No (USB2E7196)
Correct for Stray Light: No (USB2E7196)
Number of Pixels in Processed Spectrum: 2048
>>>>>Begin Processed Spectral Data<<<<<
339.09	0.00
339.48	212.80
339.86	215.40
340.24	215.75
340.63	216.40
341.01	224.80
341.39	219.00
341.78	222.60
342.16	223.70
342.54	223.05
342.93	212.05
343.31	222.80
343.69	223.35
344.07	223.80
344.46	224.28
344.84	224.76
345.22	224.76
345.60	225.10
345.99	225.30
346.37	225.42
346.75	225.50
347.13	225.60
347.52	225.65
347.90	225.94
348.28	225.96
348.66	226.13
349.05	225.98
349.43	226.17
349.81	226.25
350.19	226.27
350.57	226.40
350.96	226.47
351.34	226.59
351.72	226.74
352.10	226.84
352.48	226.89
352.87	226.97
353.25	227.06
353.63	227.08
354.01	227.16
354.39	227.22
354.77	227.34
355.15	227.48
355.54	227.50
355.92	227.33
356.30	227.41
356.68	227.80
357.06	227.89
357.44	227.82
357.82	227.90
358.20	228.30
358.58	228.32
358.97	228.41
359.35	228.49
359.73	228.61
360.11	228.66
360.49	228.75
360.87	228.75
361.25	228.89
361.63	229.10
362.01	229.09
362.39	229.15
362.77	229.28
363.15	229.32
363.53	229.42
363.91	229.46
364.29	229.55
364.67	229.09
365.05	229.20
365.43	229.32
365.81	229.40
366.19	229.28
366.57	229.50
366.95	229.48
367.33	229.34
367.71	229.30
368.09	229.42
368.47	229.37
368.85	229.35
369.23	229.42
369.61	229.23
369.99	229.40
370.37	229.48
370.75	229.66
371.13	229.60
371.51	229.50
371.89	229.56
372.27	229.50
372.65	229.50
373.03	229.50
373.41	229.41
373.78	229.36
374.16	229.14
374.54	228.89
374.92	228.76
375.30	228.79
375.68	228.66
376.06	228.59
376.44	228.57
376.82	228.54
377.19	228.43
377.57	228.38
377.95	228.15
378.33	227.99
378.71	227.60
379.09	227.53
379.47	227.58
379.84	227.52
380.22	227.42
380.60	227.26
380.98	227.11
381.36	227.01
381.73	226.87
382.11	226.93
382.49	226.84
382.87	226.80
383.25	226.68
383.62	227.19
384.00	227.04
384.38	226.92
384.76	226.94
385.13	226.99
385.51	226.94
385.89	226.86
386.27	226.86
386.64	226.86
387.02	226.82
387.40	226.75
387.78	226.67
388.15	226.68
388.53	226.64
388.91	226.69
389.29	226.59
389.66	226.65
390.04	226.50
390.42	226.57
390.79	226.57
391.17	226.64
391.55	226.09
391.92	226.04
392.30	226.16
392.68	226.15
393.05	226.07
393.43	226.07
393.81	226.15
394.18	225.96
394.56	226.05
394.94	226.21
395.31	226.12
395.69	226.30
396.06	226.41
396.44	226.46
396.82	226.36
397.19	226.76
397.57	226.79
397.95	226.92
398.32	226.87
398.70	226.99
399.07	227.16
399.45	227.22
399.82	227.38
400.20	227.39
400.58	227.41
400.95	227.41
401.33	227.65
401.70	228.09
402.08	228.36
402.45	228.50
402.83	228.69
403.20	228.86
403.58	228.93
403.95	229.10
404.33	229.35
404.71	229.65
405.08	230.11
405.46	230.27
405.83	230.52
406.21	230.80
406.58	231.07
406.96	231.29
407.33	231.65
407.70	231.98
408.08	232.69
408.45	233.20
408.83	233.65
409.20	233.96
409.58	234.07
409.95	234.58
410.33	235.11
410.70	235.49
411.08	236.17
411.45	236.86
411.82	237.45
412.20	238.26
412.57	239.25
412.95	239.61
413.32	240.46
413.69	241.31
414.07	242.25
414.44	243.21
414.82	244.27
415.19	245.53
415.56	246.75
415.94	247.73
416.31	249.10
416.68	250.62
417.06	252.32
417.43	253.95
417.81	255.72
418.18	257.49
418.55	259.54
418.93	261.52
419.30	263.60
419.67	265.84
420.04	268.10
420.42	270.36
420.79	273.34
421.16	276.18
421.54	279.28
421.91	282.27
422.28	285.44
422.66	288.63
423.03	291.95
423.40	295.22
423.77	298.78
424.15	302.38
424.52	306.14
424.89	310.26
425.26	314.17
425.64	317.84
426.01	321.95
426.38	326.21
426.75	330.90
427.13	335.51
427.50	340.27
427.87	345.08
428.24	349.96
428.61	354.52
428.99	359.79
429.36	365.12
429.73	370.65
430.10	376.08
430.47	381.88
430.85	387.51
431.22	393.68
431.59	400.49
431.96	406.74
432.33	413.57
432.70	420.21
433.08	428.21
433.45	435.71
433.82	443.12
434.19	451.40
434.56	459.46
434.93	466.93
435.30	474.70
435.68	483.40
436.05	491.92
436.42	500.19
436.79	507.90
437.16	516.23
437.53	525.06
437.90	533.86
438.27	542.25
438.64	551.20
439.01	559.55
439.38	566.65
439.75	573.70
440.13	581.74
440.50	589.23
440.87	595.19
441.24	601.56
441.61	608.53
441.98	613.55
442.35	619.23
442.72	625.38
443.09	631.22
443.46	634.69
443.83	637.04
444.20	638.99
444.57	641.74
444.94	642.88
445.31	643.90
445.68	645.18
446.05	645.50
446.42	644.06
446.79	642.62
447.16	641.09
447.53	639.87
447.90	636.20
448.27	632.62
448.64	627.90
449.01	624.06
449.37	617.99
449.74	611.90
450.11	604.96
450.48	597.15
450.85	589.09
451.22	582.22
451.59	575.47
451.96	569.13
452.33	560.92
452.70	553.46
453.07	544.73
453.43	535.62
453.80	527.12
454.17	519.23
454.54	511.50
454.91	503.35
455.28	495.35
455.65	487.91
456.02	481.00
456.38	474.49
456.75	466.91
457.12	460.32
457.49	454.02
457.86	447.83
458.23	442.76
458.59	437.06
458.96	431.16
459.33	426.14
459.70	421.06
460.07	417.05
460.43	412.46
460.80	408.20
461.17	404.50
461.54	400.63
461.91	396.78
462.27	392.99
462.64	389.75
463.01	386.25
463.38	382.95
463.74	378.97
464.11	376.07
464.48	373.32
464.85	370.62
465.21	368.60
465.58	366.23
465.95	363.35
466.32	361.07
466.68	358.89
467.05	356.64
467.42	354.40
467.78	352.09
468.15	350.04
468.52	348.46
468.88	346.12
469.25	344.20
469.62	342.77
469.98	341.15
470.35	339.58
470.72	338.10
471.08	336.40
471.45	335.15
471.82	333.90
472.18	332.58
472.55	331.39
472.92	329.94
473.28	328.94
473.65	327.87
474.02	326.87
474.38	326.00
474.75	325.16
475.11	324.40
475.48	323.75
475.85	323.08
476.21	322.37
476.58	322.02
476.94	321.71
477.31	321.22
477.67	320.74
478.04	320.35
478.41	320.15
478.77	320.55
479.14	320.29
479.50	320.07
479.87	320.11
480.23	320.19
480.60	320.24
480.96	320.07
481.33	320.37
481.69	320.55
482.06	320.70
482.42	321.01
482.79	321.37
483.15	321.82
483.52	322.41
483.88	322.87
484.25	323.37
484.61	323.90
484.98	324.53
485.34	325.54
485.71	326.58
486.07	327.58
486.44	328.06
486.80	329.10
487.17	330.30
487.53	331.68
487.90	333.08
488.26	334.64
488.62	336.39
488.99	337.99
489.35	339.84
489.72	341.75
490.08	343.75
490.44	345.75
490.81	347.87
491.17	350.08
491.54	352.65
491.90	355.29
492.26	358.00
492.63	360.86
492.99	363.64
493.36	366.65
493.72	369.83
494.08	373.33
494.45	377.09
494.81	381.05
495.17	384.88
495.54	389.05
495.90	393.42
496.26	397.95
496.63	402.59
496.99	407.30
497.35	412.43
497.72	417.71
498.08	423.21
498.44	428.88
498.80	434.88
499.17	440.95
499.53	447.26
499.89	453.91
500.26	460.77
500.62	467.74
500.98	475.09
501.34	482.46
501.71	490.18
502.07	497.96
502.43	506.00
502.79	514.59
503.16	523.28
503.52	532.12
503.88	541.28
504.24	551.02
504.60	561.00
504.97	571.23
505.33	581.61
505.69	592.62
506.05	603.62
506.41	614.79
506.78	626.43
507.14	638.34
507.50	650.74
507.86	663.26
508.22	676.18
508.59	689.29
508.95	703.26
509.31	717.10
509.67	731.40
510.03	745.71
510.39	760.32
510.75	775.23
511.12	790.44
511.48	806.07
511.84	821.58
512.20	837.50
512.56	853.78
512.92	870.50
513.28	887.31
513.64	904.57
514.00	922.05
514.37	939.87
514.73	958.02
515.09	976.13
515.45	994.52
515.81	1013.12
516.17	1031.86
516.53	1050.24
516.89	1069.15
517.25	1088.51
517.61	1108.55
517.97	1128.74
518.33	1148.60
518.69	1168.85
519.05	1189.63
519.41	1210.38
519.77	1231.48
520.13	1252.25
520.49	1272.94
520.85	1295.16
521.21	1316.20
521.57	1337.65
521.93	1358.21
522.29	1379.25
522.65	1400.04
523.01	1421.10
523.37	1441.74
523.73	1462.80
524.09	1483.35
524.45	1504.08
524.81	1525.10
525.17	1545.71
525.53	1566.04
525.89	1587.21
526.25	1608.10
526.61	1628.21
526.97	1648.98
527.33	1670.38
527.68	1692.24
528.04	1713.34
528.40	1733.21
528.76	1754.39
529.12	1774.72
529.48	1795.83
529.84	1816.03
530.20	1837.17
530.56	1857.76
530.91	1878.91
531.27	1899.41
531.63	1919.99
531.99	1940.62
532.35	1960.62
532.71	1981.10
533.07	2001.65
533.42	2021.19
533.78	2041.02
534.14	2060.95
534.50	2080.23
534.86	2099.04
535.21	2116.57
535.57	2135.04
535.93	2152.65
536.29	2170.39
536.65	2188.48
537.00	2205.80
537.36	2223.36
537.72	2239.60
538.08	2256.73
538.44	2273.26
538.79	2289.46
539.15	2306.19
539.51	2321.86
539.87	2336.84
540.22	2350.79
540.58	2365.45
540.94	2378.94
541.29	2391.65
541.65	2403.97
542.01	2416.39
542.37	2426.85
542.72	2437.65
543.08	2448.20
543.44	2459.76
543.79	2469.73
544.15	2479.71
544.51	2489.82
544.87	2499.11
545.22	2507.64
545.58	2514.99
545.94	2521.99
546.29	2528.81
546.65	2534.97
547.01	2540.47
547.36	2546.35
547.72	2551.57
548.07	2555.32
548.43	2560.59
548.79	2565.24
549.14	2569.62
549.50	2573.52
549.86	2577.60
550.21	2581.08
550.57	2584.63
550.92	2585.85
551.28	2587.09
551.64	2589.04
551.99	2590.73
552.35	2592.55
552.70	2594.70
553.06	2596.65
553.41	2597.80
553.77	2599.36
554.13	2601.01
554.48	2602.85
554.84	2604.05
555.19	2605.37
555.55	2607.22
555.90	2606.65
556.26	2605.86
556.61	2604.34
556.97	2602.10
557.32	2601.42
557.68	2600.64
558.03	2599.27
558.39	2598.05
558.74	2597.46
559.10	2594.45
559.45	2590.93
559.81	2586.62
560.16	2581.46
560.52	2576.90
560.87	2572.70
561.23	2567.43
561.58	2561.42
561.94	2554.78
562.29	2547.32
562.64	2540.68
563.00	2532.22
563.35	2525.53
563.71	2518.67
564.06	2512.21
564.42	2505.92
564.77	2499.18
565.12	2491.63
565.48	2483.99
565.83	2476.15
566.19	2467.69
566.54	2459.80
566.89	2451.72
567.25	2443.86
567.60	2436.72
567.96	2428.80
568.31	2420.63
568.66	2411.89
569.02	2402.96
569.37	2394.81
569.72	2387.39
570.08	2377.65
570.43	2368.06
570.78	2358.89
571.14	2349.46
571.49	2338.98
571.84	2329.21
572.20	2318.31
572.55	2308.19
572.90	2297.04
573.26	2286.73
573.61	2275.77
573.96	2264.70
574.31	2252.96
574.67	2241.10
575.02	2228.47
575.37	2215.77
575.72	2202.65
576.08	2190.74
576.43	2178.06
576.78	2164.53
577.13	2150.37
577.49	2137.71
577.84	2126.05
578.19	2113.96
578.54	2101.41
578.90	2089.68
579.25	2077.42
579.60	2064.95
579.95	2051.98
580.30	2039.11
580.66	2025.66
581.01	2012.24
581.36	1998.37
581.71	1985.48
582.06	1972.58
582.42	1959.99
582.77	1947.36
583.12	1935.52
583.47	1922.79
583.82	1910.83
584.17	1898.84
584.53	1887.21
584.88	1874.25
585.23	1861.03
585.58	1846.83
585.93	1833.55
586.28	1820.29
586.63	1806.20
586.98	1791.80
587.34	1778.40
587.69	1765.36
588.04	1752.68
588.39	1740.60
588.74	1728.50
589.09	1716.43
589.44	1703.76
589.79	1691.74
590.14	1680.13
590.49	1667.77
590.84	1655.70
591.19	1643.93
591.54	1631.65
591.89	1619.75
592.25	1609.73
592.60	1598.36
592.95	1587.13
593.30	1575.39
593.65	1563.48
594.00	1551.71
594.35	1542.26
594.70	1530.66
595.05	1518.96
595.40	1507.22
595.75	1495.31
596.10	1484.00
596.45	1472.60
596.80	1461.68
597.15	1450.28
597.50	1438.18
597.85	1426.95
598.19	1415.55
598.54	1403.71
598.89	1392.82
599.24	1382.19
599.59	1370.49
599.94	1359.49
600.29	1349.19
600.64	1338.96
600.99	1328.52
601.34	1318.93
601.69	1307.36
602.04	1297.52
602.39	1287.85
602.74	1278.40
603.08	1269.03
603.43	1259.72
603.78	1250.03
604.13	1240.83
604.48	1231.19
604.83	1221.73
605.18	1212.16
605.53	1202.60
605.87	1193.36
606.22	1184.81
606.57	1175.35
606.92	1165.91
607.27	1157.38
607.62	1148.51
607.96	1139.95
608.31	1131.88
608.66	1123.41
609.01	1115.15
609.36	1106.73
609.70	1098.23
610.05	1089.76
610.40	1081.31
610.75	1072.60
611.10	1064.37
611.44	1055.41
611.79	1047.36
612.14	1039.42
612.49	1031.41
612.83	1023.96
613.18	1016.28
613.53	1008.40
613.88	1000.43
614.22	992.90
614.57	984.72
614.92	976.80
615.27	969.21
615.61	961.39
615.96	953.75
616.31	946.34
616.65	939.36
617.00	932.12
617.35	924.89
617.70	917.71
618.04	910.49
618.39	903.26
618.74	896.97
619.08	889.89
619.43	882.93
619.78	876.08
620.12	868.65
620.47	861.82
620.82	854.59
621.16	847.75
621.51	841.21
621.85	834.96
622.20	828.42
622.55	821.77
622.89	815.31
623.24	809.17
623.59	802.56
623.93	795.81
624.28	789.58
624.62	783.79
624.97	778.11
625.32	772.28
625.66	766.27
626.01	760.03
626.35	754.55
626.70	748.93
627.04	743.41
627.39	737.98
627.73	732.65
628.08	727.53
628.43	722.27
628.77	716.88
629.12	711.55
629.46	706.80
629.81	702.19
630.15	697.41
630.50	692.27
630.84	687.59
631.19	682.93
631.53	678.30
631.88	673.08
632.22	668.08
632.57	663.75
632.91	659.42
633.26	655.20
633.60	650.63
633.95	645.99
634.29	641.27
634.64	636.94
634.98	632.13
635.32	627.79
635.67	623.81
636.01	619.59
636.36	615.23
636.70	611.15
637.05	606.77
637.39	602.78
637.73	598.81
638.08	594.82
638.42	590.79
638.77	586.51
639.11	582.26
639.45	577.98
639.80	573.56
640.14	569.44
640.49	565.33
640.83	561.44
641.17	557.87
641.52	554.18
641.86	550.53
642.20	547.33
642.55	543.59
642.89	539.86
643.23	536.35
643.58	533.15
643.92	529.37
644.26	525.98
644.61	522.69
644.95	519.43
645.29	516.04
645.64	513.00
645.98	509.95
646.32	507.07
646.66	504.04
647.01	501.22
647.35	498.50
647.69	495.64
648.04	492.83
648.38	490.00
648.72	487.11
649.06	484.16
649.41	480.96
649.75	478.00
650.09	475.17
650.43	472.42
650.78	469.55
651.12	466.82
651.46	464.13
651.80	461.34
652.14	458.42
652.49	455.89
652.83	453.22
653.17	450.62
653.51	447.99
653.85	445.61
654.20	443.12
654.54	440.45
654.88	437.94
655.22	435.84
655.56	433.42
655.90	431.14
656.25	428.89
656.59	426.83
656.93	424.78
657.27	422.73
657.61	420.29
657.95	418.05
658.29	415.89
658.64	413.84
658.98	411.61
659.32	409.48
659.66	407.26
660.00	405.06
660.34	403.06
660.68	401.01
661.02	398.88
661.36	396.88
661.70	394.95
662.05	393.12
662.39	391.04
662.73	389.18
663.07	387.61
663.41	385.83
663.75	383.95
664.09	382.00
664.43	380.00
664.77	378.40
665.11	376.64
665.45	374.86
665.79	373.01
666.13	371.35
666.47	369.68
666.81	368.05
667.15	366.44
667.49	364.86
667.83	363.52
668.17	362.11
668.51	360.64
668.85	359.33
669.19	358.01
669.53	356.36
669.87	354.84
670.21	353.15
670.55	351.63
670.89	350.53
671.23	349.31
671.57	347.96
671.91	346.60
672.25	345.27
672.58	344.15
672.92	342.83
673.26	341.50
673.60	340.42
673.94	339.26
674.28	338.09
674.62	336.98
674.96	335.66
675.30	334.48
675.64	333.34
675.97	332.04
676.31	330.65
676.65	329.47
676.99	328.48
677.33	327.34
677.67	326.27
678.01	324.90
678.34	323.75
678.68	322.79
679.02	321.72
679.36	320.79
679.70	319.73
680.04	318.82
680.37	317.82
680.71	316.80
681.05	315.84
681.39	314.88
681.73	313.86
682.06	312.88
682.40	311.90
682.74	311.01
683.08	310.27
683.42	309.35
683.75	308.61
684.09	307.67
684.43	306.95
684.77	306.13
685.10	305.39
685.44	304.61
685.78	303.75
686.12	303.01
686.45	302.20
686.79	301.38
687.13	300.64
687.46	299.96
687.80	299.30
688.14	298.42
688.48	297.75
688.81	297.05
689.15	296.46
689.49	295.71
689.82	295.00
690.16	294.10
690.50	293.44
690.83	292.74
691.17	291.94
691.51	291.25
691.84	290.67
692.18	289.95
692.52	289.25
692.85	288.69
693.19	288.18
693.52	287.63
693.86	287.02
694.20	286.41
694.53	285.87
694.87	285.18
695.21	284.61
695.54	283.93
695.88	283.26
696.21	282.46
696.55	281.89
696.88	281.27
697.22	280.62
697.56	280.08
697.89	279.43
698.23	278.96
698.56	278.26
698.90	277.77
699.23	277.17
699.57	276.70
699.90	276.09
700.24	275.49
700.58	275.00
700.91	274.51
701.25	274.44
701.58	274.20
701.92	273.86
702.25	273.46
702.59	272.99
702.92	272.56
703.26	272.32
703.59	271.98
703.93	271.99
704.26	271.73
704.60	271.32
704.93	270.92
705.26	270.41
705.60	270.21
705.93	269.68
706.27	269.52
706.60	269.22
706.94	269.18
707.27	268.80
707.61	268.40
707.94	268.03
708.27	267.27
708.61	266.52
708.94	266.00
709.28	265.63
709.61	265.31
709.94	265.05
710.28	264.62
710.61	264.31
710.95	263.50
711.28	263.47
711.61	263.14
711.95	262.98
712.28	262.68
712.61	262.28
712.95	262.19
713.28	262.05
713.61	261.65
713.95	261.02
714.28	260.70
714.61	260.34
714.95	260.00
715.28	259.55
715.61	259.20
715.95	258.93
716.28	258.55
716.61	258.31
716.95	257.94
717.28	257.55
717.61	257.12
717.94	256.78
718.28	256.09
718.61	255.78
718.94	255.33
719.27	255.03
719.61	254.78
719.94	254.42
720.27	253.84
720.60	253.55
720.94	253.28
721.27	253.06
721.60	252.88
721.93	252.66
722.27	252.58
722.60	252.48
722.93	252.26
723.26	252.06
723.59	251.67
723.93	251.44
724.26	251.34
724.59	251.11
724.92	250.91
725.25	250.83
725.59	250.55
725.92	250.46
726.25	250.23
726.58	250.00
726.91	249.72
727.24	249.65
727.57	249.43
727.91	249.25
728.24	249.05
728.57	248.78
728.90	248.65
729.23	248.36
729.56	248.35
729.89	248.15
730.22	248.04
730.55	247.87
730.89	247.74
731.22	247.50
731.55	247.35
731.88	247.15
732.21	246.91
732.54	246.81
732.87	246.55
733.20	246.43
733.53	246.24
733.86	246.11
734.19	245.85
734.52	245.72
734.85	245.82
735.18	245.56
735.51	245.54
735.84	245.39
736.17	245.39
736.50	244.96
736.83	245.31
737.16	245.15
737.49	245.09
737.82	244.86
738.15	244.85
738.48	244.73
738.81	244.61
739.14	244.44
739.47	244.23
739.80	244.10
740.13	244.00
740.46	243.90
740.79	243.75
741.12	243.59
741.45	243.45
741.78	243.10
742.11	243.11
742.44	242.91
742.77	242.77
743.10	242.55
743.43	242.36
743.75	241.80
744.08	242.24
744.41	242.04
744.74	241.87
745.07	241.58
745.40	241.53
745.73	241.71
746.06	241.59
746.39	241.53
746.71	241.34
747.04	241.21
747.37	241.02
747.70	240.93
748.03	240.84
748.36	240.78
748.68	240.64
749.01	240.48
749.34	240.37
749.67	240.29
750.00	240.22
750.33	240.54
750.65	240.45
750.98	239.70
751.31	239.58
751.64	239.49
751.97	239.60
752.29	239.48
752.62	239.11
752.95	238.95
753.28	238.81
753.60	238.76
753.93	238.73
754.26	238.65
754.59	238.39
754.91	238.21
755.24	237.99
755.57	237.84
755.90	237.73
756.22	237.47
756.55	237.27
756.88	237.04
757.20	236.60
757.53	236.36
757.86	236.21
758.19	236.18
758.51	236.09
758.84	235.78
759.17	235.59
759.49	235.46
759.82	235.59
760.15	235.55
760.47	235.38
760.80	235.15
761.13	235.13
761.45	235.14
761.78	235.10
762.11	235.06
762.43	234.94
762.76	234.84
763.08	234.84
763.41	234.79
763.74	234.73
764.06	234.63
764.39	234.56
764.71	234.52
765.04	234.36
765.37	234.26
765.69	234.22
766.02	234.13
766.34	234.09
766.67	233.85
767.00	233.80
767.32	234.07
767.65	234.29
767.97	234.24
768.30	234.15
768.62	234.02
768.95	233.87
769.27	233.76
769.60	233.78
769.92	233.63
770.25	233.50
770.57	233.42
770.90	233.30
771.22	233.12
771.55	233.06
771.87	233.06
772.20	232.93
772.52	233.29
772.85	233.85
773.17	233.71
773.50	233.63
773.82	233.56
774.15	233.21
774.47	232.86
774.80	232.74
775.12	232.64
775.45	232.56
775.77	232.57
776.09	232.64
776.42	232.52
776.74	232.69
777.07	232.59
777.39	232.60
777.72	232.54
778.04	232.65
778.36	232.57
778.69	232.51
779.01	232.53
779.33	232.02
779.66	231.41
779.98	231.36
780.31	231.34
780.63	231.47
780.95	231.50
781.28	231.41
781.60	231.30
781.92	231.31
782.25	231.37
782.57	231.32
782.89	231.19
783.22	231.12
783.54	230.94
783.86	230.98
784.19	230.85
784.51	230.97
784.83	230.81
785.16	230.80
785.48	230.79
785.80	230.79
786.12	230.89
786.45	230.80
786.77	230.86
787.09	230.80
787.42	230.58
787.74	230.60
788.06	230.64
788.38	230.56
788.71	230.47
789.03	230.42
789.35	230.40
789.67	230.29
789.99	230.25
790.32	230.18
790.64	230.20
790.96	230.58
791.28	230.39
791.61	230.43
791.93	230.43
792.25	230.30
792.57	230.65
792.89	230.43
793.21	230.51
793.54	230.43
793.86	230.39
794.18	230.42
794.50	230.35
794.82	230.30
795.14	230.35
795.47	230.47
795.79	230.49
796.11	230.41
796.43	230.48
796.75	230.54
797.07	230.59
797.39	230.55
797.71	230.27
798.04	230.33
798.36	230.24
798.68	230.20
799.00	230.26
799.32	229.94
799.64	230.08
799.96	229.95
800.28	230.02
800.60	229.99
800.92	230.00
801.24	229.84
801.56	229.80
801.89	229.80
802.21	229.73
802.53	229.61
802.85	229.68
803.17	229.83
803.49	229.70
803.81	229.63
804.13	229.58
804.45	229.37
804.77	229.37
805.09	229.38
805.41	229.27
805.73	229.12
806.05	229.05
806.37	228.98
806.69	228.90
807.01	228.82
807.33	228.85
807.65	228.63
807.97	228.83
808.28	228.83
808.60	228.80
808.92	228.79
809.24	229.02
809.56	228.92
809.88	228.78
810.20	228.81
810.52	228.87
810.84	228.74
811.16	228.64
811.48	228.58
811.80	228.75
812.12	228.74
812.43	228.90
812.75	228.90
813.07	228.78
813.39	228.85
813.71	228.81
814.03	228.72
814.35	228.75
814.67	228.55
814.98	228.47
815.30	228.41
815.62	228.29
815.94	228.02
816.26	228.25
816.58	228.12
816.89	228.10
817.21	228.01
817.53	228.09
817.85	228.21
818.17	228.28
818.48	228.06
818.80	228.19
819.12	228.02
819.44	227.90
819.76	227.89
820.07	227.90
820.39	227.76
820.71	227.83
821.03	227.78
821.34	227.83
821.66	227.94
821.98	227.99
822.30	227.94
822.61	228.23
822.93	227.97
823.25	228.00
823.57	228.02
823.88	228.05
824.20	228.02
824.52	228.11
824.83	228.06
825.15	227.99
825.47	227.95
825.79	227.99
826.10	227.94
826.42	227.87
826.74	227.87
827.05	228.00
827.37	228.00
827.69	228.03
828.00	228.00
828.32	227.93
828.64	227.90
828.95	228.20
829.27	227.99
829.58	228.05
829.90	228.10
830.22	228.12
830.53	228.00
830.85	227.91
831.17	227.75
831.48	227.70
831.80	227.79
832.11	227.76
832.43	227.70
832.75	227.81
833.06	228.23
833.38	228.12
833.69	228.06
834.01	228.09
834.32	228.07
834.64	228.07
834.96	228.13
835.27	228.11
835.59	227.87
835.90	227.83
836.22	227.73
836.53	227.68
836.85	227.58
837.16	228.09
837.48	228.19
837.79	228.38
838.11	228.39
838.42	228.37
838.74	228.45
839.05	228.46
839.37	228.40
839.68	227.99
840.00	227.98
840.31	228.07
840.63	227.97
840.94	228.00
841.26	227.93
841.57	227.86
841.88	227.89
842.20	227.83
842.51	227.77
842.83	227.91
843.14	228.26
843.46	228.31
843.77	228.05
844.08	227.94
844.40	227.77
844.71	227.70
845.03	227.62
845.34	227.57
845.65	227.55
845.97	227.58
846.28	227.68
846.60	227.72
846.91	227.63
847.22	227.61
847.54	227.62
847.85	227.66
848.16	227.64
848.48	227.56
848.79	227.77
849.10	227.78
849.42	227.73
849.73	227.29
850.04	227.12
850.36	226.99
850.67	227.13
850.98	227.17
851.30	227.27
851.61	227.27
851.92	227.24
852.23	227.36
852.55	227.41
852.86	227.35
853.17	227.40
853.49	227.50
853.80	227.65
854.11	227.75
854.42	227.79
854.74	227.72
855.05	227.74
855.36	227.49
855.67	227.52
855.99	227.48
856.30	228.03
856.61	228.21
856.92	228.16
857.23	228.09
857.55	228.02
857.86	227.93
858.17	228.02
858.48	227.99
858.79	227.90
859.11	227.92
859.42	227.87
859.73	227.83
860.04	227.84
860.35	227.60
860.66	227.39
860.98	227.43
861.29	227.47
861.60	227.46
861.91	227.59
862.22	227.60
862.53	227.59
862.84	227.06
863.16	227.06
863.47	227.04
863.78	227.03
864.09	227.17
864.40	227.28
864.71	227.30
865.02	227.34
865.33	227.30
865.64	227.20
865.95	227.28
866.27	227.51
866.58	227.44
866.89	227.61
867.20	227.62
867.51	227.46
867.82	227.52
868.13	227.62
868.44	227.59
868.75	227.66
869.06	227.63
869.37	227.72
869.68	227.66
869.99	227.77
870.30	227.75
870.61	227.73
870.92	227.64
871.23	227.58
871.54	227.67
871.85	227.78
872.16	227.79
872.47	227.69
872.78	227.44
873.09	227.42
873.40	227.34
873.71	227.39
874.02	227.46
874.33	227.36
874.64	227.30
874.95	227.33
875.26	227.20
875.56	227.22
875.87	227.15
876.18	227.12
876.49	227.54
876.80	227.49
877.11	227.33
877.42	227.31
877.73	227.33
878.04	227.14
878.35	227.10
878.66	227.20
878.96	227.21
879.27	227.17
879.58	227.18
879.89	227.13
880.20	227.28
880.51	227.26
880.82	227.29
881.12	227.31
881.43	227.20
881.74	227.10
882.05	227.04
882.36	227.01
882.67	227.07
882.97	226.53
883.28	226.50
883.59	226.55
883.90	226.59
884.21	226.61
884.51	226.70
884.82	226.63
885.13	226.53
885.44	226.49
885.74	226.55
886.05	226.54
886.36	226.43
886.67	226.28
886.98	226.44
887.28	226.42
887.59	226.38
887.90	226.39
888.20	226.37
888.51	226.46
888.82	226.46
889.13	226.48
889.43	226.94
889.74	227.00
890.05	226.89
890.35	226.80
890.66	226.73
890.97	226.60
891.28	226.55
891.58	226.54
891.89	226.58
892.20	226.53
892.50	226.47
892.81	226.55
893.12	226.50
893.42	226.31
893.73	226.30
894.04	226.27
894.34	226.32
894.65	226.38
894.95	226.31
895.26	226.30
895.57	226.48
895.87	225.96
896.18	225.93
896.48	226.02
896.79	226.09
897.10	226.19
897.40	226.25
897.71	226.35
898.01	226.29
898.32	226.33
898.63	226.29
898.93	226.33
899.24	226.38
899.54	226.43
899.85	226.45
900.15	226.48
900.46	226.50
900.76	226.60
901.07	226.59
901.38	226.67
901.68	226.81
901.99	226.58
902.29	226.64
902.60	226.68
902.90	226.70
903.21	226.65
903.51	226.64
903.82	226.77
904.12	226.67
904.43	226.72
904.73	226.73
905.03	226.80
905.34	227.25
905.64	227.19
905.95	227.16
906.25	227.18
906.56	227.27
906.86	227.30
907.17	227.24
907.47	227.19
907.77	227.07
908.08	226.95
908.38	227.01
908.69	227.12
908.99	227.23
909.30	227.25
909.60	227.30
909.90	227.35
910.21	227.22
910.51	227.29
910.81	227.31
911.12	227.36
911.42	227.34
911.73	226.92
912.03	226.96
912.33	227.11
912.64	227.11
912.94	226.97
913.24	226.86
913.55	226.82
913.85	226.89
914.15	226.98
914.46	227.05
914.76	226.98
915.06	226.92
915.37	226.80
915.67	226.73
915.97	226.73
916.27	226.63
916.58	226.60
916.88	226.51
917.18	226.53
917.49	226.87
917.79	226.88
918.09	226.86
918.39	227.04
918.70	226.92
919.00	226.87
919.30	227.10
919.60	227.12
919.91	227.00
920.21	227.01
920.51	226.91
920.81	226.78
921.12	226.85
921.42	226.72
921.72	226.76
922.02	226.79
922.32	226.85
922.63	226.80
922.93	227.06
923.23	227.11
923.53	227.07
923.83	226.69
924.13	226.74
924.44	226.70
924.74	226.71
925.04	226.85
925.34	226.84
925.64	226.69
925.94	226.61
926.24	226.87
926.55	226.85
926.85	226.94
927.15	226.97
927.45	226.95
927.75	227.04
928.05	227.10
928.35	227.04
928.65	227.11
928.95	227.15
929.26	226.98
929.56	227.04
929.86	227.08
930.16	227.05
930.46	226.97
930.76	227.05
931.06	226.80
931.36	226.64
931.66	226.70
931.96	226.65
932.26	226.72
932.56	226.49
932.86	226.44
933.16	226.43
933.46	226.46
933.76	226.37
934.06	226.42
934.36	226.51
934.66	226.57
934.96	226.48
935.26	226.52
935.56	226.54
935.86	226.43
936.16	226.41
936.46	226.44
936.76	226.45
937.06	226.30
937.36	226.43
937.66	226.49
937.96	226.50
938.26	226.42
938.56	226.38
938.86	226.49
939.16	226.59
939.46	226.57
939.76	226.56
940.06	226.55
940.35	226.48
940.65	226.24
940.95	226.24
941.25	226.17
941.55	226.10
941.85	226.08
942.15	226.28
942.45	226.33
942.75	226.24
943.04	226.23
943.34	226.45
943.64	226.36
943.94	226.23
944.24	226.27
944.54	226.32
944.84	226.39
945.13	226.26
945.43	226.24
945.73	226.27
946.03	226.23
946.33	226.19
946.62	226.17
946.92	226.25
947.22	226.30
947.52	226.28
947.82	226.37
948.11	226.33
948.41	226.13
948.71	226.05
949.01	226.11
949.31	226.13
949.60	226.01
949.90	226.05
950.20	226.12
950.50	226.05
950.79	226.02
951.09	226.04
951.39	226.10
951.69	226.03
951.98	226.10
952.28	226.13
952.58	226.20
952.87	226.15
953.17	226.14
953.47	225.99
953.76	226.05
954.06	225.99
954.36	225.92
954.66	225.95
954.95	226.13
955.25	226.19
955.55	226.16
955.84	226.05
956.14	226.11
956.44	226.10
956.73	226.05
957.03	226.11
957.32	226.18
957.62	226.10
957.92	226.22
958.21	226.22
958.51	226.81
958.81	226.84
959.10	226.91
959.40	227.04
959.69	227.22
959.99	227.28
960.29	227.29
960.58	227.26
960.88	227.42
961.17	227.30
961.47	227.33
961.76	227.35
962.06	227.58
962.36	227.51
962.65	227.63
962.95	227.66
963.24	227.58
963.54	227.56
963.83	227.65
964.13	227.62
964.42	227.44
964.72	227.08
965.01	227.01
965.31	227.00
965.60	226.91
965.90	227.11
966.19	226.95
966.49	226.92
966.78	226.89
967.08	226.86
967.37	226.81
967.67	226.67
967.96	226.72
968.26	226.58
968.55	226.67
968.85	226.59
969.14	226.61
969.43	226.64
969.73	226.54
970.02	226.51
970.32	226.46
970.61	226.53
970.91	226.38
971.20	226.33
971.49	226.32
971.79	226.35
972.08	226.07
972.38	226.14
972.67	226.19
972.96	226.30
973.26	226.16
973.55	226.41
973.85	226.37
974.14	226.32
974.43	226.33
974.73	226.18
975.02	226.15
975.31	226.13
975.61	226.16
975.90	226.16
976.19	226.10
976.49	226.12
976.78	226.14
977.07	226.10
977.37	226.14
977.66	226.15
977.95	226.06
978.24	225.99
978.54	226.12
978.83	226.05
979.12	226.06
979.42	226.12
979.71	225.92
980.00	225.98
980.29	226.01
980.59	225.98
980.88	226.09
981.17	226.08
981.46	226.05
981.76	226.05
982.05	226.21
982.34	226.32
982.63	226.31
982.93	226.31
983.22	226.49
983.51	226.55
983.80	226.67
984.09	226.81
984.39	226.82
984.68	226.66
984.97	226.66
985.26	226.65
985.55	226.65
985.85	226.62
986.14	226.65
986.43	226.72
986.72	226.73
987.01	226.63
987.30	226.60
987.59	226.60
987.89	226.57
988.18	226.41
988.47	226.32
988.76	226.31
989.05	226.24
989.34	226.08
989.63	226.20
989.92	226.07
990.22	225.97
990.51	225.99
990.80	226.01
991.09	226.13
991.38	226.20
991.67	226.17
991.96	226.14
992.25	226.14
992.54	226.03
992.83	226.03
993.12	226.05
993.41	226.09
993.70	226.27
993.99	226.40
994.28	226.46
994.58	226.54
994.87	226.51
995.16	226.52
995.45	226.53
995.74	226.32
996.03	226.39
996.32	226.41
996.61	226.50
996.90	226.46
997.19	226.36
997.48	226.33
997.77	226.28
998.06	226.25
998.34	226.21
998.63	226.17
998.92	226.16
999.21	226.20
999.50	226.23
999.79	226.06
1000.08	226.04
1000.37	226.00
1000.66	225.95
1000.95	226.06
1001.24	226.06
1001.53	226.05
1001.82	226.06
1002.11	225.95
1002.40	226.02
1002.68	226.06
1002.97	226.39
1003.26	226.32
1003.55	226.17
1003.84	226.15
1004.13	226.34
1004.42	226.31
1004.71	226.32
1004.99	226.32
1005.28	226.44
1005.57	226.42
1005.86	226.36
1006.15	226.25
1006.44	226.22
1006.72	226.28
1007.01	226.20
1007.30	226.21
1007.59	226.21
1007.88	226.25
1008.17	226.27
1008.45	226.14
1008.74	225.97
1009.03	225.79
1009.32	225.80
1009.60	225.85
1009.89	225.81
1010.18	225.61
1010.47	225.57
1010.76	225.60
1011.04	225.55
1011.33	225.51
1011.62	225.55
1011.91	225.63
1012.19	225.71
1012.48	225.70
1012.77	225.65
1013.05	225.83
1013.34	225.81
1013.63	225.77
1013.92	225.76
1014.20	225.74
1014.49	225.76
1014.78	225.88
1015.06	225.75
1015.35	225.74
1015.64	225.84
1015.92	225.99
1016.21	226.00
1016.50	226.04
1016.78	226.13
1017.07	226.16
1017.36	226.05
1017.64	225.99
1017.93	226.10
1018.22	226.04
1018.50	226.03
1018.79	226.09
1019.08	225.89
1019.36	225.95
1019.65	226.00
1019.93	226.19
1020.22	226.30
1020.51	226.59
1020.79	226.45
1021.08	225.35
1021.36	224.35
1021.65	226.95
1021.94	226.00
1022.22	226.15
1022.51	226.80
1022.79	229.55
1023.08	227.10
1023.36	232.75
1023.65	224.00
>>>>>End Processed Spectral Data<<<<<
