SpectraSuite Data File
++++++++++++++++++++++++++++++++++++
Date: Wed Sep 04 17:55:32 EDT 2013
User: lab3
Dark Spectrum Present: Yes
Reference Spectrum Present: No
Number of Sampled Component Spectra: 1
Spectrometers: USB2E7196
Integration Time (usec): 170000 (USB2E7196)
Spectra Averaged: 20 (USB2E7196)
Boxcar Smoothing: 10 (USB2E7196)
Correct for Electrical Dark: No (USB2E7196)
Strobe/Lamp Enabled: No (USB2E7196)
Correct for Detector Non-linearity: No (USB2E7196)
Correct for Stray Light: No (USB2E7196)
Number of Pixels in Processed Spectrum: 2048
>>>>>Begin Processed Spectral Data<<<<<
339.09	0.00
339.48	213.55
339.86	214.85
340.24	215.50
340.63	216.55
341.01	227.55
341.39	220.55
341.78	221.30
342.16	223.35
342.54	223.85
342.93	212.50
343.31	223.19
343.69	223.68
344.07	224.13
344.46	224.61
344.84	225.02
345.22	224.90
345.60	225.22
345.99	225.45
346.37	225.58
346.75	225.63
347.13	225.69
347.52	225.66
347.90	225.94
348.28	226.00
348.66	226.18
349.05	226.02
349.43	226.08
349.81	226.09
350.19	226.13
350.57	226.22
350.96	226.34
351.34	226.46
351.72	226.59
352.10	226.66
352.48	226.71
352.87	226.80
353.25	226.85
353.63	226.82
354.01	226.84
354.39	226.92
354.77	226.98
355.15	227.10
355.54	227.19
355.92	227.03
356.30	227.10
356.68	227.39
357.06	227.45
357.44	227.46
357.82	227.51
358.20	227.99
358.58	228.04
358.97	228.01
359.35	228.18
359.73	228.35
360.11	228.41
360.49	228.49
360.87	228.54
361.25	228.69
361.63	228.87
362.01	228.92
362.39	228.94
362.77	229.07
363.15	229.14
363.53	229.18
363.91	229.26
364.29	229.34
364.67	228.98
365.05	229.11
365.43	229.26
365.81	229.34
366.19	229.21
366.57	229.37
366.95	229.46
367.33	229.36
367.71	229.34
368.09	229.44
368.47	229.40
368.85	229.46
369.23	229.60
369.61	229.50
369.99	229.70
370.37	229.74
370.75	229.94
371.13	229.87
371.51	229.79
371.89	229.83
372.27	229.81
372.65	229.83
373.03	229.75
373.41	229.67
373.78	229.66
374.16	229.36
374.54	229.21
374.92	229.14
375.30	229.07
375.68	228.90
376.06	228.85
376.44	228.78
376.82	228.69
377.19	228.50
377.57	228.40
377.95	228.19
378.33	228.10
378.71	227.77
379.09	227.74
379.47	227.76
379.84	227.59
380.22	227.47
380.60	227.28
380.98	227.22
381.36	227.12
381.73	226.96
382.11	227.00
382.49	226.99
382.87	226.84
383.25	226.76
383.62	227.27
384.00	227.09
384.38	227.18
384.76	227.21
385.13	227.37
385.51	227.30
385.89	227.15
386.27	227.11
386.64	227.11
387.02	226.98
387.40	226.91
387.78	226.86
388.15	226.81
388.53	226.76
388.91	226.70
389.29	226.66
389.66	226.75
390.04	226.65
390.42	226.64
390.79	226.61
391.17	226.60
391.55	226.06
391.92	226.13
392.30	226.06
392.68	225.96
393.05	225.87
393.43	225.84
393.81	225.90
394.18	225.88
394.56	225.90
394.94	226.04
395.31	226.00
395.69	226.24
396.06	226.39
396.44	226.55
396.82	226.60
397.19	226.91
397.57	226.87
397.95	227.01
398.32	226.88
398.70	227.08
399.07	227.35
399.45	227.38
399.82	227.46
400.20	227.60
400.58	227.65
400.95	227.57
401.33	227.85
401.70	228.34
402.08	228.49
402.45	228.65
402.83	228.92
403.20	229.04
403.58	229.09
403.95	229.33
404.33	229.50
404.71	229.66
405.08	230.05
405.46	230.26
405.83	230.53
406.21	230.88
406.58	231.15
406.96	231.37
407.33	231.72
407.70	232.14
408.08	232.77
408.45	233.27
408.83	233.79
409.20	234.12
409.58	234.24
409.95	234.83
410.33	235.37
410.70	235.74
411.08	236.37
411.45	237.00
411.82	237.52
412.20	238.41
412.57	239.44
412.95	239.81
413.32	240.74
413.69	241.53
414.07	242.40
414.44	243.36
414.82	244.39
415.19	245.65
415.56	246.72
415.94	247.72
416.31	249.14
416.68	250.56
417.06	252.21
417.43	253.80
417.81	255.49
418.18	257.25
418.55	259.16
418.93	261.23
419.30	263.34
419.67	265.57
420.04	267.79
420.42	270.08
420.79	273.10
421.16	275.86
421.54	278.93
421.91	281.93
422.28	285.07
422.66	288.23
423.03	291.63
423.40	295.03
423.77	298.62
424.15	302.17
424.52	305.97
424.89	310.15
425.26	314.15
425.64	317.89
426.01	322.13
426.38	326.55
426.75	331.06
427.13	335.65
427.50	340.37
427.87	345.17
428.24	350.16
428.61	354.69
428.99	360.02
429.36	365.44
429.73	370.90
430.10	376.29
430.47	382.08
430.85	387.88
431.22	394.04
431.59	400.80
431.96	407.06
432.33	413.94
432.70	420.50
433.08	428.47
433.45	435.91
433.82	443.19
434.19	451.52
434.56	459.63
434.93	467.34
435.30	475.15
435.68	483.78
436.05	492.05
436.42	500.32
436.79	507.97
437.16	516.44
437.53	525.31
437.90	534.07
438.27	542.64
438.64	551.45
439.01	559.79
439.38	566.95
439.75	574.17
440.13	582.20
440.50	589.88
440.87	595.91
441.24	602.40
441.61	609.35
441.98	614.38
442.35	620.07
442.72	626.03
443.09	631.75
443.46	635.31
443.83	637.73
444.20	639.73
444.57	642.41
444.94	643.26
445.31	644.44
445.68	645.76
446.05	645.94
446.42	644.77
446.79	643.41
447.16	641.78
447.53	640.38
447.90	636.68
448.27	632.90
448.64	627.94
449.01	624.16
449.37	618.05
449.74	611.95
450.11	605.25
450.48	597.48
450.85	589.54
451.22	582.52
451.59	575.95
451.96	569.66
452.33	561.60
452.70	554.37
453.07	545.67
453.43	536.63
453.80	528.12
454.17	519.83
454.54	511.99
454.91	503.79
455.28	495.89
455.65	488.50
456.02	481.71
456.38	475.43
456.75	467.76
457.12	461.27
457.49	454.84
457.86	448.46
458.23	443.34
458.59	437.58
458.96	431.85
459.33	426.70
459.70	421.64
460.07	417.64
460.43	412.89
460.80	408.55
461.17	404.72
461.54	400.88
461.91	397.14
462.27	393.34
462.64	390.18
463.01	386.59
463.38	383.29
463.74	379.26
464.11	376.18
464.48	373.50
464.85	370.73
465.21	368.78
465.58	366.48
465.95	363.65
466.32	361.53
466.68	359.27
467.05	357.05
467.42	354.82
467.78	352.45
468.15	350.39
468.52	348.78
468.88	346.66
469.25	344.65
469.62	343.25
469.98	341.55
470.35	339.91
470.72	338.45
471.08	336.77
471.45	335.51
471.82	334.24
472.18	332.75
472.55	331.71
472.92	330.31
473.28	329.20
473.65	328.15
474.02	327.11
474.38	326.23
474.75	325.41
475.11	324.51
475.48	323.78
475.85	323.14
476.21	322.50
476.58	321.95
476.94	321.53
477.31	321.04
477.67	320.64
478.04	320.40
478.41	320.27
478.77	320.58
479.14	320.31
479.50	320.17
479.87	320.27
480.23	320.15
480.60	320.17
480.96	320.12
481.33	320.55
481.69	320.63
482.06	320.77
482.42	321.11
482.79	321.50
483.15	321.90
483.52	322.49
483.88	322.91
484.25	323.57
484.61	324.25
484.98	324.87
485.34	325.84
485.71	326.82
486.07	327.72
486.44	328.24
486.80	329.31
487.17	330.51
487.53	331.77
487.90	333.27
488.26	334.75
488.62	336.49
488.99	337.91
489.35	339.70
489.72	341.68
490.08	343.61
490.44	345.62
490.81	347.90
491.17	350.17
491.54	352.74
491.90	355.21
492.26	357.96
492.63	360.73
492.99	363.61
493.36	366.72
493.72	370.04
494.08	373.47
494.45	377.16
494.81	381.04
495.17	384.97
495.54	389.06
495.90	393.34
496.26	397.83
496.63	402.51
496.99	407.37
497.35	412.47
497.72	417.78
498.08	423.29
498.44	429.03
498.80	434.86
499.17	440.86
499.53	447.17
499.89	453.73
500.26	460.60
500.62	467.59
500.98	474.79
501.34	482.13
501.71	489.84
502.07	497.61
502.43	505.66
502.79	513.97
503.16	522.75
503.52	531.77
503.88	540.92
504.24	550.60
504.60	560.42
504.97	570.60
505.33	580.92
505.69	591.89
506.05	602.78
506.41	614.10
506.78	625.80
507.14	637.82
507.50	650.16
507.86	662.60
508.22	675.55
508.59	688.69
508.95	702.28
509.31	716.52
509.67	730.93
510.03	745.22
510.39	759.97
510.75	775.09
511.12	790.31
511.48	806.20
511.84	821.95
512.20	837.97
512.56	854.34
512.92	871.41
513.28	888.31
513.64	905.65
514.00	923.13
514.37	940.71
514.73	958.68
515.09	976.91
515.45	995.38
515.81	1013.83
516.17	1032.65
516.53	1051.55
516.89	1070.03
517.25	1089.42
517.61	1109.71
517.97	1129.77
518.33	1149.84
518.69	1169.96
519.05	1190.16
519.41	1210.70
519.77	1231.71
520.13	1252.55
520.49	1272.91
520.85	1295.27
521.21	1316.48
521.57	1337.73
521.93	1358.58
522.29	1380.07
522.65	1400.71
523.01	1421.76
523.37	1442.53
523.73	1463.38
524.09	1483.98
524.45	1504.83
524.81	1525.52
525.17	1545.99
525.53	1566.71
525.89	1587.29
526.25	1608.49
526.61	1628.99
526.97	1650.08
527.33	1671.52
527.68	1693.37
528.04	1714.71
528.40	1734.46
528.76	1755.49
529.12	1776.18
529.48	1797.15
529.84	1817.20
530.20	1838.23
530.56	1859.01
530.91	1880.05
531.27	1900.60
531.63	1921.37
531.99	1941.63
532.35	1961.67
532.71	1982.03
533.07	2002.79
533.42	2022.91
533.78	2042.56
534.14	2062.37
534.50	2081.26
534.86	2100.10
535.21	2117.46
535.57	2135.80
535.93	2153.27
536.29	2170.94
536.65	2189.02
537.00	2206.86
537.36	2224.09
537.72	2240.85
538.08	2257.86
538.44	2273.99
538.79	2290.10
539.15	2306.51
539.51	2322.70
539.87	2338.06
540.22	2351.93
540.58	2366.30
540.94	2379.64
541.29	2392.29
541.65	2404.96
542.01	2417.32
542.37	2427.85
542.72	2438.66
543.08	2449.58
543.44	2461.15
543.79	2471.15
544.15	2480.85
544.51	2490.59
544.87	2500.44
545.22	2509.12
545.58	2516.67
545.94	2524.09
546.29	2531.01
546.65	2537.05
547.01	2543.02
547.36	2548.76
547.72	2554.62
548.07	2558.50
548.43	2563.70
548.79	2568.45
549.14	2572.55
549.50	2576.58
549.86	2580.86
550.21	2584.95
550.57	2588.13
550.92	2589.51
551.28	2590.75
551.64	2593.04
551.99	2594.82
552.35	2596.37
552.70	2598.32
553.06	2600.52
553.41	2602.05
553.77	2603.53
554.13	2605.27
554.48	2606.50
554.84	2607.80
555.19	2608.77
555.55	2610.31
555.90	2609.59
556.26	2608.66
556.61	2607.42
556.97	2605.58
557.32	2604.61
557.68	2603.39
558.03	2602.01
558.39	2600.69
558.74	2599.80
559.10	2596.63
559.45	2592.96
559.81	2588.36
560.16	2583.24
560.52	2577.93
560.87	2573.24
561.23	2568.06
561.58	2561.99
561.94	2555.20
562.29	2547.27
562.64	2540.41
563.00	2532.20
563.35	2525.52
563.71	2518.91
564.06	2512.52
564.42	2506.09
564.77	2499.31
565.12	2491.80
565.48	2484.09
565.83	2476.39
566.19	2468.49
566.54	2460.53
566.89	2452.81
567.25	2445.27
567.60	2438.09
567.96	2430.80
568.31	2422.70
568.66	2414.09
569.02	2405.08
569.37	2397.00
569.72	2389.80
570.08	2380.49
570.43	2371.16
570.78	2362.40
571.14	2352.90
571.49	2342.17
571.84	2332.10
572.20	2321.17
572.55	2311.00
572.90	2300.20
573.26	2289.69
573.61	2278.65
573.96	2267.50
574.31	2255.31
574.67	2243.50
575.02	2230.87
575.37	2218.20
575.72	2205.49
576.08	2193.40
576.43	2181.02
576.78	2167.74
577.13	2154.16
577.49	2141.19
577.84	2129.18
578.19	2116.80
578.54	2104.34
578.90	2092.67
579.25	2080.57
579.60	2068.05
579.95	2054.95
580.30	2041.73
580.66	2028.50
581.01	2014.71
581.36	2001.16
581.71	1988.47
582.06	1975.56
582.42	1962.94
582.77	1950.12
583.12	1937.88
583.47	1925.66
583.82	1913.80
584.17	1901.90
584.53	1889.99
584.88	1877.27
585.23	1863.98
585.58	1849.68
585.93	1836.15
586.28	1822.73
586.63	1808.83
586.98	1794.79
587.34	1781.75
587.69	1768.57
588.04	1755.84
588.39	1743.93
588.74	1731.51
589.09	1719.63
589.44	1706.82
589.79	1694.85
590.14	1683.03
590.49	1671.04
590.84	1658.75
591.19	1646.35
591.54	1633.92
591.89	1621.63
592.25	1611.29
592.60	1600.06
592.95	1588.70
593.30	1576.93
593.65	1565.23
594.00	1553.18
594.35	1543.19
594.70	1531.26
595.05	1519.87
595.40	1507.85
595.75	1496.06
596.10	1484.92
596.45	1473.25
596.80	1462.40
597.15	1450.83
597.50	1438.80
597.85	1427.30
598.19	1415.48
598.54	1404.19
598.89	1393.05
599.24	1382.49
599.59	1371.21
599.94	1360.33
600.29	1350.00
600.64	1340.08
600.99	1329.33
601.34	1319.95
601.69	1308.96
602.04	1298.97
602.39	1289.25
602.74	1280.21
603.08	1270.74
603.43	1261.32
603.78	1251.77
604.13	1242.25
604.48	1232.66
604.83	1223.18
605.18	1213.27
605.53	1204.08
605.87	1194.91
606.22	1186.44
606.57	1177.34
606.92	1167.64
607.27	1158.74
607.62	1150.02
607.96	1141.18
608.31	1133.25
608.66	1124.68
609.01	1116.10
609.36	1107.52
609.70	1099.01
610.05	1090.20
610.40	1081.67
610.75	1073.05
611.10	1064.72
611.44	1056.01
611.79	1047.70
612.14	1039.89
612.49	1032.05
612.83	1024.55
613.18	1016.58
613.53	1008.65
613.88	1000.50
614.22	992.75
614.57	984.87
614.92	976.91
615.27	969.38
615.61	961.49
615.96	953.84
616.31	946.50
616.65	939.72
617.00	932.38
617.35	925.23
617.70	918.14
618.04	911.05
618.39	904.00
618.74	897.66
619.08	890.89
619.43	883.79
619.78	876.82
620.12	869.60
620.47	862.68
620.82	855.60
621.16	848.97
621.51	842.69
621.85	836.41
622.20	829.73
622.55	823.19
622.89	816.72
623.24	810.32
623.59	803.70
623.93	797.20
624.28	791.10
624.62	785.50
624.97	779.57
625.32	773.59
625.66	767.61
626.01	761.50
626.35	756.01
626.70	750.53
627.04	745.21
627.39	739.59
627.73	734.32
628.08	729.12
628.43	723.63
628.77	718.15
629.12	712.91
629.46	708.11
629.81	703.36
630.15	698.70
630.50	693.80
630.84	689.18
631.19	684.50
631.53	679.97
631.88	674.55
632.22	669.74
632.57	665.51
632.91	660.85
633.26	656.38
633.60	651.62
633.95	646.99
634.29	642.07
634.64	637.67
634.98	633.11
635.32	628.76
635.67	624.66
636.01	620.48
636.36	616.08
636.70	612.21
637.05	607.87
637.39	603.66
637.73	599.61
638.08	595.56
638.42	591.40
638.77	586.82
639.11	582.50
639.45	578.19
639.80	573.68
640.14	569.71
640.49	565.59
640.83	561.79
641.17	557.96
641.52	554.35
641.86	550.82
642.20	547.44
642.55	543.70
642.89	540.05
643.23	536.63
643.58	533.38
643.92	529.50
644.26	526.10
644.61	522.86
644.95	519.40
645.29	516.03
645.64	512.95
645.98	509.90
646.32	507.08
646.66	504.12
647.01	501.16
647.35	498.30
647.69	495.59
648.04	492.87
648.38	490.10
648.72	487.23
649.06	484.12
649.41	481.05
649.75	478.05
650.09	475.20
650.43	472.23
650.78	469.30
651.12	466.61
651.46	463.80
651.80	460.95
652.14	458.34
652.49	455.95
652.83	453.18
653.17	450.47
653.51	447.80
653.85	445.31
654.20	442.85
654.54	440.21
654.88	437.58
655.22	435.14
655.56	432.80
655.90	430.59
656.25	428.44
656.59	426.26
656.93	424.19
657.27	422.17
657.61	419.82
657.95	417.60
658.29	415.40
658.64	413.37
658.98	411.22
659.32	408.92
659.66	406.66
660.00	404.71
660.34	402.76
660.68	400.73
661.02	398.74
661.36	396.80
661.70	394.88
662.05	393.10
662.39	391.19
662.73	389.39
663.07	387.76
663.41	385.89
663.75	383.98
664.09	382.17
664.43	380.19
664.77	378.48
665.11	376.69
665.45	375.12
665.79	373.49
666.13	371.72
666.47	370.20
666.81	368.50
667.15	366.64
667.49	365.21
667.83	363.89
668.17	362.37
668.51	360.87
668.85	359.54
669.19	358.24
669.53	356.70
669.87	355.06
670.21	353.35
670.55	352.01
670.89	350.84
671.23	349.54
671.57	348.25
671.91	346.96
672.25	345.66
672.58	344.44
672.92	342.98
673.26	341.75
673.60	340.55
673.94	339.31
674.28	338.29
674.62	337.05
674.96	335.74
675.30	334.56
675.64	333.37
675.97	332.06
676.31	330.71
676.65	329.52
676.99	328.64
677.33	327.57
677.67	326.50
678.01	325.15
678.34	324.01
678.68	323.03
679.02	322.01
679.36	321.03
679.70	319.91
680.04	319.01
680.37	318.12
680.71	317.10
681.05	316.26
681.39	315.26
681.73	314.27
682.06	313.31
682.40	312.38
682.74	311.62
683.08	310.95
683.42	310.06
683.75	309.21
684.09	308.18
684.43	307.44
684.77	306.45
685.10	305.69
685.44	304.94
685.78	304.02
686.12	303.23
686.45	302.40
686.79	301.53
687.13	300.80
687.46	299.91
687.80	299.30
688.14	298.42
688.48	297.75
688.81	297.09
689.15	296.53
689.49	295.80
689.82	294.99
690.16	294.05
690.50	293.41
690.83	292.75
691.17	291.99
691.51	291.21
691.84	290.68
692.18	289.95
692.52	289.20
692.85	288.68
693.19	288.22
693.52	287.67
693.86	287.06
694.20	286.41
694.53	285.92
694.87	285.15
695.21	284.56
695.54	283.90
695.88	283.20
696.21	282.42
696.55	281.75
696.88	281.13
697.22	280.53
697.56	279.92
697.89	279.30
698.23	278.77
698.56	278.21
698.90	277.61
699.23	277.05
699.57	276.52
699.90	275.87
700.24	275.22
700.58	274.66
700.91	274.29
701.25	274.22
701.58	274.10
701.92	273.75
702.25	273.28
702.59	272.82
702.92	272.49
703.26	272.10
703.59	271.79
703.93	271.81
704.26	271.45
704.60	271.07
704.93	270.64
705.26	270.18
705.60	269.80
705.93	269.32
706.27	269.15
706.60	268.89
706.94	268.75
707.27	268.37
707.61	268.03
707.94	267.59
708.27	266.84
708.61	265.98
708.94	265.50
709.28	265.15
709.61	264.75
709.94	264.31
710.28	263.90
710.61	263.57
710.95	262.76
711.28	262.78
711.61	262.41
711.95	262.21
712.28	261.87
712.61	261.57
712.95	261.48
713.28	261.30
713.61	260.92
713.95	260.42
714.28	260.07
714.61	259.71
714.95	259.35
715.28	258.87
715.61	258.63
715.95	258.33
716.28	258.00
716.61	257.84
716.95	257.52
717.28	257.26
717.61	256.85
717.94	256.55
718.28	255.80
718.61	255.55
718.94	255.10
719.27	254.93
719.61	254.66
719.94	254.26
720.27	253.71
720.60	253.49
720.94	253.30
721.27	253.12
721.60	252.89
721.93	252.65
722.27	252.65
722.60	252.44
722.93	252.22
723.26	252.04
723.59	251.67
723.93	251.56
724.26	251.42
724.59	251.23
724.92	251.11
725.25	251.12
725.59	250.86
725.92	250.75
726.25	250.52
726.58	250.37
726.91	250.20
727.24	250.07
727.57	249.82
727.91	249.50
728.24	249.34
728.57	249.04
728.90	248.97
729.23	248.64
729.56	248.63
729.89	248.52
730.22	248.33
730.55	248.24
730.89	248.04
731.22	247.79
731.55	247.55
731.88	247.32
732.21	247.02
732.54	246.83
732.87	246.67
733.20	246.50
733.53	246.34
733.86	246.14
734.19	245.88
734.52	245.80
734.85	246.03
735.18	245.63
735.51	245.71
735.84	245.51
736.17	245.49
736.50	245.10
736.83	245.38
737.16	245.25
737.49	245.01
737.82	244.79
738.15	244.65
738.48	244.47
738.81	244.31
739.14	244.12
739.47	243.90
739.80	243.75
740.13	243.60
740.46	243.31
740.79	243.19
741.12	243.06
741.45	242.83
741.78	242.31
742.11	242.47
742.44	242.20
742.77	242.08
743.10	241.80
743.43	241.61
743.75	240.97
744.08	241.46
744.41	241.35
744.74	241.17
745.07	240.89
745.40	240.81
745.73	240.91
746.06	240.75
746.39	240.65
746.71	240.39
747.04	240.20
747.37	240.05
747.70	239.94
748.03	239.84
748.36	239.75
748.68	239.71
749.01	239.29
749.34	239.11
749.67	239.00
750.00	238.95
750.33	239.21
750.65	239.17
750.98	238.31
751.31	238.15
751.64	238.07
751.97	238.26
752.29	238.17
752.62	237.80
752.95	237.67
753.28	237.51
753.60	237.46
753.93	237.48
754.26	237.42
754.59	237.23
754.91	237.04
755.24	236.86
755.57	236.76
755.90	236.76
756.22	236.70
756.55	236.45
756.88	236.28
757.20	235.93
757.53	235.67
757.86	235.67
758.19	235.67
758.51	235.54
758.84	235.27
759.17	235.22
759.49	235.16
759.82	235.32
760.15	235.32
760.47	235.28
760.80	235.07
761.13	235.14
761.45	235.00
761.78	234.92
762.11	234.93
762.43	234.70
762.76	234.54
763.08	234.47
763.41	234.49
763.74	234.46
764.06	234.39
764.39	234.37
764.71	234.18
765.04	234.12
765.37	234.04
765.69	233.92
766.02	233.81
766.34	233.74
766.67	233.47
767.00	233.47
767.32	233.62
767.65	233.85
767.97	233.69
768.30	233.73
768.62	233.75
768.95	233.57
769.27	233.59
769.60	233.62
769.92	233.51
770.25	233.42
770.57	233.23
770.90	233.15
771.22	233.04
771.55	233.05
771.87	232.92
772.20	232.88
772.52	233.28
772.85	233.73
773.17	233.69
773.50	233.66
773.82	233.60
774.15	233.31
774.47	232.95
774.80	232.93
775.12	232.85
775.45	232.75
775.77	232.80
776.09	232.81
776.42	232.82
776.74	232.94
777.07	232.85
777.39	232.89
777.72	232.84
778.04	232.93
778.36	232.87
778.69	232.79
779.01	232.77
779.33	232.28
779.66	231.72
779.98	231.63
780.31	231.60
780.63	231.75
780.95	231.77
781.28	231.74
781.60	231.65
781.92	231.64
782.25	231.62
782.57	231.53
782.89	231.46
783.22	231.39
783.54	231.20
783.86	231.21
784.19	231.13
784.51	231.18
784.83	231.04
785.16	231.04
785.48	231.10
785.80	231.08
786.12	231.08
786.45	231.07
786.77	231.07
787.09	231.01
787.42	230.77
787.74	230.70
788.06	230.67
788.38	230.58
788.71	230.53
789.03	230.55
789.35	230.60
789.67	230.46
789.99	230.49
790.32	230.46
790.64	230.53
790.96	230.85
791.28	230.64
791.61	230.57
791.93	230.48
792.25	230.40
792.57	230.69
792.89	230.52
793.21	230.53
793.54	230.49
793.86	230.44
794.18	230.46
794.50	230.40
794.82	230.45
795.14	230.44
795.47	230.46
795.79	230.40
796.11	230.23
796.43	230.17
796.75	230.06
797.07	230.04
797.39	229.99
797.71	229.69
798.04	229.69
798.36	229.68
798.68	229.69
799.00	229.67
799.32	229.41
799.64	229.48
799.96	229.44
800.28	229.48
800.60	229.45
800.92	229.38
801.24	229.31
801.56	229.22
801.89	229.22
802.21	229.20
802.53	229.10
802.85	229.24
803.17	229.49
803.49	229.36
803.81	229.30
804.13	229.17
804.45	229.09
804.77	229.16
805.09	229.17
805.41	229.10
805.73	228.97
806.05	228.83
806.37	228.86
806.69	228.83
807.01	228.73
807.33	228.78
807.65	228.63
807.97	228.83
808.28	228.79
808.60	228.74
808.92	228.65
809.24	228.92
809.56	228.82
809.88	228.69
810.20	228.75
810.52	228.86
810.84	228.81
811.16	228.71
811.48	228.69
811.80	228.83
812.12	228.84
812.43	228.95
812.75	229.00
813.07	228.95
813.39	228.94
813.71	228.90
814.03	228.85
814.35	228.92
814.67	228.65
814.98	228.61
815.30	228.59
815.62	228.48
815.94	228.15
816.26	228.39
816.58	228.26
816.89	228.29
817.21	228.23
817.53	228.27
817.85	228.38
818.17	228.30
818.48	228.08
818.80	228.16
819.12	228.11
819.44	228.05
819.76	227.93
820.07	227.96
820.39	228.03
820.71	228.02
821.03	227.96
821.34	227.99
821.66	228.09
821.98	228.12
822.30	228.18
822.61	228.55
822.93	228.22
823.25	228.20
823.57	228.18
823.88	228.17
824.20	228.06
824.52	228.05
824.83	228.06
825.15	228.04
825.47	227.96
825.79	228.05
826.10	228.01
826.42	228.02
826.74	228.04
827.05	228.00
827.37	228.01
827.69	228.02
828.00	228.02
828.32	227.99
828.64	227.91
828.95	228.10
829.27	227.89
829.58	227.94
829.90	228.06
830.22	228.05
830.53	227.95
830.85	227.97
831.17	227.88
831.48	227.82
831.80	227.79
832.11	227.82
832.43	227.63
832.75	227.63
833.06	227.90
833.38	227.75
833.69	227.66
834.01	227.68
834.32	227.64
834.64	227.62
834.96	227.60
835.27	227.59
835.59	227.43
835.90	227.35
836.22	227.34
836.53	227.19
836.85	227.11
837.16	227.54
837.48	227.55
837.79	227.67
838.11	227.73
838.42	227.85
838.74	227.83
839.05	227.84
839.37	227.76
839.68	227.43
840.00	227.46
840.31	227.58
840.63	227.54
840.94	227.50
841.26	227.43
841.57	227.43
841.88	227.57
842.20	227.48
842.51	227.36
842.83	227.36
843.14	227.79
843.46	227.77
843.77	227.52
844.08	227.47
844.40	227.35
844.71	227.32
845.03	227.22
845.34	227.20
845.65	227.26
845.97	227.30
846.28	227.41
846.60	227.41
846.91	227.31
847.22	227.27
847.54	227.42
847.85	227.52
848.16	227.52
848.48	227.39
848.79	227.64
849.10	227.71
849.42	227.78
849.73	227.41
850.04	227.41
850.36	227.25
850.67	227.34
850.98	227.34
851.30	227.36
851.61	227.41
851.92	227.46
852.23	227.59
852.55	227.67
852.86	227.68
853.17	227.61
853.49	227.73
853.80	227.79
854.11	227.84
854.42	227.87
854.74	227.79
855.05	227.79
855.36	227.56
855.67	227.58
855.99	227.49
856.30	228.00
856.61	228.03
856.92	228.05
857.23	228.07
857.55	227.98
857.86	227.94
858.17	227.90
858.48	227.78
858.79	227.64
859.11	227.67
859.42	227.60
859.73	227.61
860.04	227.56
860.35	227.45
860.66	227.27
860.98	227.25
861.29	227.29
861.60	227.24
861.91	227.31
862.22	227.22
862.53	227.21
862.84	226.63
863.16	226.82
863.47	226.78
863.78	226.77
864.09	226.83
864.40	226.87
864.71	226.90
865.02	226.98
865.33	226.92
865.64	226.76
865.95	226.78
866.27	227.04
866.58	227.03
866.89	227.10
867.20	227.04
867.51	226.93
867.82	226.92
868.13	227.16
868.44	227.03
868.75	227.18
869.06	227.24
869.37	227.27
869.68	227.09
869.99	227.15
870.30	227.15
870.61	227.26
870.92	227.23
871.23	227.19
871.54	227.22
871.85	227.29
872.16	227.43
872.47	227.30
872.78	227.10
873.09	227.11
873.40	227.05
873.71	227.18
874.02	227.23
874.33	227.17
874.64	227.05
874.95	227.16
875.26	227.05
875.56	227.02
875.87	227.03
876.18	226.96
876.49	227.43
876.80	227.36
877.11	227.16
877.42	227.18
877.73	227.19
878.04	227.16
878.35	227.20
878.66	227.15
878.96	227.27
879.27	227.16
879.58	227.15
879.89	227.14
880.20	227.23
880.51	227.16
880.82	227.13
881.12	227.10
881.43	226.95
881.74	226.95
882.05	226.96
882.36	226.95
882.67	227.05
882.97	226.55
883.28	226.53
883.59	226.61
883.90	226.64
884.21	226.72
884.51	226.63
884.82	226.60
885.13	226.63
885.44	226.61
885.74	226.74
886.05	226.72
886.36	226.77
886.67	226.62
886.98	226.90
887.28	227.03
887.59	226.96
887.90	227.03
888.20	226.96
888.51	226.98
888.82	226.92
889.13	226.95
889.43	227.30
889.74	227.23
890.05	227.19
890.35	227.16
890.66	227.03
890.97	226.97
891.28	226.93
891.58	226.91
891.89	226.84
892.20	226.75
892.50	226.69
892.81	226.54
893.12	226.46
893.42	226.20
893.73	226.11
894.04	226.09
894.34	226.18
894.65	226.18
894.95	226.08
895.26	226.12
895.57	226.25
895.87	225.86
896.18	226.05
896.48	226.06
896.79	226.04
897.10	226.10
897.40	226.16
897.71	226.17
898.01	226.14
898.32	226.18
898.63	226.19
898.93	226.24
899.24	226.29
899.54	226.30
899.85	226.34
900.15	226.36
900.46	226.49
900.76	226.47
901.07	226.50
901.38	226.56
901.68	226.64
901.99	226.40
902.29	226.47
902.60	226.39
902.90	226.32
903.21	226.34
903.51	226.28
903.82	226.47
904.12	226.42
904.43	226.46
904.73	226.50
905.03	226.58
905.34	226.95
905.64	226.95
905.95	226.99
906.25	226.98
906.56	226.99
906.86	226.90
907.17	226.81
907.47	226.74
907.77	226.71
908.08	226.52
908.38	226.60
908.69	226.61
908.99	226.68
909.30	226.77
909.60	226.69
909.90	226.83
910.21	226.62
910.51	226.64
910.81	226.67
911.12	226.79
911.42	226.72
911.73	226.32
912.03	226.34
912.33	226.43
912.64	226.44
912.94	226.40
913.24	226.32
913.55	226.35
913.85	226.43
914.15	226.58
914.46	226.70
914.76	226.66
915.06	226.59
915.37	226.55
915.67	226.52
915.97	226.59
916.27	226.45
916.58	226.48
916.88	226.45
917.18	226.44
917.49	226.72
917.79	226.70
918.09	226.88
918.39	227.07
918.70	227.08
919.00	227.08
919.30	227.29
919.60	227.32
919.91	227.21
920.21	227.19
920.51	227.05
920.81	227.03
921.12	227.07
921.42	227.08
921.72	227.15
922.02	227.24
922.32	227.27
922.63	227.36
922.93	227.65
923.23	227.70
923.53	227.60
923.83	227.22
924.13	227.28
924.44	227.13
924.74	227.13
925.04	227.24
925.34	227.23
925.64	227.02
925.94	227.05
926.24	227.39
926.55	227.37
926.85	227.47
927.15	227.43
927.45	227.47
927.75	227.43
928.05	227.43
928.35	227.34
928.65	227.41
928.95	227.39
929.26	227.24
929.56	227.28
929.86	227.40
930.16	227.33
930.46	227.28
930.76	227.38
931.06	227.16
931.36	227.01
931.66	227.08
931.96	227.07
932.26	227.09
932.56	226.84
932.86	226.94
933.16	226.90
933.46	226.80
933.76	226.73
934.06	226.89
934.36	227.03
934.66	227.03
934.96	226.92
935.26	226.96
935.56	226.94
935.86	226.81
936.16	226.70
936.46	226.73
936.76	226.70
937.06	226.56
937.36	226.58
937.66	226.57
937.96	226.54
938.26	226.59
938.56	226.51
938.86	226.53
939.16	226.54
939.46	226.50
939.76	226.63
940.06	226.61
940.35	226.49
940.65	226.28
940.95	226.32
941.25	226.22
941.55	226.07
941.85	226.06
942.15	226.22
942.45	226.33
942.75	226.31
943.04	226.31
943.34	226.39
943.64	226.33
943.94	226.28
944.24	226.25
944.54	226.23
944.84	226.24
945.13	226.21
945.43	226.12
945.73	226.16
946.03	226.07
946.33	225.98
946.62	225.88
946.92	225.87
947.22	225.89
947.52	225.88
947.82	225.94
948.11	225.90
948.41	225.77
948.71	225.64
949.01	225.67
949.31	225.66
949.60	225.57
949.90	225.70
950.20	225.66
950.50	225.65
950.79	225.64
951.09	225.66
951.39	225.65
951.69	225.60
951.98	225.72
952.28	225.77
952.58	225.83
952.87	225.87
953.17	225.89
953.47	225.83
953.76	225.84
954.06	225.70
954.36	225.66
954.66	225.65
954.95	225.79
955.25	225.85
955.55	225.91
955.84	225.85
956.14	225.84
956.44	225.88
956.73	225.79
957.03	225.75
957.32	225.80
957.62	225.80
957.92	225.89
958.21	225.77
958.51	226.28
958.81	226.35
959.10	226.45
959.40	226.52
959.69	226.55
959.99	226.65
960.29	226.82
960.58	226.73
960.88	226.85
961.17	226.78
961.47	226.76
961.76	226.77
962.06	226.98
962.36	226.90
962.65	226.95
962.95	227.00
963.24	227.05
963.54	227.05
963.83	227.07
964.13	227.07
964.42	226.96
964.72	226.62
965.01	226.59
965.31	226.48
965.60	226.38
965.90	226.73
966.19	226.59
966.49	226.51
966.78	226.58
967.08	226.57
967.37	226.55
967.67	226.47
967.96	226.50
968.26	226.36
968.55	226.47
968.85	226.40
969.14	226.35
969.43	226.31
969.73	226.31
970.02	226.31
970.32	226.27
970.61	226.23
970.91	226.11
971.20	226.05
971.49	226.04
971.79	226.02
972.08	225.60
972.38	225.66
972.67	225.72
972.96	225.73
973.26	225.68
973.55	225.85
973.85	225.84
974.14	225.84
974.43	225.88
974.73	225.77
975.02	225.78
975.31	225.81
975.61	225.84
975.90	225.80
976.19	225.78
976.49	225.86
976.78	226.00
977.07	225.98
977.37	226.00
977.66	226.09
977.95	226.09
978.24	226.20
978.54	226.35
978.83	226.26
979.12	226.23
979.42	226.23
979.71	226.11
980.00	226.12
980.29	226.07
980.59	226.06
980.88	226.26
981.17	226.14
981.46	226.21
981.76	226.21
982.05	226.30
982.34	226.33
982.63	226.30
982.93	226.26
983.22	226.39
983.51	226.41
983.80	226.48
984.09	226.53
984.39	226.50
984.68	226.36
984.97	226.46
985.26	226.44
985.55	226.46
985.85	226.36
986.14	226.39
986.43	226.49
986.72	226.40
987.01	226.22
987.30	226.28
987.59	226.23
987.89	226.30
988.18	226.20
988.47	226.11
988.76	226.14
989.05	226.07
989.34	226.01
989.63	226.07
989.92	225.95
990.22	225.89
990.51	225.87
990.80	225.83
991.09	225.84
991.38	225.91
991.67	225.80
991.96	225.79
992.25	225.80
992.54	225.64
992.83	225.63
993.12	225.64
993.41	225.77
993.70	225.89
993.99	225.95
994.28	225.99
994.58	226.17
994.87	226.04
995.16	226.07
995.45	226.00
995.74	225.95
996.03	226.06
996.32	226.10
996.61	226.22
996.90	226.21
997.19	226.23
997.48	226.19
997.77	226.17
998.06	226.21
998.34	226.25
998.63	226.32
998.92	226.41
999.21	226.51
999.50	226.48
999.79	226.39
1000.08	226.33
1000.37	226.32
1000.66	226.14
1000.95	226.29
1001.24	226.31
1001.53	226.40
1001.82	226.32
1002.11	226.25
1002.40	226.33
1002.68	226.45
1002.97	226.85
1003.26	226.80
1003.55	226.75
1003.84	226.87
1004.13	227.05
1004.42	227.03
1004.71	226.98
1004.99	226.97
1005.28	227.02
1005.57	226.99
1005.86	226.90
1006.15	226.84
1006.44	226.81
1006.72	226.89
1007.01	226.83
1007.30	226.82
1007.59	226.80
1007.88	226.87
1008.17	226.87
1008.45	226.78
1008.74	226.58
1009.03	226.32
1009.32	226.27
1009.60	226.30
1009.89	226.23
1010.18	225.97
1010.47	225.90
1010.76	225.92
1011.04	225.91
1011.33	225.96
1011.62	226.06
1011.91	226.10
1012.19	226.13
1012.48	226.08
1012.77	226.08
1013.05	226.34
1013.34	226.38
1013.63	226.30
1013.92	226.26
1014.20	226.33
1014.49	226.30
1014.78	226.31
1015.06	226.16
1015.35	226.15
1015.64	226.29
1015.92	226.34
1016.21	226.42
1016.50	226.45
1016.78	226.50
1017.07	226.55
1017.36	226.40
1017.64	226.21
1017.93	226.23
1018.22	226.23
1018.50	226.27
1018.79	226.29
1019.08	226.00
1019.36	225.94
1019.65	225.90
1019.93	225.98
1020.22	225.95
1020.51	226.18
1020.79	226.12
1021.08	226.00
1021.36	225.95
1021.65	226.10
1021.94	225.85
1022.22	224.85
1022.51	224.75
1022.79	227.55
1023.08	226.40
1023.36	231.05
1023.65	224.95
>>>>>End Processed Spectral Data<<<<<
