SpectraSuite Data File
++++++++++++++++++++++++++++++++++++
Date: Wed Sep 04 18:02:19 EDT 2013
User: lab3
Dark Spectrum Present: Yes
Reference Spectrum Present: No
Number of Sampled Component Spectra: 1
Spectrometers: USB2E7196
Integration Time (usec): 170000 (USB2E7196)
Spectra Averaged: 20 (USB2E7196)
Boxcar Smoothing: 10 (USB2E7196)
Correct for Electrical Dark: No (USB2E7196)
Strobe/Lamp Enabled: No (USB2E7196)
Correct for Detector Non-linearity: No (USB2E7196)
Correct for Stray Light: No (USB2E7196)
Number of Pixels in Processed Spectrum: 2048
>>>>>Begin Processed Spectral Data<<<<<
339.09	0.00
339.48	214.00
339.86	214.00
340.24	216.45
340.63	217.55
341.01	224.90
341.39	220.30
341.78	224.00
342.16	222.65
342.54	222.85
342.93	212.38
343.31	223.17
343.69	223.69
344.07	224.23
344.46	224.73
344.84	225.15
345.22	225.21
345.60	225.53
345.99	225.65
346.37	225.84
346.75	226.01
347.13	226.10
347.52	226.07
347.90	226.34
348.28	226.41
348.66	226.48
349.05	226.43
349.43	226.49
349.81	226.65
350.19	226.72
350.57	226.84
350.96	226.97
351.34	227.08
351.72	227.20
352.10	227.26
352.48	227.27
352.87	227.38
353.25	227.41
353.63	227.38
354.01	227.41
354.39	227.46
354.77	227.52
355.15	227.73
355.54	227.75
355.92	227.66
356.30	227.70
356.68	228.15
357.06	228.25
357.44	228.25
357.82	228.20
358.20	228.66
358.58	228.75
358.97	228.82
359.35	228.90
359.73	229.11
360.11	229.17
360.49	229.25
360.87	229.24
361.25	229.36
361.63	229.65
362.01	229.72
362.39	229.75
362.77	229.86
363.15	229.80
363.53	229.82
363.91	229.93
364.29	229.91
364.67	229.45
365.05	229.47
365.43	229.63
365.81	229.79
366.19	229.60
366.57	229.76
366.95	229.78
367.33	229.73
367.71	229.62
368.09	229.76
368.47	229.78
368.85	229.80
369.23	229.87
369.61	229.70
369.99	229.83
370.37	229.91
370.75	230.08
371.13	230.09
371.51	230.04
371.89	229.99
372.27	230.05
372.65	230.10
373.03	230.06
373.41	229.91
373.78	229.82
374.16	229.56
374.54	229.36
374.92	229.24
375.30	229.13
375.68	228.95
376.06	228.87
376.44	228.72
376.82	228.65
377.19	228.56
377.57	228.45
377.95	228.30
378.33	228.20
378.71	227.90
379.09	227.82
379.47	227.88
379.84	227.75
380.22	227.62
380.60	227.52
380.98	227.42
381.36	227.33
381.73	227.24
382.11	227.27
382.49	227.20
382.87	227.09
383.25	227.08
383.62	227.67
384.00	227.51
384.38	227.47
384.76	227.56
385.13	227.69
385.51	227.60
385.89	227.46
386.27	227.38
386.64	227.37
387.02	227.31
387.40	227.12
387.78	227.10
388.15	227.01
388.53	226.90
388.91	226.91
389.29	226.88
389.66	226.87
390.04	226.79
390.42	226.83
390.79	226.88
391.17	226.84
391.55	226.23
391.92	226.19
392.30	226.23
392.68	226.05
393.05	225.99
393.43	226.00
393.81	226.03
394.18	225.95
394.56	225.93
394.94	226.03
395.31	226.03
395.69	226.18
396.06	226.37
396.44	226.49
396.82	226.50
397.19	226.78
397.57	226.75
397.95	226.91
398.32	226.85
398.70	226.98
399.07	227.19
399.45	227.25
399.82	227.38
400.20	227.39
400.58	227.50
400.95	227.38
401.33	227.62
401.70	228.07
402.08	228.26
402.45	228.41
402.83	228.61
403.20	228.84
403.58	228.99
403.95	229.23
404.33	229.45
404.71	229.65
405.08	230.11
405.46	230.35
405.83	230.60
406.21	230.87
406.58	231.10
406.96	231.30
407.33	231.64
407.70	231.98
408.08	232.72
408.45	233.19
408.83	233.78
409.20	234.12
409.58	234.25
409.95	234.86
410.33	235.44
410.70	235.86
411.08	236.47
411.45	237.01
411.82	237.53
412.20	238.24
412.57	239.20
412.95	239.48
413.32	240.40
413.69	241.30
414.07	242.31
414.44	243.34
414.82	244.38
415.19	245.62
415.56	246.89
415.94	247.99
416.31	249.40
416.68	250.81
417.06	252.42
417.43	254.06
417.81	255.65
418.18	257.38
418.55	259.28
418.93	261.31
419.30	263.46
419.67	265.73
420.04	268.04
420.42	270.37
420.79	273.54
421.16	276.28
421.54	279.33
421.91	282.26
422.28	285.40
422.66	288.72
423.03	292.22
423.40	295.51
423.77	299.00
424.15	302.50
424.52	306.28
424.89	310.52
425.26	314.45
425.64	318.38
426.01	322.56
426.38	326.99
426.75	331.57
427.13	336.14
427.50	340.95
427.87	345.83
428.24	350.80
428.61	355.25
428.99	360.69
429.36	366.06
429.73	371.60
430.10	377.09
430.47	382.71
430.85	388.20
431.22	394.58
431.59	401.50
431.96	407.85
432.33	414.77
432.70	421.41
433.08	429.51
433.45	436.95
433.82	444.49
434.19	452.77
434.56	460.92
434.93	468.61
435.30	476.40
435.68	485.03
436.05	493.60
436.42	501.94
436.79	509.54
437.16	517.97
437.53	526.90
437.90	535.67
438.27	544.29
438.64	553.48
439.01	561.72
439.38	568.96
439.75	576.23
440.13	584.46
440.50	592.05
440.87	597.99
441.24	604.38
441.61	611.40
441.98	616.52
442.35	622.34
442.72	628.52
443.09	634.30
443.46	637.98
443.83	640.12
444.20	642.19
444.57	645.05
444.94	646.16
445.31	647.26
445.68	648.81
446.05	649.13
446.42	647.75
446.79	646.28
447.16	644.53
447.53	643.25
447.90	639.37
448.27	635.73
448.64	630.86
449.01	627.20
449.37	620.96
449.74	614.85
450.11	608.05
450.48	600.23
450.85	592.19
451.22	585.10
451.59	578.62
451.96	572.27
452.33	564.00
452.70	556.54
453.07	547.77
453.43	538.39
453.80	529.84
454.17	521.66
454.54	513.95
454.91	505.74
455.28	497.64
455.65	490.21
456.02	483.35
456.38	476.98
456.75	469.22
457.12	462.62
457.49	456.36
457.86	449.86
458.23	444.80
458.59	439.14
458.96	433.35
459.33	428.08
459.70	422.94
460.07	418.89
460.43	414.30
460.80	410.03
461.17	406.34
461.54	402.44
461.91	398.67
462.27	394.78
462.64	391.57
463.01	388.09
463.38	384.70
463.74	380.64
464.11	377.66
464.48	375.02
464.85	372.16
465.21	369.95
465.58	367.67
465.95	364.58
466.32	362.30
466.68	360.02
467.05	357.81
467.42	355.59
467.78	353.22
468.15	350.99
468.52	349.25
468.88	346.94
469.25	345.00
469.62	343.52
469.98	341.95
470.35	340.42
470.72	338.89
471.08	337.30
471.45	336.03
471.82	334.62
472.18	333.07
472.55	332.08
472.92	330.76
473.28	329.55
473.65	328.51
474.02	327.42
474.38	326.53
474.75	325.80
475.11	324.93
475.48	324.27
475.85	323.70
476.21	323.15
476.58	322.78
476.94	322.37
477.31	321.92
477.67	321.40
478.04	321.07
478.41	320.84
478.77	321.08
479.14	320.75
479.50	320.76
479.87	320.82
480.23	320.82
480.60	320.76
480.96	320.81
481.33	321.20
481.69	321.44
482.06	321.63
482.42	321.88
482.79	322.21
483.15	322.63
483.52	323.21
483.88	323.66
484.25	324.05
484.61	324.59
484.98	325.22
485.34	326.26
485.71	327.15
486.07	328.23
486.44	328.87
486.80	329.96
487.17	331.03
487.53	332.44
487.90	333.84
488.26	335.52
488.62	337.24
488.99	338.76
489.35	340.57
489.72	342.54
490.08	344.49
490.44	346.59
490.81	348.86
491.17	351.12
491.54	353.62
491.90	356.29
492.26	359.04
492.63	361.79
492.99	364.57
493.36	367.73
493.72	370.92
494.08	374.33
494.45	378.11
494.81	382.05
495.17	386.07
495.54	390.36
495.90	394.58
496.26	399.12
496.63	403.85
496.99	408.60
497.35	413.63
497.72	418.93
498.08	424.40
498.44	430.00
498.80	435.95
499.17	441.96
499.53	448.38
499.89	455.06
500.26	461.97
500.62	469.00
500.98	476.39
501.34	483.83
501.71	491.56
502.07	499.40
502.43	507.50
502.79	515.71
503.16	524.33
503.52	533.46
503.88	542.71
504.24	552.33
504.60	562.31
504.97	572.55
505.33	583.02
505.69	594.17
506.05	605.35
506.41	616.57
506.78	628.40
507.14	640.28
507.50	652.73
507.86	665.47
508.22	678.47
508.59	691.70
508.95	705.51
509.31	719.75
509.67	734.07
510.03	748.48
510.39	763.40
510.75	778.62
511.12	793.76
511.48	809.44
511.84	825.37
512.20	841.50
512.56	857.87
512.92	874.78
513.28	891.75
513.64	908.91
514.00	926.46
514.37	944.21
514.73	962.44
515.09	980.75
515.45	999.18
515.81	1017.57
516.17	1036.28
516.53	1054.89
516.89	1073.64
517.25	1093.00
517.61	1113.40
517.97	1133.67
518.33	1153.53
518.69	1174.04
519.05	1194.85
519.41	1215.49
519.77	1236.69
520.13	1257.65
520.49	1278.47
520.85	1300.37
521.21	1321.58
521.57	1343.12
521.93	1364.18
522.29	1385.53
522.65	1406.17
523.01	1427.30
523.37	1448.30
523.73	1469.30
524.09	1490.01
524.45	1510.87
524.81	1531.84
525.17	1552.50
525.53	1573.00
525.89	1593.97
526.25	1614.89
526.61	1635.04
526.97	1656.06
527.33	1677.56
527.68	1699.27
528.04	1720.27
528.40	1740.31
528.76	1761.55
529.12	1782.00
529.48	1802.54
529.84	1822.84
530.20	1844.23
530.56	1864.90
530.91	1886.04
531.27	1906.94
531.63	1927.85
531.99	1948.65
532.35	1968.56
532.71	1988.95
533.07	2009.70
533.42	2029.78
533.78	2049.92
534.14	2070.02
534.50	2089.31
534.86	2108.10
535.21	2125.73
535.57	2144.56
535.93	2162.77
536.29	2180.76
536.65	2199.15
537.00	2217.12
537.36	2234.79
537.72	2251.44
538.08	2268.77
538.44	2285.49
538.79	2301.58
539.15	2317.89
539.51	2333.89
539.87	2349.42
540.22	2363.65
540.58	2378.12
540.94	2391.43
541.29	2404.06
541.65	2416.63
542.01	2429.18
542.37	2439.87
542.72	2451.40
543.08	2462.20
543.44	2474.07
543.79	2484.08
544.15	2494.06
544.51	2504.27
544.87	2513.80
545.22	2522.69
545.58	2530.57
545.94	2537.88
546.29	2544.74
546.65	2551.39
547.01	2556.78
547.36	2562.77
547.72	2568.17
548.07	2572.57
548.43	2578.16
548.79	2583.13
549.14	2587.48
549.50	2591.70
549.86	2596.07
550.21	2599.66
550.57	2603.34
550.92	2604.62
551.28	2606.11
551.64	2608.41
551.99	2610.51
552.35	2612.04
552.70	2613.91
553.06	2615.36
553.41	2616.48
553.77	2618.37
554.13	2620.04
554.48	2621.67
554.84	2623.13
555.19	2624.38
555.55	2626.04
555.90	2625.40
556.26	2624.54
556.61	2623.00
556.97	2620.72
557.32	2620.20
557.68	2619.17
558.03	2617.76
558.39	2616.36
558.74	2615.82
559.10	2612.51
559.45	2608.84
559.81	2604.39
560.16	2599.29
560.52	2595.01
560.87	2590.92
561.23	2585.67
561.58	2579.60
561.94	2573.13
562.29	2565.74
562.64	2558.98
563.00	2550.66
563.35	2543.93
563.71	2537.23
564.06	2530.99
564.42	2524.50
564.77	2517.46
565.12	2509.85
565.48	2501.56
565.83	2493.78
566.19	2485.71
566.54	2478.07
566.89	2470.24
567.25	2463.02
567.60	2455.65
567.96	2447.84
568.31	2439.63
568.66	2430.77
569.02	2421.98
569.37	2413.70
569.72	2406.36
570.08	2396.77
570.43	2387.06
570.78	2378.21
571.14	2368.89
571.49	2358.70
571.84	2349.03
572.20	2337.84
572.55	2327.79
572.90	2317.34
573.26	2306.86
573.61	2295.54
573.96	2284.31
574.31	2272.11
574.67	2260.23
575.02	2247.63
575.37	2234.85
575.72	2221.49
576.08	2209.29
576.43	2196.83
576.78	2183.85
577.13	2169.89
577.49	2157.38
577.84	2145.71
578.19	2133.32
578.54	2120.46
578.90	2108.52
579.25	2096.34
579.60	2084.17
579.95	2071.20
580.30	2057.80
580.66	2044.32
581.01	2030.60
581.36	2016.74
581.71	2004.05
582.06	1990.55
582.42	1978.03
582.77	1965.31
583.12	1953.51
583.47	1941.17
583.82	1928.89
584.17	1916.69
584.53	1904.49
584.88	1891.36
585.23	1878.08
585.58	1863.88
585.93	1850.36
586.28	1837.06
586.63	1822.91
586.98	1808.54
587.34	1795.30
587.69	1782.09
588.04	1769.34
588.39	1757.12
588.74	1744.51
589.09	1732.30
589.44	1719.88
589.79	1707.77
590.14	1695.77
590.49	1683.45
590.84	1671.28
591.19	1659.14
591.54	1646.63
591.89	1634.19
592.25	1624.05
592.60	1612.50
592.95	1601.08
593.30	1589.31
593.65	1577.03
594.00	1564.99
594.35	1555.07
594.70	1543.08
595.05	1531.57
595.40	1519.41
595.75	1507.40
596.10	1496.42
596.45	1484.59
596.80	1473.76
597.15	1462.20
597.50	1450.14
597.85	1438.59
598.19	1426.79
598.54	1415.05
598.89	1403.75
599.24	1393.58
599.59	1381.70
599.94	1370.69
600.29	1360.04
600.64	1349.72
600.99	1338.97
601.34	1329.41
601.69	1318.10
602.04	1308.25
602.39	1298.48
602.74	1289.51
603.08	1280.14
603.43	1270.70
603.78	1261.02
604.13	1251.20
604.48	1241.33
604.83	1231.89
605.18	1222.17
605.53	1212.74
605.87	1203.59
606.22	1194.74
606.57	1185.09
606.92	1175.45
607.27	1166.56
607.62	1157.82
607.96	1148.97
608.31	1140.93
608.66	1132.32
609.01	1123.91
609.36	1115.22
609.70	1106.64
610.05	1097.71
610.40	1089.14
610.75	1080.43
611.10	1072.07
611.44	1063.49
611.79	1055.35
612.14	1047.27
612.49	1039.32
612.83	1031.80
613.18	1023.91
613.53	1016.16
613.88	1008.15
614.22	1000.57
614.57	992.54
614.92	984.61
615.27	977.22
615.61	969.52
615.96	961.80
616.31	954.11
616.65	947.00
617.00	939.58
617.35	932.12
617.70	924.97
618.04	917.73
618.39	910.62
618.74	904.12
619.08	897.25
619.43	890.10
619.78	882.86
620.12	875.30
620.47	868.57
620.82	861.46
621.16	854.73
621.51	848.22
621.85	841.87
622.20	835.06
622.55	828.42
622.89	821.72
623.24	815.18
623.59	808.81
623.93	802.25
624.28	796.13
624.62	790.44
624.97	784.55
625.32	778.61
625.66	772.62
626.01	766.29
626.35	760.61
626.70	755.10
627.04	750.02
627.39	744.51
627.73	738.93
628.08	733.66
628.43	728.26
628.77	722.65
629.12	717.36
629.46	712.53
629.81	707.50
630.15	702.76
630.50	697.87
630.84	692.90
631.19	688.11
631.53	683.34
631.88	678.12
632.22	673.20
632.57	668.71
632.91	664.03
633.26	659.55
633.60	654.83
633.95	650.00
634.29	645.06
634.64	640.75
634.98	636.09
635.32	631.65
635.67	627.49
636.01	623.34
636.36	618.92
636.70	614.92
637.05	610.84
637.39	606.69
637.73	602.61
638.08	598.60
638.42	594.40
638.77	590.14
639.11	585.77
639.45	581.39
639.80	576.96
640.14	572.89
640.49	568.93
640.83	564.99
641.17	561.48
641.52	557.73
641.86	554.03
642.20	550.65
642.55	546.99
642.89	543.25
643.23	539.65
643.58	536.44
643.92	532.77
644.26	529.39
644.61	526.11
644.95	522.67
645.29	519.20
645.64	516.11
645.98	512.98
646.32	510.03
646.66	507.03
647.01	503.98
647.35	501.30
647.69	498.36
648.04	495.64
648.38	492.63
648.72	489.78
649.06	486.73
649.41	483.70
649.75	480.76
650.09	477.92
650.43	475.09
650.78	472.08
651.12	469.26
651.46	466.32
651.80	463.60
652.14	460.90
652.49	458.42
652.83	455.85
653.17	453.23
653.51	450.59
653.85	448.15
654.20	445.65
654.54	442.91
654.88	440.26
655.22	437.93
655.56	435.41
655.90	433.07
656.25	430.80
656.59	428.53
656.93	426.33
657.27	424.29
657.61	421.94
657.95	419.75
658.29	417.51
658.64	415.47
658.98	413.11
659.32	410.85
659.66	408.63
660.00	406.40
660.34	404.28
660.68	402.20
661.02	400.11
661.36	398.16
661.70	396.19
662.05	394.22
662.39	392.20
662.73	390.63
663.07	389.05
663.41	387.29
663.75	385.34
664.09	383.45
664.43	381.42
664.77	379.73
665.11	377.92
665.45	376.25
665.79	374.46
666.13	372.83
666.47	371.20
666.81	369.50
667.15	367.79
667.49	366.30
667.83	365.02
668.17	363.49
668.51	362.07
668.85	360.77
669.19	359.66
669.53	358.10
669.87	356.48
670.21	354.76
670.55	353.26
670.89	352.04
671.23	350.71
671.57	349.23
671.91	347.93
672.25	346.66
672.58	345.43
672.92	343.99
673.26	342.68
673.60	341.40
673.94	340.21
674.28	339.04
674.62	337.87
674.96	336.47
675.30	335.20
675.64	333.99
675.97	332.64
676.31	331.20
676.65	329.93
676.99	328.84
677.33	327.69
677.67	326.68
678.01	325.38
678.34	324.32
678.68	323.47
679.02	322.32
679.36	321.27
679.70	320.20
680.04	319.28
680.37	318.29
680.71	317.45
681.05	316.48
681.39	315.53
681.73	314.48
682.06	313.58
682.40	312.81
682.74	311.95
683.08	311.31
683.42	310.48
683.75	309.77
684.09	308.82
684.43	308.05
684.77	307.10
685.10	306.40
685.44	305.61
685.78	304.81
686.12	304.13
686.45	303.32
686.79	302.49
687.13	301.85
687.46	301.10
687.80	300.38
688.14	299.60
688.48	298.86
688.81	298.23
689.15	297.63
689.49	296.85
689.82	296.17
690.16	295.23
690.50	294.54
690.83	293.85
691.17	293.13
691.51	292.41
691.84	291.76
692.18	291.06
692.52	290.38
692.85	289.63
693.19	289.20
693.52	288.51
693.86	287.80
694.20	287.09
694.53	286.47
694.87	285.73
695.21	285.14
695.54	284.57
695.88	283.89
696.21	283.15
696.55	282.58
696.88	281.85
697.22	281.22
697.56	280.73
697.89	280.11
698.23	279.62
698.56	279.14
698.90	278.71
699.23	278.12
699.57	277.60
699.90	277.11
700.24	276.41
700.58	276.07
700.91	275.73
701.25	275.69
701.58	275.47
701.92	275.15
702.25	274.71
702.59	274.23
702.92	273.86
703.26	273.45
703.59	273.02
703.93	273.05
704.26	272.72
704.60	272.20
704.93	271.74
705.26	271.31
705.60	270.86
705.93	270.29
706.27	270.05
706.60	269.81
706.94	269.57
707.27	269.15
707.61	268.71
707.94	268.30
708.27	267.45
708.61	266.82
708.94	266.37
709.28	265.94
709.61	265.47
709.94	265.03
710.28	264.61
710.61	264.19
710.95	263.36
711.28	263.35
711.61	263.02
711.95	262.79
712.28	262.29
712.61	261.89
712.95	261.79
713.28	261.59
713.61	261.10
713.95	260.58
714.28	260.20
714.61	259.76
714.95	259.39
715.28	258.99
715.61	258.63
715.95	258.34
716.28	257.97
716.61	257.75
716.95	257.33
717.28	257.08
717.61	256.76
717.94	256.51
718.28	255.78
718.61	255.45
718.94	255.07
719.27	254.97
719.61	254.78
719.94	254.44
720.27	253.89
720.60	253.62
720.94	253.37
721.27	253.20
721.60	253.10
721.93	252.81
722.27	252.80
722.60	252.63
722.93	252.37
723.26	252.23
723.59	251.90
723.93	251.86
724.26	251.62
724.59	251.42
724.92	251.18
725.25	251.18
725.59	250.95
725.92	250.82
726.25	250.59
726.58	250.36
726.91	250.08
727.24	250.01
727.57	249.77
727.91	249.45
728.24	249.35
728.57	249.15
728.90	249.02
729.23	248.67
729.56	248.73
729.89	248.57
730.22	248.37
730.55	248.25
730.89	247.95
731.22	247.76
731.55	247.57
731.88	247.43
732.21	247.12
732.54	246.84
732.87	246.69
733.20	246.53
733.53	246.35
733.86	246.32
734.19	246.03
734.52	245.99
734.85	246.24
735.18	245.91
735.51	245.85
735.84	245.79
736.17	245.75
736.50	245.32
736.83	245.73
737.16	245.63
737.49	245.52
737.82	245.38
738.15	245.25
738.48	245.21
738.81	244.98
739.14	244.80
739.47	244.73
739.80	244.60
740.13	244.46
740.46	244.30
740.79	244.01
741.12	243.97
741.45	243.72
741.78	243.30
742.11	243.40
742.44	243.17
742.77	243.10
743.10	242.92
743.43	242.73
743.75	242.11
744.08	242.58
744.41	242.41
744.74	242.29
745.07	242.12
745.40	242.01
745.73	242.10
746.06	241.97
746.39	241.93
746.71	241.74
747.04	241.58
747.37	241.42
747.70	241.39
748.03	241.25
748.36	241.28
748.68	241.12
749.01	240.87
749.34	240.72
749.67	240.59
750.00	240.48
750.33	240.76
750.65	240.64
750.98	239.90
751.31	239.84
751.64	239.74
751.97	239.82
752.29	239.66
752.62	239.40
752.95	239.28
753.28	239.07
753.60	238.86
753.93	238.81
754.26	238.80
754.59	238.55
754.91	238.36
755.24	238.15
755.57	238.16
755.90	238.01
756.22	237.92
756.55	237.69
756.88	237.49
757.20	237.10
757.53	236.78
757.86	236.64
758.19	236.45
758.51	236.35
758.84	236.07
759.17	235.91
759.49	235.79
759.82	235.93
760.15	235.94
760.47	235.82
760.80	235.55
761.13	235.45
761.45	235.35
761.78	235.22
762.11	235.15
762.43	234.90
762.76	234.74
763.08	234.64
763.41	234.55
763.74	234.46
764.06	234.35
764.39	234.31
764.71	234.19
765.04	234.02
765.37	233.87
765.69	233.70
766.02	233.60
766.34	233.47
766.67	233.15
767.00	233.11
767.32	233.34
767.65	233.62
767.97	233.48
768.30	233.43
768.62	233.37
768.95	233.25
769.27	233.30
769.60	233.31
769.92	233.21
770.25	233.08
770.57	232.93
770.90	232.84
771.22	232.77
771.55	232.76
771.87	232.84
772.20	232.76
772.52	233.23
772.85	233.75
773.17	233.71
773.50	233.73
773.82	233.63
774.15	233.34
774.47	232.98
774.80	232.98
775.12	232.99
775.45	232.95
775.77	232.93
776.09	232.83
776.42	232.80
776.74	232.84
777.07	232.77
777.39	232.77
777.72	232.75
778.04	232.79
778.36	232.69
778.69	232.69
779.01	232.77
779.33	232.27
779.66	231.72
779.98	231.64
780.31	231.56
780.63	231.65
780.95	231.74
781.28	231.72
781.60	231.55
781.92	231.52
782.25	231.58
782.57	231.56
782.89	231.51
783.22	231.49
783.54	231.43
783.86	231.50
784.19	231.52
784.51	231.60
784.83	231.49
785.16	231.44
785.48	231.43
785.80	231.40
786.12	231.35
786.45	231.35
786.77	231.42
787.09	231.41
787.42	231.26
787.74	231.20
788.06	231.23
788.38	231.34
788.71	231.21
789.03	231.17
789.35	231.17
789.67	231.14
789.99	231.10
790.32	231.00
790.64	231.06
790.96	231.34
791.28	231.16
791.61	231.13
791.93	231.19
792.25	231.11
792.57	231.36
792.89	231.28
793.21	231.24
793.54	231.13
793.86	230.99
794.18	230.99
794.50	230.91
794.82	230.87
795.14	230.89
795.47	230.95
795.79	230.84
796.11	230.76
796.43	230.67
796.75	230.62
797.07	230.64
797.39	230.51
797.71	230.18
798.04	230.15
798.36	230.25
798.68	230.17
799.00	230.15
799.32	229.87
799.64	230.00
799.96	230.05
800.28	230.13
800.60	230.08
800.92	230.16
801.24	230.17
801.56	230.14
801.89	229.97
802.21	230.01
802.53	229.99
802.85	230.02
803.17	230.25
803.49	230.14
803.81	230.05
804.13	230.06
804.45	229.94
804.77	230.02
805.09	229.95
805.41	229.91
805.73	229.82
806.05	229.75
806.37	229.70
806.69	229.60
807.01	229.54
807.33	229.65
807.65	229.38
807.97	229.47
808.28	229.44
808.60	229.41
808.92	229.27
809.24	229.46
809.56	229.43
809.88	229.22
810.20	229.23
810.52	229.31
810.84	229.17
811.16	229.11
811.48	229.05
811.80	229.08
812.12	229.02
812.43	229.05
812.75	229.05
813.07	228.90
813.39	228.88
813.71	228.78
814.03	228.65
814.35	228.70
814.67	228.55
814.98	228.51
815.30	228.51
815.62	228.40
815.94	228.16
816.26	228.28
816.58	228.16
816.89	228.17
817.21	228.01
817.53	228.02
817.85	228.03
818.17	227.91
818.48	227.81
818.80	227.88
819.12	227.83
819.44	227.69
819.76	227.63
820.07	227.58
820.39	227.53
820.71	227.53
821.03	227.51
821.34	227.40
821.66	227.46
821.98	227.52
822.30	227.53
822.61	227.76
822.93	227.54
823.25	227.56
823.57	227.50
823.88	227.59
824.20	227.58
824.52	227.71
824.83	227.72
825.15	227.57
825.47	227.54
825.79	227.60
826.10	227.59
826.42	227.61
826.74	227.65
827.05	227.69
827.37	227.76
827.69	227.72
828.00	227.79
828.32	227.78
828.64	227.73
828.95	227.96
829.27	227.81
829.58	227.79
829.90	227.86
830.22	227.89
830.53	227.80
830.85	227.78
831.17	227.63
831.48	227.62
831.80	227.73
832.11	227.74
832.43	227.70
832.75	227.75
833.06	228.09
833.38	227.95
833.69	227.96
834.01	227.98
834.32	227.98
834.64	227.96
834.96	227.86
835.27	227.85
835.59	227.77
835.90	227.72
836.22	227.77
836.53	227.69
836.85	227.69
837.16	228.19
837.48	228.19
837.79	228.38
838.11	228.43
838.42	228.37
838.74	228.41
839.05	228.35
839.37	228.32
839.68	227.98
840.00	228.05
840.31	228.03
840.63	227.98
840.94	227.98
841.26	227.96
841.57	227.98
841.88	228.02
842.20	227.95
842.51	227.89
842.83	227.80
843.14	228.23
843.46	228.22
843.77	227.87
844.08	227.83
844.40	227.68
844.71	227.62
845.03	227.65
845.34	227.60
845.65	227.60
845.97	227.57
846.28	227.60
846.60	227.68
846.91	227.63
847.22	227.60
847.54	227.73
847.85	227.75
848.16	227.73
848.48	227.62
848.79	227.87
849.10	227.95
849.42	228.03
849.73	227.58
850.04	227.57
850.36	227.45
850.67	227.60
850.98	227.60
851.30	227.60
851.61	227.59
851.92	227.63
852.23	227.78
852.55	227.85
852.86	227.90
853.17	227.81
853.49	227.96
853.80	228.10
854.11	228.04
854.42	228.07
854.74	228.05
855.05	228.13
855.36	227.88
855.67	227.80
855.99	227.85
856.30	228.45
856.61	228.40
856.92	228.44
857.23	228.39
857.55	228.34
857.86	228.37
858.17	228.44
858.48	228.29
858.79	228.16
859.11	228.19
859.42	228.13
859.73	228.16
860.04	228.12
860.35	227.99
860.66	227.91
860.98	227.85
861.29	227.86
861.60	227.84
861.91	227.91
862.22	227.91
862.53	227.81
862.84	227.26
863.16	227.43
863.47	227.33
863.78	227.30
864.09	227.36
864.40	227.37
864.71	227.39
865.02	227.44
865.33	227.44
865.64	227.31
865.95	227.25
866.27	227.52
866.58	227.49
866.89	227.51
867.20	227.53
867.51	227.48
867.82	227.46
868.13	227.60
868.44	227.46
868.75	227.53
869.06	227.55
869.37	227.55
869.68	227.40
869.99	227.52
870.30	227.52
870.61	227.53
870.92	227.48
871.23	227.41
871.54	227.47
871.85	227.58
872.16	227.64
872.47	227.62
872.78	227.34
873.09	227.41
873.40	227.35
873.71	227.41
874.02	227.42
874.33	227.46
874.64	227.30
874.95	227.40
875.26	227.26
875.56	227.29
875.87	227.27
876.18	227.18
876.49	227.61
876.80	227.59
877.11	227.46
877.42	227.43
877.73	227.49
878.04	227.48
878.35	227.46
878.66	227.47
878.96	227.43
879.27	227.31
879.58	227.24
879.89	227.17
880.20	227.20
880.51	227.19
880.82	227.12
881.12	227.20
881.43	227.06
881.74	226.99
882.05	226.94
882.36	226.89
882.67	227.02
882.97	226.47
883.28	226.41
883.59	226.46
883.90	226.58
884.21	226.58
884.51	226.50
884.82	226.40
885.13	226.43
885.44	226.48
885.74	226.61
886.05	226.58
886.36	226.64
886.67	226.53
886.98	226.79
887.28	226.80
887.59	226.79
887.90	226.82
888.20	226.89
888.51	226.99
888.82	227.00
889.13	226.97
889.43	227.34
889.74	227.33
890.05	227.31
890.35	227.24
890.66	227.23
890.97	227.17
891.28	227.16
891.58	227.13
891.89	227.05
892.20	226.94
892.50	226.99
892.81	226.95
893.12	226.83
893.42	226.58
893.73	226.57
894.04	226.49
894.34	226.52
894.65	226.47
894.95	226.39
895.26	226.43
895.57	226.63
895.87	226.25
896.18	226.35
896.48	226.41
896.79	226.38
897.10	226.38
897.40	226.43
897.71	226.48
898.01	226.48
898.32	226.62
898.63	226.67
898.93	226.64
899.24	226.68
899.54	226.70
899.85	226.70
900.15	226.70
900.46	226.74
900.76	226.76
901.07	226.78
901.38	226.74
901.68	226.75
901.99	226.51
902.29	226.52
902.60	226.47
902.90	226.45
903.21	226.36
903.51	226.31
903.82	226.41
904.12	226.38
904.43	226.45
904.73	226.39
905.03	226.42
905.34	226.90
905.64	226.93
905.95	226.99
906.25	227.00
906.56	227.05
906.86	227.04
907.17	227.04
907.47	227.11
907.77	227.14
908.08	227.12
908.38	227.20
908.69	227.26
908.99	227.39
909.30	227.44
909.60	227.61
909.90	227.65
910.21	227.51
910.51	227.45
910.81	227.46
911.12	227.53
911.42	227.55
911.73	227.00
912.03	227.07
912.33	227.20
912.64	227.17
912.94	227.09
913.24	227.06
913.55	227.03
913.85	227.00
914.15	227.06
914.46	227.07
914.76	227.00
915.06	226.98
915.37	226.86
915.67	226.78
915.97	226.68
916.27	226.62
916.58	226.68
916.88	226.69
917.18	226.63
917.49	226.98
917.79	226.94
918.09	227.01
918.39	227.09
918.70	226.99
919.00	227.01
919.30	227.32
919.60	227.30
919.91	227.22
920.21	227.31
920.51	227.20
920.81	227.16
921.12	227.19
921.42	227.16
921.72	227.15
922.02	227.18
922.32	227.34
922.63	227.36
922.93	227.57
923.23	227.63
923.53	227.59
923.83	227.19
924.13	227.26
924.44	227.21
924.74	227.29
925.04	227.42
925.34	227.38
925.64	227.11
925.94	227.03
926.24	227.36
926.55	227.25
926.85	227.27
927.15	227.27
927.45	227.33
927.75	227.32
928.05	227.43
928.35	227.39
928.65	227.39
928.95	227.43
929.26	227.24
929.56	227.28
929.86	227.30
930.16	227.28
930.46	227.23
930.76	227.29
931.06	227.04
931.36	226.93
931.66	227.06
931.96	227.13
932.26	227.25
932.56	227.05
932.86	227.05
933.16	227.08
933.46	227.05
933.76	226.94
934.06	227.05
934.36	227.17
934.66	227.09
934.96	227.03
935.26	227.01
935.56	227.08
935.86	226.98
936.16	226.96
936.46	227.00
936.76	227.05
937.06	227.01
937.36	227.05
937.66	227.02
937.96	226.99
938.26	226.90
938.56	226.82
938.86	226.82
939.16	226.95
939.46	227.02
939.76	227.01
940.06	227.06
940.35	226.99
940.65	226.70
940.95	226.82
941.25	226.72
941.55	226.74
941.85	226.68
942.15	226.78
942.45	226.85
942.75	226.80
943.04	226.76
943.34	226.85
943.64	226.78
943.94	226.73
944.24	226.70
944.54	226.68
944.84	226.72
945.13	226.62
945.43	226.50
945.73	226.47
946.03	226.44
946.33	226.35
946.62	226.27
946.92	226.29
947.22	226.25
947.52	226.28
947.82	226.22
948.11	226.25
948.41	226.13
948.71	226.05
949.01	226.13
949.31	226.06
949.60	226.00
949.90	226.09
950.20	226.12
950.50	226.08
950.79	226.11
951.09	226.21
951.39	226.25
951.69	226.26
951.98	226.30
952.28	226.36
952.58	226.32
952.87	226.37
953.17	226.55
953.47	226.57
953.76	226.53
954.06	226.53
954.36	226.46
954.66	226.49
954.95	226.58
955.25	226.62
955.55	226.69
955.84	226.65
956.14	226.74
956.44	226.71
956.73	226.66
957.03	226.74
957.32	226.69
957.62	226.64
957.92	226.81
958.21	226.74
958.51	227.30
958.81	227.39
959.10	227.52
959.40	227.45
959.69	227.44
959.99	227.53
960.29	227.56
960.58	227.47
960.88	227.61
961.17	227.59
961.47	227.58
961.76	227.51
962.06	227.59
962.36	227.48
962.65	227.54
962.95	227.52
963.24	227.43
963.54	227.40
963.83	227.50
964.13	227.40
964.42	227.29
964.72	226.85
965.01	226.90
965.31	226.79
965.60	226.68
965.90	227.00
966.19	226.94
966.49	226.92
966.78	227.00
967.08	226.95
967.37	226.89
967.67	226.80
967.96	226.80
968.26	226.80
968.55	226.87
968.85	226.84
969.14	226.86
969.43	226.88
969.73	226.89
970.02	226.75
970.32	226.70
970.61	226.69
970.91	226.57
971.20	226.51
971.49	226.49
971.79	226.55
972.08	226.23
972.38	226.18
972.67	226.16
972.96	226.16
973.26	226.04
973.55	226.16
973.85	226.11
974.14	226.09
974.43	226.04
974.73	225.98
975.02	225.93
975.31	225.97
975.61	225.95
975.90	225.92
976.19	225.97
976.49	225.94
976.78	226.06
977.07	226.03
977.37	226.09
977.66	226.09
977.95	226.03
978.24	226.05
978.54	226.12
978.83	226.14
979.12	226.12
979.42	226.19
979.71	226.10
980.00	226.19
980.29	226.28
980.59	226.23
980.88	226.26
981.17	226.31
981.46	226.27
981.76	226.24
982.05	226.38
982.34	226.43
982.63	226.48
982.93	226.42
983.22	226.54
983.51	226.50
983.80	226.55
984.09	226.64
984.39	226.62
984.68	226.63
984.97	226.60
985.26	226.48
985.55	226.47
985.85	226.41
986.14	226.42
986.43	226.40
986.72	226.42
987.01	226.30
987.30	226.27
987.59	226.20
987.89	226.21
988.18	226.05
988.47	225.96
988.76	225.88
989.05	225.91
989.34	225.84
989.63	225.97
989.92	225.94
990.22	225.86
990.51	225.84
990.80	225.83
991.09	225.87
991.38	225.99
991.67	225.96
991.96	225.90
992.25	225.91
992.54	225.80
992.83	225.75
993.12	225.72
993.41	225.80
993.70	226.05
993.99	226.17
994.28	226.31
994.58	226.35
994.87	226.40
995.16	226.40
995.45	226.33
995.74	226.16
996.03	226.18
996.32	226.30
996.61	226.41
996.90	226.40
997.19	226.44
997.48	226.45
997.77	226.35
998.06	226.34
998.34	226.33
998.63	226.42
998.92	226.48
999.21	226.56
999.50	226.55
999.79	226.37
1000.08	226.33
1000.37	226.30
1000.66	226.30
1000.95	226.37
1001.24	226.36
1001.53	226.46
1001.82	226.47
1002.11	226.33
1002.40	226.28
1002.68	226.47
1002.97	226.73
1003.26	226.63
1003.55	226.51
1003.84	226.62
1004.13	226.85
1004.42	226.76
1004.71	226.71
1004.99	226.61
1005.28	226.82
1005.57	226.77
1005.86	226.68
1006.15	226.65
1006.44	226.56
1006.72	226.55
1007.01	226.43
1007.30	226.41
1007.59	226.35
1007.88	226.32
1008.17	226.35
1008.45	226.28
1008.74	225.95
1009.03	225.73
1009.32	225.78
1009.60	225.87
1009.89	225.84
1010.18	225.61
1010.47	225.63
1010.76	225.65
1011.04	225.67
1011.33	225.54
1011.62	225.66
1011.91	225.77
1012.19	225.75
1012.48	225.79
1012.77	225.83
1013.05	226.06
1013.34	226.13
1013.63	226.11
1013.92	226.19
1014.20	226.22
1014.49	226.35
1014.78	226.43
1015.06	226.34
1015.35	226.33
1015.64	226.38
1015.92	226.41
1016.21	226.51
1016.50	226.45
1016.78	226.49
1017.07	226.57
1017.36	226.51
1017.64	226.38
1017.93	226.44
1018.22	226.43
1018.50	226.41
1018.79	226.40
1019.08	226.17
1019.36	226.16
1019.65	226.13
1019.93	226.26
1020.22	226.31
1020.51	226.49
1020.79	226.35
1021.08	225.80
1021.36	225.60
1021.65	226.20
1021.94	226.05
1022.22	226.15
1022.51	225.80
1022.79	228.80
1023.08	226.40
1023.36	231.95
1023.65	223.60
>>>>>End Processed Spectral Data<<<<<
