SpectraSuite Data File
++++++++++++++++++++++++++++++++++++
Date: Wed Sep 04 17:49:44 EDT 2013
User: lab3
Dark Spectrum Present: Yes
Reference Spectrum Present: No
Number of Sampled Component Spectra: 1
Spectrometers: USB2E7196
Integration Time (usec): 170000 (USB2E7196)
Spectra Averaged: 20 (USB2E7196)
Boxcar Smoothing: 10 (USB2E7196)
Correct for Electrical Dark: No (USB2E7196)
Strobe/Lamp Enabled: No (USB2E7196)
Correct for Detector Non-linearity: No (USB2E7196)
Correct for Stray Light: No (USB2E7196)
Number of Pixels in Processed Spectrum: 2048
>>>>>Begin Processed Spectral Data<<<<<
339.09	0.00
339.48	213.50
339.86	213.60
340.24	216.10
340.63	216.85
341.01	225.05
341.39	219.65
341.78	222.40
342.16	223.45
342.54	221.90
342.93	211.91
343.31	222.53
343.69	222.99
344.07	223.50
344.46	223.92
344.84	224.39
345.22	224.40
345.60	224.65
345.99	224.86
346.37	225.01
346.75	225.18
347.13	225.22
347.52	225.25
347.90	225.39
348.28	225.42
348.66	225.60
349.05	225.49
349.43	225.62
349.81	225.68
350.19	225.80
350.57	225.87
350.96	226.05
351.34	226.22
351.72	226.38
352.10	226.44
352.48	226.55
352.87	226.49
353.25	226.49
353.63	226.63
354.01	226.61
354.39	226.62
354.77	226.72
355.15	226.97
355.54	226.94
355.92	226.91
356.30	226.94
356.68	227.26
357.06	227.42
357.44	227.42
357.82	227.49
358.20	227.95
358.58	228.04
358.97	228.02
359.35	228.18
359.73	228.31
360.11	228.42
360.49	228.44
360.87	228.64
361.25	228.83
361.63	228.95
362.01	229.02
362.39	229.08
362.77	229.13
363.15	229.12
363.53	229.25
363.91	229.30
364.29	229.40
364.67	229.01
365.05	228.97
365.43	229.08
365.81	229.14
366.19	229.00
366.57	229.13
366.95	229.17
367.33	229.08
367.71	229.05
368.09	229.15
368.47	229.17
368.85	229.06
369.23	229.11
369.61	228.93
369.99	229.12
370.37	229.19
370.75	229.39
371.13	229.25
371.51	229.13
371.89	229.13
372.27	229.17
372.65	229.18
373.03	229.17
373.41	229.05
373.78	229.00
374.16	228.73
374.54	228.54
374.92	228.45
375.30	228.40
375.68	228.25
376.06	228.18
376.44	228.07
376.82	227.96
377.19	227.86
377.57	227.85
377.95	227.62
378.33	227.51
378.71	227.20
379.09	227.23
379.47	227.30
379.84	227.12
380.22	226.97
380.60	226.79
380.98	226.68
381.36	226.63
381.73	226.55
382.11	226.63
382.49	226.58
382.87	226.45
383.25	226.38
383.62	226.95
384.00	226.75
384.38	226.72
384.76	226.83
385.13	226.95
385.51	226.90
385.89	226.77
386.27	226.72
386.64	226.75
387.02	226.68
387.40	226.53
387.78	226.63
388.15	226.60
388.53	226.59
388.91	226.57
389.29	226.48
389.66	226.45
390.04	226.36
390.42	226.44
390.79	226.42
391.17	226.36
391.55	225.79
391.92	225.82
392.30	225.90
392.68	225.80
393.05	225.75
393.43	225.71
393.81	225.79
394.18	225.72
394.56	225.76
394.94	225.86
395.31	225.85
395.69	225.96
396.06	226.04
396.44	226.13
396.82	226.12
397.19	226.46
397.57	226.42
397.95	226.51
398.32	226.37
398.70	226.50
399.07	226.71
399.45	226.73
399.82	226.78
400.20	226.80
400.58	226.91
400.95	226.79
401.33	227.05
401.70	227.49
402.08	227.63
402.45	227.68
402.83	227.89
403.20	228.05
403.58	228.11
403.95	228.41
404.33	228.60
404.71	228.81
405.08	229.19
405.46	229.51
405.83	229.77
406.21	230.13
406.58	230.44
406.96	230.72
407.33	231.10
407.70	231.52
408.08	232.27
408.45	232.67
408.83	233.23
409.20	233.58
409.58	233.67
409.95	234.23
410.33	234.81
410.70	235.28
411.08	235.90
411.45	236.52
411.82	237.04
412.20	237.82
412.57	238.85
412.95	239.23
413.32	240.11
413.69	240.90
414.07	241.82
414.44	242.75
414.82	243.67
415.19	244.87
415.56	246.05
415.94	247.03
416.31	248.49
416.68	249.85
417.06	251.47
417.43	253.20
417.81	254.97
418.18	256.80
418.55	258.61
418.93	260.59
419.30	262.69
419.67	264.93
420.04	267.14
420.42	269.47
420.79	272.56
421.16	275.30
421.54	278.35
421.91	281.45
422.28	284.53
422.66	287.87
423.03	291.27
423.40	294.53
423.77	298.05
424.15	301.57
424.52	305.33
424.89	309.48
425.26	313.27
425.64	317.01
426.01	321.02
426.38	325.44
426.75	330.04
427.13	334.51
427.50	339.18
427.87	344.00
428.24	348.86
428.61	353.37
428.99	358.64
429.36	364.03
429.73	369.32
430.10	374.78
430.47	380.45
430.85	386.04
431.22	392.17
431.59	399.00
431.96	405.19
432.33	412.01
432.70	418.54
433.08	426.37
433.45	433.78
433.82	441.17
434.19	449.19
434.56	457.09
434.93	464.78
435.30	472.41
435.68	480.99
436.05	489.26
436.42	497.36
436.79	504.98
437.16	513.24
437.53	522.00
437.90	530.72
438.27	539.04
438.64	547.83
439.01	556.16
439.38	563.19
439.75	570.36
440.13	578.62
440.50	586.09
440.87	592.27
441.24	598.54
441.61	605.41
441.98	610.58
442.35	616.31
442.72	622.28
443.09	628.06
443.46	631.34
443.83	633.67
444.20	635.65
444.57	638.23
444.94	639.40
445.31	640.42
445.68	641.63
446.05	641.94
446.42	640.68
446.79	639.25
447.16	637.73
447.53	636.41
447.90	632.56
448.27	628.91
448.64	624.00
449.01	620.20
449.37	614.07
449.74	607.91
450.11	601.32
450.48	593.75
450.85	585.91
451.22	579.14
451.59	572.58
451.96	566.32
452.33	558.27
452.70	550.89
453.07	542.26
453.43	533.38
453.80	525.08
454.17	517.14
454.54	509.53
454.91	501.33
455.28	493.36
455.65	485.86
456.02	479.12
456.38	472.83
456.75	465.20
457.12	458.80
457.49	452.70
457.86	446.32
458.23	441.07
458.59	435.33
458.96	429.64
459.33	424.51
459.70	419.45
460.07	415.46
460.43	410.84
460.80	406.74
461.17	403.02
461.54	399.09
461.91	395.28
462.27	391.45
462.64	388.13
463.01	384.62
463.38	381.36
463.74	377.35
464.11	374.33
464.48	371.76
464.85	368.97
465.21	366.79
465.58	364.46
465.95	361.63
466.32	359.46
466.68	357.21
467.05	355.06
467.42	352.96
467.78	350.69
468.15	348.51
468.52	346.93
468.88	344.70
469.25	342.76
469.62	341.33
469.98	339.74
470.35	338.30
470.72	336.85
471.08	335.18
471.45	333.93
471.82	332.73
472.18	331.34
472.55	330.30
472.92	328.96
473.28	327.84
473.65	326.76
474.02	325.76
474.38	324.95
474.75	324.26
475.11	323.39
475.48	322.72
475.85	322.24
476.21	321.44
476.58	320.88
476.94	320.56
477.31	320.03
477.67	319.45
478.04	319.04
478.41	318.88
478.77	319.17
479.14	319.00
479.50	318.87
479.87	318.85
480.23	318.91
480.60	318.91
480.96	318.95
481.33	319.36
481.69	319.52
482.06	319.81
482.42	320.09
482.79	320.38
483.15	320.81
483.52	321.30
483.88	321.98
484.25	322.59
484.61	323.12
484.98	323.84
485.34	324.94
485.71	325.96
486.07	326.92
486.44	327.51
486.80	328.57
487.17	329.66
487.53	331.08
487.90	332.42
488.26	334.20
488.62	335.90
488.99	337.44
489.35	339.32
489.72	341.12
490.08	342.99
490.44	345.10
490.81	347.41
491.17	349.68
491.54	352.09
491.90	354.68
492.26	357.42
492.63	360.26
492.99	362.99
493.36	366.11
493.72	369.43
494.08	372.88
494.45	376.54
494.81	380.42
495.17	384.34
495.54	388.48
495.90	392.61
496.26	397.00
496.63	401.49
496.99	406.19
497.35	411.37
497.72	416.72
498.08	422.19
498.44	427.93
498.80	433.81
499.17	439.67
499.53	445.84
499.89	452.42
500.26	459.17
500.62	466.14
500.98	473.50
501.34	480.94
501.71	488.78
502.07	496.55
502.43	504.72
502.79	512.95
503.16	521.71
503.52	530.62
503.88	539.78
504.24	549.50
504.60	559.45
504.97	569.65
505.33	579.90
505.69	590.87
506.05	601.70
506.41	612.99
506.78	624.82
507.14	636.89
507.50	649.08
507.86	661.64
508.22	674.64
508.59	687.44
508.95	700.89
509.31	714.78
509.67	728.88
510.03	743.12
510.39	757.80
510.75	772.33
511.12	787.45
511.48	803.04
511.84	818.64
512.20	834.45
512.56	850.54
512.92	867.45
513.28	884.11
513.64	901.30
514.00	918.63
514.37	936.28
514.73	954.17
515.09	972.33
515.45	990.67
515.81	1008.83
516.17	1027.73
516.53	1046.22
516.89	1064.86
517.25	1084.24
517.61	1104.23
517.97	1124.46
518.33	1144.80
518.69	1165.07
519.05	1185.40
519.41	1206.13
519.77	1227.14
520.13	1247.81
520.49	1268.19
520.85	1290.25
521.21	1311.27
521.57	1332.58
521.93	1352.86
522.29	1373.86
522.65	1394.30
523.01	1415.08
523.37	1435.99
523.73	1456.80
524.09	1477.33
524.45	1497.81
524.81	1518.57
525.17	1539.06
525.53	1559.38
525.89	1580.12
526.25	1600.54
526.61	1620.62
526.97	1641.32
527.33	1662.30
527.68	1683.89
528.04	1704.93
528.40	1724.49
528.76	1745.04
529.12	1765.37
529.48	1786.54
529.84	1806.44
530.20	1827.59
530.56	1848.13
530.91	1868.89
531.27	1888.99
531.63	1909.45
531.99	1929.77
532.35	1949.31
532.71	1969.35
533.07	1989.79
533.42	2009.10
533.78	2028.84
534.14	2048.90
534.50	2067.78
534.86	2086.80
535.21	2104.02
535.57	2121.98
535.93	2139.70
536.29	2157.29
536.65	2175.25
537.00	2192.59
537.36	2210.04
537.72	2226.14
538.08	2243.16
538.44	2259.36
538.79	2275.47
539.15	2291.83
539.51	2307.63
539.87	2322.46
540.22	2336.18
540.58	2350.05
540.94	2363.31
541.29	2375.75
541.65	2387.99
542.01	2400.09
542.37	2410.00
542.72	2420.96
543.08	2431.54
543.44	2442.85
543.79	2452.73
544.15	2462.12
544.51	2471.75
544.87	2481.20
545.22	2489.74
545.58	2496.78
545.94	2503.76
546.29	2510.38
546.65	2516.23
547.01	2521.90
547.36	2527.67
547.72	2533.05
548.07	2536.97
548.43	2541.99
548.79	2546.63
549.14	2550.32
549.50	2554.00
549.86	2557.98
550.21	2561.58
550.57	2564.93
550.92	2566.00
551.28	2567.37
551.64	2569.48
551.99	2571.09
552.35	2572.41
552.70	2574.27
553.06	2575.90
553.41	2577.09
553.77	2578.61
554.13	2580.05
554.48	2581.22
554.84	2582.41
555.19	2583.35
555.55	2584.80
555.90	2584.23
556.26	2582.89
556.61	2581.31
556.97	2578.85
557.32	2577.90
557.68	2576.51
558.03	2574.98
558.39	2573.38
558.74	2572.19
559.10	2568.88
559.45	2565.13
559.81	2560.39
560.16	2555.24
560.52	2550.31
560.87	2545.65
561.23	2540.01
561.58	2534.05
561.94	2526.88
562.29	2519.68
562.64	2512.52
563.00	2504.26
563.35	2497.50
563.71	2491.11
564.06	2484.83
564.42	2478.65
564.77	2471.93
565.12	2464.51
565.48	2456.73
565.83	2449.08
566.19	2441.11
566.54	2433.28
566.89	2425.55
567.25	2418.27
567.60	2411.22
567.96	2403.62
568.31	2395.66
568.66	2386.99
569.02	2378.05
569.37	2369.97
569.72	2362.16
570.08	2352.91
570.43	2343.46
570.78	2334.46
571.14	2324.95
571.49	2314.89
571.84	2305.42
572.20	2294.65
572.55	2284.18
572.90	2273.19
573.26	2262.89
573.61	2251.94
573.96	2240.79
574.31	2228.54
574.67	2216.52
575.02	2203.67
575.37	2191.30
575.72	2178.16
576.08	2166.34
576.43	2154.09
576.78	2141.12
577.13	2127.40
577.49	2114.64
577.84	2103.20
578.19	2091.08
578.54	2078.65
578.90	2066.85
579.25	2054.44
579.60	2041.98
579.95	2029.35
580.30	2016.59
580.66	2003.18
581.01	1989.64
581.36	1975.76
581.71	1963.29
582.06	1950.53
582.42	1938.30
582.77	1925.77
583.12	1913.80
583.47	1901.40
583.82	1889.39
584.17	1877.67
584.53	1866.26
584.88	1853.80
585.23	1840.40
585.58	1826.76
585.93	1813.75
586.28	1800.67
586.63	1787.12
586.98	1773.12
587.34	1760.03
587.69	1746.84
588.04	1734.69
588.39	1722.84
588.74	1710.64
589.09	1698.78
589.44	1686.22
589.79	1674.08
590.14	1662.32
590.49	1650.43
590.84	1638.50
591.19	1626.70
591.54	1614.44
591.89	1602.34
592.25	1592.41
592.60	1581.19
592.95	1569.52
593.30	1557.88
593.65	1545.76
594.00	1533.54
594.35	1524.00
594.70	1512.24
595.05	1501.24
595.40	1489.08
595.75	1477.36
596.10	1466.59
596.45	1455.10
596.80	1444.49
597.15	1433.13
597.50	1421.45
597.85	1410.41
598.19	1399.14
598.54	1387.42
598.89	1376.50
599.24	1366.05
599.59	1354.35
599.94	1343.55
600.29	1333.25
600.64	1322.98
600.99	1312.60
601.34	1303.35
601.69	1292.26
602.04	1282.77
602.39	1273.12
602.74	1264.09
603.08	1254.91
603.43	1245.60
603.78	1236.24
604.13	1226.50
604.48	1216.99
604.83	1207.29
605.18	1197.55
605.53	1188.14
605.87	1179.39
606.22	1170.88
606.57	1161.52
606.92	1152.42
607.27	1143.86
607.62	1135.40
607.96	1126.99
608.31	1119.07
608.66	1110.79
609.01	1102.34
609.36	1093.94
609.70	1085.16
610.05	1076.50
610.40	1067.97
610.75	1059.52
611.10	1051.27
611.44	1043.05
611.79	1035.11
612.14	1027.39
612.49	1019.57
612.83	1012.19
613.18	1004.26
613.53	996.57
613.88	988.93
614.22	981.36
614.57	973.47
614.92	965.61
615.27	958.15
615.61	950.52
615.96	943.12
616.31	935.76
616.65	928.64
617.00	921.70
617.35	914.80
617.70	907.93
618.04	900.96
618.39	894.12
618.74	887.66
619.08	881.02
619.43	874.27
619.78	867.34
620.12	860.28
620.47	853.62
620.82	846.58
621.16	839.83
621.51	833.26
621.85	827.04
622.20	820.65
622.55	814.10
622.89	807.81
623.24	801.46
623.59	795.22
623.93	789.19
624.28	783.07
624.62	777.46
624.97	771.59
625.32	765.98
625.66	760.01
626.01	754.01
626.35	748.55
626.70	743.19
627.04	738.05
627.39	732.54
627.73	727.35
628.08	722.34
628.43	716.94
628.77	711.69
629.12	706.55
629.46	701.79
629.81	697.19
630.15	692.41
630.50	687.52
630.84	682.77
631.19	677.80
631.53	673.40
631.88	668.16
632.22	663.45
632.57	658.90
632.91	654.46
633.26	650.09
633.60	645.43
633.95	640.85
634.29	636.09
634.64	631.78
634.98	627.00
635.32	622.66
635.67	618.75
636.01	614.66
636.36	610.35
636.70	606.34
637.05	602.14
637.39	598.03
637.73	593.85
638.08	589.90
638.42	585.85
638.77	581.55
639.11	577.36
639.45	573.05
639.80	568.77
640.14	564.68
640.49	560.85
640.83	557.03
641.17	553.33
641.52	549.89
641.86	546.30
642.20	543.30
642.55	539.61
642.89	536.03
643.23	532.54
643.58	529.60
643.92	526.01
644.26	522.59
644.61	519.48
644.95	516.36
645.29	513.03
645.64	510.01
645.98	507.05
646.32	504.20
646.66	501.21
647.01	498.30
647.35	495.67
647.69	492.87
648.04	490.16
648.38	487.37
648.72	484.42
649.06	481.42
649.41	478.40
649.75	475.59
650.09	472.67
650.43	469.96
650.78	466.95
651.12	464.13
651.46	461.48
651.80	458.76
652.14	456.08
652.49	453.68
652.83	451.13
653.17	448.49
653.51	445.88
653.85	443.49
654.20	440.91
654.54	438.31
654.88	435.67
655.22	433.44
655.56	431.07
655.90	428.88
656.25	426.79
656.59	424.62
656.93	422.41
657.27	420.41
657.61	417.99
657.95	415.83
658.29	413.67
658.64	411.67
658.98	409.42
659.32	407.37
659.66	405.07
660.00	402.88
660.34	400.87
660.68	398.82
661.02	396.86
661.36	395.08
661.70	393.05
662.05	391.17
662.39	389.19
662.73	387.47
663.07	385.85
663.41	383.99
663.75	382.07
664.09	380.36
664.43	378.46
664.77	376.92
665.11	375.11
665.45	373.47
665.79	371.77
666.13	370.10
666.47	368.36
666.81	366.71
667.15	365.06
667.49	363.56
667.83	362.25
668.17	360.66
668.51	359.17
668.85	357.94
669.19	356.72
669.53	355.16
669.87	353.59
670.21	351.96
670.55	350.55
670.89	349.38
671.23	347.92
671.57	346.60
671.91	345.17
672.25	343.84
672.58	342.62
672.92	341.22
673.26	339.99
673.60	338.82
673.94	337.68
674.28	336.66
674.62	335.56
674.96	334.27
675.30	333.19
675.64	332.00
675.97	330.59
676.31	329.31
676.65	328.15
676.99	327.15
677.33	325.96
677.67	324.90
678.01	323.50
678.34	322.50
678.68	321.51
679.02	320.47
679.36	319.50
679.70	318.36
680.04	317.42
680.37	316.50
680.71	315.58
681.05	314.71
681.39	313.74
681.73	312.80
682.06	311.89
682.40	310.98
682.74	310.12
683.08	309.59
683.42	308.71
683.75	307.95
684.09	306.91
684.43	306.17
684.77	305.28
685.10	304.61
685.44	303.80
685.78	303.03
686.12	302.24
686.45	301.44
686.79	300.71
687.13	299.99
687.46	299.10
687.80	298.42
688.14	297.64
688.48	296.92
688.81	296.10
689.15	295.48
689.49	294.78
689.82	294.14
690.16	293.22
690.50	292.58
690.83	291.89
691.17	291.25
691.51	290.56
691.84	289.95
692.18	289.20
692.52	288.50
692.85	287.89
693.19	287.53
693.52	286.87
693.86	286.15
694.20	285.55
694.53	285.09
694.87	284.49
695.21	283.86
695.54	283.26
695.88	282.58
696.21	281.81
696.55	281.25
696.88	280.64
697.22	280.00
697.56	279.49
697.89	278.77
698.23	278.31
698.56	277.74
698.90	277.25
699.23	276.81
699.57	276.44
699.90	275.82
700.24	275.13
700.58	274.77
700.91	274.48
701.25	274.45
701.58	274.25
701.92	273.85
702.25	273.44
702.59	272.98
702.92	272.71
703.26	272.41
703.59	272.00
703.93	271.99
704.26	271.70
704.60	271.30
704.93	270.97
705.26	270.46
705.60	270.21
705.93	269.72
706.27	269.45
706.60	269.17
706.94	269.03
707.27	268.59
707.61	268.19
707.94	267.70
708.27	266.90
708.61	266.18
708.94	265.71
709.28	265.36
709.61	264.91
709.94	264.46
710.28	264.06
710.61	263.70
710.95	262.90
711.28	262.82
711.61	262.44
711.95	262.12
712.28	261.70
712.61	261.26
712.95	261.17
713.28	260.96
713.61	260.48
713.95	259.97
714.28	259.63
714.61	259.21
714.95	258.90
715.28	258.46
715.61	258.10
715.95	257.78
716.28	257.40
716.61	257.16
716.95	256.75
717.28	256.42
717.61	256.04
717.94	255.71
718.28	255.08
718.61	254.75
718.94	254.40
719.27	254.12
719.61	253.81
719.94	253.39
720.27	252.91
720.60	252.54
720.94	252.33
721.27	252.14
721.60	251.99
721.93	251.70
722.27	251.69
722.60	251.56
722.93	251.27
723.26	251.05
723.59	250.73
723.93	250.63
724.26	250.46
724.59	250.20
724.92	250.05
725.25	249.91
725.59	249.64
725.92	249.50
726.25	249.36
726.58	249.20
726.91	248.99
727.24	248.85
727.57	248.65
727.91	248.40
728.24	248.25
728.57	248.00
728.90	247.88
729.23	247.48
729.56	247.45
729.89	247.25
730.22	247.06
730.55	246.95
730.89	246.74
731.22	246.50
731.55	246.35
731.88	246.17
732.21	245.98
732.54	245.82
732.87	245.71
733.20	245.55
733.53	245.37
733.86	245.28
734.19	245.00
734.52	245.00
734.85	245.20
735.18	245.00
735.51	245.03
735.84	244.85
736.17	244.88
736.50	244.55
736.83	245.03
737.16	244.92
737.49	244.77
737.82	244.62
738.15	244.59
738.48	244.48
738.81	244.24
739.14	243.97
739.47	243.76
739.80	243.60
740.13	243.48
740.46	243.29
740.79	243.09
741.12	242.97
741.45	242.76
741.78	242.26
742.11	242.24
742.44	241.96
742.77	242.05
743.10	241.83
743.43	241.64
743.75	241.04
744.08	241.55
744.41	241.44
744.74	241.26
745.07	241.01
745.40	240.98
745.73	241.05
746.06	240.98
746.39	241.01
746.71	240.90
747.04	240.70
747.37	240.60
747.70	240.52
748.03	240.46
748.36	240.35
748.68	240.23
749.01	239.94
749.34	239.81
749.67	239.61
750.00	239.52
750.33	239.78
750.65	239.57
750.98	238.85
751.31	238.66
751.64	238.62
751.97	238.75
752.29	238.61
752.62	238.34
752.95	238.19
753.28	238.02
753.60	237.87
753.93	237.94
754.26	237.92
754.59	237.73
754.91	237.60
755.24	237.47
755.57	237.40
755.90	237.39
756.22	237.26
756.55	237.11
756.88	236.85
757.20	236.43
757.53	236.30
757.86	236.16
758.19	236.14
758.51	235.99
758.84	235.66
759.17	235.50
759.49	235.44
759.82	235.53
760.15	235.44
760.47	235.39
760.80	235.18
761.13	235.15
761.45	235.01
761.78	234.90
762.11	234.91
762.43	234.70
762.76	234.57
763.08	234.49
763.41	234.42
763.74	234.42
764.06	234.32
764.39	234.32
764.71	234.20
765.04	234.08
765.37	234.01
765.69	233.96
766.02	233.90
766.34	233.73
766.67	233.51
767.00	233.53
767.32	233.65
767.65	233.89
767.97	233.72
768.30	233.73
768.62	233.73
768.95	233.55
769.27	233.60
769.60	233.61
769.92	233.49
770.25	233.34
770.57	233.21
770.90	233.21
771.22	233.05
771.55	233.05
771.87	233.00
772.20	232.92
772.52	233.30
772.85	233.76
773.17	233.78
773.50	233.75
773.82	233.63
774.15	233.38
774.47	233.00
774.80	232.84
775.12	232.75
775.45	232.67
775.77	232.61
776.09	232.54
776.42	232.47
776.74	232.58
777.07	232.56
777.39	232.56
777.72	232.41
778.04	232.39
778.36	232.25
778.69	232.23
779.01	232.19
779.33	231.74
779.66	231.25
779.98	231.19
780.31	231.19
780.63	231.36
780.95	231.33
781.28	231.31
781.60	231.28
781.92	231.22
782.25	231.18
782.57	231.15
782.89	231.05
783.22	231.00
783.54	230.85
783.86	230.82
784.19	230.75
784.51	230.95
784.83	230.89
785.16	230.81
785.48	230.81
785.80	230.79
786.12	230.82
786.45	230.68
786.77	230.69
787.09	230.61
787.42	230.34
787.74	230.33
788.06	230.30
788.38	230.32
788.71	230.24
789.03	230.17
789.35	230.15
789.67	230.09
789.99	230.15
790.32	230.09
790.64	230.08
790.96	230.50
791.28	230.26
791.61	230.20
791.93	230.30
792.25	230.25
792.57	230.59
792.89	230.38
793.21	230.46
793.54	230.35
793.86	230.24
794.18	230.29
794.50	230.20
794.82	230.20
795.14	230.19
795.47	230.32
795.79	230.32
796.11	230.22
796.43	230.17
796.75	230.03
797.07	230.02
797.39	230.01
797.71	229.64
798.04	229.65
798.36	229.68
798.68	229.60
799.00	229.61
799.32	229.33
799.64	229.44
799.96	229.40
800.28	229.47
800.60	229.52
800.92	229.50
801.24	229.50
801.56	229.52
801.89	229.49
802.21	229.42
802.53	229.36
802.85	229.44
803.17	229.66
803.49	229.60
803.81	229.51
804.13	229.41
804.45	229.31
804.77	229.33
805.09	229.34
805.41	229.27
805.73	229.14
806.05	228.99
806.37	228.96
806.69	228.81
807.01	228.76
807.33	228.75
807.65	228.61
807.97	228.74
808.28	228.62
808.60	228.63
808.92	228.52
809.24	228.78
809.56	228.67
809.88	228.47
810.20	228.49
810.52	228.64
810.84	228.58
811.16	228.49
811.48	228.43
811.80	228.51
812.12	228.52
812.43	228.66
812.75	228.65
813.07	228.53
813.39	228.62
813.71	228.59
814.03	228.45
814.35	228.37
814.67	228.18
814.98	228.16
815.30	228.01
815.62	227.97
815.94	227.64
816.26	227.89
816.58	227.83
816.89	227.80
817.21	227.62
817.53	227.65
817.85	227.70
818.17	227.69
818.48	227.49
818.80	227.57
819.12	227.41
819.44	227.36
819.76	227.33
820.07	227.33
820.39	227.30
820.71	227.38
821.03	227.37
821.34	227.39
821.66	227.46
821.98	227.57
822.30	227.65
822.61	227.96
822.93	227.74
823.25	227.79
823.57	227.76
823.88	227.84
824.20	227.84
824.52	227.87
824.83	227.81
825.15	227.78
825.47	227.71
825.79	227.73
826.10	227.73
826.42	227.81
826.74	227.84
827.05	227.80
827.37	227.87
827.69	227.88
828.00	227.79
828.32	227.83
828.64	227.81
828.95	227.99
829.27	227.81
829.58	227.81
829.90	227.89
830.22	227.91
830.53	227.80
830.85	227.71
831.17	227.65
831.48	227.70
831.80	227.74
832.11	227.80
832.43	227.72
832.75	227.70
833.06	227.89
833.38	227.75
833.69	227.75
834.01	227.68
834.32	227.67
834.64	227.63
834.96	227.55
835.27	227.49
835.59	227.30
835.90	227.22
836.22	227.13
836.53	226.99
836.85	226.94
837.16	227.41
837.48	227.46
837.79	227.61
838.11	227.56
838.42	227.53
838.74	227.50
839.05	227.58
839.37	227.52
839.68	227.23
840.00	227.16
840.31	227.28
840.63	227.20
840.94	227.13
841.26	227.11
841.57	227.11
841.88	227.15
842.20	227.15
842.51	227.13
842.83	227.14
843.14	227.59
843.46	227.71
843.77	227.50
844.08	227.44
844.40	227.28
844.71	227.27
845.03	227.20
845.34	227.17
845.65	227.14
845.97	227.18
846.28	227.20
846.60	227.25
846.91	227.11
847.22	227.19
847.54	227.39
847.85	227.41
848.16	227.38
848.48	227.35
848.79	227.47
849.10	227.49
849.42	227.53
849.73	227.07
850.04	226.94
850.36	226.69
850.67	226.80
850.98	226.76
851.30	226.79
851.61	226.85
851.92	226.78
852.23	226.84
852.55	226.85
852.86	226.85
853.17	226.87
853.49	226.93
853.80	226.97
854.11	226.94
854.42	227.04
854.74	226.95
855.05	226.96
855.36	226.70
855.67	226.74
855.99	226.77
856.30	227.29
856.61	227.28
856.92	227.32
857.23	227.30
857.55	227.34
857.86	227.27
858.17	227.33
858.48	227.25
858.79	227.22
859.11	227.29
859.42	227.30
859.73	227.25
860.04	227.33
860.35	227.22
860.66	227.04
860.98	227.02
861.29	227.06
861.60	226.97
861.91	227.12
862.22	227.00
862.53	226.94
862.84	226.41
863.16	226.45
863.47	226.45
863.78	226.39
864.09	226.40
864.40	226.50
864.71	226.49
865.02	226.65
865.33	226.58
865.64	226.47
865.95	226.44
866.27	226.80
866.58	226.69
866.89	226.80
867.20	226.86
867.51	226.77
867.82	226.75
868.13	226.92
868.44	226.81
868.75	226.98
869.06	227.00
869.37	227.04
869.68	227.02
869.99	227.02
870.30	227.04
870.61	227.05
870.92	226.99
871.23	227.03
871.54	227.07
871.85	227.17
872.16	227.15
872.47	227.18
872.78	226.92
873.09	226.95
873.40	226.86
873.71	226.90
874.02	226.89
874.33	226.95
874.64	226.79
874.95	226.86
875.26	226.69
875.56	226.62
875.87	226.61
876.18	226.49
876.49	226.99
876.80	226.99
877.11	226.89
877.42	226.90
877.73	226.85
878.04	226.73
878.35	226.72
878.66	226.78
878.96	226.75
879.27	226.66
879.58	226.68
879.89	226.68
880.20	226.77
880.51	226.82
880.82	226.79
881.12	226.87
881.43	226.79
881.74	226.67
882.05	226.65
882.36	226.65
882.67	226.78
882.97	226.27
883.28	226.21
883.59	226.23
883.90	226.25
884.21	226.27
884.51	226.25
884.82	226.16
885.13	226.18
885.44	226.19
885.74	226.18
886.05	226.05
886.36	226.05
886.67	225.90
886.98	226.10
887.28	226.19
887.59	226.17
887.90	226.16
888.20	226.25
888.51	226.41
888.82	226.33
889.13	226.38
889.43	226.74
889.74	226.72
890.05	226.70
890.35	226.64
890.66	226.53
890.97	226.54
891.28	226.54
891.58	226.50
891.89	226.45
892.20	226.45
892.50	226.47
892.81	226.42
893.12	226.41
893.42	226.16
893.73	226.08
894.04	226.05
894.34	226.08
894.65	226.09
894.95	225.97
895.26	226.06
895.57	226.16
895.87	225.71
896.18	225.85
896.48	225.95
896.79	225.94
897.10	226.13
897.40	226.10
897.71	226.11
898.01	226.05
898.32	226.16
898.63	226.10
898.93	226.15
899.24	226.14
899.54	226.08
899.85	226.05
900.15	226.02
900.46	226.05
900.76	226.05
901.07	226.05
901.38	226.03
901.68	225.99
901.99	225.80
902.29	225.90
902.60	225.88
902.90	225.77
903.21	225.81
903.51	225.64
903.82	225.68
904.12	225.68
904.43	225.78
904.73	225.71
905.03	225.76
905.34	226.19
905.64	226.17
905.95	226.22
906.25	226.21
906.56	226.27
906.86	226.25
907.17	226.29
907.47	226.34
907.77	226.37
908.08	226.34
908.38	226.42
908.69	226.41
908.99	226.46
909.30	226.53
909.60	226.45
909.90	226.54
910.21	226.44
910.51	226.40
910.81	226.37
911.12	226.40
911.42	226.36
911.73	225.89
912.03	226.01
912.33	226.13
912.64	226.17
912.94	226.05
913.24	226.00
913.55	225.89
913.85	225.79
914.15	225.82
914.46	225.82
914.76	225.79
915.06	225.75
915.37	225.65
915.67	225.58
915.97	225.68
916.27	225.55
916.58	225.65
916.88	225.70
917.18	225.66
917.49	225.96
917.79	226.04
918.09	226.08
918.39	226.11
918.70	226.01
919.00	225.95
919.30	226.22
919.60	226.32
919.91	226.32
920.21	226.36
920.51	226.24
920.81	226.30
921.12	226.32
921.42	226.29
921.72	226.39
922.02	226.46
922.32	226.50
922.63	226.52
922.93	226.71
923.23	226.70
923.53	226.66
923.83	226.36
924.13	226.36
924.44	226.43
924.74	226.51
925.04	226.60
925.34	226.67
925.64	226.50
925.94	226.39
926.24	226.68
926.55	226.66
926.85	226.80
927.15	226.71
927.45	226.67
927.75	226.72
928.05	226.64
928.35	226.55
928.65	226.63
928.95	226.66
929.26	226.48
929.56	226.54
929.86	226.60
930.16	226.56
930.46	226.50
930.76	226.44
931.06	226.26
931.36	226.21
931.66	226.22
931.96	226.22
932.26	226.27
932.56	226.05
932.86	226.08
933.16	226.04
933.46	226.01
933.76	226.00
934.06	226.06
934.36	226.25
934.66	226.30
934.96	226.25
935.26	226.32
935.56	226.44
935.86	226.36
936.16	226.30
936.46	226.33
936.76	226.26
937.06	226.24
937.36	226.22
937.66	226.18
937.96	226.16
938.26	226.10
938.56	226.06
938.86	226.06
939.16	226.15
939.46	226.24
939.76	226.29
940.06	226.28
940.35	226.24
940.65	226.01
940.95	225.96
941.25	225.82
941.55	225.72
941.85	225.60
942.15	225.70
942.45	225.86
942.75	225.81
943.04	225.88
943.34	225.88
943.64	225.90
943.94	225.84
944.24	225.82
944.54	225.90
944.84	225.84
945.13	225.80
945.43	225.71
945.73	225.67
946.03	225.59
946.33	225.51
946.62	225.45
946.92	225.44
947.22	225.55
947.52	225.58
947.82	225.71
948.11	225.65
948.41	225.57
948.71	225.41
949.01	225.45
949.31	225.42
949.60	225.44
949.90	225.50
950.20	225.54
950.50	225.58
950.79	225.47
951.09	225.57
951.39	225.57
951.69	225.53
951.98	225.59
952.28	225.64
952.58	225.62
952.87	225.65
953.17	225.72
953.47	225.67
953.76	225.72
954.06	225.63
954.36	225.61
954.66	225.63
954.95	225.73
955.25	225.77
955.55	225.81
955.84	225.77
956.14	225.84
956.44	225.88
956.73	225.79
957.03	225.91
957.32	225.95
957.62	225.93
957.92	226.09
958.21	226.14
958.51	226.70
958.81	226.81
959.10	226.84
959.40	226.95
959.69	226.92
959.99	226.96
960.29	226.88
960.58	226.96
960.88	227.07
961.17	227.00
961.47	227.04
961.76	227.02
962.06	227.15
962.36	227.07
962.65	227.06
962.95	227.11
963.24	227.11
963.54	227.07
963.83	227.15
964.13	227.11
964.42	226.92
964.72	226.61
965.01	226.69
965.31	226.66
965.60	226.50
965.90	226.82
966.19	226.69
966.49	226.77
966.78	226.65
967.08	226.61
967.37	226.61
967.67	226.49
967.96	226.61
968.26	226.55
968.55	226.57
968.85	226.56
969.14	226.61
969.43	226.51
969.73	226.47
970.02	226.42
970.32	226.30
970.61	226.28
970.91	226.05
971.20	225.92
971.49	225.84
971.79	225.89
972.08	225.57
972.38	225.68
972.67	225.57
972.96	225.64
973.26	225.58
973.55	225.77
973.85	225.75
974.14	225.64
974.43	225.66
974.73	225.58
975.02	225.47
975.31	225.41
975.61	225.51
975.90	225.44
976.19	225.34
976.49	225.45
976.78	225.44
977.07	225.45
977.37	225.41
977.66	225.55
977.95	225.46
978.24	225.44
978.54	225.51
978.83	225.55
979.12	225.48
979.42	225.45
979.71	225.29
980.00	225.31
980.29	225.30
980.59	225.26
980.88	225.41
981.17	225.47
981.46	225.51
981.76	225.44
982.05	225.68
982.34	225.75
982.63	225.69
982.93	225.70
983.22	225.86
983.51	225.96
983.80	225.97
984.09	226.06
984.39	226.07
984.68	225.95
984.97	225.99
985.26	226.02
985.55	226.07
985.85	226.08
986.14	226.15
986.43	226.26
986.72	226.21
987.01	226.03
987.30	226.04
987.59	225.94
987.89	226.01
988.18	225.73
988.47	225.73
988.76	225.70
989.05	225.72
989.34	225.65
989.63	225.70
989.92	225.66
990.22	225.54
990.51	225.52
990.80	225.49
991.09	225.54
991.38	225.57
991.67	225.54
991.96	225.47
992.25	225.47
992.54	225.38
992.83	225.43
993.12	225.43
993.41	225.48
993.70	225.72
993.99	225.80
994.28	226.00
994.58	226.06
994.87	225.98
995.16	225.97
995.45	225.95
995.74	225.82
996.03	225.93
996.32	226.08
996.61	226.18
996.90	226.26
997.19	226.28
997.48	226.34
997.77	226.34
998.06	226.36
998.34	226.37
998.63	226.34
998.92	226.31
999.21	226.38
999.50	226.36
999.79	226.23
1000.08	226.16
1000.37	226.08
1000.66	226.04
1000.95	226.23
1001.24	226.30
1001.53	226.36
1001.82	226.38
1002.11	226.27
1002.40	226.33
1002.68	226.49
1002.97	226.75
1003.26	226.67
1003.55	226.55
1003.84	226.56
1004.13	226.74
1004.42	226.73
1004.71	226.82
1004.99	226.76
1005.28	226.83
1005.57	226.79
1005.86	226.69
1006.15	226.73
1006.44	226.69
1006.72	226.75
1007.01	226.68
1007.30	226.66
1007.59	226.60
1007.88	226.63
1008.17	226.64
1008.45	226.46
1008.74	226.22
1009.03	226.00
1009.32	225.96
1009.60	225.98
1009.89	225.92
1010.18	225.72
1010.47	225.67
1010.76	225.61
1011.04	225.62
1011.33	225.69
1011.62	225.74
1011.91	225.80
1012.19	225.75
1012.48	225.73
1012.77	225.75
1013.05	225.95
1013.34	225.87
1013.63	225.86
1013.92	225.87
1014.20	225.80
1014.49	225.87
1014.78	225.93
1015.06	225.80
1015.35	225.79
1015.64	225.86
1015.92	225.97
1016.21	225.98
1016.50	225.96
1016.78	226.03
1017.07	226.06
1017.36	225.93
1017.64	225.86
1017.93	225.93
1018.22	225.84
1018.50	225.83
1018.79	225.77
1019.08	225.48
1019.36	225.54
1019.65	225.50
1019.93	225.57
1020.22	225.71
1020.51	225.95
1020.79	225.89
1021.08	224.00
1021.36	223.80
1021.65	226.20
1021.94	224.70
1022.22	225.50
1022.51	225.25
1022.79	227.90
1023.08	227.35
1023.36	231.55
1023.65	225.10
>>>>>End Processed Spectral Data<<<<<
