SpectraSuite Data File
++++++++++++++++++++++++++++++++++++
Date: Wed Sep 04 17:56:38 EDT 2013
User: lab3
Dark Spectrum Present: Yes
Reference Spectrum Present: No
Number of Sampled Component Spectra: 1
Spectrometers: USB2E7196
Integration Time (usec): 170000 (USB2E7196)
Spectra Averaged: 20 (USB2E7196)
Boxcar Smoothing: 10 (USB2E7196)
Correct for Electrical Dark: No (USB2E7196)
Strobe/Lamp Enabled: No (USB2E7196)
Correct for Detector Non-linearity: No (USB2E7196)
Correct for Stray Light: No (USB2E7196)
Number of Pixels in Processed Spectrum: 2048
>>>>>Begin Processed Spectral Data<<<<<
339.09	0.00
339.48	214.10
339.86	213.90
340.24	214.85
340.63	217.10
341.01	226.75
341.39	219.75
341.78	223.20
342.16	224.30
342.54	223.85
342.93	212.62
343.31	223.26
343.69	223.78
344.07	224.26
344.46	224.82
344.84	225.26
345.22	225.22
345.60	225.51
345.99	225.65
346.37	225.67
346.75	225.80
347.13	225.89
347.52	225.96
347.90	226.19
348.28	226.21
348.66	226.26
349.05	226.10
349.43	226.24
349.81	226.30
350.19	226.32
350.57	226.39
350.96	226.48
351.34	226.67
351.72	226.78
352.10	226.93
352.48	226.97
352.87	227.05
353.25	227.07
353.63	227.10
354.01	227.16
354.39	227.35
354.77	227.39
355.15	227.58
355.54	227.61
355.92	227.55
356.30	227.58
356.68	227.94
357.06	227.96
357.44	227.86
357.82	227.84
358.20	228.35
358.58	228.38
358.97	228.44
359.35	228.56
359.73	228.68
360.11	228.77
360.49	228.83
360.87	228.84
361.25	229.01
361.63	229.25
362.01	229.28
362.39	229.28
362.77	229.37
363.15	229.34
363.53	229.35
363.91	229.34
364.29	229.50
364.67	229.16
365.05	229.21
365.43	229.43
365.81	229.57
366.19	229.38
366.57	229.63
366.95	229.69
367.33	229.59
367.71	229.57
368.09	229.58
368.47	229.52
368.85	229.52
369.23	229.53
369.61	229.41
369.99	229.53
370.37	229.60
370.75	229.79
371.13	229.77
371.51	229.75
371.89	229.83
372.27	229.77
372.65	229.73
373.03	229.66
373.41	229.49
373.78	229.40
374.16	229.15
374.54	228.91
374.92	228.78
375.30	228.77
375.68	228.68
376.06	228.73
376.44	228.67
376.82	228.63
377.19	228.58
377.57	228.52
377.95	228.35
378.33	228.25
378.71	227.93
379.09	227.88
379.47	227.87
379.84	227.71
380.22	227.58
380.60	227.53
380.98	227.51
381.36	227.48
381.73	227.41
382.11	227.41
382.49	227.36
382.87	227.30
383.25	227.28
383.62	227.64
384.00	227.50
384.38	227.46
384.76	227.52
385.13	227.66
385.51	227.52
385.89	227.39
386.27	227.35
386.64	227.27
387.02	227.20
387.40	226.99
387.78	226.95
388.15	226.94
388.53	226.84
388.91	226.82
389.29	226.74
389.66	226.68
390.04	226.57
390.42	226.65
390.79	226.62
391.17	226.55
391.55	226.08
391.92	226.03
392.30	226.05
392.68	225.97
393.05	225.91
393.43	225.90
393.81	226.00
394.18	225.94
394.56	226.06
394.94	226.13
395.31	226.21
395.69	226.37
396.06	226.47
396.44	226.54
396.82	226.49
397.19	226.79
397.57	226.85
397.95	226.95
398.32	226.88
398.70	226.99
399.07	227.15
399.45	227.15
399.82	227.17
400.20	227.23
400.58	227.30
400.95	227.22
401.33	227.47
401.70	227.89
402.08	228.00
402.45	228.05
402.83	228.31
403.20	228.50
403.58	228.60
403.95	228.82
404.33	229.01
404.71	229.26
405.08	229.64
405.46	229.90
405.83	230.26
406.21	230.48
406.58	230.74
406.96	230.95
407.33	231.33
407.70	231.77
408.08	232.47
408.45	232.85
408.83	233.30
409.20	233.69
409.58	233.81
409.95	234.41
410.33	235.05
410.70	235.44
411.08	236.07
411.45	236.64
411.82	237.27
412.20	238.12
412.57	239.13
412.95	239.56
413.32	240.36
413.69	241.16
414.07	242.07
414.44	243.00
414.82	244.13
415.19	245.45
415.56	246.66
415.94	247.72
416.31	249.25
416.68	250.67
417.06	252.32
417.43	254.01
417.81	255.74
418.18	257.52
418.55	259.45
418.93	261.45
419.30	263.61
419.67	265.81
420.04	268.07
420.42	270.38
420.79	273.32
421.16	276.21
421.54	279.26
421.91	282.35
422.28	285.45
422.66	288.68
423.03	292.11
423.40	295.43
423.77	298.92
424.15	302.57
424.52	306.35
424.89	310.56
425.26	314.43
425.64	318.23
426.01	322.40
426.38	326.78
426.75	331.38
427.13	335.92
427.50	340.67
427.87	345.63
428.24	350.60
428.61	355.21
428.99	360.64
429.36	366.11
429.73	371.71
430.10	377.24
430.47	382.98
430.85	388.53
431.22	394.76
431.59	401.57
431.96	407.63
432.33	414.52
432.70	421.05
433.08	429.03
433.45	436.52
433.82	443.92
434.19	452.27
434.56	460.25
434.93	467.98
435.30	475.65
435.68	484.32
436.05	492.70
436.42	501.10
436.79	508.69
437.16	517.07
437.53	525.84
437.90	534.67
438.27	543.25
438.64	552.28
439.01	560.58
439.38	567.76
439.75	575.04
440.13	583.21
440.50	590.94
440.87	597.05
441.24	603.34
441.61	610.31
441.98	615.30
442.35	621.31
442.72	627.40
443.09	633.39
443.46	636.80
443.83	639.25
444.20	641.20
444.57	643.86
444.94	644.99
445.31	646.06
445.68	647.42
446.05	647.62
446.42	646.17
446.79	644.89
447.16	643.43
447.53	642.14
447.90	638.34
448.27	634.60
448.64	629.73
449.01	626.14
449.37	619.96
449.74	613.91
450.11	607.04
450.48	599.15
450.85	591.04
451.22	583.98
451.59	577.30
451.96	570.89
452.33	562.75
452.70	555.30
453.07	546.65
453.43	537.38
453.80	528.84
454.17	520.83
454.54	512.93
454.91	504.58
455.28	496.49
455.65	488.98
456.02	481.97
456.38	475.54
456.75	467.58
457.12	460.95
457.49	454.72
457.86	448.21
458.23	443.12
458.59	437.44
458.96	431.79
459.33	426.49
459.70	421.35
460.07	417.24
460.43	412.51
460.80	408.15
461.17	404.46
461.54	400.57
461.91	396.73
462.27	392.82
462.64	389.59
463.01	386.06
463.38	382.80
463.74	378.82
464.11	375.81
464.48	373.18
464.85	370.52
465.21	368.19
465.58	365.87
465.95	363.02
466.32	360.76
466.68	358.40
467.05	356.27
467.42	354.15
467.78	351.89
468.15	349.75
468.52	348.10
468.88	345.95
469.25	344.00
469.62	342.60
469.98	341.00
470.35	339.47
470.72	337.99
471.08	336.36
471.45	335.16
471.82	333.91
472.18	332.57
472.55	331.43
472.92	330.23
473.28	329.06
473.65	327.94
474.02	326.95
474.38	326.14
474.75	325.48
475.11	324.61
475.48	323.98
475.85	323.40
476.21	322.72
476.58	322.18
476.94	321.84
477.31	321.34
477.67	320.88
478.04	320.50
478.41	320.38
478.77	320.60
479.14	320.25
479.50	320.00
479.87	319.99
480.23	320.10
480.60	320.04
480.96	320.13
481.33	320.54
481.69	320.69
482.06	320.90
482.42	321.07
482.79	321.39
483.15	321.75
483.52	322.32
483.88	322.87
484.25	323.45
484.61	324.09
484.98	324.74
485.34	325.77
485.71	326.88
486.07	327.78
486.44	328.47
486.80	329.70
487.17	330.93
487.53	332.44
487.90	333.86
488.26	335.49
488.62	337.20
488.99	338.75
489.35	340.53
489.72	342.40
490.08	344.37
490.44	346.46
490.81	348.69
491.17	350.90
491.54	353.40
491.90	356.05
492.26	358.69
492.63	361.52
492.99	364.25
493.36	367.27
493.72	370.57
494.08	373.98
494.45	377.76
494.81	381.59
495.17	385.35
495.54	389.48
495.90	393.74
496.26	398.16
496.63	402.75
496.99	407.51
497.35	412.51
497.72	417.80
498.08	423.21
498.44	428.96
498.80	435.08
499.17	441.13
499.53	447.29
499.89	454.04
500.26	460.76
500.62	468.02
500.98	475.35
501.34	482.89
501.71	490.68
502.07	498.35
502.43	506.50
502.79	514.96
503.16	523.75
503.52	532.88
503.88	541.99
504.24	551.65
504.60	561.83
504.97	571.97
505.33	582.47
505.69	593.76
506.05	604.75
506.41	615.80
506.78	627.48
507.14	639.46
507.50	651.67
507.86	664.43
508.22	677.35
508.59	690.44
508.95	704.09
509.31	718.14
509.67	732.36
510.03	746.83
510.39	761.55
510.75	776.49
511.12	791.65
511.48	807.40
511.84	823.05
512.20	838.79
512.56	855.35
512.92	872.21
513.28	888.84
513.64	906.12
514.00	923.82
514.37	941.46
514.73	959.77
515.09	977.98
515.45	996.29
515.81	1014.41
516.17	1032.93
516.53	1051.58
516.89	1070.34
517.25	1089.96
517.61	1110.04
517.97	1130.41
518.33	1150.51
518.69	1170.94
519.05	1191.65
519.41	1212.50
519.77	1233.46
520.13	1254.21
520.49	1274.85
520.85	1297.34
521.21	1318.54
521.57	1339.77
521.93	1360.73
522.29	1381.78
522.65	1402.54
523.01	1423.51
523.37	1444.59
523.73	1466.00
524.09	1486.43
524.45	1507.23
524.81	1527.99
525.17	1548.68
525.53	1569.20
525.89	1589.95
526.25	1610.73
526.61	1630.73
526.97	1651.60
527.33	1672.85
527.68	1694.46
528.04	1715.82
528.40	1735.40
528.76	1756.20
529.12	1776.64
529.48	1797.63
529.84	1817.61
530.20	1838.65
530.56	1859.76
530.91	1880.58
531.27	1900.99
531.63	1921.90
531.99	1942.79
532.35	1962.73
532.71	1982.85
533.07	2003.37
533.42	2023.29
533.78	2043.08
534.14	2063.18
534.50	2082.55
534.86	2102.02
535.21	2119.68
535.57	2138.23
535.93	2155.85
536.29	2173.68
536.65	2192.18
537.00	2209.69
537.36	2227.75
537.72	2244.50
538.08	2261.49
538.44	2278.14
538.79	2294.68
539.15	2311.16
539.51	2326.68
539.87	2342.13
540.22	2356.30
540.58	2370.74
540.94	2384.49
541.29	2397.07
541.65	2409.76
542.01	2422.19
542.37	2432.60
542.72	2443.93
543.08	2454.52
543.44	2466.67
543.79	2476.92
544.15	2486.53
544.51	2496.72
544.87	2506.44
545.22	2515.23
545.58	2523.14
545.94	2530.35
546.29	2536.87
546.65	2543.20
547.01	2549.08
547.36	2554.71
547.72	2560.30
548.07	2564.04
548.43	2569.07
548.79	2573.80
549.14	2577.83
549.50	2581.98
549.86	2586.17
550.21	2589.67
550.57	2593.11
550.92	2594.33
551.28	2595.66
551.64	2597.78
551.99	2599.57
552.35	2600.92
552.70	2602.98
553.06	2604.33
553.41	2605.93
553.77	2607.73
554.13	2609.09
554.48	2610.45
554.84	2611.87
555.19	2613.14
555.55	2615.17
555.90	2614.20
556.26	2613.44
556.61	2611.88
556.97	2609.55
557.32	2608.64
557.68	2607.80
558.03	2606.06
558.39	2604.45
558.74	2603.75
559.10	2600.32
559.45	2597.00
559.81	2592.43
560.16	2587.24
560.52	2582.36
560.87	2577.75
561.23	2572.02
561.58	2566.15
561.94	2559.49
562.29	2552.01
562.64	2545.03
563.00	2536.43
563.35	2530.12
563.71	2523.46
564.06	2517.46
564.42	2510.78
564.77	2503.92
565.12	2496.24
565.48	2488.89
565.83	2481.02
566.19	2472.84
566.54	2465.27
566.89	2456.95
567.25	2449.46
567.60	2442.50
567.96	2434.89
568.31	2427.03
568.66	2418.62
569.02	2409.55
569.37	2401.46
569.72	2393.63
570.08	2384.33
570.43	2374.96
570.78	2365.93
571.14	2356.75
571.49	2346.39
571.84	2336.84
572.20	2326.20
572.55	2316.24
572.90	2305.11
573.26	2294.80
573.61	2283.70
573.96	2272.77
574.31	2260.71
574.67	2248.52
575.02	2235.54
575.37	2222.88
575.72	2209.35
576.08	2197.20
576.43	2184.81
576.78	2171.15
577.13	2157.69
577.49	2144.82
577.84	2133.14
578.19	2120.60
578.54	2107.73
578.90	2095.70
579.25	2083.56
579.60	2070.98
579.95	2057.71
580.30	2044.65
580.66	2031.31
581.01	2017.79
581.36	2003.71
581.71	1991.04
582.06	1978.13
582.42	1965.69
582.77	1953.31
583.12	1941.37
583.47	1929.05
583.82	1917.29
584.17	1905.26
584.53	1893.42
584.88	1880.59
585.23	1867.28
585.58	1853.45
585.93	1840.37
586.28	1827.18
586.63	1813.08
586.98	1798.63
587.34	1785.35
587.69	1771.92
588.04	1759.14
588.39	1747.07
588.74	1735.02
589.09	1722.98
589.44	1710.37
589.79	1697.96
590.14	1685.83
590.49	1673.81
590.84	1661.50
591.19	1649.25
591.54	1637.39
591.89	1625.25
592.25	1614.94
592.60	1603.56
592.95	1592.16
593.30	1580.10
593.65	1568.02
594.00	1555.95
594.35	1546.38
594.70	1534.55
595.05	1523.10
595.40	1510.96
595.75	1499.10
596.10	1487.70
596.45	1475.95
596.80	1465.22
597.15	1453.88
597.50	1442.16
597.85	1430.78
598.19	1419.25
598.54	1407.53
598.89	1396.27
599.24	1385.46
599.59	1373.79
599.94	1362.88
600.29	1352.43
600.64	1342.11
600.99	1331.51
601.34	1322.08
601.69	1310.92
602.04	1301.13
602.39	1291.50
602.74	1282.61
603.08	1273.13
603.43	1263.85
603.78	1254.35
604.13	1244.77
604.48	1235.08
604.83	1225.30
605.18	1215.53
605.53	1205.99
605.87	1196.91
606.22	1188.17
606.57	1178.85
606.92	1169.38
607.27	1160.38
607.62	1151.65
607.96	1143.21
608.31	1135.15
608.66	1126.48
609.01	1117.79
609.36	1109.45
609.70	1100.99
610.05	1091.98
610.40	1083.31
610.75	1074.58
611.10	1066.23
611.44	1057.32
611.79	1049.30
612.14	1041.40
612.49	1033.33
612.83	1025.72
613.18	1017.89
613.53	1010.03
613.88	1002.05
614.22	994.51
614.57	986.62
614.92	978.59
615.27	970.77
615.61	962.78
615.96	955.29
616.31	947.81
616.65	940.43
617.00	933.02
617.35	925.92
617.70	918.95
618.04	911.80
618.39	904.73
618.74	898.54
619.08	891.36
619.43	884.26
619.78	877.32
620.12	870.28
620.47	863.33
620.82	856.17
621.16	849.46
621.51	842.83
621.85	836.54
622.20	829.89
622.55	823.36
622.89	817.23
623.24	810.89
623.59	804.54
623.93	798.25
624.28	792.13
624.62	786.50
624.97	780.57
625.32	774.73
625.66	768.82
626.01	762.46
626.35	757.08
626.70	751.65
627.04	746.29
627.39	740.81
627.73	735.36
628.08	730.28
628.43	724.92
628.77	719.58
629.12	714.30
629.46	709.61
629.81	704.84
630.15	700.08
630.50	695.26
630.84	690.37
631.19	685.70
631.53	681.11
631.88	675.95
632.22	671.09
632.57	666.59
632.91	662.01
633.26	657.73
633.60	653.08
633.95	648.45
634.29	643.67
634.64	639.03
634.98	634.44
635.32	630.04
635.67	625.90
636.01	621.65
636.36	617.19
636.70	612.96
637.05	608.74
637.39	604.54
637.73	600.29
638.08	596.33
638.42	591.92
638.77	587.59
639.11	583.21
639.45	579.06
639.80	574.75
640.14	570.62
640.49	566.61
640.83	562.75
641.17	559.06
641.52	555.42
641.86	551.99
642.20	548.80
642.55	545.22
642.89	541.58
643.23	538.16
643.58	535.11
643.92	531.49
644.26	528.08
644.61	524.69
644.95	521.34
645.29	517.87
645.64	514.75
645.98	511.61
646.32	508.70
646.66	505.51
647.01	502.42
647.35	499.64
647.69	496.62
648.04	493.82
648.38	491.00
648.72	488.11
649.06	484.96
649.41	481.92
649.75	478.83
650.09	476.08
650.43	473.25
650.78	470.26
651.12	467.49
651.46	464.72
651.80	461.99
652.14	459.22
652.49	456.68
652.83	454.04
653.17	451.47
653.51	448.65
653.85	446.23
654.20	443.80
654.54	441.23
654.88	438.78
655.22	436.49
655.56	433.95
655.90	431.73
656.25	429.50
656.59	427.37
656.93	425.26
657.27	423.15
657.61	420.58
657.95	418.37
658.29	416.13
658.64	414.02
658.98	411.75
659.32	409.53
659.66	407.30
660.00	405.33
660.34	403.36
660.68	401.49
661.02	399.43
661.36	397.55
661.70	395.44
662.05	393.46
662.39	391.52
662.73	389.76
663.07	388.08
663.41	386.33
663.75	384.31
664.09	382.41
664.43	380.44
664.77	378.91
665.11	377.19
665.45	375.53
665.79	373.90
666.13	372.19
666.47	370.50
666.81	368.91
667.15	367.08
667.49	365.50
667.83	364.06
668.17	362.54
668.51	361.05
668.85	359.77
669.19	358.68
669.53	357.00
669.87	355.35
670.21	353.69
670.55	352.29
670.89	351.18
671.23	349.85
671.57	348.39
671.91	347.01
672.25	345.61
672.58	344.45
672.92	342.92
673.26	341.66
673.60	340.46
673.94	339.26
674.28	338.29
674.62	337.13
674.96	335.89
675.30	334.75
675.64	333.61
675.97	332.32
676.31	330.90
676.65	329.72
676.99	328.81
677.33	327.71
677.67	326.60
678.01	325.21
678.34	324.12
678.68	323.19
679.02	322.11
679.36	321.05
679.70	319.96
680.04	319.11
680.37	318.16
680.71	317.21
681.05	316.32
681.39	315.40
681.73	314.46
682.06	313.57
682.40	312.73
682.74	311.76
683.08	311.06
683.42	310.20
683.75	309.44
684.09	308.39
684.43	307.58
684.77	306.64
685.10	305.90
685.44	305.01
685.78	304.20
686.12	303.44
686.45	302.70
686.79	301.83
687.13	301.14
687.46	300.35
687.80	299.75
688.14	298.83
688.48	298.02
688.81	297.17
689.15	296.53
689.49	295.72
689.82	295.11
690.16	294.30
690.50	293.51
690.83	292.76
691.17	292.13
691.51	291.52
691.84	290.97
692.18	290.24
692.52	289.65
692.85	289.09
693.19	288.71
693.52	288.06
693.86	287.46
694.20	286.87
694.53	286.30
694.87	285.57
695.21	285.05
695.54	284.46
695.88	283.86
696.21	283.03
696.55	282.40
696.88	281.69
697.22	281.06
697.56	280.53
697.89	279.95
698.23	279.47
698.56	278.79
698.90	278.28
699.23	277.70
699.57	277.19
699.90	276.51
700.24	275.80
700.58	275.35
700.91	275.05
701.25	274.88
701.58	274.69
701.92	274.38
702.25	273.86
702.59	273.43
702.92	273.06
703.26	272.72
703.59	272.34
703.93	272.34
704.26	271.86
704.60	271.49
704.93	271.09
705.26	270.55
705.60	270.26
705.93	269.75
706.27	269.51
706.60	269.25
706.94	269.07
707.27	268.70
707.61	268.34
707.94	267.87
708.27	267.05
708.61	266.39
708.94	265.90
709.28	265.58
709.61	265.09
709.94	264.73
710.28	264.33
710.61	263.89
710.95	263.10
711.28	262.98
711.61	262.57
711.95	262.29
712.28	261.90
712.61	261.49
712.95	261.35
713.28	261.14
713.61	260.69
713.95	260.21
714.28	259.90
714.61	259.45
714.95	259.10
715.28	258.65
715.61	258.25
715.95	257.99
716.28	257.60
716.61	257.36
716.95	256.87
717.28	256.50
717.61	256.17
717.94	255.83
718.28	255.26
718.61	254.94
718.94	254.60
719.27	254.35
719.61	254.12
719.94	253.74
720.27	253.20
720.60	252.91
720.94	252.63
721.27	252.43
721.60	252.25
721.93	251.88
722.27	251.80
722.60	251.62
722.93	251.24
723.26	251.15
723.59	250.83
723.93	250.74
724.26	250.56
724.59	250.32
724.92	250.18
725.25	250.11
725.59	249.90
725.92	249.72
726.25	249.47
726.58	249.24
726.91	248.96
727.24	248.93
727.57	248.75
727.91	248.56
728.24	248.34
728.57	248.08
728.90	247.98
729.23	247.70
729.56	247.80
729.89	247.65
730.22	247.33
730.55	247.16
730.89	247.01
731.22	246.79
731.55	246.70
731.88	246.47
732.21	246.29
732.54	246.03
732.87	245.89
733.20	245.75
733.53	245.61
733.86	245.52
734.19	245.29
734.52	245.14
734.85	245.24
735.18	244.96
735.51	245.07
735.84	245.00
736.17	245.07
736.50	244.71
736.83	245.19
737.16	245.12
737.49	245.11
737.82	244.96
738.15	244.95
738.48	244.90
738.81	244.66
739.14	244.48
739.47	244.45
739.80	244.15
740.13	244.03
740.46	243.86
740.79	243.72
741.12	243.61
741.45	243.45
741.78	243.05
742.11	243.09
742.44	242.83
742.77	242.70
743.10	242.44
743.43	242.24
743.75	241.51
744.08	241.97
744.41	241.75
744.74	241.59
745.07	241.31
745.40	241.16
745.73	241.34
746.06	241.15
746.39	241.09
746.71	241.09
747.04	240.95
747.37	240.77
747.70	240.69
748.03	240.47
748.36	240.42
748.68	240.34
749.01	240.08
749.34	239.92
749.67	239.75
750.00	239.67
750.33	239.99
750.65	240.00
750.98	239.22
751.31	239.09
751.64	239.01
751.97	239.08
752.29	238.94
752.62	238.58
752.95	238.51
753.28	238.31
753.60	238.12
753.93	238.18
754.26	238.16
754.59	237.90
754.91	237.77
755.24	237.60
755.57	237.46
755.90	237.38
756.22	237.26
756.55	237.11
756.88	236.86
757.20	236.40
757.53	236.16
757.86	236.16
758.19	236.10
758.51	235.95
758.84	235.69
759.17	235.52
759.49	235.52
759.82	235.63
760.15	235.59
760.47	235.53
760.80	235.31
761.13	235.30
761.45	235.27
761.78	235.19
762.11	235.10
762.43	235.01
762.76	234.89
763.08	234.89
763.41	234.87
763.74	234.94
764.06	234.86
764.39	234.77
764.71	234.60
765.04	234.46
765.37	234.33
765.69	234.26
766.02	234.21
766.34	234.08
766.67	233.88
767.00	233.86
767.32	234.11
767.65	234.31
767.97	234.13
768.30	234.09
768.62	234.10
768.95	234.06
769.27	233.94
769.60	233.98
769.92	233.80
770.25	233.63
770.57	233.44
770.90	233.30
771.22	233.26
771.55	233.26
771.87	233.24
772.20	233.25
772.52	233.68
772.85	234.21
773.17	234.18
773.50	234.10
773.82	234.04
774.15	233.81
774.47	233.46
774.80	233.42
775.12	233.36
775.45	233.31
775.77	233.21
776.09	233.26
776.42	233.17
776.74	233.31
777.07	233.22
777.39	233.31
777.72	233.33
778.04	233.34
778.36	233.26
778.69	233.22
779.01	233.27
779.33	232.86
779.66	232.28
779.98	232.25
780.31	232.25
780.63	232.44
780.95	232.34
781.28	232.34
781.60	232.27
781.92	232.22
782.25	232.22
782.57	232.25
782.89	232.17
783.22	232.08
783.54	231.92
783.86	231.95
784.19	231.78
784.51	231.88
784.83	231.75
785.16	231.74
785.48	231.76
785.80	231.66
786.12	231.55
786.45	231.53
786.77	231.50
787.09	231.38
787.42	231.07
787.74	231.11
788.06	231.04
788.38	230.99
788.71	230.92
789.03	230.87
789.35	230.83
789.67	230.78
789.99	230.84
790.32	230.80
790.64	230.79
790.96	231.15
791.28	230.93
791.61	230.91
791.93	230.86
792.25	230.75
792.57	231.05
792.89	230.96
793.21	230.92
793.54	230.84
793.86	230.77
794.18	230.76
794.50	230.59
794.82	230.56
795.14	230.61
795.47	230.71
795.79	230.60
796.11	230.47
796.43	230.35
796.75	230.28
797.07	230.24
797.39	230.30
797.71	230.03
798.04	230.04
798.36	230.03
798.68	230.00
799.00	229.97
799.32	229.73
799.64	229.81
799.96	229.75
800.28	229.82
800.60	229.78
800.92	229.78
801.24	229.79
801.56	229.80
801.89	229.72
802.21	229.68
802.53	229.53
802.85	229.64
803.17	229.87
803.49	229.83
803.81	229.76
804.13	229.61
804.45	229.45
804.77	229.48
805.09	229.45
805.41	229.35
805.73	229.26
806.05	229.09
806.37	229.06
806.69	229.04
807.01	228.97
807.33	229.01
807.65	228.85
807.97	229.00
808.28	228.93
808.60	228.88
808.92	228.83
809.24	229.15
809.56	229.11
809.88	228.90
810.20	228.88
810.52	228.99
810.84	228.93
811.16	228.84
811.48	228.75
811.80	228.93
812.12	228.96
812.43	229.06
812.75	229.08
813.07	228.99
813.39	228.98
813.71	228.92
814.03	228.94
814.35	228.90
814.67	228.73
814.98	228.72
815.30	228.67
815.62	228.60
815.94	228.36
816.26	228.49
816.58	228.39
816.89	228.40
817.21	228.31
817.53	228.35
817.85	228.41
818.17	228.41
818.48	228.27
818.80	228.32
819.12	228.27
819.44	228.19
819.76	228.14
820.07	228.16
820.39	228.15
820.71	228.05
821.03	228.13
821.34	228.09
821.66	228.10
821.98	228.20
822.30	228.19
822.61	228.48
822.93	228.26
823.25	228.29
823.57	228.27
823.88	228.28
824.20	228.30
824.52	228.33
824.83	228.31
825.15	228.16
825.47	228.15
825.79	228.26
826.10	228.22
826.42	228.20
826.74	228.15
827.05	228.12
827.37	228.22
827.69	228.20
828.00	228.18
828.32	228.25
828.64	228.14
828.95	228.38
829.27	228.20
829.58	228.20
829.90	228.25
830.22	228.22
830.53	228.13
830.85	227.99
831.17	227.92
831.48	227.93
831.80	227.93
832.11	227.91
832.43	227.78
832.75	227.72
833.06	227.94
833.38	227.81
833.69	227.79
834.01	227.76
834.32	227.69
834.64	227.69
834.96	227.62
835.27	227.66
835.59	227.48
835.90	227.40
836.22	227.40
836.53	227.36
836.85	227.35
837.16	227.80
837.48	227.80
837.79	227.91
838.11	227.95
838.42	228.02
838.74	228.05
839.05	228.00
839.37	228.00
839.68	227.78
840.00	227.88
840.31	227.98
840.63	227.85
840.94	227.86
841.26	227.79
841.57	227.74
841.88	227.77
842.20	227.64
842.51	227.59
842.83	227.54
843.14	227.96
843.46	227.97
843.77	227.74
844.08	227.76
844.40	227.66
844.71	227.59
845.03	227.45
845.34	227.37
845.65	227.37
845.97	227.40
846.28	227.39
846.60	227.34
846.91	227.19
847.22	227.21
847.54	227.29
847.85	227.32
848.16	227.27
848.48	227.22
848.79	227.43
849.10	227.48
849.42	227.52
849.73	227.08
850.04	227.00
850.36	226.85
850.67	226.96
850.98	226.93
851.30	227.02
851.61	227.07
851.92	227.13
852.23	227.28
852.55	227.33
852.86	227.40
853.17	227.45
853.49	227.58
853.80	227.70
854.11	227.71
854.42	227.77
854.74	227.75
855.05	227.70
855.36	227.48
855.67	227.52
855.99	227.51
856.30	228.01
856.61	228.05
856.92	228.01
857.23	228.03
857.55	227.95
857.86	227.93
858.17	228.06
858.48	227.96
858.79	227.85
859.11	227.85
859.42	227.77
859.73	227.64
860.04	227.68
860.35	227.53
860.66	227.41
860.98	227.34
861.29	227.41
861.60	227.42
861.91	227.52
862.22	227.46
862.53	227.38
862.84	226.87
863.16	226.96
863.47	226.84
863.78	226.78
864.09	226.85
864.40	226.85
864.71	226.84
865.02	226.94
865.33	226.83
865.64	226.78
865.95	226.73
866.27	227.08
866.58	226.93
866.89	227.00
867.20	227.01
867.51	226.97
867.82	226.96
868.13	227.08
868.44	227.02
868.75	227.04
869.06	227.04
869.37	227.05
869.68	226.91
869.99	227.02
870.30	226.99
870.61	227.07
870.92	226.95
871.23	226.91
871.54	226.89
871.85	227.03
872.16	227.01
872.47	227.06
872.78	226.85
873.09	226.93
873.40	226.84
873.71	226.84
874.02	226.87
874.33	226.82
874.64	226.69
874.95	226.67
875.26	226.57
875.56	226.60
875.87	226.53
876.18	226.51
876.49	226.96
876.80	226.93
877.11	226.76
877.42	226.83
877.73	226.74
878.04	226.67
878.35	226.66
878.66	226.72
878.96	226.75
879.27	226.70
879.58	226.68
879.89	226.61
880.20	226.79
880.51	226.78
880.82	226.74
881.12	226.80
881.43	226.80
881.74	226.78
882.05	226.76
882.36	226.85
882.67	226.88
882.97	226.43
883.28	226.39
883.59	226.45
883.90	226.45
884.21	226.56
884.51	226.54
884.82	226.54
885.13	226.49
885.44	226.47
885.74	226.47
886.05	226.40
886.36	226.44
886.67	226.26
886.98	226.43
887.28	226.49
887.59	226.43
887.90	226.40
888.20	226.41
888.51	226.51
888.82	226.43
889.13	226.45
889.43	226.78
889.74	226.78
890.05	226.74
890.35	226.66
890.66	226.57
890.97	226.54
891.28	226.48
891.58	226.58
891.89	226.55
892.20	226.52
892.50	226.49
892.81	226.56
893.12	226.47
893.42	226.31
893.73	226.34
894.04	226.36
894.34	226.45
894.65	226.39
894.95	226.32
895.26	226.40
895.57	226.57
895.87	226.18
896.18	226.29
896.48	226.36
896.79	226.42
897.10	226.50
897.40	226.58
897.71	226.63
898.01	226.50
898.32	226.58
898.63	226.53
898.93	226.64
899.24	226.63
899.54	226.72
899.85	226.75
900.15	226.71
900.46	226.75
900.76	226.75
901.07	226.77
901.38	226.74
901.68	226.78
901.99	226.70
902.29	226.70
902.60	226.63
902.90	226.63
903.21	226.61
903.51	226.58
903.82	226.69
904.12	226.68
904.43	226.75
904.73	226.78
905.03	226.85
905.34	227.25
905.64	227.19
905.95	227.23
906.25	227.15
906.56	227.17
906.86	227.14
907.17	227.09
907.47	227.14
907.77	227.16
908.08	227.05
908.38	226.98
908.69	226.98
908.99	227.08
909.30	227.07
909.60	227.03
909.90	227.08
910.21	226.86
910.51	226.77
910.81	226.76
911.12	226.73
911.42	226.73
911.73	226.20
912.03	226.24
912.33	226.30
912.64	226.32
912.94	226.24
913.24	226.17
913.55	226.16
913.85	226.08
914.15	226.17
914.46	226.20
914.76	226.18
915.06	226.16
915.37	226.01
915.67	225.99
915.97	226.03
916.27	225.84
916.58	225.94
916.88	225.91
917.18	225.83
917.49	226.23
917.79	226.20
918.09	226.28
918.39	226.40
918.70	226.31
919.00	226.32
919.30	226.56
919.60	226.51
919.91	226.40
920.21	226.49
920.51	226.34
920.81	226.31
921.12	226.33
921.42	226.33
921.72	226.41
922.02	226.40
922.32	226.49
922.63	226.54
922.93	226.70
923.23	226.69
923.53	226.68
923.83	226.34
924.13	226.36
924.44	226.36
924.74	226.47
925.04	226.56
925.34	226.55
925.64	226.36
925.94	226.40
926.24	226.71
926.55	226.63
926.85	226.68
927.15	226.70
927.45	226.71
927.75	226.78
928.05	226.75
928.35	226.77
928.65	226.74
928.95	226.88
929.26	226.73
929.56	226.85
929.86	226.87
930.16	226.79
930.46	226.85
930.76	226.88
931.06	226.67
931.36	226.58
931.66	226.69
931.96	226.77
932.26	226.74
932.56	226.58
932.86	226.60
933.16	226.63
933.46	226.58
933.76	226.58
934.06	226.64
934.36	226.75
934.66	226.71
934.96	226.74
935.26	226.70
935.56	226.81
935.86	226.70
936.16	226.71
936.46	226.62
936.76	226.50
937.06	226.42
937.36	226.39
937.66	226.44
937.96	226.42
938.26	226.36
938.56	226.42
938.86	226.45
939.16	226.54
939.46	226.65
939.76	226.70
940.06	226.72
940.35	226.67
940.65	226.51
940.95	226.53
941.25	226.39
941.55	226.24
941.85	226.15
942.15	226.29
942.45	226.45
942.75	226.49
943.04	226.58
943.34	226.70
943.64	226.71
943.94	226.60
944.24	226.55
944.54	226.58
944.84	226.52
945.13	226.47
945.43	226.46
945.73	226.36
946.03	226.34
946.33	226.25
946.62	226.17
946.92	226.16
947.22	226.18
947.52	226.26
947.82	226.33
948.11	226.24
948.41	226.18
948.71	225.99
949.01	226.02
949.31	225.96
949.60	225.91
949.90	225.99
950.20	226.01
950.50	226.01
950.79	225.94
951.09	226.04
951.39	226.01
951.69	225.95
951.98	226.05
952.28	226.11
952.58	226.10
952.87	226.14
953.17	226.20
953.47	226.08
953.76	226.09
954.06	226.05
954.36	225.99
954.66	225.94
954.95	226.06
955.25	226.09
955.55	226.08
955.84	226.01
956.14	226.12
956.44	226.19
956.73	226.20
957.03	226.26
957.32	226.23
957.62	226.24
957.92	226.34
958.21	226.32
958.51	226.80
958.81	226.90
959.10	226.89
959.40	226.95
959.69	227.09
959.99	227.13
960.29	227.12
960.58	227.11
960.88	227.32
961.17	227.24
961.47	227.25
961.76	227.28
962.06	227.38
962.36	227.24
962.65	227.25
962.95	227.13
963.24	227.10
963.54	227.10
963.83	227.10
964.13	227.02
964.42	226.80
964.72	226.45
965.01	226.45
965.31	226.48
965.60	226.38
965.90	226.69
966.19	226.55
966.49	226.57
966.78	226.65
967.08	226.55
967.37	226.54
967.67	226.38
967.96	226.45
968.26	226.38
968.55	226.45
968.85	226.42
969.14	226.45
969.43	226.41
969.73	226.42
970.02	226.36
970.32	226.36
970.61	226.40
970.91	226.21
971.20	226.05
971.49	225.94
971.79	225.97
972.08	225.53
972.38	225.64
972.67	225.63
972.96	225.67
973.26	225.56
973.55	225.69
973.85	225.73
974.14	225.66
974.43	225.75
974.73	225.62
975.02	225.60
975.31	225.67
975.61	225.66
975.90	225.61
976.19	225.59
976.49	225.68
976.78	225.78
977.07	225.78
977.37	225.87
977.66	226.00
977.95	225.98
978.24	226.13
978.54	226.21
978.83	226.20
979.12	226.15
979.42	226.24
979.71	226.19
980.00	226.26
980.29	226.25
980.59	226.18
980.88	226.30
981.17	226.28
981.46	226.24
981.76	226.28
982.05	226.44
982.34	226.53
982.63	226.53
982.93	226.54
983.22	226.78
983.51	226.81
983.80	226.91
984.09	226.98
984.39	227.02
984.68	226.92
984.97	227.03
985.26	227.05
985.55	227.03
985.85	226.93
986.14	227.01
986.43	227.15
986.72	227.10
987.01	226.95
987.30	226.98
987.59	226.95
987.89	227.00
988.18	226.83
988.47	226.77
988.76	226.70
989.05	226.59
989.34	226.52
989.63	226.67
989.92	226.55
990.22	226.47
990.51	226.37
990.80	226.35
991.09	226.30
991.38	226.38
991.67	226.42
991.96	226.43
992.25	226.43
992.54	226.31
992.83	226.33
993.12	226.41
993.41	226.50
993.70	226.69
993.99	226.77
994.28	226.84
994.58	226.94
994.87	226.86
995.16	226.90
995.45	226.79
995.74	226.59
996.03	226.65
996.32	226.70
996.61	226.80
996.90	226.79
997.19	226.74
997.48	226.76
997.77	226.60
998.06	226.62
998.34	226.47
998.63	226.46
998.92	226.46
999.21	226.49
999.50	226.40
999.79	226.26
1000.08	226.19
1000.37	226.14
1000.66	226.04
1000.95	226.14
1001.24	226.13
1001.53	226.20
1001.82	226.15
1002.11	226.07
1002.40	226.18
1002.68	226.29
1002.97	226.66
1003.26	226.61
1003.55	226.53
1003.84	226.60
1004.13	226.74
1004.42	226.80
1004.71	226.77
1004.99	226.71
1005.28	226.78
1005.57	226.70
1005.86	226.64
1006.15	226.62
1006.44	226.61
1006.72	226.69
1007.01	226.71
1007.30	226.70
1007.59	226.69
1007.88	226.71
1008.17	226.66
1008.45	226.52
1008.74	226.32
1009.03	226.06
1009.32	226.09
1009.60	226.04
1009.89	226.00
1010.18	225.83
1010.47	225.78
1010.76	225.81
1011.04	225.86
1011.33	225.88
1011.62	226.01
1011.91	226.00
1012.19	225.99
1012.48	226.03
1012.77	226.00
1013.05	226.18
1013.34	226.17
1013.63	226.09
1013.92	226.16
1014.20	226.20
1014.49	226.22
1014.78	226.26
1015.06	226.05
1015.35	226.06
1015.64	226.15
1015.92	226.20
1016.21	226.26
1016.50	226.31
1016.78	226.33
1017.07	226.32
1017.36	226.24
1017.64	226.17
1017.93	226.27
1018.22	226.20
1018.50	226.13
1018.79	226.08
1019.08	225.82
1019.36	225.87
1019.65	225.82
1019.93	225.89
1020.22	225.98
1020.51	226.25
1020.79	226.17
1021.08	224.50
1021.36	224.95
1021.65	225.15
1021.94	225.45
1022.22	226.65
1022.51	224.30
1022.79	228.25
1023.08	227.25
1023.36	232.50
1023.65	224.65
>>>>>End Processed Spectral Data<<<<<
