SpectraSuite Data File
++++++++++++++++++++++++++++++++++++
Date: Wed Sep 04 18:04:11 EDT 2013
User: lab3
Dark Spectrum Present: Yes
Reference Spectrum Present: No
Number of Sampled Component Spectra: 1
Spectrometers: USB2E7196
Integration Time (usec): 170000 (USB2E7196)
Spectra Averaged: 20 (USB2E7196)
Boxcar Smoothing: 10 (USB2E7196)
Correct for Electrical Dark: No (USB2E7196)
Strobe/Lamp Enabled: No (USB2E7196)
Correct for Detector Non-linearity: No (USB2E7196)
Correct for Stray Light: No (USB2E7196)
Number of Pixels in Processed Spectrum: 2048
>>>>>Begin Processed Spectral Data<<<<<
339.09	0.00
339.48	214.35
339.86	214.75
340.24	215.10
340.63	217.35
341.01	225.40
341.39	221.10
341.78	224.05
342.16	224.55
342.54	222.40
342.93	212.71
343.31	223.45
343.69	223.96
344.07	224.45
344.46	225.00
344.84	225.47
345.22	225.51
345.60	225.73
345.99	225.86
346.37	225.94
346.75	226.08
347.13	226.05
347.52	226.07
347.90	226.32
348.28	226.40
348.66	226.53
349.05	226.41
349.43	226.50
349.81	226.57
350.19	226.55
350.57	226.65
350.96	226.73
351.34	226.82
351.72	226.91
352.10	227.02
352.48	227.04
352.87	227.05
353.25	227.08
353.63	227.17
354.01	227.20
354.39	227.27
354.77	227.37
355.15	227.58
355.54	227.64
355.92	227.59
356.30	227.61
356.68	227.94
357.06	228.06
357.44	228.01
357.82	228.07
358.20	228.61
358.58	228.62
358.97	228.69
359.35	228.81
359.73	228.97
360.11	229.01
360.49	229.07
360.87	229.05
361.25	229.20
361.63	229.40
362.01	229.54
362.39	229.58
362.77	229.70
363.15	229.71
363.53	229.78
363.91	229.88
364.29	229.93
364.67	229.52
365.05	229.52
365.43	229.60
365.81	229.75
366.19	229.64
366.57	229.91
366.95	229.95
367.33	229.89
367.71	229.87
368.09	229.96
368.47	229.93
368.85	230.00
369.23	230.05
369.61	229.85
369.99	229.95
370.37	229.97
370.75	230.19
371.13	230.05
371.51	229.97
371.89	229.93
372.27	229.92
372.65	229.90
373.03	229.84
373.41	229.78
373.78	229.65
374.16	229.30
374.54	229.09
374.92	228.99
375.30	228.94
375.68	228.78
376.06	228.69
376.44	228.65
376.82	228.64
377.19	228.55
377.57	228.49
377.95	228.29
378.33	228.24
378.71	227.97
379.09	228.05
379.47	228.03
379.84	227.97
380.22	227.90
380.60	227.80
380.98	227.74
381.36	227.69
381.73	227.60
382.11	227.67
382.49	227.56
382.87	227.43
383.25	227.36
383.62	227.88
384.00	227.77
384.38	227.68
384.76	227.69
385.13	227.81
385.51	227.78
385.89	227.65
386.27	227.63
386.64	227.56
387.02	227.45
387.40	227.42
387.78	227.33
388.15	227.26
388.53	227.21
388.91	227.18
389.29	227.07
389.66	227.12
390.04	227.03
390.42	227.12
390.79	227.10
391.17	227.11
391.55	226.63
391.92	226.64
392.30	226.72
392.68	226.65
393.05	226.50
393.43	226.55
393.81	226.57
394.18	226.49
394.56	226.47
394.94	226.60
395.31	226.52
395.69	226.66
396.06	226.73
396.44	226.85
396.82	226.86
397.19	227.20
397.57	227.20
397.95	227.34
398.32	227.23
398.70	227.38
399.07	227.56
399.45	227.60
399.82	227.67
400.20	227.67
400.58	227.76
400.95	227.73
401.33	227.87
401.70	228.40
402.08	228.56
402.45	228.72
402.83	228.91
403.20	229.11
403.58	229.25
403.95	229.51
404.33	229.73
404.71	229.92
405.08	230.36
405.46	230.54
405.83	230.83
406.21	231.17
406.58	231.46
406.96	231.67
407.33	232.01
407.70	232.39
408.08	233.24
408.45	233.65
408.83	234.21
409.20	234.60
409.58	234.70
409.95	235.21
410.33	235.70
410.70	236.13
411.08	236.83
411.45	237.38
411.82	237.95
412.20	238.72
412.57	239.77
412.95	240.10
413.32	241.05
413.69	241.84
414.07	242.80
414.44	243.83
414.82	244.97
415.19	246.19
415.56	247.42
415.94	248.36
416.31	249.80
416.68	251.29
417.06	252.92
417.43	254.58
417.81	256.41
418.18	258.26
418.55	260.19
418.93	262.22
419.30	264.40
419.67	266.66
420.04	268.92
420.42	271.19
420.79	274.25
421.16	277.07
421.54	280.17
421.91	283.13
422.28	286.21
422.66	289.47
423.03	292.85
423.40	296.21
423.77	299.79
424.15	303.47
424.52	307.24
424.89	311.48
425.26	315.53
425.64	319.30
426.01	323.53
426.38	327.95
426.75	332.45
427.13	337.04
427.50	341.88
427.87	346.82
428.24	351.80
428.61	356.35
428.99	361.69
429.36	367.15
429.73	372.67
430.10	378.35
430.47	384.01
430.85	389.71
431.22	395.89
431.59	402.84
431.96	409.03
432.33	416.07
432.70	422.72
433.08	430.62
433.45	438.28
433.82	445.73
434.19	454.05
434.56	462.19
434.93	469.91
435.30	477.74
435.68	486.46
436.05	494.82
436.42	503.35
436.79	511.00
437.16	519.61
437.53	528.51
437.90	537.13
438.27	545.81
438.64	554.91
439.01	563.35
439.38	570.56
439.75	577.71
440.13	585.66
440.50	593.20
440.87	599.28
441.24	605.58
441.61	612.60
441.98	617.60
442.35	623.48
442.72	629.56
443.09	635.45
443.46	638.86
443.83	641.31
444.20	643.22
444.57	645.92
444.94	646.79
445.31	647.94
445.68	649.28
446.05	649.46
446.42	648.03
446.79	646.59
447.16	644.91
447.53	643.70
447.90	640.03
448.27	636.36
448.64	631.52
449.01	627.78
449.37	621.54
449.74	615.58
450.11	608.60
450.48	600.66
450.85	592.48
451.22	585.54
451.59	578.88
451.96	572.46
452.33	564.38
452.70	556.99
453.07	548.27
453.43	539.07
453.80	530.53
454.17	522.47
454.54	514.68
454.91	506.39
455.28	498.27
455.65	490.75
456.02	483.79
456.38	477.32
456.75	469.45
457.12	462.86
457.49	456.45
457.86	450.06
458.23	444.93
458.59	439.15
458.96	433.24
459.33	428.09
459.70	422.94
460.07	418.66
460.43	413.97
460.80	409.51
461.17	405.77
461.54	401.75
461.91	397.82
462.27	393.87
462.64	390.65
463.01	387.11
463.38	383.79
463.74	379.83
464.11	376.78
464.48	374.15
464.85	371.27
465.21	369.22
465.58	366.93
465.95	364.10
466.32	361.93
466.68	359.70
467.05	357.40
467.42	355.19
467.78	352.97
468.15	350.77
468.52	349.18
468.88	347.03
469.25	345.07
469.62	343.59
469.98	342.04
470.35	340.38
470.72	338.92
471.08	337.25
471.45	335.98
471.82	334.71
472.18	333.21
472.55	332.19
472.92	330.64
473.28	329.45
473.65	328.42
474.02	327.27
474.38	326.43
474.75	325.73
475.11	324.73
475.48	324.15
475.85	323.51
476.21	322.93
476.58	322.34
476.94	321.94
477.31	321.47
477.67	321.06
478.04	320.83
478.41	320.63
478.77	320.81
479.14	320.54
479.50	320.40
479.87	320.48
480.23	320.58
480.60	320.66
480.96	320.69
481.33	320.95
481.69	321.19
482.06	321.46
482.42	321.66
482.79	322.14
483.15	322.52
483.52	323.22
483.88	323.68
484.25	324.40
484.61	325.16
484.98	325.83
485.34	326.67
485.71	327.54
486.07	328.58
486.44	329.24
486.80	330.35
487.17	331.40
487.53	332.76
487.90	334.12
488.26	335.76
488.62	337.46
488.99	339.03
489.35	340.85
489.72	342.71
490.08	344.76
490.44	346.84
490.81	348.94
491.17	351.08
491.54	353.57
491.90	356.05
492.26	358.77
492.63	361.65
492.99	364.59
493.36	367.63
493.72	370.87
494.08	374.30
494.45	377.96
494.81	381.95
495.17	385.85
495.54	390.10
495.90	394.31
496.26	398.77
496.63	403.50
496.99	408.25
497.35	413.27
497.72	418.46
498.08	423.94
498.44	429.76
498.80	435.86
499.17	441.87
499.53	448.18
499.89	454.73
500.26	461.50
500.62	468.59
500.98	476.02
501.34	483.60
501.71	491.27
502.07	499.11
502.43	507.19
502.79	515.47
503.16	524.09
503.52	533.32
503.88	542.61
504.24	552.27
504.60	562.35
504.97	572.70
505.33	583.24
505.69	594.30
506.05	605.38
506.41	616.71
506.78	628.40
507.14	640.44
507.50	652.69
507.86	665.51
508.22	678.39
508.59	691.46
508.95	705.17
509.31	719.41
509.67	733.79
510.03	748.11
510.39	762.95
510.75	778.03
511.12	793.16
511.48	808.81
511.84	824.54
512.20	840.48
512.56	856.78
512.92	873.63
513.28	890.48
513.64	907.82
514.00	925.25
514.37	943.16
514.73	961.32
515.09	979.87
515.45	998.28
515.81	1016.78
516.17	1035.76
516.53	1054.41
516.89	1073.10
517.25	1092.52
517.61	1112.96
517.97	1133.31
518.33	1153.52
518.69	1174.00
519.05	1194.43
519.41	1215.38
519.77	1236.57
520.13	1257.44
520.49	1278.39
520.85	1301.02
521.21	1322.09
521.57	1343.52
521.93	1364.33
522.29	1385.61
522.65	1406.37
523.01	1427.22
523.37	1447.90
523.73	1469.08
524.09	1489.70
524.45	1510.88
524.81	1531.85
525.17	1552.48
525.53	1573.23
525.89	1594.15
526.25	1615.20
526.61	1635.91
526.97	1656.87
527.33	1678.06
527.68	1700.30
528.04	1721.47
528.40	1740.72
528.76	1761.93
529.12	1782.42
529.48	1803.26
529.84	1823.34
530.20	1844.44
530.56	1865.46
530.91	1886.47
531.27	1907.22
531.63	1928.10
531.99	1948.70
532.35	1968.77
532.71	1989.19
533.07	2009.87
533.42	2030.17
533.78	2049.95
534.14	2070.24
534.50	2089.38
534.86	2108.50
535.21	2125.91
535.57	2144.59
535.93	2162.83
536.29	2180.31
536.65	2198.53
537.00	2216.29
537.36	2234.19
537.72	2250.83
538.08	2268.10
538.44	2285.05
538.79	2301.49
539.15	2317.93
539.51	2333.78
539.87	2349.24
540.22	2363.40
540.58	2377.83
540.94	2391.03
541.29	2403.87
541.65	2416.35
542.01	2429.35
542.37	2440.42
542.72	2451.72
543.08	2462.46
543.44	2474.11
543.79	2484.81
544.15	2494.75
544.51	2505.31
544.87	2515.20
545.22	2524.30
545.58	2532.15
545.94	2539.79
546.29	2546.33
546.65	2552.63
547.01	2558.16
547.36	2564.49
547.72	2570.10
548.07	2574.38
548.43	2579.65
548.79	2584.30
549.14	2588.69
549.50	2592.32
549.86	2596.52
550.21	2600.31
550.57	2603.85
550.92	2605.51
551.28	2607.00
551.64	2609.63
551.99	2611.19
552.35	2612.81
552.70	2614.90
553.06	2616.86
553.41	2617.83
553.77	2619.96
554.13	2622.10
554.48	2623.88
554.84	2624.78
555.19	2626.03
555.55	2627.48
555.90	2626.75
556.26	2626.19
556.61	2624.20
556.97	2622.30
557.32	2621.35
557.68	2619.85
558.03	2618.50
558.39	2617.34
558.74	2616.53
559.10	2613.42
559.45	2610.12
559.81	2605.80
560.16	2600.82
560.52	2595.84
560.87	2591.76
561.23	2586.05
561.58	2579.87
561.94	2573.14
562.29	2565.60
562.64	2558.58
563.00	2550.65
563.35	2544.33
563.71	2538.21
564.06	2532.10
564.42	2525.70
564.77	2519.19
565.12	2511.91
565.48	2504.31
565.83	2496.08
566.19	2487.68
566.54	2479.57
566.89	2471.25
567.25	2463.47
567.60	2456.05
567.96	2448.82
568.31	2440.76
568.66	2432.13
569.02	2423.39
569.37	2415.65
569.72	2408.20
570.08	2399.07
570.43	2389.34
570.78	2380.34
571.14	2370.34
571.49	2360.45
571.84	2350.59
572.20	2339.54
572.55	2329.66
572.90	2318.37
573.26	2308.37
573.61	2297.50
573.96	2286.52
574.31	2274.60
574.67	2262.88
575.02	2250.03
575.37	2236.80
575.72	2223.39
576.08	2211.25
576.43	2198.34
576.78	2184.53
577.13	2170.59
577.49	2157.86
577.84	2146.05
578.19	2133.67
578.54	2121.22
578.90	2109.15
579.25	2096.68
579.60	2084.12
579.95	2071.02
580.30	2058.00
580.66	2044.27
581.01	2030.33
581.36	2016.19
581.71	2003.68
582.06	1990.66
582.42	1978.15
582.77	1965.44
583.12	1953.42
583.47	1940.61
583.82	1928.88
584.17	1917.14
584.53	1905.22
584.88	1892.14
585.23	1879.05
585.58	1864.82
585.93	1851.44
586.28	1838.05
586.63	1824.10
586.98	1809.60
587.34	1796.16
587.69	1782.91
588.04	1770.29
588.39	1758.36
588.74	1746.09
589.09	1733.89
589.44	1720.88
589.79	1708.97
590.14	1697.11
590.49	1684.93
590.84	1673.04
591.19	1660.66
591.54	1648.39
591.89	1636.22
592.25	1625.95
592.60	1614.42
592.95	1603.07
593.30	1590.87
593.65	1578.67
594.00	1566.81
594.35	1557.16
594.70	1545.55
595.05	1533.99
595.40	1521.84
595.75	1509.77
596.10	1498.33
596.45	1486.57
596.80	1475.56
597.15	1463.98
597.50	1452.04
597.85	1440.70
598.19	1428.84
598.54	1417.07
598.89	1405.75
599.24	1395.18
599.59	1383.47
599.94	1372.37
600.29	1361.65
600.64	1351.24
600.99	1340.49
601.34	1330.92
601.69	1319.71
602.04	1309.55
602.39	1299.88
602.74	1290.55
603.08	1281.40
603.43	1272.33
603.78	1262.58
604.13	1252.92
604.48	1242.87
604.83	1233.27
605.18	1223.29
605.53	1213.84
605.87	1204.62
606.22	1195.85
606.57	1186.55
606.92	1177.11
607.27	1168.14
607.62	1159.31
607.96	1150.76
608.31	1142.74
608.66	1134.02
609.01	1125.27
609.36	1116.74
609.70	1108.05
610.05	1099.33
610.40	1090.55
610.75	1081.54
611.10	1073.17
611.44	1064.27
611.79	1056.11
612.14	1048.20
612.49	1040.19
612.83	1032.57
613.18	1024.74
613.53	1016.80
613.88	1008.49
614.22	1000.66
614.57	992.66
614.92	984.73
615.27	976.97
615.61	969.22
615.96	961.54
616.31	954.21
616.65	946.94
617.00	939.59
617.35	932.23
617.70	924.90
618.04	917.99
618.39	910.96
618.74	904.81
619.08	897.74
619.43	890.49
619.78	883.27
620.12	876.27
620.47	869.38
620.82	862.26
621.16	855.43
621.51	849.01
621.85	842.48
622.20	835.88
622.55	829.23
622.89	822.60
623.24	816.15
623.59	809.52
623.93	803.16
624.28	796.97
624.62	791.36
624.97	785.63
625.32	779.66
625.66	773.56
626.01	767.19
626.35	761.71
626.70	756.00
627.04	750.94
627.39	745.27
627.73	739.96
628.08	734.74
628.43	729.25
628.77	723.57
629.12	718.37
629.46	713.61
629.81	708.86
630.15	704.09
630.50	699.09
630.84	694.23
631.19	689.26
631.53	684.48
631.88	679.07
632.22	674.12
632.57	669.55
632.91	664.90
633.26	660.35
633.60	655.82
633.95	651.27
634.29	646.39
634.64	641.95
634.98	637.17
635.32	632.83
635.67	628.90
636.01	624.74
636.36	620.25
636.70	616.05
637.05	611.81
637.39	607.56
637.73	603.38
638.08	599.28
638.42	595.09
638.77	590.74
639.11	586.43
639.45	582.12
639.80	577.76
640.14	573.73
640.49	569.75
640.83	565.58
641.17	561.80
641.52	557.99
641.86	554.25
642.20	550.97
642.55	547.23
642.89	543.59
643.23	540.12
643.58	537.00
643.92	533.32
644.26	529.97
644.61	526.73
644.95	523.39
645.29	520.01
645.64	516.79
645.98	513.70
646.32	510.83
646.66	507.61
647.01	504.56
647.35	501.68
647.69	498.76
648.04	496.07
648.38	493.25
648.72	490.35
649.06	487.32
649.41	484.10
649.75	481.10
650.09	478.17
650.43	475.10
650.78	472.04
651.12	469.20
651.46	466.26
651.80	463.48
652.14	460.76
652.49	458.18
652.83	455.62
653.17	453.02
653.51	450.22
653.85	447.88
654.20	445.36
654.54	442.74
654.88	440.14
655.22	437.78
655.56	435.29
655.90	432.88
656.25	430.58
656.59	428.31
656.93	426.04
657.27	423.98
657.61	421.66
657.95	419.50
658.29	417.23
658.64	415.12
658.98	412.81
659.32	410.46
659.66	408.18
660.00	405.93
660.34	403.87
660.68	401.80
661.02	399.75
661.36	397.77
661.70	395.74
662.05	393.84
662.39	391.77
662.73	389.95
663.07	388.32
663.41	386.51
663.75	384.59
664.09	382.75
664.43	380.68
664.77	378.94
665.11	377.19
665.45	375.56
665.79	373.89
666.13	372.21
666.47	370.60
666.81	369.02
667.15	367.40
667.49	365.86
667.83	364.61
668.17	363.13
668.51	361.61
668.85	360.25
669.19	359.10
669.53	357.59
669.87	355.97
670.21	354.43
670.55	353.06
670.89	351.96
671.23	350.64
671.57	349.29
671.91	347.93
672.25	346.63
672.58	345.36
672.92	343.95
673.26	342.69
673.60	341.46
673.94	340.27
674.28	339.11
674.62	338.00
674.96	336.64
675.30	335.35
675.64	334.21
675.97	332.91
676.31	331.50
676.65	330.28
676.99	329.47
677.33	328.35
677.67	327.28
678.01	325.95
678.34	324.86
678.68	323.89
679.02	322.86
679.36	321.79
679.70	320.67
680.04	319.76
680.37	318.81
680.71	317.88
681.05	316.95
681.39	316.06
681.73	315.04
682.06	314.07
682.40	313.28
682.74	312.47
683.08	311.82
683.42	310.91
683.75	310.15
684.09	309.07
684.43	308.21
684.77	307.21
685.10	306.43
685.44	305.56
685.78	304.75
686.12	303.95
686.45	303.14
686.79	302.41
687.13	301.71
687.46	300.92
687.80	300.26
688.14	299.41
688.48	298.61
688.81	297.85
689.15	297.29
689.49	296.54
689.82	295.82
690.16	294.89
690.50	294.21
690.83	293.46
691.17	292.73
691.51	292.03
691.84	291.46
692.18	290.76
692.52	290.16
692.85	289.58
693.19	289.21
693.52	288.63
693.86	287.92
694.20	287.18
694.53	286.57
694.87	285.83
695.21	285.21
695.54	284.64
695.88	283.94
696.21	283.16
696.55	282.53
696.88	281.84
697.22	281.34
697.56	280.80
697.89	280.25
698.23	279.82
698.56	279.24
698.90	278.82
699.23	278.32
699.57	277.78
699.90	277.09
700.24	276.38
700.58	275.94
700.91	275.56
701.25	275.48
701.58	275.38
701.92	274.97
702.25	274.52
702.59	273.96
702.92	273.62
703.26	273.26
703.59	272.82
703.93	272.84
704.26	272.45
704.60	272.10
704.93	271.68
705.26	271.16
705.60	270.87
705.93	270.22
706.27	269.93
706.60	269.65
706.94	269.55
707.27	269.08
707.61	268.73
707.94	268.28
708.27	267.49
708.61	266.69
708.94	266.28
709.28	265.93
709.61	265.56
709.94	265.10
710.28	264.70
710.61	264.35
710.95	263.54
711.28	263.41
711.61	262.97
711.95	262.67
712.28	262.26
712.61	261.89
712.95	261.83
713.28	261.67
713.61	261.18
713.95	260.65
714.28	260.46
714.61	259.97
714.95	259.61
715.28	259.29
715.61	258.96
715.95	258.61
716.28	258.26
716.61	258.09
716.95	257.73
717.28	257.48
717.61	257.10
717.94	256.77
718.28	256.16
718.61	255.81
718.94	255.51
719.27	255.25
719.61	255.07
719.94	254.68
720.27	254.18
720.60	253.96
720.94	253.69
721.27	253.40
721.60	253.28
721.93	253.08
722.27	253.04
722.60	252.92
722.93	252.76
723.26	252.62
723.59	252.25
723.93	252.21
724.26	251.92
724.59	251.76
724.92	251.68
725.25	251.57
725.59	251.36
725.92	251.17
726.25	251.01
726.58	250.73
726.91	250.49
727.24	250.33
727.57	250.14
727.91	249.89
728.24	249.74
728.57	249.50
728.90	249.36
729.23	248.98
729.56	248.99
729.89	248.73
730.22	248.46
730.55	248.31
730.89	248.06
731.22	247.86
731.55	247.66
731.88	247.42
732.21	247.23
732.54	247.01
732.87	246.81
733.20	246.60
733.53	246.51
733.86	246.41
734.19	246.17
734.52	246.08
734.85	246.32
735.18	246.09
735.51	246.01
735.84	245.88
736.17	245.84
736.50	245.44
736.83	245.84
737.16	245.66
737.49	245.53
737.82	245.37
738.15	245.34
738.48	245.16
738.81	244.97
739.14	244.75
739.47	244.61
739.80	244.49
740.13	244.35
740.46	244.06
740.79	243.83
741.12	243.69
741.45	243.44
741.78	242.95
742.11	242.90
742.44	242.69
742.77	242.59
743.10	242.35
743.43	242.15
743.75	241.50
744.08	242.05
744.41	241.88
744.74	241.75
745.07	241.46
745.40	241.42
745.73	241.50
746.06	241.42
746.39	241.38
746.71	241.19
747.04	241.10
747.37	241.01
747.70	241.01
748.03	240.90
748.36	240.84
748.68	240.72
749.01	240.52
749.34	240.36
749.67	240.19
750.00	240.20
750.33	240.44
750.65	240.43
750.98	239.82
751.31	239.73
751.64	239.61
751.97	239.80
752.29	239.61
752.62	239.30
752.95	239.04
753.28	238.92
753.60	238.85
753.93	238.83
754.26	238.76
754.59	238.46
754.91	238.27
755.24	238.12
755.57	238.06
755.90	237.95
756.22	237.91
756.55	237.76
756.88	237.54
757.20	237.21
757.53	236.87
757.86	236.67
758.19	236.62
758.51	236.53
758.84	236.25
759.17	236.13
759.49	236.11
759.82	236.31
760.15	236.29
760.47	236.19
760.80	236.01
761.13	235.93
761.45	235.91
761.78	235.84
762.11	235.76
762.43	235.60
762.76	235.48
763.08	235.43
763.41	235.43
763.74	235.30
764.06	235.11
764.39	235.15
764.71	235.07
765.04	234.91
765.37	234.77
765.69	234.65
766.02	234.62
766.34	234.47
766.67	234.21
767.00	234.18
767.32	234.37
767.65	234.57
767.97	234.46
768.30	234.41
768.62	234.45
768.95	234.35
769.27	234.33
769.60	234.39
769.92	234.23
770.25	234.09
770.57	234.03
770.90	234.01
771.22	233.88
771.55	233.87
771.87	233.86
772.20	233.80
772.52	234.13
772.85	234.59
773.17	234.52
773.50	234.46
773.82	234.36
774.15	234.08
774.47	233.81
774.80	233.69
775.12	233.59
775.45	233.50
775.77	233.52
776.09	233.50
776.42	233.40
776.74	233.52
777.07	233.45
777.39	233.43
777.72	233.35
778.04	233.39
778.36	233.23
778.69	233.19
779.01	233.18
779.33	232.77
779.66	232.15
779.98	232.13
780.31	232.13
780.63	232.23
780.95	232.23
781.28	232.07
781.60	232.01
781.92	231.99
782.25	231.94
782.57	231.80
782.89	231.73
783.22	231.64
783.54	231.53
783.86	231.59
784.19	231.50
784.51	231.70
784.83	231.57
785.16	231.55
785.48	231.52
785.80	231.51
786.12	231.52
786.45	231.55
786.77	231.57
787.09	231.48
787.42	231.28
787.74	231.28
788.06	231.27
788.38	231.23
788.71	231.12
789.03	231.13
789.35	231.19
789.67	231.06
789.99	231.16
790.32	230.99
790.64	230.97
790.96	231.33
791.28	231.05
791.61	231.05
791.93	231.07
792.25	230.99
792.57	231.27
792.89	231.08
793.21	231.09
793.54	230.98
793.86	230.92
794.18	230.93
794.50	230.86
794.82	230.89
795.14	230.99
795.47	231.03
795.79	230.98
796.11	230.86
796.43	230.79
796.75	230.66
797.07	230.72
797.39	230.66
797.71	230.34
798.04	230.33
798.36	230.39
798.68	230.33
799.00	230.32
799.32	230.10
799.64	230.20
799.96	230.15
800.28	230.19
800.60	230.15
800.92	230.16
801.24	230.12
801.56	230.06
801.89	229.99
802.21	230.01
802.53	229.90
802.85	229.98
803.17	230.26
803.49	230.15
803.81	230.09
804.13	230.02
804.45	229.92
804.77	229.92
805.09	229.84
805.41	229.83
805.73	229.76
806.05	229.59
806.37	229.61
806.69	229.55
807.01	229.50
807.33	229.54
807.65	229.39
807.97	229.53
808.28	229.46
808.60	229.38
808.92	229.34
809.24	229.67
809.56	229.62
809.88	229.44
810.20	229.47
810.52	229.60
810.84	229.45
811.16	229.40
811.48	229.41
811.80	229.53
812.12	229.47
812.43	229.53
812.75	229.58
813.07	229.48
813.39	229.52
813.71	229.42
814.03	229.42
814.35	229.44
814.67	229.18
814.98	229.13
815.30	229.16
815.62	229.15
815.94	228.80
816.26	228.98
816.58	228.81
816.89	228.84
817.21	228.67
817.53	228.72
817.85	228.71
818.17	228.62
818.48	228.41
818.80	228.50
819.12	228.39
819.44	228.35
819.76	228.28
820.07	228.25
820.39	228.19
820.71	228.19
821.03	228.12
821.34	228.07
821.66	228.16
821.98	228.16
822.30	228.05
822.61	228.29
822.93	228.04
823.25	228.08
823.57	228.07
823.88	228.17
824.20	228.16
824.52	228.22
824.83	228.21
825.15	228.20
825.47	228.15
825.79	228.22
826.10	228.15
826.42	228.17
826.74	228.12
827.05	228.16
827.37	228.14
827.69	228.08
828.00	228.19
828.32	228.20
828.64	228.12
828.95	228.34
829.27	228.25
829.58	228.23
829.90	228.33
830.22	228.32
830.53	228.15
830.85	228.11
831.17	227.99
831.48	228.05
831.80	228.05
832.11	228.04
832.43	227.95
832.75	227.95
833.06	228.23
833.38	228.14
833.69	228.09
834.01	228.13
834.32	228.24
834.64	228.18
834.96	228.16
835.27	228.18
835.59	228.03
835.90	227.87
836.22	227.89
836.53	227.84
836.85	227.78
837.16	228.24
837.48	228.28
837.79	228.42
838.11	228.39
838.42	228.43
838.74	228.50
839.05	228.49
839.37	228.48
839.68	228.12
840.00	228.20
840.31	228.35
840.63	228.28
840.94	228.20
841.26	228.20
841.57	228.14
841.88	228.16
842.20	228.08
842.51	228.07
842.83	228.00
843.14	228.34
843.46	228.36
843.77	228.15
844.08	228.14
844.40	228.05
844.71	228.03
845.03	227.93
845.34	227.89
845.65	227.86
845.97	227.88
846.28	227.90
846.60	227.92
846.91	227.80
847.22	227.79
847.54	227.88
847.85	227.93
848.16	227.95
848.48	227.89
848.79	228.15
849.10	228.22
849.42	228.32
849.73	227.88
850.04	227.84
850.36	227.65
850.67	227.67
850.98	227.70
851.30	227.71
851.61	227.72
851.92	227.74
852.23	227.92
852.55	227.98
852.86	228.07
853.17	228.07
853.49	228.25
853.80	228.34
854.11	228.30
854.42	228.28
854.74	228.19
855.05	228.27
855.36	228.06
855.67	228.06
855.99	227.99
856.30	228.63
856.61	228.61
856.92	228.60
857.23	228.63
857.55	228.57
857.86	228.50
858.17	228.61
858.48	228.50
858.79	228.36
859.11	228.31
859.42	228.26
859.73	228.18
860.04	228.08
860.35	227.96
860.66	227.89
860.98	227.84
861.29	227.90
861.60	227.79
861.91	227.81
862.22	227.70
862.53	227.66
862.84	227.05
863.16	227.17
863.47	227.11
863.78	227.02
864.09	227.04
864.40	227.08
864.71	227.09
865.02	227.11
865.33	227.00
865.64	226.95
865.95	226.92
866.27	227.22
866.58	227.18
866.89	227.27
867.20	227.25
867.51	227.26
867.82	227.20
868.13	227.35
868.44	227.25
868.75	227.41
869.06	227.48
869.37	227.57
869.68	227.41
869.99	227.41
870.30	227.49
870.61	227.46
870.92	227.47
871.23	227.31
871.54	227.37
871.85	227.55
872.16	227.67
872.47	227.60
872.78	227.29
873.09	227.36
873.40	227.24
873.71	227.23
874.02	227.23
874.33	227.27
874.64	227.17
874.95	227.27
875.26	227.14
875.56	227.13
875.87	227.04
876.18	226.98
876.49	227.53
876.80	227.50
877.11	227.48
877.42	227.48
877.73	227.54
878.04	227.48
878.35	227.45
878.66	227.39
878.96	227.41
879.27	227.39
879.58	227.27
879.89	227.26
880.20	227.40
880.51	227.38
880.82	227.35
881.12	227.40
881.43	227.26
881.74	227.17
882.05	227.11
882.36	227.17
882.67	227.23
882.97	226.69
883.28	226.63
883.59	226.62
883.90	226.66
884.21	226.70
884.51	226.70
884.82	226.62
885.13	226.62
885.44	226.68
885.74	226.72
886.05	226.74
886.36	226.73
886.67	226.57
886.98	226.76
887.28	226.83
887.59	226.77
887.90	226.74
888.20	226.78
888.51	226.87
888.82	226.79
889.13	226.94
889.43	227.34
889.74	227.34
890.05	227.32
890.35	227.34
890.66	227.29
890.97	227.24
891.28	227.21
891.58	227.19
891.89	227.15
892.20	227.11
892.50	227.11
892.81	227.09
893.12	227.07
893.42	226.90
893.73	226.89
894.04	226.90
894.34	227.02
894.65	227.03
894.95	227.00
895.26	227.08
895.57	227.18
895.87	226.76
896.18	226.85
896.48	226.87
896.79	226.75
897.10	226.88
897.40	226.92
897.71	227.05
898.01	227.04
898.32	227.10
898.63	227.08
898.93	227.08
899.24	227.15
899.54	227.22
899.85	227.24
900.15	227.25
900.46	227.32
900.76	227.34
901.07	227.35
901.38	227.38
901.68	227.37
901.99	227.13
902.29	227.13
902.60	227.07
902.90	227.10
903.21	227.15
903.51	227.09
903.82	227.22
904.12	227.15
904.43	227.23
904.73	227.22
905.03	227.25
905.34	227.69
905.64	227.65
905.95	227.59
906.25	227.55
906.56	227.51
906.86	227.38
907.17	227.36
907.47	227.35
907.77	227.34
908.08	227.28
908.38	227.27
908.69	227.32
908.99	227.43
909.30	227.43
909.60	227.42
909.90	227.41
910.21	227.25
910.51	227.17
910.81	227.13
911.12	227.08
911.42	227.13
911.73	226.62
912.03	226.73
912.33	226.91
912.64	226.90
912.94	226.93
913.24	226.82
913.55	226.78
913.85	226.72
914.15	226.73
914.46	226.77
914.76	226.76
915.06	226.71
915.37	226.62
915.67	226.50
915.97	226.50
916.27	226.40
916.58	226.45
916.88	226.47
917.18	226.38
917.49	226.73
917.79	226.65
918.09	226.78
918.39	226.85
918.70	226.79
919.00	226.77
919.30	226.97
919.60	227.02
919.91	226.99
920.21	227.05
920.51	226.92
920.81	226.87
921.12	226.94
921.42	226.94
921.72	226.91
922.02	226.96
922.32	227.02
922.63	227.02
922.93	227.24
923.23	227.30
923.53	227.25
923.83	227.00
924.13	227.07
924.44	227.02
924.74	227.02
925.04	227.07
925.34	227.06
925.64	226.80
925.94	226.82
926.24	227.02
926.55	227.02
926.85	227.13
927.15	227.12
927.45	227.07
927.75	227.01
928.05	227.04
928.35	227.00
928.65	227.10
928.95	227.11
929.26	226.80
929.56	226.83
929.86	226.93
930.16	226.85
930.46	226.82
930.76	226.81
931.06	226.65
931.36	226.56
931.66	226.57
931.96	226.68
932.26	226.71
932.56	226.54
932.86	226.52
933.16	226.50
933.46	226.53
933.76	226.49
934.06	226.66
934.36	226.77
934.66	226.78
934.96	226.72
935.26	226.73
935.56	226.94
935.86	226.89
936.16	226.84
936.46	226.82
936.76	226.83
937.06	226.82
937.36	226.78
937.66	226.84
937.96	226.87
938.26	226.79
938.56	226.72
938.86	226.77
939.16	226.87
939.46	226.95
939.76	226.97
940.06	226.95
940.35	226.84
940.65	226.68
940.95	226.75
941.25	226.65
941.55	226.60
941.85	226.53
942.15	226.57
942.45	226.67
942.75	226.68
943.04	226.68
943.34	226.80
943.64	226.88
943.94	226.75
944.24	226.76
944.54	226.86
944.84	226.95
945.13	226.88
945.43	226.88
945.73	226.87
946.03	226.89
946.33	226.93
946.62	226.86
946.92	226.91
947.22	226.94
947.52	226.96
947.82	227.13
948.11	227.07
948.41	226.98
948.71	226.87
949.01	226.88
949.31	226.87
949.60	226.79
949.90	226.86
950.20	226.92
950.50	226.91
950.79	226.80
951.09	226.81
951.39	226.77
951.69	226.71
951.98	226.76
952.28	226.71
952.58	226.68
952.87	226.75
953.17	226.73
953.47	226.67
953.76	226.68
954.06	226.54
954.36	226.45
954.66	226.54
954.95	226.68
955.25	226.74
955.55	226.70
955.84	226.54
956.14	226.50
956.44	226.48
956.73	226.37
957.03	226.37
957.32	226.37
957.62	226.38
957.92	226.48
958.21	226.33
958.51	226.77
958.81	226.83
959.10	226.81
959.40	226.95
959.69	226.94
959.99	226.99
960.29	227.00
960.58	227.02
960.88	227.07
961.17	226.95
961.47	226.94
961.76	226.91
962.06	227.05
962.36	226.91
962.65	226.92
962.95	227.00
963.24	227.04
963.54	227.04
963.83	227.06
964.13	226.90
964.42	226.95
964.72	226.55
965.01	226.48
965.31	226.41
965.60	226.27
965.90	226.52
966.19	226.43
966.49	226.41
966.78	226.38
967.08	226.32
967.37	226.36
967.67	226.27
967.96	226.39
968.26	226.38
968.55	226.49
968.85	226.49
969.14	226.45
969.43	226.35
969.73	226.29
970.02	226.25
970.32	226.29
970.61	226.26
970.91	226.16
971.20	226.13
971.49	226.16
971.79	226.21
972.08	225.97
972.38	225.93
972.67	225.94
972.96	226.06
973.26	225.96
973.55	226.08
973.85	226.05
974.14	226.01
974.43	225.99
974.73	225.95
975.02	225.85
975.31	225.85
975.61	225.92
975.90	225.87
976.19	225.85
976.49	225.91
976.78	225.91
977.07	226.00
977.37	226.11
977.66	226.14
977.95	226.11
978.24	226.16
978.54	226.37
978.83	226.36
979.12	226.35
979.42	226.35
979.71	226.24
980.00	226.25
980.29	226.25
980.59	226.24
980.88	226.35
981.17	226.44
981.46	226.42
981.76	226.40
982.05	226.68
982.34	226.67
982.63	226.65
982.93	226.68
983.22	226.78
983.51	226.76
983.80	226.87
984.09	226.90
984.39	226.89
984.68	226.79
984.97	226.79
985.26	226.70
985.55	226.83
985.85	226.85
986.14	226.95
986.43	227.08
986.72	227.07
987.01	227.00
987.30	227.01
987.59	227.03
987.89	227.13
988.18	226.90
988.47	227.01
988.76	227.01
989.05	226.92
989.34	226.86
989.63	226.94
989.92	226.84
990.22	226.80
990.51	226.76
990.80	226.73
991.09	226.79
991.38	226.92
991.67	226.94
991.96	226.90
992.25	226.91
992.54	226.82
992.83	226.86
993.12	226.75
993.41	226.82
993.70	226.98
993.99	226.98
994.28	227.05
994.58	227.14
994.87	227.03
995.16	227.03
995.45	226.96
995.74	226.73
996.03	226.78
996.32	226.80
996.61	226.84
996.90	226.84
997.19	226.76
997.48	226.71
997.77	226.56
998.06	226.55
998.34	226.50
998.63	226.47
998.92	226.38
999.21	226.50
999.50	226.49
999.79	226.33
1000.08	226.28
1000.37	226.28
1000.66	226.10
1000.95	226.26
1001.24	226.31
1001.53	226.42
1001.82	226.46
1002.11	226.33
1002.40	226.40
1002.68	226.53
1002.97	226.85
1003.26	226.79
1003.55	226.69
1003.84	226.73
1004.13	226.83
1004.42	226.84
1004.71	226.85
1004.99	226.84
1005.28	226.89
1005.57	226.72
1005.86	226.75
1006.15	226.68
1006.44	226.59
1006.72	226.65
1007.01	226.56
1007.30	226.55
1007.59	226.41
1007.88	226.45
1008.17	226.45
1008.45	226.32
1008.74	226.10
1009.03	225.89
1009.32	225.87
1009.60	225.93
1009.89	225.83
1010.18	225.67
1010.47	225.59
1010.76	225.51
1011.04	225.51
1011.33	225.48
1011.62	225.55
1011.91	225.53
1012.19	225.57
1012.48	225.58
1012.77	225.59
1013.05	225.83
1013.34	225.81
1013.63	225.85
1013.92	225.91
1014.20	225.96
1014.49	226.00
1014.78	226.06
1015.06	225.90
1015.35	225.95
1015.64	226.02
1015.92	226.14
1016.21	226.20
1016.50	226.18
1016.78	226.23
1017.07	226.31
1017.36	226.31
1017.64	226.32
1017.93	226.36
1018.22	226.30
1018.50	226.37
1018.79	226.35
1019.08	226.17
1019.36	226.22
1019.65	226.18
1019.93	226.30
1020.22	226.41
1020.51	226.69
1020.79	226.67
1021.08	224.60
1021.36	226.50
1021.65	226.50
1021.94	226.95
1022.22	226.80
1022.51	225.70
1022.79	228.90
1023.08	227.75
1023.36	232.65
1023.65	225.75
>>>>>End Processed Spectral Data<<<<<
