SpectraSuite Data File
++++++++++++++++++++++++++++++++++++
Date: Wed Sep 04 17:54:05 EDT 2013
User: lab3
Dark Spectrum Present: Yes
Reference Spectrum Present: No
Number of Sampled Component Spectra: 1
Spectrometers: USB2E7196
Integration Time (usec): 170000 (USB2E7196)
Spectra Averaged: 20 (USB2E7196)
Boxcar Smoothing: 10 (USB2E7196)
Correct for Electrical Dark: No (USB2E7196)
Strobe/Lamp Enabled: No (USB2E7196)
Correct for Detector Non-linearity: No (USB2E7196)
Correct for Stray Light: No (USB2E7196)
Number of Pixels in Processed Spectrum: 2048
>>>>>Begin Processed Spectral Data<<<<<
339.09	0.00
339.48	213.85
339.86	213.75
340.24	215.80
340.63	217.25
341.01	225.90
341.39	221.30
341.78	223.80
342.16	224.25
342.54	223.45
342.93	212.55
343.31	223.21
343.69	223.73
344.07	224.23
344.46	224.69
344.84	225.13
345.22	225.10
345.60	225.32
345.99	225.39
346.37	225.46
346.75	225.61
347.13	225.66
347.52	225.70
347.90	225.90
348.28	225.93
348.66	226.09
349.05	225.93
349.43	226.10
349.81	226.15
350.19	226.22
350.57	226.21
350.96	226.29
351.34	226.41
351.72	226.56
352.10	226.62
352.48	226.64
352.87	226.65
353.25	226.70
353.63	226.74
354.01	226.80
354.39	226.91
354.77	226.95
355.15	227.16
355.54	227.20
355.92	227.08
356.30	227.11
356.68	227.45
357.06	227.58
357.44	227.50
357.82	227.57
358.20	227.99
358.58	228.08
358.97	228.16
359.35	228.40
359.73	228.43
360.11	228.50
360.49	228.60
360.87	228.71
361.25	228.80
361.63	229.01
362.01	229.10
362.39	229.09
362.77	229.22
363.15	229.18
363.53	229.21
363.91	229.33
364.29	229.37
364.67	228.94
365.05	228.98
365.43	229.09
365.81	229.16
366.19	229.03
366.57	229.24
366.95	229.25
367.33	229.07
367.71	229.18
368.09	229.36
368.47	229.46
368.85	229.34
369.23	229.44
369.61	229.30
369.99	229.44
370.37	229.49
370.75	229.65
371.13	229.61
371.51	229.53
371.89	229.51
372.27	229.58
372.65	229.56
373.03	229.52
373.41	229.42
373.78	229.39
374.16	229.10
374.54	228.90
374.92	228.76
375.30	228.77
375.68	228.55
376.06	228.43
376.44	228.23
376.82	228.26
377.19	228.19
377.57	228.11
377.95	227.93
378.33	227.85
378.71	227.51
379.09	227.50
379.47	227.58
379.84	227.47
380.22	227.35
380.60	227.21
380.98	227.15
381.36	227.08
381.73	226.99
382.11	227.08
382.49	227.05
382.87	226.98
383.25	226.91
383.62	227.43
384.00	227.24
384.38	227.30
384.76	227.39
385.13	227.51
385.51	227.43
385.89	227.36
386.27	227.33
386.64	227.35
387.02	227.25
387.40	227.17
387.78	227.12
388.15	227.18
388.53	227.19
388.91	227.10
389.29	227.10
389.66	227.10
390.04	226.96
390.42	226.97
390.79	227.02
391.17	226.97
391.55	226.46
391.92	226.62
392.30	226.61
392.68	226.47
393.05	226.39
393.43	226.45
393.81	226.49
394.18	226.42
394.56	226.48
394.94	226.59
395.31	226.52
395.69	226.77
396.06	226.76
396.44	226.85
396.82	226.92
397.19	227.25
397.57	227.23
397.95	227.39
398.32	227.38
398.70	227.48
399.07	227.69
399.45	227.81
399.82	227.84
400.20	227.82
400.58	227.92
400.95	227.88
401.33	228.10
401.70	228.46
402.08	228.61
402.45	228.69
402.83	228.92
403.20	229.14
403.58	229.14
403.95	229.39
404.33	229.64
404.71	229.85
405.08	230.28
405.46	230.51
405.83	230.72
406.21	230.95
406.58	231.20
406.96	231.44
407.33	231.71
407.70	232.02
408.08	232.76
408.45	233.22
408.83	233.60
409.20	233.91
409.58	234.10
409.95	234.64
410.33	235.17
410.70	235.53
411.08	236.11
411.45	236.74
411.82	237.24
412.20	238.03
412.57	238.99
412.95	239.25
413.32	240.14
413.69	241.01
414.07	241.98
414.44	242.94
414.82	243.94
415.19	245.13
415.56	246.30
415.94	247.36
416.31	248.80
416.68	250.33
417.06	251.93
417.43	253.55
417.81	255.27
418.18	257.13
418.55	259.07
418.93	261.01
419.30	263.14
419.67	265.44
420.04	267.67
420.42	269.92
420.79	273.04
421.16	275.79
421.54	278.69
421.91	281.67
422.28	284.72
422.66	288.02
423.03	291.48
423.40	294.86
423.77	298.34
424.15	301.90
424.52	305.71
424.89	309.86
425.26	313.80
425.64	317.59
426.01	321.64
426.38	325.95
426.75	330.67
427.13	335.19
427.50	339.86
427.87	344.69
428.24	349.56
428.61	353.97
428.99	359.27
429.36	364.78
429.73	370.30
430.10	375.80
430.47	381.39
430.85	386.87
431.22	392.96
431.59	399.80
431.96	405.97
432.33	412.86
432.70	419.57
433.08	427.37
433.45	434.76
433.82	442.17
434.19	450.40
434.56	458.27
434.93	465.87
435.30	473.73
435.68	482.30
436.05	490.61
436.42	499.02
436.79	506.65
437.16	515.07
437.53	523.80
437.90	532.46
438.27	541.10
438.64	550.18
439.01	558.65
439.38	565.73
439.75	572.91
440.13	580.89
440.50	588.24
440.87	594.46
441.24	600.84
441.61	607.96
441.98	613.03
442.35	618.85
442.72	624.80
443.09	630.58
443.46	634.16
443.83	636.70
444.20	638.60
444.57	641.36
444.94	642.40
445.31	643.48
445.68	644.90
446.05	644.99
446.42	643.64
446.79	642.22
447.16	640.72
447.53	639.41
447.90	635.65
448.27	632.06
448.64	627.24
449.01	623.66
449.37	617.37
449.74	611.40
450.11	604.65
450.48	597.06
450.85	589.08
451.22	582.09
451.59	575.39
451.96	569.16
452.33	561.12
452.70	553.84
453.07	545.28
453.43	536.23
453.80	527.95
454.17	519.89
454.54	512.10
454.91	503.90
455.28	495.93
455.65	488.60
456.02	481.78
456.38	475.40
456.75	467.61
457.12	461.01
457.49	454.68
457.86	448.27
458.23	443.10
458.59	437.38
458.96	431.62
459.33	426.59
459.70	421.45
460.07	417.27
460.43	412.57
460.80	408.29
461.17	404.40
461.54	400.46
461.91	396.66
462.27	392.88
462.64	389.66
463.01	386.21
463.38	382.93
463.74	378.95
464.11	375.84
464.48	373.26
464.85	370.57
465.21	368.53
465.58	366.31
465.95	363.48
466.32	361.35
466.68	359.13
467.05	357.00
467.42	354.91
467.78	352.66
468.15	350.58
468.52	348.93
468.88	346.93
469.25	344.95
469.62	343.59
469.98	341.92
470.35	340.30
470.72	338.84
471.08	337.04
471.45	335.83
471.82	334.63
472.18	333.08
472.55	332.05
472.92	330.64
473.28	329.54
473.65	328.40
474.02	327.21
474.38	326.37
474.75	325.61
475.11	324.69
475.48	324.00
475.85	323.32
476.21	322.70
476.58	322.14
476.94	321.75
477.31	321.24
477.67	320.67
478.04	320.37
478.41	320.05
478.77	320.40
479.14	320.08
479.50	319.90
479.87	319.87
480.23	319.80
480.60	319.79
480.96	319.79
481.33	320.22
481.69	320.46
482.06	320.68
482.42	320.86
482.79	321.25
483.15	321.76
483.52	322.38
483.88	322.75
484.25	323.26
484.61	323.91
484.98	324.49
485.34	325.57
485.71	326.58
486.07	327.59
486.44	328.23
486.80	329.27
487.17	330.50
487.53	331.98
487.90	333.38
488.26	335.08
488.62	336.76
488.99	338.30
489.35	340.05
489.72	341.90
490.08	343.80
490.44	345.84
490.81	347.90
491.17	350.03
491.54	352.51
491.90	355.13
492.26	357.77
492.63	360.52
492.99	363.26
493.36	366.28
493.72	369.54
494.08	372.95
494.45	376.58
494.81	380.45
495.17	384.39
495.54	388.66
495.90	392.79
496.26	397.23
496.63	401.81
496.99	406.65
497.35	411.75
497.72	417.17
498.08	422.53
498.44	428.22
498.80	434.38
499.17	440.45
499.53	446.58
499.89	453.25
500.26	460.08
500.62	467.07
500.98	474.48
501.34	482.00
501.71	489.74
502.07	497.70
502.43	505.78
502.79	513.96
503.16	522.58
503.52	531.67
503.88	540.72
504.24	550.40
504.60	560.38
504.97	570.71
505.33	581.03
505.69	592.22
506.05	603.30
506.41	614.31
506.78	625.98
507.14	638.25
507.50	650.60
507.86	663.35
508.22	676.43
508.59	689.52
508.95	703.18
509.31	717.35
509.67	731.57
510.03	745.83
510.39	760.67
510.75	775.48
511.12	790.47
511.48	806.33
511.84	822.10
512.20	838.10
512.56	854.24
512.92	870.88
513.28	887.55
513.64	904.58
514.00	921.98
514.37	939.57
514.73	957.57
515.09	975.60
515.45	993.95
515.81	1012.21
516.17	1031.00
516.53	1049.53
516.89	1067.97
517.25	1087.32
517.61	1107.62
517.97	1127.81
518.33	1148.00
518.69	1168.48
519.05	1188.70
519.41	1209.42
519.77	1230.16
520.13	1250.80
520.49	1271.45
520.85	1293.80
521.21	1314.85
521.57	1336.27
521.93	1357.34
522.29	1378.42
522.65	1398.88
523.01	1419.52
523.37	1440.28
523.73	1461.26
524.09	1481.96
524.45	1502.76
524.81	1523.65
525.17	1544.20
525.53	1564.79
525.89	1585.68
526.25	1606.34
526.61	1626.74
526.97	1647.69
527.33	1668.89
527.68	1690.65
528.04	1712.10
528.40	1731.58
528.76	1752.86
529.12	1773.41
529.48	1794.21
529.84	1814.21
530.20	1835.60
530.56	1856.58
530.91	1877.75
531.27	1897.91
531.63	1918.36
531.99	1938.81
532.35	1958.98
532.71	1979.08
533.07	1999.64
533.42	2019.39
533.78	2039.33
534.14	2059.24
534.50	2078.00
534.86	2097.28
535.21	2114.81
535.57	2133.29
535.93	2151.14
536.29	2168.58
536.65	2186.84
537.00	2204.36
537.36	2222.11
537.72	2238.45
538.08	2255.05
538.44	2271.53
538.79	2287.97
539.15	2304.45
539.51	2320.32
539.87	2335.31
540.22	2348.90
540.58	2362.94
540.94	2376.00
541.29	2388.63
541.65	2401.43
542.01	2414.03
542.37	2424.30
542.72	2435.12
543.08	2445.57
543.44	2457.16
543.79	2467.33
544.15	2476.98
544.51	2487.10
544.87	2496.60
545.22	2505.21
545.58	2513.30
545.94	2520.12
546.29	2526.79
546.65	2532.96
547.01	2538.68
547.36	2544.04
547.72	2549.89
548.07	2553.86
548.43	2559.36
548.79	2564.04
549.14	2567.88
549.50	2571.45
549.86	2575.44
550.21	2579.20
550.57	2582.57
550.92	2583.79
551.28	2584.81
551.64	2587.09
551.99	2588.69
552.35	2589.90
552.70	2592.41
553.06	2594.25
553.41	2595.50
553.77	2597.04
554.13	2598.51
554.48	2600.08
554.84	2601.37
555.19	2602.75
555.55	2604.50
555.90	2603.74
556.26	2602.92
556.61	2601.10
556.97	2599.15
557.32	2598.37
557.68	2597.20
558.03	2595.65
558.39	2594.28
558.74	2593.61
559.10	2590.07
559.45	2586.20
559.81	2581.64
560.16	2576.10
560.52	2570.86
560.87	2566.49
561.23	2560.92
561.58	2555.23
561.94	2548.22
562.29	2540.94
562.64	2533.51
563.00	2525.31
563.35	2518.83
563.71	2512.21
564.06	2506.19
564.42	2499.64
564.77	2492.60
565.12	2485.18
565.48	2477.68
565.83	2469.93
566.19	2461.88
566.54	2454.18
566.89	2446.41
567.25	2439.01
567.60	2431.75
567.96	2424.61
568.31	2416.35
568.66	2407.90
569.02	2398.76
569.37	2390.56
569.72	2383.10
570.08	2373.99
570.43	2364.71
570.78	2355.77
571.14	2346.27
571.49	2335.97
571.84	2326.63
572.20	2316.00
572.55	2305.67
572.90	2294.32
573.26	2283.89
573.61	2272.82
573.96	2261.47
574.31	2249.64
574.67	2237.83
575.02	2225.32
575.37	2212.35
575.72	2199.32
576.08	2187.09
576.43	2174.38
576.78	2161.45
577.13	2147.53
577.49	2134.75
577.84	2122.78
578.19	2110.52
578.54	2097.79
578.90	2086.11
579.25	2073.69
579.60	2061.52
579.95	2048.83
580.30	2035.98
580.66	2022.73
581.01	2008.97
581.36	1995.45
581.71	1982.75
582.06	1969.80
582.42	1957.25
582.77	1944.70
583.12	1932.82
583.47	1920.69
583.82	1908.97
584.17	1896.86
584.53	1885.47
584.88	1872.93
585.23	1859.44
585.58	1845.43
585.93	1832.20
586.28	1818.93
586.63	1805.01
586.98	1790.72
587.34	1777.53
587.69	1764.33
588.04	1751.73
588.39	1740.11
588.74	1727.55
589.09	1715.41
589.44	1702.78
589.79	1690.57
590.14	1678.53
590.49	1666.48
590.84	1654.22
591.19	1642.22
591.54	1630.09
591.89	1617.66
592.25	1607.30
592.60	1596.33
592.95	1584.70
593.30	1572.86
593.65	1560.68
594.00	1548.63
594.35	1538.79
594.70	1526.91
595.05	1515.58
595.40	1503.44
595.75	1491.58
596.10	1480.57
596.45	1469.11
596.80	1458.24
597.15	1447.03
597.50	1435.31
597.85	1424.01
598.19	1412.56
598.54	1400.82
598.89	1389.51
599.24	1379.02
599.59	1367.32
599.94	1356.30
600.29	1346.30
600.64	1336.03
600.99	1325.45
601.34	1315.99
601.69	1304.85
602.04	1295.18
602.39	1285.59
602.74	1276.49
603.08	1267.07
603.43	1257.88
603.78	1248.13
604.13	1238.67
604.48	1228.90
604.83	1219.22
605.18	1209.52
605.53	1200.05
605.87	1191.05
606.22	1182.70
606.57	1173.20
606.92	1164.17
607.27	1155.20
607.62	1146.20
607.96	1137.80
608.31	1129.86
608.66	1121.29
609.01	1112.77
609.36	1104.22
609.70	1095.59
610.05	1086.90
610.40	1078.19
610.75	1069.42
611.10	1061.11
611.44	1052.51
611.79	1044.36
612.14	1036.75
612.49	1028.87
612.83	1021.47
613.18	1013.53
613.53	1005.49
613.88	997.67
614.22	989.77
614.57	982.01
614.92	974.15
615.27	966.64
615.61	958.80
615.96	951.26
616.31	943.84
616.65	936.73
617.00	929.47
617.35	922.21
617.70	915.35
618.04	908.39
618.39	901.38
618.74	895.23
619.08	888.43
619.43	881.21
619.78	874.35
620.12	867.07
620.47	860.26
620.82	853.25
621.16	846.56
621.51	840.19
621.85	833.94
622.20	827.25
622.55	820.53
622.89	814.24
623.24	807.99
623.59	801.62
623.93	795.21
624.28	789.04
624.62	783.57
624.97	777.72
625.32	771.88
625.66	766.09
626.01	759.81
626.35	754.37
626.70	749.00
627.04	743.69
627.39	738.28
627.73	733.14
628.08	728.02
628.43	722.60
628.77	717.22
629.12	711.77
629.46	707.14
629.81	702.60
630.15	697.79
630.50	692.98
630.84	688.17
631.19	683.48
631.53	679.05
631.88	673.71
632.22	668.88
632.57	664.52
632.91	659.85
633.26	655.52
633.60	650.88
633.95	646.22
634.29	641.32
634.64	637.04
634.98	632.30
635.32	627.90
635.67	624.03
636.01	619.77
636.36	615.53
636.70	611.30
637.05	606.89
637.39	602.72
637.73	598.49
638.08	594.62
638.42	590.40
638.77	585.94
639.11	581.65
639.45	577.32
639.80	572.80
640.14	568.76
640.49	564.71
640.83	560.83
641.17	557.06
641.52	553.52
641.86	549.82
642.20	546.59
642.55	542.99
642.89	539.26
643.23	535.71
643.58	532.58
643.92	528.84
644.26	525.49
644.61	522.37
644.95	519.12
645.29	515.61
645.64	512.55
645.98	509.65
646.32	506.72
646.66	503.60
647.01	500.67
647.35	497.97
647.69	494.99
648.04	492.25
648.38	489.51
648.72	486.74
649.06	483.64
649.41	480.58
649.75	477.64
650.09	474.76
650.43	471.97
650.78	469.07
651.12	466.41
651.46	463.72
651.80	460.95
652.14	458.27
652.49	455.82
652.83	453.13
653.17	450.42
653.51	447.79
653.85	445.42
654.20	442.94
654.54	440.27
654.88	437.68
655.22	435.40
655.56	433.00
655.90	430.56
656.25	428.42
656.59	426.30
656.93	424.09
657.27	422.03
657.61	419.67
657.95	417.35
658.29	415.09
658.64	412.85
658.98	410.57
659.32	408.33
659.66	406.00
660.00	404.03
660.34	401.96
660.68	400.05
661.02	398.00
661.36	396.00
661.70	393.98
662.05	392.21
662.39	390.22
662.73	388.41
663.07	386.71
663.41	384.83
663.75	382.82
664.09	381.04
664.43	378.99
664.77	377.28
665.11	375.60
665.45	374.05
665.79	372.53
666.13	370.77
666.47	369.15
666.81	367.66
667.15	365.89
667.49	364.51
667.83	363.13
668.17	361.59
668.51	360.19
668.85	358.96
669.19	357.60
669.53	356.05
669.87	354.58
670.21	353.09
670.55	351.77
670.89	350.78
671.23	349.42
671.57	348.10
671.91	346.90
672.25	345.61
672.58	344.39
672.92	342.85
673.26	341.68
673.60	340.44
673.94	339.19
674.28	338.07
674.62	336.86
674.96	335.51
675.30	334.45
675.64	333.23
675.97	331.90
676.31	330.65
676.65	329.37
676.99	328.32
677.33	327.13
677.67	326.01
678.01	324.54
678.34	323.54
678.68	322.75
679.02	321.64
679.36	320.66
679.70	319.55
680.04	318.69
680.37	317.78
680.71	316.84
681.05	315.94
681.39	315.05
681.73	314.11
682.06	313.18
682.40	312.27
682.74	311.52
683.08	310.86
683.42	309.99
683.75	309.27
684.09	308.30
684.43	307.57
684.77	306.68
685.10	305.97
685.44	305.12
685.78	304.16
686.12	303.35
686.45	302.53
686.79	301.80
687.13	301.12
687.46	300.37
687.80	299.76
688.14	298.95
688.48	298.15
688.81	297.35
689.15	296.75
689.49	296.00
689.82	295.24
690.16	294.36
690.50	293.63
690.83	292.87
691.17	292.15
691.51	291.43
691.84	290.84
692.18	290.12
692.52	289.43
692.85	288.86
693.19	288.38
693.52	287.73
693.86	287.03
694.20	286.32
694.53	285.67
694.87	284.95
695.21	284.29
695.54	283.70
695.88	282.99
696.21	282.22
696.55	281.62
696.88	280.94
697.22	280.30
697.56	279.74
697.89	279.24
698.23	278.73
698.56	278.16
698.90	277.69
699.23	277.14
699.57	276.63
699.90	276.02
700.24	275.47
700.58	274.98
700.91	274.54
701.25	274.43
701.58	274.30
701.92	273.91
702.25	273.50
702.59	273.02
702.92	272.70
703.26	272.27
703.59	271.84
703.93	271.86
704.26	271.52
704.60	271.04
704.93	270.52
705.26	270.04
705.60	269.70
705.93	269.06
706.27	268.82
706.60	268.60
706.94	268.46
707.27	267.97
707.61	267.62
707.94	267.31
708.27	266.53
708.61	265.78
708.94	265.34
709.28	264.94
709.61	264.50
709.94	264.14
710.28	263.81
710.61	263.52
710.95	262.70
711.28	262.58
711.61	262.25
711.95	262.06
712.28	261.64
712.61	261.25
712.95	261.26
713.28	261.04
713.61	260.59
713.95	260.00
714.28	259.70
714.61	259.25
714.95	258.80
715.28	258.40
715.61	258.07
715.95	257.79
716.28	257.51
716.61	257.39
716.95	257.06
717.28	256.75
717.61	256.34
717.94	256.06
718.28	255.51
718.61	255.24
718.94	254.84
719.27	254.67
719.61	254.41
719.94	253.96
720.27	253.50
720.60	253.15
720.94	253.01
721.27	252.82
721.60	252.72
721.93	252.56
722.27	252.62
722.60	252.43
722.93	252.17
723.26	252.00
723.59	251.75
723.93	251.62
724.26	251.49
724.59	251.29
724.92	251.11
725.25	251.05
725.59	250.80
725.92	250.69
726.25	250.50
726.58	250.36
726.91	250.17
727.24	250.05
727.57	249.91
727.91	249.64
728.24	249.50
728.57	249.25
728.90	249.11
729.23	248.75
729.56	248.80
729.89	248.60
730.22	248.43
730.55	248.24
730.89	248.02
731.22	247.77
731.55	247.61
731.88	247.48
732.21	247.17
732.54	246.98
732.87	246.72
733.20	246.57
733.53	246.38
733.86	246.21
734.19	246.00
734.52	245.88
734.85	246.01
735.18	245.70
735.51	245.69
735.84	245.54
736.17	245.47
736.50	245.03
736.83	245.40
737.16	245.12
737.49	244.89
737.82	244.68
738.15	244.63
738.48	244.43
738.81	244.25
739.14	244.04
739.47	243.92
739.80	243.75
740.13	243.59
740.46	243.34
740.79	243.10
741.12	242.91
741.45	242.62
741.78	242.24
742.11	242.25
742.44	241.91
742.77	241.75
743.10	241.50
743.43	241.35
743.75	240.71
744.08	241.23
744.41	241.09
744.74	240.94
745.07	240.63
745.40	240.64
745.73	240.74
746.06	240.62
746.39	240.54
746.71	240.34
747.04	240.11
747.37	239.97
747.70	240.00
748.03	239.92
748.36	239.89
748.68	239.67
749.01	239.38
749.34	239.34
749.67	239.23
750.00	239.19
750.33	239.48
750.65	239.40
750.98	238.67
751.31	238.50
751.64	238.42
751.97	238.60
752.29	238.44
752.62	238.05
752.95	237.96
753.28	237.82
753.60	237.81
753.93	237.90
754.26	237.88
754.59	237.63
754.91	237.45
755.24	237.29
755.57	237.24
755.90	237.22
756.22	237.03
756.55	236.84
756.88	236.67
757.20	236.18
757.53	235.96
757.86	235.83
758.19	235.79
758.51	235.72
758.84	235.40
759.17	235.22
759.49	235.15
759.82	235.29
760.15	235.24
760.47	235.12
760.80	234.88
761.13	234.83
761.45	234.73
761.78	234.72
762.11	234.68
762.43	234.62
762.76	234.55
763.08	234.56
763.41	234.61
763.74	234.55
764.06	234.51
764.39	234.45
764.71	234.39
765.04	234.30
765.37	234.13
765.69	234.06
766.02	234.07
766.34	233.96
766.67	233.76
767.00	233.74
767.32	233.97
767.65	234.18
767.97	234.10
768.30	234.06
768.62	233.99
768.95	233.88
769.27	233.78
769.60	233.76
769.92	233.67
770.25	233.47
770.57	233.35
770.90	233.33
771.22	233.25
771.55	233.29
771.87	233.26
772.20	233.21
772.52	233.57
772.85	234.05
773.17	234.05
773.50	233.90
773.82	233.76
774.15	233.47
774.47	233.13
774.80	233.02
775.12	233.01
775.45	232.90
775.77	232.86
776.09	232.82
776.42	232.77
776.74	232.84
777.07	232.85
777.39	232.80
777.72	232.77
778.04	232.78
778.36	232.68
778.69	232.67
779.01	232.70
779.33	232.23
779.66	231.62
779.98	231.65
780.31	231.59
780.63	231.77
780.95	231.76
781.28	231.77
781.60	231.64
781.92	231.61
782.25	231.60
782.57	231.57
782.89	231.53
783.22	231.47
783.54	231.27
783.86	231.27
784.19	231.29
784.51	231.37
784.83	231.26
785.16	231.24
785.48	231.19
785.80	231.14
786.12	231.18
786.45	231.15
786.77	231.03
787.09	231.00
787.42	230.84
787.74	230.85
788.06	230.77
788.38	230.73
788.71	230.65
789.03	230.66
789.35	230.64
789.67	230.60
789.99	230.63
790.32	230.60
790.64	230.58
790.96	230.83
791.28	230.58
791.61	230.54
791.93	230.54
792.25	230.45
792.57	230.76
792.89	230.62
793.21	230.64
793.54	230.61
793.86	230.53
794.18	230.48
794.50	230.41
794.82	230.42
795.14	230.50
795.47	230.58
795.79	230.53
796.11	230.47
796.43	230.39
796.75	230.30
797.07	230.34
797.39	230.29
797.71	229.98
798.04	229.94
798.36	229.98
798.68	229.90
799.00	229.94
799.32	229.71
799.64	229.78
799.96	229.75
800.28	229.82
800.60	229.81
800.92	229.80
801.24	229.71
801.56	229.71
801.89	229.64
802.21	229.60
802.53	229.47
802.85	229.50
803.17	229.69
803.49	229.57
803.81	229.44
804.13	229.40
804.45	229.34
804.77	229.43
805.09	229.41
805.41	229.36
805.73	229.20
806.05	229.09
806.37	229.10
806.69	228.99
807.01	228.96
807.33	229.00
807.65	228.86
807.97	229.05
808.28	228.97
808.60	229.00
808.92	228.85
809.24	229.20
809.56	229.18
809.88	228.98
810.20	228.99
810.52	229.13
810.84	229.07
811.16	229.02
811.48	229.01
811.80	229.12
812.12	229.14
812.43	229.27
812.75	229.24
813.07	229.12
813.39	229.18
813.71	229.16
814.03	229.08
814.35	229.08
814.67	228.89
814.98	228.89
815.30	228.81
815.62	228.80
815.94	228.37
816.26	228.55
816.58	228.51
816.89	228.53
817.21	228.40
817.53	228.37
817.85	228.34
818.17	228.34
818.48	228.09
818.80	228.17
819.12	228.03
819.44	227.86
819.76	227.80
820.07	227.80
820.39	227.76
820.71	227.78
821.03	227.78
821.34	227.78
821.66	227.83
821.98	227.82
822.30	227.77
822.61	228.09
822.93	227.83
823.25	227.80
823.57	227.76
823.88	227.82
824.20	227.83
824.52	227.98
824.83	227.91
825.15	227.88
825.47	227.80
825.79	227.85
826.10	227.93
826.42	227.99
826.74	228.00
827.05	227.93
827.37	227.97
827.69	227.98
828.00	227.93
828.32	227.86
828.64	227.86
828.95	228.11
829.27	227.98
829.58	228.06
829.90	228.15
830.22	228.21
830.53	228.09
830.85	228.12
831.17	227.96
831.48	227.94
831.80	227.96
832.11	227.87
832.43	227.85
832.75	227.85
833.06	228.12
833.38	227.92
833.69	227.91
834.01	227.90
834.32	227.88
834.64	227.87
834.96	227.86
835.27	227.89
835.59	227.71
835.90	227.70
836.22	227.59
836.53	227.52
836.85	227.46
837.16	227.91
837.48	227.83
837.79	227.99
838.11	227.97
838.42	227.97
838.74	228.12
839.05	228.07
839.37	228.10
839.68	227.73
840.00	227.83
840.31	227.93
840.63	227.89
840.94	227.83
841.26	227.77
841.57	227.87
841.88	227.95
842.20	227.90
842.51	227.79
842.83	227.82
843.14	228.25
843.46	228.30
843.77	228.11
844.08	228.10
844.40	227.96
844.71	227.98
845.03	227.98
845.34	227.92
845.65	227.87
845.97	227.87
846.28	227.96
846.60	227.91
846.91	227.80
847.22	227.77
847.54	227.83
847.85	227.94
848.16	227.82
848.48	227.70
848.79	227.87
849.10	227.89
849.42	227.88
849.73	227.34
850.04	227.27
850.36	227.10
850.67	227.22
850.98	227.20
851.30	227.26
851.61	227.19
851.92	227.21
852.23	227.37
852.55	227.34
852.86	227.31
853.17	227.33
853.49	227.39
853.80	227.46
854.11	227.49
854.42	227.48
854.74	227.39
855.05	227.32
855.36	227.08
855.67	227.07
855.99	227.10
856.30	227.62
856.61	227.56
856.92	227.53
857.23	227.48
857.55	227.41
857.86	227.34
858.17	227.41
858.48	227.25
858.79	227.14
859.11	227.16
859.42	227.08
859.73	227.05
860.04	227.03
860.35	226.89
860.66	226.77
860.98	226.70
861.29	226.81
861.60	226.87
861.91	226.98
862.22	226.94
862.53	226.83
862.84	226.35
863.16	226.54
863.47	226.43
863.78	226.41
864.09	226.37
864.40	226.34
864.71	226.35
865.02	226.42
865.33	226.36
865.64	226.28
865.95	226.36
866.27	226.60
866.58	226.56
866.89	226.63
867.20	226.66
867.51	226.64
867.82	226.65
868.13	226.76
868.44	226.71
868.75	226.83
869.06	226.91
869.37	226.91
869.68	226.73
869.99	226.90
870.30	226.93
870.61	227.06
870.92	226.98
871.23	226.96
871.54	227.05
871.85	227.19
872.16	227.32
872.47	227.28
872.78	226.99
873.09	227.10
873.40	227.04
873.71	227.03
874.02	226.99
874.33	226.96
874.64	226.87
874.95	226.96
875.26	226.84
875.56	226.77
875.87	226.81
876.18	226.83
876.49	227.30
876.80	227.30
877.11	227.19
877.42	227.25
877.73	227.27
878.04	227.27
878.35	227.29
878.66	227.30
878.96	227.25
879.27	227.29
879.58	227.24
879.89	227.21
880.20	227.31
880.51	227.32
880.82	227.29
881.12	227.31
881.43	227.15
881.74	227.10
882.05	227.13
882.36	227.19
882.67	227.18
882.97	226.50
883.28	226.43
883.59	226.45
883.90	226.53
884.21	226.60
884.51	226.53
884.82	226.43
885.13	226.40
885.44	226.41
885.74	226.44
886.05	226.40
886.36	226.43
886.67	226.32
886.98	226.58
887.28	226.59
887.59	226.54
887.90	226.58
888.20	226.53
888.51	226.60
888.82	226.49
889.13	226.54
889.43	226.99
889.74	227.01
890.05	226.93
890.35	226.85
890.66	226.73
890.97	226.62
891.28	226.52
891.58	226.54
891.89	226.55
892.20	226.48
892.50	226.40
892.81	226.34
893.12	226.36
893.42	226.08
893.73	226.09
894.04	226.17
894.34	226.19
894.65	226.18
894.95	226.08
895.26	226.04
895.57	226.24
895.87	225.83
896.18	225.88
896.48	226.00
896.79	226.04
897.10	226.15
897.40	226.26
897.71	226.41
898.01	226.32
898.32	226.39
898.63	226.42
898.93	226.47
899.24	226.51
899.54	226.54
899.85	226.57
900.15	226.53
900.46	226.47
900.76	226.55
901.07	226.54
901.38	226.63
901.68	226.77
901.99	226.52
902.29	226.61
902.60	226.59
902.90	226.54
903.21	226.56
903.51	226.50
903.82	226.57
904.12	226.59
904.43	226.70
904.73	226.71
905.03	226.74
905.34	227.22
905.64	227.24
905.95	227.15
906.25	227.12
906.56	227.14
906.86	227.17
907.17	227.09
907.47	227.18
907.77	227.12
908.08	227.01
908.38	227.07
908.69	227.07
908.99	227.11
909.30	227.15
909.60	227.14
909.90	227.17
910.21	227.09
910.51	226.95
910.81	226.93
911.12	226.94
911.42	227.01
911.73	226.45
912.03	226.51
912.33	226.65
912.64	226.70
912.94	226.67
913.24	226.62
913.55	226.58
913.85	226.57
914.15	226.66
914.46	226.76
914.76	226.70
915.06	226.76
915.37	226.66
915.67	226.60
915.97	226.55
916.27	226.42
916.58	226.38
916.88	226.36
917.18	226.31
917.49	226.64
917.79	226.57
918.09	226.68
918.39	226.80
918.70	226.80
919.00	226.84
919.30	227.09
919.60	227.04
919.91	227.07
920.21	227.10
920.51	226.97
920.81	226.86
921.12	226.94
921.42	226.83
921.72	226.94
922.02	226.99
922.32	227.04
922.63	227.09
922.93	227.31
923.23	227.35
923.53	227.30
923.83	226.98
924.13	227.01
924.44	227.01
924.74	227.04
925.04	227.04
925.34	226.94
925.64	226.68
925.94	226.62
926.24	226.83
926.55	226.80
926.85	226.86
927.15	226.86
927.45	226.88
927.75	226.86
928.05	226.81
928.35	226.81
928.65	226.95
928.95	226.98
929.26	226.79
929.56	226.93
929.86	227.02
930.16	226.89
930.46	226.85
930.76	226.88
931.06	226.66
931.36	226.58
931.66	226.68
931.96	226.76
932.26	226.85
932.56	226.66
932.86	226.63
933.16	226.60
933.46	226.56
933.76	226.43
934.06	226.60
934.36	226.75
934.66	226.66
934.96	226.56
935.26	226.63
935.56	226.71
935.86	226.52
936.16	226.40
936.46	226.44
936.76	226.48
937.06	226.40
937.36	226.45
937.66	226.43
937.96	226.40
938.26	226.32
938.56	226.40
938.86	226.43
939.16	226.51
939.46	226.63
939.76	226.71
940.06	226.72
940.35	226.54
940.65	226.31
940.95	226.42
941.25	226.31
941.55	226.23
941.85	226.23
942.15	226.40
942.45	226.55
942.75	226.53
943.04	226.51
943.34	226.55
943.64	226.54
943.94	226.50
944.24	226.51
944.54	226.56
944.84	226.43
945.13	226.28
945.43	226.26
945.73	226.14
946.03	226.11
946.33	226.14
946.62	226.22
946.92	226.24
947.22	226.17
947.52	226.20
947.82	226.20
948.11	226.10
948.41	225.99
948.71	225.85
949.01	225.83
949.31	225.71
949.60	225.69
949.90	225.75
950.20	225.70
950.50	225.65
950.79	225.61
951.09	225.72
951.39	225.77
951.69	225.71
951.98	225.85
952.28	225.83
952.58	225.73
952.87	225.67
953.17	225.70
953.47	225.74
953.76	225.70
954.06	225.65
954.36	225.59
954.66	225.59
954.95	225.72
955.25	225.64
955.55	225.70
955.84	225.60
956.14	225.58
956.44	225.59
956.73	225.57
957.03	225.56
957.32	225.52
957.62	225.52
957.92	225.59
958.21	225.55
958.51	226.14
958.81	226.23
959.10	226.25
959.40	226.34
959.69	226.39
959.99	226.58
960.29	226.59
960.58	226.57
960.88	226.81
961.17	226.75
961.47	226.86
961.76	226.80
962.06	226.95
962.36	226.90
962.65	226.99
962.95	227.06
963.24	227.10
963.54	227.12
963.83	227.19
964.13	227.12
964.42	227.04
964.72	226.61
965.01	226.58
965.31	226.56
965.60	226.45
965.90	226.73
966.19	226.53
966.49	226.58
966.78	226.55
967.08	226.39
967.37	226.46
967.67	226.42
967.96	226.61
968.26	226.53
968.55	226.60
968.85	226.57
969.14	226.55
969.43	226.55
969.73	226.52
970.02	226.52
970.32	226.57
970.61	226.56
970.91	226.42
971.20	226.47
971.49	226.45
971.79	226.53
972.08	226.22
972.38	226.32
972.67	226.25
972.96	226.39
973.26	226.34
973.55	226.44
973.85	226.41
974.14	226.33
974.43	226.48
974.73	226.38
975.02	226.35
975.31	226.37
975.61	226.33
975.90	226.29
976.19	226.25
976.49	226.24
976.78	226.28
977.07	226.29
977.37	226.29
977.66	226.36
977.95	226.32
978.24	226.37
978.54	226.45
978.83	226.44
979.12	226.40
979.42	226.43
979.71	226.34
980.00	226.34
980.29	226.36
980.59	226.25
980.88	226.41
981.17	226.42
981.46	226.34
981.76	226.41
982.05	226.56
982.34	226.59
982.63	226.60
982.93	226.58
983.22	226.74
983.51	226.72
983.80	226.77
984.09	226.78
984.39	226.71
984.68	226.63
984.97	226.66
985.26	226.61
985.55	226.69
985.85	226.60
986.14	226.72
986.43	226.77
986.72	226.73
987.01	226.61
987.30	226.60
987.59	226.57
987.89	226.52
988.18	226.36
988.47	226.25
988.76	226.26
989.05	226.22
989.34	226.15
989.63	226.28
989.92	226.21
990.22	226.11
990.51	226.13
990.80	226.08
991.09	226.12
991.38	226.18
991.67	226.09
991.96	226.05
992.25	226.08
992.54	226.02
992.83	226.02
993.12	225.97
993.41	226.05
993.70	226.35
993.99	226.41
994.28	226.51
994.58	226.61
994.87	226.47
995.16	226.43
995.45	226.38
995.74	226.18
996.03	226.24
996.32	226.42
996.61	226.41
996.90	226.45
997.19	226.39
997.48	226.40
997.77	226.33
998.06	226.36
998.34	226.28
998.63	226.20
998.92	226.24
999.21	226.27
999.50	226.23
999.79	226.01
1000.08	225.99
1000.37	225.95
1000.66	225.95
1000.95	226.12
1001.24	226.20
1001.53	226.17
1001.82	226.20
1002.11	226.12
1002.40	226.05
1002.68	226.17
1002.97	226.48
1003.26	226.43
1003.55	226.33
1003.84	226.32
1004.13	226.40
1004.42	226.36
1004.71	226.44
1004.99	226.42
1005.28	226.57
1005.57	226.51
1005.86	226.42
1006.15	226.35
1006.44	226.25
1006.72	226.21
1007.01	226.14
1007.30	226.09
1007.59	226.10
1007.88	226.06
1008.17	225.98
1008.45	225.92
1008.74	225.73
1009.03	225.54
1009.32	225.55
1009.60	225.58
1009.89	225.57
1010.18	225.39
1010.47	225.36
1010.76	225.27
1011.04	225.23
1011.33	225.24
1011.62	225.33
1011.91	225.39
1012.19	225.45
1012.48	225.54
1012.77	225.55
1013.05	225.79
1013.34	225.78
1013.63	225.70
1013.92	225.73
1014.20	225.82
1014.49	225.87
1014.78	225.95
1015.06	225.78
1015.35	225.78
1015.64	225.88
1015.92	226.01
1016.21	226.09
1016.50	226.09
1016.78	226.16
1017.07	226.24
1017.36	226.07
1017.64	225.98
1017.93	226.06
1018.22	226.08
1018.50	225.99
1018.79	225.94
1019.08	225.71
1019.36	225.70
1019.65	225.78
1019.93	225.94
1020.22	226.01
1020.51	226.25
1020.79	226.24
1021.08	226.20
1021.36	224.20
1021.65	224.75
1021.94	225.90
1022.22	225.10
1022.51	226.30
1022.79	228.55
1023.08	227.25
1023.36	232.25
1023.65	225.65
>>>>>End Processed Spectral Data<<<<<
