SpectraSuite Data File
++++++++++++++++++++++++++++++++++++
Date: Wed Sep 04 18:05:24 EDT 2013
User: lab3
Dark Spectrum Present: Yes
Reference Spectrum Present: No
Number of Sampled Component Spectra: 1
Spectrometers: USB2E7196
Integration Time (usec): 170000 (USB2E7196)
Spectra Averaged: 20 (USB2E7196)
Boxcar Smoothing: 10 (USB2E7196)
Correct for Electrical Dark: No (USB2E7196)
Strobe/Lamp Enabled: No (USB2E7196)
Correct for Detector Non-linearity: No (USB2E7196)
Correct for Stray Light: No (USB2E7196)
Number of Pixels in Processed Spectrum: 2048
>>>>>Begin Processed Spectral Data<<<<<
339.09	0.00
339.48	213.15
339.86	215.15
340.24	216.25
340.63	218.05
341.01	226.10
341.39	221.10
341.78	222.55
342.16	225.25
342.54	222.45
342.93	212.80
343.31	223.52
343.69	224.08
344.07	224.55
344.46	225.09
344.84	225.51
345.22	225.47
345.60	225.73
345.99	225.93
346.37	226.05
346.75	226.19
347.13	226.22
347.52	226.33
347.90	226.57
348.28	226.59
348.66	226.70
349.05	226.48
349.43	226.59
349.81	226.65
350.19	226.70
350.57	226.82
350.96	226.87
351.34	226.98
351.72	227.09
352.10	227.20
352.48	227.21
352.87	227.24
353.25	227.28
353.63	227.34
354.01	227.37
354.39	227.35
354.77	227.44
355.15	227.61
355.54	227.56
355.92	227.52
356.30	227.61
356.68	227.99
357.06	228.13
357.44	228.10
357.82	228.22
358.20	228.69
358.58	228.75
358.97	228.91
359.35	229.04
359.73	229.22
360.11	229.27
360.49	229.33
360.87	229.32
361.25	229.47
361.63	229.64
362.01	229.75
362.39	229.79
362.77	229.89
363.15	229.90
363.53	229.96
363.91	229.94
364.29	229.95
364.67	229.56
365.05	229.62
365.43	229.71
365.81	229.80
366.19	229.63
366.57	229.78
366.95	229.75
367.33	229.66
367.71	229.57
368.09	229.69
368.47	229.71
368.85	229.68
369.23	229.81
369.61	229.65
369.99	229.81
370.37	229.91
370.75	230.16
371.13	230.10
371.51	230.04
371.89	230.10
372.27	230.13
372.65	230.03
373.03	230.05
373.41	229.93
373.78	229.86
374.16	229.58
374.54	229.39
374.92	229.35
375.30	229.32
375.68	229.16
376.06	229.09
376.44	228.96
376.82	229.01
377.19	228.89
377.57	228.84
377.95	228.53
378.33	228.38
378.71	228.01
379.09	227.98
379.47	227.93
379.84	227.83
380.22	227.71
380.60	227.70
380.98	227.48
381.36	227.44
381.73	227.26
382.11	227.31
382.49	227.30
382.87	227.19
383.25	227.17
383.62	227.80
384.00	227.63
384.38	227.57
384.76	227.61
385.13	227.74
385.51	227.71
385.89	227.64
386.27	227.67
386.64	227.70
387.02	227.56
387.40	227.49
387.78	227.44
388.15	227.48
388.53	227.40
388.91	227.36
389.29	227.37
389.66	227.41
390.04	227.33
390.42	227.36
390.79	227.37
391.17	227.33
391.55	226.75
391.92	226.75
392.30	226.84
392.68	226.74
393.05	226.63
393.43	226.65
393.81	226.75
394.18	226.71
394.56	226.74
394.94	226.93
395.31	226.91
395.69	227.10
396.06	227.13
396.44	227.13
396.82	227.17
397.19	227.46
397.57	227.56
397.95	227.74
398.32	227.65
398.70	227.76
399.07	227.91
399.45	227.90
399.82	228.04
400.20	228.06
400.58	228.17
400.95	228.22
401.33	228.45
401.70	228.80
402.08	229.00
402.45	229.17
402.83	229.36
403.20	229.54
403.58	229.60
403.95	229.88
404.33	230.20
404.71	230.52
405.08	231.01
405.46	231.23
405.83	231.40
406.21	231.67
406.58	231.94
406.96	232.22
407.33	232.70
407.70	233.04
408.08	233.79
408.45	234.20
408.83	234.70
409.20	234.95
409.58	235.16
409.95	235.60
410.33	236.08
410.70	236.48
411.08	237.18
411.45	237.86
411.82	238.36
412.20	239.12
412.57	240.01
412.95	240.27
413.32	241.12
413.69	242.00
414.07	242.96
414.44	243.90
414.82	244.97
415.19	246.07
415.56	247.21
415.94	248.19
416.31	249.62
416.68	250.96
417.06	252.66
417.43	254.41
417.81	256.13
418.18	257.98
418.55	259.90
418.93	261.87
419.30	263.98
419.67	266.30
420.04	268.54
420.42	270.89
420.79	273.97
421.16	276.78
421.54	279.80
421.91	282.83
422.28	286.02
422.66	289.32
423.03	292.86
423.40	296.32
423.77	299.96
424.15	303.52
424.52	307.31
424.89	311.54
425.26	315.47
425.64	319.38
426.01	323.52
426.38	328.03
426.75	332.67
427.13	337.22
427.50	342.09
427.87	347.05
428.24	352.05
428.61	356.59
428.99	361.98
429.36	367.45
429.73	372.96
430.10	378.55
430.47	384.20
430.85	389.85
431.22	396.12
431.59	402.86
431.96	409.24
432.33	416.28
432.70	422.88
433.08	430.78
433.45	438.14
433.82	445.67
434.19	453.88
434.56	462.00
434.93	469.79
435.30	477.49
435.68	486.19
436.05	494.68
436.42	503.17
436.79	510.89
437.16	519.37
437.53	528.10
437.90	536.82
438.27	545.58
438.64	554.53
439.01	562.75
439.38	569.92
439.75	577.11
440.13	585.22
440.50	592.80
440.87	598.87
441.24	605.31
441.61	612.19
441.98	617.10
442.35	622.89
442.72	628.90
443.09	634.79
443.46	638.19
443.83	640.49
444.20	642.32
444.57	645.04
444.94	646.11
445.31	647.28
445.68	648.51
446.05	648.53
446.42	647.20
446.79	645.85
447.16	644.30
447.53	642.96
447.90	639.13
448.27	635.52
448.64	630.60
449.01	627.00
449.37	620.89
449.74	614.99
450.11	608.08
450.48	600.22
450.85	592.12
451.22	585.22
451.59	578.47
451.96	572.21
452.33	564.03
452.70	556.52
453.07	547.85
453.43	538.64
453.80	530.18
454.17	522.10
454.54	514.41
454.91	506.20
455.28	498.20
455.65	490.72
456.02	483.80
456.38	477.46
456.75	469.59
457.12	463.01
457.49	456.68
457.86	450.23
458.23	445.10
458.59	439.25
458.96	433.49
459.33	428.43
459.70	423.32
460.07	419.19
460.43	414.51
460.80	410.16
461.17	406.53
461.54	402.61
461.91	398.81
462.27	394.81
462.64	391.50
463.01	387.86
463.38	384.58
463.74	380.47
464.11	377.43
464.48	374.77
464.85	371.91
465.21	369.72
465.58	367.45
465.95	364.53
466.32	362.40
466.68	360.09
467.05	357.84
467.42	355.53
467.78	353.20
468.15	351.12
468.52	349.59
468.88	347.31
469.25	345.29
469.62	343.80
469.98	342.20
470.35	340.67
470.72	339.25
471.08	337.48
471.45	336.27
471.82	335.11
472.18	333.65
472.55	332.64
472.92	331.32
473.28	330.23
473.65	329.25
474.02	328.21
474.38	327.35
474.75	326.60
475.11	325.80
475.48	325.16
475.85	324.55
476.21	323.85
476.58	323.43
476.94	323.15
477.31	322.66
477.67	322.21
478.04	321.91
478.41	321.69
478.77	322.02
479.14	321.67
479.50	321.45
479.87	321.57
480.23	321.58
480.60	321.59
480.96	321.60
481.33	321.97
481.69	322.12
482.06	322.41
482.42	322.60
482.79	322.96
483.15	323.35
483.52	323.99
483.88	324.50
484.25	325.03
484.61	325.60
484.98	326.22
485.34	327.15
485.71	328.05
486.07	329.03
486.44	329.68
486.80	330.77
487.17	331.90
487.53	333.15
487.90	334.51
488.26	336.09
488.62	337.72
488.99	339.17
489.35	340.94
489.72	342.67
490.08	344.65
490.44	346.58
490.81	348.79
491.17	350.87
491.54	353.33
491.90	355.87
492.26	358.68
492.63	361.45
492.99	364.30
493.36	367.36
493.72	370.59
494.08	373.92
494.45	377.66
494.81	381.39
495.17	385.28
495.54	389.49
495.90	393.72
496.26	398.21
496.63	403.05
496.99	407.80
497.35	412.88
497.72	418.14
498.08	423.63
498.44	429.42
498.80	435.49
499.17	441.47
499.53	447.81
499.89	454.42
500.26	461.24
500.62	468.27
500.98	475.77
501.34	483.30
501.71	491.15
502.07	498.99
502.43	507.25
502.79	515.65
503.16	524.25
503.52	533.35
503.88	542.44
504.24	551.88
504.60	561.91
504.97	572.23
505.33	582.68
505.69	593.90
506.05	604.85
506.41	616.12
506.78	627.97
507.14	639.92
507.50	652.28
507.86	664.94
508.22	678.01
508.59	691.06
508.95	704.73
509.31	718.82
509.67	733.22
510.03	747.81
510.39	762.51
510.75	777.80
511.12	792.81
511.48	808.51
511.84	824.50
512.20	840.44
512.56	856.63
512.92	873.30
513.28	890.04
513.64	907.45
514.00	925.05
514.37	942.75
514.73	961.06
515.09	979.39
515.45	997.87
515.81	1016.50
516.17	1035.29
516.53	1054.06
516.89	1072.97
517.25	1092.42
517.61	1112.44
517.97	1132.76
518.33	1152.72
518.69	1173.16
519.05	1193.84
519.41	1214.68
519.77	1236.15
520.13	1257.04
520.49	1278.15
520.85	1300.57
521.21	1321.88
521.57	1343.31
521.93	1364.10
522.29	1385.49
522.65	1406.33
523.01	1427.47
523.37	1448.06
523.73	1469.11
524.09	1489.83
524.45	1510.55
524.81	1531.49
525.17	1552.26
525.53	1572.97
525.89	1594.08
526.25	1615.13
526.61	1635.66
526.97	1656.78
527.33	1678.01
527.68	1700.20
528.04	1721.37
528.40	1741.13
528.76	1762.25
529.12	1782.60
529.48	1803.73
529.84	1823.74
530.20	1845.02
530.56	1865.84
530.91	1886.97
531.27	1908.00
531.63	1928.65
531.99	1949.56
532.35	1969.75
532.71	1990.10
533.07	2010.97
533.42	2031.00
533.78	2051.05
534.14	2071.03
534.50	2090.19
534.86	2109.42
535.21	2127.18
535.57	2146.06
535.93	2163.92
536.29	2181.56
536.65	2199.87
537.00	2217.47
537.36	2235.18
537.72	2251.83
538.08	2269.21
538.44	2286.08
538.79	2302.29
539.15	2319.05
539.51	2334.93
539.87	2350.58
540.22	2364.85
540.58	2379.13
540.94	2392.54
541.29	2405.42
541.65	2418.37
542.01	2431.08
542.37	2441.75
542.72	2452.89
543.08	2463.61
543.44	2475.60
543.79	2485.87
544.15	2495.86
544.51	2506.47
544.87	2516.12
545.22	2524.62
545.58	2532.27
545.94	2539.75
546.29	2546.40
546.65	2552.75
547.01	2558.55
547.36	2564.27
547.72	2569.83
548.07	2574.12
548.43	2579.53
548.79	2584.27
549.14	2588.11
549.50	2591.88
549.86	2595.91
550.21	2599.60
550.57	2602.68
550.92	2604.10
551.28	2605.67
551.64	2608.17
551.99	2609.85
552.35	2611.77
552.70	2614.10
553.06	2615.96
553.41	2617.01
553.77	2619.14
554.13	2621.13
554.48	2622.70
554.84	2624.14
555.19	2625.40
555.55	2627.17
555.90	2626.54
556.26	2625.89
556.61	2624.74
556.97	2622.80
557.32	2622.23
557.68	2621.30
558.03	2620.16
558.39	2619.16
558.74	2618.68
559.10	2615.51
559.45	2612.22
559.81	2607.99
560.16	2603.40
560.52	2598.82
560.87	2594.78
561.23	2588.87
561.58	2582.62
561.94	2576.02
562.29	2568.64
562.64	2561.78
563.00	2553.32
563.35	2547.12
563.71	2540.56
564.06	2534.48
564.42	2527.97
564.77	2521.34
565.12	2513.75
565.48	2506.04
565.83	2497.77
566.19	2489.31
566.54	2481.66
566.89	2473.37
567.25	2465.75
567.60	2457.85
567.96	2450.41
568.31	2442.14
568.66	2433.63
569.02	2424.69
569.37	2416.35
569.72	2408.46
570.08	2398.85
570.43	2389.13
570.78	2379.85
571.14	2370.50
571.49	2360.27
571.84	2350.78
572.20	2339.31
572.55	2329.28
572.90	2318.32
573.26	2308.39
573.61	2297.32
573.96	2286.29
574.31	2274.30
574.67	2262.11
575.02	2249.64
575.37	2236.85
575.72	2223.48
576.08	2211.55
576.43	2199.03
576.78	2185.82
577.13	2172.14
577.49	2159.45
577.84	2147.91
578.19	2135.51
578.54	2122.67
578.90	2110.58
579.25	2098.12
579.60	2086.12
579.95	2072.99
580.30	2059.60
580.66	2045.83
581.01	2032.46
581.36	2018.39
581.71	2005.68
582.06	1992.77
582.42	1980.10
582.77	1967.08
583.12	1954.94
583.47	1942.35
583.82	1930.04
584.17	1918.00
584.53	1906.10
584.88	1893.41
585.23	1880.15
585.58	1865.88
585.93	1852.47
586.28	1838.80
586.63	1824.55
586.98	1809.99
587.34	1796.75
587.69	1783.86
588.04	1771.29
588.39	1759.13
588.74	1746.59
589.09	1734.27
589.44	1721.40
589.79	1709.35
590.14	1697.43
590.49	1685.54
590.84	1673.42
591.19	1661.45
591.54	1649.05
591.89	1636.63
592.25	1626.18
592.60	1614.68
592.95	1603.54
593.30	1591.52
593.65	1579.55
594.00	1567.51
594.35	1557.68
594.70	1545.66
595.05	1534.14
595.40	1521.94
595.75	1509.76
596.10	1498.56
596.45	1486.84
596.80	1476.05
597.15	1464.49
597.50	1452.34
597.85	1440.74
598.19	1428.99
598.54	1417.44
598.89	1406.00
599.24	1395.38
599.59	1383.58
599.94	1372.45
600.29	1361.62
600.64	1351.26
600.99	1340.41
601.34	1330.96
601.69	1319.63
602.04	1309.76
602.39	1300.01
602.74	1290.47
603.08	1280.87
603.43	1271.40
603.78	1261.94
604.13	1252.17
604.48	1242.41
604.83	1232.94
605.18	1223.18
605.53	1213.59
605.87	1204.15
606.22	1195.76
606.57	1186.34
606.92	1176.81
607.27	1167.90
607.62	1158.89
607.96	1150.20
608.31	1142.40
608.66	1133.84
609.01	1125.21
609.36	1116.52
609.70	1107.92
610.05	1099.17
610.40	1090.55
610.75	1081.80
611.10	1073.12
611.44	1064.48
611.79	1056.05
612.14	1048.05
612.49	1040.19
612.83	1032.62
613.18	1024.74
613.53	1016.55
613.88	1008.43
614.22	1000.76
614.57	992.95
614.92	985.11
615.27	977.57
615.61	969.48
615.96	961.56
616.31	954.10
616.65	946.90
617.00	939.31
617.35	932.22
617.70	925.05
618.04	917.82
618.39	911.01
618.74	904.32
619.08	897.31
619.43	890.21
619.78	882.94
620.12	875.88
620.47	869.14
620.82	862.10
621.16	855.49
621.51	849.17
621.85	842.77
622.20	836.13
622.55	829.29
622.89	822.84
623.24	816.48
623.59	810.05
623.93	803.59
624.28	797.48
624.62	791.55
624.97	785.73
625.32	779.93
625.66	773.78
626.01	767.78
626.35	762.25
626.70	756.66
627.04	751.40
627.39	745.46
627.73	739.98
628.08	734.67
628.43	729.03
628.77	723.33
629.12	717.87
629.46	713.02
629.81	708.35
630.15	703.55
630.50	698.65
630.84	693.67
631.19	688.86
631.53	684.24
631.88	679.05
632.22	674.06
632.57	669.53
632.91	664.86
633.26	660.19
633.60	655.64
633.95	650.83
634.29	645.96
634.64	641.59
634.98	636.70
635.32	632.45
635.67	628.35
636.01	624.22
636.36	619.89
636.70	615.75
637.05	611.56
637.39	607.40
637.73	603.26
638.08	599.16
638.42	594.85
638.77	590.52
639.11	586.16
639.45	581.96
639.80	577.45
640.14	573.35
640.49	569.36
640.83	565.49
641.17	561.72
641.52	557.93
641.86	554.44
642.20	551.27
642.55	547.40
642.89	543.82
643.23	540.35
643.58	537.15
643.92	533.43
644.26	529.81
644.61	526.52
644.95	523.10
645.29	519.76
645.64	516.68
645.98	513.40
646.32	510.45
646.66	507.25
647.01	504.40
647.35	501.65
647.69	498.75
648.04	495.79
648.38	493.00
648.72	490.22
649.06	487.10
649.41	483.95
649.75	481.07
650.09	478.19
650.43	475.06
650.78	472.21
651.12	469.47
651.46	466.67
651.80	463.84
652.14	461.14
652.49	458.60
652.83	455.92
653.17	453.29
653.51	450.56
653.85	448.18
654.20	445.60
654.54	442.95
654.88	440.38
655.22	438.07
655.56	435.59
655.90	433.08
656.25	430.75
656.59	428.45
656.93	426.20
657.27	424.19
657.61	421.83
657.95	419.39
658.29	417.11
658.64	415.09
658.98	412.75
659.32	410.44
659.66	408.16
660.00	406.06
660.34	403.97
660.68	401.93
661.02	399.71
661.36	397.75
661.70	395.71
662.05	393.80
662.39	391.74
662.73	389.98
663.07	388.37
663.41	386.51
663.75	384.76
664.09	383.01
664.43	380.96
664.77	379.26
665.11	377.56
665.45	375.88
665.79	374.22
666.13	372.68
666.47	371.03
666.81	369.51
667.15	367.77
667.49	366.33
667.83	364.95
668.17	363.57
668.51	362.05
668.85	360.72
669.19	359.49
669.53	358.07
669.87	356.56
670.21	355.00
670.55	353.61
670.89	352.42
671.23	350.90
671.57	349.50
671.91	348.32
672.25	346.99
672.58	345.78
672.92	344.27
673.26	342.91
673.60	341.72
673.94	340.42
674.28	339.33
674.62	338.16
674.96	336.90
675.30	335.75
675.64	334.62
675.97	333.35
676.31	331.95
676.65	330.72
676.99	329.76
677.33	328.50
677.67	327.57
678.01	326.27
678.34	325.21
678.68	324.33
679.02	323.19
679.36	322.13
679.70	321.08
680.04	320.15
680.37	319.18
680.71	318.11
681.05	317.26
681.39	316.35
681.73	315.40
682.06	314.44
682.40	313.51
682.74	312.69
683.08	311.91
683.42	311.06
683.75	310.27
684.09	309.21
684.43	308.50
684.77	307.54
685.10	306.65
685.44	305.88
685.78	304.97
686.12	304.21
686.45	303.52
686.79	302.60
687.13	301.94
687.46	301.31
687.80	300.82
688.14	299.95
688.48	299.22
688.81	298.41
689.15	297.80
689.49	297.00
689.82	296.29
690.16	295.47
690.50	294.79
690.83	294.05
691.17	293.34
691.51	292.68
691.84	292.10
692.18	291.47
692.52	290.86
692.85	290.29
693.19	289.77
693.52	289.04
693.86	288.36
694.20	287.77
694.53	287.09
694.87	286.35
695.21	285.78
695.54	285.09
695.88	284.53
696.21	283.74
696.55	283.19
696.88	282.48
697.22	281.79
697.56	281.28
697.89	280.56
698.23	280.03
698.56	279.36
698.90	278.75
699.23	278.16
699.57	277.62
699.90	276.93
700.24	276.28
700.58	275.79
700.91	275.48
701.25	275.33
701.58	275.19
701.92	274.75
702.25	274.23
702.59	273.81
702.92	273.36
703.26	273.06
703.59	272.57
703.93	272.53
704.26	272.24
704.60	271.77
704.93	271.37
705.26	270.89
705.60	270.61
705.93	270.12
706.27	269.82
706.60	269.51
706.94	269.39
707.27	268.99
707.61	268.61
707.94	268.20
708.27	267.31
708.61	266.56
708.94	266.11
709.28	265.78
709.61	265.34
709.94	264.86
710.28	264.48
710.61	264.12
710.95	263.27
711.28	263.20
711.61	262.79
711.95	262.64
712.28	262.37
712.61	262.01
712.95	261.90
713.28	261.77
713.61	261.37
713.95	260.88
714.28	260.60
714.61	260.23
714.95	259.81
715.28	259.52
715.61	259.15
715.95	258.86
716.28	258.44
716.61	258.19
716.95	257.91
717.28	257.46
717.61	257.19
717.94	257.00
718.28	256.31
718.61	256.02
718.94	255.59
719.27	255.25
719.61	255.01
719.94	254.60
720.27	254.12
720.60	253.86
720.94	253.60
721.27	253.36
721.60	253.25
721.93	252.95
722.27	252.92
722.60	252.80
722.93	252.56
723.26	252.47
723.59	252.22
723.93	252.12
724.26	252.03
724.59	251.80
724.92	251.60
725.25	251.55
725.59	251.34
725.92	251.22
726.25	251.05
726.58	250.83
726.91	250.64
727.24	250.48
727.57	250.21
727.91	249.99
728.24	249.81
728.57	249.63
728.90	249.60
729.23	249.22
729.56	249.28
729.89	249.14
730.22	248.87
730.55	248.63
730.89	248.40
731.22	248.15
731.55	247.96
731.88	247.84
732.21	247.61
732.54	247.37
732.87	247.17
733.20	246.97
733.53	246.83
733.86	246.70
734.19	246.51
734.52	246.45
734.85	246.58
735.18	246.34
735.51	246.25
735.84	246.08
736.17	246.09
736.50	245.59
736.83	245.96
737.16	245.84
737.49	245.75
737.82	245.55
738.15	245.57
738.48	245.45
738.81	245.27
739.14	244.99
739.47	244.81
739.80	244.68
740.13	244.64
740.46	244.43
740.79	244.22
741.12	244.08
741.45	243.80
741.78	243.42
742.11	243.46
742.44	243.25
742.77	243.15
743.10	242.94
743.43	242.77
743.75	242.10
744.08	242.65
744.41	242.46
744.74	242.36
745.07	242.00
745.40	241.94
745.73	241.98
746.06	241.88
746.39	241.85
746.71	241.69
747.04	241.49
747.37	241.30
747.70	241.28
748.03	241.16
748.36	241.15
748.68	241.03
749.01	240.76
749.34	240.63
749.67	240.54
750.00	240.47
750.33	240.75
750.65	240.71
750.98	239.94
751.31	239.80
751.64	239.77
751.97	239.97
752.29	239.82
752.62	239.46
752.95	239.31
753.28	239.17
753.60	239.03
753.93	239.03
754.26	239.03
754.59	238.81
754.91	238.63
755.24	238.45
755.57	238.36
755.90	238.24
756.22	238.03
756.55	237.84
756.88	237.65
757.20	237.28
757.53	236.99
757.86	236.82
758.19	236.78
758.51	236.69
758.84	236.33
759.17	236.13
759.49	236.07
759.82	236.30
760.15	236.32
760.47	236.25
760.80	236.00
761.13	235.97
761.45	235.85
761.78	235.79
762.11	235.77
762.43	235.65
762.76	235.52
763.08	235.54
763.41	235.54
763.74	235.41
764.06	235.29
764.39	235.28
764.71	235.27
765.04	235.21
765.37	235.09
765.69	235.07
766.02	235.05
766.34	234.98
766.67	234.65
767.00	234.62
767.32	234.78
767.65	235.05
767.97	234.95
768.30	234.93
768.62	234.85
768.95	234.75
769.27	234.61
769.60	234.64
769.92	234.50
770.25	234.35
770.57	234.23
770.90	234.23
771.22	234.06
771.55	233.95
771.87	233.84
772.20	233.67
772.52	234.00
772.85	234.46
773.17	234.47
773.50	234.44
773.82	234.33
774.15	234.01
774.47	233.61
774.80	233.47
775.12	233.43
775.45	233.38
775.77	233.33
776.09	233.36
776.42	233.29
776.74	233.38
777.07	233.30
777.39	233.29
777.72	233.12
778.04	233.20
778.36	233.20
778.69	233.19
779.01	233.28
779.33	232.78
779.66	232.18
779.98	232.04
780.31	231.99
780.63	232.06
780.95	232.15
781.28	232.10
781.60	231.98
781.92	231.91
782.25	231.86
782.57	231.79
782.89	231.67
783.22	231.60
783.54	231.48
783.86	231.50
784.19	231.48
784.51	231.68
784.83	231.61
785.16	231.48
785.48	231.45
785.80	231.37
786.12	231.36
786.45	231.42
786.77	231.39
787.09	231.38
787.42	231.15
787.74	231.13
788.06	231.17
788.38	231.16
788.71	231.08
789.03	231.15
789.35	231.21
789.67	231.12
789.99	231.20
790.32	231.10
790.64	231.09
790.96	231.31
791.28	231.04
791.61	230.93
791.93	231.02
792.25	230.90
792.57	231.24
792.89	231.14
793.21	231.12
793.54	231.05
793.86	230.96
794.18	230.98
794.50	230.87
794.82	230.78
795.14	230.83
795.47	230.85
795.79	230.76
796.11	230.69
796.43	230.61
796.75	230.51
797.07	230.51
797.39	230.44
797.71	230.18
798.04	230.21
798.36	230.33
798.68	230.23
799.00	230.30
799.32	229.99
799.64	230.08
799.96	230.03
800.28	230.12
800.60	230.05
800.92	230.15
801.24	230.14
801.56	230.14
801.89	230.06
802.21	230.14
802.53	230.10
802.85	230.12
803.17	230.45
803.49	230.32
803.81	230.29
804.13	230.31
804.45	230.26
804.77	230.24
805.09	230.19
805.41	230.15
805.73	230.10
806.05	230.03
806.37	230.00
806.69	229.97
807.01	229.92
807.33	230.00
807.65	229.75
807.97	229.97
808.28	230.00
808.60	230.01
808.92	229.92
809.24	230.15
809.56	230.09
809.88	229.86
810.20	229.94
810.52	230.03
810.84	229.91
811.16	229.82
811.48	229.82
811.80	229.95
812.12	229.90
812.43	229.91
812.75	229.88
813.07	229.79
813.39	229.77
813.71	229.70
814.03	229.60
814.35	229.65
814.67	229.29
814.98	229.20
815.30	229.19
815.62	229.05
815.94	228.78
816.26	228.95
816.58	228.85
816.89	228.79
817.21	228.60
817.53	228.64
817.85	228.66
818.17	228.57
818.48	228.29
818.80	228.39
819.12	228.28
819.44	228.18
819.76	228.10
820.07	228.14
820.39	228.11
820.71	228.16
821.03	228.09
821.34	228.13
821.66	228.19
821.98	228.17
822.30	228.16
822.61	228.38
822.93	228.18
823.25	228.21
823.57	228.16
823.88	228.29
824.20	228.23
824.52	228.35
824.83	228.35
825.15	228.26
825.47	228.30
825.79	228.39
826.10	228.38
826.42	228.38
826.74	228.33
827.05	228.31
827.37	228.33
827.69	228.28
828.00	228.37
828.32	228.33
828.64	228.31
828.95	228.55
829.27	228.41
829.58	228.34
829.90	228.35
830.22	228.40
830.53	228.30
830.85	228.27
831.17	228.08
831.48	228.15
831.80	228.21
832.11	228.12
832.43	228.01
832.75	228.03
833.06	228.29
833.38	228.21
833.69	228.21
834.01	228.19
834.32	228.28
834.64	228.12
834.96	228.09
835.27	228.05
835.59	227.95
835.90	227.86
836.22	227.95
836.53	227.84
836.85	227.80
837.16	228.28
837.48	228.39
837.79	228.60
838.11	228.55
838.42	228.55
838.74	228.60
839.05	228.64
839.37	228.64
839.68	228.35
840.00	228.28
840.31	228.39
840.63	228.36
840.94	228.30
841.26	228.31
841.57	228.30
841.88	228.40
842.20	228.27
842.51	228.20
842.83	228.05
843.14	228.55
843.46	228.55
843.77	228.25
844.08	228.15
844.40	228.04
844.71	228.04
845.03	228.02
845.34	227.95
845.65	227.94
845.97	227.96
846.28	227.99
846.60	228.10
846.91	227.99
847.22	227.97
847.54	228.11
847.85	228.25
848.16	228.15
848.48	228.04
848.79	228.30
849.10	228.39
849.42	228.51
849.73	228.04
850.04	228.08
850.36	227.94
850.67	228.05
850.98	228.05
851.30	228.10
851.61	228.07
851.92	228.05
852.23	228.19
852.55	228.20
852.86	228.28
853.17	228.29
853.49	228.34
853.80	228.41
854.11	228.38
854.42	228.32
854.74	228.37
855.05	228.37
855.36	228.10
855.67	228.09
855.99	228.03
856.30	228.59
856.61	228.52
856.92	228.49
857.23	228.38
857.55	228.30
857.86	228.30
858.17	228.41
858.48	228.40
858.79	228.28
859.11	228.25
859.42	228.10
859.73	227.98
860.04	227.99
860.35	227.82
860.66	227.65
860.98	227.60
861.29	227.60
861.60	227.54
861.91	227.62
862.22	227.55
862.53	227.53
862.84	226.90
863.16	227.02
863.47	227.00
863.78	227.01
864.09	227.03
864.40	226.99
864.71	227.02
865.02	227.05
865.33	226.92
865.64	226.83
865.95	226.90
866.27	227.19
866.58	227.13
866.89	227.24
867.20	227.25
867.51	227.26
867.82	227.17
868.13	227.33
868.44	227.19
868.75	227.25
869.06	227.21
869.37	227.32
869.68	227.23
869.99	227.26
870.30	227.22
870.61	227.25
870.92	227.13
871.23	226.98
871.54	227.09
871.85	227.17
872.16	227.24
872.47	227.15
872.78	226.92
873.09	227.02
873.40	226.92
873.71	227.02
874.02	227.00
874.33	227.03
874.64	226.90
874.95	227.04
875.26	226.97
875.56	226.99
875.87	226.94
876.18	226.91
876.49	227.39
876.80	227.36
877.11	227.30
877.42	227.37
877.73	227.46
878.04	227.36
878.35	227.40
878.66	227.49
878.96	227.47
879.27	227.45
879.58	227.35
879.89	227.43
880.20	227.50
880.51	227.44
880.82	227.48
881.12	227.56
881.43	227.49
881.74	227.44
882.05	227.41
882.36	227.45
882.67	227.50
882.97	227.00
883.28	227.03
883.59	226.99
883.90	227.02
884.21	227.08
884.51	226.99
884.82	226.92
885.13	226.91
885.44	226.91
885.74	226.91
886.05	226.95
886.36	226.86
886.67	226.70
886.98	227.00
887.28	227.06
887.59	227.07
887.90	227.10
888.20	227.14
888.51	227.23
888.82	227.18
889.13	227.18
889.43	227.62
889.74	227.62
890.05	227.66
890.35	227.62
890.66	227.52
890.97	227.55
891.28	227.51
891.58	227.47
891.89	227.55
892.20	227.51
892.50	227.44
892.81	227.45
893.12	227.44
893.42	227.25
893.73	227.21
894.04	227.18
894.34	227.20
894.65	227.18
894.95	227.05
895.26	227.09
895.57	227.33
895.87	226.85
896.18	226.95
896.48	226.95
896.79	226.96
897.10	227.03
897.40	227.04
897.71	227.10
898.01	227.09
898.32	227.16
898.63	227.21
898.93	227.28
899.24	227.33
899.54	227.30
899.85	227.22
900.15	227.26
900.46	227.27
900.76	227.31
901.07	227.28
901.38	227.33
901.68	227.36
901.99	227.06
902.29	227.14
902.60	227.07
902.90	227.07
903.21	227.09
903.51	227.03
903.82	227.14
904.12	227.24
904.43	227.19
904.73	227.14
905.03	227.10
905.34	227.56
905.64	227.48
905.95	227.57
906.25	227.56
906.56	227.49
906.86	227.45
907.17	227.43
907.47	227.49
907.77	227.46
908.08	227.42
908.38	227.46
908.69	227.51
908.99	227.53
909.30	227.54
909.60	227.46
909.90	227.55
910.21	227.47
910.51	227.34
910.81	227.39
911.12	227.39
911.42	227.45
911.73	227.00
912.03	227.10
912.33	227.17
912.64	227.17
912.94	227.17
913.24	227.10
913.55	227.06
913.85	227.03
914.15	227.13
914.46	227.18
914.76	227.13
915.06	227.03
915.37	226.98
915.67	226.95
915.97	226.96
916.27	226.77
916.58	226.75
916.88	226.74
917.18	226.70
917.49	227.03
917.79	226.97
918.09	227.01
918.39	227.11
918.70	227.07
919.00	227.10
919.30	227.25
919.60	227.25
919.91	227.20
920.21	227.20
920.51	227.15
920.81	227.05
921.12	227.18
921.42	227.15
921.72	227.18
922.02	227.26
922.32	227.40
922.63	227.42
922.93	227.67
923.23	227.70
923.53	227.66
923.83	227.38
924.13	227.36
924.44	227.33
924.74	227.33
925.04	227.40
925.34	227.48
925.64	227.30
925.94	227.32
926.24	227.56
926.55	227.54
926.85	227.60
927.15	227.61
927.45	227.55
927.75	227.54
928.05	227.59
928.35	227.46
928.65	227.50
928.95	227.55
929.26	227.36
929.56	227.43
929.86	227.47
930.16	227.44
930.46	227.47
930.76	227.42
931.06	227.23
931.36	227.12
931.66	227.11
931.96	227.16
932.26	227.13
932.56	226.89
932.86	226.92
933.16	226.87
933.46	226.87
933.76	226.80
934.06	226.98
934.36	227.06
934.66	227.11
934.96	227.04
935.26	227.05
935.56	227.04
935.86	226.93
936.16	226.89
936.46	226.89
936.76	226.85
937.06	226.83
937.36	226.87
937.66	226.86
937.96	226.78
938.26	226.75
938.56	226.80
938.86	226.80
939.16	226.94
939.46	227.01
939.76	226.99
940.06	227.02
940.35	226.91
940.65	226.66
940.95	226.72
941.25	226.60
941.55	226.53
941.85	226.55
942.15	226.70
942.45	226.89
942.75	226.83
943.04	226.88
943.34	226.93
943.64	226.80
943.94	226.74
944.24	226.78
944.54	226.86
944.84	226.80
945.13	226.81
945.43	226.69
945.73	226.63
946.03	226.62
946.33	226.55
946.62	226.49
946.92	226.48
947.22	226.41
947.52	226.46
947.82	226.56
948.11	226.53
948.41	226.36
948.71	226.14
949.01	226.16
949.31	226.14
949.60	226.14
949.90	226.26
950.20	226.28
950.50	226.29
950.79	226.19
951.09	226.25
951.39	226.28
951.69	226.24
951.98	226.33
952.28	226.45
952.58	226.45
952.87	226.45
953.17	226.57
953.47	226.61
953.76	226.61
954.06	226.56
954.36	226.47
954.66	226.46
954.95	226.66
955.25	226.68
955.55	226.70
955.84	226.65
956.14	226.68
956.44	226.69
956.73	226.55
957.03	226.60
957.32	226.57
957.62	226.52
957.92	226.64
958.21	226.61
958.51	227.00
958.81	227.07
959.10	227.19
959.40	227.31
959.69	227.34
959.99	227.33
960.29	227.28
960.58	227.31
960.88	227.55
961.17	227.44
961.47	227.49
961.76	227.45
962.06	227.60
962.36	227.55
962.65	227.60
962.95	227.78
963.24	227.72
963.54	227.74
963.83	227.79
964.13	227.73
964.42	227.63
964.72	227.29
965.01	227.25
965.31	227.13
965.60	226.97
965.90	227.20
966.19	227.26
966.49	227.38
966.78	227.34
967.08	227.26
967.37	227.27
967.67	227.22
967.96	227.31
968.26	227.18
968.55	227.26
968.85	227.25
969.14	227.13
969.43	227.16
969.73	227.16
970.02	227.08
970.32	227.06
970.61	227.05
970.91	226.88
971.20	226.84
971.49	226.83
971.79	226.83
972.08	226.48
972.38	226.42
972.67	226.28
972.96	226.35
973.26	226.22
973.55	226.34
973.85	226.21
974.14	226.13
974.43	226.20
974.73	226.09
975.02	226.09
975.31	226.10
975.61	226.03
975.90	225.95
976.19	225.98
976.49	225.97
976.78	226.00
977.07	226.00
977.37	226.04
977.66	226.12
977.95	226.13
978.24	226.20
978.54	226.29
978.83	226.30
979.12	226.25
979.42	226.34
979.71	226.27
980.00	226.30
980.29	226.29
980.59	226.19
980.88	226.33
981.17	226.37
981.46	226.33
981.76	226.35
982.05	226.54
982.34	226.57
982.63	226.63
982.93	226.66
983.22	226.84
983.51	226.90
983.80	226.96
984.09	227.03
984.39	226.99
984.68	226.89
984.97	226.93
985.26	226.91
985.55	226.85
985.85	226.79
986.14	226.88
986.43	226.96
986.72	226.92
987.01	226.78
987.30	226.70
987.59	226.67
987.89	226.71
988.18	226.50
988.47	226.42
988.76	226.33
989.05	226.24
989.34	226.18
989.63	226.23
989.92	226.11
990.22	226.03
990.51	226.02
990.80	226.03
991.09	226.07
991.38	226.09
991.67	226.09
991.96	225.95
992.25	226.00
992.54	225.86
992.83	225.90
993.12	225.95
993.41	226.05
993.70	226.29
993.99	226.38
994.28	226.47
994.58	226.58
994.87	226.57
995.16	226.59
995.45	226.49
995.74	226.33
996.03	226.40
996.32	226.46
996.61	226.53
996.90	226.51
997.19	226.45
997.48	226.46
997.77	226.42
998.06	226.51
998.34	226.39
998.63	226.44
998.92	226.48
999.21	226.46
999.50	226.43
999.79	226.26
1000.08	226.20
1000.37	226.18
1000.66	226.06
1000.95	226.13
1001.24	226.15
1001.53	226.25
1001.82	226.29
1002.11	226.20
1002.40	226.23
1002.68	226.40
1002.97	226.71
1003.26	226.67
1003.55	226.61
1003.84	226.62
1004.13	226.77
1004.42	226.84
1004.71	226.86
1004.99	226.80
1005.28	226.98
1005.57	226.93
1005.86	226.90
1006.15	226.88
1006.44	226.90
1006.72	227.05
1007.01	226.95
1007.30	226.99
1007.59	226.90
1007.88	226.83
1008.17	226.85
1008.45	226.71
1008.74	226.47
1009.03	226.23
1009.32	226.30
1009.60	226.34
1009.89	226.33
1010.18	226.12
1010.47	226.07
1010.76	226.05
1011.04	226.12
1011.33	226.16
1011.62	226.26
1011.91	226.26
1012.19	226.30
1012.48	226.26
1012.77	226.20
1013.05	226.52
1013.34	226.50
1013.63	226.51
1013.92	226.59
1014.20	226.48
1014.49	226.59
1014.78	226.66
1015.06	226.62
1015.35	226.60
1015.64	226.63
1015.92	226.76
1016.21	226.85
1016.50	226.89
1016.78	226.95
1017.07	226.97
1017.36	226.77
1017.64	226.63
1017.93	226.73
1018.22	226.68
1018.50	226.69
1018.79	226.73
1019.08	226.44
1019.36	226.50
1019.65	226.48
1019.93	226.58
1020.22	226.72
1020.51	227.01
1020.79	226.98
1021.08	225.90
1021.36	225.65
1021.65	227.30
1021.94	226.15
1022.22	227.30
1022.51	225.85
1022.79	228.30
1023.08	227.20
1023.36	233.65
1023.65	226.05
>>>>>End Processed Spectral Data<<<<<
