SpectraSuite Data File
++++++++++++++++++++++++++++++++++++
Date: Wed Sep 04 18:04:35 EDT 2013
User: lab3
Dark Spectrum Present: Yes
Reference Spectrum Present: No
Number of Sampled Component Spectra: 1
Spectrometers: USB2E7196
Integration Time (usec): 170000 (USB2E7196)
Spectra Averaged: 20 (USB2E7196)
Boxcar Smoothing: 10 (USB2E7196)
Correct for Electrical Dark: No (USB2E7196)
Strobe/Lamp Enabled: No (USB2E7196)
Correct for Detector Non-linearity: No (USB2E7196)
Correct for Stray Light: No (USB2E7196)
Number of Pixels in Processed Spectrum: 2048
>>>>>Begin Processed Spectral Data<<<<<
339.09	0.00
339.48	214.05
339.86	215.15
340.24	216.00
340.63	218.90
341.01	226.75
341.39	220.05
341.78	221.20
342.16	224.95
342.54	224.00
342.93	212.98
343.31	223.70
343.69	224.17
344.07	224.67
344.46	225.16
344.84	225.52
345.22	225.45
345.60	225.73
345.99	225.98
346.37	226.05
346.75	226.22
347.13	226.21
347.52	226.26
347.90	226.40
348.28	226.44
348.66	226.55
349.05	226.34
349.43	226.45
349.81	226.52
350.19	226.56
350.57	226.60
350.96	226.68
351.34	226.82
351.72	226.96
352.10	227.07
352.48	227.11
352.87	227.14
353.25	227.21
353.63	227.24
354.01	227.27
354.39	227.33
354.77	227.28
355.15	227.53
355.54	227.51
355.92	227.46
356.30	227.52
356.68	227.91
357.06	228.08
357.44	228.01
357.82	228.04
358.20	228.50
358.58	228.56
358.97	228.68
359.35	228.79
359.73	228.95
360.11	229.00
360.49	229.08
360.87	229.15
361.25	229.24
361.63	229.49
362.01	229.60
362.39	229.62
362.77	229.75
363.15	229.70
363.53	229.74
363.91	229.81
364.29	229.86
364.67	229.35
365.05	229.40
365.43	229.51
365.81	229.59
366.19	229.45
366.57	229.66
366.95	229.64
367.33	229.59
367.71	229.57
368.09	229.63
368.47	229.60
368.85	229.60
369.23	229.76
369.61	229.58
369.99	229.68
370.37	229.70
370.75	229.92
371.13	229.81
371.51	229.84
371.89	229.80
372.27	229.82
372.65	229.96
373.03	229.91
373.41	229.86
373.78	229.81
374.16	229.55
374.54	229.43
374.92	229.31
375.30	229.25
375.68	229.10
376.06	229.10
376.44	229.01
376.82	228.96
377.19	228.81
377.57	228.79
377.95	228.65
378.33	228.64
378.71	228.34
379.09	228.38
379.47	228.28
379.84	228.19
380.22	228.10
380.60	227.84
380.98	227.80
381.36	227.73
381.73	227.55
382.11	227.53
382.49	227.40
382.87	227.34
383.25	227.21
383.62	227.72
384.00	227.52
384.38	227.55
384.76	227.61
385.13	227.78
385.51	227.70
385.89	227.52
386.27	227.47
386.64	227.42
387.02	227.31
387.40	227.21
387.78	227.25
388.15	227.22
388.53	227.31
388.91	227.28
389.29	227.23
389.66	227.35
390.04	227.29
390.42	227.38
390.79	227.32
391.17	227.36
391.55	226.82
391.92	226.84
392.30	226.85
392.68	226.77
393.05	226.69
393.43	226.72
393.81	226.82
394.18	226.73
394.56	226.74
394.94	226.88
395.31	226.89
395.69	226.97
396.06	227.06
396.44	227.09
396.82	227.08
397.19	227.40
397.57	227.38
397.95	227.53
398.32	227.49
398.70	227.69
399.07	227.87
399.45	227.95
399.82	228.02
400.20	228.08
400.58	228.19
400.95	228.16
401.33	228.37
401.70	228.74
402.08	228.89
402.45	229.05
402.83	229.24
403.20	229.44
403.58	229.58
403.95	229.85
404.33	230.06
404.71	230.25
405.08	230.65
405.46	230.93
405.83	231.10
406.21	231.33
406.58	231.51
406.96	231.81
407.33	232.20
407.70	232.56
408.08	233.29
408.45	233.70
408.83	234.11
409.20	234.49
409.58	234.66
409.95	235.25
410.33	235.79
410.70	236.21
411.08	236.82
411.45	237.41
411.82	237.93
412.20	238.70
412.57	239.69
412.95	240.10
413.32	240.99
413.69	241.85
414.07	242.77
414.44	243.81
414.82	244.77
415.19	245.88
415.56	247.09
415.94	248.14
416.31	249.49
416.68	250.93
417.06	252.60
417.43	254.25
417.81	256.01
418.18	257.88
418.55	259.83
418.93	261.85
419.30	264.01
419.67	266.22
420.04	268.51
420.42	270.79
420.79	273.85
421.16	276.62
421.54	279.78
421.91	282.77
422.28	285.84
422.66	289.15
423.03	292.63
423.40	296.01
423.77	299.56
424.15	303.21
424.52	306.98
424.89	311.15
425.26	315.17
425.64	318.98
426.01	323.17
426.38	327.57
426.75	332.14
427.13	336.78
427.50	341.64
427.87	346.57
428.24	351.58
428.61	356.04
428.99	361.36
429.36	366.80
429.73	372.36
430.10	377.99
430.47	383.76
430.85	389.48
431.22	395.66
431.59	402.60
431.96	408.86
432.33	415.97
432.70	422.69
433.08	430.60
433.45	438.20
433.82	445.54
434.19	453.83
434.56	461.95
434.93	469.70
435.30	477.56
435.68	486.24
436.05	494.62
436.42	503.20
436.79	510.86
437.16	519.22
437.53	528.09
437.90	536.90
438.27	545.41
438.64	554.38
439.01	562.82
439.38	569.91
439.75	576.97
440.13	585.00
440.50	592.52
440.87	598.65
441.24	604.88
441.61	611.95
441.98	617.08
442.35	622.89
442.72	628.85
443.09	634.78
443.46	638.25
443.83	640.61
444.20	642.34
444.57	645.18
444.94	646.30
445.31	647.29
445.68	648.63
446.05	648.85
446.42	647.42
446.79	645.93
447.16	644.25
447.53	643.17
447.90	639.46
448.27	635.71
448.64	630.86
449.01	627.20
449.37	620.92
449.74	614.82
450.11	607.95
450.48	600.12
450.85	591.91
451.22	584.97
451.59	578.37
451.96	572.13
452.33	563.92
452.70	556.58
453.07	547.92
453.43	538.69
453.80	530.29
454.17	522.16
454.54	514.39
454.91	506.25
455.28	498.16
455.65	490.59
456.02	483.77
456.38	477.28
456.75	469.47
457.12	462.98
457.49	456.67
457.86	450.36
458.23	445.20
458.59	439.46
458.96	433.59
459.33	428.50
459.70	423.36
460.07	419.21
460.43	414.35
460.80	410.11
461.17	406.35
461.54	402.38
461.91	398.62
462.27	394.75
462.64	391.47
463.01	387.86
463.38	384.53
463.74	380.44
464.11	377.33
464.48	374.73
464.85	371.85
465.21	369.65
465.58	367.31
465.95	364.45
466.32	362.14
466.68	359.90
467.05	357.57
467.42	355.28
467.78	353.04
468.15	350.92
468.52	349.29
468.88	346.99
469.25	344.98
469.62	343.64
469.98	342.00
470.35	340.40
470.72	338.98
471.08	337.28
471.45	335.92
471.82	334.77
472.18	333.19
472.55	332.21
472.92	330.86
473.28	329.70
473.65	328.62
474.02	327.53
474.38	326.61
474.75	325.82
475.11	325.00
475.48	324.26
475.85	323.67
476.21	322.98
476.58	322.52
476.94	322.15
477.31	321.52
477.67	321.12
478.04	320.79
478.41	320.54
478.77	320.80
479.14	320.70
479.50	320.65
479.87	320.86
480.23	320.81
480.60	320.77
480.96	320.78
481.33	321.22
481.69	321.50
482.06	321.78
482.42	322.08
482.79	322.45
483.15	322.88
483.52	323.55
483.88	324.08
484.25	324.64
484.61	325.22
484.98	325.93
485.34	326.86
485.71	327.86
486.07	328.88
486.44	329.59
486.80	330.58
487.17	331.63
487.53	332.85
487.90	334.29
488.26	335.91
488.62	337.64
488.99	339.09
489.35	340.75
489.72	342.60
490.08	344.52
490.44	346.47
490.81	348.68
491.17	350.79
491.54	353.25
491.90	355.81
492.26	358.50
492.63	361.33
492.99	364.12
493.36	367.25
493.72	370.50
494.08	373.93
494.45	377.61
494.81	381.57
495.17	385.49
495.54	389.63
495.90	393.91
496.26	398.41
496.63	403.08
496.99	407.99
497.35	413.11
497.72	418.40
498.08	424.06
498.44	429.80
498.80	435.82
499.17	441.84
499.53	448.18
499.89	454.91
500.26	461.76
500.62	468.80
500.98	476.09
501.34	483.46
501.71	491.19
502.07	499.03
502.43	507.01
502.79	515.34
503.16	524.02
503.52	533.10
503.88	542.30
504.24	552.09
504.60	562.18
504.97	572.48
505.33	583.02
505.69	594.21
506.05	605.10
506.41	616.47
506.78	628.18
507.14	640.17
507.50	652.57
507.86	665.11
508.22	678.22
508.59	691.40
508.95	705.12
509.31	719.23
509.67	733.64
510.03	747.90
510.39	762.78
510.75	777.98
511.12	793.04
511.48	808.82
511.84	824.58
512.20	840.43
512.56	856.74
512.92	873.60
513.28	890.30
513.64	907.62
514.00	925.05
514.37	942.92
514.73	961.22
515.09	979.38
515.45	997.95
515.81	1016.36
516.17	1035.17
516.53	1054.15
516.89	1072.89
517.25	1092.37
517.61	1112.93
517.97	1133.50
518.33	1153.65
518.69	1174.26
519.05	1194.70
519.41	1215.56
519.77	1236.82
520.13	1257.61
520.49	1278.29
520.85	1300.61
521.21	1321.77
521.57	1343.34
521.93	1364.22
522.29	1385.48
522.65	1406.18
523.01	1427.10
523.37	1447.85
523.73	1468.96
524.09	1489.44
524.45	1510.64
524.81	1531.52
525.17	1552.09
525.53	1572.53
525.89	1593.31
526.25	1614.17
526.61	1634.71
526.97	1655.50
527.33	1676.85
527.68	1699.04
528.04	1720.35
528.40	1739.99
528.76	1761.33
529.12	1781.50
529.48	1802.59
529.84	1822.52
530.20	1844.05
530.56	1865.06
530.91	1886.19
531.27	1906.68
531.63	1927.59
531.99	1948.22
532.35	1968.29
532.71	1988.61
533.07	2009.69
533.42	2029.78
533.78	2050.00
534.14	2070.14
534.50	2089.64
534.86	2108.65
535.21	2126.31
535.57	2145.20
535.93	2163.02
536.29	2180.97
536.65	2199.73
537.00	2217.29
537.36	2235.11
537.72	2251.71
538.08	2268.91
538.44	2285.93
538.79	2302.66
539.15	2319.17
539.51	2335.16
539.87	2350.93
540.22	2365.17
540.58	2379.01
540.94	2392.29
541.29	2404.94
541.65	2417.33
542.01	2429.94
542.37	2440.81
542.72	2451.88
543.08	2462.67
543.44	2474.69
543.79	2484.85
544.15	2494.65
544.51	2504.89
544.87	2515.02
545.22	2523.90
545.58	2531.60
545.94	2538.85
546.29	2545.39
546.65	2552.07
547.01	2557.62
547.36	2563.06
547.72	2568.78
548.07	2573.20
548.43	2578.90
548.79	2583.56
549.14	2587.70
549.50	2591.51
549.86	2595.72
550.21	2599.70
550.57	2603.00
550.92	2604.50
551.28	2606.04
551.64	2608.59
551.99	2610.61
552.35	2612.34
552.70	2614.33
553.06	2616.07
553.41	2617.42
553.77	2619.49
554.13	2620.95
554.48	2622.70
554.84	2624.40
555.19	2625.73
555.55	2627.32
555.90	2626.53
556.26	2626.21
556.61	2625.23
556.97	2623.34
557.32	2622.90
557.68	2621.55
558.03	2619.95
558.39	2618.79
558.74	2618.10
559.10	2614.80
559.45	2611.52
559.81	2606.98
560.16	2602.12
560.52	2597.43
560.87	2593.26
561.23	2587.92
561.58	2582.04
561.94	2575.08
562.29	2567.58
562.64	2560.64
563.00	2552.23
563.35	2545.93
563.71	2539.34
564.06	2533.26
564.42	2526.54
564.77	2519.47
565.12	2512.07
565.48	2504.47
565.83	2496.70
566.19	2488.49
566.54	2480.75
566.89	2472.52
567.25	2464.67
567.60	2457.47
567.96	2450.06
568.31	2441.74
568.66	2432.97
569.02	2423.84
569.37	2415.94
569.72	2408.07
570.08	2398.73
570.43	2389.42
570.78	2380.46
571.14	2370.75
571.49	2360.30
571.84	2350.85
572.20	2339.92
572.55	2329.85
572.90	2318.92
573.26	2308.36
573.61	2297.28
573.96	2286.35
574.31	2274.23
574.67	2262.34
575.02	2249.39
575.37	2236.68
575.72	2223.34
576.08	2211.01
576.43	2198.50
576.78	2185.16
577.13	2171.60
577.49	2158.59
577.84	2146.59
578.19	2134.09
578.54	2121.22
578.90	2108.82
579.25	2096.24
579.60	2083.60
579.95	2070.32
580.30	2057.38
580.66	2043.67
581.01	2029.97
581.36	2015.26
581.71	2002.39
582.06	1989.45
582.42	1977.01
582.77	1964.35
583.12	1952.40
583.47	1940.03
583.82	1928.09
584.17	1916.14
584.53	1904.28
584.88	1891.51
585.23	1878.65
585.58	1864.38
585.93	1851.30
586.28	1838.21
586.63	1824.23
586.98	1810.24
587.34	1797.15
587.69	1783.80
588.04	1771.47
588.39	1759.41
588.74	1747.48
589.09	1735.57
589.44	1722.83
589.79	1710.60
590.14	1698.44
590.49	1686.30
590.84	1674.29
591.19	1662.03
591.54	1649.60
591.89	1637.40
592.25	1627.14
592.60	1615.50
592.95	1604.19
593.30	1592.16
593.65	1580.13
594.00	1568.16
594.35	1557.94
594.70	1545.92
595.05	1534.38
595.40	1522.18
595.75	1510.09
596.10	1498.97
596.45	1487.17
596.80	1476.15
597.15	1464.45
597.50	1452.70
597.85	1441.21
598.19	1429.13
598.54	1417.42
598.89	1406.09
599.24	1395.42
599.59	1383.33
599.94	1372.26
600.29	1361.45
600.64	1350.84
600.99	1339.92
601.34	1330.46
601.69	1319.43
602.04	1309.53
602.39	1299.69
602.74	1290.32
603.08	1280.77
603.43	1271.20
603.78	1261.53
604.13	1251.93
604.48	1242.42
604.83	1232.65
605.18	1222.90
605.53	1213.48
605.87	1204.11
606.22	1195.73
606.57	1186.11
606.92	1176.67
607.27	1167.63
607.62	1158.97
607.96	1150.57
608.31	1142.53
608.66	1133.94
609.01	1125.17
609.36	1116.53
609.70	1108.04
610.05	1099.12
610.40	1090.70
610.75	1081.82
611.10	1073.47
611.44	1064.64
611.79	1056.33
612.14	1048.41
612.49	1040.26
612.83	1032.70
613.18	1024.87
613.53	1016.90
613.88	1009.00
614.22	1001.33
614.57	993.52
614.92	985.57
615.27	978.01
615.61	970.35
615.96	962.52
616.31	954.97
616.65	947.92
617.00	940.43
617.35	933.26
617.70	926.01
618.04	918.89
618.39	911.86
618.74	905.38
619.08	898.34
619.43	891.16
619.78	884.10
620.12	876.84
620.47	869.74
620.82	862.32
621.16	855.34
621.51	849.00
621.85	842.47
622.20	835.79
622.55	828.80
622.89	822.25
623.24	815.88
623.59	809.46
623.93	803.02
624.28	796.80
624.62	791.09
624.97	785.07
625.32	779.37
625.66	773.28
626.01	767.11
626.35	761.38
626.70	755.70
627.04	750.47
627.39	744.94
627.73	739.75
628.08	734.60
628.43	729.20
628.77	723.72
629.12	718.29
629.46	713.33
629.81	708.67
630.15	703.78
630.50	698.78
630.84	693.84
631.19	688.90
631.53	684.29
631.88	678.97
632.22	674.00
632.57	669.30
632.91	664.64
633.26	660.15
633.60	655.43
633.95	650.73
634.29	645.74
634.64	641.18
634.98	636.43
635.32	631.92
635.67	627.82
636.01	623.46
636.36	619.17
636.70	615.04
637.05	610.64
637.39	606.53
637.73	602.33
638.08	598.27
638.42	594.01
638.77	589.65
639.11	585.25
639.45	581.06
639.80	576.79
640.14	572.62
640.49	568.55
640.83	564.78
641.17	561.17
641.52	557.55
641.86	554.02
642.20	550.85
642.55	547.19
642.89	543.50
643.23	540.02
643.58	536.90
643.92	533.20
644.26	529.91
644.61	526.52
644.95	523.23
645.29	519.75
645.64	516.60
645.98	513.48
646.32	510.60
646.66	507.49
647.01	504.38
647.35	501.55
647.69	498.62
648.04	495.82
648.38	492.80
648.72	489.87
649.06	486.83
649.41	483.63
649.75	480.68
650.09	477.82
650.43	474.96
650.78	471.84
651.12	469.00
651.46	466.07
651.80	463.22
652.14	460.50
652.49	458.04
652.83	455.46
653.17	452.75
653.51	449.91
653.85	447.41
654.20	444.96
654.54	442.22
654.88	439.86
655.22	437.51
655.56	435.12
655.90	432.70
656.25	430.45
656.59	428.27
656.93	425.95
657.27	423.90
657.61	421.46
657.95	419.27
658.29	417.20
658.64	415.18
658.98	413.04
659.32	410.74
659.66	408.59
660.00	406.32
660.34	404.19
660.68	402.32
661.02	400.31
661.36	398.32
661.70	396.51
662.05	394.45
662.39	392.44
662.73	390.75
663.07	389.07
663.41	387.14
663.75	385.09
664.09	383.28
664.43	381.21
664.77	379.59
665.11	377.85
665.45	376.07
665.79	374.33
666.13	372.54
666.47	370.84
666.81	369.10
667.15	367.46
667.49	366.00
667.83	364.65
668.17	363.03
668.51	361.52
668.85	360.08
669.19	358.89
669.53	357.36
669.87	355.72
670.21	354.12
670.55	352.80
670.89	351.70
671.23	350.34
671.57	348.94
671.91	347.53
672.25	346.21
672.58	345.00
672.92	343.54
673.26	342.31
673.60	341.18
673.94	340.06
674.28	338.94
674.62	337.83
674.96	336.49
675.30	335.43
675.64	334.26
675.97	333.00
676.31	331.60
676.65	330.39
676.99	329.36
677.33	328.27
677.67	327.17
678.01	325.82
678.34	324.79
678.68	323.90
679.02	322.81
679.36	321.74
679.70	320.68
680.04	319.86
680.37	318.94
680.71	317.98
681.05	317.10
681.39	316.21
681.73	315.24
682.06	314.35
682.40	313.43
682.74	312.58
683.08	311.89
683.42	310.96
683.75	310.17
684.09	309.30
684.43	308.44
684.77	307.56
685.10	306.85
685.44	306.03
685.78	305.28
686.12	304.52
686.45	303.82
686.79	303.05
687.13	302.28
687.46	301.53
687.80	300.84
688.14	299.91
688.48	299.18
688.81	298.46
689.15	297.77
689.49	297.02
689.82	296.32
690.16	295.43
690.50	294.78
690.83	294.06
691.17	293.21
691.51	292.64
691.84	291.91
692.18	291.22
692.52	290.49
692.85	289.81
693.19	289.37
693.52	288.69
693.86	287.93
694.20	287.33
694.53	286.64
694.87	285.88
695.21	285.22
695.54	284.59
695.88	283.90
696.21	283.12
696.55	282.49
696.88	281.86
697.22	281.25
697.56	280.74
697.89	280.09
698.23	279.62
698.56	278.95
698.90	278.58
699.23	278.06
699.57	277.64
699.90	277.01
700.24	276.33
700.58	275.88
700.91	275.57
701.25	275.35
701.58	275.22
701.92	274.91
702.25	274.53
702.59	274.01
702.92	273.56
703.26	273.21
703.59	272.83
703.93	272.82
704.26	272.40
704.60	271.92
704.93	271.55
705.26	271.07
705.60	270.69
705.93	270.09
706.27	269.80
706.60	269.44
706.94	269.30
707.27	268.92
707.61	268.59
707.94	268.12
708.27	267.31
708.61	266.60
708.94	266.12
709.28	265.78
709.61	265.40
709.94	265.08
710.28	264.68
710.61	264.31
710.95	263.47
711.28	263.42
711.61	262.99
711.95	262.72
712.28	262.28
712.61	261.89
712.95	261.80
713.28	261.55
713.61	261.09
713.95	260.60
714.28	260.27
714.61	259.76
714.95	259.45
715.28	259.09
715.61	258.71
715.95	258.45
716.28	258.09
716.61	257.92
716.95	257.54
717.28	257.24
717.61	256.88
717.94	256.63
718.28	256.00
718.61	255.70
718.94	255.35
719.27	255.15
719.61	255.00
719.94	254.60
720.27	254.22
720.60	253.97
720.94	253.71
721.27	253.44
721.60	253.37
721.93	253.10
722.27	253.07
722.60	253.02
722.93	252.73
723.26	252.47
723.59	252.12
723.93	252.05
724.26	251.82
724.59	251.60
724.92	251.47
725.25	251.36
725.59	251.22
725.92	251.08
726.25	250.86
726.58	250.61
726.91	250.49
727.24	250.29
727.57	250.10
727.91	249.82
728.24	249.67
728.57	249.39
728.90	249.28
729.23	249.05
729.56	248.98
729.89	248.83
730.22	248.62
730.55	248.45
730.89	248.17
731.22	248.00
731.55	247.75
731.88	247.53
732.21	247.30
732.54	247.04
732.87	246.86
733.20	246.77
733.53	246.64
733.86	246.45
734.19	246.23
734.52	246.15
734.85	246.36
735.18	246.17
735.51	246.20
735.84	246.03
736.17	245.86
736.50	245.47
736.83	245.86
737.16	245.68
737.49	245.52
737.82	245.33
738.15	245.28
738.48	245.23
738.81	245.12
739.14	244.90
739.47	244.82
739.80	244.68
740.13	244.57
740.46	244.40
740.79	244.18
741.12	243.93
741.45	243.69
741.78	243.24
742.11	243.21
742.44	243.00
742.77	242.89
743.10	242.69
743.43	242.54
743.75	241.85
744.08	242.40
744.41	242.26
744.74	242.19
745.07	241.91
745.40	241.86
745.73	241.90
746.06	241.76
746.39	241.65
746.71	241.52
747.04	241.33
747.37	241.20
747.70	241.21
748.03	241.20
748.36	241.21
748.68	241.15
749.01	240.86
749.34	240.71
749.67	240.62
750.00	240.60
750.33	240.81
750.65	240.73
750.98	240.02
751.31	239.99
751.64	239.86
751.97	240.03
752.29	239.84
752.62	239.47
752.95	239.33
753.28	239.13
753.60	238.96
753.93	238.94
754.26	238.85
754.59	238.57
754.91	238.41
755.24	238.12
755.57	238.01
755.90	237.95
756.22	237.81
756.55	237.60
756.88	237.33
757.20	236.96
757.53	236.77
757.86	236.65
758.19	236.51
758.51	236.43
758.84	235.98
759.17	235.86
759.49	235.78
759.82	235.98
760.15	235.97
760.47	235.87
760.80	235.58
761.13	235.53
761.45	235.40
761.78	235.35
762.11	235.33
762.43	235.10
762.76	234.93
763.08	234.92
763.41	234.85
763.74	234.89
764.06	234.78
764.39	234.69
764.71	234.60
765.04	234.43
765.37	234.25
765.69	234.24
766.02	234.16
766.34	234.06
766.67	233.79
767.00	233.78
767.32	233.95
767.65	234.22
767.97	234.09
768.30	234.07
768.62	233.95
768.95	233.85
769.27	233.84
769.60	233.90
769.92	233.77
770.25	233.68
770.57	233.51
770.90	233.46
771.22	233.36
771.55	233.31
771.87	233.38
772.20	233.37
772.52	233.75
772.85	234.32
773.17	234.25
773.50	234.19
773.82	234.10
774.15	233.85
774.47	233.53
774.80	233.40
775.12	233.38
775.45	233.36
775.77	233.34
776.09	233.33
776.42	233.32
776.74	233.39
777.07	233.34
777.39	233.29
777.72	233.23
778.04	233.30
778.36	233.22
778.69	233.13
779.01	233.17
779.33	232.72
779.66	232.10
779.98	232.14
780.31	232.14
780.63	232.23
780.95	232.30
781.28	232.24
781.60	232.20
781.92	232.18
782.25	232.10
782.57	232.09
782.89	232.02
783.22	231.85
783.54	231.70
783.86	231.62
784.19	231.65
784.51	231.75
784.83	231.63
785.16	231.56
785.48	231.47
785.80	231.30
786.12	231.32
786.45	231.25
786.77	231.21
787.09	231.11
787.42	230.94
787.74	230.90
788.06	230.92
788.38	230.89
788.71	230.76
789.03	230.80
789.35	230.81
789.67	230.73
789.99	230.74
790.32	230.66
790.64	230.81
790.96	231.13
791.28	230.93
791.61	230.88
791.93	230.95
792.25	230.96
792.57	231.28
792.89	231.10
793.21	231.14
793.54	231.07
793.86	230.99
794.18	231.02
794.50	230.80
794.82	230.77
795.14	230.80
795.47	230.85
795.79	230.77
796.11	230.68
796.43	230.58
796.75	230.54
797.07	230.55
797.39	230.43
797.71	229.99
798.04	229.99
798.36	230.00
798.68	230.00
799.00	229.95
799.32	229.67
799.64	229.84
799.96	229.80
800.28	229.80
800.60	229.74
800.92	229.74
801.24	229.74
801.56	229.75
801.89	229.66
802.21	229.70
802.53	229.58
802.85	229.61
803.17	229.85
803.49	229.76
803.81	229.69
804.13	229.59
804.45	229.56
804.77	229.60
805.09	229.54
805.41	229.38
805.73	229.34
806.05	229.23
806.37	229.09
806.69	229.07
807.01	229.05
807.33	229.06
807.65	228.83
807.97	229.05
808.28	228.94
808.60	228.98
808.92	228.82
809.24	229.06
809.56	228.95
809.88	228.77
810.20	228.81
810.52	228.88
810.84	228.86
811.16	228.76
811.48	228.67
811.80	228.84
812.12	228.80
812.43	228.80
812.75	228.81
813.07	228.79
813.39	228.74
813.71	228.68
814.03	228.62
814.35	228.67
814.67	228.43
814.98	228.42
815.30	228.37
815.62	228.28
815.94	228.04
816.26	228.30
816.58	228.23
816.89	228.25
817.21	228.15
817.53	228.08
817.85	228.21
818.17	228.17
818.48	227.93
818.80	228.08
819.12	228.02
819.44	227.99
819.76	228.00
820.07	228.02
820.39	227.99
820.71	228.14
821.03	228.10
821.34	228.09
821.66	228.15
821.98	228.21
822.30	228.32
822.61	228.59
822.93	228.32
823.25	228.35
823.57	228.31
823.88	228.42
824.20	228.48
824.52	228.45
824.83	228.48
825.15	228.59
825.47	228.52
825.79	228.63
826.10	228.59
826.42	228.51
826.74	228.55
827.05	228.55
827.37	228.47
827.69	228.49
828.00	228.55
828.32	228.53
828.64	228.42
828.95	228.65
829.27	228.50
829.58	228.53
829.90	228.55
830.22	228.58
830.53	228.44
830.85	228.46
831.17	228.36
831.48	228.38
831.80	228.28
832.11	228.28
832.43	228.15
832.75	228.20
833.06	228.54
833.38	228.42
833.69	228.41
834.01	228.42
834.32	228.45
834.64	228.32
834.96	228.29
835.27	228.30
835.59	228.10
835.90	228.04
836.22	228.02
836.53	227.96
836.85	227.89
837.16	228.40
837.48	228.36
837.79	228.51
838.11	228.45
838.42	228.51
838.74	228.56
839.05	228.50
839.37	228.41
839.68	228.07
840.00	228.02
840.31	228.11
840.63	228.10
840.94	227.95
841.26	227.99
841.57	227.99
841.88	228.00
842.20	227.89
842.51	227.82
842.83	227.82
843.14	228.20
843.46	228.19
843.77	227.85
844.08	227.83
844.40	227.74
844.71	227.73
845.03	227.70
845.34	227.65
845.65	227.73
845.97	227.77
846.28	227.79
846.60	227.85
846.91	227.71
847.22	227.69
847.54	227.84
847.85	227.91
848.16	227.85
848.48	227.74
848.79	228.03
849.10	228.08
849.42	228.07
849.73	227.69
850.04	227.64
850.36	227.58
850.67	227.68
850.98	227.66
851.30	227.71
851.61	227.63
851.92	227.59
852.23	227.67
852.55	227.74
852.86	227.78
853.17	227.79
853.49	227.95
853.80	228.00
854.11	228.07
854.42	228.07
854.74	228.04
855.05	228.10
855.36	227.83
855.67	227.76
855.99	227.82
856.30	228.30
856.61	228.28
856.92	228.20
857.23	228.16
857.55	228.06
857.86	228.07
858.17	228.16
858.48	228.17
858.79	228.02
859.11	228.05
859.42	227.98
859.73	227.96
860.04	227.90
860.35	227.84
860.66	227.66
860.98	227.66
861.29	227.68
861.60	227.72
861.91	227.84
862.22	227.87
862.53	227.74
862.84	227.18
863.16	227.38
863.47	227.31
863.78	227.17
864.09	227.35
864.40	227.38
864.71	227.34
865.02	227.34
865.33	227.29
865.64	227.15
865.95	227.10
866.27	227.43
866.58	227.32
866.89	227.36
867.20	227.37
867.51	227.31
867.82	227.28
868.13	227.34
868.44	227.26
868.75	227.31
869.06	227.35
869.37	227.43
869.68	227.26
869.99	227.35
870.30	227.39
870.61	227.31
870.92	227.15
871.23	227.13
871.54	227.14
871.85	227.25
872.16	227.31
872.47	227.35
872.78	227.00
873.09	227.10
873.40	226.95
873.71	227.03
874.02	227.01
874.33	227.03
874.64	226.95
874.95	227.01
875.26	226.88
875.56	226.86
875.87	226.84
876.18	226.84
876.49	227.34
876.80	227.28
877.11	227.27
877.42	227.33
877.73	227.30
878.04	227.26
878.35	227.26
878.66	227.26
878.96	227.25
879.27	227.21
879.58	227.18
879.89	227.22
880.20	227.31
880.51	227.29
880.82	227.32
881.12	227.35
881.43	227.22
881.74	227.23
882.05	227.22
882.36	227.25
882.67	227.30
882.97	226.73
883.28	226.75
883.59	226.70
883.90	226.75
884.21	226.88
884.51	226.94
884.82	226.92
885.13	226.94
885.44	226.92
885.74	227.03
886.05	227.00
886.36	227.00
886.67	226.82
886.98	227.13
887.28	227.09
887.59	227.07
887.90	227.12
888.20	227.10
888.51	227.21
888.82	227.16
889.13	227.14
889.43	227.59
889.74	227.57
890.05	227.51
890.35	227.48
890.66	227.43
890.97	227.37
891.28	227.36
891.58	227.33
891.89	227.34
892.20	227.24
892.50	227.22
892.81	227.14
893.12	227.17
893.42	226.81
893.73	226.85
894.04	226.90
894.34	226.98
894.65	227.02
894.95	226.92
895.26	226.93
895.57	227.13
895.87	226.66
896.18	226.82
896.48	226.93
896.79	226.92
897.10	226.98
897.40	226.94
897.71	227.04
898.01	227.04
898.32	227.05
898.63	227.04
898.93	227.10
899.24	227.14
899.54	227.16
899.85	227.27
900.15	227.28
900.46	227.32
900.76	227.32
901.07	227.24
901.38	227.31
901.68	227.33
901.99	227.14
902.29	227.29
902.60	227.19
902.90	227.15
903.21	227.18
903.51	227.05
903.82	227.17
904.12	227.14
904.43	227.23
904.73	227.28
905.03	227.35
905.34	227.72
905.64	227.74
905.95	227.69
906.25	227.72
906.56	227.73
906.86	227.67
907.17	227.70
907.47	227.72
907.77	227.68
908.08	227.69
908.38	227.67
908.69	227.63
908.99	227.69
909.30	227.75
909.60	227.73
909.90	227.80
910.21	227.72
910.51	227.60
910.81	227.54
911.12	227.56
911.42	227.56
911.73	227.14
912.03	227.15
912.33	227.20
912.64	227.14
912.94	227.10
913.24	226.96
913.55	226.85
913.85	226.78
914.15	226.84
914.46	226.81
914.76	226.86
915.06	226.78
915.37	226.68
915.67	226.62
915.97	226.63
916.27	226.51
916.58	226.47
916.88	226.44
917.18	226.40
917.49	226.68
917.79	226.66
918.09	226.77
918.39	226.90
918.70	226.89
919.00	226.86
919.30	227.09
919.60	227.08
919.91	227.05
920.21	227.15
920.51	227.09
920.81	227.04
921.12	227.03
921.42	227.10
921.72	227.20
922.02	227.24
922.32	227.33
922.63	227.41
922.93	227.66
923.23	227.71
923.53	227.77
923.83	227.46
924.13	227.50
924.44	227.41
924.74	227.44
925.04	227.55
925.34	227.60
925.64	227.32
925.94	227.33
926.24	227.59
926.55	227.57
926.85	227.54
927.15	227.60
927.45	227.66
927.75	227.58
928.05	227.56
928.35	227.54
928.65	227.53
928.95	227.56
929.26	227.37
929.56	227.45
929.86	227.45
930.16	227.37
930.46	227.27
930.76	227.26
931.06	227.00
931.36	226.85
931.66	226.91
931.96	226.95
932.26	227.02
932.56	226.83
932.86	226.86
933.16	226.95
933.46	226.85
933.76	226.76
934.06	226.87
934.36	227.08
934.66	226.98
934.96	226.97
935.26	226.99
935.56	227.08
935.86	227.05
936.16	226.90
936.46	226.91
936.76	226.88
937.06	226.81
937.36	226.88
937.66	226.89
937.96	226.90
938.26	226.82
938.56	226.74
938.86	226.78
939.16	226.87
939.46	226.86
939.76	226.92
940.06	226.91
940.35	226.87
940.65	226.61
940.95	226.66
941.25	226.50
941.55	226.45
941.85	226.36
942.15	226.42
942.45	226.57
942.75	226.60
943.04	226.66
943.34	226.81
943.64	226.77
943.94	226.73
944.24	226.66
944.54	226.77
944.84	226.77
945.13	226.71
945.43	226.56
945.73	226.58
946.03	226.50
946.33	226.40
946.62	226.31
946.92	226.26
947.22	226.38
947.52	226.44
947.82	226.44
948.11	226.47
948.41	226.37
948.71	226.21
949.01	226.26
949.31	226.27
949.60	226.16
949.90	226.30
950.20	226.34
950.50	226.39
950.79	226.35
951.09	226.55
951.39	226.53
951.69	226.55
951.98	226.64
952.28	226.67
952.58	226.71
952.87	226.76
953.17	226.86
953.47	226.80
953.76	226.79
954.06	226.74
954.36	226.61
954.66	226.60
954.95	226.73
955.25	226.72
955.55	226.73
955.84	226.74
956.14	226.77
956.44	226.75
956.73	226.65
957.03	226.68
957.32	226.59
957.62	226.64
957.92	226.78
958.21	226.67
958.51	227.26
958.81	227.32
959.10	227.35
959.40	227.45
959.69	227.49
959.99	227.54
960.29	227.60
960.58	227.62
960.88	227.77
961.17	227.78
961.47	227.82
961.76	227.79
962.06	227.85
962.36	227.78
962.65	227.81
962.95	227.84
963.24	227.83
963.54	227.83
963.83	227.82
964.13	227.74
964.42	227.67
964.72	227.25
965.01	227.28
965.31	227.24
965.60	227.11
965.90	227.43
966.19	227.35
966.49	227.35
966.78	227.45
967.08	227.39
967.37	227.37
967.67	227.29
967.96	227.39
968.26	227.40
968.55	227.43
968.85	227.40
969.14	227.44
969.43	227.37
969.73	227.32
970.02	227.30
970.32	227.24
970.61	227.21
970.91	227.05
971.20	226.99
971.49	226.88
971.79	226.92
972.08	226.51
972.38	226.52
972.67	226.45
972.96	226.41
973.26	226.30
973.55	226.49
973.85	226.49
974.14	226.40
974.43	226.40
974.73	226.34
975.02	226.26
975.31	226.20
975.61	226.19
975.90	226.16
976.19	226.08
976.49	226.13
976.78	226.19
977.07	226.24
977.37	226.19
977.66	226.33
977.95	226.25
978.24	226.27
978.54	226.37
978.83	226.34
979.12	226.26
979.42	226.31
979.71	226.19
980.00	226.10
980.29	226.14
980.59	226.06
980.88	226.18
981.17	226.19
981.46	226.24
981.76	226.21
982.05	226.34
982.34	226.31
982.63	226.31
982.93	226.26
983.22	226.36
983.51	226.45
983.80	226.48
984.09	226.52
984.39	226.55
984.68	226.43
984.97	226.50
985.26	226.50
985.55	226.60
985.85	226.43
986.14	226.56
986.43	226.56
986.72	226.55
987.01	226.42
987.30	226.43
987.59	226.38
987.89	226.42
988.18	226.24
988.47	226.27
988.76	226.21
989.05	226.16
989.34	226.10
989.63	226.16
989.92	226.07
990.22	226.07
990.51	226.02
990.80	226.04
991.09	226.05
991.38	226.08
991.67	225.95
991.96	226.02
992.25	226.02
992.54	225.97
992.83	225.96
993.12	225.97
993.41	226.06
993.70	226.24
993.99	226.32
994.28	226.42
994.58	226.45
994.87	226.47
995.16	226.44
995.45	226.37
995.74	226.22
996.03	226.30
996.32	226.39
996.61	226.50
996.90	226.48
997.19	226.50
997.48	226.53
997.77	226.44
998.06	226.38
998.34	226.30
998.63	226.35
998.92	226.35
999.21	226.35
999.50	226.38
999.79	226.24
1000.08	226.17
1000.37	226.20
1000.66	226.21
1000.95	226.25
1001.24	226.34
1001.53	226.43
1001.82	226.45
1002.11	226.36
1002.40	226.36
1002.68	226.53
1002.97	226.92
1003.26	226.82
1003.55	226.79
1003.84	226.86
1004.13	227.02
1004.42	227.09
1004.71	227.13
1004.99	227.12
1005.28	227.31
1005.57	227.24
1005.86	227.23
1006.15	227.20
1006.44	227.15
1006.72	227.22
1007.01	227.22
1007.30	227.16
1007.59	227.15
1007.88	227.20
1008.17	227.18
1008.45	227.02
1008.74	226.77
1009.03	226.48
1009.32	226.51
1009.60	226.53
1009.89	226.55
1010.18	226.41
1010.47	226.40
1010.76	226.35
1011.04	226.37
1011.33	226.28
1011.62	226.35
1011.91	226.35
1012.19	226.40
1012.48	226.41
1012.77	226.42
1013.05	226.61
1013.34	226.75
1013.63	226.67
1013.92	226.64
1014.20	226.67
1014.49	226.76
1014.78	226.83
1015.06	226.74
1015.35	226.70
1015.64	226.80
1015.92	226.82
1016.21	226.83
1016.50	226.75
1016.78	226.80
1017.07	226.81
1017.36	226.76
1017.64	226.72
1017.93	226.78
1018.22	226.75
1018.50	226.65
1018.79	226.56
1019.08	226.40
1019.36	226.34
1019.65	226.30
1019.93	226.38
1020.22	226.45
1020.51	226.71
1020.79	226.66
1021.08	225.95
1021.36	223.95
1021.65	225.90
1021.94	227.15
1022.22	226.50
1022.51	225.15
1022.79	227.90
1023.08	227.20
1023.36	232.45
1023.65	225.90
>>>>>End Processed Spectral Data<<<<<
