SpectraSuite Data File
++++++++++++++++++++++++++++++++++++
Date: Wed Sep 04 17:58:05 EDT 2013
User: lab3
Dark Spectrum Present: Yes
Reference Spectrum Present: No
Number of Sampled Component Spectra: 1
Spectrometers: USB2E7196
Integration Time (usec): 170000 (USB2E7196)
Spectra Averaged: 20 (USB2E7196)
Boxcar Smoothing: 10 (USB2E7196)
Correct for Electrical Dark: No (USB2E7196)
Strobe/Lamp Enabled: No (USB2E7196)
Correct for Detector Non-linearity: No (USB2E7196)
Correct for Stray Light: No (USB2E7196)
Number of Pixels in Processed Spectrum: 2048
>>>>>Begin Processed Spectral Data<<<<<
339.09	0.00
339.48	213.35
339.86	214.25
340.24	215.25
340.63	217.40
341.01	225.55
341.39	221.00
341.78	222.35
342.16	224.30
342.54	224.10
342.93	212.54
343.31	223.25
343.69	223.79
344.07	224.33
344.46	224.85
344.84	225.30
345.22	225.29
345.60	225.57
345.99	225.78
346.37	225.90
346.75	225.97
347.13	226.03
347.52	226.09
347.90	226.26
348.28	226.30
348.66	226.47
349.05	226.33
349.43	226.40
349.81	226.46
350.19	226.52
350.57	226.53
350.96	226.63
351.34	226.73
351.72	226.88
352.10	226.97
352.48	227.04
352.87	227.10
353.25	227.15
353.63	227.14
354.01	227.19
354.39	227.17
354.77	227.28
355.15	227.49
355.54	227.58
355.92	227.48
356.30	227.59
356.68	228.00
357.06	228.19
357.44	228.17
357.82	228.13
358.20	228.60
358.58	228.62
358.97	228.69
359.35	228.83
359.73	228.96
360.11	228.95
360.49	229.00
360.87	229.02
361.25	229.10
361.63	229.35
362.01	229.42
362.39	229.51
362.77	229.62
363.15	229.57
363.53	229.51
363.91	229.64
364.29	229.62
364.67	229.15
365.05	229.18
365.43	229.29
365.81	229.46
366.19	229.40
366.57	229.58
366.95	229.55
367.33	229.43
367.71	229.32
368.09	229.45
368.47	229.43
368.85	229.42
369.23	229.55
369.61	229.34
369.99	229.50
370.37	229.56
370.75	229.80
371.13	229.74
371.51	229.72
371.89	229.77
372.27	229.75
372.65	229.79
373.03	229.81
373.41	229.69
373.78	229.68
374.16	229.28
374.54	229.11
374.92	229.11
375.30	229.14
375.68	229.09
376.06	229.05
376.44	228.94
376.82	228.90
377.19	228.81
377.57	228.76
377.95	228.50
378.33	228.44
378.71	228.05
379.09	228.03
379.47	227.97
379.84	227.78
380.22	227.71
380.60	227.59
380.98	227.42
381.36	227.46
381.73	227.30
382.11	227.31
382.49	227.31
382.87	227.19
383.25	227.10
383.62	227.61
384.00	227.45
384.38	227.44
384.76	227.44
385.13	227.56
385.51	227.48
385.89	227.36
386.27	227.25
386.64	227.25
387.02	227.15
387.40	227.06
387.78	227.11
388.15	227.14
388.53	227.06
388.91	227.02
389.29	226.94
389.66	226.97
390.04	226.92
390.42	226.97
390.79	226.95
391.17	226.89
391.55	226.28
391.92	226.31
392.30	226.37
392.68	226.25
393.05	226.20
393.43	226.23
393.81	226.31
394.18	226.29
394.56	226.31
394.94	226.48
395.31	226.41
395.69	226.59
396.06	226.65
396.44	226.70
396.82	226.79
397.19	226.97
397.57	227.01
397.95	227.11
398.32	227.03
398.70	227.16
399.07	227.37
399.45	227.48
399.82	227.58
400.20	227.63
400.58	227.75
400.95	227.67
401.33	227.91
401.70	228.34
402.08	228.50
402.45	228.67
402.83	228.90
403.20	229.15
403.58	229.19
403.95	229.39
404.33	229.68
404.71	229.88
405.08	230.41
405.46	230.59
405.83	230.87
406.21	231.11
406.58	231.34
406.96	231.64
407.33	231.97
407.70	232.34
408.08	233.04
408.45	233.51
408.83	234.05
409.20	234.36
409.58	234.59
409.95	235.14
410.33	235.57
410.70	235.88
411.08	236.55
411.45	237.19
411.82	237.77
412.20	238.46
412.57	239.38
412.95	239.65
413.32	240.49
413.69	241.30
414.07	242.23
414.44	243.34
414.82	244.30
415.19	245.47
415.56	246.56
415.94	247.55
416.31	248.94
416.68	250.31
417.06	251.94
417.43	253.54
417.81	255.26
418.18	257.11
418.55	259.10
418.93	261.06
419.30	263.14
419.67	265.38
420.04	267.72
420.42	270.02
420.79	273.11
421.16	275.97
421.54	279.04
421.91	282.09
422.28	285.10
422.66	288.46
423.03	291.96
423.40	295.38
423.77	298.95
424.15	302.53
424.52	306.33
424.89	310.54
425.26	314.51
425.64	318.30
426.01	322.53
426.38	326.87
426.75	331.46
427.13	335.98
427.50	340.76
427.87	345.72
428.24	350.80
428.61	355.35
428.99	360.75
429.36	366.26
429.73	371.76
430.10	377.29
430.47	382.90
430.85	388.45
431.22	394.83
431.59	401.69
431.96	408.01
432.33	415.03
432.70	421.68
433.08	429.66
433.45	437.14
433.82	444.49
434.19	452.72
434.56	460.94
434.93	468.70
435.30	476.54
435.68	485.09
436.05	493.57
436.42	501.92
436.79	509.63
437.16	518.02
437.53	526.95
437.90	535.66
438.27	544.25
438.64	553.21
439.01	561.41
439.38	568.64
439.75	575.83
440.13	584.07
440.50	591.73
440.87	597.66
441.24	603.99
441.61	611.11
441.98	616.05
442.35	621.91
442.72	628.16
443.09	633.96
443.46	637.35
443.83	639.56
444.20	641.60
444.57	644.16
444.94	645.23
445.31	646.31
445.68	647.69
446.05	647.94
446.42	646.76
446.79	645.28
447.16	643.60
447.53	642.24
447.90	638.34
448.27	634.58
448.64	629.73
449.01	626.04
449.37	619.75
449.74	613.86
450.11	606.86
450.48	598.86
450.85	590.76
451.22	583.84
451.59	577.22
451.96	570.86
452.33	562.72
452.70	555.36
453.07	546.57
453.43	537.38
453.80	528.78
454.17	520.56
454.54	512.85
454.91	504.68
455.28	496.66
455.65	489.16
456.02	482.22
456.38	475.86
456.75	468.01
457.12	461.40
457.49	455.12
457.86	448.69
458.23	443.50
458.59	437.86
458.96	432.14
459.33	427.00
459.70	421.81
460.07	417.78
460.43	413.14
460.80	408.88
461.17	405.12
461.54	401.24
461.91	397.52
462.27	393.58
462.64	390.23
463.01	386.75
463.38	383.42
463.74	379.45
464.11	376.41
464.48	373.95
464.85	371.17
465.21	368.97
465.58	366.67
465.95	363.85
466.32	361.50
466.68	359.30
467.05	357.01
467.42	354.83
467.78	352.44
468.15	350.21
468.52	348.52
468.88	346.33
469.25	344.38
469.62	342.85
469.98	341.27
470.35	339.84
470.72	338.33
471.08	336.57
471.45	335.28
471.82	334.07
472.18	332.53
472.55	331.50
472.92	330.14
473.28	328.95
473.65	327.84
474.02	326.83
474.38	325.88
474.75	325.16
475.11	324.25
475.48	323.67
475.85	323.01
476.21	322.47
476.58	321.99
476.94	321.65
477.31	321.18
477.67	320.75
478.04	320.37
478.41	320.15
478.77	320.52
479.14	320.24
479.50	320.06
479.87	320.07
480.23	320.11
480.60	320.17
480.96	320.22
481.33	320.70
481.69	320.92
482.06	321.25
482.42	321.53
482.79	321.83
483.15	322.20
483.52	322.89
483.88	323.33
484.25	323.94
484.61	324.55
484.98	325.21
485.34	326.18
485.71	327.10
486.07	328.12
486.44	328.72
486.80	329.86
487.17	331.02
487.53	332.38
487.90	333.80
488.26	335.44
488.62	337.07
488.99	338.55
489.35	340.23
489.72	341.93
490.08	343.83
490.44	345.96
490.81	348.12
491.17	350.29
491.54	352.68
491.90	355.27
492.26	357.90
492.63	360.77
492.99	363.57
493.36	366.65
493.72	369.91
494.08	373.30
494.45	377.02
494.81	380.91
495.17	384.84
495.54	388.98
495.90	393.26
496.26	397.86
496.63	402.44
496.99	407.29
497.35	412.46
497.72	417.69
498.08	423.18
498.44	428.89
498.80	435.01
499.17	441.16
499.53	447.29
499.89	454.05
500.26	460.95
500.62	468.00
500.98	475.53
501.34	483.03
501.71	490.91
502.07	498.75
502.43	506.81
502.79	515.22
503.16	523.99
503.52	533.07
503.88	542.14
504.24	551.83
504.60	561.94
504.97	572.27
505.33	582.85
505.69	593.89
506.05	605.09
506.41	616.30
506.78	628.12
507.14	640.27
507.50	652.64
507.86	665.23
508.22	678.26
508.59	691.21
508.95	704.88
509.31	718.97
509.67	733.24
510.03	747.89
510.39	762.61
510.75	777.52
511.12	792.87
511.48	808.69
511.84	824.57
512.20	840.51
512.56	856.90
512.92	873.67
513.28	890.44
513.64	907.58
514.00	925.30
514.37	943.04
514.73	961.27
515.09	979.36
515.45	998.00
515.81	1016.36
516.17	1035.26
516.53	1053.91
516.89	1072.61
517.25	1091.88
517.61	1112.15
517.97	1132.33
518.33	1152.59
518.69	1172.71
519.05	1193.26
519.41	1214.08
519.77	1235.27
520.13	1255.87
520.49	1276.69
520.85	1299.21
521.21	1320.28
521.57	1341.49
521.93	1362.20
522.29	1383.53
522.65	1404.52
523.01	1425.52
523.37	1446.42
523.73	1467.35
524.09	1488.25
524.45	1509.02
524.81	1530.22
525.17	1550.60
525.53	1571.22
525.89	1592.21
526.25	1613.09
526.61	1633.77
526.97	1654.55
527.33	1675.88
527.68	1697.93
528.04	1719.18
528.40	1738.91
528.76	1760.03
529.12	1780.37
529.48	1801.51
529.84	1821.55
530.20	1842.93
530.56	1863.70
530.91	1884.75
531.27	1905.46
531.63	1926.11
531.99	1946.81
532.35	1966.73
532.71	1987.22
533.07	2007.99
533.42	2027.80
533.78	2048.00
534.14	2067.97
534.50	2087.20
534.86	2106.48
535.21	2124.05
535.57	2142.53
535.93	2160.14
536.29	2178.33
536.65	2196.51
537.00	2214.03
537.36	2231.75
537.72	2248.05
538.08	2265.22
538.44	2282.29
538.79	2299.02
539.15	2315.35
539.51	2331.19
539.87	2346.30
540.22	2360.76
540.58	2375.33
540.94	2388.80
541.29	2401.46
541.65	2414.01
542.01	2426.99
542.37	2437.49
542.72	2448.68
543.08	2459.65
543.44	2471.53
543.79	2481.47
544.15	2491.52
544.51	2501.74
544.87	2511.43
545.22	2520.33
545.58	2527.77
545.94	2534.72
546.29	2541.02
546.65	2547.71
547.01	2553.46
547.36	2559.58
547.72	2564.76
548.07	2568.60
548.43	2573.97
548.79	2578.67
549.14	2582.86
549.50	2586.51
549.86	2590.94
550.21	2594.80
550.57	2598.21
550.92	2599.88
551.28	2601.40
551.64	2603.86
551.99	2605.75
552.35	2607.59
552.70	2609.56
553.06	2611.62
553.41	2613.08
553.77	2614.56
554.13	2616.24
554.48	2618.03
554.84	2619.12
555.19	2620.24
555.55	2622.35
555.90	2621.64
556.26	2620.86
556.61	2619.17
556.97	2617.21
557.32	2616.24
557.68	2615.14
558.03	2613.30
558.39	2611.87
558.74	2610.94
559.10	2607.45
559.45	2604.09
559.81	2599.27
560.16	2594.23
560.52	2589.18
560.87	2584.97
561.23	2579.84
561.58	2573.64
561.94	2566.80
562.29	2559.15
562.64	2552.23
563.00	2543.80
563.35	2537.30
563.71	2530.40
564.06	2524.10
564.42	2517.35
564.77	2510.36
565.12	2502.75
565.48	2495.34
565.83	2487.38
566.19	2479.34
566.54	2471.46
566.89	2463.37
567.25	2455.90
567.60	2448.89
567.96	2441.32
568.31	2432.92
568.66	2424.30
569.02	2415.36
569.37	2407.46
569.72	2400.15
570.08	2390.70
570.43	2381.17
570.78	2372.07
571.14	2362.91
571.49	2352.69
571.84	2343.41
572.20	2332.47
572.55	2322.28
572.90	2311.22
573.26	2300.87
573.61	2289.82
573.96	2278.55
574.31	2266.53
574.67	2254.62
575.02	2241.85
575.37	2229.16
575.72	2215.80
576.08	2203.66
576.43	2191.05
576.78	2177.59
577.13	2163.90
577.49	2151.18
577.84	2139.21
578.19	2126.99
578.54	2114.29
578.90	2102.56
579.25	2090.04
579.60	2077.45
579.95	2064.37
580.30	2051.33
580.66	2037.72
581.01	2023.87
581.36	2009.92
581.71	1997.02
582.06	1983.89
582.42	1971.15
582.77	1958.35
583.12	1946.46
583.47	1934.08
583.82	1922.16
584.17	1910.27
584.53	1898.41
584.88	1885.69
585.23	1872.44
585.58	1858.17
585.93	1844.84
586.28	1831.29
586.63	1816.96
586.98	1802.71
587.34	1789.55
587.69	1776.39
588.04	1763.93
588.39	1751.98
588.74	1740.13
589.09	1727.97
589.44	1715.08
589.79	1702.95
590.14	1691.30
590.49	1679.04
590.84	1666.88
591.19	1654.78
591.54	1642.13
591.89	1630.04
592.25	1619.71
592.60	1608.22
592.95	1596.73
593.30	1584.66
593.65	1572.65
594.00	1560.84
594.35	1551.02
594.70	1539.05
595.05	1527.54
595.40	1515.40
595.75	1503.37
596.10	1491.88
596.45	1480.39
596.80	1469.83
597.15	1458.52
597.50	1446.36
597.85	1435.04
598.19	1423.13
598.54	1411.21
598.89	1400.05
599.24	1389.40
599.59	1377.58
599.94	1366.78
600.29	1356.43
600.64	1346.04
600.99	1335.06
601.34	1325.33
601.69	1314.34
602.04	1304.38
602.39	1294.72
602.74	1285.51
603.08	1275.90
603.43	1266.79
603.78	1257.01
604.13	1247.19
604.48	1237.25
604.83	1227.64
605.18	1217.86
605.53	1208.61
605.87	1199.50
606.22	1190.93
606.57	1181.42
606.92	1172.06
607.27	1163.02
607.62	1154.22
607.96	1145.59
608.31	1137.76
608.66	1129.33
609.01	1120.49
609.36	1112.02
609.70	1103.34
610.05	1094.60
610.40	1086.36
610.75	1077.50
611.10	1069.15
611.44	1060.42
611.79	1052.12
612.14	1044.41
612.49	1036.50
612.83	1028.74
613.18	1021.00
613.53	1013.05
613.88	1004.92
614.22	997.17
614.57	989.13
614.92	981.01
615.27	973.52
615.61	965.67
615.96	958.04
616.31	950.72
616.65	943.70
617.00	936.28
617.35	928.78
617.70	921.51
618.04	914.40
618.39	907.25
618.74	901.00
619.08	894.15
619.43	887.00
619.78	879.89
620.12	872.76
620.47	865.81
620.82	858.65
621.16	852.00
621.51	845.55
621.85	839.21
622.20	832.63
622.55	825.92
622.89	819.49
623.24	813.11
623.59	806.60
623.93	800.08
624.28	793.95
624.62	788.46
624.97	782.63
625.32	776.62
625.66	770.69
626.01	764.41
626.35	758.88
626.70	753.13
627.04	747.75
627.39	742.15
627.73	736.86
628.08	731.61
628.43	726.15
628.77	720.54
629.12	715.20
629.46	710.34
629.81	705.68
630.15	700.98
630.50	696.05
630.84	691.07
631.19	686.38
631.53	681.74
631.88	676.40
632.22	671.42
632.57	666.97
632.91	662.41
633.26	657.96
633.60	653.11
633.95	648.51
634.29	643.66
634.64	639.24
634.98	634.41
635.32	630.06
635.67	626.06
636.01	622.06
636.36	617.75
636.70	613.81
637.05	609.56
637.39	605.33
637.73	601.18
638.08	597.19
638.42	592.75
638.77	588.45
639.11	584.14
639.45	579.92
639.80	575.54
640.14	571.30
640.49	567.29
640.83	563.55
641.17	559.86
641.52	556.16
641.86	552.61
642.20	549.37
642.55	545.65
642.89	541.97
643.23	538.43
643.58	535.40
643.92	531.65
644.26	528.35
644.61	525.12
644.95	521.71
645.29	518.35
645.64	515.34
645.98	512.24
646.32	509.32
646.66	506.32
647.01	503.33
647.35	500.65
647.69	497.80
648.04	495.03
648.38	492.27
648.72	489.54
649.06	486.55
649.41	483.47
649.75	480.49
650.09	477.65
650.43	474.70
650.78	471.69
651.12	468.99
651.46	466.01
651.80	463.24
652.14	460.64
652.49	458.16
652.83	455.58
653.17	452.98
653.51	450.34
653.85	447.83
654.20	445.45
654.54	442.80
654.88	440.17
655.22	437.72
655.56	435.29
655.90	432.83
656.25	430.59
656.59	428.39
656.93	426.29
657.27	424.34
657.61	421.94
657.95	419.70
658.29	417.38
658.64	415.36
658.98	413.11
659.32	410.83
659.66	408.64
660.00	406.49
660.34	404.41
660.68	402.40
661.02	400.41
661.36	398.38
661.70	396.30
662.05	394.42
662.39	392.67
662.73	390.88
663.07	389.24
663.41	387.32
663.75	385.26
664.09	383.40
664.43	381.31
664.77	379.59
665.11	377.80
665.45	376.27
665.79	374.59
666.13	372.86
666.47	371.18
666.81	369.43
667.15	367.73
667.49	366.20
667.83	364.80
668.17	363.21
668.51	361.77
668.85	360.51
669.19	359.27
669.53	357.55
669.87	355.98
670.21	354.34
670.55	353.01
670.89	351.95
671.23	350.46
671.57	349.00
671.91	347.69
672.25	346.39
672.58	345.05
672.92	343.48
673.26	342.20
673.60	341.02
673.94	339.89
674.28	338.70
674.62	337.54
674.96	336.28
675.30	335.14
675.64	333.88
675.97	332.61
676.31	331.26
676.65	330.07
676.99	328.99
677.33	327.95
677.67	326.74
678.01	325.39
678.34	324.42
678.68	323.56
679.02	322.39
679.36	321.36
679.70	320.31
680.04	319.50
680.37	318.54
680.71	317.49
681.05	316.58
681.39	315.61
681.73	314.61
682.06	313.65
682.40	312.71
682.74	311.87
683.08	311.16
683.42	310.18
683.75	309.36
684.09	308.50
684.43	307.64
684.77	306.78
685.10	306.05
685.44	305.25
685.78	304.38
686.12	303.62
686.45	302.78
686.79	301.92
687.13	301.09
687.46	300.34
687.80	299.68
688.14	298.83
688.48	298.04
688.81	297.22
689.15	296.64
689.49	295.92
689.82	295.13
690.16	294.20
690.50	293.65
690.83	292.92
691.17	292.07
691.51	291.36
691.84	290.84
692.18	290.05
692.52	289.35
692.85	288.72
693.19	288.29
693.52	287.68
693.86	286.99
694.20	286.34
694.53	285.70
694.87	284.99
695.21	284.29
695.54	283.78
695.88	283.14
696.21	282.33
696.55	281.78
696.88	281.25
697.22	280.63
697.56	280.01
697.89	279.49
698.23	279.06
698.56	278.49
698.90	277.96
699.23	277.49
699.57	277.04
699.90	276.44
700.24	275.77
700.58	275.33
700.91	274.95
701.25	274.88
701.58	274.75
701.92	274.46
702.25	274.09
702.59	273.56
702.92	273.15
703.26	272.74
703.59	272.22
703.93	272.16
704.26	271.84
704.60	271.42
704.93	270.93
705.26	270.41
705.60	270.10
705.93	269.50
706.27	269.23
706.60	268.92
706.94	268.73
707.27	268.39
707.61	267.99
707.94	267.61
708.27	266.90
708.61	266.11
708.94	265.67
709.28	265.33
709.61	264.94
709.94	264.57
710.28	264.25
710.61	263.93
710.95	263.14
711.28	263.08
711.61	262.69
711.95	262.40
712.28	261.97
712.61	261.57
712.95	261.57
713.28	261.42
713.61	260.96
713.95	260.47
714.28	260.17
714.61	259.85
714.95	259.45
715.28	259.04
715.61	258.75
715.95	258.34
716.28	257.95
716.61	257.75
716.95	257.45
717.28	257.10
717.61	256.75
717.94	256.52
718.28	255.87
718.61	255.59
718.94	255.32
719.27	255.17
719.61	254.92
719.94	254.56
720.27	253.99
720.60	253.75
720.94	253.53
721.27	253.17
721.60	252.97
721.93	252.78
722.27	252.72
722.60	252.61
722.93	252.42
723.26	252.24
723.59	251.93
723.93	251.79
724.26	251.53
724.59	251.27
724.92	251.10
725.25	250.97
725.59	250.77
725.92	250.61
726.25	250.38
726.58	250.21
726.91	249.95
727.24	249.82
727.57	249.60
727.91	249.30
728.24	249.23
728.57	248.97
728.90	248.75
729.23	248.36
729.56	248.35
729.89	248.12
730.22	247.93
730.55	247.76
730.89	247.52
731.22	247.34
731.55	247.17
731.88	246.95
732.21	246.74
732.54	246.55
732.87	246.34
733.20	246.17
733.53	245.98
733.86	245.84
734.19	245.69
734.52	245.66
734.85	245.84
735.18	245.65
735.51	245.69
735.84	245.60
736.17	245.73
736.50	245.29
736.83	245.70
737.16	245.64
737.49	245.52
737.82	245.40
738.15	245.36
738.48	245.20
738.81	245.08
739.14	244.86
739.47	244.67
739.80	244.59
740.13	244.50
740.46	244.30
740.79	244.12
741.12	243.95
741.45	243.70
741.78	243.35
742.11	243.33
742.44	243.05
742.77	242.94
743.10	242.62
743.43	242.56
743.75	241.94
744.08	242.39
744.41	242.20
744.74	241.98
745.07	241.73
745.40	241.77
745.73	241.77
746.06	241.70
746.39	241.67
746.71	241.47
747.04	241.28
747.37	241.08
747.70	241.01
748.03	240.88
748.36	240.80
748.68	240.61
749.01	240.40
749.34	240.29
749.67	240.20
750.00	240.17
750.33	240.38
750.65	240.32
750.98	239.59
751.31	239.55
751.64	239.52
751.97	239.75
752.29	239.61
752.62	239.34
752.95	239.21
753.28	239.02
753.60	238.90
753.93	238.91
754.26	238.99
754.59	238.76
754.91	238.62
755.24	238.54
755.57	238.50
755.90	238.31
756.22	238.13
756.55	238.00
756.88	237.81
757.20	237.35
757.53	237.11
757.86	237.00
758.19	236.87
758.51	236.72
758.84	236.32
759.17	236.18
759.49	236.12
759.82	236.25
760.15	236.20
760.47	236.09
760.80	235.85
761.13	235.71
761.45	235.64
761.78	235.53
762.11	235.39
762.43	235.18
762.76	235.03
763.08	235.05
763.41	234.92
763.74	234.83
764.06	234.70
764.39	234.63
764.71	234.52
765.04	234.47
765.37	234.35
765.69	234.29
766.02	234.16
766.34	234.03
766.67	233.75
767.00	233.69
767.32	233.83
767.65	234.00
767.97	233.92
768.30	233.82
768.62	233.78
768.95	233.71
769.27	233.65
769.60	233.72
769.92	233.56
770.25	233.47
770.57	233.37
770.90	233.36
771.22	233.28
771.55	233.21
771.87	233.11
772.20	233.01
772.52	233.33
772.85	233.85
773.17	233.74
773.50	233.73
773.82	233.63
774.15	233.29
774.47	233.03
774.80	232.91
775.12	232.88
775.45	232.75
775.77	232.72
776.09	232.75
776.42	232.69
776.74	232.76
777.07	232.74
777.39	232.63
777.72	232.60
778.04	232.61
778.36	232.49
778.69	232.51
779.01	232.54
779.33	232.13
779.66	231.56
779.98	231.59
780.31	231.47
780.63	231.70
780.95	231.77
781.28	231.67
781.60	231.66
781.92	231.69
782.25	231.79
782.57	231.75
782.89	231.67
783.22	231.65
783.54	231.58
783.86	231.63
784.19	231.63
784.51	231.71
784.83	231.68
785.16	231.72
785.48	231.64
785.80	231.61
786.12	231.61
786.45	231.61
786.77	231.57
787.09	231.64
787.42	231.43
787.74	231.41
788.06	231.44
788.38	231.37
788.71	231.20
789.03	231.21
789.35	231.20
789.67	231.10
789.99	231.08
790.32	230.91
790.64	230.83
790.96	231.25
791.28	231.03
791.61	230.91
791.93	230.89
792.25	230.86
792.57	231.15
792.89	231.05
793.21	231.07
793.54	231.00
793.86	230.89
794.18	230.87
794.50	230.85
794.82	230.80
795.14	230.84
795.47	230.97
795.79	230.83
796.11	230.80
796.43	230.75
796.75	230.77
797.07	230.84
797.39	230.82
797.71	230.41
798.04	230.40
798.36	230.51
798.68	230.48
799.00	230.43
799.32	230.16
799.64	230.23
799.96	230.19
800.28	230.33
800.60	230.27
800.92	230.25
801.24	230.20
801.56	230.22
801.89	230.22
802.21	230.15
802.53	230.09
802.85	230.12
803.17	230.30
803.49	230.12
803.81	230.02
804.13	229.94
804.45	229.84
804.77	229.90
805.09	229.77
805.41	229.70
805.73	229.61
806.05	229.53
806.37	229.41
806.69	229.25
807.01	229.11
807.33	229.07
807.65	228.90
807.97	229.08
808.28	229.01
808.60	228.89
808.92	228.87
809.24	229.12
809.56	228.98
809.88	228.83
810.20	228.87
810.52	228.97
810.84	228.90
811.16	228.83
811.48	228.67
811.80	228.88
812.12	228.80
812.43	228.87
812.75	228.76
813.07	228.69
813.39	228.78
813.71	228.69
814.03	228.66
814.35	228.65
814.67	228.43
814.98	228.44
815.30	228.39
815.62	228.23
815.94	227.90
816.26	228.07
816.58	227.94
816.89	227.97
817.21	227.82
817.53	227.83
817.85	227.83
818.17	227.94
818.48	227.65
818.80	227.76
819.12	227.72
819.44	227.71
819.76	227.71
820.07	227.69
820.39	227.66
820.71	227.73
821.03	227.72
821.34	227.72
821.66	227.74
821.98	227.85
822.30	227.88
822.61	228.13
822.93	227.90
823.25	227.90
823.57	227.80
823.88	227.89
824.20	227.86
824.52	227.94
824.83	227.86
825.15	227.93
825.47	227.90
825.79	227.92
826.10	227.88
826.42	227.92
826.74	227.92
827.05	227.95
827.37	227.92
827.69	227.95
828.00	227.90
828.32	227.89
828.64	227.80
828.95	228.06
829.27	228.03
829.58	228.10
829.90	228.22
830.22	228.24
830.53	228.18
830.85	228.19
831.17	228.07
831.48	228.09
831.80	228.12
832.11	228.06
832.43	227.98
832.75	227.96
833.06	228.23
833.38	228.12
833.69	228.08
834.01	228.15
834.32	228.10
834.64	228.10
834.96	228.09
835.27	228.17
835.59	228.00
835.90	227.90
836.22	227.85
836.53	227.78
836.85	227.78
837.16	228.27
837.48	228.25
837.79	228.42
838.11	228.52
838.42	228.47
838.74	228.59
839.05	228.54
839.37	228.63
839.68	228.33
840.00	228.30
840.31	228.39
840.63	228.27
840.94	228.19
841.26	228.15
841.57	228.11
841.88	228.05
842.20	227.97
842.51	227.83
842.83	227.83
843.14	228.15
843.46	228.12
843.77	227.82
844.08	227.75
844.40	227.61
844.71	227.48
845.03	227.44
845.34	227.40
845.65	227.38
845.97	227.35
846.28	227.40
846.60	227.41
846.91	227.29
847.22	227.37
847.54	227.51
847.85	227.52
848.16	227.46
848.48	227.42
848.79	227.69
849.10	227.77
849.42	227.74
849.73	227.35
850.04	227.28
850.36	227.10
850.67	227.27
850.98	227.22
851.30	227.25
851.61	227.20
851.92	227.21
852.23	227.41
852.55	227.47
852.86	227.41
853.17	227.47
853.49	227.62
853.80	227.62
854.11	227.68
854.42	227.80
854.74	227.75
855.05	227.75
855.36	227.47
855.67	227.49
855.99	227.57
856.30	228.17
856.61	228.26
856.92	228.27
857.23	228.19
857.55	228.25
857.86	228.22
858.17	228.34
858.48	228.22
858.79	228.14
859.11	228.20
859.42	228.19
859.73	228.13
860.04	228.11
860.35	227.93
860.66	227.73
860.98	227.66
861.29	227.76
861.60	227.73
861.91	227.83
862.22	227.75
862.53	227.63
862.84	227.07
863.16	227.18
863.47	227.09
863.78	227.07
864.09	227.03
864.40	227.05
864.71	227.02
865.02	227.11
865.33	227.04
865.64	226.91
865.95	226.90
866.27	227.20
866.58	227.10
866.89	227.27
867.20	227.30
867.51	227.24
867.82	227.24
868.13	227.39
868.44	227.18
868.75	227.32
869.06	227.35
869.37	227.42
869.68	227.22
869.99	227.31
870.30	227.33
870.61	227.44
870.92	227.36
871.23	227.37
871.54	227.38
871.85	227.45
872.16	227.49
872.47	227.41
872.78	227.17
873.09	227.22
873.40	227.12
873.71	227.17
874.02	227.20
874.33	227.16
874.64	227.11
874.95	227.25
875.26	227.10
875.56	227.08
875.87	226.98
876.18	226.95
876.49	227.37
876.80	227.32
877.11	227.17
877.42	227.21
877.73	227.13
878.04	227.03
878.35	227.08
878.66	227.02
878.96	227.00
879.27	226.89
879.58	226.84
879.89	226.83
880.20	226.89
880.51	226.81
880.82	226.84
881.12	226.82
881.43	226.71
881.74	226.71
882.05	226.69
882.36	226.76
882.67	226.85
882.97	226.32
883.28	226.25
883.59	226.32
883.90	226.38
884.21	226.44
884.51	226.43
884.82	226.36
885.13	226.41
885.44	226.35
885.74	226.42
886.05	226.40
886.36	226.34
886.67	226.22
886.98	226.55
887.28	226.56
887.59	226.53
887.90	226.53
888.20	226.44
888.51	226.52
888.82	226.40
889.13	226.43
889.43	226.82
889.74	226.88
890.05	226.82
890.35	226.74
890.66	226.71
890.97	226.62
891.28	226.50
891.58	226.45
891.89	226.49
892.20	226.44
892.50	226.38
892.81	226.39
893.12	226.35
893.42	226.13
893.73	226.15
894.04	226.11
894.34	226.10
894.65	226.10
894.95	226.03
895.26	226.06
895.57	226.20
895.87	225.82
896.18	225.88
896.48	225.96
896.79	226.00
897.10	226.08
897.40	226.18
897.71	226.32
898.01	226.33
898.32	226.45
898.63	226.43
898.93	226.50
899.24	226.58
899.54	226.62
899.85	226.53
900.15	226.48
900.46	226.59
900.76	226.68
901.07	226.69
901.38	226.70
901.68	226.76
901.99	226.54
902.29	226.60
902.60	226.61
902.90	226.57
903.21	226.54
903.51	226.55
903.82	226.63
904.12	226.59
904.43	226.71
904.73	226.63
905.03	226.71
905.34	227.18
905.64	227.13
905.95	227.20
906.25	227.20
906.56	227.16
906.86	227.13
907.17	227.17
907.47	227.29
907.77	227.35
908.08	227.25
908.38	227.37
908.69	227.40
908.99	227.47
909.30	227.54
909.60	227.54
909.90	227.54
910.21	227.43
910.51	227.41
910.81	227.40
911.12	227.49
911.42	227.51
911.73	227.04
912.03	227.08
912.33	227.08
912.64	227.09
912.94	227.04
913.24	226.95
913.55	226.87
913.85	226.83
914.15	226.86
914.46	227.02
914.76	226.96
915.06	226.94
915.37	226.88
915.67	226.79
915.97	226.77
916.27	226.65
916.58	226.67
916.88	226.59
917.18	226.51
917.49	226.82
917.79	226.80
918.09	226.89
918.39	227.00
918.70	227.04
919.00	227.07
919.30	227.34
919.60	227.27
919.91	227.22
920.21	227.20
920.51	227.10
920.81	226.99
921.12	227.07
921.42	227.03
921.72	227.02
922.02	227.09
922.32	227.18
922.63	227.23
922.93	227.43
923.23	227.44
923.53	227.40
923.83	227.06
924.13	227.03
924.44	227.00
924.74	227.09
925.04	227.11
925.34	227.05
925.64	226.83
925.94	226.83
926.24	227.10
926.55	227.03
926.85	227.07
927.15	226.99
927.45	226.94
927.75	226.89
928.05	226.85
928.35	226.71
928.65	226.73
928.95	226.75
929.26	226.56
929.56	226.65
929.86	226.65
930.16	226.56
930.46	226.55
930.76	226.53
931.06	226.22
931.36	226.06
931.66	226.15
931.96	226.16
932.26	226.27
932.56	226.05
932.86	226.16
933.16	226.14
933.46	226.12
933.76	226.12
934.06	226.21
934.36	226.37
934.66	226.38
934.96	226.35
935.26	226.31
935.56	226.45
935.86	226.33
936.16	226.31
936.46	226.37
936.76	226.31
937.06	226.29
937.36	226.38
937.66	226.40
937.96	226.37
938.26	226.30
938.56	226.19
938.86	226.25
939.16	226.30
939.46	226.42
939.76	226.52
940.06	226.42
940.35	226.32
940.65	226.11
940.95	226.21
941.25	226.13
941.55	226.12
941.85	226.03
942.15	226.19
942.45	226.35
942.75	226.27
943.04	226.35
943.34	226.43
943.64	226.43
943.94	226.39
944.24	226.39
944.54	226.52
944.84	226.56
945.13	226.50
945.43	226.40
945.73	226.36
946.03	226.28
946.33	226.28
946.62	226.26
946.92	226.27
947.22	226.30
947.52	226.31
947.82	226.40
948.11	226.42
948.41	226.25
948.71	226.07
949.01	226.22
949.31	226.12
949.60	226.08
949.90	226.17
950.20	226.19
950.50	226.21
950.79	226.15
951.09	226.26
951.39	226.33
951.69	226.29
951.98	226.34
952.28	226.45
952.58	226.49
952.87	226.52
953.17	226.58
953.47	226.57
953.76	226.56
954.06	226.50
954.36	226.39
954.66	226.48
954.95	226.65
955.25	226.62
955.55	226.76
955.84	226.66
956.14	226.69
956.44	226.76
956.73	226.73
957.03	226.74
957.32	226.74
957.62	226.62
957.92	226.80
958.21	226.78
958.51	227.27
958.81	227.32
959.10	227.38
959.40	227.50
959.69	227.45
959.99	227.54
960.29	227.45
960.58	227.44
960.88	227.60
961.17	227.53
961.47	227.55
961.76	227.47
962.06	227.64
962.36	227.59
962.65	227.59
962.95	227.58
963.24	227.58
963.54	227.60
963.83	227.63
964.13	227.50
964.42	227.42
964.72	226.96
965.01	226.90
965.31	226.84
965.60	226.70
965.90	227.04
966.19	226.93
966.49	226.96
966.78	226.94
967.08	226.86
967.37	226.87
967.67	226.78
967.96	226.77
968.26	226.74
968.55	226.71
968.85	226.73
969.14	226.73
969.43	226.70
969.73	226.62
970.02	226.58
970.32	226.60
970.61	226.51
970.91	226.37
971.20	226.33
971.49	226.32
971.79	226.37
972.08	225.98
972.38	225.98
972.67	225.97
972.96	226.06
973.26	225.95
973.55	226.14
973.85	226.18
974.14	226.18
974.43	226.20
974.73	226.16
975.02	226.06
975.31	226.05
975.61	226.01
975.90	226.02
976.19	225.99
976.49	225.98
976.78	226.05
977.07	226.08
977.37	226.07
977.66	226.16
977.95	226.11
978.24	226.10
978.54	226.23
978.83	226.24
979.12	226.19
979.42	226.22
979.71	226.06
980.00	225.95
980.29	225.96
980.59	225.84
980.88	225.90
981.17	225.93
981.46	225.93
981.76	225.99
982.05	226.10
982.34	226.22
982.63	226.20
982.93	226.21
983.22	226.39
983.51	226.50
983.80	226.51
984.09	226.60
984.39	226.62
984.68	226.55
984.97	226.55
985.26	226.51
985.55	226.62
985.85	226.46
986.14	226.65
986.43	226.67
986.72	226.64
987.01	226.53
987.30	226.55
987.59	226.56
987.89	226.52
988.18	226.35
988.47	226.22
988.76	226.18
989.05	226.22
989.34	226.05
989.63	226.12
989.92	226.07
990.22	225.95
990.51	225.99
990.80	225.99
991.09	226.12
991.38	226.18
991.67	226.04
991.96	226.06
992.25	226.06
992.54	226.07
992.83	226.13
993.12	226.07
993.41	226.07
993.70	226.24
993.99	226.32
994.28	226.42
994.58	226.53
994.87	226.53
995.16	226.44
995.45	226.45
995.74	226.23
996.03	226.35
996.32	226.40
996.61	226.42
996.90	226.40
997.19	226.30
997.48	226.27
997.77	226.27
998.06	226.35
998.34	226.31
998.63	226.21
998.92	226.17
999.21	226.31
999.50	226.31
999.79	226.12
1000.08	226.07
1000.37	225.98
1000.66	225.95
1000.95	226.03
1001.24	226.01
1001.53	226.02
1001.82	226.04
1002.11	225.87
1002.40	225.91
1002.68	226.07
1002.97	226.36
1003.26	226.33
1003.55	226.29
1003.84	226.35
1004.13	226.47
1004.42	226.46
1004.71	226.51
1004.99	226.48
1005.28	226.54
1005.57	226.50
1005.86	226.49
1006.15	226.41
1006.44	226.44
1006.72	226.42
1007.01	226.35
1007.30	226.35
1007.59	226.41
1007.88	226.38
1008.17	226.40
1008.45	226.26
1008.74	226.05
1009.03	225.82
1009.32	225.79
1009.60	225.82
1009.89	225.74
1010.18	225.57
1010.47	225.50
1010.76	225.45
1011.04	225.50
1011.33	225.55
1011.62	225.57
1011.91	225.58
1012.19	225.66
1012.48	225.66
1012.77	225.63
1013.05	225.87
1013.34	225.96
1013.63	225.90
1013.92	225.97
1014.20	225.91
1014.49	226.01
1014.78	225.96
1015.06	225.85
1015.35	225.84
1015.64	225.92
1015.92	225.99
1016.21	225.99
1016.50	226.07
1016.78	226.21
1017.07	226.15
1017.36	226.05
1017.64	226.04
1017.93	226.05
1018.22	226.06
1018.50	225.99
1018.79	226.06
1019.08	225.85
1019.36	225.75
1019.65	225.69
1019.93	225.82
1020.22	225.89
1020.51	226.01
1020.79	226.00
1021.08	226.20
1021.36	224.15
1021.65	226.80
1021.94	226.00
1022.22	224.60
1022.51	224.70
1022.79	228.25
1023.08	225.95
1023.36	229.25
1023.65	224.25
>>>>>End Processed Spectral Data<<<<<
