SpectraSuite Data File
++++++++++++++++++++++++++++++++++++
Date: Wed Sep 04 18:01:44 EDT 2013
User: lab3
Dark Spectrum Present: Yes
Reference Spectrum Present: No
Number of Sampled Component Spectra: 1
Spectrometers: USB2E7196
Integration Time (usec): 170000 (USB2E7196)
Spectra Averaged: 20 (USB2E7196)
Boxcar Smoothing: 10 (USB2E7196)
Correct for Electrical Dark: No (USB2E7196)
Strobe/Lamp Enabled: No (USB2E7196)
Correct for Detector Non-linearity: No (USB2E7196)
Correct for Stray Light: No (USB2E7196)
Number of Pixels in Processed Spectrum: 2048
>>>>>Begin Processed Spectral Data<<<<<
339.09	0.00
339.48	213.40
339.86	215.25
340.24	215.80
340.63	218.30
341.01	226.75
341.39	220.10
341.78	222.70
342.16	224.50
342.54	224.00
342.93	212.71
343.31	223.39
343.69	223.88
344.07	224.37
344.46	224.83
344.84	225.15
345.22	225.13
345.60	225.43
345.99	225.57
346.37	225.65
346.75	225.75
347.13	225.83
347.52	225.87
347.90	226.07
348.28	226.10
348.66	226.21
349.05	226.13
349.43	226.20
349.81	226.29
350.19	226.31
350.57	226.33
350.96	226.39
351.34	226.57
351.72	226.74
352.10	226.80
352.48	226.79
352.87	226.90
353.25	226.90
353.63	226.91
354.01	226.95
354.39	227.03
354.77	227.10
355.15	227.30
355.54	227.21
355.92	227.15
356.30	227.20
356.68	227.52
357.06	227.59
357.44	227.56
357.82	227.63
358.20	228.11
358.58	228.20
358.97	228.31
359.35	228.42
359.73	228.55
360.11	228.55
360.49	228.69
360.87	228.77
361.25	228.86
361.63	229.14
362.01	229.29
362.39	229.36
362.77	229.44
363.15	229.47
363.53	229.65
363.91	229.74
364.29	229.81
364.67	229.43
365.05	229.51
365.43	229.65
365.81	229.72
366.19	229.54
366.57	229.79
366.95	229.78
367.33	229.68
367.71	229.70
368.09	229.84
368.47	229.81
368.85	229.75
369.23	229.88
369.61	229.65
369.99	229.76
370.37	229.75
370.75	229.95
371.13	229.83
371.51	229.72
371.89	229.77
372.27	229.76
372.65	229.77
373.03	229.69
373.41	229.59
373.78	229.47
374.16	229.21
374.54	229.01
374.92	228.89
375.30	228.86
375.68	228.71
376.06	228.62
376.44	228.54
376.82	228.57
377.19	228.45
377.57	228.38
377.95	228.19
378.33	228.07
378.71	227.70
379.09	227.65
379.47	227.57
379.84	227.43
380.22	227.28
380.60	227.19
380.98	227.10
381.36	227.01
381.73	226.95
382.11	226.99
382.49	226.94
382.87	226.86
383.25	226.85
383.62	227.37
384.00	227.20
384.38	227.17
384.76	227.15
385.13	227.32
385.51	227.27
385.89	227.15
386.27	227.20
386.64	227.28
387.02	227.18
387.40	227.15
387.78	227.18
388.15	227.17
388.53	227.06
388.91	227.11
389.29	227.10
389.66	227.14
390.04	227.02
390.42	227.05
390.79	226.99
391.17	226.93
391.55	226.36
391.92	226.40
392.30	226.46
392.68	226.38
393.05	226.35
393.43	226.33
393.81	226.38
394.18	226.31
394.56	226.32
394.94	226.48
395.31	226.49
395.69	226.60
396.06	226.72
396.44	226.83
396.82	226.81
397.19	227.09
397.57	227.13
397.95	227.27
398.32	227.26
398.70	227.52
399.07	227.70
399.45	227.75
399.82	227.90
400.20	228.06
400.58	228.24
400.95	228.16
401.33	228.44
401.70	228.89
402.08	229.02
402.45	229.20
402.83	229.46
403.20	229.68
403.58	229.75
403.95	230.00
404.33	230.32
404.71	230.51
405.08	230.91
405.46	231.09
405.83	231.41
406.21	231.64
406.58	231.87
406.96	232.13
407.33	232.56
407.70	232.95
408.08	233.58
408.45	233.98
408.83	234.46
409.20	234.75
409.58	234.87
409.95	235.44
410.33	235.90
410.70	236.23
411.08	236.81
411.45	237.45
411.82	237.94
412.20	238.68
412.57	239.71
412.95	240.03
413.32	240.96
413.69	241.74
414.07	242.65
414.44	243.62
414.82	244.69
415.19	245.88
415.56	247.04
415.94	248.02
416.31	249.50
416.68	250.89
417.06	252.58
417.43	254.30
417.81	256.07
418.18	257.91
418.55	259.95
418.93	262.02
419.30	264.14
419.67	266.46
420.04	268.71
420.42	271.00
420.79	274.13
421.16	276.96
421.54	280.00
421.91	283.01
422.28	286.19
422.66	289.40
423.03	292.81
423.40	296.16
423.77	299.80
424.15	303.37
424.52	307.20
424.89	311.34
425.26	315.23
425.64	319.00
426.01	323.18
426.38	327.51
426.75	332.05
427.13	336.56
427.50	341.42
427.87	346.27
428.24	351.18
428.61	355.79
428.99	361.03
429.36	366.62
429.73	372.18
430.10	377.64
430.47	383.48
430.85	389.13
431.22	395.34
431.59	402.17
431.96	408.41
432.33	415.32
432.70	422.01
433.08	430.10
433.45	437.57
433.82	444.97
434.19	453.30
434.56	461.43
434.93	469.26
435.30	476.98
435.68	485.72
436.05	494.29
436.42	502.69
436.79	510.36
437.16	518.70
437.53	527.50
437.90	536.23
438.27	544.70
438.64	553.71
439.01	561.99
439.38	569.18
439.75	576.32
440.13	584.54
440.50	592.18
440.87	598.05
441.24	604.54
441.61	611.69
441.98	616.74
442.35	622.51
442.72	628.49
443.09	634.23
443.46	637.56
443.83	639.73
444.20	641.55
444.57	644.43
444.94	645.41
445.31	646.60
445.68	648.02
446.05	648.17
446.42	646.85
446.79	645.49
447.16	643.78
447.53	642.61
447.90	638.86
448.27	635.24
448.64	630.49
449.01	626.69
449.37	620.30
449.74	614.16
450.11	607.25
450.48	599.40
450.85	591.36
451.22	584.55
451.59	578.03
451.96	571.72
452.33	563.49
452.70	556.18
453.07	547.53
453.43	538.22
453.80	529.84
454.17	521.70
454.54	513.90
454.91	505.61
455.28	497.46
455.65	489.92
456.02	482.93
456.38	476.43
456.75	468.58
457.12	462.04
457.49	455.71
457.86	449.41
458.23	444.35
458.59	438.73
458.96	432.85
459.33	427.70
459.70	422.60
460.07	418.41
460.43	413.67
460.80	409.26
461.17	405.65
461.54	401.66
461.91	397.83
462.27	393.90
462.64	390.74
463.01	387.14
463.38	383.80
463.74	379.67
464.11	376.65
464.48	374.10
464.85	371.36
465.21	369.26
465.58	366.89
465.95	363.98
466.32	361.71
466.68	359.39
467.05	357.05
467.42	354.72
467.78	352.39
468.15	350.25
468.52	348.70
468.88	346.44
469.25	344.44
469.62	342.96
469.98	341.33
470.35	339.77
470.72	338.37
471.08	336.66
471.45	335.47
471.82	334.27
472.18	332.75
472.55	331.72
472.92	330.40
473.28	329.30
473.65	328.18
474.02	327.02
474.38	326.26
474.75	325.59
475.11	324.85
475.48	324.26
475.85	323.57
476.21	322.87
476.58	322.29
476.94	321.92
477.31	321.43
477.67	321.05
478.04	320.69
478.41	320.48
478.77	320.72
479.14	320.52
479.50	320.31
479.87	320.30
480.23	320.29
480.60	320.20
480.96	320.25
481.33	320.65
481.69	320.93
482.06	321.10
482.42	321.22
482.79	321.55
483.15	321.90
483.52	322.55
483.88	322.91
484.25	323.57
484.61	324.15
484.98	324.82
485.34	325.93
485.71	326.91
486.07	327.88
486.44	328.54
486.80	329.57
487.17	330.83
487.53	332.26
487.90	333.61
488.26	335.33
488.62	337.00
488.99	338.48
489.35	340.18
489.72	342.08
490.08	344.20
490.44	346.23
490.81	348.53
491.17	350.68
491.54	353.28
491.90	355.86
492.26	358.55
492.63	361.40
492.99	364.13
493.36	367.29
493.72	370.62
494.08	374.03
494.45	377.78
494.81	381.57
495.17	385.34
495.54	389.54
495.90	393.65
496.26	398.05
496.63	402.82
496.99	407.64
497.35	412.68
497.72	418.03
498.08	423.55
498.44	429.19
498.80	435.27
499.17	441.23
499.53	447.56
499.89	454.31
500.26	461.06
500.62	468.07
500.98	475.48
501.34	482.86
501.71	490.59
502.07	498.37
502.43	506.57
502.79	515.07
503.16	523.83
503.52	533.01
503.88	542.30
504.24	551.93
504.60	562.08
504.97	572.50
505.33	582.94
505.69	594.16
506.05	605.13
506.41	616.42
506.78	628.28
507.14	640.32
507.50	652.75
507.86	665.49
508.22	678.56
508.59	691.60
508.95	705.36
509.31	719.70
509.67	734.00
510.03	748.32
510.39	763.09
510.75	778.14
511.12	793.17
511.48	808.70
511.84	824.68
512.20	840.64
512.56	856.91
512.92	873.58
513.28	890.20
513.64	907.74
514.00	925.25
514.37	943.03
514.73	961.29
515.09	979.48
515.45	998.00
515.81	1016.52
516.17	1035.52
516.53	1054.36
516.89	1072.86
517.25	1092.49
517.61	1112.93
517.97	1133.28
518.33	1153.33
518.69	1173.86
519.05	1194.50
519.41	1215.07
519.77	1236.38
520.13	1257.25
520.49	1278.14
520.85	1300.59
521.21	1321.71
521.57	1343.26
521.93	1364.05
522.29	1385.40
522.65	1406.39
523.01	1427.24
523.37	1447.94
523.73	1469.00
524.09	1489.63
524.45	1510.50
524.81	1531.30
525.17	1551.71
525.53	1572.42
525.89	1593.45
526.25	1614.35
526.61	1635.02
526.97	1656.21
527.33	1677.61
527.68	1699.62
528.04	1720.82
528.40	1740.43
528.76	1761.54
529.12	1781.70
529.48	1802.58
529.84	1822.45
530.20	1843.70
530.56	1864.90
530.91	1886.03
531.27	1906.60
531.63	1927.33
531.99	1948.04
532.35	1968.05
532.71	1988.40
533.07	2009.21
533.42	2029.34
533.78	2049.48
534.14	2069.24
534.50	2088.24
534.86	2107.04
535.21	2124.63
535.57	2143.55
535.93	2161.60
536.29	2179.29
536.65	2197.55
537.00	2215.50
537.36	2233.19
537.72	2249.49
538.08	2266.46
538.44	2283.41
538.79	2299.87
539.15	2316.53
539.51	2332.57
539.87	2348.37
540.22	2362.83
540.58	2377.07
540.94	2390.35
541.29	2402.96
541.65	2415.47
542.01	2428.26
542.37	2439.17
542.72	2450.40
543.08	2460.92
543.44	2472.85
543.79	2483.47
544.15	2493.51
544.51	2503.48
544.87	2513.29
545.22	2522.33
545.58	2530.13
545.94	2537.08
546.29	2543.41
546.65	2549.54
547.01	2555.42
547.36	2561.00
547.72	2566.65
548.07	2570.48
548.43	2575.98
548.79	2580.72
549.14	2585.50
549.50	2589.26
549.86	2593.57
550.21	2597.39
550.57	2600.87
550.92	2602.19
551.28	2603.29
551.64	2605.94
551.99	2608.15
552.35	2610.16
552.70	2612.19
553.06	2614.25
553.41	2615.40
553.77	2617.60
554.13	2619.74
554.48	2621.44
554.84	2622.76
555.19	2623.66
555.55	2625.59
555.90	2624.82
556.26	2624.44
556.61	2622.47
556.97	2620.43
557.32	2619.64
557.68	2618.17
558.03	2616.84
558.39	2615.62
558.74	2614.77
559.10	2611.85
559.45	2608.54
559.81	2603.94
560.16	2599.10
560.52	2594.33
560.87	2590.35
561.23	2584.68
561.58	2578.61
561.94	2571.40
562.29	2564.00
562.64	2557.31
563.00	2549.30
563.35	2543.19
563.71	2536.22
564.06	2530.45
564.42	2524.22
564.77	2517.36
565.12	2510.17
565.48	2502.30
565.83	2494.61
566.19	2487.01
566.54	2479.06
566.89	2470.42
567.25	2463.09
567.60	2455.77
567.96	2448.06
568.31	2440.26
568.66	2431.72
569.02	2422.63
569.37	2414.65
569.72	2406.82
570.08	2397.45
570.43	2388.02
570.78	2378.48
571.14	2369.08
571.49	2358.69
571.84	2349.14
572.20	2338.15
572.55	2327.79
572.90	2316.79
573.26	2306.46
573.61	2294.99
573.96	2283.77
574.31	2272.00
574.67	2259.65
575.02	2246.46
575.37	2233.51
575.72	2220.09
576.08	2208.03
576.43	2195.67
576.78	2182.59
577.13	2169.03
577.49	2156.40
577.84	2144.21
578.19	2131.93
578.54	2119.45
578.90	2107.54
579.25	2095.01
579.60	2082.63
579.95	2069.64
580.30	2056.81
580.66	2042.99
581.01	2029.55
581.36	2015.28
581.71	2002.71
582.06	1989.76
582.42	1977.75
582.77	1965.26
583.12	1953.17
583.47	1940.60
583.82	1928.28
584.17	1916.25
584.53	1904.31
584.88	1891.16
585.23	1878.00
585.58	1863.64
585.93	1850.08
586.28	1836.35
586.63	1822.03
586.98	1807.70
587.34	1794.45
587.69	1780.87
588.04	1768.08
588.39	1755.60
588.74	1743.48
589.09	1730.96
589.44	1718.06
589.79	1705.60
590.14	1693.72
590.49	1681.67
590.84	1669.57
591.19	1657.67
591.54	1645.20
591.89	1633.07
592.25	1622.93
592.60	1611.52
592.95	1600.43
593.30	1588.54
593.65	1576.97
594.00	1565.08
594.35	1555.28
594.70	1543.52
595.05	1532.26
595.40	1520.18
595.75	1508.35
596.10	1497.29
596.45	1485.68
596.80	1474.98
597.15	1463.45
597.50	1451.19
597.85	1439.69
598.19	1427.88
598.54	1416.06
598.89	1404.70
599.24	1393.97
599.59	1382.24
599.94	1371.15
600.29	1360.41
600.64	1350.00
600.99	1339.05
601.34	1329.64
601.69	1318.36
602.04	1308.36
602.39	1298.49
602.74	1289.49
603.08	1280.09
603.43	1270.60
603.78	1261.00
604.13	1251.22
604.48	1241.45
604.83	1232.02
605.18	1222.06
605.53	1212.60
605.87	1203.32
606.22	1194.97
606.57	1185.70
606.92	1176.05
607.27	1167.29
607.62	1158.53
607.96	1149.87
608.31	1141.77
608.66	1133.25
609.01	1124.59
609.36	1116.00
609.70	1107.40
610.05	1098.46
610.40	1089.87
610.75	1081.00
611.10	1072.56
611.44	1063.84
611.79	1055.68
612.14	1047.67
612.49	1039.72
612.83	1032.30
613.18	1024.48
613.53	1016.39
613.88	1008.08
614.22	1000.55
614.57	992.51
614.92	984.63
615.27	977.09
615.61	969.28
615.96	961.25
616.31	953.63
616.65	946.51
617.00	939.03
617.35	931.85
617.70	924.53
618.04	917.33
618.39	910.44
618.74	904.04
619.08	897.02
619.43	889.65
619.78	882.48
620.12	875.11
620.47	868.01
620.82	860.91
621.16	854.24
621.51	847.69
621.85	841.23
622.20	834.63
622.55	827.85
622.89	821.29
623.24	814.97
623.59	808.38
623.93	801.84
624.28	795.69
624.62	789.94
624.97	784.08
625.32	778.16
625.66	771.94
626.01	765.66
626.35	760.15
626.70	754.73
627.04	749.35
627.39	743.64
627.73	738.50
628.08	733.15
628.43	727.54
628.77	721.87
629.12	716.54
629.46	711.61
629.81	706.80
630.15	702.00
630.50	697.05
630.84	692.22
631.19	687.45
631.53	682.93
631.88	677.57
632.22	672.71
632.57	668.20
632.91	663.48
633.26	659.12
633.60	654.32
633.95	649.54
634.29	644.84
634.64	640.45
634.98	635.46
635.32	631.13
635.67	627.12
636.01	622.89
636.36	618.57
636.70	614.47
637.05	610.28
637.39	606.21
637.73	602.17
638.08	598.17
638.42	593.90
638.77	589.44
639.11	585.14
639.45	580.87
639.80	576.50
640.14	572.55
640.49	568.44
640.83	564.67
641.17	561.13
641.52	557.32
641.86	553.75
642.20	550.66
642.55	546.86
642.89	543.24
643.23	539.80
643.58	536.61
643.92	532.75
644.26	529.38
644.61	525.93
644.95	522.51
645.29	519.07
645.64	515.97
645.98	512.94
646.32	510.11
646.66	506.94
647.01	503.98
647.35	501.14
647.69	498.31
648.04	495.54
648.38	492.62
648.72	489.83
649.06	486.79
649.41	483.64
649.75	480.66
650.09	477.84
650.43	474.98
650.78	471.94
651.12	469.23
651.46	466.41
651.80	463.67
652.14	460.97
652.49	458.53
652.83	455.89
653.17	453.14
653.51	450.32
653.85	447.87
654.20	445.35
654.54	442.80
654.88	440.15
655.22	437.78
655.56	435.24
655.90	432.76
656.25	430.45
656.59	428.14
656.93	425.92
657.27	423.79
657.61	421.39
657.95	419.20
658.29	417.03
658.64	414.83
658.98	412.57
659.32	410.22
659.66	407.93
660.00	405.66
660.34	403.69
660.68	401.64
661.02	399.61
661.36	397.56
661.70	395.55
662.05	393.58
662.39	391.59
662.73	389.80
663.07	388.29
663.41	386.43
663.75	384.55
664.09	382.70
664.43	380.71
664.77	378.96
665.11	377.15
665.45	375.44
665.79	373.79
666.13	372.10
666.47	370.52
666.81	368.88
667.15	367.26
667.49	365.74
667.83	364.47
668.17	363.00
668.51	361.68
668.85	360.24
669.19	359.12
669.53	357.48
669.87	356.03
670.21	354.38
670.55	353.02
670.89	351.86
671.23	350.53
671.57	349.12
671.91	347.73
672.25	346.36
672.58	345.14
672.92	343.66
673.26	342.46
673.60	341.23
673.94	340.02
674.28	338.90
674.62	337.74
674.96	336.32
675.30	335.06
675.64	333.81
675.97	332.57
676.31	331.18
676.65	329.99
676.99	329.01
677.33	327.88
677.67	326.84
678.01	325.49
678.34	324.37
678.68	323.48
679.02	322.47
679.36	321.47
679.70	320.37
680.04	319.47
680.37	318.41
680.71	317.42
681.05	316.49
681.39	315.56
681.73	314.58
682.06	313.69
682.40	312.86
682.74	312.01
683.08	311.31
683.42	310.35
683.75	309.56
684.09	308.53
684.43	307.67
684.77	306.80
685.10	306.02
685.44	305.19
685.78	304.24
686.12	303.48
686.45	302.71
686.79	301.94
687.13	301.27
687.46	300.56
687.80	299.91
688.14	299.10
688.48	298.35
688.81	297.55
689.15	296.84
689.49	296.04
689.82	295.25
690.16	294.36
690.50	293.67
690.83	292.95
691.17	292.23
691.51	291.52
691.84	290.87
692.18	290.19
692.52	289.60
692.85	289.09
693.19	288.67
693.52	288.05
693.86	287.43
694.20	286.73
694.53	286.20
694.87	285.52
695.21	284.91
695.54	284.35
695.88	283.70
696.21	283.10
696.55	282.51
696.88	281.91
697.22	281.31
697.56	280.76
697.89	280.27
698.23	279.76
698.56	279.25
698.90	278.80
699.23	278.32
699.57	277.82
699.90	277.23
700.24	276.60
700.58	276.15
700.91	275.77
701.25	275.64
701.58	275.44
701.92	275.13
702.25	274.70
702.59	274.22
702.92	273.79
703.26	273.38
703.59	272.92
703.93	272.86
704.26	272.45
704.60	272.13
704.93	271.63
705.26	271.15
705.60	270.78
705.93	270.18
706.27	269.87
706.60	269.50
706.94	269.30
707.27	268.80
707.61	268.35
707.94	267.88
708.27	267.17
708.61	266.37
708.94	265.94
709.28	265.53
709.61	265.04
709.94	264.63
710.28	264.10
710.61	263.75
710.95	262.95
711.28	262.93
711.61	262.45
711.95	262.12
712.28	261.66
712.61	261.27
712.95	261.20
713.28	261.02
713.61	260.61
713.95	260.08
714.28	259.83
714.61	259.46
714.95	259.09
715.28	258.65
715.61	258.41
715.95	258.05
716.28	257.71
716.61	257.52
716.95	257.23
717.28	257.09
717.61	256.89
717.94	256.58
718.28	255.90
718.61	255.69
718.94	255.40
719.27	255.18
719.61	254.89
719.94	254.51
720.27	254.00
720.60	253.79
720.94	253.62
721.27	253.30
721.60	253.17
721.93	252.86
722.27	252.82
722.60	252.63
722.93	252.32
723.26	252.20
723.59	251.91
723.93	251.81
724.26	251.60
724.59	251.32
724.92	251.21
725.25	251.19
725.59	250.95
725.92	250.76
726.25	250.61
726.58	250.52
726.91	250.35
727.24	250.28
727.57	250.10
727.91	249.80
728.24	249.72
728.57	249.46
728.90	249.40
729.23	249.05
729.56	249.05
729.89	248.90
730.22	248.61
730.55	248.47
730.89	248.29
731.22	248.11
731.55	247.92
731.88	247.78
732.21	247.52
732.54	247.34
732.87	247.21
733.20	247.08
733.53	246.91
733.86	246.77
734.19	246.43
734.52	246.33
734.85	246.50
735.18	246.27
735.51	246.33
735.84	246.20
736.17	246.23
736.50	245.81
736.83	246.20
737.16	246.13
737.49	246.04
737.82	245.87
738.15	245.75
738.48	245.65
738.81	245.43
739.14	245.25
739.47	245.07
739.80	244.85
740.13	244.78
740.46	244.54
740.79	244.25
741.12	244.12
741.45	243.86
741.78	243.46
742.11	243.50
742.44	243.17
742.77	243.07
743.10	242.87
743.43	242.72
743.75	242.02
744.08	242.41
744.41	242.21
744.74	241.98
745.07	241.74
745.40	241.69
745.73	241.74
746.06	241.54
746.39	241.50
746.71	241.45
747.04	241.25
747.37	241.03
747.70	241.05
748.03	240.97
748.36	240.93
748.68	240.86
749.01	240.55
749.34	240.46
749.67	240.38
750.00	240.32
750.33	240.57
750.65	240.51
750.98	239.83
751.31	239.68
751.64	239.61
751.97	239.70
752.29	239.48
752.62	239.25
752.95	239.13
753.28	238.93
753.60	238.70
753.93	238.70
754.26	238.68
754.59	238.50
754.91	238.35
755.24	238.24
755.57	238.10
755.90	237.99
756.22	237.86
756.55	237.63
756.88	237.36
757.20	236.94
757.53	236.70
757.86	236.64
758.19	236.63
758.51	236.50
758.84	236.22
759.17	236.13
759.49	235.99
759.82	236.19
760.15	236.14
760.47	236.08
760.80	235.84
761.13	235.84
761.45	235.66
761.78	235.56
762.11	235.48
762.43	235.29
762.76	235.21
763.08	235.14
763.41	235.15
763.74	235.17
764.06	235.12
764.39	235.07
764.71	234.97
765.04	234.83
765.37	234.71
765.69	234.60
766.02	234.50
766.34	234.41
766.67	234.08
767.00	234.12
767.32	234.35
767.65	234.53
767.97	234.45
768.30	234.46
768.62	234.40
768.95	234.26
769.27	234.24
769.60	234.19
769.92	234.09
770.25	233.87
770.57	233.62
770.90	233.49
771.22	233.45
771.55	233.35
771.87	233.35
772.20	233.31
772.52	233.71
772.85	234.17
773.17	234.16
773.50	234.16
773.82	233.98
774.15	233.66
774.47	233.40
774.80	233.21
775.12	233.15
775.45	233.10
775.77	233.14
776.09	233.09
776.42	233.09
776.74	233.18
777.07	233.14
777.39	233.20
777.72	233.20
778.04	233.23
778.36	233.23
778.69	233.16
779.01	233.15
779.33	232.72
779.66	232.19
779.98	232.16
780.31	232.09
780.63	232.21
780.95	232.31
781.28	232.24
781.60	232.18
781.92	232.13
782.25	232.08
782.57	231.96
782.89	231.93
783.22	231.86
783.54	231.70
783.86	231.66
784.19	231.56
784.51	231.60
784.83	231.46
785.16	231.36
785.48	231.33
785.80	231.24
786.12	231.16
786.45	231.07
786.77	230.99
787.09	230.91
787.42	230.75
787.74	230.69
788.06	230.61
788.38	230.55
788.71	230.42
789.03	230.45
789.35	230.48
789.67	230.36
789.99	230.30
790.32	230.24
790.64	230.24
790.96	230.70
791.28	230.51
791.61	230.45
791.93	230.43
792.25	230.35
792.57	230.71
792.89	230.65
793.21	230.75
793.54	230.63
793.86	230.58
794.18	230.48
794.50	230.30
794.82	230.30
795.14	230.34
795.47	230.48
795.79	230.43
796.11	230.30
796.43	230.27
796.75	230.25
797.07	230.27
797.39	230.24
797.71	229.79
798.04	229.75
798.36	229.74
798.68	229.77
799.00	229.78
799.32	229.52
799.64	229.56
799.96	229.40
800.28	229.54
800.60	229.46
800.92	229.54
801.24	229.53
801.56	229.54
801.89	229.52
802.21	229.42
802.53	229.25
802.85	229.30
803.17	229.57
803.49	229.39
803.81	229.31
804.13	229.31
804.45	229.24
804.77	229.35
805.09	229.34
805.41	229.21
805.73	229.16
806.05	229.06
806.37	229.05
806.69	229.04
807.01	229.00
807.33	229.05
807.65	228.93
807.97	229.11
808.28	229.02
808.60	229.05
808.92	229.01
809.24	229.39
809.56	229.40
809.88	229.19
810.20	229.23
810.52	229.30
810.84	229.21
811.16	229.14
811.48	229.01
811.80	229.13
812.12	229.12
812.43	229.22
812.75	229.19
813.07	229.05
813.39	229.08
813.71	228.96
814.03	228.97
814.35	228.95
814.67	228.80
814.98	228.79
815.30	228.70
815.62	228.66
815.94	228.26
816.26	228.36
816.58	228.24
816.89	228.33
817.21	228.22
817.53	228.27
817.85	228.32
818.17	228.31
818.48	228.16
818.80	228.30
819.12	228.15
819.44	228.10
819.76	228.10
820.07	228.02
820.39	227.97
820.71	227.98
821.03	227.97
821.34	227.88
821.66	227.96
821.98	227.98
822.30	227.93
822.61	228.23
822.93	228.00
823.25	227.99
823.57	227.97
823.88	228.03
824.20	227.98
824.52	228.06
824.83	228.05
825.15	227.99
825.47	227.92
825.79	227.94
826.10	227.89
826.42	227.80
826.74	227.91
827.05	227.97
827.37	227.95
827.69	227.94
828.00	228.01
828.32	227.95
828.64	227.84
828.95	228.16
829.27	228.03
829.58	228.01
829.90	228.13
830.22	228.11
830.53	228.00
830.85	227.93
831.17	227.80
831.48	227.84
831.80	227.82
832.11	227.80
832.43	227.73
832.75	227.76
833.06	228.11
833.38	227.97
833.69	227.89
834.01	227.82
834.32	227.81
834.64	227.65
834.96	227.61
835.27	227.65
835.59	227.40
835.90	227.37
836.22	227.38
836.53	227.24
836.85	227.16
837.16	227.61
837.48	227.63
837.79	227.82
838.11	227.75
838.42	227.71
838.74	227.75
839.05	227.67
839.37	227.59
839.68	227.26
840.00	227.25
840.31	227.37
840.63	227.35
840.94	227.23
841.26	227.18
841.57	227.17
841.88	227.22
842.20	227.17
842.51	227.05
842.83	227.00
843.14	227.42
843.46	227.46
843.77	227.21
844.08	227.25
844.40	227.06
844.71	227.05
845.03	227.08
845.34	227.04
845.65	227.04
845.97	227.12
846.28	227.18
846.60	227.21
846.91	227.12
847.22	227.11
847.54	227.25
847.85	227.30
848.16	227.28
848.48	227.15
848.79	227.34
849.10	227.41
849.42	227.42
849.73	227.03
850.04	226.99
850.36	226.78
850.67	226.80
850.98	226.82
851.30	226.91
851.61	226.93
851.92	226.95
852.23	227.11
852.55	227.14
852.86	227.05
853.17	227.10
853.49	227.21
853.80	227.31
854.11	227.37
854.42	227.52
854.74	227.52
855.05	227.65
855.36	227.37
855.67	227.33
855.99	227.40
856.30	227.93
856.61	227.89
856.92	227.92
857.23	227.92
857.55	227.90
857.86	227.84
858.17	227.83
858.48	227.76
858.79	227.68
859.11	227.67
859.42	227.74
859.73	227.65
860.04	227.65
860.35	227.53
860.66	227.37
860.98	227.26
861.29	227.28
861.60	227.18
861.91	227.40
862.22	227.38
862.53	227.33
862.84	226.75
863.16	226.88
863.47	226.85
863.78	226.78
864.09	226.79
864.40	226.76
864.71	226.81
865.02	226.87
865.33	226.77
865.64	226.69
865.95	226.64
866.27	226.98
866.58	226.88
866.89	226.95
867.20	226.89
867.51	226.84
867.82	226.82
868.13	226.99
868.44	226.77
868.75	226.86
869.06	226.85
869.37	226.89
869.68	226.77
869.99	226.82
870.30	226.85
870.61	226.97
870.92	226.91
871.23	226.89
871.54	226.94
871.85	227.07
872.16	227.19
872.47	227.16
872.78	226.86
873.09	226.93
873.40	226.91
873.71	227.04
874.02	227.04
874.33	226.99
874.64	226.76
874.95	226.88
875.26	226.74
875.56	226.77
875.87	226.69
876.18	226.68
876.49	227.12
876.80	227.05
877.11	226.89
877.42	226.91
877.73	226.84
878.04	226.73
878.35	226.77
878.66	226.66
878.96	226.67
879.27	226.57
879.58	226.52
879.89	226.52
880.20	226.52
880.51	226.57
880.82	226.64
881.12	226.76
881.43	226.63
881.74	226.65
882.05	226.64
882.36	226.72
882.67	226.75
882.97	226.27
883.28	226.29
883.59	226.27
883.90	226.37
884.21	226.46
884.51	226.46
884.82	226.27
885.13	226.30
885.44	226.33
885.74	226.38
886.05	226.36
886.36	226.29
886.67	226.13
886.98	226.40
887.28	226.46
887.59	226.43
887.90	226.49
888.20	226.44
888.51	226.52
888.82	226.41
889.13	226.45
889.43	226.81
889.74	226.74
890.05	226.76
890.35	226.64
890.66	226.60
890.97	226.54
891.28	226.60
891.58	226.59
891.89	226.56
892.20	226.50
892.50	226.50
892.81	226.53
893.12	226.68
893.42	226.40
893.73	226.28
894.04	226.32
894.34	226.42
894.65	226.44
894.95	226.36
895.26	226.50
895.57	226.70
895.87	226.30
896.18	226.40
896.48	226.38
896.79	226.48
897.10	226.51
897.40	226.62
897.71	226.63
898.01	226.53
898.32	226.63
898.63	226.61
898.93	226.63
899.24	226.68
899.54	226.54
899.85	226.57
900.15	226.63
900.46	226.65
900.76	226.63
901.07	226.63
901.38	226.62
901.68	226.58
901.99	226.35
902.29	226.38
902.60	226.41
902.90	226.45
903.21	226.43
903.51	226.41
903.82	226.43
904.12	226.57
904.43	226.70
904.73	226.70
905.03	226.77
905.34	227.24
905.64	227.27
905.95	227.38
906.25	227.42
906.56	227.42
906.86	227.42
907.17	227.41
907.47	227.41
907.77	227.45
908.08	227.45
908.38	227.50
908.69	227.50
908.99	227.59
909.30	227.63
909.60	227.62
909.90	227.74
910.21	227.65
910.51	227.54
910.81	227.60
911.12	227.61
911.42	227.60
911.73	227.17
912.03	227.17
912.33	227.29
912.64	227.26
912.94	227.17
913.24	227.09
913.55	227.00
913.85	226.96
914.15	227.04
914.46	227.09
914.76	227.08
915.06	227.13
915.37	227.05
915.67	227.01
915.97	226.99
916.27	226.82
916.58	226.87
916.88	226.83
917.18	226.77
917.49	227.12
917.79	227.21
918.09	227.24
918.39	227.31
918.70	227.22
919.00	227.21
919.30	227.54
919.60	227.59
919.91	227.66
920.21	227.72
920.51	227.52
920.81	227.46
921.12	227.56
921.42	227.55
921.72	227.52
922.02	227.50
922.32	227.56
922.63	227.59
922.93	227.79
923.23	227.84
923.53	227.82
923.83	227.45
924.13	227.36
924.44	227.36
924.74	227.41
925.04	227.55
925.34	227.55
925.64	227.33
925.94	227.22
926.24	227.45
926.55	227.34
926.85	227.54
927.15	227.50
927.45	227.49
927.75	227.48
928.05	227.54
928.35	227.51
928.65	227.57
928.95	227.60
929.26	227.40
929.56	227.42
929.86	227.37
930.16	227.32
930.46	227.34
930.76	227.30
931.06	227.09
931.36	226.98
931.66	227.01
931.96	226.99
932.26	227.09
932.56	226.87
932.86	226.98
933.16	226.90
933.46	226.88
933.76	226.83
934.06	226.94
934.36	227.04
934.66	227.01
934.96	227.05
935.26	227.04
935.56	227.10
935.86	226.95
936.16	226.92
936.46	226.93
936.76	226.87
937.06	226.82
937.36	226.88
937.66	226.82
937.96	226.79
938.26	226.72
938.56	226.70
938.86	226.69
939.16	226.70
939.46	226.74
939.76	226.76
940.06	226.64
940.35	226.46
940.65	226.25
940.95	226.34
941.25	226.14
941.55	226.04
941.85	226.02
942.15	226.20
942.45	226.37
942.75	226.37
943.04	226.46
943.34	226.57
943.64	226.53
943.94	226.47
944.24	226.51
944.54	226.54
944.84	226.53
945.13	226.48
945.43	226.46
945.73	226.47
946.03	226.44
946.33	226.40
946.62	226.44
946.92	226.40
947.22	226.41
947.52	226.48
947.82	226.60
948.11	226.57
948.41	226.51
948.71	226.35
949.01	226.36
949.31	226.21
949.60	226.13
949.90	226.18
950.20	226.20
950.50	226.17
950.79	226.21
951.09	226.28
951.39	226.31
951.69	226.26
951.98	226.39
952.28	226.46
952.58	226.59
952.87	226.59
953.17	226.67
953.47	226.66
953.76	226.72
954.06	226.62
954.36	226.58
954.66	226.54
954.95	226.66
955.25	226.77
955.55	226.93
955.84	226.88
956.14	226.96
956.44	227.01
956.73	227.00
957.03	227.01
957.32	227.01
957.62	226.98
957.92	227.10
958.21	227.03
958.51	227.61
958.81	227.59
959.10	227.58
959.40	227.67
959.69	227.72
959.99	227.78
960.29	227.83
960.58	227.80
960.88	228.05
961.17	228.01
961.47	227.94
961.76	227.87
962.06	228.00
962.36	227.90
962.65	227.86
962.95	227.84
963.24	227.79
963.54	227.76
963.83	227.88
964.13	227.87
964.42	227.74
964.72	227.31
965.01	227.31
965.31	227.38
965.60	227.30
965.90	227.53
966.19	227.44
966.49	227.44
966.78	227.43
967.08	227.35
967.37	227.40
967.67	227.32
967.96	227.39
968.26	227.26
968.55	227.32
968.85	227.33
969.14	227.34
969.43	227.32
969.73	227.29
970.02	227.18
970.32	227.11
970.61	227.10
970.91	226.91
971.20	226.83
971.49	226.74
971.79	226.79
972.08	226.46
972.38	226.38
972.67	226.38
972.96	226.41
973.26	226.35
973.55	226.42
973.85	226.43
974.14	226.37
974.43	226.47
974.73	226.36
975.02	226.32
975.31	226.26
975.61	226.23
975.90	226.16
976.19	226.15
976.49	226.17
976.78	226.15
977.07	226.15
977.37	226.18
977.66	226.19
977.95	226.09
978.24	226.16
978.54	226.28
978.83	226.23
979.12	226.19
979.42	226.08
979.71	226.06
980.00	225.98
980.29	226.10
980.59	226.00
980.88	226.08
981.17	226.13
981.46	226.20
981.76	226.25
982.05	226.47
982.34	226.45
982.63	226.49
982.93	226.53
983.22	226.74
983.51	226.76
983.80	226.87
984.09	226.97
984.39	226.95
984.68	226.95
984.97	226.97
985.26	227.05
985.55	227.11
985.85	226.96
986.14	227.15
986.43	227.11
986.72	227.13
987.01	227.01
987.30	226.93
987.59	226.84
987.89	226.81
988.18	226.64
988.47	226.65
988.76	226.54
989.05	226.53
989.34	226.39
989.63	226.56
989.92	226.49
990.22	226.46
990.51	226.44
990.80	226.37
991.09	226.46
991.38	226.49
991.67	226.49
991.96	226.47
992.25	226.37
992.54	226.34
992.83	226.35
993.12	226.37
993.41	226.44
993.70	226.70
993.99	226.78
994.28	226.83
994.58	226.92
994.87	226.90
995.16	226.91
995.45	226.90
995.74	226.73
996.03	226.74
996.32	226.80
996.61	226.87
996.90	226.86
997.19	226.80
997.48	226.82
997.77	226.75
998.06	226.81
998.34	226.78
998.63	226.78
998.92	226.76
999.21	226.84
999.50	226.82
999.79	226.57
1000.08	226.59
1000.37	226.56
1000.66	226.50
1000.95	226.62
1001.24	226.73
1001.53	226.80
1001.82	226.79
1002.11	226.76
1002.40	226.78
1002.68	226.92
1002.97	227.18
1003.26	227.18
1003.55	227.10
1003.84	227.14
1004.13	227.33
1004.42	227.34
1004.71	227.30
1004.99	227.26
1005.28	227.38
1005.57	227.38
1005.86	227.41
1006.15	227.36
1006.44	227.35
1006.72	227.40
1007.01	227.30
1007.30	227.15
1007.59	227.07
1007.88	227.01
1008.17	227.01
1008.45	226.88
1008.74	226.65
1009.03	226.46
1009.32	226.41
1009.60	226.29
1009.89	226.25
1010.18	225.93
1010.47	225.90
1010.76	225.92
1011.04	225.96
1011.33	225.95
1011.62	226.01
1011.91	226.01
1012.19	226.02
1012.48	225.99
1012.77	225.92
1013.05	226.17
1013.34	226.18
1013.63	226.15
1013.92	226.24
1014.20	226.15
1014.49	226.18
1014.78	226.16
1015.06	225.98
1015.35	225.94
1015.64	226.04
1015.92	226.13
1016.21	226.18
1016.50	226.13
1016.78	226.15
1017.07	226.17
1017.36	226.08
1017.64	226.00
1017.93	226.08
1018.22	225.99
1018.50	225.99
1018.79	226.02
1019.08	225.76
1019.36	225.79
1019.65	225.71
1019.93	225.77
1020.22	225.88
1020.51	226.08
1020.79	226.07
1021.08	224.75
1021.36	225.10
1021.65	226.40
1021.94	225.40
1022.22	226.40
1022.51	224.75
1022.79	227.75
1023.08	226.75
1023.36	230.70
1023.65	224.80
>>>>>End Processed Spectral Data<<<<<
