SpectraSuite Data File
++++++++++++++++++++++++++++++++++++
Date: Wed Sep 04 17:47:25 EDT 2013
User: lab3
Dark Spectrum Present: Yes
Reference Spectrum Present: No
Number of Sampled Component Spectra: 1
Spectrometers: USB2E7196
Integration Time (usec): 170000 (USB2E7196)
Spectra Averaged: 20 (USB2E7196)
Boxcar Smoothing: 10 (USB2E7196)
Correct for Electrical Dark: No (USB2E7196)
Strobe/Lamp Enabled: No (USB2E7196)
Correct for Detector Non-linearity: No (USB2E7196)
Correct for Stray Light: No (USB2E7196)
Number of Pixels in Processed Spectrum: 2048
>>>>>Begin Processed Spectral Data<<<<<
339.09	0.00
339.48	213.30
339.86	213.30
340.24	214.80
340.63	216.40
341.01	225.55
341.39	220.50
341.78	220.60
342.16	224.25
342.54	222.05
342.93	212.00
343.31	222.70
343.69	223.17
344.07	223.68
344.46	224.20
344.84	224.63
345.22	224.51
345.60	224.79
345.99	225.01
346.37	225.05
346.75	225.15
347.13	225.18
347.52	225.23
347.90	225.39
348.28	225.44
348.66	225.53
349.05	225.36
349.43	225.42
349.81	225.55
350.19	225.54
350.57	225.60
350.96	225.68
351.34	225.80
351.72	225.86
352.10	225.99
352.48	225.99
352.87	226.12
353.25	226.24
353.63	226.28
354.01	226.33
354.39	226.44
354.77	226.55
355.15	226.76
355.54	226.80
355.92	226.76
356.30	226.75
356.68	227.14
357.06	227.26
357.44	227.24
357.82	227.22
358.20	227.80
358.58	227.89
358.97	227.99
359.35	228.11
359.73	228.32
360.11	228.29
360.49	228.45
360.87	228.40
361.25	228.55
361.63	228.72
362.01	228.87
362.39	228.93
362.77	229.00
363.15	229.06
363.53	229.11
363.91	229.17
364.29	229.25
364.67	228.80
365.05	228.87
365.43	228.94
365.81	229.06
366.19	228.82
366.57	229.11
366.95	229.08
367.33	229.00
367.71	229.02
368.09	229.18
368.47	229.20
368.85	229.21
369.23	229.24
369.61	229.08
369.99	229.18
370.37	229.23
370.75	229.46
371.13	229.30
371.51	229.21
371.89	229.20
372.27	229.20
372.65	229.21
373.03	229.17
373.41	229.09
373.78	229.00
374.16	228.78
374.54	228.55
374.92	228.51
375.30	228.42
375.68	228.25
376.06	228.17
376.44	227.97
376.82	228.00
377.19	227.91
377.57	227.83
377.95	227.60
378.33	227.47
378.71	227.14
379.09	227.10
379.47	227.06
379.84	226.91
380.22	226.80
380.60	226.64
380.98	226.54
381.36	226.49
381.73	226.36
382.11	226.33
382.49	226.24
382.87	226.07
383.25	226.03
383.62	226.51
384.00	226.34
384.38	226.27
384.76	226.17
385.13	226.35
385.51	226.29
385.89	226.12
386.27	226.01
386.64	225.92
387.02	225.86
387.40	225.80
387.78	225.79
388.15	225.76
388.53	225.68
388.91	225.57
389.29	225.49
389.66	225.47
390.04	225.43
390.42	225.49
390.79	225.50
391.17	225.47
391.55	224.92
391.92	224.97
392.30	225.05
392.68	224.97
393.05	224.92
393.43	224.97
393.81	225.00
394.18	224.92
394.56	224.98
394.94	225.07
395.31	224.97
395.69	225.10
396.06	225.14
396.44	225.27
396.82	225.25
397.19	225.50
397.57	225.62
397.95	225.73
398.32	225.70
398.70	225.89
399.07	225.99
399.45	226.03
399.82	226.02
400.20	226.03
400.58	226.20
400.95	226.10
401.33	226.30
401.70	226.82
402.08	227.01
402.45	227.17
402.83	227.44
403.20	227.78
403.58	227.93
403.95	228.22
404.33	228.49
404.71	228.84
405.08	229.35
405.46	229.47
405.83	229.76
406.21	229.94
406.58	230.23
406.96	230.55
407.33	231.00
407.70	231.43
408.08	232.20
408.45	232.64
408.83	233.11
409.20	233.52
409.58	233.62
409.95	234.22
410.33	234.77
410.70	235.16
411.08	235.80
411.45	236.43
411.82	236.95
412.20	237.67
412.57	238.61
412.95	238.94
413.32	239.88
413.69	240.67
414.07	241.65
414.44	242.56
414.82	243.62
415.19	244.88
415.56	246.07
415.94	247.12
416.31	248.60
416.68	249.92
417.06	251.52
417.43	253.16
417.81	254.90
418.18	256.70
418.55	258.54
418.93	260.53
419.30	262.57
419.67	264.85
420.04	267.15
420.42	269.39
420.79	272.43
421.16	275.15
421.54	278.15
421.91	281.05
422.28	284.10
422.66	287.33
423.03	290.65
423.40	293.98
423.77	297.48
424.15	300.93
424.52	304.75
424.89	308.86
425.26	312.75
425.64	316.50
426.01	320.70
426.38	325.06
426.75	329.46
427.13	333.93
427.50	338.52
427.87	343.24
428.24	348.05
428.61	352.50
428.99	357.65
429.36	363.02
429.73	368.59
430.10	373.95
430.47	379.55
430.85	385.02
431.22	391.04
431.59	397.81
431.96	403.90
432.33	410.64
432.70	417.18
433.08	424.87
433.45	432.12
433.82	439.26
434.19	447.36
434.56	455.28
434.93	462.77
435.30	470.50
435.68	478.94
436.05	487.21
436.42	495.35
436.79	503.06
437.16	511.21
437.53	519.70
437.90	528.21
438.27	536.48
438.64	545.31
439.01	553.38
439.38	560.28
439.75	567.35
440.13	575.33
440.50	582.65
440.87	588.71
441.24	594.91
441.61	601.87
441.98	606.76
442.35	612.58
442.72	618.71
443.09	624.39
443.46	627.73
443.83	629.96
444.20	631.94
444.57	634.61
444.94	635.70
445.31	636.92
445.68	638.53
446.05	638.76
446.42	637.55
446.79	636.35
447.16	634.90
447.53	633.75
447.90	630.07
448.27	626.46
448.64	621.68
449.01	618.09
449.37	612.05
449.74	606.19
450.11	599.37
450.48	591.62
450.85	583.73
451.22	577.07
451.59	570.68
451.96	564.45
452.33	556.49
452.70	549.28
453.07	540.67
453.43	531.57
453.80	523.51
454.17	515.51
454.54	507.83
454.91	499.69
455.28	491.72
455.65	484.40
456.02	477.84
456.38	471.62
456.75	464.04
457.12	457.53
457.49	451.32
457.86	445.12
458.23	440.10
458.59	434.54
458.96	428.95
459.33	423.95
459.70	418.82
460.07	414.73
460.43	410.12
460.80	405.95
461.17	402.34
461.54	398.39
461.91	394.63
462.27	390.94
462.64	387.72
463.01	384.29
463.38	381.16
463.74	377.09
464.11	374.08
464.48	371.59
464.85	368.85
465.21	366.78
465.58	364.45
465.95	361.66
466.32	359.48
466.68	357.20
467.05	355.03
467.42	353.13
467.78	350.84
468.15	348.80
468.52	347.17
468.88	344.90
469.25	342.92
469.62	341.50
469.98	339.88
470.35	338.32
470.72	336.90
471.08	335.13
471.45	333.93
471.82	332.71
472.18	331.17
472.55	330.07
472.92	328.74
473.28	327.69
473.65	326.62
474.02	325.52
474.38	324.64
474.75	323.83
475.11	322.81
475.48	322.16
475.85	321.55
476.21	320.91
476.58	320.48
476.94	320.15
477.31	319.73
477.67	319.40
478.04	319.17
478.41	318.98
478.77	319.30
479.14	319.04
479.50	318.89
479.87	318.94
480.23	319.05
480.60	319.04
480.96	319.10
481.33	319.48
481.69	319.75
482.06	319.94
482.42	320.24
482.79	320.67
483.15	321.12
483.52	321.74
483.88	322.33
484.25	322.87
484.61	323.54
484.98	324.15
485.34	324.99
485.71	325.94
486.07	326.87
486.44	327.43
486.80	328.44
487.17	329.64
487.53	331.00
487.90	332.39
488.26	334.06
488.62	335.74
488.99	337.14
489.35	338.87
489.72	340.78
490.08	342.72
490.44	344.76
490.81	346.93
491.17	349.00
491.54	351.46
491.90	354.02
492.26	356.65
492.63	359.36
492.99	362.14
493.36	365.20
493.72	368.47
494.08	371.98
494.45	375.66
494.81	379.44
495.17	383.44
495.54	387.64
495.90	391.86
496.26	396.27
496.63	400.99
496.99	405.83
497.35	410.89
497.72	416.14
498.08	421.48
498.44	427.05
498.80	433.13
499.17	439.03
499.53	445.26
499.89	451.71
500.26	458.63
500.62	465.68
500.98	473.10
501.34	480.51
501.71	488.14
502.07	495.91
502.43	504.05
502.79	512.37
503.16	520.95
503.52	529.75
503.88	538.83
504.24	548.35
504.60	558.12
504.97	568.40
505.33	578.68
505.69	589.78
506.05	600.86
506.41	611.89
506.78	623.38
507.14	635.35
507.50	647.70
507.86	660.21
508.22	673.05
508.59	685.67
508.95	699.19
509.31	713.20
509.67	727.50
510.03	741.55
510.39	756.09
510.75	770.71
511.12	785.74
511.48	801.43
511.84	817.13
512.20	833.00
512.56	848.93
512.92	865.80
513.28	882.20
513.64	899.00
514.00	916.36
514.37	934.12
514.73	952.06
515.09	970.06
515.45	988.03
515.81	1006.01
516.17	1024.60
516.53	1043.12
516.89	1061.30
517.25	1080.39
517.61	1100.38
517.97	1120.55
518.33	1140.32
518.69	1160.44
519.05	1180.39
519.41	1200.62
519.77	1221.39
520.13	1241.92
520.49	1262.25
520.85	1284.41
521.21	1305.57
521.57	1326.68
521.93	1347.16
522.29	1367.88
522.65	1388.35
523.01	1409.20
523.37	1429.80
523.73	1450.70
524.09	1470.85
524.45	1491.38
524.81	1511.86
525.17	1532.24
525.53	1552.38
525.89	1573.34
526.25	1593.71
526.61	1613.62
526.97	1634.42
527.33	1655.11
527.68	1676.44
528.04	1697.40
528.40	1716.73
528.76	1737.37
529.12	1757.30
529.48	1777.99
529.84	1797.98
530.20	1818.65
530.56	1838.90
530.91	1859.41
531.27	1879.41
531.63	1899.98
531.99	1920.16
532.35	1939.62
532.71	1959.45
533.07	1979.51
533.42	1998.73
533.78	2018.16
534.14	2037.79
534.50	2056.26
534.86	2075.03
535.21	2092.12
535.57	2110.16
535.93	2127.65
536.29	2144.80
536.65	2162.66
537.00	2179.57
537.36	2196.45
537.72	2212.60
538.08	2229.22
538.44	2245.53
538.79	2261.63
539.15	2277.31
539.51	2292.97
539.87	2307.97
540.22	2321.18
540.58	2335.14
540.94	2347.90
541.29	2360.47
541.65	2372.81
542.01	2384.92
542.37	2395.28
542.72	2406.13
543.08	2416.10
543.44	2427.40
543.79	2437.01
544.15	2446.25
544.51	2455.47
544.87	2464.88
545.22	2472.96
545.58	2480.49
545.94	2486.98
546.29	2493.06
546.65	2498.72
547.01	2503.95
547.36	2509.04
547.72	2514.60
548.07	2518.27
548.43	2523.33
548.79	2527.72
549.14	2531.45
549.50	2535.08
549.86	2538.75
550.21	2542.29
550.57	2545.51
550.92	2546.37
551.28	2547.62
551.64	2549.79
551.99	2551.94
552.35	2553.35
552.70	2555.73
553.06	2557.17
553.41	2558.34
553.77	2559.87
554.13	2561.40
554.48	2562.53
554.84	2563.47
555.19	2564.39
555.55	2565.59
555.90	2564.64
556.26	2563.30
556.61	2561.55
556.97	2559.07
557.32	2558.18
557.68	2556.51
558.03	2554.81
558.39	2552.93
558.74	2551.95
559.10	2548.66
559.45	2544.47
559.81	2539.48
560.16	2533.66
560.52	2528.05
560.87	2523.49
561.23	2517.64
561.58	2511.82
561.94	2505.04
562.29	2497.86
562.64	2490.51
563.00	2482.40
563.35	2475.60
563.71	2468.96
564.06	2462.53
564.42	2456.44
564.77	2449.81
565.12	2442.20
565.48	2434.31
565.83	2426.68
566.19	2418.41
566.54	2410.23
566.89	2402.35
567.25	2394.79
567.60	2387.73
567.96	2380.51
568.31	2372.16
568.66	2363.80
569.02	2354.65
569.37	2346.68
569.72	2339.19
570.08	2330.29
570.43	2320.97
570.78	2312.09
571.14	2302.68
571.49	2292.76
571.84	2283.06
572.20	2271.86
572.55	2261.95
572.90	2251.27
573.26	2241.15
573.61	2230.28
573.96	2219.51
574.31	2207.59
574.67	2195.95
575.02	2183.38
575.37	2171.07
575.72	2158.42
576.08	2146.60
576.43	2134.43
576.78	2121.19
577.13	2107.39
577.49	2094.78
577.84	2083.24
578.19	2071.38
578.54	2059.15
578.90	2047.44
579.25	2035.10
579.60	2022.99
579.95	2010.41
580.30	1997.54
580.66	1984.18
581.01	1971.08
581.36	1957.27
581.71	1945.05
582.06	1932.41
582.42	1920.24
582.77	1907.79
583.12	1896.31
583.47	1884.05
583.82	1872.23
584.17	1860.55
584.53	1849.15
584.88	1836.26
585.23	1822.95
585.58	1809.10
585.93	1795.99
586.28	1782.80
586.63	1769.13
586.98	1755.12
587.34	1741.86
587.69	1728.93
588.04	1716.64
588.39	1704.60
588.74	1692.55
589.09	1680.66
589.44	1668.27
589.79	1656.49
590.14	1644.74
590.49	1632.59
590.84	1620.95
591.19	1609.27
591.54	1597.39
591.89	1585.49
592.25	1575.80
592.60	1564.92
592.95	1553.92
593.30	1542.38
593.65	1530.60
594.00	1519.08
594.35	1509.55
594.70	1498.19
595.05	1487.12
595.40	1475.45
595.75	1464.01
596.10	1453.27
596.45	1442.11
596.80	1431.46
597.15	1420.15
597.50	1408.83
597.85	1397.79
598.19	1386.33
598.54	1374.98
598.89	1363.91
599.24	1353.62
599.59	1342.31
599.94	1331.60
600.29	1321.60
600.64	1311.60
600.99	1301.40
601.34	1292.02
601.69	1281.09
602.04	1271.50
602.39	1261.99
602.74	1252.83
603.08	1243.36
603.43	1234.16
603.78	1224.74
604.13	1215.48
604.48	1206.17
604.83	1196.64
605.18	1187.11
605.53	1177.82
605.87	1168.94
606.22	1160.82
606.57	1151.65
606.92	1142.47
607.27	1133.74
607.62	1125.06
607.96	1116.89
608.31	1109.15
608.66	1100.97
609.01	1092.37
609.36	1084.23
609.70	1075.96
610.05	1067.86
610.40	1059.74
610.75	1051.41
611.10	1043.33
611.44	1034.80
611.79	1026.78
612.14	1019.12
612.49	1011.57
612.83	1004.40
613.18	996.79
613.53	988.94
613.88	981.21
614.22	973.54
614.57	965.93
614.92	958.18
615.27	950.55
615.61	942.86
615.96	935.33
616.31	928.26
616.65	921.34
617.00	914.32
617.35	907.18
617.70	900.19
618.04	893.23
618.39	886.21
618.74	880.02
619.08	873.20
619.43	866.38
619.78	859.45
620.12	852.30
620.47	845.39
620.82	838.47
621.16	831.83
621.51	825.63
621.85	819.31
622.20	812.92
622.55	806.59
622.89	800.47
623.24	794.43
623.59	788.26
623.93	782.08
624.28	775.90
624.62	770.41
624.97	764.84
625.32	759.38
625.66	753.56
626.01	747.66
626.35	742.38
626.70	737.04
627.04	732.00
627.39	726.64
627.73	721.54
628.08	716.71
628.43	711.54
628.77	706.43
629.12	701.32
629.46	696.75
629.81	692.24
630.15	687.48
630.50	682.62
630.84	677.93
631.19	673.20
631.53	668.93
631.88	663.72
632.22	658.96
632.57	654.42
632.91	650.09
633.26	645.85
633.60	641.34
633.95	636.82
634.29	632.20
634.64	628.07
634.98	623.55
635.32	619.12
635.67	615.24
636.01	611.09
636.36	606.94
636.70	602.81
637.05	598.52
637.39	594.54
637.73	590.65
638.08	586.94
638.42	582.93
638.77	578.78
639.11	574.66
639.45	570.55
639.80	566.33
640.14	562.55
640.49	558.52
640.83	554.77
641.17	551.20
641.52	547.60
641.86	543.92
642.20	540.81
642.55	537.39
642.89	533.79
643.23	530.34
643.58	527.28
643.92	523.70
644.26	520.40
644.61	517.19
644.95	513.85
645.29	510.45
645.64	507.34
645.98	504.26
646.32	501.49
646.66	498.41
647.01	495.60
647.35	492.71
647.69	489.77
648.04	487.05
648.38	484.24
648.72	481.48
649.06	478.56
649.41	475.57
649.75	472.57
650.09	469.85
650.43	467.15
650.78	464.18
651.12	461.54
651.46	458.71
651.80	456.02
652.14	453.38
652.49	450.91
652.83	448.33
653.17	445.76
653.51	443.06
653.85	440.70
654.20	438.34
654.54	435.83
654.88	433.48
655.22	431.22
655.56	428.89
655.90	426.56
656.25	424.48
656.59	422.15
656.93	420.12
657.27	418.18
657.61	415.74
657.95	413.63
658.29	411.52
658.64	409.57
658.98	407.45
659.32	405.24
659.66	403.19
660.00	401.20
660.34	399.19
660.68	397.27
661.02	395.30
661.36	393.24
661.70	391.28
662.05	389.36
662.39	387.39
662.73	385.68
663.07	384.12
663.41	382.33
663.75	380.56
664.09	378.77
664.43	376.77
664.77	375.27
665.11	373.55
665.45	371.79
665.79	370.21
666.13	368.49
666.47	366.92
666.81	365.22
667.15	363.54
667.49	362.05
667.83	360.75
668.17	359.30
668.51	357.89
668.85	356.57
669.19	355.50
669.53	353.97
669.87	352.42
670.21	350.79
670.55	349.35
670.89	348.35
671.23	346.98
671.57	345.67
671.91	344.38
672.25	343.12
672.58	342.00
672.92	340.56
673.26	339.41
673.60	338.26
673.94	337.12
674.28	336.04
674.62	334.95
674.96	333.64
675.30	332.57
675.64	331.41
675.97	330.17
676.31	328.79
676.65	327.71
676.99	326.79
677.33	325.76
677.67	324.62
678.01	323.16
678.34	322.23
678.68	321.32
679.02	320.23
679.36	319.18
679.70	318.14
680.04	317.22
680.37	316.19
680.71	315.13
681.05	314.20
681.39	313.23
681.73	312.25
682.06	311.33
682.40	310.39
682.74	309.54
683.08	308.95
683.42	308.10
683.75	307.38
684.09	306.39
684.43	305.50
684.77	304.75
685.10	304.06
685.44	303.24
685.78	302.37
686.12	301.62
686.45	300.86
686.79	300.04
687.13	299.46
687.46	298.70
687.80	298.08
688.14	297.34
688.48	296.66
688.81	295.94
689.15	295.34
689.49	294.58
689.82	293.90
690.16	292.90
690.50	292.19
690.83	291.42
691.17	290.62
691.51	289.97
691.84	289.37
692.18	288.67
692.52	287.92
692.85	287.31
693.19	286.84
693.52	286.25
693.86	285.60
694.20	284.90
694.53	284.43
694.87	283.81
695.21	283.09
695.54	282.57
695.88	281.84
696.21	281.09
696.55	280.56
696.88	279.97
697.22	279.39
697.56	278.93
697.89	278.32
698.23	277.86
698.56	277.30
698.90	276.80
699.23	276.29
699.57	275.80
699.90	275.24
700.24	274.54
700.58	274.09
700.91	273.73
701.25	273.64
701.58	273.52
701.92	273.20
702.25	272.83
702.59	272.29
702.92	271.95
703.26	271.57
703.59	271.15
703.93	271.13
704.26	270.85
704.60	270.43
704.93	270.01
705.26	269.59
705.60	269.22
705.93	268.74
706.27	268.50
706.60	268.23
706.94	268.05
707.27	267.69
707.61	267.32
707.94	266.91
708.27	266.09
708.61	265.27
708.94	264.79
709.28	264.35
709.61	263.90
709.94	263.56
710.28	263.13
710.61	262.75
710.95	261.88
711.28	261.81
711.61	261.36
711.95	261.14
712.28	260.76
712.61	260.40
712.95	260.31
713.28	260.20
713.61	259.76
713.95	259.26
714.28	259.03
714.61	258.60
714.95	258.14
715.28	257.79
715.61	257.49
715.95	257.25
716.28	256.97
716.61	256.70
716.95	256.28
717.28	256.07
717.61	255.74
717.94	255.52
718.28	254.85
718.61	254.56
718.94	254.19
719.27	253.93
719.61	253.71
719.94	253.33
720.27	252.79
720.60	252.58
720.94	252.30
721.27	252.04
721.60	251.93
721.93	251.83
722.27	251.75
722.60	251.57
722.93	251.22
723.26	251.04
723.59	250.84
723.93	250.76
724.26	250.54
724.59	250.32
724.92	250.08
725.25	250.07
725.59	249.95
725.92	249.85
726.25	249.64
726.58	249.47
726.91	249.24
727.24	249.04
727.57	248.77
727.91	248.55
728.24	248.45
728.57	248.17
728.90	248.04
729.23	247.80
729.56	247.81
729.89	247.66
730.22	247.48
730.55	247.35
730.89	247.22
731.22	247.04
731.55	246.85
731.88	246.80
732.21	246.54
732.54	246.23
732.87	246.02
733.20	245.88
733.53	245.71
733.86	245.57
734.19	245.44
734.52	245.40
734.85	245.56
735.18	245.25
735.51	245.31
735.84	245.20
736.17	245.07
736.50	244.69
736.83	245.11
737.16	245.00
737.49	244.80
737.82	244.56
738.15	244.46
738.48	244.33
738.81	244.13
739.14	243.92
739.47	243.78
739.80	243.61
740.13	243.58
740.46	243.38
740.79	243.19
741.12	243.07
741.45	242.81
741.78	242.43
742.11	242.47
742.44	242.16
742.77	242.07
743.10	241.86
743.43	241.77
743.75	241.16
744.08	241.65
744.41	241.49
744.74	241.30
745.07	241.09
745.40	240.97
745.73	241.09
746.06	241.01
746.39	241.04
746.71	240.82
747.04	240.53
747.37	240.36
747.70	240.31
748.03	240.22
748.36	240.17
748.68	240.08
749.01	239.81
749.34	239.72
749.67	239.55
750.00	239.53
750.33	239.74
750.65	239.64
750.98	238.89
751.31	238.77
751.64	238.70
751.97	238.85
752.29	238.76
752.62	238.38
752.95	238.17
753.28	238.03
753.60	238.02
753.93	238.15
754.26	238.15
754.59	237.92
754.91	237.76
755.24	237.62
755.57	237.47
755.90	237.39
756.22	237.27
756.55	237.10
756.88	236.87
757.20	236.47
757.53	236.19
757.86	236.01
758.19	235.98
758.51	235.90
758.84	235.53
759.17	235.45
759.49	235.42
759.82	235.62
760.15	235.50
760.47	235.39
760.80	235.12
761.13	235.10
761.45	235.03
761.78	234.84
762.11	234.76
762.43	234.64
762.76	234.54
763.08	234.53
763.41	234.54
763.74	234.48
764.06	234.39
764.39	234.40
764.71	234.40
765.04	234.24
765.37	234.14
765.69	234.15
766.02	234.07
766.34	233.96
766.67	233.68
767.00	233.70
767.32	233.92
767.65	234.16
767.97	234.07
768.30	233.98
768.62	233.96
768.95	233.91
769.27	233.89
769.60	233.88
769.92	233.65
770.25	233.44
770.57	233.35
770.90	233.26
771.22	233.10
771.55	233.01
771.87	232.99
772.20	232.91
772.52	233.20
772.85	233.72
773.17	233.66
773.50	233.57
773.82	233.42
774.15	233.10
774.47	232.74
774.80	232.65
775.12	232.60
775.45	232.70
775.77	232.60
776.09	232.56
776.42	232.43
776.74	232.57
777.07	232.53
777.39	232.49
777.72	232.41
778.04	232.40
778.36	232.31
778.69	232.25
779.01	232.26
779.33	231.80
779.66	231.15
779.98	231.06
780.31	231.06
780.63	231.21
780.95	231.19
781.28	231.12
781.60	230.96
781.92	230.93
782.25	230.74
782.57	230.73
782.89	230.61
783.22	230.59
783.54	230.55
783.86	230.62
784.19	230.51
784.51	230.67
784.83	230.61
785.16	230.69
785.48	230.63
785.80	230.55
786.12	230.58
786.45	230.56
786.77	230.63
787.09	230.57
787.42	230.39
787.74	230.43
788.06	230.43
788.38	230.44
788.71	230.39
789.03	230.41
789.35	230.43
789.67	230.28
789.99	230.33
790.32	230.07
790.64	230.02
790.96	230.44
791.28	230.22
791.61	230.14
791.93	230.02
792.25	230.09
792.57	230.43
792.89	230.31
793.21	230.31
793.54	230.17
793.86	230.10
794.18	230.04
794.50	229.89
794.82	229.84
795.14	229.84
795.47	229.90
795.79	229.85
796.11	229.72
796.43	229.77
796.75	229.69
797.07	229.71
797.39	229.65
797.71	229.19
798.04	229.10
798.36	229.12
798.68	229.15
799.00	229.08
799.32	228.85
799.64	228.89
799.96	228.85
800.28	228.90
800.60	228.90
800.92	228.95
801.24	228.84
801.56	228.78
801.89	228.72
802.21	228.68
802.53	228.63
802.85	228.67
803.17	228.92
803.49	228.81
803.81	228.77
804.13	228.70
804.45	228.71
804.77	228.77
805.09	228.73
805.41	228.59
805.73	228.51
806.05	228.37
806.37	228.37
806.69	228.34
807.01	228.30
807.33	228.20
807.65	228.04
807.97	228.30
808.28	228.30
808.60	228.26
808.92	228.17
809.24	228.44
809.56	228.38
809.88	228.13
810.20	228.19
810.52	228.28
810.84	228.20
811.16	228.15
811.48	228.12
811.80	228.28
812.12	228.29
812.43	228.38
812.75	228.31
813.07	228.18
813.39	228.21
813.71	228.15
814.03	228.12
814.35	228.16
814.67	227.98
814.98	227.95
815.30	227.95
815.62	227.84
815.94	227.50
816.26	227.67
816.58	227.60
816.89	227.55
817.21	227.39
817.53	227.43
817.85	227.43
818.17	227.38
818.48	227.19
818.80	227.31
819.12	227.18
819.44	227.17
819.76	227.08
820.07	227.02
820.39	227.06
820.71	227.11
821.03	227.04
821.34	226.94
821.66	227.07
821.98	227.15
822.30	227.18
822.61	227.49
822.93	227.28
823.25	227.30
823.57	227.30
823.88	227.49
824.20	227.53
824.52	227.64
824.83	227.67
825.15	227.66
825.47	227.61
825.79	227.66
826.10	227.66
826.42	227.73
826.74	227.77
827.05	227.74
827.37	227.71
827.69	227.75
828.00	227.88
828.32	227.80
828.64	227.74
828.95	228.02
829.27	227.85
829.58	227.86
829.90	227.92
830.22	227.95
830.53	227.85
830.85	227.75
831.17	227.62
831.48	227.60
831.80	227.60
832.11	227.56
832.43	227.51
832.75	227.50
833.06	227.75
833.38	227.60
833.69	227.54
834.01	227.58
834.32	227.53
834.64	227.40
834.96	227.40
835.27	227.36
835.59	227.11
835.90	227.04
836.22	226.97
836.53	226.85
836.85	226.80
837.16	227.25
837.48	227.22
837.79	227.34
838.11	227.35
838.42	227.33
838.74	227.37
839.05	227.30
839.37	227.16
839.68	226.90
840.00	226.90
840.31	226.96
840.63	226.96
840.94	226.99
841.26	226.92
841.57	226.85
841.88	226.90
842.20	226.84
842.51	226.76
842.83	226.77
843.14	227.23
843.46	227.23
843.77	226.91
844.08	226.88
844.40	226.75
844.71	226.70
845.03	226.65
845.34	226.62
845.65	226.66
845.97	226.68
846.28	226.66
846.60	226.70
846.91	226.67
847.22	226.62
847.54	226.62
847.85	226.70
848.16	226.73
848.48	226.64
848.79	226.84
849.10	226.87
849.42	226.86
849.73	226.43
850.04	226.52
850.36	226.35
850.67	226.45
850.98	226.41
851.30	226.43
851.61	226.37
851.92	226.38
852.23	226.57
852.55	226.65
852.86	226.69
853.17	226.79
853.49	226.82
853.80	226.90
854.11	227.00
854.42	227.07
854.74	227.03
855.05	227.02
855.36	226.84
855.67	226.89
855.99	226.94
856.30	227.51
856.61	227.35
856.92	227.39
857.23	227.42
857.55	227.43
857.86	227.40
858.17	227.54
858.48	227.46
858.79	227.37
859.11	227.45
859.42	227.43
859.73	227.34
860.04	227.38
860.35	227.23
860.66	227.15
860.98	227.07
861.29	227.13
861.60	227.15
861.91	227.29
862.22	227.21
862.53	227.17
862.84	226.65
863.16	226.81
863.47	226.75
863.78	226.69
864.09	226.67
864.40	226.75
864.71	226.76
865.02	226.85
865.33	226.71
865.64	226.61
865.95	226.57
866.27	226.82
866.58	226.68
866.89	226.76
867.20	226.69
867.51	226.70
867.82	226.65
868.13	226.75
868.44	226.56
868.75	226.65
869.06	226.63
869.37	226.55
869.68	226.39
869.99	226.39
870.30	226.40
870.61	226.47
870.92	226.36
871.23	226.35
871.54	226.36
871.85	226.50
872.16	226.56
872.47	226.57
872.78	226.29
873.09	226.34
873.40	226.27
873.71	226.24
874.02	226.21
874.33	226.20
874.64	226.12
874.95	226.29
875.26	226.17
875.56	226.24
875.87	226.27
876.18	226.27
876.49	226.78
876.80	226.71
877.11	226.63
877.42	226.67
877.73	226.64
878.04	226.56
878.35	226.58
878.66	226.63
878.96	226.56
879.27	226.61
879.58	226.58
879.89	226.58
880.20	226.72
880.51	226.67
880.82	226.66
881.12	226.69
881.43	226.49
881.74	226.41
882.05	226.30
882.36	226.31
882.67	226.33
882.97	225.81
883.28	225.82
883.59	225.77
883.90	225.78
884.21	225.81
884.51	225.77
884.82	225.71
885.13	225.62
885.44	225.67
885.74	225.67
886.05	225.68
886.36	225.65
886.67	225.56
886.98	225.84
887.28	225.85
887.59	225.81
887.90	225.91
888.20	225.97
888.51	226.10
888.82	226.05
889.13	226.07
889.43	226.46
889.74	226.48
890.05	226.46
890.35	226.40
890.66	226.37
890.97	226.38
891.28	226.25
891.58	226.29
891.89	226.20
892.20	226.13
892.50	226.10
892.81	226.11
893.12	226.06
893.42	225.76
893.73	225.79
894.04	225.79
894.34	225.80
894.65	225.75
894.95	225.64
895.26	225.61
895.57	225.79
895.87	225.39
896.18	225.48
896.48	225.56
896.79	225.64
897.10	225.67
897.40	225.64
897.71	225.80
898.01	225.70
898.32	225.81
898.63	225.77
898.93	225.80
899.24	225.81
899.54	225.80
899.85	225.86
900.15	225.83
900.46	225.91
900.76	226.01
901.07	226.02
901.38	226.00
901.68	226.09
901.99	225.94
902.29	225.95
902.60	225.85
902.90	225.81
903.21	225.82
903.51	225.76
903.82	225.87
904.12	225.78
904.43	225.91
904.73	225.90
905.03	225.94
905.34	226.41
905.64	226.33
905.95	226.40
906.25	226.39
906.56	226.41
906.86	226.31
907.17	226.25
907.47	226.26
907.77	226.29
908.08	226.24
908.38	226.31
908.69	226.31
908.99	226.42
909.30	226.41
909.60	226.38
909.90	226.42
910.21	226.30
910.51	226.28
910.81	226.21
911.12	226.18
911.42	226.15
911.73	225.60
912.03	225.66
912.33	225.71
912.64	225.71
912.94	225.66
913.24	225.66
913.55	225.58
913.85	225.59
914.15	225.62
914.46	225.62
914.76	225.57
915.06	225.58
915.37	225.46
915.67	225.46
915.97	225.43
916.27	225.31
916.58	225.32
916.88	225.37
917.18	225.33
917.49	225.71
917.79	225.75
918.09	225.88
918.39	226.05
918.70	226.00
919.00	226.01
919.30	226.20
919.60	226.17
919.91	226.10
920.21	226.14
920.51	226.05
920.81	226.06
921.12	226.10
921.42	226.08
921.72	226.19
922.02	226.26
922.32	226.37
922.63	226.45
922.93	226.71
923.23	226.70
923.53	226.70
923.83	226.40
924.13	226.44
924.44	226.42
924.74	226.43
925.04	226.59
925.34	226.63
925.64	226.44
925.94	226.44
926.24	226.75
926.55	226.71
926.85	226.82
927.15	226.85
927.45	226.80
927.75	226.85
928.05	226.80
928.35	226.74
928.65	226.76
928.95	226.78
929.26	226.52
929.56	226.54
929.86	226.57
930.16	226.46
930.46	226.48
930.76	226.51
931.06	226.34
931.36	226.08
931.66	226.08
931.96	226.11
932.26	226.19
932.56	226.03
932.86	226.04
933.16	226.02
933.46	225.99
933.76	225.90
934.06	225.94
934.36	226.10
934.66	226.07
934.96	226.04
935.26	226.06
935.56	226.15
935.86	226.08
936.16	226.00
936.46	226.08
936.76	225.98
937.06	225.94
937.36	225.97
937.66	226.09
937.96	226.09
938.26	226.07
938.56	225.97
938.86	225.95
939.16	226.08
939.46	226.12
939.76	226.17
940.06	226.25
940.35	226.12
940.65	225.84
940.95	225.83
941.25	225.73
941.55	225.67
941.85	225.68
942.15	225.79
942.45	226.01
942.75	225.93
943.04	225.98
943.34	226.04
943.64	225.99
943.94	225.94
944.24	225.93
944.54	225.87
944.84	225.89
945.13	225.83
945.43	225.68
945.73	225.62
946.03	225.54
946.33	225.50
946.62	225.55
946.92	225.56
947.22	225.64
947.52	225.64
947.82	225.67
948.11	225.62
948.41	225.51
948.71	225.33
949.01	225.37
949.31	225.35
949.60	225.30
949.90	225.41
950.20	225.34
950.50	225.30
950.79	225.30
951.09	225.46
951.39	225.42
951.69	225.45
951.98	225.57
952.28	225.60
952.58	225.60
952.87	225.61
953.17	225.75
953.47	225.69
953.76	225.74
954.06	225.62
954.36	225.59
954.66	225.61
954.95	225.69
955.25	225.72
955.55	225.76
955.84	225.69
956.14	225.73
956.44	225.76
956.73	225.77
957.03	225.78
957.32	225.68
957.62	225.65
957.92	225.71
958.21	225.67
958.51	226.24
958.81	226.32
959.10	226.34
959.40	226.44
959.69	226.52
959.99	226.62
960.29	226.68
960.58	226.60
960.88	226.75
961.17	226.73
961.47	226.76
961.76	226.66
962.06	226.72
962.36	226.65
962.65	226.70
962.95	226.68
963.24	226.63
963.54	226.68
963.83	226.81
964.13	226.87
964.42	226.77
964.72	226.36
965.01	226.28
965.31	226.25
965.60	226.12
965.90	226.37
966.19	226.19
966.49	226.21
966.78	226.27
967.08	226.25
967.37	226.32
967.67	226.23
967.96	226.40
968.26	226.41
968.55	226.42
968.85	226.39
969.14	226.37
969.43	226.40
969.73	226.35
970.02	226.32
970.32	226.21
970.61	226.22
970.91	226.06
971.20	225.99
971.49	225.94
971.79	226.01
972.08	225.71
972.38	225.79
972.67	225.78
972.96	225.79
973.26	225.66
973.55	225.73
973.85	225.70
974.14	225.55
974.43	225.60
974.73	225.50
975.02	225.54
975.31	225.56
975.61	225.58
975.90	225.48
976.19	225.40
976.49	225.40
976.78	225.43
977.07	225.49
977.37	225.58
977.66	225.67
977.95	225.48
978.24	225.46
978.54	225.53
978.83	225.43
979.12	225.39
979.42	225.41
979.71	225.28
980.00	225.27
980.29	225.33
980.59	225.27
980.88	225.48
981.17	225.44
981.46	225.50
981.76	225.48
982.05	225.69
982.34	225.73
982.63	225.73
982.93	225.72
983.22	225.78
983.51	225.75
983.80	225.81
984.09	225.93
984.39	225.92
984.68	225.85
984.97	225.90
985.26	225.88
985.55	225.92
985.85	225.87
986.14	225.94
986.43	225.99
986.72	225.88
987.01	225.61
987.30	225.65
987.59	225.56
987.89	225.57
988.18	225.38
988.47	225.29
988.76	225.30
989.05	225.25
989.34	225.15
989.63	225.30
989.92	225.18
990.22	225.12
990.51	225.17
990.80	225.17
991.09	225.28
991.38	225.41
991.67	225.38
991.96	225.32
992.25	225.37
992.54	225.27
992.83	225.32
993.12	225.41
993.41	225.41
993.70	225.65
993.99	225.78
994.28	225.89
994.58	225.97
994.87	225.91
995.16	225.88
995.45	225.92
995.74	225.71
996.03	225.79
996.32	225.93
996.61	226.05
996.90	226.02
997.19	225.96
997.48	225.88
997.77	225.88
998.06	225.94
998.34	225.86
998.63	225.94
998.92	225.99
999.21	226.06
999.50	226.07
999.79	225.83
1000.08	225.71
1000.37	225.73
1000.66	225.74
1000.95	225.85
1001.24	225.94
1001.53	225.95
1001.82	225.99
1002.11	225.89
1002.40	225.84
1002.68	225.91
1002.97	226.28
1003.26	226.29
1003.55	226.22
1003.84	226.29
1004.13	226.46
1004.42	226.39
1004.71	226.35
1004.99	226.32
1005.28	226.43
1005.57	226.36
1005.86	226.33
1006.15	226.34
1006.44	226.26
1006.72	226.27
1007.01	226.17
1007.30	226.17
1007.59	226.13
1007.88	226.12
1008.17	226.13
1008.45	226.10
1008.74	225.80
1009.03	225.58
1009.32	225.60
1009.60	225.64
1009.89	225.56
1010.18	225.39
1010.47	225.45
1010.76	225.39
1011.04	225.36
1011.33	225.41
1011.62	225.53
1011.91	225.59
1012.19	225.66
1012.48	225.66
1012.77	225.73
1013.05	225.93
1013.34	225.92
1013.63	225.90
1013.92	225.94
1014.20	225.97
1014.49	225.96
1014.78	226.10
1015.06	225.94
1015.35	225.90
1015.64	225.95
1015.92	226.00
1016.21	225.97
1016.50	225.95
1016.78	226.10
1017.07	226.11
1017.36	225.96
1017.64	225.83
1017.93	225.87
1018.22	225.76
1018.50	225.76
1018.79	225.70
1019.08	225.49
1019.36	225.48
1019.65	225.47
1019.93	225.59
1020.22	225.66
1020.51	225.98
1020.79	225.89
1021.08	224.15
1021.36	224.90
1021.65	226.15
1021.94	225.25
1022.22	225.65
1022.51	225.65
1022.79	228.10
1023.08	226.75
1023.36	232.75
1023.65	224.10
>>>>>End Processed Spectral Data<<<<<
