SpectraSuite Data File
++++++++++++++++++++++++++++++++++++
Date: Wed Sep 04 18:01:37 EDT 2013
User: lab3
Dark Spectrum Present: Yes
Reference Spectrum Present: No
Number of Sampled Component Spectra: 1
Spectrometers: USB2E7196
Integration Time (usec): 170000 (USB2E7196)
Spectra Averaged: 20 (USB2E7196)
Boxcar Smoothing: 10 (USB2E7196)
Correct for Electrical Dark: No (USB2E7196)
Strobe/Lamp Enabled: No (USB2E7196)
Correct for Detector Non-linearity: No (USB2E7196)
Correct for Stray Light: No (USB2E7196)
Number of Pixels in Processed Spectrum: 2048
>>>>>Begin Processed Spectral Data<<<<<
339.09	0.00
339.48	214.35
339.86	215.30
340.24	216.90
340.63	218.30
341.01	225.80
341.39	219.80
341.78	222.90
342.16	224.50
342.54	222.05
342.93	212.89
343.31	223.52
343.69	223.97
344.07	224.48
344.46	224.86
344.84	225.29
345.22	225.30
345.60	225.59
345.99	225.78
346.37	225.92
346.75	226.06
347.13	226.15
347.52	226.15
347.90	226.37
348.28	226.41
348.66	226.59
349.05	226.46
349.43	226.51
349.81	226.55
350.19	226.55
350.57	226.60
350.96	226.70
351.34	226.89
351.72	227.03
352.10	227.10
352.48	227.20
352.87	227.17
353.25	227.22
353.63	227.30
354.01	227.29
354.39	227.37
354.77	227.48
355.15	227.62
355.54	227.61
355.92	227.45
356.30	227.49
356.68	227.86
357.06	227.91
357.44	227.87
357.82	227.88
358.20	228.35
358.58	228.37
358.97	228.39
359.35	228.51
359.73	228.67
360.11	228.69
360.49	228.75
360.87	228.76
361.25	228.88
361.63	229.08
362.01	229.16
362.39	229.17
362.77	229.26
363.15	229.30
363.53	229.40
363.91	229.57
364.29	229.65
364.67	229.18
365.05	229.30
365.43	229.40
365.81	229.46
366.19	229.37
366.57	229.60
366.95	229.62
367.33	229.58
367.71	229.51
368.09	229.65
368.47	229.66
368.85	229.72
369.23	229.82
369.61	229.60
369.99	229.74
370.37	229.80
370.75	229.98
371.13	229.89
371.51	229.84
371.89	229.72
372.27	229.69
372.65	229.78
373.03	229.69
373.41	229.58
373.78	229.55
374.16	229.24
374.54	229.04
374.92	228.98
375.30	228.99
375.68	228.96
376.06	228.93
376.44	228.81
376.82	228.80
377.19	228.67
377.57	228.66
377.95	228.49
378.33	228.39
378.71	228.06
379.09	228.00
379.47	228.00
379.84	227.92
380.22	227.81
380.60	227.59
380.98	227.47
381.36	227.45
381.73	227.28
382.11	227.26
382.49	227.18
382.87	227.01
383.25	226.85
383.62	227.34
384.00	227.15
384.38	227.08
384.76	227.10
385.13	227.23
385.51	227.20
385.89	227.05
386.27	226.98
386.64	227.01
387.02	226.98
387.40	226.91
387.78	226.92
388.15	226.87
388.53	226.84
388.91	226.82
389.29	226.71
389.66	226.75
390.04	226.65
390.42	226.79
390.79	226.80
391.17	226.87
391.55	226.26
391.92	226.28
392.30	226.37
392.68	226.27
393.05	226.13
393.43	226.09
393.81	226.10
394.18	226.04
394.56	226.04
394.94	226.11
395.31	226.10
395.69	226.26
396.06	226.40
396.44	226.44
396.82	226.41
397.19	226.75
397.57	226.88
397.95	227.01
398.32	226.90
398.70	227.12
399.07	227.23
399.45	227.31
399.82	227.30
400.20	227.36
400.58	227.45
400.95	227.48
401.33	227.68
401.70	228.20
402.08	228.38
402.45	228.50
402.83	228.79
403.20	228.94
403.58	229.10
403.95	229.30
404.33	229.55
404.71	229.84
405.08	230.29
405.46	230.42
405.83	230.71
406.21	230.95
406.58	231.27
406.96	231.58
407.33	231.90
407.70	232.36
408.08	233.10
408.45	233.54
408.83	234.01
409.20	234.34
409.58	234.51
409.95	235.04
410.33	235.61
410.70	235.97
411.08	236.66
411.45	237.26
411.82	237.84
412.20	238.67
412.57	239.75
412.95	240.06
413.32	240.96
413.69	241.73
414.07	242.72
414.44	243.64
414.82	244.60
415.19	245.90
415.56	247.05
415.94	248.06
416.31	249.50
416.68	250.94
417.06	252.65
417.43	254.21
417.81	256.04
418.18	257.87
418.55	259.80
418.93	261.80
419.30	263.91
419.67	266.17
420.04	268.41
420.42	270.69
420.79	273.75
421.16	276.61
421.54	279.70
421.91	282.69
422.28	285.81
422.66	289.16
423.03	292.60
423.40	295.97
423.77	299.55
424.15	303.20
424.52	307.06
424.89	311.31
425.26	315.24
425.64	318.92
426.01	323.11
426.38	327.50
426.75	331.99
427.13	336.54
427.50	341.33
427.87	346.27
428.24	351.19
428.61	355.70
428.99	360.97
429.36	366.49
429.73	371.95
430.10	377.39
430.47	383.10
430.85	388.78
431.22	395.00
431.59	401.77
431.96	408.05
432.33	414.95
432.70	421.55
433.08	429.45
433.45	437.06
433.82	444.50
434.19	452.81
434.56	460.98
434.93	468.70
435.30	476.47
435.68	485.19
436.05	493.65
436.42	502.12
436.79	510.02
437.16	518.34
437.53	527.22
437.90	536.06
438.27	544.58
438.64	553.53
439.01	561.84
439.38	569.05
439.75	576.25
440.13	584.26
440.50	591.88
440.87	598.16
441.24	604.55
441.61	611.60
441.98	616.59
442.35	622.49
442.72	628.55
443.09	634.36
443.46	637.76
443.83	640.26
444.20	642.26
444.57	644.94
444.94	646.15
445.31	647.30
445.68	648.73
446.05	649.08
446.42	647.73
446.79	646.28
447.16	644.83
447.53	643.49
447.90	639.84
448.27	636.20
448.64	631.26
449.01	627.50
449.37	621.23
449.74	615.16
450.11	608.19
450.48	600.43
450.85	592.38
451.22	585.40
451.59	578.59
451.96	572.09
452.33	563.78
452.70	556.27
453.07	547.46
453.43	538.24
453.80	529.58
454.17	521.38
454.54	513.70
454.91	505.37
455.28	497.37
455.65	489.86
456.02	482.77
456.38	476.42
456.75	468.56
457.12	462.07
457.49	455.74
457.86	449.35
458.23	444.17
458.59	438.47
458.96	432.74
459.33	427.55
459.70	422.59
460.07	418.51
460.43	413.87
460.80	409.75
461.17	405.94
461.54	402.06
461.91	398.27
462.27	394.33
462.64	391.05
463.01	387.42
463.38	384.13
463.74	380.28
464.11	377.17
464.48	374.63
464.85	371.74
465.21	369.66
465.58	367.38
465.95	364.49
466.32	362.26
466.68	360.00
467.05	357.76
467.42	355.50
467.78	353.18
468.15	351.13
468.52	349.44
468.88	347.20
469.25	345.16
469.62	343.79
469.98	342.22
470.35	340.65
470.72	339.19
471.08	337.51
471.45	336.28
471.82	334.98
472.18	333.47
472.55	332.52
472.92	331.13
473.28	329.99
473.65	328.93
474.02	327.86
474.38	327.03
474.75	326.37
475.11	325.53
475.48	324.89
475.85	324.19
476.21	323.45
476.58	323.02
476.94	322.75
477.31	322.22
477.67	321.72
478.04	321.49
478.41	321.30
478.77	321.53
479.14	321.08
479.50	320.95
479.87	320.92
480.23	320.81
480.60	320.82
480.96	320.89
481.33	321.21
481.69	321.48
482.06	321.61
482.42	321.83
482.79	322.20
483.15	322.56
483.52	323.17
483.88	323.65
484.25	324.20
484.61	324.77
484.98	325.47
485.34	326.48
485.71	327.35
486.07	328.30
486.44	328.86
486.80	330.01
487.17	331.13
487.53	332.57
487.90	334.06
488.26	335.75
488.62	337.37
488.99	338.89
489.35	340.61
489.72	342.44
490.08	344.34
490.44	346.31
490.81	348.57
491.17	350.71
491.54	353.24
491.90	355.85
492.26	358.60
492.63	361.47
492.99	364.33
493.36	367.44
493.72	370.74
494.08	374.33
494.45	378.03
494.81	381.90
495.17	385.70
495.54	389.86
495.90	394.23
496.26	398.75
496.63	403.47
496.99	408.30
497.35	413.44
497.72	418.82
498.08	424.44
498.44	430.19
498.80	436.24
499.17	442.33
499.53	448.47
499.89	455.20
500.26	461.98
500.62	468.98
500.98	476.37
501.34	483.86
501.71	491.45
502.07	499.33
502.43	507.52
502.79	516.07
503.16	524.71
503.52	533.47
503.88	542.70
504.24	552.36
504.60	562.39
504.97	572.65
505.33	582.97
505.69	594.14
506.05	605.19
506.41	616.62
506.78	628.32
507.14	640.55
507.50	652.78
507.86	665.52
508.22	678.54
508.59	691.67
508.95	705.43
509.31	719.76
509.67	734.05
510.03	748.59
510.39	763.28
510.75	778.48
511.12	793.88
511.48	809.58
511.84	825.35
512.20	841.21
512.56	857.63
512.92	874.59
513.28	891.29
513.64	908.71
514.00	926.06
514.37	943.80
514.73	961.95
515.09	980.28
515.45	998.54
515.81	1016.94
516.17	1035.70
516.53	1054.31
516.89	1072.95
517.25	1092.55
517.61	1112.76
517.97	1133.11
518.33	1153.24
518.69	1173.46
519.05	1194.14
519.41	1214.93
519.77	1236.18
520.13	1256.92
520.49	1277.58
520.85	1299.81
521.21	1321.04
521.57	1342.36
521.93	1363.37
522.29	1384.42
522.65	1405.15
523.01	1426.17
523.37	1447.06
523.73	1468.30
524.09	1488.95
524.45	1509.96
524.81	1530.67
525.17	1550.92
525.53	1571.64
525.89	1592.64
526.25	1613.62
526.61	1634.11
526.97	1655.04
527.33	1676.38
527.68	1698.47
528.04	1719.91
528.40	1739.81
528.76	1760.45
529.12	1780.68
529.48	1801.33
529.84	1821.64
530.20	1843.04
530.56	1864.02
530.91	1884.93
531.27	1905.39
531.63	1926.18
531.99	1946.91
532.35	1967.27
532.71	1987.98
533.07	2008.47
533.42	2028.13
533.78	2048.38
534.14	2068.23
534.50	2087.40
534.86	2106.68
535.21	2123.92
535.57	2142.72
535.93	2160.72
536.29	2178.73
536.65	2197.65
537.00	2215.57
537.36	2233.41
537.72	2249.69
538.08	2266.73
538.44	2283.50
538.79	2300.17
539.15	2316.85
539.51	2332.73
539.87	2348.17
540.22	2362.50
540.58	2376.95
540.94	2390.53
541.29	2402.90
541.65	2415.47
542.01	2428.02
542.37	2438.66
542.72	2450.45
543.08	2461.06
543.44	2472.67
543.79	2483.09
544.15	2492.80
544.51	2502.95
544.87	2512.72
545.22	2521.52
545.58	2529.58
545.94	2537.05
546.29	2543.45
546.65	2549.81
547.01	2555.47
547.36	2561.19
547.72	2566.79
548.07	2571.20
548.43	2576.85
548.79	2581.73
549.14	2586.30
549.50	2590.43
549.86	2594.69
550.21	2598.15
550.57	2601.67
550.92	2603.10
551.28	2604.66
551.64	2607.15
551.99	2609.46
552.35	2611.11
552.70	2613.52
553.06	2615.32
553.41	2616.72
553.77	2618.85
554.13	2620.41
554.48	2621.97
554.84	2623.54
555.19	2624.44
555.55	2625.83
555.90	2624.77
556.26	2624.17
556.61	2622.35
556.97	2620.25
557.32	2619.51
557.68	2618.61
558.03	2617.05
558.39	2615.74
558.74	2615.14
559.10	2611.80
559.45	2607.82
559.81	2603.61
560.16	2598.59
560.52	2593.95
560.87	2589.12
561.23	2583.17
561.58	2577.26
561.94	2570.56
562.29	2562.62
562.64	2556.11
563.00	2548.33
563.35	2542.28
563.71	2535.60
564.06	2529.54
564.42	2523.30
564.77	2516.55
565.12	2508.83
565.48	2500.97
565.83	2493.44
566.19	2485.00
566.54	2477.29
566.89	2469.49
567.25	2461.62
567.60	2454.15
567.96	2446.43
568.31	2438.73
568.66	2430.46
569.02	2421.52
569.37	2413.30
569.72	2405.91
570.08	2396.23
570.43	2386.40
570.78	2377.05
571.14	2367.22
571.49	2357.15
571.84	2347.15
572.20	2336.07
572.55	2326.05
572.90	2315.15
573.26	2304.62
573.61	2293.62
573.96	2282.46
574.31	2270.38
574.67	2258.56
575.02	2245.91
575.37	2233.02
575.72	2219.77
576.08	2207.58
576.43	2195.22
576.78	2181.65
577.13	2167.71
577.49	2155.02
577.84	2143.29
578.19	2130.90
578.54	2119.03
578.90	2106.72
579.25	2094.64
579.60	2082.04
579.95	2068.96
580.30	2055.90
580.66	2042.33
581.01	2028.54
581.36	2014.43
581.71	2001.78
582.06	1988.72
582.42	1975.90
582.77	1963.28
583.12	1951.17
583.47	1938.69
583.82	1926.42
584.17	1914.67
584.53	1903.09
584.88	1890.10
585.23	1876.86
585.58	1862.77
585.93	1849.34
586.28	1835.97
586.63	1821.69
586.98	1807.57
587.34	1794.42
587.69	1781.08
588.04	1768.68
588.39	1756.84
588.74	1744.72
589.09	1732.52
589.44	1719.88
589.79	1707.96
590.14	1695.91
590.49	1684.05
590.84	1671.88
591.19	1659.62
591.54	1647.48
591.89	1635.18
592.25	1624.84
592.60	1613.35
592.95	1602.19
593.30	1589.90
593.65	1577.93
594.00	1565.96
594.35	1555.97
594.70	1543.90
595.05	1532.53
595.40	1520.00
595.75	1507.83
596.10	1496.43
596.45	1484.73
596.80	1473.36
597.15	1461.95
597.50	1450.07
597.85	1438.45
598.19	1426.72
598.54	1415.48
598.89	1404.10
599.24	1393.20
599.59	1381.66
599.94	1370.69
600.29	1359.74
600.64	1349.51
600.99	1338.71
601.34	1329.21
601.69	1317.86
602.04	1307.93
602.39	1298.33
602.74	1289.21
603.08	1279.72
603.43	1270.51
603.78	1260.85
604.13	1251.41
604.48	1241.37
604.83	1231.74
605.18	1221.67
605.53	1212.16
605.87	1202.66
606.22	1193.90
606.57	1184.86
606.92	1175.05
607.27	1165.89
607.62	1157.24
607.96	1148.35
608.31	1140.29
608.66	1131.90
609.01	1123.40
609.36	1114.77
609.70	1105.82
610.05	1096.98
610.40	1088.23
610.75	1079.28
611.10	1070.84
611.44	1062.17
611.79	1054.08
612.14	1046.02
612.49	1038.08
612.83	1030.52
613.18	1022.64
613.53	1014.81
613.88	1006.61
614.22	999.07
614.57	991.12
614.92	983.18
615.27	975.63
615.61	967.91
615.96	960.12
616.31	952.67
616.65	945.45
617.00	938.08
617.35	930.90
617.70	923.86
618.04	916.80
618.39	909.76
618.74	903.26
619.08	896.31
619.43	889.32
619.78	882.22
620.12	875.00
620.47	868.16
620.82	861.00
621.16	854.11
621.51	847.76
621.85	841.30
622.20	834.70
622.55	828.09
622.89	821.56
623.24	815.09
623.59	808.53
623.93	802.31
624.28	796.13
624.62	790.35
624.97	784.41
625.32	778.53
625.66	772.50
626.01	766.29
626.35	760.81
626.70	755.10
627.04	750.07
627.39	744.60
627.73	739.13
628.08	733.90
628.43	728.56
628.77	723.03
629.12	717.67
629.46	712.69
629.81	707.89
630.15	703.05
630.50	698.20
630.84	693.35
631.19	688.56
631.53	684.12
631.88	678.75
632.22	673.70
632.57	669.22
632.91	664.55
633.26	660.14
633.60	655.46
633.95	650.89
634.29	645.96
634.64	641.44
634.98	636.59
635.32	632.15
635.67	627.94
636.01	623.63
636.36	619.44
636.70	615.53
637.05	611.13
637.39	606.95
637.73	602.80
638.08	598.67
638.42	594.35
638.77	589.94
639.11	585.74
639.45	581.59
639.80	577.09
640.14	572.94
640.49	568.89
640.83	564.87
641.17	561.13
641.52	557.58
641.86	553.83
642.20	550.87
642.55	547.18
642.89	543.73
643.23	540.32
643.58	537.02
643.92	533.19
644.26	529.90
644.61	526.71
644.95	523.22
645.29	519.82
645.64	516.56
645.98	513.50
646.32	510.53
646.66	507.40
647.01	504.37
647.35	501.68
647.69	498.74
648.04	496.02
648.38	493.19
648.72	490.14
649.06	487.21
649.41	483.95
649.75	481.06
650.09	478.06
650.43	475.13
650.78	472.13
651.12	469.25
651.46	466.42
651.80	463.51
652.14	460.80
652.49	458.34
652.83	455.82
653.17	453.14
653.51	450.38
653.85	447.95
654.20	445.53
654.54	442.89
654.88	440.20
655.22	437.86
655.56	435.25
655.90	432.81
656.25	430.50
656.59	428.13
656.93	425.86
657.27	423.83
657.61	421.24
657.95	419.11
658.29	416.86
658.64	414.72
658.98	412.45
659.32	410.26
659.66	408.02
660.00	405.89
660.34	403.75
660.68	401.74
661.02	399.66
661.36	397.59
661.70	395.55
662.05	393.64
662.39	391.69
662.73	389.97
663.07	388.34
663.41	386.53
663.75	384.65
664.09	382.82
664.43	380.75
664.77	379.20
665.11	377.37
665.45	375.75
665.79	374.13
666.13	372.45
666.47	370.75
666.81	368.99
667.15	367.24
667.49	365.70
667.83	364.39
668.17	362.87
668.51	361.42
668.85	360.01
669.19	358.82
669.53	357.21
669.87	355.66
670.21	354.15
670.55	352.67
670.89	351.61
671.23	350.24
671.57	348.77
671.91	347.41
672.25	346.13
672.58	344.91
672.92	343.47
673.26	342.16
673.60	340.96
673.94	339.88
674.28	338.77
674.62	337.63
674.96	336.23
675.30	335.09
675.64	333.96
675.97	332.70
676.31	331.41
676.65	330.18
676.99	329.20
677.33	328.06
677.67	327.09
678.01	325.68
678.34	324.56
678.68	323.69
679.02	322.72
679.36	321.78
679.70	320.74
680.04	319.86
680.37	318.94
680.71	317.95
681.05	317.08
681.39	316.10
681.73	315.14
682.06	314.25
682.40	313.35
682.74	312.48
683.08	311.81
683.42	310.91
683.75	310.18
684.09	309.17
684.43	308.30
684.77	307.44
685.10	306.72
685.44	306.04
685.78	305.23
686.12	304.38
686.45	303.57
686.79	302.73
687.13	302.08
687.46	301.30
687.80	300.72
688.14	299.83
688.48	299.08
688.81	298.34
689.15	297.78
689.49	297.00
689.82	296.28
690.16	295.29
690.50	294.55
690.83	293.85
691.17	293.17
691.51	292.55
691.84	291.86
692.18	291.19
692.52	290.38
692.85	289.74
693.19	289.25
693.52	288.52
693.86	287.87
694.20	287.09
694.53	286.52
694.87	285.72
695.21	285.15
695.54	284.58
695.88	283.89
696.21	283.02
696.55	282.42
696.88	281.76
697.22	281.25
697.56	280.79
697.89	280.13
698.23	279.60
698.56	278.98
698.90	278.42
699.23	277.83
699.57	277.37
699.90	276.75
700.24	276.11
700.58	275.71
700.91	275.21
701.25	275.08
701.58	274.94
701.92	274.63
702.25	274.09
702.59	273.61
702.92	273.18
703.26	272.93
703.59	272.57
703.93	272.57
704.26	272.15
704.60	271.69
704.93	271.27
705.26	270.81
705.60	270.47
705.93	270.00
706.27	269.73
706.60	269.48
706.94	269.35
707.27	268.96
707.61	268.58
707.94	268.24
708.27	267.51
708.61	266.80
708.94	266.30
709.28	265.95
709.61	265.52
709.94	265.18
710.28	264.76
710.61	264.39
710.95	263.56
711.28	263.55
711.61	263.19
711.95	262.96
712.28	262.56
712.61	262.24
712.95	262.19
713.28	262.03
713.61	261.49
713.95	261.02
714.28	260.64
714.61	260.25
714.95	259.87
715.28	259.48
715.61	259.07
715.95	258.86
716.28	258.53
716.61	258.32
716.95	258.02
717.28	257.68
717.61	257.34
717.94	256.97
718.28	256.30
718.61	256.02
718.94	255.72
719.27	255.48
719.61	255.21
719.94	254.76
720.27	254.27
720.60	254.03
720.94	253.67
721.27	253.52
721.60	253.35
721.93	253.11
722.27	253.04
722.60	252.86
722.93	252.43
723.26	252.27
723.59	251.91
723.93	251.74
724.26	251.54
724.59	251.36
724.92	251.22
725.25	251.12
725.59	250.91
725.92	250.73
726.25	250.58
726.58	250.37
726.91	250.16
727.24	250.02
727.57	249.82
727.91	249.58
728.24	249.37
728.57	249.12
728.90	249.02
729.23	248.68
729.56	248.72
729.89	248.67
730.22	248.39
730.55	248.22
730.89	247.97
731.22	247.75
731.55	247.50
731.88	247.39
732.21	247.16
732.54	246.84
732.87	246.68
733.20	246.43
733.53	246.22
733.86	246.11
734.19	245.85
734.52	245.80
734.85	246.03
735.18	245.84
735.51	245.83
735.84	245.68
736.17	245.73
736.50	245.35
736.83	245.73
737.16	245.60
737.49	245.50
737.82	245.38
738.15	245.31
738.48	245.15
738.81	244.97
739.14	244.77
739.47	244.66
739.80	244.48
740.13	244.46
740.46	244.32
740.79	244.11
741.12	243.95
741.45	243.69
741.78	243.23
742.11	243.16
742.44	242.91
742.77	242.86
743.10	242.55
743.43	242.32
743.75	241.67
744.08	242.26
744.41	242.09
744.74	241.83
745.07	241.55
745.40	241.62
745.73	241.72
746.06	241.59
746.39	241.46
746.71	241.25
747.04	241.05
747.37	240.85
747.70	240.80
748.03	240.70
748.36	240.72
748.68	240.60
749.01	240.34
749.34	240.27
749.67	240.14
750.00	240.10
750.33	240.40
750.65	240.26
750.98	239.50
751.31	239.40
751.64	239.43
751.97	239.53
752.29	239.30
752.62	238.94
752.95	238.77
753.28	238.65
753.60	238.51
753.93	238.53
754.26	238.52
754.59	238.28
754.91	238.13
755.24	237.96
755.57	237.97
755.90	237.91
756.22	237.72
756.55	237.46
756.88	237.26
757.20	236.85
757.53	236.66
757.86	236.53
758.19	236.51
758.51	236.29
758.84	236.00
759.17	235.86
759.49	235.83
759.82	235.99
760.15	236.02
760.47	235.94
760.80	235.58
761.13	235.52
761.45	235.38
761.78	235.38
762.11	235.30
762.43	235.11
762.76	234.96
763.08	234.91
763.41	234.96
763.74	234.91
764.06	234.84
764.39	234.76
764.71	234.70
765.04	234.45
765.37	234.41
765.69	234.42
766.02	234.29
766.34	234.17
766.67	233.88
767.00	233.82
767.32	234.00
767.65	234.39
767.97	234.29
768.30	234.37
768.62	234.20
768.95	234.06
769.27	233.96
769.60	234.00
769.92	233.85
770.25	233.70
770.57	233.53
770.90	233.42
771.22	233.26
771.55	233.17
771.87	233.18
772.20	233.09
772.52	233.35
772.85	233.93
773.17	233.84
773.50	233.81
773.82	233.71
774.15	233.43
774.47	232.98
774.80	232.84
775.12	232.67
775.45	232.63
775.77	232.51
776.09	232.52
776.42	232.42
776.74	232.53
777.07	232.39
777.39	232.40
777.72	232.34
778.04	232.41
778.36	232.38
778.69	232.45
779.01	232.43
779.33	231.96
779.66	231.35
779.98	231.31
780.31	231.22
780.63	231.34
780.95	231.45
781.28	231.42
781.60	231.40
781.92	231.36
782.25	231.27
782.57	231.35
782.89	231.26
783.22	231.16
783.54	231.04
783.86	231.07
784.19	230.98
784.51	231.13
784.83	231.04
785.16	231.01
785.48	230.95
785.80	230.94
786.12	231.00
786.45	230.95
786.77	230.95
787.09	230.96
787.42	230.78
787.74	230.68
788.06	230.66
788.38	230.53
788.71	230.51
789.03	230.60
789.35	230.61
789.67	230.45
789.99	230.53
790.32	230.38
790.64	230.38
790.96	230.74
791.28	230.47
791.61	230.46
791.93	230.45
792.25	230.39
792.57	230.71
792.89	230.60
793.21	230.62
793.54	230.55
793.86	230.52
794.18	230.53
794.50	230.43
794.82	230.41
795.14	230.49
795.47	230.57
795.79	230.51
796.11	230.35
796.43	230.45
796.75	230.43
797.07	230.46
797.39	230.43
797.71	230.12
798.04	230.12
798.36	230.06
798.68	229.99
799.00	229.99
799.32	229.68
799.64	229.74
799.96	229.73
800.28	229.84
800.60	229.75
800.92	229.75
801.24	229.75
801.56	229.82
801.89	229.79
802.21	229.78
802.53	229.66
802.85	229.78
803.17	229.99
803.49	229.93
803.81	229.90
804.13	229.84
804.45	229.79
804.77	229.91
805.09	229.89
805.41	229.83
805.73	229.72
806.05	229.59
806.37	229.59
806.69	229.51
807.01	229.38
807.33	229.45
807.65	229.25
807.97	229.45
808.28	229.32
808.60	229.30
808.92	229.19
809.24	229.47
809.56	229.40
809.88	229.21
810.20	229.19
810.52	229.27
810.84	229.29
811.16	229.17
811.48	229.06
811.80	229.26
812.12	229.29
812.43	229.32
812.75	229.41
813.07	229.30
813.39	229.33
813.71	229.28
814.03	229.18
814.35	229.18
814.67	228.99
814.98	228.96
815.30	228.90
815.62	228.88
815.94	228.60
816.26	228.77
816.58	228.67
816.89	228.68
817.21	228.55
817.53	228.58
817.85	228.62
818.17	228.58
818.48	228.41
818.80	228.43
819.12	228.40
819.44	228.22
819.76	228.21
820.07	228.15
820.39	228.15
820.71	228.19
821.03	228.18
821.34	228.08
821.66	228.18
821.98	228.25
822.30	228.24
822.61	228.52
822.93	228.27
823.25	228.20
823.57	228.11
823.88	228.23
824.20	228.23
824.52	228.33
824.83	228.32
825.15	228.24
825.47	228.19
825.79	228.21
826.10	228.22
826.42	228.20
826.74	228.23
827.05	228.21
827.37	228.20
827.69	228.22
828.00	228.30
828.32	228.25
828.64	228.17
828.95	228.31
829.27	228.15
829.58	228.18
829.90	228.25
830.22	228.30
830.53	228.21
830.85	228.13
831.17	227.97
831.48	227.94
831.80	227.98
832.11	228.01
832.43	227.98
832.75	228.02
833.06	228.35
833.38	228.28
833.69	228.23
834.01	228.28
834.32	228.25
834.64	228.15
834.96	228.16
835.27	228.14
835.59	228.06
835.90	227.95
836.22	227.89
836.53	227.80
836.85	227.75
837.16	228.16
837.48	228.11
837.79	228.26
838.11	228.32
838.42	228.27
838.74	228.35
839.05	228.24
839.37	228.20
839.68	227.86
840.00	227.79
840.31	227.85
840.63	227.83
840.94	227.85
841.26	227.84
841.57	227.79
841.88	227.88
842.20	227.78
842.51	227.74
842.83	227.83
843.14	228.33
843.46	228.33
843.77	228.07
844.08	228.08
844.40	227.96
844.71	227.83
845.03	227.82
845.34	227.70
845.65	227.77
845.97	227.80
846.28	227.84
846.60	227.87
846.91	227.86
847.22	227.83
847.54	227.88
847.85	227.90
848.16	227.87
848.48	227.75
848.79	227.96
849.10	228.04
849.42	228.01
849.73	227.50
850.04	227.46
850.36	227.29
850.67	227.36
850.98	227.35
851.30	227.53
851.61	227.50
851.92	227.52
852.23	227.67
852.55	227.69
852.86	227.73
853.17	227.80
853.49	227.84
853.80	227.91
854.11	227.94
854.42	228.00
854.74	227.92
855.05	227.92
855.36	227.65
855.67	227.65
855.99	227.66
856.30	228.30
856.61	228.33
856.92	228.32
857.23	228.27
857.55	228.24
857.86	228.08
858.17	228.18
858.48	228.12
858.79	227.92
859.11	227.91
859.42	227.85
859.73	227.83
860.04	227.82
860.35	227.66
860.66	227.54
860.98	227.53
861.29	227.67
861.60	227.71
861.91	227.89
862.22	227.85
862.53	227.78
862.84	227.21
863.16	227.31
863.47	227.22
863.78	227.20
864.09	227.23
864.40	227.29
864.71	227.29
865.02	227.33
865.33	227.35
865.64	227.30
865.95	227.30
866.27	227.56
866.58	227.48
866.89	227.59
867.20	227.52
867.51	227.46
867.82	227.36
868.13	227.44
868.44	227.30
868.75	227.34
869.06	227.32
869.37	227.33
869.68	227.22
869.99	227.36
870.30	227.45
870.61	227.50
870.92	227.47
871.23	227.41
871.54	227.48
871.85	227.58
872.16	227.62
872.47	227.58
872.78	227.35
873.09	227.44
873.40	227.38
873.71	227.42
874.02	227.40
874.33	227.34
874.64	227.29
874.95	227.35
875.26	227.24
875.56	227.25
875.87	227.14
876.18	227.13
876.49	227.62
876.80	227.52
877.11	227.44
877.42	227.52
877.73	227.55
878.04	227.49
878.35	227.39
878.66	227.51
878.96	227.48
879.27	227.32
879.58	227.21
879.89	227.13
880.20	227.25
880.51	227.24
880.82	227.30
881.12	227.33
881.43	227.22
881.74	227.14
882.05	227.09
882.36	227.17
882.67	227.20
882.97	226.61
883.28	226.51
883.59	226.42
883.90	226.43
884.21	226.44
884.51	226.35
884.82	226.31
885.13	226.19
885.44	226.17
885.74	226.22
886.05	226.18
886.36	226.31
886.67	226.17
886.98	226.50
887.28	226.55
887.59	226.55
887.90	226.63
888.20	226.66
888.51	226.75
888.82	226.67
889.13	226.73
889.43	227.18
889.74	227.19
890.05	227.21
890.35	227.17
890.66	227.11
890.97	227.10
891.28	227.08
891.58	227.10
891.89	227.14
892.20	227.13
892.50	227.23
892.81	227.17
893.12	227.21
893.42	226.87
893.73	226.86
894.04	226.83
894.34	226.86
894.65	226.86
894.95	226.84
895.26	226.88
895.57	227.04
895.87	226.58
896.18	226.74
896.48	226.79
896.79	226.80
897.10	226.87
897.40	226.93
897.71	226.99
898.01	226.98
898.32	227.05
898.63	227.02
898.93	226.98
899.24	227.01
899.54	227.00
899.85	226.97
900.15	226.99
900.46	227.00
900.76	227.00
901.07	226.99
901.38	227.02
901.68	227.06
901.99	226.85
902.29	226.90
902.60	226.83
902.90	226.77
903.21	226.76
903.51	226.80
903.82	226.89
904.12	226.90
904.43	226.90
904.73	226.91
905.03	227.03
905.34	227.51
905.64	227.40
905.95	227.39
906.25	227.48
906.56	227.45
906.86	227.46
907.17	227.43
907.47	227.46
907.77	227.35
908.08	227.30
908.38	227.28
908.69	227.36
908.99	227.44
909.30	227.49
909.60	227.47
909.90	227.45
910.21	227.31
910.51	227.28
910.81	227.27
911.12	227.23
911.42	227.18
911.73	226.66
912.03	226.74
912.33	226.81
912.64	226.74
912.94	226.60
913.24	226.48
913.55	226.46
913.85	226.47
914.15	226.59
914.46	226.66
914.76	226.64
915.06	226.49
915.37	226.37
915.67	226.34
915.97	226.35
916.27	226.20
916.58	226.21
916.88	226.18
917.18	226.16
917.49	226.50
917.79	226.54
918.09	226.60
918.39	226.77
918.70	226.69
919.00	226.72
919.30	226.97
919.60	227.01
919.91	226.95
920.21	226.93
920.51	226.81
920.81	226.76
921.12	226.77
921.42	226.75
921.72	226.76
922.02	226.74
922.32	226.87
922.63	226.95
922.93	227.18
923.23	227.19
923.53	227.14
923.83	226.81
924.13	226.75
924.44	226.77
924.74	226.77
925.04	226.92
925.34	226.89
925.64	226.72
925.94	226.67
926.24	226.95
926.55	226.91
926.85	227.01
927.15	227.02
927.45	227.03
927.75	227.11
928.05	227.17
928.35	227.12
928.65	227.04
928.95	227.04
929.26	226.87
929.56	226.98
929.86	226.99
930.16	226.87
930.46	226.81
930.76	226.82
931.06	226.60
931.36	226.39
931.66	226.51
931.96	226.60
932.26	226.62
932.56	226.36
932.86	226.38
933.16	226.29
933.46	226.29
933.76	226.21
934.06	226.35
934.36	226.52
934.66	226.58
934.96	226.60
935.26	226.69
935.56	226.78
935.86	226.75
936.16	226.67
936.46	226.73
936.76	226.74
937.06	226.67
937.36	226.69
937.66	226.76
937.96	226.66
938.26	226.55
938.56	226.44
938.86	226.48
939.16	226.68
939.46	226.76
939.76	226.79
940.06	226.82
940.35	226.67
940.65	226.40
940.95	226.39
941.25	226.27
941.55	226.14
941.85	226.08
942.15	226.12
942.45	226.27
942.75	226.27
943.04	226.36
943.34	226.48
943.64	226.48
943.94	226.42
944.24	226.45
944.54	226.45
944.84	226.56
945.13	226.53
945.43	226.35
945.73	226.32
946.03	226.25
946.33	226.24
946.62	226.20
946.92	226.22
947.22	226.23
947.52	226.26
947.82	226.28
948.11	226.28
948.41	226.11
948.71	225.97
949.01	226.02
949.31	225.94
949.60	225.85
949.90	225.95
950.20	225.95
950.50	225.98
950.79	225.96
951.09	226.03
951.39	225.97
951.69	225.91
951.98	225.96
952.28	226.01
952.58	225.99
952.87	226.05
953.17	226.09
953.47	226.03
953.76	226.07
954.06	225.99
954.36	225.82
954.66	225.89
954.95	226.04
955.25	226.00
955.55	226.03
955.84	226.00
956.14	225.99
956.44	226.02
956.73	225.99
957.03	225.97
957.32	225.91
957.62	225.94
957.92	226.07
958.21	226.00
958.51	226.45
958.81	226.44
959.10	226.43
959.40	226.46
959.69	226.51
959.99	226.54
960.29	226.62
960.58	226.71
960.88	226.78
961.17	226.72
961.47	226.72
961.76	226.66
962.06	226.75
962.36	226.66
962.65	226.61
962.95	226.56
963.24	226.55
963.54	226.48
963.83	226.50
964.13	226.50
964.42	226.46
964.72	226.13
965.01	226.19
965.31	226.11
965.60	226.04
965.90	226.33
966.19	226.21
966.49	226.17
966.78	226.08
967.08	226.07
967.37	226.05
967.67	225.97
967.96	226.04
968.26	226.03
968.55	226.14
968.85	226.26
969.14	226.28
969.43	226.33
969.73	226.37
970.02	226.39
970.32	226.36
970.61	226.40
970.91	226.33
971.20	226.28
971.49	226.33
971.79	226.28
972.08	225.93
972.38	226.02
972.67	226.01
972.96	226.12
973.26	226.07
973.55	226.22
973.85	226.27
974.14	226.25
974.43	226.30
974.73	226.18
975.02	226.15
975.31	226.14
975.61	226.24
975.90	226.17
976.19	226.13
976.49	226.11
976.78	226.07
977.07	225.99
977.37	226.03
977.66	226.05
977.95	226.09
978.24	226.20
978.54	226.25
978.83	226.21
979.12	226.18
979.42	226.19
979.71	226.12
980.00	226.11
980.29	226.17
980.59	226.07
980.88	226.23
981.17	226.21
981.46	226.23
981.76	226.13
982.05	226.30
982.34	226.36
982.63	226.36
982.93	226.47
983.22	226.70
983.51	226.77
983.80	226.83
984.09	226.89
984.39	226.85
984.68	226.84
984.97	226.94
985.26	226.98
985.55	227.00
985.85	226.90
986.14	226.97
986.43	227.07
986.72	227.02
987.01	226.87
987.30	226.86
987.59	226.81
987.89	226.88
988.18	226.78
988.47	226.75
988.76	226.71
989.05	226.64
989.34	226.51
989.63	226.59
989.92	226.60
990.22	226.60
990.51	226.51
990.80	226.49
991.09	226.47
991.38	226.48
991.67	226.47
991.96	226.45
992.25	226.50
992.54	226.31
992.83	226.30
993.12	226.29
993.41	226.36
993.70	226.60
993.99	226.63
994.28	226.68
994.58	226.75
994.87	226.72
995.16	226.68
995.45	226.66
995.74	226.42
996.03	226.45
996.32	226.42
996.61	226.61
996.90	226.55
997.19	226.53
997.48	226.51
997.77	226.41
998.06	226.43
998.34	226.35
998.63	226.38
998.92	226.44
999.21	226.46
999.50	226.45
999.79	226.25
1000.08	226.22
1000.37	226.18
1000.66	226.08
1000.95	226.24
1001.24	226.25
1001.53	226.27
1001.82	226.32
1002.11	226.17
1002.40	226.24
1002.68	226.29
1002.97	226.61
1003.26	226.60
1003.55	226.58
1003.84	226.62
1004.13	226.79
1004.42	226.70
1004.71	226.70
1004.99	226.63
1005.28	226.81
1005.57	226.67
1005.86	226.61
1006.15	226.51
1006.44	226.49
1006.72	226.57
1007.01	226.44
1007.30	226.47
1007.59	226.38
1007.88	226.34
1008.17	226.36
1008.45	226.22
1008.74	226.08
1009.03	225.81
1009.32	225.81
1009.60	225.72
1009.89	225.77
1010.18	225.52
1010.47	225.58
1010.76	225.54
1011.04	225.56
1011.33	225.57
1011.62	225.70
1011.91	225.79
1012.19	225.93
1012.48	225.96
1012.77	225.93
1013.05	226.17
1013.34	226.20
1013.63	226.19
1013.92	226.22
1014.20	226.20
1014.49	226.27
1014.78	226.27
1015.06	226.20
1015.35	226.23
1015.64	226.32
1015.92	226.37
1016.21	226.46
1016.50	226.42
1016.78	226.53
1017.07	226.58
1017.36	226.44
1017.64	226.41
1017.93	226.39
1018.22	226.32
1018.50	226.33
1018.79	226.35
1019.08	226.18
1019.36	226.15
1019.65	226.13
1019.93	226.30
1020.22	226.44
1020.51	226.77
1020.79	226.82
1021.08	226.40
1021.36	225.65
1021.65	227.30
1021.94	226.65
1022.22	226.40
1022.51	224.75
1022.79	229.10
1023.08	228.00
1023.36	233.35
1023.65	226.85
>>>>>End Processed Spectral Data<<<<<
