SpectraSuite Data File
++++++++++++++++++++++++++++++++++++
Date: Wed Sep 04 17:47:04 EDT 2013
User: lab3
Dark Spectrum Present: Yes
Reference Spectrum Present: No
Number of Sampled Component Spectra: 1
Spectrometers: USB2E7196
Integration Time (usec): 170000 (USB2E7196)
Spectra Averaged: 20 (USB2E7196)
Boxcar Smoothing: 10 (USB2E7196)
Correct for Electrical Dark: No (USB2E7196)
Strobe/Lamp Enabled: No (USB2E7196)
Correct for Detector Non-linearity: No (USB2E7196)
Correct for Stray Light: No (USB2E7196)
Number of Pixels in Processed Spectrum: 2048
>>>>>Begin Processed Spectral Data<<<<<
339.09	0.00
339.48	211.80
339.86	214.40
340.24	216.00
340.63	216.65
341.01	224.90
341.39	218.75
341.78	222.25
342.16	223.60
342.54	221.90
342.93	211.78
343.31	222.48
343.69	223.07
344.07	223.54
344.46	224.00
344.84	224.41
345.22	224.40
345.60	224.75
345.99	224.95
346.37	225.10
346.75	225.27
347.13	225.31
347.52	225.39
347.90	225.67
348.28	225.70
348.66	225.85
349.05	225.80
349.43	225.89
349.81	225.98
350.19	225.98
350.57	225.99
350.96	226.11
351.34	226.20
351.72	226.27
352.10	226.36
352.48	226.33
352.87	226.34
353.25	226.43
353.63	226.37
354.01	226.37
354.39	226.40
354.77	226.47
355.15	226.69
355.54	226.62
355.92	226.50
356.30	226.60
356.68	226.92
357.06	227.00
357.44	227.04
357.82	227.00
358.20	227.44
358.58	227.46
358.97	227.53
359.35	227.69
359.73	227.81
360.11	227.82
360.49	227.98
360.87	228.09
361.25	228.15
361.63	228.40
362.01	228.50
362.39	228.50
362.77	228.61
363.15	228.64
363.53	228.75
363.91	228.80
364.29	228.80
364.67	228.37
365.05	228.36
365.43	228.46
365.81	228.64
366.19	228.51
366.57	228.69
366.95	228.72
367.33	228.61
367.71	228.64
368.09	228.79
368.47	228.73
368.85	228.70
369.23	228.86
369.61	228.72
369.99	228.91
370.37	229.00
370.75	229.19
371.13	229.03
371.51	228.95
371.89	228.98
372.27	229.04
372.65	229.08
373.03	229.17
373.41	229.03
373.78	228.95
374.16	228.72
374.54	228.56
374.92	228.50
375.30	228.48
375.68	228.35
376.06	228.29
376.44	228.27
376.82	228.30
377.19	228.17
377.57	228.12
377.95	227.83
378.33	227.72
378.71	227.30
379.09	227.35
379.47	227.41
379.84	227.30
380.22	227.09
380.60	226.95
380.98	226.80
381.36	226.74
381.73	226.58
382.11	226.62
382.49	226.58
382.87	226.43
383.25	226.40
383.62	226.95
384.00	226.78
384.38	226.69
384.76	226.70
385.13	226.79
385.51	226.68
385.89	226.56
386.27	226.50
386.64	226.58
387.02	226.47
387.40	226.31
387.78	226.31
388.15	226.27
388.53	226.26
388.91	226.19
389.29	226.18
389.66	226.27
390.04	226.16
390.42	226.21
390.79	226.21
391.17	226.15
391.55	225.55
391.92	225.59
392.30	225.69
392.68	225.56
393.05	225.56
393.43	225.62
393.81	225.74
394.18	225.67
394.56	225.69
394.94	225.84
395.31	225.87
395.69	226.05
396.06	226.21
396.44	226.27
396.82	226.28
397.19	226.50
397.57	226.49
397.95	226.57
398.32	226.51
398.70	226.61
399.07	226.77
399.45	226.77
399.82	226.87
400.20	226.88
400.58	227.00
400.95	226.89
401.33	227.04
401.70	227.44
402.08	227.63
402.45	227.69
402.83	227.83
403.20	228.05
403.58	228.16
403.95	228.39
404.33	228.57
404.71	228.80
405.08	229.25
405.46	229.45
405.83	229.77
406.21	230.02
406.58	230.37
406.96	230.64
407.33	231.04
407.70	231.33
408.08	232.02
408.45	232.47
408.83	232.98
409.20	233.40
409.58	233.57
409.95	234.12
410.33	234.65
410.70	235.14
411.08	235.68
411.45	236.19
411.82	236.72
412.20	237.55
412.57	238.48
412.95	238.82
413.32	239.74
413.69	240.51
414.07	241.45
414.44	242.39
414.82	243.38
415.19	244.57
415.56	245.77
415.94	246.77
416.31	248.12
416.68	249.50
417.06	251.03
417.43	252.67
417.81	254.34
418.18	256.16
418.55	258.01
418.93	260.01
419.30	262.13
419.67	264.33
420.04	266.48
420.42	268.76
420.79	271.84
421.16	274.57
421.54	277.55
421.91	280.48
422.28	283.57
422.66	286.86
423.03	290.24
423.40	293.42
423.77	296.86
424.15	300.39
424.52	304.07
424.89	308.25
425.26	312.11
425.64	315.93
426.01	320.02
426.38	324.30
426.75	328.79
427.13	333.26
427.50	337.96
427.87	342.89
428.24	347.82
428.61	352.13
428.99	357.33
429.36	362.64
429.73	368.12
430.10	373.45
430.47	378.91
430.85	384.49
431.22	390.65
431.59	397.38
431.96	403.51
432.33	410.35
432.70	416.91
433.08	424.58
433.45	431.76
433.82	439.04
434.19	447.15
434.56	455.21
434.93	462.80
435.30	470.36
435.68	478.64
436.05	486.87
436.42	495.10
436.79	502.49
437.16	510.75
437.53	519.19
437.90	527.70
438.27	536.17
438.64	544.83
439.01	552.96
439.38	560.06
439.75	567.06
440.13	574.90
440.50	582.30
440.87	588.38
441.24	594.74
441.61	601.45
441.98	606.41
442.35	611.95
442.72	617.85
443.09	623.60
443.46	627.04
443.83	629.27
444.20	631.19
444.57	634.01
444.94	635.12
445.31	636.37
445.68	637.80
446.05	638.02
446.42	636.84
446.79	635.47
447.16	633.80
447.53	632.65
447.90	629.05
448.27	625.30
448.64	620.52
449.01	616.87
449.37	611.05
449.74	605.15
450.11	598.47
450.48	590.89
450.85	582.97
451.22	576.28
451.59	569.80
451.96	563.75
452.33	555.76
452.70	548.53
453.07	540.08
453.43	531.11
453.80	522.84
454.17	514.91
454.54	507.43
454.91	499.47
455.28	491.69
455.65	484.49
456.02	477.93
456.38	471.57
456.75	463.97
457.12	457.40
457.49	451.31
457.86	445.16
458.23	440.04
458.59	434.45
458.96	428.79
459.33	423.71
459.70	418.68
460.07	414.60
460.43	409.98
460.80	405.68
461.17	402.10
461.54	398.16
461.91	394.40
462.27	390.54
462.64	387.29
463.01	383.73
463.38	380.40
463.74	376.34
464.11	373.38
464.48	370.83
464.85	368.19
465.21	366.00
465.58	363.67
465.95	360.94
466.32	358.83
466.68	356.56
467.05	354.41
467.42	352.20
467.78	349.98
468.15	347.88
468.52	346.31
468.88	344.08
469.25	342.22
469.62	340.80
469.98	339.25
470.35	337.76
470.72	336.38
471.08	334.79
471.45	333.66
471.82	332.52
472.18	331.02
472.55	329.99
472.92	328.70
473.28	327.50
473.65	326.45
474.02	325.34
474.38	324.55
474.75	323.86
475.11	323.06
475.48	322.44
475.85	321.85
476.21	321.25
476.58	320.76
476.94	320.48
477.31	320.05
477.67	319.65
478.04	319.34
478.41	319.13
478.77	319.37
479.14	319.03
479.50	318.88
479.87	318.95
480.23	318.97
480.60	318.89
480.96	319.05
481.33	319.37
481.69	319.61
482.06	319.96
482.42	320.24
482.79	320.56
483.15	321.06
483.52	321.68
483.88	322.13
484.25	322.67
484.61	323.19
484.98	323.84
485.34	324.83
485.71	325.84
486.07	326.76
486.44	327.39
486.80	328.49
487.17	329.71
487.53	331.10
487.90	332.52
488.26	334.28
488.62	335.91
488.99	337.49
489.35	339.34
489.72	341.08
490.08	343.04
490.44	345.02
490.81	347.21
491.17	349.40
491.54	351.91
491.90	354.39
492.26	357.08
492.63	359.83
492.99	362.69
493.36	365.65
493.72	368.90
494.08	372.33
494.45	375.98
494.81	379.90
495.17	383.71
495.54	387.92
495.90	392.08
496.26	396.56
496.63	401.13
496.99	405.88
497.35	410.83
497.72	416.02
498.08	421.42
498.44	427.00
498.80	433.08
499.17	439.15
499.53	445.54
499.89	452.11
500.26	459.05
500.62	465.95
500.98	473.37
501.34	480.74
501.71	488.40
502.07	496.08
502.43	504.06
502.79	512.34
503.16	520.85
503.52	529.76
503.88	538.89
504.24	548.54
504.60	558.33
504.97	568.64
505.33	578.97
505.69	590.02
506.05	600.93
506.41	611.93
506.78	623.40
507.14	635.35
507.50	647.64
507.86	659.98
508.22	672.85
508.59	685.72
508.95	699.16
509.31	712.96
509.67	727.23
510.03	741.29
510.39	755.91
510.75	770.76
511.12	785.86
511.48	801.15
511.84	816.58
512.20	832.30
512.56	848.40
512.92	865.02
513.28	881.58
513.64	898.61
514.00	915.71
514.37	933.27
514.73	951.02
515.09	969.03
515.45	987.26
515.81	1005.22
516.17	1024.00
516.53	1042.62
516.89	1061.31
517.25	1080.56
517.61	1100.58
517.97	1120.67
518.33	1140.54
518.69	1160.38
519.05	1180.69
519.41	1201.06
519.77	1222.08
520.13	1242.49
520.49	1262.79
520.85	1284.73
521.21	1305.59
521.57	1326.71
521.93	1347.10
522.29	1367.87
522.65	1388.19
523.01	1408.72
523.37	1429.23
523.73	1449.43
524.09	1469.72
524.45	1489.98
524.81	1510.31
525.17	1530.34
525.53	1550.48
525.89	1570.83
526.25	1591.25
526.61	1611.10
526.97	1631.69
527.33	1652.33
527.68	1673.75
528.04	1694.63
528.40	1713.91
528.76	1734.43
529.12	1754.55
529.48	1775.00
529.84	1794.70
530.20	1815.43
530.56	1835.68
530.91	1856.26
531.27	1876.56
531.63	1896.66
531.99	1916.86
532.35	1936.57
532.71	1956.44
533.07	1976.56
533.42	1995.59
533.78	2015.28
534.14	2035.14
534.50	2053.95
534.86	2072.84
535.21	2089.77
535.57	2107.74
535.93	2125.12
536.29	2142.55
536.65	2160.10
537.00	2177.54
537.36	2194.85
537.72	2210.67
538.08	2227.71
538.44	2243.71
538.79	2259.67
539.15	2275.94
539.51	2291.40
539.87	2306.40
540.22	2319.93
540.58	2333.81
540.94	2347.32
541.29	2359.37
541.65	2371.46
542.01	2383.53
542.37	2393.58
542.72	2404.23
543.08	2414.50
543.44	2425.72
543.79	2435.08
544.15	2444.93
544.51	2454.43
544.87	2463.45
545.22	2471.83
545.58	2478.87
545.94	2485.73
546.29	2491.60
546.65	2497.24
547.01	2502.38
547.36	2507.13
547.72	2512.38
548.07	2515.73
548.43	2520.12
548.79	2524.67
549.14	2528.49
549.50	2531.80
549.86	2535.20
550.21	2538.56
550.57	2541.48
550.92	2542.50
551.28	2543.64
551.64	2545.50
551.99	2546.97
552.35	2548.25
552.70	2549.90
553.06	2551.47
553.41	2552.42
553.77	2554.14
554.13	2555.33
554.48	2556.68
554.84	2557.74
555.19	2558.62
555.55	2560.10
555.90	2559.75
556.26	2558.66
556.61	2556.53
556.97	2554.31
557.32	2553.72
557.68	2552.36
558.03	2550.67
558.39	2548.89
558.74	2547.92
559.10	2544.26
559.45	2540.52
559.81	2535.96
560.16	2530.96
560.52	2525.74
560.87	2521.24
561.23	2515.84
561.58	2510.17
561.94	2503.01
562.29	2495.63
562.64	2488.71
563.00	2480.46
563.35	2473.55
563.71	2466.70
564.06	2460.33
564.42	2453.82
564.77	2446.70
565.12	2439.26
565.48	2431.59
565.83	2423.92
566.19	2415.83
566.54	2408.17
566.89	2400.03
567.25	2392.19
567.60	2384.89
567.96	2377.33
568.31	2369.58
568.66	2361.00
569.02	2351.92
569.37	2343.88
569.72	2336.24
570.08	2326.75
570.43	2317.62
570.78	2308.51
571.14	2299.10
571.49	2288.97
571.84	2279.55
572.20	2268.82
572.55	2258.66
572.90	2247.98
573.26	2237.79
573.61	2227.00
573.96	2215.99
574.31	2204.27
574.67	2192.80
575.02	2180.20
575.37	2167.53
575.72	2154.34
576.08	2142.22
576.43	2129.76
576.78	2117.10
577.13	2103.94
577.49	2091.58
577.84	2079.83
578.19	2068.01
578.54	2055.81
578.90	2044.34
579.25	2031.95
579.60	2019.73
579.95	2007.23
580.30	1994.48
580.66	1981.32
581.01	1968.28
581.36	1954.43
581.71	1941.88
582.06	1929.21
582.42	1917.14
582.77	1905.04
583.12	1893.51
583.47	1881.46
583.82	1869.78
584.17	1857.70
584.53	1846.13
584.88	1833.40
585.23	1820.40
585.58	1806.61
585.93	1793.58
586.28	1780.50
586.63	1767.03
586.98	1753.00
587.34	1739.99
587.69	1726.99
588.04	1714.30
588.39	1702.32
588.74	1690.57
589.09	1678.73
589.44	1666.25
589.79	1654.44
590.14	1642.67
590.49	1630.48
590.84	1618.59
591.19	1606.88
591.54	1595.27
591.89	1583.31
592.25	1573.28
592.60	1562.16
592.95	1550.98
593.30	1539.31
593.65	1527.65
594.00	1516.03
594.35	1506.61
594.70	1495.00
595.05	1483.75
595.40	1472.53
595.75	1460.74
596.10	1449.80
596.45	1438.64
596.80	1428.20
597.15	1417.05
597.50	1405.45
597.85	1394.78
598.19	1383.46
598.54	1371.87
598.89	1360.82
599.24	1350.49
599.59	1339.39
599.94	1328.90
600.29	1318.82
600.64	1308.72
600.99	1298.29
601.34	1288.96
601.69	1278.08
602.04	1268.56
602.39	1259.22
602.74	1250.06
603.08	1241.07
603.43	1232.06
603.78	1222.60
604.13	1213.26
604.48	1203.72
604.83	1194.31
605.18	1184.58
605.53	1175.51
605.87	1166.69
606.22	1158.40
606.57	1149.11
606.92	1140.01
607.27	1131.32
607.62	1122.74
607.96	1114.59
608.31	1106.93
608.66	1098.76
609.01	1090.44
609.36	1082.20
609.70	1073.96
610.05	1065.55
610.40	1057.34
610.75	1048.89
611.10	1041.03
611.44	1032.69
611.79	1024.89
612.14	1017.44
612.49	1009.84
612.83	1002.53
613.18	995.00
613.53	987.35
613.88	979.85
614.22	972.30
614.57	964.57
614.92	956.98
615.27	949.58
615.61	942.00
615.96	934.52
616.31	927.21
616.65	920.40
617.00	913.24
617.35	906.20
617.70	899.14
618.04	892.08
618.39	885.10
618.74	878.83
619.08	871.94
619.43	865.10
619.78	858.24
620.12	850.99
620.47	844.35
620.82	837.29
621.16	830.69
621.51	824.52
621.85	818.47
622.20	812.01
622.55	805.58
622.89	799.42
623.24	793.26
623.59	787.13
623.93	781.06
624.28	775.25
624.62	769.83
624.97	764.22
625.32	758.67
625.66	752.86
626.01	746.75
626.35	741.44
626.70	736.07
627.04	731.10
627.39	725.77
627.73	720.74
628.08	715.91
628.43	710.72
628.77	705.38
629.12	700.25
629.46	695.73
629.81	691.12
630.15	686.41
630.50	681.71
630.84	677.19
631.19	672.50
631.53	667.91
631.88	662.82
632.22	658.05
632.57	653.71
632.91	649.34
633.26	645.20
633.60	640.80
633.95	636.31
634.29	631.58
634.64	627.47
634.98	622.75
635.32	618.44
635.67	614.54
636.01	610.63
636.36	606.37
636.70	602.35
637.05	598.25
637.39	594.16
637.73	590.30
638.08	586.29
638.42	582.28
638.77	578.08
639.11	573.83
639.45	569.59
639.80	565.32
640.14	561.49
640.49	557.54
640.83	553.79
641.17	550.23
641.52	546.57
641.86	543.12
642.20	540.11
642.55	536.48
642.89	532.95
643.23	529.47
643.58	526.43
643.92	522.79
644.26	519.65
644.61	516.49
644.95	513.08
645.29	509.79
645.64	506.63
645.98	503.63
646.32	500.89
646.66	497.98
647.01	495.03
647.35	492.18
647.69	489.35
648.04	486.65
648.38	483.84
648.72	481.25
649.06	478.26
649.41	475.19
649.75	472.31
650.09	469.46
650.43	466.61
650.78	463.69
651.12	461.05
651.46	458.15
651.80	455.41
652.14	452.76
652.49	450.30
652.83	447.71
653.17	445.19
653.51	442.46
653.85	440.08
654.20	437.71
654.54	435.20
654.88	432.70
655.22	430.46
655.56	428.07
655.90	425.67
656.25	423.41
656.59	421.31
656.93	419.35
657.27	417.32
657.61	414.97
657.95	412.72
658.29	410.65
658.64	408.64
658.98	406.53
659.32	404.30
659.66	402.15
660.00	400.27
660.34	398.28
660.68	396.48
661.02	394.50
661.36	392.60
661.70	390.71
662.05	388.91
662.39	386.88
662.73	385.19
663.07	383.71
663.41	381.89
663.75	379.97
664.09	378.01
664.43	376.12
664.77	374.58
665.11	372.99
665.45	371.26
665.79	369.67
666.13	367.99
666.47	366.43
666.81	364.83
667.15	363.08
667.49	361.62
667.83	360.26
668.17	358.76
668.51	357.33
668.85	355.91
669.19	354.80
669.53	353.40
669.87	351.90
670.21	350.20
670.55	348.89
670.89	347.83
671.23	346.58
671.57	345.32
671.91	344.02
672.25	342.69
672.58	341.65
672.92	340.17
673.26	338.92
673.60	337.83
673.94	336.75
674.28	335.65
674.62	334.57
674.96	333.24
675.30	332.19
675.64	331.09
675.97	329.94
676.31	328.58
676.65	327.30
676.99	326.38
677.33	325.31
677.67	324.36
678.01	323.05
678.34	322.08
678.68	321.13
679.02	320.05
679.36	319.21
679.70	318.04
680.04	317.19
680.37	316.32
680.71	315.26
681.05	314.31
681.39	313.45
681.73	312.37
682.06	311.56
682.40	310.68
682.74	309.86
683.08	309.20
683.42	308.31
683.75	307.58
684.09	306.65
684.43	305.84
684.77	304.89
685.10	304.13
685.44	303.29
685.78	302.46
686.12	301.81
686.45	300.90
686.79	300.12
687.13	299.49
687.46	298.80
687.80	298.22
688.14	297.42
688.48	296.61
688.81	295.97
689.15	295.32
689.49	294.52
689.82	293.81
690.16	292.88
690.50	292.27
690.83	291.63
691.17	290.78
691.51	290.11
691.84	289.58
692.18	288.83
692.52	288.21
692.85	287.53
693.19	287.05
693.52	286.40
693.86	285.75
694.20	285.10
694.53	284.50
694.87	283.81
695.21	283.16
695.54	282.59
695.88	281.98
696.21	281.16
696.55	280.58
696.88	279.95
697.22	279.39
697.56	278.91
697.89	278.34
698.23	277.89
698.56	277.39
698.90	276.90
699.23	276.40
699.57	275.90
699.90	275.40
700.24	274.71
700.58	274.26
700.91	273.85
701.25	273.79
701.58	273.66
701.92	273.28
702.25	272.95
702.59	272.48
702.92	272.02
703.26	271.73
703.59	271.45
703.93	271.37
704.26	270.97
704.60	270.54
704.93	270.09
705.26	269.63
705.60	269.26
705.93	268.73
706.27	268.47
706.60	268.20
706.94	268.01
707.27	267.58
707.61	267.17
707.94	266.74
708.27	265.95
708.61	265.15
708.94	264.79
709.28	264.41
709.61	264.10
709.94	263.73
710.28	263.35
710.61	262.97
710.95	262.19
711.28	262.23
711.61	261.72
711.95	261.50
712.28	261.15
712.61	260.75
712.95	260.65
713.28	260.49
713.61	259.98
713.95	259.46
714.28	259.19
714.61	258.85
714.95	258.52
715.28	258.10
715.61	257.74
715.95	257.46
716.28	257.02
716.61	256.72
716.95	256.43
717.28	256.12
717.61	255.80
717.94	255.53
718.28	254.85
718.61	254.63
718.94	254.28
719.27	254.02
719.61	253.83
719.94	253.41
720.27	253.02
720.60	252.78
720.94	252.62
721.27	252.38
721.60	252.35
721.93	252.12
722.27	252.14
722.60	251.99
722.93	251.70
723.26	251.64
723.59	251.37
723.93	251.15
724.26	251.01
724.59	250.79
724.92	250.69
725.25	250.68
725.59	250.46
725.92	250.35
726.25	250.19
726.58	250.02
726.91	249.80
727.24	249.56
727.57	249.32
727.91	249.02
728.24	248.90
728.57	248.60
728.90	248.51
729.23	248.16
729.56	248.25
729.89	248.08
730.22	247.78
730.55	247.59
730.89	247.45
731.22	247.23
731.55	247.01
731.88	246.85
732.21	246.54
732.54	246.32
732.87	246.17
733.20	246.05
733.53	245.90
733.86	245.79
734.19	245.56
734.52	245.52
734.85	245.71
735.18	245.53
735.51	245.48
735.84	245.32
736.17	245.32
736.50	244.88
736.83	245.26
737.16	245.03
737.49	244.92
737.82	244.72
738.15	244.65
738.48	244.56
738.81	244.36
739.14	244.14
739.47	244.05
739.80	243.78
740.13	243.60
740.46	243.34
740.79	243.13
741.12	242.99
741.45	242.74
741.78	242.31
742.11	242.30
742.44	242.08
742.77	242.04
743.10	241.72
743.43	241.61
743.75	241.00
744.08	241.58
744.41	241.37
744.74	241.21
745.07	240.92
745.40	240.78
745.73	240.89
746.06	240.77
746.39	240.60
746.71	240.48
747.04	240.31
747.37	240.20
747.70	240.18
748.03	240.02
748.36	240.07
748.68	239.90
749.01	239.54
749.34	239.42
749.67	239.19
750.00	239.20
750.33	239.40
750.65	239.29
750.98	238.53
751.31	238.51
751.64	238.41
751.97	238.52
752.29	238.42
752.62	238.01
752.95	237.89
753.28	237.84
753.60	237.75
753.93	237.75
754.26	237.68
754.59	237.42
754.91	237.33
755.24	237.10
755.57	236.98
755.90	236.92
756.22	236.73
756.55	236.65
756.88	236.36
757.20	235.97
757.53	235.71
757.86	235.63
758.19	235.53
758.51	235.46
758.84	235.19
759.17	235.04
759.49	234.99
759.82	235.25
760.15	235.20
760.47	235.06
760.80	234.87
761.13	234.90
761.45	234.83
761.78	234.74
762.11	234.75
762.43	234.74
762.76	234.72
763.08	234.75
763.41	234.61
763.74	234.65
764.06	234.57
764.39	234.60
764.71	234.49
765.04	234.34
765.37	234.26
765.69	234.14
766.02	234.05
766.34	233.99
766.67	233.66
767.00	233.63
767.32	233.81
767.65	234.00
767.97	233.85
768.30	233.91
768.62	233.83
768.95	233.67
769.27	233.57
769.60	233.50
769.92	233.37
770.25	233.29
770.57	233.13
770.90	233.04
771.22	232.93
771.55	232.91
771.87	232.90
772.20	232.81
772.52	233.22
772.85	233.75
773.17	233.75
773.50	233.70
773.82	233.57
774.15	233.33
774.47	233.03
774.80	232.98
775.12	232.82
775.45	232.80
775.77	232.79
776.09	232.73
776.42	232.72
776.74	232.82
777.07	232.79
777.39	232.81
777.72	232.75
778.04	232.73
778.36	232.65
778.69	232.59
779.01	232.59
779.33	232.12
779.66	231.54
779.98	231.45
780.31	231.36
780.63	231.51
780.95	231.59
781.28	231.45
781.60	231.34
781.92	231.31
782.25	231.22
782.57	231.20
782.89	231.12
783.22	231.06
783.54	230.95
783.86	230.93
784.19	230.80
784.51	230.85
784.83	230.73
785.16	230.67
785.48	230.65
785.80	230.55
786.12	230.50
786.45	230.39
786.77	230.32
787.09	230.27
787.42	230.05
787.74	229.95
788.06	229.99
788.38	229.86
788.71	229.71
789.03	229.78
789.35	229.78
789.67	229.68
789.99	229.64
790.32	229.50
790.64	229.53
790.96	229.95
791.28	229.78
791.61	229.71
791.93	229.74
792.25	229.67
792.57	230.00
792.89	229.83
793.21	229.91
793.54	229.89
793.86	229.75
794.18	229.62
794.50	229.47
794.82	229.45
795.14	229.54
795.47	229.62
795.79	229.53
796.11	229.38
796.43	229.39
796.75	229.34
797.07	229.29
797.39	229.24
797.71	228.76
798.04	228.75
798.36	228.80
798.68	228.81
799.00	228.81
799.32	228.57
799.64	228.76
799.96	228.68
800.28	228.66
800.60	228.66
800.92	228.77
801.24	228.76
801.56	228.81
801.89	228.79
802.21	228.79
802.53	228.76
802.85	228.85
803.17	229.06
803.49	228.93
803.81	228.94
804.13	228.84
804.45	228.84
804.77	228.88
805.09	228.85
805.41	228.78
805.73	228.65
806.05	228.56
806.37	228.49
806.69	228.46
807.01	228.48
807.33	228.52
807.65	228.32
807.97	228.56
808.28	228.48
808.60	228.46
808.92	228.41
809.24	228.61
809.56	228.52
809.88	228.36
810.20	228.42
810.52	228.56
810.84	228.49
811.16	228.45
811.48	228.43
811.80	228.66
812.12	228.56
812.43	228.76
812.75	228.74
813.07	228.61
813.39	228.66
813.71	228.58
814.03	228.49
814.35	228.54
814.67	228.30
814.98	228.28
815.30	228.27
815.62	228.21
815.94	227.94
816.26	228.10
816.58	227.99
816.89	228.03
817.21	227.80
817.53	227.85
817.85	227.83
818.17	227.82
818.48	227.52
818.80	227.68
819.12	227.54
819.44	227.50
819.76	227.48
820.07	227.44
820.39	227.43
820.71	227.51
821.03	227.49
821.34	227.53
821.66	227.60
821.98	227.65
822.30	227.58
822.61	227.86
822.93	227.64
823.25	227.58
823.57	227.51
823.88	227.69
824.20	227.65
824.52	227.79
824.83	227.76
825.15	227.76
825.47	227.65
825.79	227.62
826.10	227.60
826.42	227.58
826.74	227.61
827.05	227.57
827.37	227.55
827.69	227.55
828.00	227.54
828.32	227.45
828.64	227.34
828.95	227.71
829.27	227.55
829.58	227.53
829.90	227.65
830.22	227.67
830.53	227.51
830.85	227.51
831.17	227.35
831.48	227.33
831.80	227.41
832.11	227.39
832.43	227.37
832.75	227.27
833.06	227.62
833.38	227.47
833.69	227.50
834.01	227.53
834.32	227.52
834.64	227.42
834.96	227.41
835.27	227.38
835.59	227.12
835.90	227.06
836.22	227.03
836.53	226.94
836.85	226.84
837.16	227.30
837.48	227.28
837.79	227.47
838.11	227.46
838.42	227.41
838.74	227.44
839.05	227.43
839.37	227.41
839.68	227.10
840.00	227.14
840.31	227.17
840.63	227.10
840.94	227.00
841.26	227.01
841.57	227.01
841.88	227.05
842.20	227.00
842.51	226.94
842.83	226.98
843.14	227.39
843.46	227.40
843.77	227.16
844.08	227.13
844.40	226.88
844.71	226.82
845.03	226.68
845.34	226.62
845.65	226.62
845.97	226.65
846.28	226.64
846.60	226.66
846.91	226.62
847.22	226.61
847.54	226.71
847.85	226.71
848.16	226.71
848.48	226.63
848.79	226.76
849.10	226.82
849.42	226.82
849.73	226.39
850.04	226.39
850.36	226.15
850.67	226.24
850.98	226.34
851.30	226.40
851.61	226.55
851.92	226.52
852.23	226.64
852.55	226.73
852.86	226.71
853.17	226.72
853.49	226.75
853.80	226.94
854.11	226.97
854.42	227.02
854.74	226.94
855.05	226.99
855.36	226.80
855.67	226.78
855.99	226.81
856.30	227.28
856.61	227.34
856.92	227.36
857.23	227.40
857.55	227.29
857.86	227.23
858.17	227.26
858.48	227.20
858.79	227.12
859.11	227.08
859.42	227.11
859.73	227.05
860.04	227.10
860.35	226.89
860.66	226.86
860.98	226.83
861.29	226.86
861.60	226.80
861.91	226.91
862.22	226.85
862.53	226.78
862.84	226.27
863.16	226.38
863.47	226.37
863.78	226.25
864.09	226.34
864.40	226.35
864.71	226.35
865.02	226.39
865.33	226.34
865.64	226.31
865.95	226.29
866.27	226.62
866.58	226.52
866.89	226.60
867.20	226.52
867.51	226.49
867.82	226.45
868.13	226.63
868.44	226.52
868.75	226.62
869.06	226.64
869.37	226.72
869.68	226.52
869.99	226.63
870.30	226.69
870.61	226.68
870.92	226.61
871.23	226.52
871.54	226.70
871.85	226.74
872.16	226.79
872.47	226.74
872.78	226.35
873.09	226.35
873.40	226.29
873.71	226.33
874.02	226.32
874.33	226.33
874.64	226.20
874.95	226.23
875.26	226.08
875.56	226.04
875.87	226.03
876.18	226.00
876.49	226.38
876.80	226.30
877.11	226.26
877.42	226.25
877.73	226.28
878.04	226.10
878.35	226.10
878.66	226.06
878.96	226.02
879.27	226.07
879.58	226.10
879.89	226.08
880.20	226.22
880.51	226.18
880.82	226.16
881.12	226.22
881.43	226.14
881.74	226.08
882.05	226.05
882.36	226.09
882.67	226.16
882.97	225.69
883.28	225.67
883.59	225.61
883.90	225.69
884.21	225.81
884.51	225.81
884.82	225.76
885.13	225.78
885.44	225.84
885.74	225.87
886.05	225.85
886.36	225.79
886.67	225.60
886.98	225.87
887.28	225.96
887.59	225.94
887.90	226.03
888.20	226.09
888.51	226.14
888.82	226.05
889.13	226.15
889.43	226.60
889.74	226.59
890.05	226.60
890.35	226.59
890.66	226.47
890.97	226.49
891.28	226.43
891.58	226.49
891.89	226.48
892.20	226.48
892.50	226.42
892.81	226.48
893.12	226.51
893.42	226.25
893.73	226.29
894.04	226.30
894.34	226.31
894.65	226.33
894.95	226.35
895.26	226.38
895.57	226.61
895.87	226.07
896.18	226.16
896.48	226.20
896.79	226.21
897.10	226.23
897.40	226.21
897.71	226.34
898.01	226.30
898.32	226.31
898.63	226.21
898.93	226.27
899.24	226.27
899.54	226.26
899.85	226.29
900.15	226.14
900.46	226.16
900.76	226.24
901.07	226.29
901.38	226.30
901.68	226.34
901.99	226.02
902.29	226.11
902.60	226.09
902.90	226.04
903.21	226.03
903.51	226.04
903.82	226.12
904.12	226.10
904.43	226.05
904.73	226.07
905.03	226.15
905.34	226.61
905.64	226.59
905.95	226.58
906.25	226.54
906.56	226.60
906.86	226.49
907.17	226.41
907.47	226.36
907.77	226.25
908.08	226.13
908.38	226.13
908.69	226.13
908.99	226.22
909.30	226.24
909.60	226.28
909.90	226.29
910.21	226.17
910.51	226.04
910.81	226.05
911.12	226.12
911.42	226.12
911.73	225.61
912.03	225.61
912.33	225.66
912.64	225.66
912.94	225.60
913.24	225.63
913.55	225.55
913.85	225.43
914.15	225.52
914.46	225.56
914.76	225.51
915.06	225.45
915.37	225.36
915.67	225.36
915.97	225.31
916.27	225.21
916.58	225.18
916.88	225.17
917.18	225.10
917.49	225.32
917.79	225.33
918.09	225.43
918.39	225.55
918.70	225.54
919.00	225.57
919.30	225.86
919.60	225.82
919.91	225.75
920.21	225.85
920.51	225.71
920.81	225.69
921.12	225.78
921.42	225.79
921.72	225.80
922.02	225.82
922.32	225.89
922.63	225.93
922.93	226.25
923.23	226.32
923.53	226.37
923.83	226.06
924.13	226.10
924.44	226.08
924.74	226.16
925.04	226.25
925.34	226.25
925.64	226.01
925.94	226.01
926.24	226.32
926.55	226.34
926.85	226.42
927.15	226.42
927.45	226.46
927.75	226.46
928.05	226.43
928.35	226.41
928.65	226.48
928.95	226.53
929.26	226.24
929.56	226.29
929.86	226.27
930.16	226.28
930.46	226.26
930.76	226.25
931.06	226.00
931.36	225.87
931.66	225.86
931.96	225.90
932.26	225.96
932.56	225.72
932.86	225.79
933.16	225.82
933.46	225.83
933.76	225.71
934.06	225.77
934.36	226.04
934.66	226.05
934.96	225.95
935.26	226.01
935.56	226.16
935.86	226.10
936.16	226.11
936.46	226.10
936.76	226.07
937.06	226.07
937.36	226.09
937.66	226.07
937.96	226.08
938.26	226.04
938.56	226.01
938.86	226.10
939.16	226.18
939.46	226.27
939.76	226.30
940.06	226.30
940.35	226.29
940.65	225.94
940.95	225.93
941.25	225.89
941.55	225.82
941.85	225.69
942.15	225.76
942.45	225.85
942.75	225.89
943.04	225.92
943.34	225.95
943.64	225.93
943.94	225.93
944.24	225.90
944.54	225.92
944.84	225.88
945.13	225.83
945.43	225.69
945.73	225.57
946.03	225.59
946.33	225.56
946.62	225.56
946.92	225.60
947.22	225.69
947.52	225.70
947.82	225.73
948.11	225.76
948.41	225.73
948.71	225.62
949.01	225.62
949.31	225.54
949.60	225.50
949.90	225.61
950.20	225.56
950.50	225.62
950.79	225.59
951.09	225.72
951.39	225.64
951.69	225.64
951.98	225.79
952.28	225.69
952.58	225.66
952.87	225.61
953.17	225.65
953.47	225.51
953.76	225.56
954.06	225.44
954.36	225.36
954.66	225.25
954.95	225.35
955.25	225.30
955.55	225.33
955.84	225.28
956.14	225.29
956.44	225.43
956.73	225.36
957.03	225.37
957.32	225.34
957.62	225.34
957.92	225.33
958.21	225.30
958.51	225.82
958.81	225.96
959.10	226.08
959.40	226.23
959.69	226.29
959.99	226.33
960.29	226.35
960.58	226.37
960.88	226.64
961.17	226.58
961.47	226.69
961.76	226.67
962.06	226.77
962.36	226.67
962.65	226.64
962.95	226.74
963.24	226.70
963.54	226.67
963.83	226.70
964.13	226.76
964.42	226.60
964.72	226.32
965.01	226.23
965.31	226.17
965.60	226.04
965.90	226.38
966.19	226.27
966.49	226.32
966.78	226.27
967.08	226.15
967.37	226.20
967.67	226.06
967.96	226.15
968.26	226.15
968.55	226.30
968.85	226.30
969.14	226.16
969.43	226.17
969.73	226.16
970.02	226.11
970.32	226.04
970.61	226.07
970.91	225.93
971.20	225.91
971.49	225.79
971.79	225.87
972.08	225.53
972.38	225.54
972.67	225.52
972.96	225.56
973.26	225.50
973.55	225.66
973.85	225.68
974.14	225.65
974.43	225.71
974.73	225.58
975.02	225.55
975.31	225.63
975.61	225.61
975.90	225.58
976.19	225.63
976.49	225.66
976.78	225.74
977.07	225.78
977.37	225.85
977.66	225.99
977.95	225.89
978.24	225.91
978.54	226.03
978.83	226.05
979.12	226.10
979.42	226.10
979.71	225.95
980.00	225.93
980.29	225.88
980.59	225.77
980.88	225.94
981.17	225.87
981.46	225.81
981.76	225.85
982.05	225.95
982.34	226.01
982.63	226.06
982.93	226.04
983.22	226.10
983.51	226.05
983.80	226.06
984.09	226.16
984.39	226.11
984.68	225.98
984.97	225.98
985.26	225.93
985.55	226.03
985.85	226.00
986.14	226.08
986.43	226.17
986.72	226.15
987.01	225.97
987.30	226.02
987.59	225.96
987.89	225.93
988.18	225.82
988.47	225.76
988.76	225.69
989.05	225.57
989.34	225.51
989.63	225.67
989.92	225.66
990.22	225.56
990.51	225.59
990.80	225.60
991.09	225.61
991.38	225.76
991.67	225.60
991.96	225.44
992.25	225.50
992.54	225.42
992.83	225.41
993.12	225.33
993.41	225.36
993.70	225.57
993.99	225.71
994.28	225.72
994.58	225.79
994.87	225.79
995.16	225.84
995.45	225.79
995.74	225.59
996.03	225.58
996.32	225.68
996.61	225.77
996.90	225.73
997.19	225.72
997.48	225.63
997.77	225.68
998.06	225.84
998.34	225.72
998.63	225.69
998.92	225.73
999.21	225.94
999.50	225.95
999.79	225.81
1000.08	225.74
1000.37	225.80
1000.66	225.70
1000.95	225.82
1001.24	225.89
1001.53	225.96
1001.82	225.99
1002.11	225.95
1002.40	225.94
1002.68	226.10
1002.97	226.47
1003.26	226.38
1003.55	226.34
1003.84	226.38
1004.13	226.46
1004.42	226.47
1004.71	226.53
1004.99	226.45
1005.28	226.52
1005.57	226.58
1005.86	226.57
1006.15	226.50
1006.44	226.42
1006.72	226.49
1007.01	226.38
1007.30	226.32
1007.59	226.30
1007.88	226.27
1008.17	226.25
1008.45	226.15
1008.74	225.86
1009.03	225.65
1009.32	225.73
1009.60	225.69
1009.89	225.62
1010.18	225.52
1010.47	225.50
1010.76	225.47
1011.04	225.43
1011.33	225.45
1011.62	225.45
1011.91	225.54
1012.19	225.60
1012.48	225.66
1012.77	225.75
1013.05	226.02
1013.34	225.98
1013.63	225.94
1013.92	225.96
1014.20	225.96
1014.49	226.05
1014.78	226.12
1015.06	225.96
1015.35	225.96
1015.64	226.08
1015.92	226.17
1016.21	226.15
1016.50	226.13
1016.78	226.19
1017.07	226.32
1017.36	226.17
1017.64	226.06
1017.93	225.96
1018.22	225.88
1018.50	225.90
1018.79	225.74
1019.08	225.45
1019.36	225.55
1019.65	225.52
1019.93	225.70
1020.22	225.77
1020.51	225.98
1020.79	225.91
1021.08	224.70
1021.36	226.00
1021.65	224.25
1021.94	225.05
1022.22	226.05
1022.51	225.30
1022.79	228.55
1023.08	226.80
1023.36	231.45
1023.65	224.50
>>>>>End Processed Spectral Data<<<<<
