SpectraSuite Data File
++++++++++++++++++++++++++++++++++++
Date: Wed Sep 04 17:57:23 EDT 2013
User: lab3
Dark Spectrum Present: Yes
Reference Spectrum Present: No
Number of Sampled Component Spectra: 1
Spectrometers: USB2E7196
Integration Time (usec): 170000 (USB2E7196)
Spectra Averaged: 20 (USB2E7196)
Boxcar Smoothing: 10 (USB2E7196)
Correct for Electrical Dark: No (USB2E7196)
Strobe/Lamp Enabled: No (USB2E7196)
Correct for Detector Non-linearity: No (USB2E7196)
Correct for Stray Light: No (USB2E7196)
Number of Pixels in Processed Spectrum: 2048
>>>>>Begin Processed Spectral Data<<<<<
339.09	0.00
339.48	212.50
339.86	214.20
340.24	215.65
340.63	218.30
341.01	225.65
341.39	219.25
341.78	221.60
342.16	224.40
342.54	223.15
342.93	212.39
343.31	223.07
343.69	223.66
344.07	224.09
344.46	224.55
344.84	224.92
345.22	224.95
345.60	225.28
345.99	225.48
346.37	225.56
346.75	225.69
347.13	225.71
347.52	225.80
347.90	225.94
348.28	225.97
348.66	226.07
349.05	225.92
349.43	226.04
349.81	226.13
350.19	226.10
350.57	226.19
350.96	226.22
351.34	226.39
351.72	226.46
352.10	226.60
352.48	226.70
352.87	226.71
353.25	226.72
353.63	226.73
354.01	226.81
354.39	226.89
354.77	226.93
355.15	227.14
355.54	227.07
355.92	226.96
356.30	227.04
356.68	227.46
357.06	227.55
357.44	227.50
357.82	227.58
358.20	228.07
358.58	228.03
358.97	228.09
359.35	228.16
359.73	228.27
360.11	228.29
360.49	228.30
360.87	228.41
361.25	228.51
361.63	228.78
362.01	228.78
362.39	228.78
362.77	228.86
363.15	228.84
363.53	228.93
363.91	229.02
364.29	228.99
364.67	228.57
365.05	228.64
365.43	228.78
365.81	228.84
366.19	228.71
366.57	228.96
366.95	229.00
367.33	228.91
367.71	228.98
368.09	229.08
368.47	229.08
368.85	229.06
369.23	229.18
369.61	228.95
369.99	229.17
370.37	229.23
370.75	229.49
371.13	229.35
371.51	229.29
371.89	229.32
372.27	229.38
372.65	229.38
373.03	229.35
373.41	229.24
373.78	229.19
374.16	228.90
374.54	228.76
374.92	228.62
375.30	228.56
375.68	228.37
376.06	228.35
376.44	228.26
376.82	228.17
377.19	228.09
377.57	228.00
377.95	227.74
378.33	227.65
378.71	227.19
379.09	227.26
379.47	227.20
379.84	227.05
380.22	226.95
380.60	226.77
380.98	226.62
381.36	226.56
381.73	226.38
382.11	226.35
382.49	226.17
382.87	226.09
383.25	226.05
383.62	226.58
384.00	226.44
384.38	226.41
384.76	226.50
385.13	226.59
385.51	226.51
385.89	226.42
386.27	226.40
386.64	226.56
387.02	226.42
387.40	226.36
387.78	226.37
388.15	226.36
388.53	226.32
388.91	226.28
389.29	226.19
389.66	226.30
390.04	226.31
390.42	226.40
390.79	226.45
391.17	226.38
391.55	225.79
391.92	225.84
392.30	225.88
392.68	225.74
393.05	225.71
393.43	225.82
393.81	225.86
394.18	225.74
394.56	225.71
394.94	225.94
395.31	225.91
395.69	226.08
396.06	226.15
396.44	226.28
396.82	226.39
397.19	226.77
397.57	226.72
397.95	226.87
398.32	226.81
398.70	227.01
399.07	227.19
399.45	227.31
399.82	227.37
400.20	227.49
400.58	227.59
400.95	227.49
401.33	227.70
401.70	228.20
402.08	228.38
402.45	228.50
402.83	228.66
403.20	228.96
403.58	229.08
403.95	229.35
404.33	229.61
404.71	229.85
405.08	230.27
405.46	230.52
405.83	230.73
406.21	231.08
406.58	231.33
406.96	231.65
407.33	231.99
407.70	232.46
408.08	233.16
408.45	233.63
408.83	234.11
409.20	234.46
409.58	234.60
409.95	235.24
410.33	235.78
410.70	236.18
411.08	236.72
411.45	237.33
411.82	237.92
412.20	238.71
412.57	239.69
412.95	240.02
413.32	240.95
413.69	241.81
414.07	242.72
414.44	243.70
414.82	244.77
415.19	246.01
415.56	247.10
415.94	248.13
416.31	249.62
416.68	251.05
417.06	252.70
417.43	254.31
417.81	256.08
418.18	257.93
418.55	259.87
418.93	261.94
419.30	264.03
419.67	266.20
420.04	268.39
420.42	270.64
420.79	273.71
421.16	276.42
421.54	279.55
421.91	282.53
422.28	285.53
422.66	288.77
423.03	292.11
423.40	295.49
423.77	299.06
424.15	302.62
424.52	306.40
424.89	310.55
425.26	314.45
425.64	318.21
426.01	322.39
426.38	326.77
426.75	331.39
427.13	336.00
427.50	340.81
427.87	345.70
428.24	350.67
428.61	355.16
428.99	360.61
429.36	366.10
429.73	371.73
430.10	377.35
430.47	383.03
430.85	388.62
431.22	394.92
431.59	401.69
431.96	407.95
432.33	414.95
432.70	421.68
433.08	429.66
433.45	437.10
433.82	444.49
434.19	452.82
434.56	460.92
434.93	468.65
435.30	476.48
435.68	485.21
436.05	493.68
436.42	502.24
436.79	509.93
437.16	518.33
437.53	527.01
437.90	535.70
438.27	544.36
438.64	553.30
439.01	561.50
439.38	568.73
439.75	575.91
440.13	583.97
440.50	591.43
440.87	597.56
441.24	603.94
441.61	610.96
441.98	615.94
442.35	621.72
442.72	627.79
443.09	633.50
443.46	636.86
443.83	639.14
444.20	640.95
444.57	643.68
444.94	644.64
445.31	645.72
445.68	647.06
446.05	647.18
446.42	645.92
446.79	644.58
447.16	642.85
447.53	641.65
447.90	637.91
448.27	634.10
448.64	629.15
449.01	625.47
449.37	619.25
449.74	613.09
450.11	606.13
450.48	598.34
450.85	590.29
451.22	583.37
451.59	576.70
451.96	570.32
452.33	562.05
452.70	554.70
453.07	545.98
453.43	536.85
453.80	528.39
454.17	520.35
454.54	512.51
454.91	504.41
455.28	496.25
455.65	488.79
456.02	482.04
456.38	475.73
456.75	467.85
457.12	461.38
457.49	455.17
457.86	448.92
458.23	443.73
458.59	438.17
458.96	432.38
459.33	427.30
459.70	422.25
460.07	418.13
460.43	413.37
460.80	409.19
461.17	405.42
461.54	401.45
461.91	397.60
462.27	393.80
462.64	390.51
463.01	386.90
463.38	383.62
463.74	379.60
464.11	376.54
464.48	374.02
464.85	371.24
465.21	369.10
465.58	366.75
465.95	363.88
466.32	361.63
466.68	359.37
467.05	357.17
467.42	354.97
467.78	352.61
468.15	350.50
468.52	348.91
468.88	346.77
469.25	344.91
469.62	343.50
469.98	341.90
470.35	340.38
470.72	339.01
471.08	337.26
471.45	335.99
471.82	334.72
472.18	333.16
472.55	332.01
472.92	330.69
473.28	329.53
473.65	328.37
474.02	327.18
474.38	326.38
474.75	325.59
475.11	324.74
475.48	324.19
475.85	323.57
476.21	322.88
476.58	322.36
476.94	321.92
477.31	321.45
477.67	320.97
478.04	320.61
478.41	320.39
478.77	320.70
479.14	320.47
479.50	320.39
479.87	320.50
480.23	320.50
480.60	320.51
480.96	320.52
481.33	320.90
481.69	321.17
482.06	321.31
482.42	321.55
482.79	321.84
483.15	322.20
483.52	322.84
483.88	323.28
484.25	323.73
484.61	324.39
484.98	325.10
485.34	326.05
485.71	326.93
486.07	327.82
486.44	328.25
486.80	329.40
487.17	330.40
487.53	331.68
487.90	333.07
488.26	334.71
488.62	336.43
488.99	337.97
489.35	339.73
489.72	341.63
490.08	343.69
490.44	345.71
490.81	348.06
491.17	350.22
491.54	352.73
491.90	355.41
492.26	358.13
492.63	360.87
492.99	363.67
493.36	366.87
493.72	370.33
494.08	373.95
494.45	377.62
494.81	381.53
495.17	385.46
495.54	389.60
495.90	393.84
496.26	398.26
496.63	402.92
496.99	407.81
497.35	413.04
497.72	418.20
498.08	423.77
498.44	429.38
498.80	435.43
499.17	441.41
499.53	447.66
499.89	454.43
500.26	461.21
500.62	468.35
500.98	475.76
501.34	483.17
501.71	490.90
502.07	498.62
502.43	506.71
502.79	515.23
503.16	524.07
503.52	533.00
503.88	542.44
504.24	552.21
504.60	562.13
504.97	572.39
505.33	583.09
505.69	594.08
506.05	605.16
506.41	616.44
506.78	628.16
507.14	640.18
507.50	652.50
507.86	665.32
508.22	678.31
508.59	691.47
508.95	705.10
509.31	719.43
509.67	733.89
510.03	748.44
510.39	763.15
510.75	778.17
511.12	793.38
511.48	808.89
511.84	824.57
512.20	840.63
512.56	856.78
512.92	873.56
513.28	890.31
513.64	907.62
514.00	925.28
514.37	943.09
514.73	961.34
515.09	979.54
515.45	997.85
515.81	1016.18
516.17	1035.01
516.53	1053.67
516.89	1072.30
517.25	1091.76
517.61	1111.91
517.97	1132.08
518.33	1152.01
518.69	1172.32
519.05	1192.78
519.41	1213.62
519.77	1234.69
520.13	1255.47
520.49	1276.16
520.85	1298.73
521.21	1320.10
521.57	1341.39
521.93	1361.94
522.29	1383.02
522.65	1403.76
523.01	1424.82
523.37	1445.65
523.73	1466.64
524.09	1487.24
524.45	1507.89
524.81	1528.74
525.17	1549.31
525.53	1570.03
525.89	1590.85
526.25	1611.86
526.61	1632.39
526.97	1653.31
527.33	1674.56
527.68	1696.47
528.04	1717.57
528.40	1737.23
528.76	1758.10
529.12	1778.59
529.48	1799.65
529.84	1819.73
530.20	1841.02
530.56	1861.82
530.91	1883.07
531.27	1903.29
531.63	1924.04
531.99	1944.76
532.35	1964.73
532.71	1985.07
533.07	2005.77
533.42	2025.91
533.78	2046.15
534.14	2066.27
534.50	2085.56
534.86	2104.86
535.21	2122.78
535.57	2141.40
535.93	2159.13
536.29	2176.95
536.65	2195.02
537.00	2213.05
537.36	2230.90
537.72	2247.40
538.08	2264.82
538.44	2281.25
538.79	2297.93
539.15	2314.58
539.51	2330.42
539.87	2345.72
540.22	2360.15
540.58	2374.52
540.94	2388.13
541.29	2400.59
541.65	2413.10
542.01	2425.71
542.37	2436.16
542.72	2447.00
543.08	2457.90
543.44	2469.76
543.79	2479.89
544.15	2490.05
544.51	2499.84
544.87	2509.65
545.22	2518.25
545.58	2525.79
545.94	2533.14
546.29	2539.70
546.65	2546.19
547.01	2552.12
547.36	2557.84
547.72	2563.03
548.07	2566.77
548.43	2571.71
548.79	2576.34
549.14	2580.45
549.50	2584.18
549.86	2588.38
550.21	2592.17
550.57	2595.28
550.92	2596.52
551.28	2597.95
551.64	2600.29
551.99	2602.38
552.35	2603.93
552.70	2606.00
553.06	2607.67
553.41	2609.11
553.77	2610.73
554.13	2612.11
554.48	2613.50
554.84	2615.12
555.19	2616.38
555.55	2618.13
555.90	2617.52
556.26	2616.96
556.61	2615.51
556.97	2613.46
557.32	2612.70
557.68	2611.56
558.03	2610.18
558.39	2609.07
558.74	2608.10
559.10	2604.70
559.45	2600.98
559.81	2596.68
560.16	2591.79
560.52	2587.00
560.87	2582.21
561.23	2576.82
561.58	2570.99
561.94	2564.26
562.29	2556.58
562.64	2549.93
563.00	2541.92
563.35	2535.67
563.71	2528.76
564.06	2522.36
564.42	2516.07
564.77	2509.39
565.12	2501.81
565.48	2493.94
565.83	2485.55
566.19	2477.61
566.54	2469.72
566.89	2461.63
567.25	2453.58
567.60	2446.28
567.96	2438.71
568.31	2430.56
568.66	2422.05
569.02	2413.00
569.37	2404.62
569.72	2397.36
570.08	2387.28
570.43	2377.77
570.78	2368.52
571.14	2358.93
571.49	2348.63
571.84	2338.74
572.20	2327.70
572.55	2317.50
572.90	2306.93
573.26	2297.02
573.61	2285.88
573.96	2274.58
574.31	2262.63
574.67	2251.12
575.02	2238.19
575.37	2225.27
575.72	2212.38
576.08	2200.48
576.43	2188.05
576.78	2174.75
577.13	2160.61
577.49	2148.54
577.84	2136.89
578.19	2124.63
578.54	2112.20
578.90	2100.55
579.25	2088.36
579.60	2075.83
579.95	2063.05
580.30	2049.72
580.66	2035.92
581.01	2022.55
581.36	2008.71
581.71	1996.06
582.06	1982.93
582.42	1970.58
582.77	1958.10
583.12	1946.21
583.47	1933.58
583.82	1921.59
584.17	1909.90
584.53	1898.20
584.88	1885.16
585.23	1871.86
585.58	1857.70
585.93	1844.62
586.28	1830.99
586.63	1816.73
586.98	1802.40
587.34	1789.13
587.69	1776.04
588.04	1763.65
588.39	1751.20
588.74	1739.22
589.09	1727.02
589.44	1714.52
589.79	1702.30
590.14	1690.05
590.49	1677.68
590.84	1665.43
591.19	1653.17
591.54	1640.79
591.89	1628.52
592.25	1618.25
592.60	1606.76
592.95	1595.36
593.30	1583.25
593.65	1571.22
594.00	1559.33
594.35	1549.61
594.70	1537.57
595.05	1526.18
595.40	1513.96
595.75	1501.99
596.10	1490.62
596.45	1479.16
596.80	1468.02
597.15	1456.67
597.50	1444.98
597.85	1433.67
598.19	1422.21
598.54	1410.46
598.89	1399.42
599.24	1389.01
599.59	1377.32
599.94	1366.48
600.29	1355.98
600.64	1345.62
600.99	1334.92
601.34	1325.33
601.69	1314.22
602.04	1304.41
602.39	1294.50
602.74	1285.42
603.08	1275.92
603.43	1266.52
603.78	1256.76
604.13	1246.96
604.48	1237.16
604.83	1227.55
605.18	1217.75
605.53	1208.27
605.87	1199.19
606.22	1190.54
606.57	1181.09
606.92	1171.45
607.27	1162.41
607.62	1153.57
607.96	1144.98
608.31	1137.25
608.66	1128.85
609.01	1120.05
609.36	1111.29
609.70	1102.85
610.05	1094.16
610.40	1085.78
610.75	1077.00
611.10	1068.67
611.44	1060.08
611.79	1051.76
612.14	1043.80
612.49	1035.76
612.83	1028.14
613.18	1020.25
613.53	1012.26
613.88	1004.27
614.22	996.80
614.57	988.71
614.92	981.08
615.27	973.52
615.61	965.55
615.96	957.93
616.31	950.41
616.65	943.44
617.00	935.98
617.35	928.61
617.70	921.40
618.04	914.30
618.39	907.13
618.74	900.76
619.08	893.97
619.43	887.00
619.78	879.95
620.12	872.68
620.47	865.84
620.82	858.60
621.16	851.70
621.51	845.26
621.85	838.96
622.20	832.06
622.55	825.36
622.89	818.91
623.24	812.29
623.59	805.81
623.93	799.49
624.28	793.43
624.62	787.78
624.97	781.86
625.32	776.04
625.66	770.21
626.01	763.97
626.35	758.48
626.70	752.90
627.04	747.75
627.39	742.24
627.73	736.83
628.08	731.79
628.43	726.53
628.77	720.94
629.12	715.55
629.46	710.71
629.81	706.05
630.15	701.25
630.50	696.54
630.84	691.79
631.19	686.88
631.53	682.23
631.88	677.04
632.22	672.17
632.57	667.54
632.91	662.90
633.26	658.58
633.60	653.81
633.95	649.11
634.29	644.30
634.64	639.92
634.98	635.33
635.32	630.81
635.67	626.69
636.01	622.40
636.36	617.95
636.70	613.97
637.05	609.59
637.39	605.21
637.73	600.91
638.08	596.97
638.42	592.89
638.77	588.49
639.11	584.12
639.45	579.86
639.80	575.58
640.14	571.44
640.49	567.33
640.83	563.57
641.17	559.91
641.52	556.15
641.86	552.47
642.20	549.16
642.55	545.50
642.89	541.73
643.23	538.32
643.58	535.40
643.92	531.59
644.26	528.21
644.61	525.14
644.95	521.83
645.29	518.38
645.64	515.18
645.98	512.18
646.32	509.27
646.66	506.17
647.01	503.22
647.35	500.47
647.69	497.56
648.04	494.57
648.38	491.64
648.72	488.81
649.06	485.79
649.41	482.53
649.75	479.56
650.09	476.68
650.43	473.72
650.78	470.57
651.12	467.77
651.46	464.98
651.80	462.21
652.14	459.53
652.49	457.01
652.83	454.40
653.17	451.65
653.51	448.88
653.85	446.41
654.20	443.80
654.54	441.16
654.88	438.55
655.22	436.34
655.56	433.90
655.90	431.43
656.25	429.16
656.59	427.05
656.93	424.88
657.27	422.87
657.61	420.45
657.95	418.28
658.29	416.10
658.64	413.99
658.98	411.65
659.32	409.30
659.66	406.99
660.00	404.85
660.34	402.72
660.68	400.81
661.02	398.83
661.36	396.93
661.70	394.94
662.05	392.96
662.39	391.00
662.73	389.24
663.07	387.70
663.41	385.87
663.75	383.99
664.09	382.07
664.43	380.03
664.77	378.46
665.11	376.64
665.45	375.00
665.79	373.28
666.13	371.65
666.47	370.15
666.81	368.55
667.15	366.90
667.49	365.52
667.83	364.17
668.17	362.71
668.51	361.19
668.85	359.80
669.19	358.76
669.53	357.15
669.87	355.58
670.21	353.88
670.55	352.53
670.89	351.40
671.23	350.02
671.57	348.65
671.91	347.32
672.25	346.03
672.58	344.81
672.92	343.43
673.26	342.20
673.60	340.93
673.94	339.79
674.28	338.58
674.62	337.36
674.96	335.97
675.30	334.75
675.64	333.60
675.97	332.38
676.31	330.95
676.65	329.83
676.99	328.91
677.33	327.89
677.67	326.77
678.01	325.45
678.34	324.48
678.68	323.59
679.02	322.52
679.36	321.55
679.70	320.49
680.04	319.56
680.37	318.61
680.71	317.67
681.05	316.73
681.39	315.86
681.73	314.86
682.06	313.95
682.40	313.18
682.74	312.31
683.08	311.64
683.42	310.86
683.75	310.08
684.09	309.10
684.43	308.21
684.77	307.37
685.10	306.59
685.44	305.83
685.78	305.03
686.12	304.23
686.45	303.36
686.79	302.51
687.13	301.82
687.46	301.06
687.80	300.35
688.14	299.48
688.48	298.67
688.81	297.94
689.15	297.31
689.49	296.44
689.82	295.80
690.16	294.89
690.50	294.17
690.83	293.30
691.17	292.42
691.51	291.75
691.84	291.14
692.18	290.41
692.52	289.63
692.85	288.96
693.19	288.52
693.52	287.92
693.86	287.29
694.20	286.55
694.53	285.88
694.87	285.16
695.21	284.57
695.54	283.99
695.88	283.31
696.21	282.55
696.55	282.07
696.88	281.40
697.22	280.69
697.56	280.13
697.89	279.63
698.23	279.23
698.56	278.62
698.90	278.10
699.23	277.57
699.57	277.05
699.90	276.41
700.24	275.75
700.58	275.35
700.91	274.96
701.25	274.91
701.58	274.74
701.92	274.44
702.25	274.02
702.59	273.54
702.92	273.06
703.26	272.69
703.59	272.12
703.93	272.09
704.26	271.87
704.60	271.43
704.93	271.01
705.26	270.51
705.60	270.17
705.93	269.59
706.27	269.36
706.60	269.19
706.94	269.05
707.27	268.66
707.61	268.20
707.94	267.69
708.27	266.94
708.61	266.24
708.94	265.77
709.28	265.41
709.61	265.05
709.94	264.80
710.28	264.43
710.61	264.11
710.95	263.33
711.28	263.16
711.61	262.72
711.95	262.49
712.28	262.06
712.61	261.71
712.95	261.72
713.28	261.46
713.61	260.88
713.95	260.43
714.28	260.10
714.61	259.75
714.95	259.47
715.28	259.06
715.61	258.68
715.95	258.35
716.28	258.02
716.61	257.79
716.95	257.45
717.28	257.19
717.61	256.93
717.94	256.66
718.28	256.09
718.61	255.80
718.94	255.37
719.27	255.21
719.61	255.01
719.94	254.59
720.27	254.05
720.60	253.89
720.94	253.59
721.27	253.34
721.60	253.21
721.93	252.98
722.27	252.96
722.60	252.87
722.93	252.67
723.26	252.46
723.59	252.11
723.93	251.85
724.26	251.64
724.59	251.35
724.92	251.07
725.25	250.95
725.59	250.79
725.92	250.70
726.25	250.43
726.58	250.23
726.91	250.05
727.24	250.00
727.57	249.72
727.91	249.40
728.24	249.27
728.57	249.06
728.90	248.83
729.23	248.49
729.56	248.51
729.89	248.33
730.22	248.13
730.55	247.93
730.89	247.75
731.22	247.55
731.55	247.38
731.88	247.30
732.21	247.10
732.54	246.89
732.87	246.63
733.20	246.48
733.53	246.22
733.86	246.07
734.19	245.80
734.52	245.76
734.85	246.01
735.18	245.78
735.51	245.73
735.84	245.69
736.17	245.65
736.50	245.25
736.83	245.70
737.16	245.52
737.49	245.36
737.82	245.22
738.15	245.15
738.48	245.01
738.81	244.88
739.14	244.61
739.47	244.41
739.80	244.35
740.13	244.30
740.46	244.08
740.79	243.84
741.12	243.67
741.45	243.43
741.78	242.99
742.11	243.00
742.44	242.70
742.77	242.55
743.10	242.36
743.43	242.18
743.75	241.51
744.08	242.01
744.41	241.93
744.74	241.83
745.07	241.55
745.40	241.50
745.73	241.49
746.06	241.50
746.39	241.50
746.71	241.29
747.04	241.15
747.37	241.08
747.70	241.10
748.03	241.02
748.36	241.00
748.68	240.89
749.01	240.56
749.34	240.51
749.67	240.43
750.00	240.40
750.33	240.60
750.65	240.50
750.98	239.78
751.31	239.68
751.64	239.58
751.97	239.75
752.29	239.61
752.62	239.28
752.95	239.09
753.28	238.88
753.60	238.75
753.93	238.78
754.26	238.67
754.59	238.38
754.91	238.25
755.24	238.08
755.57	237.95
755.90	237.91
756.22	237.74
756.55	237.50
756.88	237.25
757.20	236.87
757.53	236.66
757.86	236.51
758.19	236.43
758.51	236.34
758.84	236.06
759.17	235.89
759.49	235.91
759.82	236.08
760.15	236.09
760.47	236.01
760.80	235.71
761.13	235.71
761.45	235.55
761.78	235.40
762.11	235.34
762.43	235.23
762.76	235.09
763.08	235.04
763.41	235.03
763.74	234.96
764.06	234.96
764.39	234.89
764.71	234.81
765.04	234.65
765.37	234.47
765.69	234.28
766.02	234.21
766.34	234.03
766.67	233.73
767.00	233.77
767.32	233.95
767.65	234.15
767.97	234.07
768.30	234.08
768.62	234.08
768.95	233.91
769.27	233.83
769.60	233.81
769.92	233.68
770.25	233.57
770.57	233.45
770.90	233.30
771.22	233.20
771.55	233.22
771.87	233.23
772.20	233.21
772.52	233.63
772.85	234.17
773.17	234.16
773.50	234.02
773.82	233.80
774.15	233.50
774.47	233.16
774.80	233.04
775.12	232.99
775.45	232.88
775.77	232.96
776.09	232.94
776.42	232.93
776.74	233.00
777.07	232.90
777.39	232.95
777.72	232.89
778.04	232.90
778.36	232.77
778.69	232.73
779.01	232.67
779.33	232.23
779.66	231.61
779.98	231.53
780.31	231.58
780.63	231.73
780.95	231.77
781.28	231.73
781.60	231.65
781.92	231.62
782.25	231.64
782.57	231.54
782.89	231.48
783.22	231.40
783.54	231.24
783.86	231.19
784.19	231.02
784.51	231.12
784.83	231.06
785.16	231.03
785.48	231.05
785.80	231.05
786.12	231.01
786.45	231.02
786.77	231.08
787.09	230.98
787.42	230.79
787.74	230.77
788.06	230.83
788.38	230.77
788.71	230.67
789.03	230.64
789.35	230.71
789.67	230.70
789.99	230.70
790.32	230.68
790.64	230.79
790.96	231.23
791.28	231.04
791.61	230.98
791.93	230.98
792.25	230.86
792.57	231.14
792.89	231.03
793.21	231.02
793.54	230.89
793.86	230.86
794.18	230.81
794.50	230.67
794.82	230.58
795.14	230.70
795.47	230.78
795.79	230.78
796.11	230.60
796.43	230.51
796.75	230.44
797.07	230.40
797.39	230.34
797.71	229.95
798.04	229.94
798.36	229.97
798.68	229.96
799.00	229.96
799.32	229.76
799.64	229.84
799.96	229.82
800.28	229.91
800.60	229.86
800.92	229.91
801.24	229.91
801.56	229.99
801.89	229.84
802.21	229.81
802.53	229.67
802.85	229.74
803.17	229.95
803.49	229.85
803.81	229.79
804.13	229.70
804.45	229.64
804.77	229.64
805.09	229.55
805.41	229.44
805.73	229.31
806.05	229.12
806.37	229.06
806.69	228.98
807.01	228.85
807.33	228.90
807.65	228.67
807.97	228.82
808.28	228.68
808.60	228.65
808.92	228.55
809.24	228.81
809.56	228.71
809.88	228.51
810.20	228.53
810.52	228.64
810.84	228.60
811.16	228.48
811.48	228.44
811.80	228.55
812.12	228.51
812.43	228.58
812.75	228.60
813.07	228.52
813.39	228.55
813.71	228.54
814.03	228.44
814.35	228.53
814.67	228.36
814.98	228.32
815.30	228.40
815.62	228.35
815.94	228.03
816.26	228.21
816.58	228.12
816.89	228.15
817.21	228.00
817.53	228.05
817.85	228.05
818.17	228.01
818.48	227.85
818.80	228.01
819.12	227.98
819.44	227.85
819.76	227.75
820.07	227.74
820.39	227.71
820.71	227.70
821.03	227.67
821.34	227.66
821.66	227.76
821.98	227.81
822.30	227.83
822.61	228.15
822.93	227.95
823.25	227.95
823.57	227.85
823.88	227.93
824.20	227.86
824.52	227.92
824.83	227.94
825.15	227.86
825.47	227.77
825.79	227.85
826.10	227.87
826.42	227.95
826.74	227.92
827.05	227.89
827.37	227.99
827.69	227.96
828.00	228.00
828.32	227.95
828.64	227.84
828.95	228.02
829.27	227.87
829.58	227.93
829.90	227.91
830.22	228.00
830.53	227.91
830.85	227.90
831.17	227.86
831.48	227.87
831.80	227.98
832.11	227.90
832.43	227.76
832.75	227.81
833.06	228.10
833.38	228.03
833.69	228.03
834.01	228.03
834.32	228.02
834.64	227.94
834.96	227.96
835.27	227.95
835.59	227.86
835.90	227.80
836.22	227.74
836.53	227.78
836.85	227.79
837.16	228.23
837.48	228.16
837.79	228.32
838.11	228.32
838.42	228.24
838.74	228.38
839.05	228.30
839.37	228.29
839.68	227.95
840.00	227.94
840.31	228.03
840.63	227.97
840.94	227.93
841.26	227.88
841.57	227.80
841.88	227.82
842.20	227.73
842.51	227.75
842.83	227.76
843.14	228.11
843.46	228.05
843.77	227.85
844.08	227.79
844.40	227.60
844.71	227.50
845.03	227.50
845.34	227.43
845.65	227.56
845.97	227.56
846.28	227.65
846.60	227.65
846.91	227.58
847.22	227.50
847.54	227.56
847.85	227.59
848.16	227.65
848.48	227.62
848.79	227.80
849.10	227.74
849.42	227.80
849.73	227.39
850.04	227.38
850.36	227.11
850.67	227.28
850.98	227.25
851.30	227.35
851.61	227.36
851.92	227.32
852.23	227.39
852.55	227.40
852.86	227.34
853.17	227.38
853.49	227.37
853.80	227.53
854.11	227.58
854.42	227.59
854.74	227.52
855.05	227.52
855.36	227.24
855.67	227.23
855.99	227.12
856.30	227.67
856.61	227.68
856.92	227.72
857.23	227.68
857.55	227.69
857.86	227.60
858.17	227.66
858.48	227.63
858.79	227.52
859.11	227.45
859.42	227.43
859.73	227.36
860.04	227.45
860.35	227.21
860.66	227.03
860.98	227.05
861.29	227.07
861.60	227.01
861.91	227.18
862.22	227.05
862.53	227.01
862.84	226.44
863.16	226.52
863.47	226.48
863.78	226.52
864.09	226.48
864.40	226.57
864.71	226.53
865.02	226.58
865.33	226.51
865.64	226.52
865.95	226.52
866.27	226.84
866.58	226.75
866.89	226.88
867.20	226.92
867.51	226.81
867.82	226.76
868.13	226.94
868.44	226.74
868.75	226.95
869.06	227.05
869.37	227.08
869.68	226.96
869.99	227.05
870.30	227.04
870.61	227.10
870.92	227.01
871.23	227.00
871.54	227.03
871.85	227.24
872.16	227.28
872.47	227.29
872.78	227.00
873.09	227.11
873.40	227.05
873.71	227.09
874.02	227.16
874.33	227.11
874.64	227.04
874.95	227.23
875.26	227.07
875.56	227.05
875.87	227.06
876.18	227.10
876.49	227.60
876.80	227.59
877.11	227.52
877.42	227.55
877.73	227.53
878.04	227.47
878.35	227.40
878.66	227.43
878.96	227.41
879.27	227.37
879.58	227.32
879.89	227.34
880.20	227.49
880.51	227.42
880.82	227.49
881.12	227.48
881.43	227.28
881.74	227.23
882.05	227.17
882.36	227.24
882.67	227.19
882.97	226.66
883.28	226.58
883.59	226.53
883.90	226.61
884.21	226.68
884.51	226.64
884.82	226.55
885.13	226.56
885.44	226.54
885.74	226.50
886.05	226.50
886.36	226.45
886.67	226.24
886.98	226.50
887.28	226.53
887.59	226.48
887.90	226.57
888.20	226.55
888.51	226.69
888.82	226.51
889.13	226.59
889.43	227.01
889.74	227.02
890.05	227.06
890.35	226.91
890.66	226.82
890.97	226.80
891.28	226.80
891.58	226.70
891.89	226.66
892.20	226.70
892.50	226.59
892.81	226.55
893.12	226.55
893.42	226.36
893.73	226.39
894.04	226.36
894.34	226.40
894.65	226.45
894.95	226.32
895.26	226.38
895.57	226.59
895.87	226.12
896.18	226.21
896.48	226.28
896.79	226.39
897.10	226.49
897.40	226.52
897.71	226.56
898.01	226.60
898.32	226.68
898.63	226.65
898.93	226.69
899.24	226.75
899.54	226.74
899.85	226.72
900.15	226.70
900.46	226.71
900.76	226.75
901.07	226.74
901.38	226.74
901.68	226.80
901.99	226.51
902.29	226.49
902.60	226.37
902.90	226.30
903.21	226.26
903.51	226.21
903.82	226.30
904.12	226.25
904.43	226.24
904.73	226.23
905.03	226.28
905.34	226.72
905.64	226.72
905.95	226.69
906.25	226.69
906.56	226.62
906.86	226.68
907.17	226.67
907.47	226.64
907.77	226.60
908.08	226.55
908.38	226.61
908.69	226.66
908.99	226.78
909.30	226.90
909.60	226.84
909.90	226.84
910.21	226.72
910.51	226.77
910.81	226.87
911.12	226.91
911.42	226.91
911.73	226.49
912.03	226.56
912.33	226.65
912.64	226.61
912.94	226.61
913.24	226.54
913.55	226.46
913.85	226.47
914.15	226.53
914.46	226.63
914.76	226.55
915.06	226.54
915.37	226.50
915.67	226.45
915.97	226.51
916.27	226.44
916.58	226.45
916.88	226.43
917.18	226.34
917.49	226.64
917.79	226.67
918.09	226.73
918.39	226.77
918.70	226.79
919.00	226.77
919.30	226.95
919.60	226.86
919.91	226.87
920.21	226.90
920.51	226.78
920.81	226.79
921.12	226.91
921.42	226.90
921.72	226.87
922.02	226.88
922.32	226.93
922.63	226.94
922.93	227.20
923.23	227.22
923.53	227.19
923.83	226.82
924.13	226.83
924.44	226.80
924.74	226.86
925.04	226.98
925.34	226.97
925.64	226.75
925.94	226.85
926.24	227.11
926.55	227.14
926.85	227.28
927.15	227.16
927.45	227.19
927.75	227.16
928.05	227.16
928.35	227.10
928.65	227.20
928.95	227.27
929.26	227.10
929.56	227.16
929.86	227.22
930.16	227.21
930.46	227.17
930.76	227.18
931.06	226.98
931.36	226.82
931.66	226.97
931.96	227.05
932.26	227.02
932.56	226.82
932.86	226.78
933.16	226.76
933.46	226.76
933.76	226.63
934.06	226.80
934.36	226.93
934.66	226.98
934.96	226.91
935.26	226.94
935.56	226.99
935.86	226.88
936.16	226.75
936.46	226.73
936.76	226.69
937.06	226.70
937.36	226.73
937.66	226.76
937.96	226.74
938.26	226.70
938.56	226.71
938.86	226.67
939.16	226.82
939.46	226.80
939.76	226.83
940.06	226.89
940.35	226.78
940.65	226.60
940.95	226.57
941.25	226.45
941.55	226.38
941.85	226.35
942.15	226.34
942.45	226.53
942.75	226.52
943.04	226.50
943.34	226.55
943.64	226.51
943.94	226.46
944.24	226.43
944.54	226.44
944.84	226.43
945.13	226.43
945.43	226.32
945.73	226.37
946.03	226.30
946.33	226.25
946.62	226.20
946.92	226.19
947.22	226.20
947.52	226.25
947.82	226.30
948.11	226.23
948.41	226.21
948.71	226.17
949.01	226.14
949.31	226.16
949.60	226.13
949.90	226.14
950.20	226.14
950.50	226.10
950.79	226.07
951.09	226.13
951.39	226.12
951.69	226.04
951.98	226.08
952.28	226.15
952.58	226.13
952.87	226.18
953.17	226.26
953.47	226.27
953.76	226.22
954.06	226.13
954.36	226.07
954.66	226.08
954.95	226.13
955.25	226.19
955.55	226.23
955.84	226.16
956.14	226.27
956.44	226.33
956.73	226.30
957.03	226.34
957.32	226.32
957.62	226.36
957.92	226.45
958.21	226.42
958.51	226.90
958.81	226.86
959.10	226.88
959.40	227.02
959.69	227.00
959.99	227.12
960.29	227.13
960.58	227.17
960.88	227.36
961.17	227.29
961.47	227.38
961.76	227.30
962.06	227.37
962.36	227.28
962.65	227.26
962.95	227.26
963.24	227.21
963.54	227.25
963.83	227.24
964.13	227.25
964.42	227.15
964.72	226.74
965.01	226.82
965.31	226.74
965.60	226.56
965.90	226.87
966.19	226.80
966.49	226.81
966.78	226.68
967.08	226.63
967.37	226.64
967.67	226.50
967.96	226.61
968.26	226.54
968.55	226.57
968.85	226.54
969.14	226.50
969.43	226.48
969.73	226.41
970.02	226.27
970.32	226.26
970.61	226.29
970.91	226.22
971.20	226.12
971.49	226.08
971.79	226.11
972.08	225.72
972.38	225.69
972.67	225.61
972.96	225.71
973.26	225.62
973.55	225.65
973.85	225.63
974.14	225.54
974.43	225.62
974.73	225.54
975.02	225.55
975.31	225.49
975.61	225.47
975.90	225.44
976.19	225.55
976.49	225.53
976.78	225.55
977.07	225.50
977.37	225.52
977.66	225.57
977.95	225.56
978.24	225.62
978.54	225.78
978.83	225.74
979.12	225.74
979.42	225.72
979.71	225.72
980.00	225.70
980.29	225.75
980.59	225.63
980.88	225.81
981.17	225.71
981.46	225.76
981.76	225.76
982.05	225.89
982.34	225.86
982.63	225.90
982.93	225.88
983.22	226.04
983.51	226.06
983.80	226.11
984.09	226.13
984.39	226.16
984.68	226.02
984.97	226.13
985.26	226.10
985.55	226.08
985.85	226.00
986.14	226.11
986.43	226.14
986.72	226.13
987.01	226.01
987.30	226.02
987.59	226.06
987.89	226.07
988.18	225.91
988.47	225.92
988.76	225.83
989.05	225.83
989.34	225.75
989.63	225.90
989.92	225.78
990.22	225.72
990.51	225.70
990.80	225.71
991.09	225.75
991.38	225.88
991.67	225.90
991.96	225.94
992.25	226.01
992.54	225.97
992.83	225.98
993.12	225.97
993.41	226.12
993.70	226.31
993.99	226.44
994.28	226.56
994.58	226.61
994.87	226.57
995.16	226.51
995.45	226.50
995.74	226.35
996.03	226.50
996.32	226.69
996.61	226.81
996.90	226.77
997.19	226.80
997.48	226.77
997.77	226.70
998.06	226.69
998.34	226.59
998.63	226.60
998.92	226.71
999.21	226.87
999.50	226.85
999.79	226.67
1000.08	226.70
1000.37	226.72
1000.66	226.67
1000.95	226.82
1001.24	226.93
1001.53	226.95
1001.82	226.98
1002.11	226.89
1002.40	226.85
1002.68	226.95
1002.97	227.34
1003.26	227.26
1003.55	227.20
1003.84	227.29
1004.13	227.44
1004.42	227.45
1004.71	227.46
1004.99	227.37
1005.28	227.43
1005.57	227.45
1005.86	227.47
1006.15	227.39
1006.44	227.30
1006.72	227.36
1007.01	227.33
1007.30	227.28
1007.59	227.30
1007.88	227.22
1008.17	227.23
1008.45	227.19
1008.74	226.96
1009.03	226.74
1009.32	226.70
1009.60	226.70
1009.89	226.70
1010.18	226.49
1010.47	226.46
1010.76	226.42
1011.04	226.45
1011.33	226.43
1011.62	226.47
1011.91	226.43
1012.19	226.40
1012.48	226.36
1012.77	226.37
1013.05	226.56
1013.34	226.57
1013.63	226.46
1013.92	226.52
1014.20	226.45
1014.49	226.42
1014.78	226.53
1015.06	226.30
1015.35	226.29
1015.64	226.30
1015.92	226.31
1016.21	226.29
1016.50	226.28
1016.78	226.30
1017.07	226.27
1017.36	226.10
1017.64	225.93
1017.93	225.97
1018.22	225.98
1018.50	225.94
1018.79	225.90
1019.08	225.65
1019.36	225.70
1019.65	225.69
1019.93	225.81
1020.22	225.88
1020.51	226.07
1020.79	225.94
1021.08	225.70
1021.36	223.80
1021.65	226.35
1021.94	226.15
1022.22	226.75
1022.51	225.35
1022.79	228.05
1023.08	226.65
1023.36	230.95
1023.65	224.75
>>>>>End Processed Spectral Data<<<<<
