SpectraSuite Data File
++++++++++++++++++++++++++++++++++++
Date: Wed Sep 04 17:49:40 EDT 2013
User: lab3
Dark Spectrum Present: Yes
Reference Spectrum Present: No
Number of Sampled Component Spectra: 1
Spectrometers: USB2E7196
Integration Time (usec): 170000 (USB2E7196)
Spectra Averaged: 20 (USB2E7196)
Boxcar Smoothing: 10 (USB2E7196)
Correct for Electrical Dark: No (USB2E7196)
Strobe/Lamp Enabled: No (USB2E7196)
Correct for Detector Non-linearity: No (USB2E7196)
Correct for Stray Light: No (USB2E7196)
Number of Pixels in Processed Spectrum: 2048
>>>>>Begin Processed Spectral Data<<<<<
339.09	0.00
339.48	212.30
339.86	214.85
340.24	214.35
340.63	215.45
341.01	225.05
341.39	219.00
341.78	221.10
342.16	223.85
342.54	221.75
342.93	211.86
343.31	222.49
343.69	223.04
344.07	223.48
344.46	224.05
344.84	224.53
345.22	224.57
345.60	224.95
345.99	225.16
346.37	225.26
346.75	225.40
347.13	225.46
347.52	225.58
347.90	225.73
348.28	225.66
348.66	225.84
349.05	225.59
349.43	225.71
349.81	225.81
350.19	225.94
350.57	225.95
350.96	226.05
351.34	226.17
351.72	226.26
352.10	226.40
352.48	226.39
352.87	226.45
353.25	226.47
353.63	226.40
354.01	226.46
354.39	226.57
354.77	226.67
355.15	226.88
355.54	226.85
355.92	226.81
356.30	226.88
356.68	227.20
357.06	227.38
357.44	227.31
357.82	227.30
358.20	227.72
358.58	227.78
358.97	227.85
359.35	228.01
359.73	228.26
360.11	228.27
360.49	228.40
360.87	228.45
361.25	228.60
361.63	228.85
362.01	228.92
362.39	228.88
362.77	229.00
363.15	229.00
363.53	229.11
363.91	229.16
364.29	229.24
364.67	228.80
365.05	228.89
365.43	228.97
365.81	229.05
366.19	228.92
366.57	229.10
366.95	229.09
367.33	229.02
367.71	228.95
368.09	229.07
368.47	229.05
368.85	229.06
369.23	229.12
369.61	228.99
369.99	229.18
370.37	229.21
370.75	229.35
371.13	229.21
371.51	229.05
371.89	229.08
372.27	229.13
372.65	229.17
373.03	229.10
373.41	229.06
373.78	228.99
374.16	228.67
374.54	228.55
374.92	228.49
375.30	228.51
375.68	228.37
376.06	228.32
376.44	228.27
376.82	228.18
377.19	228.07
377.57	227.94
377.95	227.67
378.33	227.55
378.71	227.21
379.09	227.25
379.47	227.28
379.84	227.11
380.22	226.94
380.60	226.80
380.98	226.73
381.36	226.66
381.73	226.50
382.11	226.56
382.49	226.46
382.87	226.36
383.25	226.24
383.62	226.75
384.00	226.59
384.38	226.51
384.76	226.60
385.13	226.74
385.51	226.68
385.89	226.54
386.27	226.53
386.64	226.62
387.02	226.47
387.40	226.43
387.78	226.42
388.15	226.37
388.53	226.36
388.91	226.27
389.29	226.14
389.66	226.26
390.04	226.21
390.42	226.25
390.79	226.21
391.17	226.13
391.55	225.51
391.92	225.49
392.30	225.56
392.68	225.40
393.05	225.35
393.43	225.36
393.81	225.45
394.18	225.43
394.56	225.37
394.94	225.58
395.31	225.49
395.69	225.71
396.06	225.88
396.44	225.87
396.82	225.88
397.19	226.26
397.57	226.28
397.95	226.42
398.32	226.32
398.70	226.47
399.07	226.60
399.45	226.74
399.82	226.88
400.20	226.86
400.58	226.96
400.95	226.82
401.33	227.09
401.70	227.54
402.08	227.67
402.45	227.84
402.83	228.10
403.20	228.37
403.58	228.43
403.95	228.66
404.33	228.93
404.71	229.21
405.08	229.58
405.46	229.81
405.83	230.04
406.21	230.39
406.58	230.66
406.96	231.07
407.33	231.40
407.70	231.76
408.08	232.56
408.45	233.00
408.83	233.60
409.20	233.94
409.58	234.03
409.95	234.66
410.33	235.27
410.70	235.53
411.08	236.16
411.45	236.73
411.82	237.30
412.20	238.10
412.57	239.05
412.95	239.39
413.32	240.25
413.69	241.01
414.07	241.86
414.44	242.80
414.82	243.75
415.19	244.88
415.56	246.01
415.94	246.97
416.31	248.40
416.68	249.76
417.06	251.38
417.43	253.10
417.81	254.72
418.18	256.50
418.55	258.53
418.93	260.49
419.30	262.57
419.67	264.73
420.04	266.93
420.42	269.25
420.79	272.31
421.16	275.11
421.54	278.20
421.91	281.14
422.28	284.15
422.66	287.43
423.03	290.85
423.40	294.23
423.77	297.75
424.15	301.31
424.52	305.09
424.89	309.24
425.26	313.01
425.64	316.80
426.01	320.82
426.38	325.12
426.75	329.60
427.13	334.16
427.50	338.89
427.87	343.75
428.24	348.59
428.61	353.01
428.99	358.15
429.36	363.55
429.73	369.06
430.10	374.59
430.47	380.21
430.85	385.83
431.22	391.90
431.59	398.55
431.96	404.75
432.33	411.55
432.70	418.03
433.08	425.95
433.45	433.28
433.82	440.61
434.19	448.67
434.56	456.66
434.93	464.19
435.30	471.92
435.68	480.45
436.05	488.92
436.42	497.43
436.79	505.12
437.16	513.40
437.53	522.12
437.90	530.65
438.27	539.07
438.64	547.91
439.01	556.14
439.38	563.27
439.75	570.30
440.13	578.32
440.50	585.79
440.87	591.75
441.24	598.09
441.61	605.03
441.98	610.04
442.35	615.83
442.72	621.92
443.09	627.56
443.46	630.99
443.83	633.12
444.20	635.08
444.57	637.74
444.94	638.83
445.31	639.94
445.68	641.38
446.05	641.67
446.42	640.31
446.79	638.98
447.16	637.43
447.53	636.26
447.90	632.52
448.27	628.97
448.64	624.12
449.01	620.49
449.37	614.50
449.74	608.48
450.11	601.82
450.48	594.13
450.85	586.27
451.22	579.54
451.59	573.09
451.96	566.71
452.33	558.69
452.70	551.37
453.07	542.81
453.43	533.69
453.80	525.36
454.17	517.47
454.54	509.80
454.91	501.64
455.28	493.71
455.65	486.41
456.02	479.60
456.38	473.43
456.75	465.73
457.12	459.20
457.49	453.15
457.86	446.71
458.23	441.60
458.59	436.03
458.96	430.24
459.33	425.15
459.70	420.08
460.07	416.02
460.43	411.36
460.80	407.17
461.17	403.51
461.54	399.52
461.91	395.72
462.27	391.86
462.64	388.60
463.01	385.07
463.38	381.85
463.74	377.93
464.11	374.85
464.48	372.27
464.85	369.38
465.21	367.28
465.58	364.97
465.95	362.16
466.32	359.90
466.68	357.66
467.05	355.49
467.42	353.25
467.78	350.96
468.15	348.83
468.52	347.11
468.88	345.00
469.25	343.06
469.62	341.55
469.98	339.88
470.35	338.47
470.72	336.98
471.08	335.15
471.45	333.90
471.82	332.78
472.18	331.26
472.55	330.32
472.92	328.86
473.28	327.81
473.65	326.75
474.02	325.68
474.38	324.75
474.75	323.92
475.11	322.96
475.48	322.29
475.85	321.71
476.21	321.10
476.58	320.53
476.94	320.10
477.31	319.63
477.67	319.27
478.04	318.97
478.41	318.73
478.77	319.10
479.14	318.80
479.50	318.66
479.87	318.75
480.23	318.79
480.60	318.79
480.96	318.80
481.33	319.16
481.69	319.44
482.06	319.68
482.42	319.91
482.79	320.38
483.15	320.84
483.52	321.44
483.88	321.91
484.25	322.50
484.61	323.21
484.98	323.96
485.34	324.92
485.71	325.83
486.07	326.84
486.44	327.38
486.80	328.59
487.17	329.69
487.53	330.99
487.90	332.31
488.26	334.04
488.62	335.67
488.99	337.07
489.35	338.79
489.72	340.68
490.08	342.71
490.44	344.62
490.81	346.82
491.17	348.98
491.54	351.46
491.90	354.03
492.26	356.65
492.63	359.40
492.99	362.22
493.36	365.24
493.72	368.56
494.08	372.03
494.45	375.58
494.81	379.60
495.17	383.47
495.54	387.71
495.90	391.87
496.26	396.30
496.63	400.97
496.99	405.79
497.35	410.78
497.72	416.07
498.08	421.63
498.44	427.32
498.80	433.34
499.17	439.45
499.53	445.86
499.89	452.50
500.26	459.32
500.62	466.32
500.98	473.81
501.34	481.26
501.71	488.89
502.07	496.71
502.43	504.65
502.79	513.07
503.16	521.62
503.52	530.61
503.88	539.87
504.24	549.57
504.60	559.58
504.97	569.92
505.33	580.20
505.69	591.31
506.05	602.20
506.41	613.46
506.78	624.84
507.14	636.61
507.50	648.92
507.86	661.53
508.22	674.23
508.59	687.01
508.95	700.61
509.31	714.75
509.67	728.84
510.03	743.07
510.39	757.79
510.75	772.92
511.12	788.07
511.48	803.64
511.84	819.17
512.20	834.76
512.56	851.06
512.92	867.67
513.28	884.41
513.64	901.57
514.00	919.09
514.37	936.91
514.73	955.00
515.09	973.24
515.45	991.53
515.81	1009.97
516.17	1028.88
516.53	1047.41
516.89	1065.88
517.25	1085.15
517.61	1105.35
517.97	1125.41
518.33	1145.17
518.69	1165.41
519.05	1185.69
519.41	1206.31
519.77	1227.24
520.13	1247.80
520.49	1268.33
520.85	1290.43
521.21	1311.52
521.57	1332.61
521.93	1353.25
522.29	1374.30
522.65	1394.84
523.01	1415.52
523.37	1436.25
523.73	1456.93
524.09	1477.50
524.45	1498.06
524.81	1518.77
525.17	1539.10
525.53	1559.61
525.89	1580.57
526.25	1601.15
526.61	1621.38
526.97	1642.09
527.33	1663.03
527.68	1684.68
528.04	1705.95
528.40	1725.35
528.76	1745.86
529.12	1766.09
529.48	1786.88
529.84	1806.81
530.20	1827.77
530.56	1848.27
530.91	1868.97
531.27	1889.12
531.63	1909.26
531.99	1929.70
532.35	1949.40
532.71	1969.40
533.07	1989.62
533.42	2008.96
533.78	2028.63
534.14	2048.25
534.50	2067.39
534.86	2086.63
535.21	2104.03
535.57	2122.09
535.93	2139.82
536.29	2157.71
536.65	2175.77
537.00	2192.85
537.36	2210.12
537.72	2226.44
538.08	2243.28
538.44	2259.63
538.79	2275.71
539.15	2292.06
539.51	2307.61
539.87	2322.68
540.22	2336.40
540.58	2350.54
540.94	2363.39
541.29	2375.70
541.65	2388.05
542.01	2400.09
542.37	2410.26
542.72	2420.82
543.08	2431.45
543.44	2442.56
543.79	2452.22
544.15	2461.47
544.51	2471.39
544.87	2480.54
545.22	2488.80
545.58	2496.45
545.94	2503.38
546.29	2510.04
546.65	2516.04
547.01	2521.54
547.36	2526.88
547.72	2532.46
548.07	2536.21
548.43	2541.64
548.79	2546.06
549.14	2550.03
549.50	2553.61
549.86	2557.42
550.21	2560.76
550.57	2563.98
550.92	2565.19
551.28	2566.26
551.64	2568.43
551.99	2570.18
552.35	2571.92
552.70	2573.84
553.06	2575.61
553.41	2576.73
553.77	2578.08
554.13	2579.53
554.48	2580.96
554.84	2582.24
555.19	2583.27
555.55	2584.70
555.90	2583.78
556.26	2582.79
556.61	2581.06
556.97	2578.48
557.32	2577.45
557.68	2576.57
558.03	2575.10
558.39	2573.33
558.74	2572.60
559.10	2569.41
559.45	2565.53
559.81	2560.94
560.16	2555.80
560.52	2550.34
560.87	2545.87
561.23	2540.42
561.58	2534.44
561.94	2527.75
562.29	2520.45
562.64	2513.03
563.00	2504.89
563.35	2498.35
563.71	2491.68
564.06	2485.50
564.42	2479.14
564.77	2472.70
565.12	2465.18
565.48	2457.37
565.83	2449.67
566.19	2441.48
566.54	2433.83
566.89	2425.70
567.25	2418.04
567.60	2410.80
567.96	2403.58
568.31	2395.39
568.66	2386.64
569.02	2377.90
569.37	2369.93
569.72	2362.53
570.08	2353.24
570.43	2343.92
570.78	2334.83
571.14	2325.62
571.49	2315.22
571.84	2306.00
572.20	2295.06
572.55	2284.91
572.90	2273.60
573.26	2263.45
573.61	2252.29
573.96	2240.77
574.31	2228.83
574.67	2217.26
575.02	2204.72
575.37	2192.10
575.72	2178.99
576.08	2167.26
576.43	2154.54
576.78	2140.99
577.13	2127.28
577.49	2114.98
577.84	2103.09
578.19	2091.21
578.54	2078.77
578.90	2067.21
579.25	2054.95
579.60	2042.48
579.95	2029.35
580.30	2016.88
580.66	2003.55
581.01	1990.62
581.36	1976.87
581.71	1964.77
582.06	1951.74
582.42	1939.37
582.77	1926.75
583.12	1915.05
583.47	1902.74
583.82	1891.24
584.17	1879.43
584.53	1867.67
584.88	1854.75
585.23	1841.61
585.58	1827.62
585.93	1814.65
586.28	1801.62
586.63	1787.80
586.98	1773.89
587.34	1761.04
587.69	1747.75
588.04	1735.30
588.39	1723.15
588.74	1711.21
589.09	1699.16
589.44	1686.45
589.79	1674.26
590.14	1662.43
590.49	1650.45
590.84	1638.51
591.19	1626.53
591.54	1614.52
591.89	1602.39
592.25	1592.23
592.60	1581.00
592.95	1569.28
593.30	1557.25
593.65	1545.14
594.00	1533.29
594.35	1523.54
594.70	1511.58
595.05	1500.54
595.40	1488.50
595.75	1476.69
596.10	1465.85
596.45	1454.55
596.80	1443.95
597.15	1432.59
597.50	1421.06
597.85	1410.04
598.19	1398.75
598.54	1387.07
598.89	1375.72
599.24	1365.30
599.59	1353.88
599.94	1343.33
600.29	1333.33
600.64	1323.21
600.99	1312.76
601.34	1303.44
601.69	1292.17
602.04	1282.84
602.39	1273.30
602.74	1264.39
603.08	1255.25
603.43	1245.80
603.78	1236.25
604.13	1226.55
604.48	1217.25
604.83	1207.70
605.18	1197.89
605.53	1188.29
605.87	1179.27
606.22	1170.95
606.57	1161.83
606.92	1152.66
607.27	1143.70
607.62	1135.06
607.96	1126.79
608.31	1118.87
608.66	1110.55
609.01	1102.21
609.36	1093.81
609.70	1084.90
610.05	1076.53
610.40	1068.18
610.75	1059.78
611.10	1051.52
611.44	1043.30
611.79	1035.13
612.14	1027.24
612.49	1019.45
612.83	1012.17
613.18	1004.42
613.53	997.04
613.88	989.08
614.22	981.52
614.57	973.74
614.92	965.97
615.27	958.31
615.61	950.63
615.96	943.01
616.31	935.97
616.65	928.82
617.00	921.79
617.35	914.61
617.70	907.36
618.04	900.26
618.39	893.29
618.74	887.00
619.08	880.34
619.43	873.53
619.78	866.54
620.12	859.18
620.47	852.44
620.82	845.17
621.16	838.68
621.51	832.35
621.85	826.10
622.20	819.69
622.55	813.15
622.89	807.04
623.24	800.93
623.59	794.43
623.93	788.25
624.28	782.38
624.62	776.68
624.97	771.04
625.32	765.30
625.66	759.44
626.01	753.45
626.35	747.93
626.70	742.64
627.04	737.71
627.39	732.40
627.73	727.27
628.08	722.27
628.43	716.99
628.77	711.71
629.12	706.49
629.46	701.72
629.81	697.20
630.15	692.37
630.50	687.34
630.84	682.50
631.19	677.70
631.53	673.05
631.88	667.90
632.22	662.96
632.57	658.59
632.91	654.12
633.26	649.68
633.60	645.21
633.95	640.69
634.29	635.94
634.64	631.73
634.98	626.98
635.32	622.65
635.67	618.62
636.01	614.45
636.36	610.23
636.70	606.24
637.05	601.99
637.39	598.03
637.73	594.19
638.08	590.48
638.42	586.49
638.77	582.27
639.11	578.15
639.45	574.18
639.80	569.89
640.14	565.92
640.49	562.05
640.83	558.30
641.17	554.61
641.52	550.95
641.86	547.43
642.20	544.32
642.55	540.72
642.89	537.22
643.23	533.66
643.58	530.69
643.92	527.06
644.26	523.80
644.61	520.45
644.95	517.04
645.29	513.57
645.64	510.37
645.98	507.40
646.32	504.54
646.66	501.37
647.01	498.35
647.35	495.59
647.69	492.64
648.04	489.76
648.38	486.85
648.72	484.05
649.06	481.04
649.41	477.96
649.75	475.06
650.09	472.08
650.43	469.32
650.78	466.23
651.12	463.42
651.46	460.65
651.80	458.06
652.14	455.35
652.49	452.90
652.83	450.44
653.17	447.77
653.51	445.10
653.85	442.82
654.20	440.40
654.54	437.89
654.88	435.31
655.22	433.04
655.56	430.74
655.90	428.44
656.25	426.20
656.59	424.05
656.93	421.85
657.27	419.83
657.61	417.49
657.95	415.33
658.29	413.28
658.64	411.27
658.98	409.11
659.32	406.97
659.66	404.90
660.00	402.79
660.34	400.97
660.68	398.97
661.02	396.95
661.36	395.10
661.70	393.10
662.05	391.25
662.39	389.40
662.73	387.53
663.07	385.87
663.41	384.09
663.75	382.20
664.09	380.37
664.43	378.51
664.77	376.86
665.11	375.18
665.45	373.58
665.79	371.88
666.13	370.11
666.47	368.48
666.81	366.65
667.15	364.97
667.49	363.43
667.83	362.06
668.17	360.58
668.51	359.05
668.85	357.80
669.19	356.76
669.53	355.15
669.87	353.70
670.21	352.14
670.55	350.76
670.89	349.63
671.23	348.41
671.57	347.11
671.91	345.69
672.25	344.33
672.58	343.08
672.92	341.73
673.26	340.52
673.60	339.30
673.94	338.32
674.28	337.22
674.62	336.05
674.96	334.79
675.30	333.61
675.64	332.51
675.97	331.32
676.31	329.89
676.65	328.70
676.99	327.74
677.33	326.52
677.67	325.44
678.01	324.19
678.34	323.09
678.68	322.11
679.02	321.19
679.36	320.21
679.70	319.14
680.04	318.15
680.37	317.16
680.71	316.25
681.05	315.20
681.39	314.35
681.73	313.35
682.06	312.45
682.40	311.63
682.74	310.71
683.08	309.92
683.42	309.01
683.75	308.21
684.09	307.29
684.43	306.56
684.77	305.71
685.10	304.93
685.44	304.11
685.78	303.31
686.12	302.49
686.45	301.76
686.79	300.95
687.13	300.32
687.46	299.53
687.80	298.93
688.14	298.25
688.48	297.41
688.81	296.67
689.15	296.04
689.49	295.21
689.82	294.55
690.16	293.66
690.50	293.03
690.83	292.31
691.17	291.54
691.51	290.88
691.84	290.31
692.18	289.61
692.52	288.99
692.85	288.38
693.19	288.00
693.52	287.35
693.86	286.72
694.20	285.95
694.53	285.47
694.87	284.75
695.21	284.08
695.54	283.52
695.88	282.82
696.21	282.04
696.55	281.41
696.88	280.79
697.22	280.12
697.56	279.59
697.89	279.01
698.23	278.52
698.56	277.93
698.90	277.43
699.23	276.86
699.57	276.37
699.90	275.72
700.24	274.94
700.58	274.59
700.91	274.14
701.25	274.00
701.58	273.77
701.92	273.38
702.25	272.85
702.59	272.35
702.92	271.96
703.26	271.61
703.59	271.31
703.93	271.22
704.26	270.96
704.60	270.57
704.93	270.08
705.26	269.59
705.60	269.22
705.93	268.57
706.27	268.39
706.60	268.07
706.94	267.95
707.27	267.53
707.61	267.08
707.94	266.70
708.27	266.04
708.61	265.35
708.94	264.87
709.28	264.51
709.61	264.14
709.94	263.75
710.28	263.36
710.61	262.96
710.95	262.20
711.28	262.13
711.61	261.68
711.95	261.48
712.28	261.10
712.61	260.73
712.95	260.72
713.28	260.43
713.61	259.95
713.95	259.46
714.28	259.25
714.61	258.84
714.95	258.49
715.28	258.06
715.61	257.69
715.95	257.44
716.28	257.13
716.61	256.91
716.95	256.55
717.28	256.17
717.61	255.87
717.94	255.55
718.28	254.80
718.61	254.56
718.94	254.26
719.27	253.98
719.61	253.77
719.94	253.38
720.27	253.00
720.60	252.77
720.94	252.48
721.27	252.26
721.60	252.11
721.93	251.78
722.27	251.77
722.60	251.69
722.93	251.42
723.26	251.27
723.59	250.97
723.93	250.92
724.26	250.85
724.59	250.60
724.92	250.49
725.25	250.48
725.59	250.27
725.92	250.05
726.25	249.89
726.58	249.71
726.91	249.52
727.24	249.42
727.57	249.25
727.91	248.89
728.24	248.78
728.57	248.57
728.90	248.52
729.23	248.13
729.56	248.11
729.89	247.93
730.22	247.64
730.55	247.40
730.89	247.18
731.22	247.01
731.55	246.84
731.88	246.73
732.21	246.48
732.54	246.22
732.87	246.06
733.20	245.92
733.53	245.72
733.86	245.64
734.19	245.27
734.52	245.11
734.85	245.35
735.18	245.03
735.51	244.99
735.84	244.91
736.17	244.93
736.50	244.53
736.83	244.91
737.16	244.75
737.49	244.73
737.82	244.54
738.15	244.48
738.48	244.34
738.81	244.06
739.14	243.82
739.47	243.74
739.80	243.56
740.13	243.49
740.46	243.29
740.79	243.01
741.12	242.86
741.45	242.72
741.78	242.29
742.11	242.33
742.44	242.06
742.77	241.88
743.10	241.65
743.43	241.52
743.75	241.00
744.08	241.50
744.41	241.24
744.74	241.11
745.07	240.86
745.40	240.81
745.73	240.94
746.06	240.95
746.39	240.86
746.71	240.72
747.04	240.51
747.37	240.34
747.70	240.28
748.03	240.20
748.36	240.13
748.68	240.07
749.01	239.86
749.34	239.84
749.67	239.74
750.00	239.79
750.33	239.98
750.65	239.87
750.98	239.25
751.31	239.12
751.64	239.00
751.97	239.12
752.29	239.00
752.62	238.64
752.95	238.42
753.28	238.24
753.60	238.14
753.93	238.17
754.26	238.21
754.59	237.99
754.91	237.90
755.24	237.79
755.57	237.60
755.90	237.41
756.22	237.17
756.55	236.93
756.88	236.67
757.20	236.30
757.53	236.03
757.86	235.87
758.19	235.85
758.51	235.78
758.84	235.46
759.17	235.30
759.49	235.26
759.82	235.42
760.15	235.42
760.47	235.30
760.80	235.07
761.13	235.03
761.45	234.97
761.78	234.88
762.11	234.77
762.43	234.73
762.76	234.70
763.08	234.70
763.41	234.73
763.74	234.69
764.06	234.54
764.39	234.49
764.71	234.41
765.04	234.26
765.37	234.18
765.69	234.11
766.02	234.00
766.34	233.89
766.67	233.70
767.00	233.69
767.32	233.95
767.65	234.15
767.97	234.00
768.30	233.91
768.62	233.82
768.95	233.68
769.27	233.63
769.60	233.67
769.92	233.52
770.25	233.35
770.57	233.16
770.90	233.11
771.22	233.02
771.55	233.01
771.87	232.97
772.20	232.91
772.52	233.17
772.85	233.78
773.17	233.76
773.50	233.61
773.82	233.47
774.15	233.14
774.47	232.81
774.80	232.72
775.12	232.75
775.45	232.66
775.77	232.64
776.09	232.55
776.42	232.44
776.74	232.61
777.07	232.53
777.39	232.53
777.72	232.42
778.04	232.44
778.36	232.26
778.69	232.24
779.01	232.25
779.33	231.86
779.66	231.17
779.98	231.09
780.31	231.03
780.63	231.18
780.95	231.22
781.28	231.18
781.60	231.16
781.92	231.09
782.25	231.10
782.57	231.05
782.89	231.09
783.22	231.04
783.54	230.79
783.86	230.76
784.19	230.69
784.51	230.84
784.83	230.70
785.16	230.75
785.48	230.68
785.80	230.60
786.12	230.64
786.45	230.68
786.77	230.67
787.09	230.68
787.42	230.44
787.74	230.45
788.06	230.43
788.38	230.37
788.71	230.25
789.03	230.16
789.35	230.19
789.67	230.04
789.99	230.01
790.32	229.95
790.64	229.96
790.96	230.33
791.28	230.08
791.61	229.98
791.93	229.98
792.25	229.98
792.57	230.26
792.89	230.02
793.21	229.96
793.54	229.85
793.86	229.70
794.18	229.76
794.50	229.55
794.82	229.47
795.14	229.45
795.47	229.48
795.79	229.55
796.11	229.41
796.43	229.34
796.75	229.33
797.07	229.36
797.39	229.35
797.71	228.99
798.04	229.03
798.36	229.08
798.68	229.03
799.00	229.03
799.32	228.77
799.64	228.89
799.96	228.94
800.28	228.97
800.60	228.98
800.92	228.93
801.24	229.01
801.56	229.07
801.89	229.05
802.21	229.10
802.53	228.95
802.85	229.05
803.17	229.25
803.49	229.10
803.81	229.10
804.13	228.98
804.45	229.00
804.77	229.03
805.09	229.00
805.41	228.90
805.73	228.80
806.05	228.66
806.37	228.66
806.69	228.54
807.01	228.55
807.33	228.64
807.65	228.49
807.97	228.56
808.28	228.51
808.60	228.47
808.92	228.30
809.24	228.61
809.56	228.57
809.88	228.41
810.20	228.54
810.52	228.55
810.84	228.58
811.16	228.45
811.48	228.37
811.80	228.50
812.12	228.52
812.43	228.59
812.75	228.66
813.07	228.55
813.39	228.54
813.71	228.50
814.03	228.38
814.35	228.37
814.67	228.23
814.98	228.11
815.30	228.09
815.62	228.07
815.94	227.71
816.26	227.82
816.58	227.73
816.89	227.59
817.21	227.48
817.53	227.50
817.85	227.54
818.17	227.53
818.48	227.42
818.80	227.53
819.12	227.46
819.44	227.32
819.76	227.28
820.07	227.27
820.39	227.29
820.71	227.22
821.03	227.28
821.34	227.21
821.66	227.30
821.98	227.39
822.30	227.44
822.61	227.80
822.93	227.58
823.25	227.59
823.57	227.66
823.88	227.75
824.20	227.71
824.52	227.81
824.83	227.84
825.15	227.75
825.47	227.67
825.79	227.71
826.10	227.72
826.42	227.69
826.74	227.79
827.05	227.74
827.37	227.93
827.69	227.91
828.00	227.96
828.32	227.91
828.64	227.86
828.95	228.08
829.27	227.86
829.58	227.90
829.90	227.99
830.22	227.94
830.53	227.78
830.85	227.71
831.17	227.55
831.48	227.41
831.80	227.46
832.11	227.47
832.43	227.38
832.75	227.36
833.06	227.65
833.38	227.52
833.69	227.53
834.01	227.46
834.32	227.42
834.64	227.37
834.96	227.38
835.27	227.31
835.59	227.09
835.90	227.01
836.22	226.97
836.53	226.94
836.85	226.95
837.16	227.45
837.48	227.47
837.79	227.68
838.11	227.81
838.42	227.79
838.74	227.81
839.05	227.80
839.37	227.82
839.68	227.55
840.00	227.53
840.31	227.59
840.63	227.58
840.94	227.50
841.26	227.46
841.57	227.38
841.88	227.49
842.20	227.55
842.51	227.53
842.83	227.48
843.14	227.85
843.46	227.84
843.77	227.58
844.08	227.57
844.40	227.44
844.71	227.34
845.03	227.32
845.34	227.26
845.65	227.29
845.97	227.31
846.28	227.31
846.60	227.29
846.91	227.16
847.22	227.13
847.54	227.25
847.85	227.24
848.16	227.30
848.48	227.12
848.79	227.22
849.10	227.26
849.42	227.28
849.73	226.85
850.04	226.77
850.36	226.60
850.67	226.66
850.98	226.67
851.30	226.81
851.61	226.77
851.92	226.74
852.23	226.86
852.55	226.84
852.86	227.00
853.17	227.02
853.49	227.15
853.80	227.19
854.11	227.21
854.42	227.33
854.74	227.30
855.05	227.33
855.36	227.09
855.67	227.07
855.99	227.09
856.30	227.67
856.61	227.76
856.92	227.77
857.23	227.84
857.55	227.70
857.86	227.61
858.17	227.70
858.48	227.60
858.79	227.54
859.11	227.50
859.42	227.34
859.73	227.30
860.04	227.17
860.35	226.98
860.66	226.90
860.98	226.89
861.29	226.89
861.60	226.90
861.91	227.08
862.22	227.02
862.53	226.97
862.84	226.36
863.16	226.47
863.47	226.39
863.78	226.31
864.09	226.45
864.40	226.53
864.71	226.51
865.02	226.66
865.33	226.50
865.64	226.50
865.95	226.57
866.27	226.91
866.58	226.94
866.89	227.05
867.20	226.95
867.51	226.83
867.82	226.82
868.13	226.97
868.44	226.79
868.75	226.86
869.06	226.85
869.37	226.86
869.68	226.72
869.99	226.85
870.30	226.88
870.61	226.86
870.92	226.69
871.23	226.67
871.54	226.65
871.85	226.89
872.16	226.99
872.47	226.86
872.78	226.55
873.09	226.58
873.40	226.45
873.71	226.52
874.02	226.51
874.33	226.46
874.64	226.35
874.95	226.46
875.26	226.38
875.56	226.34
875.87	226.37
876.18	226.31
876.49	226.79
876.80	226.63
877.11	226.52
877.42	226.61
877.73	226.51
878.04	226.45
878.35	226.40
878.66	226.38
878.96	226.38
879.27	226.37
879.58	226.36
879.89	226.42
880.20	226.55
880.51	226.62
880.82	226.59
881.12	226.55
881.43	226.46
881.74	226.48
882.05	226.42
882.36	226.45
882.67	226.45
882.97	225.83
883.28	225.84
883.59	225.78
883.90	225.84
884.21	225.95
884.51	225.93
884.82	225.82
885.13	225.77
885.44	225.76
885.74	225.75
886.05	225.75
886.36	225.75
886.67	225.54
886.98	225.75
887.28	225.79
887.59	225.81
887.90	225.84
888.20	225.80
888.51	226.00
888.82	225.84
889.13	225.89
889.43	226.35
889.74	226.36
890.05	226.42
890.35	226.33
890.66	226.31
890.97	226.25
891.28	226.25
891.58	226.30
891.89	226.31
892.20	226.28
892.50	226.15
892.81	226.15
893.12	226.27
893.42	226.04
893.73	226.09
894.04	226.13
894.34	226.10
894.65	226.05
894.95	225.97
895.26	226.02
895.57	226.30
895.87	225.91
896.18	226.00
896.48	226.03
896.79	226.02
897.10	226.12
897.40	226.26
897.71	226.31
898.01	226.30
898.32	226.39
898.63	226.37
898.93	226.43
899.24	226.42
899.54	226.39
899.85	226.37
900.15	226.27
900.46	226.24
900.76	226.33
901.07	226.35
901.38	226.31
901.68	226.34
901.99	226.07
902.29	226.03
902.60	225.97
902.90	225.98
903.21	225.97
903.51	225.85
903.82	225.90
904.12	225.91
904.43	225.92
904.73	225.87
905.03	225.97
905.34	226.46
905.64	226.42
905.95	226.33
906.25	226.31
906.56	226.34
906.86	226.31
907.17	226.23
907.47	226.23
907.77	226.20
908.08	226.13
908.38	226.09
908.69	226.14
908.99	226.15
909.30	226.11
909.60	226.06
909.90	226.12
910.21	225.95
910.51	225.83
910.81	225.76
911.12	225.82
911.42	225.73
911.73	225.28
912.03	225.29
912.33	225.43
912.64	225.40
912.94	225.37
913.24	225.36
913.55	225.32
913.85	225.34
914.15	225.48
914.46	225.56
914.76	225.50
915.06	225.46
915.37	225.43
915.67	225.38
915.97	225.44
916.27	225.32
916.58	225.26
916.88	225.24
917.18	225.19
917.49	225.47
917.79	225.47
918.09	225.50
918.39	225.63
918.70	225.59
919.00	225.64
919.30	225.85
919.60	225.78
919.91	225.73
920.21	225.73
920.51	225.63
920.81	225.53
921.12	225.69
921.42	225.65
921.72	225.69
922.02	225.74
922.32	225.81
922.63	225.86
922.93	226.21
923.23	226.29
923.53	226.35
923.83	226.05
924.13	226.15
924.44	226.22
924.74	226.30
925.04	226.35
925.34	226.35
925.64	226.22
925.94	226.27
926.24	226.59
926.55	226.64
926.85	226.72
927.15	226.81
927.45	226.78
927.75	226.86
928.05	226.85
928.35	226.90
928.65	227.00
928.95	227.02
929.26	226.81
929.56	226.90
929.86	226.90
930.16	226.88
930.46	226.82
930.76	226.76
931.06	226.54
931.36	226.40
931.66	226.48
931.96	226.51
932.26	226.62
932.56	226.40
932.86	226.40
933.16	226.38
933.46	226.38
933.76	226.28
934.06	226.38
934.36	226.59
934.66	226.48
934.96	226.38
935.26	226.44
935.56	226.55
935.86	226.49
936.16	226.43
936.46	226.42
936.76	226.36
937.06	226.27
937.36	226.37
937.66	226.42
937.96	226.39
938.26	226.27
938.56	226.13
938.86	226.23
939.16	226.32
939.46	226.35
939.76	226.37
940.06	226.38
940.35	226.24
940.65	226.05
940.95	226.17
941.25	226.09
941.55	226.00
941.85	225.90
942.15	225.96
942.45	226.17
942.75	226.14
943.04	226.19
943.34	226.34
943.64	226.35
943.94	226.31
944.24	226.29
944.54	226.42
944.84	226.41
945.13	226.32
945.43	226.17
945.73	226.14
946.03	225.98
946.33	225.92
946.62	225.91
946.92	225.85
947.22	225.81
947.52	225.85
947.82	225.90
948.11	225.87
948.41	225.78
948.71	225.65
949.01	225.69
949.31	225.59
949.60	225.50
949.90	225.47
950.20	225.51
950.50	225.45
950.79	225.37
951.09	225.49
951.39	225.41
951.69	225.39
951.98	225.45
952.28	225.55
952.58	225.58
952.87	225.62
953.17	225.72
953.47	225.71
953.76	225.71
954.06	225.58
954.36	225.45
954.66	225.41
954.95	225.51
955.25	225.55
955.55	225.68
955.84	225.60
956.14	225.64
956.44	225.60
956.73	225.56
957.03	225.58
957.32	225.58
957.62	225.61
957.92	225.73
958.21	225.71
958.51	226.28
958.81	226.37
959.10	226.39
959.40	226.42
959.69	226.45
959.99	226.50
960.29	226.64
960.58	226.71
960.88	226.94
961.17	226.91
961.47	226.91
961.76	226.83
962.06	226.96
962.36	226.97
962.65	227.00
962.95	227.16
963.24	227.21
963.54	227.19
963.83	227.21
964.13	227.20
964.42	227.07
964.72	226.65
965.01	226.66
965.31	226.66
965.60	226.61
965.90	226.85
966.19	226.77
966.49	226.76
966.78	226.75
967.08	226.75
967.37	226.66
967.67	226.61
967.96	226.73
968.26	226.60
968.55	226.65
968.85	226.64
969.14	226.55
969.43	226.49
969.73	226.47
970.02	226.46
970.32	226.50
970.61	226.52
970.91	226.41
971.20	226.36
971.49	226.31
971.79	226.35
972.08	226.07
972.38	226.11
972.67	226.04
972.96	226.07
973.26	225.92
973.55	226.12
973.85	226.06
974.14	225.97
974.43	226.09
974.73	225.98
975.02	225.91
975.31	225.88
975.61	225.84
975.90	225.77
976.19	225.75
976.49	225.72
976.78	225.73
977.07	225.66
977.37	225.67
977.66	225.69
977.95	225.61
978.24	225.61
978.54	225.69
978.83	225.74
979.12	225.76
979.42	225.74
979.71	225.61
980.00	225.58
980.29	225.58
980.59	225.48
980.88	225.61
981.17	225.68
981.46	225.63
981.76	225.65
982.05	225.81
982.34	225.83
982.63	225.85
982.93	225.81
983.22	225.95
983.51	225.92
983.80	226.01
984.09	226.04
984.39	225.93
984.68	225.86
984.97	225.88
985.26	225.88
985.55	225.89
985.85	225.76
986.14	225.90
986.43	225.97
986.72	225.95
987.01	225.75
987.30	225.71
987.59	225.73
987.89	225.73
988.18	225.54
988.47	225.44
988.76	225.37
989.05	225.35
989.34	225.30
989.63	225.47
989.92	225.35
990.22	225.34
990.51	225.44
990.80	225.41
991.09	225.44
991.38	225.46
991.67	225.48
991.96	225.52
992.25	225.49
992.54	225.39
992.83	225.38
993.12	225.38
993.41	225.52
993.70	225.78
993.99	225.84
994.28	225.95
994.58	226.08
994.87	226.10
995.16	226.12
995.45	226.06
995.74	225.88
996.03	225.94
996.32	226.06
996.61	226.09
996.90	226.10
997.19	226.04
997.48	225.99
997.77	225.95
998.06	225.95
998.34	225.94
998.63	225.98
998.92	226.05
999.21	226.16
999.50	226.12
999.79	225.94
1000.08	225.96
1000.37	225.87
1000.66	225.80
1000.95	225.88
1001.24	225.94
1001.53	226.05
1001.82	226.05
1002.11	226.02
1002.40	225.95
1002.68	226.08
1002.97	226.45
1003.26	226.39
1003.55	226.38
1003.84	226.37
1004.13	226.56
1004.42	226.56
1004.71	226.60
1004.99	226.52
1005.28	226.66
1005.57	226.56
1005.86	226.50
1006.15	226.44
1006.44	226.47
1006.72	226.52
1007.01	226.45
1007.30	226.40
1007.59	226.32
1007.88	226.33
1008.17	226.37
1008.45	226.27
1008.74	226.07
1009.03	225.80
1009.32	225.81
1009.60	225.82
1009.89	225.70
1010.18	225.44
1010.47	225.49
1010.76	225.45
1011.04	225.47
1011.33	225.41
1011.62	225.46
1011.91	225.47
1012.19	225.54
1012.48	225.52
1012.77	225.49
1013.05	225.68
1013.34	225.68
1013.63	225.63
1013.92	225.66
1014.20	225.53
1014.49	225.57
1014.78	225.61
1015.06	225.49
1015.35	225.48
1015.64	225.47
1015.92	225.67
1016.21	225.71
1016.50	225.60
1016.78	225.66
1017.07	225.67
1017.36	225.57
1017.64	225.46
1017.93	225.53
1018.22	225.42
1018.50	225.41
1018.79	225.39
1019.08	225.21
1019.36	225.25
1019.65	225.20
1019.93	225.22
1020.22	225.29
1020.51	225.53
1020.79	225.47
1021.08	224.40
1021.36	224.45
1021.65	225.15
1021.94	225.90
1022.22	226.05
1022.51	223.80
1022.79	226.30
1023.08	225.35
1023.36	231.00
1023.65	224.20
>>>>>End Processed Spectral Data<<<<<
