SpectraSuite Data File
++++++++++++++++++++++++++++++++++++
Date: Wed Sep 04 17:44:10 EDT 2013
User: lab3
Dark Spectrum Present: Yes
Reference Spectrum Present: No
Number of Sampled Component Spectra: 1
Spectrometers: USB2E7196
Integration Time (usec): 170000 (USB2E7196)
Spectra Averaged: 20 (USB2E7196)
Boxcar Smoothing: 10 (USB2E7196)
Correct for Electrical Dark: No (USB2E7196)
Strobe/Lamp Enabled: No (USB2E7196)
Correct for Detector Non-linearity: No (USB2E7196)
Correct for Stray Light: No (USB2E7196)
Number of Pixels in Processed Spectrum: 2048
>>>>>Begin Processed Spectral Data<<<<<
339.09	0.00
339.48	212.95
339.86	215.25
340.24	215.10
340.63	217.50
341.01	226.40
341.39	218.35
341.78	222.25
342.16	223.50
342.54	223.45
342.93	212.05
343.31	222.75
343.69	223.29
344.07	223.74
344.46	224.28
344.84	224.68
345.22	224.62
345.60	224.99
345.99	225.14
346.37	225.23
346.75	225.29
347.13	225.41
347.52	225.48
347.90	225.73
348.28	225.74
348.66	225.79
349.05	225.69
349.43	225.75
349.81	225.84
350.19	225.86
350.57	225.93
350.96	226.03
351.34	226.11
351.72	226.22
352.10	226.28
352.48	226.27
352.87	226.27
353.25	226.32
353.63	226.33
354.01	226.39
354.39	226.45
354.77	226.61
355.15	226.74
355.54	226.78
355.92	226.64
356.30	226.72
356.68	227.06
357.06	227.15
357.44	227.13
357.82	227.16
358.20	227.67
358.58	227.67
358.97	227.72
359.35	227.90
359.73	228.00
360.11	228.04
360.49	228.14
360.87	228.19
361.25	228.33
361.63	228.60
362.01	228.71
362.39	228.79
362.77	228.86
363.15	228.86
363.53	228.84
363.91	228.93
364.29	228.91
364.67	228.56
365.05	228.64
365.43	228.77
365.81	228.84
366.19	228.66
366.57	228.93
366.95	228.95
367.33	228.83
367.71	228.85
368.09	228.95
368.47	228.92
368.85	228.93
369.23	228.98
369.61	228.80
369.99	228.99
370.37	229.04
370.75	229.20
371.13	229.14
371.51	229.07
371.89	229.10
372.27	229.11
372.65	229.13
373.03	229.03
373.41	228.88
373.78	228.80
374.16	228.50
374.54	228.34
374.92	228.23
375.30	228.25
375.68	228.09
376.06	228.03
376.44	227.93
376.82	227.91
377.19	227.78
377.57	227.61
377.95	227.30
378.33	227.18
378.71	226.88
379.09	226.81
379.47	226.85
379.84	226.67
380.22	226.62
380.60	226.50
380.98	226.50
381.36	226.49
381.73	226.41
382.11	226.47
382.49	226.35
382.87	226.26
383.25	226.18
383.62	226.69
384.00	226.53
384.38	226.59
384.76	226.63
385.13	226.80
385.51	226.77
385.89	226.70
386.27	226.64
386.64	226.62
387.02	226.55
387.40	226.49
387.78	226.50
388.15	226.39
388.53	226.34
388.91	226.29
389.29	226.20
389.66	226.20
390.04	226.09
390.42	226.17
390.79	226.17
391.17	226.13
391.55	225.58
391.92	225.58
392.30	225.51
392.68	225.36
393.05	225.28
393.43	225.34
393.81	225.40
394.18	225.38
394.56	225.40
394.94	225.51
395.31	225.55
395.69	225.77
396.06	225.89
396.44	225.90
396.82	225.90
397.19	226.23
397.57	226.30
397.95	226.52
398.32	226.50
398.70	226.68
399.07	226.92
399.45	227.00
399.82	227.17
400.20	227.23
400.58	227.43
400.95	227.40
401.33	227.62
401.70	228.09
402.08	228.29
402.45	228.43
402.83	228.75
403.20	228.90
403.58	228.97
403.95	229.28
404.33	229.56
404.71	229.78
405.08	230.25
405.46	230.46
405.83	230.67
406.21	230.92
406.58	231.14
406.96	231.41
407.33	231.77
407.70	232.10
408.08	232.85
408.45	233.19
408.83	233.73
409.20	234.08
409.58	234.13
409.95	234.67
410.33	235.19
410.70	235.52
411.08	236.10
411.45	236.72
411.82	237.29
412.20	238.00
412.57	239.00
412.95	239.23
413.32	240.15
413.69	240.91
414.07	241.78
414.44	242.73
414.82	243.63
415.19	244.86
415.56	246.07
415.94	247.03
416.31	248.45
416.68	249.71
417.06	251.30
417.43	252.93
417.81	254.56
418.18	256.33
418.55	258.24
418.93	260.21
419.30	262.17
419.67	264.37
420.04	266.55
420.42	268.65
420.79	271.69
421.16	274.27
421.54	277.15
421.91	280.02
422.28	282.97
422.66	286.18
423.03	289.40
423.40	292.55
423.77	295.99
424.15	299.47
424.52	303.15
424.89	307.19
425.26	311.00
425.64	314.53
426.01	318.55
426.38	322.72
426.75	327.14
427.13	331.58
427.50	336.10
427.87	340.87
428.24	345.64
428.61	349.92
428.99	355.05
429.36	360.42
429.73	365.70
430.10	371.00
430.47	376.41
430.85	381.80
431.22	387.78
431.59	394.35
431.96	400.46
432.33	407.17
432.70	413.46
433.08	421.08
433.45	428.28
433.82	435.41
434.19	443.30
434.56	451.09
434.93	458.56
435.30	466.00
435.68	474.30
436.05	482.42
436.42	490.42
436.79	497.92
437.16	505.99
437.53	514.49
437.90	522.88
438.27	531.31
438.64	539.91
439.01	548.05
439.38	555.01
439.75	561.89
440.13	569.59
440.50	576.95
440.87	582.80
441.24	589.04
441.61	595.66
441.98	600.60
442.35	606.14
442.72	611.95
443.09	617.46
443.46	620.90
443.83	623.24
444.20	625.13
444.57	627.69
444.94	628.81
445.31	629.89
445.68	631.33
446.05	631.36
446.42	630.21
446.79	628.75
447.16	627.21
447.53	625.96
447.90	622.53
448.27	618.96
448.64	614.25
449.01	610.76
449.37	604.89
449.74	599.05
450.11	592.57
450.48	585.00
450.85	577.54
451.22	570.72
451.59	564.39
451.96	558.34
452.33	550.62
452.70	543.42
453.07	535.11
453.43	526.21
453.80	518.20
454.17	510.42
454.54	503.09
454.91	495.13
455.28	487.42
455.65	480.15
456.02	473.54
456.38	467.41
456.75	459.90
457.12	453.64
457.49	447.63
457.86	441.34
458.23	436.37
458.59	430.77
458.96	425.20
459.33	420.21
459.70	415.40
460.07	411.35
460.43	406.87
460.80	402.81
461.17	399.32
461.54	395.35
461.91	391.72
462.27	387.97
462.64	384.86
463.01	381.40
463.38	378.28
463.74	374.40
464.11	371.49
464.48	368.89
464.85	366.18
465.21	364.03
465.58	361.86
465.95	359.12
466.32	356.82
466.68	354.69
467.05	352.51
467.42	350.25
467.78	348.06
468.15	345.91
468.52	344.33
468.88	342.10
469.25	340.31
469.62	338.84
469.98	337.08
470.35	335.55
470.72	334.13
471.08	332.42
471.45	331.30
471.82	330.11
472.18	328.74
472.55	327.75
472.92	326.59
473.28	325.47
473.65	324.52
474.02	323.71
474.38	322.84
474.75	322.12
475.11	321.43
475.48	320.82
475.85	320.29
476.21	319.61
476.58	319.26
476.94	318.92
477.31	318.41
477.67	318.06
478.04	317.74
478.41	317.56
478.77	317.83
479.14	317.41
479.50	317.29
479.87	317.36
480.23	317.31
480.60	317.18
480.96	317.26
481.33	317.61
481.69	317.73
482.06	317.97
482.42	318.22
482.79	318.61
483.15	318.96
483.52	319.53
483.88	319.95
484.25	320.43
484.61	321.05
484.98	321.79
485.34	322.83
485.71	323.92
486.07	324.89
486.44	325.46
486.80	326.62
487.17	327.68
487.53	329.00
487.90	330.42
488.26	332.08
488.62	333.76
488.99	335.19
489.35	337.01
489.72	338.94
490.08	340.89
490.44	342.81
490.81	344.95
491.17	347.15
491.54	349.63
491.90	352.16
492.26	354.79
492.63	357.55
492.99	360.35
493.36	363.30
493.72	366.52
494.08	370.02
494.45	373.62
494.81	377.59
495.17	381.40
495.54	385.53
495.90	389.77
496.26	394.11
496.63	398.80
496.99	403.38
497.35	408.26
497.72	413.42
498.08	418.78
498.44	424.44
498.80	430.38
499.17	436.35
499.53	442.49
499.89	449.14
500.26	455.74
500.62	462.60
500.98	469.80
501.34	477.15
501.71	484.82
502.07	492.56
502.43	500.58
502.79	508.78
503.16	517.30
503.52	526.13
503.88	535.14
504.24	544.58
504.60	554.49
504.97	564.73
505.33	574.97
505.69	585.89
506.05	596.65
506.41	607.64
506.78	619.12
507.14	630.87
507.50	642.79
507.86	655.14
508.22	667.80
508.59	680.66
508.95	694.04
509.31	707.79
509.67	721.83
510.03	735.65
510.39	750.02
510.75	764.70
511.12	779.65
511.48	795.08
511.84	810.61
512.20	826.19
512.56	842.01
512.92	858.55
513.28	874.95
513.64	891.71
514.00	908.86
514.37	926.09
514.73	943.70
515.09	961.55
515.45	979.50
515.81	997.50
516.17	1015.76
516.53	1033.98
516.89	1052.19
517.25	1070.90
517.61	1090.67
517.97	1110.62
518.33	1130.16
518.69	1149.87
519.05	1169.68
519.41	1189.52
519.77	1209.82
520.13	1230.10
520.49	1250.13
520.85	1270.40
521.21	1290.94
521.57	1311.49
521.93	1331.85
522.29	1352.71
522.65	1372.71
523.01	1392.82
523.37	1412.72
523.73	1433.04
524.09	1452.90
524.45	1472.94
524.81	1493.18
525.17	1513.03
525.53	1532.62
525.89	1552.79
526.25	1572.62
526.61	1592.35
526.97	1612.71
527.33	1633.18
527.68	1654.15
528.04	1674.64
528.40	1694.73
528.76	1714.95
529.12	1734.53
529.48	1754.25
529.84	1773.34
530.20	1793.49
530.56	1813.40
530.91	1833.37
531.27	1852.61
531.63	1872.18
531.99	1891.78
532.35	1910.76
532.71	1929.95
533.07	1949.79
533.42	1968.63
533.78	1987.66
534.14	2006.35
534.50	2024.31
534.86	2042.43
535.21	2058.59
535.57	2075.89
535.93	2092.68
536.29	2109.66
536.65	2127.15
537.00	2144.01
537.36	2160.36
537.72	2175.76
538.08	2191.80
538.44	2207.46
538.79	2223.09
539.15	2238.49
539.51	2253.42
539.87	2267.59
540.22	2280.81
540.58	2294.27
540.94	2306.30
541.29	2317.95
541.65	2329.75
542.01	2341.25
542.37	2350.87
542.72	2361.32
543.08	2371.15
543.44	2381.87
543.79	2390.72
544.15	2399.34
544.51	2408.42
544.87	2417.36
545.22	2425.42
545.58	2432.56
545.94	2438.86
546.29	2444.71
546.65	2450.16
547.01	2454.97
547.36	2459.72
547.72	2464.39
548.07	2467.20
548.43	2471.77
548.79	2475.70
549.14	2478.97
549.50	2481.93
549.86	2485.03
550.21	2488.01
550.57	2490.67
550.92	2491.28
551.28	2491.79
551.64	2493.67
551.99	2494.80
552.35	2495.34
552.70	2496.85
553.06	2497.53
553.41	2498.24
553.77	2499.01
554.13	2499.95
554.48	2500.57
554.84	2501.48
555.19	2501.89
555.55	2503.16
555.90	2501.87
556.26	2500.37
556.61	2498.29
556.97	2495.75
557.32	2494.85
557.68	2493.00
558.03	2490.77
558.39	2489.23
558.74	2487.97
559.10	2484.07
559.45	2479.93
559.81	2475.27
560.16	2469.43
560.52	2464.70
560.87	2460.17
561.23	2454.34
561.58	2448.55
561.94	2441.76
562.29	2434.23
562.64	2426.88
563.00	2418.76
563.35	2412.15
563.71	2405.64
564.06	2399.52
564.42	2392.72
564.77	2385.71
565.12	2378.15
565.48	2370.90
565.83	2362.64
566.19	2354.52
566.54	2346.45
566.89	2338.53
567.25	2330.64
567.60	2323.40
567.96	2315.94
568.31	2307.90
568.66	2299.73
569.02	2290.84
569.37	2282.87
569.72	2275.39
570.08	2266.64
570.43	2257.09
570.78	2248.49
571.14	2239.32
571.49	2229.19
571.84	2220.34
572.20	2209.60
572.55	2199.53
572.90	2188.59
573.26	2178.66
573.61	2167.94
573.96	2157.19
574.31	2145.49
574.67	2134.43
575.02	2122.40
575.37	2109.75
575.72	2097.03
576.08	2085.40
576.43	2073.24
576.78	2060.64
577.13	2047.41
577.49	2035.15
577.84	2023.78
578.19	2011.83
578.54	1999.64
578.90	1987.90
579.25	1975.90
579.60	1963.92
579.95	1951.95
580.30	1939.37
580.66	1926.43
581.01	1913.72
581.36	1900.43
581.71	1888.36
582.06	1876.06
582.42	1864.06
582.77	1852.21
583.12	1840.91
583.47	1828.99
583.82	1817.13
584.17	1805.41
584.53	1794.02
584.88	1781.66
585.23	1768.88
585.58	1755.43
585.93	1742.60
586.28	1730.12
586.63	1716.95
586.98	1703.51
587.34	1690.70
587.69	1678.03
588.04	1666.28
588.39	1654.78
588.74	1643.14
589.09	1632.09
589.44	1620.03
589.79	1608.45
590.14	1596.89
590.49	1585.35
590.84	1573.96
591.19	1562.88
591.54	1551.36
591.89	1540.05
592.25	1530.53
592.60	1519.67
592.95	1508.91
593.30	1497.73
593.65	1486.56
594.00	1475.32
594.35	1466.16
594.70	1455.12
595.05	1444.53
595.40	1433.00
595.75	1421.72
596.10	1411.36
596.45	1400.04
596.80	1389.68
597.15	1379.09
597.50	1368.22
597.85	1357.50
598.19	1346.50
598.54	1335.23
598.89	1324.58
599.24	1314.47
599.59	1303.17
599.94	1293.03
600.29	1283.48
600.64	1273.87
600.99	1263.89
601.34	1254.59
601.69	1243.93
602.04	1234.51
602.39	1225.44
602.74	1216.81
603.08	1207.93
603.43	1199.11
603.78	1189.94
604.13	1180.92
604.48	1171.68
604.83	1162.46
605.18	1153.15
605.53	1144.15
605.87	1135.92
606.22	1127.87
606.57	1119.32
606.92	1110.56
607.27	1102.17
607.62	1093.81
607.96	1085.87
608.31	1078.20
608.66	1070.34
609.01	1062.40
609.36	1054.58
609.70	1046.44
610.05	1038.27
610.40	1030.38
610.75	1022.26
611.10	1014.65
611.44	1006.60
611.79	999.14
612.14	991.70
612.49	984.39
612.83	977.46
613.18	970.05
613.53	962.74
613.88	955.23
614.22	947.98
614.57	940.69
614.92	933.17
615.27	926.04
615.61	918.84
615.96	911.76
616.31	904.64
616.65	897.87
617.00	891.03
617.35	884.24
617.70	877.40
618.04	870.65
618.39	864.12
618.74	858.21
619.08	851.61
619.43	845.11
619.78	838.45
620.12	831.69
620.47	825.25
620.82	818.53
621.16	812.12
621.51	806.22
621.85	800.24
622.20	793.88
622.55	787.64
622.89	781.57
623.24	775.64
623.59	769.69
623.93	763.95
624.28	758.26
624.62	753.13
624.97	747.72
625.32	742.49
625.66	736.85
626.01	730.90
626.35	725.73
626.70	720.64
627.04	715.75
627.39	710.68
627.73	705.67
628.08	700.96
628.43	695.86
628.77	690.81
629.12	685.83
629.46	681.60
629.81	677.16
630.15	672.58
630.50	667.87
630.84	663.31
631.19	658.56
631.53	654.26
631.88	649.25
632.22	644.72
632.57	640.49
632.91	636.15
633.26	632.20
633.60	627.87
633.95	623.43
634.29	618.80
634.64	614.54
634.98	610.09
635.32	605.87
635.67	602.03
636.01	598.16
636.36	594.12
636.70	590.31
637.05	586.23
637.39	582.42
637.73	578.60
638.08	574.97
638.42	571.03
638.77	566.95
639.11	562.91
639.45	558.85
639.80	554.49
640.14	550.68
640.49	546.77
640.83	543.11
641.17	539.76
641.52	536.34
641.86	532.99
642.20	530.08
642.55	526.71
642.89	523.31
643.23	519.90
643.58	516.89
643.92	513.31
644.26	510.12
644.61	507.12
644.95	503.98
645.29	500.83
645.64	498.00
645.98	495.07
646.32	492.40
646.66	489.63
647.01	486.89
647.35	484.43
647.69	481.70
648.04	479.09
648.38	476.29
648.72	473.64
649.06	470.85
649.41	467.91
649.75	465.14
650.09	462.48
650.43	459.79
650.78	456.96
651.12	454.36
651.46	451.73
651.80	449.05
652.14	446.55
652.49	444.12
652.83	441.66
653.17	439.27
653.51	436.66
653.85	434.32
654.20	432.11
654.54	429.45
654.88	427.07
655.22	424.95
655.56	422.67
655.90	420.43
656.25	418.28
656.59	416.14
656.93	414.04
657.27	412.05
657.61	409.89
657.95	407.86
658.29	405.82
658.64	403.98
658.98	401.84
659.32	399.75
659.66	397.77
660.00	395.81
660.34	393.91
660.68	392.08
661.02	390.12
661.36	388.27
661.70	386.44
662.05	384.60
662.39	382.67
662.73	381.06
663.07	379.55
663.41	377.83
663.75	376.00
664.09	374.30
664.43	372.50
664.77	370.88
665.11	369.30
665.45	367.69
665.79	366.01
666.13	364.41
666.47	362.79
666.81	361.23
667.15	359.56
667.49	358.07
667.83	356.72
668.17	355.35
668.51	353.96
668.85	352.73
669.19	351.62
669.53	350.24
669.87	348.72
670.21	347.18
670.55	345.88
670.89	344.86
671.23	343.58
671.57	342.25
671.91	340.97
672.25	339.69
672.58	338.60
672.92	337.35
673.26	336.22
673.60	335.10
673.94	333.91
674.28	332.84
674.62	331.79
674.96	330.57
675.30	329.46
675.64	328.33
675.97	327.09
676.31	325.86
676.65	324.65
676.99	323.75
677.33	322.67
677.67	321.55
678.01	320.33
678.34	319.35
678.68	318.47
679.02	317.55
679.36	316.61
679.70	315.54
680.04	314.62
680.37	313.72
680.71	312.82
681.05	312.03
681.39	311.25
681.73	310.29
682.06	309.54
682.40	308.72
682.74	308.02
683.08	307.34
683.42	306.54
683.75	305.73
684.09	304.83
684.43	304.16
684.77	303.34
685.10	302.62
685.44	301.79
685.78	301.02
686.12	300.29
686.45	299.44
686.79	298.74
687.13	298.05
687.46	297.33
687.80	296.68
688.14	295.80
688.48	295.11
688.81	294.35
689.15	293.66
689.49	292.96
689.82	292.24
690.16	291.43
690.50	290.70
690.83	290.12
691.17	289.33
691.51	288.64
691.84	288.18
692.18	287.50
692.52	286.87
692.85	286.28
693.19	285.89
693.52	285.30
693.86	284.64
694.20	284.04
694.53	283.51
694.87	282.93
695.21	282.33
695.54	281.76
695.88	281.13
696.21	280.47
696.55	279.86
696.88	279.21
697.22	278.65
697.56	278.12
697.89	277.53
698.23	277.15
698.56	276.57
698.90	276.13
699.23	275.51
699.57	275.03
699.90	274.45
700.24	273.69
700.58	273.33
700.91	272.94
701.25	272.83
701.58	272.65
701.92	272.27
702.25	271.85
702.59	271.38
702.92	271.00
703.26	270.57
703.59	270.20
703.93	270.25
704.26	269.94
704.60	269.57
704.93	269.15
705.26	268.65
705.60	268.28
705.93	267.62
706.27	267.42
706.60	267.20
706.94	267.06
707.27	266.73
707.61	266.35
707.94	265.92
708.27	265.14
708.61	264.35
708.94	263.90
709.28	263.55
709.61	263.10
709.94	262.79
710.28	262.40
710.61	262.04
710.95	261.21
711.28	261.04
711.61	260.68
711.95	260.47
712.28	260.09
712.61	259.78
712.95	259.78
713.28	259.61
713.61	259.20
713.95	258.70
714.28	258.39
714.61	258.02
714.95	257.73
715.28	257.40
715.61	257.20
715.95	256.92
716.28	256.58
716.61	256.36
716.95	256.04
717.28	255.81
717.61	255.53
717.94	255.20
718.28	254.61
718.61	254.29
718.94	253.93
719.27	253.63
719.61	253.43
719.94	252.95
720.27	252.48
720.60	252.21
720.94	251.95
721.27	251.67
721.60	251.58
721.93	251.33
722.27	251.31
722.60	251.05
722.93	250.76
723.26	250.58
723.59	250.34
723.93	250.18
724.26	250.08
724.59	249.81
724.92	249.68
725.25	249.62
725.59	249.48
725.92	249.37
726.25	249.21
726.58	249.03
726.91	248.97
727.24	248.89
727.57	248.61
727.91	248.39
728.24	248.26
728.57	247.92
728.90	247.76
729.23	247.40
729.56	247.48
729.89	247.29
730.22	247.10
730.55	246.91
730.89	246.73
731.22	246.46
731.55	246.30
731.88	246.13
732.21	245.92
732.54	245.68
732.87	245.47
733.20	245.36
733.53	245.15
733.86	245.01
734.19	244.70
734.52	244.66
734.85	244.80
735.18	244.57
735.51	244.63
735.84	244.55
736.17	244.54
736.50	244.15
736.83	244.57
737.16	244.41
737.49	244.25
737.82	244.04
738.15	243.95
738.48	243.85
738.81	243.67
739.14	243.45
739.47	243.25
739.80	243.11
740.13	242.98
740.46	242.78
740.79	242.55
741.12	242.38
741.45	242.15
741.78	241.77
742.11	241.76
742.44	241.45
742.77	241.33
743.10	241.11
743.43	240.95
743.75	240.29
744.08	240.80
744.41	240.68
744.74	240.50
745.07	240.24
745.40	240.24
745.73	240.31
746.06	240.19
746.39	240.14
746.71	239.99
747.04	239.80
747.37	239.69
747.70	239.61
748.03	239.59
748.36	239.56
748.68	239.45
749.01	239.22
749.34	239.17
749.67	239.08
750.00	238.99
750.33	239.22
750.65	239.23
750.98	238.55
751.31	238.44
751.64	238.36
751.97	238.56
752.29	238.32
752.62	237.90
752.95	237.82
753.28	237.60
753.60	237.44
753.93	237.53
754.26	237.48
754.59	237.21
754.91	237.03
755.24	236.86
755.57	236.79
755.90	236.62
756.22	236.50
756.55	236.34
756.88	236.15
757.20	235.71
757.53	235.38
757.86	235.22
758.19	235.18
758.51	235.06
758.84	234.76
759.17	234.68
759.49	234.74
759.82	234.83
760.15	234.91
760.47	234.89
760.80	234.66
761.13	234.68
761.45	234.70
761.78	234.63
762.11	234.60
762.43	234.44
762.76	234.42
763.08	234.38
763.41	234.35
763.74	234.30
764.06	234.25
764.39	234.26
764.71	234.21
765.04	234.12
765.37	234.04
765.69	233.91
766.02	233.77
766.34	233.63
766.67	233.42
767.00	233.39
767.32	233.57
767.65	233.81
767.97	233.69
768.30	233.56
768.62	233.60
768.95	233.44
769.27	233.42
769.60	233.45
769.92	233.36
770.25	233.21
770.57	233.11
770.90	233.06
771.22	232.93
771.55	232.89
771.87	232.88
772.20	232.76
772.52	233.14
772.85	233.75
773.17	233.66
773.50	233.59
773.82	233.55
774.15	233.25
774.47	232.90
774.80	232.75
775.12	232.72
775.45	232.58
775.77	232.65
776.09	232.63
776.42	232.62
776.74	232.60
777.07	232.50
777.39	232.55
777.72	232.47
778.04	232.55
778.36	232.44
778.69	232.31
779.01	232.32
779.33	231.84
779.66	231.22
779.98	231.21
780.31	231.15
780.63	231.26
780.95	231.29
781.28	231.27
781.60	231.22
781.92	231.18
782.25	231.17
782.57	231.06
782.89	230.98
783.22	230.82
783.54	230.78
783.86	230.80
784.19	230.70
784.51	230.84
784.83	230.75
785.16	230.67
785.48	230.65
785.80	230.65
786.12	230.67
786.45	230.66
786.77	230.65
787.09	230.62
787.42	230.40
787.74	230.37
788.06	230.36
788.38	230.30
788.71	230.16
789.03	230.12
789.35	230.17
789.67	230.03
789.99	230.06
790.32	229.94
790.64	230.00
790.96	230.36
791.28	230.17
791.61	230.14
791.93	230.20
792.25	230.09
792.57	230.44
792.89	230.30
793.21	230.28
793.54	230.21
793.86	230.08
794.18	230.05
794.50	229.92
794.82	229.87
795.14	229.91
795.47	230.00
795.79	230.01
796.11	229.83
796.43	229.80
796.75	229.79
797.07	229.84
797.39	229.66
797.71	229.23
798.04	229.18
798.36	229.14
798.68	229.10
799.00	229.24
799.32	228.91
799.64	229.04
799.96	229.00
800.28	229.06
800.60	229.01
800.92	228.97
801.24	228.96
801.56	228.93
801.89	228.93
802.21	228.91
802.53	228.71
802.85	228.84
803.17	229.05
803.49	228.89
803.81	228.80
804.13	228.77
804.45	228.68
804.77	228.74
805.09	228.73
805.41	228.63
805.73	228.44
806.05	228.35
806.37	228.26
806.69	228.20
807.01	228.17
807.33	228.25
807.65	228.09
807.97	228.30
808.28	228.29
808.60	228.23
808.92	228.20
809.24	228.55
809.56	228.43
809.88	228.23
810.20	228.24
810.52	228.30
810.84	228.25
811.16	228.27
811.48	228.19
811.80	228.32
812.12	228.38
812.43	228.50
812.75	228.56
813.07	228.56
813.39	228.53
813.71	228.47
814.03	228.43
814.35	228.50
814.67	228.29
814.98	228.21
815.30	228.15
815.62	228.06
815.94	227.66
816.26	227.92
816.58	227.87
816.89	227.93
817.21	227.84
817.53	227.95
817.85	227.92
818.17	227.89
818.48	227.68
818.80	227.75
819.12	227.68
819.44	227.57
819.76	227.42
820.07	227.46
820.39	227.38
820.71	227.34
821.03	227.32
821.34	227.20
821.66	227.30
821.98	227.32
822.30	227.39
822.61	227.75
822.93	227.48
823.25	227.40
823.57	227.44
823.88	227.52
824.20	227.41
824.52	227.52
824.83	227.50
825.15	227.49
825.47	227.45
825.79	227.50
826.10	227.44
826.42	227.44
826.74	227.48
827.05	227.47
827.37	227.56
827.69	227.58
828.00	227.63
828.32	227.63
828.64	227.61
828.95	227.80
829.27	227.62
829.58	227.63
829.90	227.75
830.22	227.70
830.53	227.53
830.85	227.50
831.17	227.39
831.48	227.43
831.80	227.39
832.11	227.32
832.43	227.20
832.75	227.22
833.06	227.55
833.38	227.41
833.69	227.40
834.01	227.36
834.32	227.32
834.64	227.32
834.96	227.30
835.27	227.34
835.59	227.17
835.90	227.10
836.22	227.12
836.53	227.02
836.85	226.97
837.16	227.53
837.48	227.56
837.79	227.70
838.11	227.59
838.42	227.64
838.74	227.75
839.05	227.74
839.37	227.75
839.68	227.40
840.00	227.39
840.31	227.44
840.63	227.41
840.94	227.37
841.26	227.28
841.57	227.19
841.88	227.18
842.20	227.14
842.51	227.08
842.83	227.05
843.14	227.45
843.46	227.42
843.77	227.04
844.08	226.98
844.40	226.85
844.71	226.85
845.03	226.76
845.34	226.63
845.65	226.62
845.97	226.59
846.28	226.64
846.60	226.67
846.91	226.60
847.22	226.53
847.54	226.58
847.85	226.66
848.16	226.66
848.48	226.53
848.79	226.62
849.10	226.69
849.42	226.76
849.73	226.32
850.04	226.34
850.36	226.21
850.67	226.40
850.98	226.35
851.30	226.44
851.61	226.46
851.92	226.50
852.23	226.62
852.55	226.60
852.86	226.59
853.17	226.67
853.49	226.79
853.80	226.94
854.11	226.97
854.42	227.00
854.74	226.92
855.05	226.99
855.36	226.81
855.67	226.81
855.99	226.76
856.30	227.36
856.61	227.28
856.92	227.32
857.23	227.25
857.55	227.20
857.86	227.13
858.17	227.14
858.48	227.05
858.79	226.90
859.11	227.00
859.42	227.01
859.73	226.90
860.04	226.91
860.35	226.80
860.66	226.71
860.98	226.65
861.29	226.69
861.60	226.72
861.91	226.80
862.22	226.75
862.53	226.70
862.84	226.05
863.16	226.28
863.47	226.16
863.78	226.14
864.09	226.20
864.40	226.18
864.71	226.29
865.02	226.32
865.33	226.33
865.64	226.27
865.95	226.24
866.27	226.58
866.58	226.45
866.89	226.53
867.20	226.47
867.51	226.43
867.82	226.40
868.13	226.46
868.44	226.37
868.75	226.42
869.06	226.33
869.37	226.41
869.68	226.20
869.99	226.29
870.30	226.29
870.61	226.37
870.92	226.39
871.23	226.32
871.54	226.45
871.85	226.57
872.16	226.60
872.47	226.54
872.78	226.31
873.09	226.40
873.40	226.39
873.71	226.45
874.02	226.49
874.33	226.45
874.64	226.45
874.95	226.53
875.26	226.44
875.56	226.51
875.87	226.52
876.18	226.60
876.49	227.08
876.80	227.06
877.11	226.98
877.42	226.98
877.73	226.94
878.04	226.74
878.35	226.71
878.66	226.75
878.96	226.72
879.27	226.63
879.58	226.61
879.89	226.54
880.20	226.71
880.51	226.70
880.82	226.71
881.12	226.75
881.43	226.71
881.74	226.73
882.05	226.69
882.36	226.70
882.67	226.67
882.97	226.12
883.28	226.09
883.59	226.03
883.90	226.08
884.21	226.13
884.51	226.16
884.82	226.11
885.13	226.10
885.44	226.11
885.74	226.12
886.05	226.10
886.36	226.12
886.67	225.92
886.98	226.17
887.28	226.26
887.59	226.15
887.90	226.10
888.20	226.09
888.51	226.21
888.82	226.14
889.13	226.24
889.43	226.63
889.74	226.58
890.05	226.52
890.35	226.45
890.66	226.38
890.97	226.36
891.28	226.25
891.58	226.23
891.89	226.22
892.20	226.17
892.50	226.14
892.81	226.01
893.12	225.99
893.42	225.75
893.73	225.70
894.04	225.72
894.34	225.75
894.65	225.66
894.95	225.51
895.26	225.47
895.57	225.57
895.87	225.09
896.18	225.21
896.48	225.31
896.79	225.28
897.10	225.36
897.40	225.40
897.71	225.51
898.01	225.48
898.32	225.50
898.63	225.45
898.93	225.48
899.24	225.56
899.54	225.51
899.85	225.45
900.15	225.45
900.46	225.43
900.76	225.51
901.07	225.52
901.38	225.62
901.68	225.72
901.99	225.47
902.29	225.58
902.60	225.57
902.90	225.58
903.21	225.68
903.51	225.65
903.82	225.72
904.12	225.66
904.43	225.69
904.73	225.74
905.03	225.78
905.34	226.25
905.64	226.21
905.95	226.20
906.25	226.21
906.56	226.17
906.86	226.21
907.17	226.11
907.47	226.20
907.77	226.12
908.08	226.01
908.38	226.11
908.69	226.14
908.99	226.24
909.30	226.23
909.60	226.16
909.90	226.24
910.21	226.17
910.51	226.18
910.81	226.24
911.12	226.30
911.42	226.33
911.73	225.80
912.03	225.86
912.33	226.04
912.64	226.07
912.94	226.04
913.24	226.01
913.55	226.04
913.85	226.04
914.15	226.12
914.46	226.21
914.76	226.15
915.06	226.08
915.37	225.92
915.67	225.88
915.97	225.92
916.27	225.82
916.58	225.85
916.88	225.73
917.18	225.67
917.49	225.97
917.79	225.97
918.09	226.02
918.39	226.16
918.70	226.05
919.00	226.01
919.30	226.23
919.60	226.14
919.91	226.05
920.21	226.05
920.51	225.91
920.81	225.89
921.12	225.99
921.42	226.01
921.72	226.03
922.02	226.00
922.32	226.04
922.63	225.97
922.93	226.19
923.23	226.33
923.53	226.26
923.83	225.88
924.13	225.88
924.44	225.91
924.74	225.91
925.04	226.11
925.34	226.19
925.64	226.08
925.94	226.11
926.24	226.39
926.55	226.35
926.85	226.41
927.15	226.44
927.45	226.42
927.75	226.39
928.05	226.36
928.35	226.29
928.65	226.37
928.95	226.46
929.26	226.28
929.56	226.25
929.86	226.37
930.16	226.29
930.46	226.38
930.76	226.39
931.06	226.20
931.36	226.03
931.66	226.04
931.96	226.01
932.26	226.01
932.56	225.82
932.86	225.81
933.16	225.79
933.46	225.77
933.76	225.67
934.06	225.79
934.36	225.95
934.66	226.02
934.96	225.90
935.26	225.93
935.56	225.89
935.86	225.76
936.16	225.54
936.46	225.54
936.76	225.42
937.06	225.31
937.36	225.40
937.66	225.38
937.96	225.35
938.26	225.25
938.56	225.23
938.86	225.23
939.16	225.33
939.46	225.42
939.76	225.36
940.06	225.40
940.35	225.33
940.65	225.15
940.95	225.17
941.25	225.10
941.55	225.02
941.85	225.07
942.15	225.26
942.45	225.49
942.75	225.52
943.04	225.54
943.34	225.69
943.64	225.58
943.94	225.52
944.24	225.50
944.54	225.58
944.84	225.59
945.13	225.55
945.43	225.45
945.73	225.41
946.03	225.38
946.33	225.39
946.62	225.36
946.92	225.40
947.22	225.44
947.52	225.57
947.82	225.63
948.11	225.59
948.41	225.50
948.71	225.35
949.01	225.39
949.31	225.41
949.60	225.25
949.90	225.38
950.20	225.40
950.50	225.40
950.79	225.42
951.09	225.49
951.39	225.45
951.69	225.45
951.98	225.59
952.28	225.72
952.58	225.67
952.87	225.72
953.17	225.77
953.47	225.71
953.76	225.62
954.06	225.58
954.36	225.54
954.66	225.52
954.95	225.71
955.25	225.81
955.55	225.87
955.84	225.94
956.14	225.97
956.44	226.02
956.73	226.01
957.03	226.04
957.32	226.09
957.62	226.08
957.92	226.20
958.21	226.08
958.51	226.60
958.81	226.76
959.10	226.75
959.40	226.85
959.69	226.91
959.99	227.00
960.29	227.05
960.58	227.02
960.88	227.26
961.17	227.25
961.47	227.27
961.76	227.18
962.06	227.32
962.36	227.31
962.65	227.33
962.95	227.32
963.24	227.24
963.54	227.23
963.83	227.36
964.13	227.33
964.42	227.26
964.72	226.85
965.01	226.79
965.31	226.75
965.60	226.60
965.90	226.93
966.19	226.81
966.49	226.79
966.78	226.81
967.08	226.74
967.37	226.65
967.67	226.48
967.96	226.54
968.26	226.46
968.55	226.47
968.85	226.45
969.14	226.44
969.43	226.40
969.73	226.38
970.02	226.24
970.32	226.20
970.61	226.16
970.91	225.96
971.20	225.90
971.49	225.88
971.79	225.93
972.08	225.55
972.38	225.59
972.67	225.49
972.96	225.55
973.26	225.41
973.55	225.54
973.85	225.56
974.14	225.56
974.43	225.55
974.73	225.45
975.02	225.35
975.31	225.29
975.61	225.26
975.90	225.09
976.19	225.10
976.49	225.12
976.78	225.15
977.07	225.18
977.37	225.20
977.66	225.25
977.95	225.16
978.24	225.17
978.54	225.20
978.83	225.20
979.12	225.17
979.42	225.20
979.71	225.09
980.00	225.07
980.29	225.15
980.59	225.05
980.88	225.20
981.17	225.20
981.46	225.22
981.76	225.31
982.05	225.52
982.34	225.53
982.63	225.46
982.93	225.41
983.22	225.51
983.51	225.49
983.80	225.48
984.09	225.45
984.39	225.44
984.68	225.39
984.97	225.50
985.26	225.49
985.55	225.55
985.85	225.51
986.14	225.56
986.43	225.46
986.72	225.37
987.01	225.20
987.30	225.18
987.59	225.22
987.89	225.24
988.18	225.14
988.47	225.17
988.76	225.19
989.05	225.19
989.34	225.12
989.63	225.25
989.92	225.22
990.22	225.26
990.51	225.29
990.80	225.29
991.09	225.27
991.38	225.31
991.67	225.26
991.96	225.17
992.25	225.20
992.54	225.18
992.83	225.22
993.12	225.25
993.41	225.33
993.70	225.51
993.99	225.54
994.28	225.61
994.58	225.75
994.87	225.76
995.16	225.80
995.45	225.80
995.74	225.64
996.03	225.68
996.32	225.79
996.61	225.84
996.90	225.83
997.19	225.80
997.48	225.75
997.77	225.69
998.06	225.80
998.34	225.79
998.63	225.75
998.92	225.85
999.21	225.90
999.50	225.96
999.79	225.81
1000.08	225.83
1000.37	225.85
1000.66	225.75
1000.95	225.89
1001.24	225.92
1001.53	225.98
1001.82	225.99
1002.11	225.92
1002.40	225.84
1002.68	225.95
1002.97	226.35
1003.26	226.31
1003.55	226.31
1003.84	226.33
1004.13	226.45
1004.42	226.44
1004.71	226.47
1004.99	226.47
1005.28	226.67
1005.57	226.60
1005.86	226.59
1006.15	226.50
1006.44	226.40
1006.72	226.41
1007.01	226.20
1007.30	226.25
1007.59	226.20
1007.88	226.21
1008.17	226.25
1008.45	226.27
1008.74	226.10
1009.03	225.83
1009.32	225.80
1009.60	225.78
1009.89	225.69
1010.18	225.49
1010.47	225.46
1010.76	225.39
1011.04	225.36
1011.33	225.22
1011.62	225.22
1011.91	225.21
1012.19	225.24
1012.48	225.25
1012.77	225.23
1013.05	225.53
1013.34	225.48
1013.63	225.43
1013.92	225.44
1014.20	225.40
1014.49	225.41
1014.78	225.43
1015.06	225.25
1015.35	225.31
1015.64	225.34
1015.92	225.48
1016.21	225.49
1016.50	225.44
1016.78	225.58
1017.07	225.55
1017.36	225.46
1017.64	225.44
1017.93	225.45
1018.22	225.38
1018.50	225.38
1018.79	225.35
1019.08	225.09
1019.36	225.11
1019.65	225.13
1019.93	225.25
1020.22	225.30
1020.51	225.50
1020.79	225.45
1021.08	224.05
1021.36	224.90
1021.65	225.45
1021.94	224.55
1022.22	225.60
1022.51	225.30
1022.79	227.60
1023.08	225.85
1023.36	230.75
1023.65	224.20
>>>>>End Processed Spectral Data<<<<<
