SpectraSuite Data File
++++++++++++++++++++++++++++++++++++
Date: Wed Sep 04 17:47:45 EDT 2013
User: lab3
Dark Spectrum Present: Yes
Reference Spectrum Present: No
Number of Sampled Component Spectra: 1
Spectrometers: USB2E7196
Integration Time (usec): 170000 (USB2E7196)
Spectra Averaged: 20 (USB2E7196)
Boxcar Smoothing: 10 (USB2E7196)
Correct for Electrical Dark: No (USB2E7196)
Strobe/Lamp Enabled: No (USB2E7196)
Correct for Detector Non-linearity: No (USB2E7196)
Correct for Stray Light: No (USB2E7196)
Number of Pixels in Processed Spectrum: 2048
>>>>>Begin Processed Spectral Data<<<<<
339.09	0.00
339.48	212.45
339.86	215.10
340.24	215.15
340.63	217.95
341.01	224.90
341.39	220.20
341.78	223.25
342.16	222.75
342.54	223.00
342.93	212.03
343.31	222.72
343.69	223.28
344.07	223.72
344.46	224.22
344.84	224.56
345.22	224.56
345.60	224.80
345.99	224.89
346.37	225.07
346.75	225.23
347.13	225.37
347.52	225.46
347.90	225.71
348.28	225.71
348.66	225.85
349.05	225.64
349.43	225.76
349.81	225.82
350.19	225.81
350.57	225.87
350.96	225.95
351.34	226.02
351.72	226.15
352.10	226.24
352.48	226.26
352.87	226.31
353.25	226.37
353.63	226.41
354.01	226.43
354.39	226.48
354.77	226.46
355.15	226.64
355.54	226.57
355.92	226.42
356.30	226.52
356.68	226.84
357.06	227.03
357.44	227.02
357.82	227.09
358.20	227.60
358.58	227.72
358.97	227.87
359.35	228.04
359.73	228.10
360.11	228.13
360.49	228.16
360.87	228.20
361.25	228.33
361.63	228.53
362.01	228.64
362.39	228.69
362.77	228.87
363.15	228.87
363.53	228.95
363.91	229.00
364.29	229.02
364.67	228.66
365.05	228.68
365.43	228.82
365.81	228.90
366.19	228.73
366.57	228.94
366.95	228.91
367.33	228.78
367.71	228.80
368.09	228.88
368.47	228.94
368.85	228.92
369.23	228.95
369.61	228.78
369.99	229.00
370.37	229.05
370.75	229.18
371.13	229.06
371.51	228.98
371.89	229.00
372.27	229.00
372.65	229.09
373.03	229.07
373.41	228.93
373.78	228.90
374.16	228.67
374.54	228.44
374.92	228.34
375.30	228.36
375.68	228.18
376.06	228.17
376.44	228.12
376.82	228.16
377.19	228.09
377.57	228.05
377.95	227.75
378.33	227.65
378.71	227.34
379.09	227.38
379.47	227.30
379.84	227.20
380.22	227.09
380.60	226.85
380.98	226.72
381.36	226.63
381.73	226.51
382.11	226.46
382.49	226.43
382.87	226.40
383.25	226.31
383.62	226.89
384.00	226.67
384.38	226.64
384.76	226.65
385.13	226.70
385.51	226.63
385.89	226.54
386.27	226.47
386.64	226.48
387.02	226.28
387.40	226.25
387.78	226.17
388.15	226.18
388.53	226.09
388.91	226.09
389.29	226.09
389.66	226.10
390.04	226.07
390.42	226.10
390.79	226.04
391.17	226.01
391.55	225.42
391.92	225.48
392.30	225.46
392.68	225.34
393.05	225.40
393.43	225.41
393.81	225.47
394.18	225.36
394.56	225.41
394.94	225.63
395.31	225.65
395.69	225.85
396.06	225.91
396.44	226.01
396.82	226.05
397.19	226.28
397.57	226.30
397.95	226.44
398.32	226.34
398.70	226.45
399.07	226.62
399.45	226.66
399.82	226.66
400.20	226.73
400.58	226.84
400.95	226.69
401.33	226.94
401.70	227.39
402.08	227.65
402.45	227.69
402.83	227.87
403.20	228.05
403.58	228.13
403.95	228.35
404.33	228.61
404.71	228.81
405.08	229.28
405.46	229.48
405.83	229.71
406.21	230.00
406.58	230.31
406.96	230.61
407.33	231.03
407.70	231.45
408.08	232.21
408.45	232.64
408.83	233.25
409.20	233.60
409.58	233.67
409.95	234.12
410.33	234.69
410.70	235.03
411.08	235.69
411.45	236.32
411.82	236.90
412.20	237.64
412.57	238.63
412.95	238.97
413.32	239.87
413.69	240.73
414.07	241.62
414.44	242.62
414.82	243.65
415.19	244.86
415.56	246.07
415.94	247.03
416.31	248.46
416.68	249.83
417.06	251.44
417.43	253.19
417.81	254.92
418.18	256.70
418.55	258.60
418.93	260.52
419.30	262.64
419.67	264.82
420.04	267.08
420.42	269.25
420.79	272.28
421.16	275.06
421.54	278.10
421.91	281.12
422.28	284.08
422.66	287.22
423.03	290.58
423.40	293.85
423.77	297.35
424.15	300.94
424.52	304.65
424.89	308.67
425.26	312.55
425.64	316.28
426.01	320.44
426.38	324.72
426.75	329.27
427.13	333.75
427.50	338.47
427.87	343.27
428.24	348.19
428.61	352.60
428.99	357.79
429.36	363.08
429.73	368.45
430.10	373.95
430.47	379.66
430.85	385.17
431.22	391.32
431.59	397.97
431.96	404.23
432.33	411.02
432.70	417.76
433.08	425.39
433.45	432.75
433.82	440.03
434.19	448.14
434.56	456.13
434.93	463.65
435.30	471.18
435.68	479.54
436.05	487.71
436.42	495.98
436.79	503.58
437.16	511.75
437.53	520.22
437.90	528.73
438.27	537.11
438.64	545.81
439.01	553.95
439.38	560.91
439.75	567.82
440.13	575.75
440.50	582.99
440.87	589.01
441.24	595.24
441.61	602.11
441.98	607.25
442.35	612.80
442.72	618.80
443.09	624.57
443.46	628.05
443.83	630.50
444.20	632.35
444.57	635.03
444.94	636.16
445.31	637.44
445.68	638.77
446.05	638.93
446.42	637.77
446.79	636.44
447.16	634.94
447.53	633.60
447.90	630.02
448.27	626.35
448.64	621.51
449.01	617.86
449.37	611.83
449.74	605.82
450.11	599.17
450.48	591.60
450.85	583.72
451.22	576.97
451.59	570.40
451.96	564.23
452.33	556.20
452.70	548.91
453.07	540.32
453.43	531.37
453.80	523.04
454.17	515.10
454.54	507.51
454.91	499.54
455.28	491.75
455.65	484.44
456.02	477.76
456.38	471.65
456.75	464.12
457.12	457.60
457.49	451.42
457.86	445.27
458.23	440.07
458.59	434.47
458.96	428.74
459.33	423.83
459.70	418.83
460.07	414.90
460.43	410.29
460.80	406.20
461.17	402.60
461.54	398.79
461.91	395.08
462.27	391.30
462.64	388.05
463.01	384.64
463.38	381.36
463.74	377.55
464.11	374.55
464.48	371.90
464.85	369.16
465.21	367.08
465.58	364.75
465.95	361.96
466.32	359.78
466.68	357.69
467.05	355.48
467.42	353.29
467.78	350.93
468.15	348.92
468.52	347.31
468.88	345.06
469.25	343.19
469.62	341.70
469.98	340.06
470.35	338.61
470.72	337.11
471.08	335.35
471.45	334.10
471.82	332.87
472.18	331.38
472.55	330.44
472.92	329.07
473.28	327.84
473.65	326.84
474.02	325.77
474.38	324.89
474.75	324.09
475.11	323.24
475.48	322.65
475.85	322.01
476.21	321.37
476.58	320.97
476.94	320.62
477.31	320.09
477.67	319.66
478.04	319.29
478.41	319.03
478.77	319.36
479.14	318.99
479.50	318.90
479.87	319.01
480.23	318.97
480.60	318.97
480.96	319.05
481.33	319.40
481.69	319.68
482.06	319.85
482.42	320.07
482.79	320.41
483.15	320.78
483.52	321.31
483.88	321.71
484.25	322.23
484.61	322.80
484.98	323.50
485.34	324.51
485.71	325.54
486.07	326.49
486.44	327.01
486.80	328.11
487.17	329.10
487.53	330.46
487.90	331.77
488.26	333.48
488.62	335.14
488.99	336.66
489.35	338.43
489.72	340.34
490.08	342.29
490.44	344.30
490.81	346.47
491.17	348.73
491.54	351.23
491.90	353.77
492.26	356.39
492.63	359.29
492.99	362.07
493.36	365.06
493.72	368.39
494.08	371.80
494.45	375.57
494.81	379.53
495.17	383.32
495.54	387.51
495.90	391.64
496.26	396.05
496.63	400.67
496.99	405.41
497.35	410.32
497.72	415.63
498.08	421.13
498.44	426.81
498.80	432.80
499.17	438.86
499.53	445.07
499.89	451.72
500.26	458.44
500.62	465.37
500.98	472.76
501.34	480.12
501.71	487.83
502.07	495.54
502.43	503.58
502.79	512.02
503.16	520.66
503.52	529.64
503.88	538.80
504.24	548.40
504.60	558.23
504.97	568.56
505.33	578.92
505.69	590.04
506.05	601.10
506.41	612.21
506.78	623.85
507.14	635.79
507.50	647.94
507.86	660.42
508.22	673.24
508.59	686.12
508.95	699.66
509.31	713.66
509.67	727.80
510.03	741.93
510.39	756.47
510.75	771.33
511.12	786.42
511.48	801.91
511.84	817.40
512.20	833.54
512.56	849.61
512.92	866.31
513.28	882.80
513.64	899.94
514.00	917.35
514.37	934.69
514.73	952.59
515.09	970.65
515.45	988.71
515.81	1006.96
516.17	1025.52
516.53	1044.00
516.89	1062.70
517.25	1082.09
517.61	1102.38
517.97	1122.26
518.33	1142.20
518.69	1162.25
519.05	1182.40
519.41	1202.67
519.77	1223.16
520.13	1243.51
520.49	1263.73
520.85	1285.79
521.21	1306.56
521.57	1327.49
521.93	1348.09
522.29	1369.14
522.65	1389.58
523.01	1410.15
523.37	1430.55
523.73	1451.40
524.09	1471.73
524.45	1492.06
524.81	1512.38
525.17	1532.44
525.53	1552.85
525.89	1573.36
526.25	1593.78
526.61	1613.85
526.97	1634.77
527.33	1655.39
527.68	1677.06
528.04	1698.29
528.40	1717.54
528.76	1738.10
529.12	1758.35
529.48	1779.19
529.84	1798.79
530.20	1819.57
530.56	1840.20
530.91	1860.72
531.27	1880.53
531.63	1900.46
531.99	1920.61
532.35	1940.35
532.71	1960.11
533.07	1980.24
533.42	1999.71
533.78	2019.29
534.14	2039.00
534.50	2057.60
534.86	2076.76
535.21	2093.78
535.57	2111.65
535.93	2128.84
536.29	2146.11
536.65	2163.89
537.00	2180.53
537.36	2197.91
537.72	2214.14
538.08	2230.71
538.44	2247.05
538.79	2263.03
539.15	2279.21
539.51	2294.77
539.87	2309.46
540.22	2323.00
540.58	2337.00
540.94	2349.80
541.29	2362.31
541.65	2374.68
542.01	2386.96
542.37	2396.91
542.72	2408.15
543.08	2418.02
543.44	2429.67
543.79	2439.40
544.15	2448.63
544.51	2458.62
544.87	2467.90
545.22	2476.09
545.58	2483.87
545.94	2490.61
546.29	2496.98
546.65	2502.89
547.01	2508.33
547.36	2513.83
547.72	2519.48
548.07	2523.21
548.43	2528.35
548.79	2532.89
549.14	2536.29
549.50	2540.05
549.86	2544.05
550.21	2546.94
550.57	2550.61
550.92	2551.38
551.28	2552.67
551.64	2555.08
551.99	2556.47
552.35	2557.57
552.70	2559.51
553.06	2560.91
553.41	2562.15
553.77	2563.43
554.13	2564.98
554.48	2566.20
554.84	2566.82
555.19	2567.45
555.55	2569.16
555.90	2568.00
556.26	2566.47
556.61	2564.74
556.97	2562.17
557.32	2561.42
557.68	2560.28
558.03	2558.52
558.39	2557.21
558.74	2556.10
559.10	2552.27
559.45	2548.59
559.81	2544.16
560.16	2538.62
560.52	2533.48
560.87	2528.80
561.23	2523.32
561.58	2517.38
561.94	2510.43
562.29	2503.57
562.64	2496.61
563.00	2487.82
563.35	2481.12
563.71	2474.54
564.06	2468.24
564.42	2462.02
564.77	2454.59
565.12	2446.79
565.48	2438.99
565.83	2430.93
566.19	2422.74
566.54	2415.16
566.89	2407.39
567.25	2399.70
567.60	2392.88
567.96	2385.25
568.31	2377.54
568.66	2369.24
569.02	2360.16
569.37	2351.92
569.72	2344.11
570.08	2334.86
570.43	2325.90
570.78	2317.33
571.14	2308.16
571.49	2298.36
571.84	2288.59
572.20	2278.34
572.55	2268.34
572.90	2257.36
573.26	2247.05
573.61	2236.09
573.96	2224.73
574.31	2212.61
574.67	2200.84
575.02	2188.09
575.37	2175.62
575.72	2162.31
576.08	2150.15
576.43	2137.96
576.78	2124.76
577.13	2111.43
577.49	2098.90
577.84	2086.86
578.19	2074.65
578.54	2062.08
578.90	2049.95
579.25	2037.79
579.60	2025.42
579.95	2012.64
580.30	1999.79
580.66	1986.67
581.01	1973.47
581.36	1960.31
581.71	1948.17
582.06	1935.61
582.42	1923.28
582.77	1910.77
583.12	1899.08
583.47	1887.27
583.82	1875.47
584.17	1864.09
584.53	1852.31
584.88	1839.88
585.23	1827.02
585.58	1813.43
585.93	1800.52
586.28	1787.83
586.63	1773.99
586.98	1760.14
587.34	1746.96
587.69	1733.99
588.04	1721.76
588.39	1709.92
588.74	1697.62
589.09	1685.86
589.44	1673.10
589.79	1661.07
590.14	1649.33
590.49	1637.28
590.84	1625.22
591.19	1613.46
591.54	1601.35
591.89	1589.22
592.25	1579.13
592.60	1567.93
592.95	1556.85
593.30	1544.91
593.65	1533.03
594.00	1521.24
594.35	1511.39
594.70	1500.18
595.05	1489.23
595.40	1477.39
595.75	1465.64
596.10	1454.92
596.45	1443.51
596.80	1433.02
597.15	1422.20
597.50	1410.81
597.85	1399.96
598.19	1388.50
598.54	1376.99
598.89	1366.12
599.24	1355.83
599.59	1344.16
599.94	1333.67
600.29	1323.27
600.64	1313.38
600.99	1302.98
601.34	1293.77
601.69	1282.84
602.04	1273.19
602.39	1263.57
602.74	1254.54
603.08	1245.40
603.43	1235.98
603.78	1226.55
604.13	1217.15
604.48	1207.64
604.83	1198.13
605.18	1188.34
605.53	1179.16
605.87	1170.36
606.22	1161.93
606.57	1152.76
606.92	1143.70
607.27	1134.99
607.62	1126.28
607.96	1117.99
608.31	1110.29
608.66	1102.06
609.01	1093.72
609.36	1085.54
609.70	1077.26
610.05	1068.86
610.40	1060.77
610.75	1052.52
611.10	1044.30
611.44	1035.76
611.79	1027.74
612.14	1020.13
612.49	1012.65
612.83	1005.45
613.18	997.83
613.53	989.95
613.88	982.37
614.22	974.75
614.57	966.85
614.92	959.25
615.27	952.00
615.61	944.43
615.96	936.87
616.31	929.72
616.65	922.51
617.00	915.28
617.35	908.34
617.70	901.21
618.04	894.23
618.39	887.34
618.74	881.37
619.08	874.65
619.43	867.84
619.78	860.83
620.12	853.65
620.47	846.83
620.82	839.87
621.16	833.20
621.51	827.21
621.85	821.12
622.20	814.58
622.55	808.13
622.89	801.72
623.24	795.46
623.59	789.13
623.93	783.11
624.28	777.35
624.62	771.81
624.97	766.25
625.32	760.59
625.66	754.81
626.01	748.60
626.35	743.16
626.70	737.82
627.04	732.82
627.39	727.61
627.73	722.46
628.08	717.61
628.43	712.58
628.77	707.23
629.12	702.07
629.46	697.50
629.81	692.91
630.15	688.30
630.50	683.66
630.84	678.92
631.19	674.16
631.53	669.61
631.88	664.37
632.22	659.58
632.57	655.24
632.91	650.71
633.26	646.48
633.60	642.02
633.95	637.32
634.29	632.79
634.64	628.38
634.98	623.86
635.32	619.65
635.67	615.68
636.01	611.61
636.36	607.38
636.70	603.36
637.05	599.03
637.39	594.92
637.73	591.06
638.08	587.19
638.42	583.28
638.77	579.22
639.11	575.10
639.45	570.82
639.80	566.45
640.14	562.57
640.49	558.70
640.83	554.92
641.17	551.47
641.52	547.64
641.86	544.17
642.20	541.00
642.55	537.41
642.89	533.99
643.23	530.52
643.58	527.48
643.92	523.91
644.26	520.59
644.61	517.48
644.95	514.22
645.29	510.97
645.64	507.91
645.98	504.74
646.32	502.00
646.66	499.05
647.01	496.25
647.35	493.50
647.69	490.63
648.04	487.82
648.38	485.07
648.72	482.46
649.06	479.53
649.41	476.59
649.75	473.71
650.09	470.81
650.43	468.08
650.78	465.11
651.12	462.45
651.46	459.65
651.80	456.89
652.14	454.09
652.49	451.50
652.83	448.87
653.17	446.42
653.51	443.67
653.85	441.37
654.20	439.01
654.54	436.45
654.88	434.03
655.22	431.74
655.56	429.27
655.90	426.97
656.25	424.72
656.59	422.54
656.93	420.52
657.27	418.51
657.61	416.10
657.95	414.00
658.29	411.75
658.64	409.78
658.98	407.70
659.32	405.62
659.66	403.48
660.00	401.44
660.34	399.36
660.68	397.47
661.02	395.36
661.36	393.33
661.70	391.41
662.05	389.52
662.39	387.70
662.73	386.02
663.07	384.32
663.41	382.57
663.75	380.62
664.09	378.69
664.43	376.70
664.77	375.16
665.11	373.40
665.45	371.82
665.79	370.30
666.13	368.60
666.47	366.91
666.81	365.38
667.15	363.70
667.49	362.25
667.83	360.97
668.17	359.53
668.51	358.11
668.85	356.73
669.19	355.55
669.53	354.03
669.87	352.46
670.21	350.97
670.55	349.60
670.89	348.45
671.23	347.05
671.57	345.75
671.91	344.37
672.25	343.13
672.58	341.88
672.92	340.40
673.26	339.15
673.60	338.05
673.94	336.82
674.28	335.83
674.62	334.62
674.96	333.21
675.30	332.09
675.64	330.90
675.97	329.83
676.31	328.50
676.65	327.32
676.99	326.38
677.33	325.11
677.67	324.06
678.01	322.87
678.34	321.92
678.68	320.95
679.02	319.87
679.36	318.83
679.70	317.83
680.04	316.94
680.37	316.03
680.71	315.03
681.05	314.26
681.39	313.35
681.73	312.51
682.06	311.72
682.40	310.84
682.74	310.11
683.08	309.40
683.42	308.51
683.75	307.85
684.09	306.97
684.43	306.29
684.77	305.37
685.10	304.56
685.44	303.76
685.78	302.95
686.12	302.27
686.45	301.59
686.79	300.76
687.13	300.07
687.46	299.29
687.80	298.62
688.14	297.72
688.48	296.96
688.81	296.10
689.15	295.47
689.49	294.78
689.82	294.05
690.16	293.10
690.50	292.45
690.83	291.70
691.17	290.84
691.51	290.19
691.84	289.60
692.18	288.90
692.52	288.20
692.85	287.57
693.19	287.15
693.52	286.51
693.86	285.91
694.20	285.26
694.53	284.70
694.87	284.02
695.21	283.42
695.54	282.74
695.88	282.14
696.21	281.36
696.55	280.71
696.88	280.08
697.22	279.57
697.56	279.05
697.89	278.41
698.23	278.04
698.56	277.44
698.90	276.96
699.23	276.40
699.57	275.87
699.90	275.31
700.24	274.55
700.58	274.05
700.91	273.68
701.25	273.56
701.58	273.36
701.92	273.07
702.25	272.63
702.59	272.24
702.92	271.85
703.26	271.45
703.59	271.14
703.93	271.14
704.26	270.74
704.60	270.36
704.93	269.91
705.26	269.39
705.60	269.06
705.93	268.48
706.27	268.19
706.60	267.89
706.94	267.71
707.27	267.30
707.61	266.93
707.94	266.43
708.27	265.65
708.61	264.97
708.94	264.50
709.28	264.14
709.61	263.68
709.94	263.27
710.28	262.85
710.61	262.40
710.95	261.57
711.28	261.55
711.61	261.08
711.95	260.84
712.28	260.41
712.61	259.98
712.95	259.99
713.28	259.91
713.61	259.52
713.95	259.01
714.28	258.73
714.61	258.35
714.95	257.99
715.28	257.65
715.61	257.28
715.95	257.02
716.28	256.60
716.61	256.38
716.95	255.99
717.28	255.80
717.61	255.43
717.94	255.14
718.28	254.43
718.61	254.25
718.94	253.97
719.27	253.75
719.61	253.64
719.94	253.26
720.27	252.70
720.60	252.40
720.94	252.10
721.27	251.93
721.60	251.78
721.93	251.64
722.27	251.56
722.60	251.46
722.93	251.21
723.26	251.12
723.59	250.87
723.93	250.84
724.26	250.68
724.59	250.48
724.92	250.37
725.25	250.36
725.59	250.05
725.92	249.83
726.25	249.62
726.58	249.40
726.91	249.12
727.24	249.01
727.57	248.84
727.91	248.65
728.24	248.59
728.57	248.28
728.90	248.15
729.23	247.81
729.56	247.85
729.89	247.66
730.22	247.42
730.55	247.21
730.89	247.03
731.22	246.81
731.55	246.67
731.88	246.45
732.21	246.24
732.54	246.02
732.87	245.87
733.20	245.84
733.53	245.68
733.86	245.64
734.19	245.42
734.52	245.38
734.85	245.51
735.18	245.22
735.51	245.29
735.84	245.15
736.17	245.19
736.50	244.75
736.83	245.19
737.16	245.05
737.49	244.88
737.82	244.66
738.15	244.57
738.48	244.53
738.81	244.37
739.14	244.11
739.47	244.02
739.80	243.88
740.13	243.69
740.46	243.48
740.79	243.22
741.12	243.11
741.45	242.91
741.78	242.55
742.11	242.53
742.44	242.29
742.77	242.17
743.10	241.91
743.43	241.82
743.75	241.06
744.08	241.61
744.41	241.53
744.74	241.38
745.07	241.13
745.40	240.96
745.73	240.99
746.06	240.91
746.39	240.83
746.71	240.71
747.04	240.52
747.37	240.40
747.70	240.41
748.03	240.28
748.36	240.21
748.68	240.09
749.01	239.83
749.34	239.70
749.67	239.67
750.00	239.57
750.33	239.75
750.65	239.69
750.98	238.91
751.31	238.76
751.64	238.72
751.97	238.88
752.29	238.74
752.62	238.46
752.95	238.33
753.28	238.20
753.60	238.05
753.93	238.14
754.26	238.13
754.59	237.85
754.91	237.74
755.24	237.57
755.57	237.46
755.90	237.39
756.22	237.28
756.55	237.08
756.88	236.97
757.20	236.57
757.53	236.41
757.86	236.35
758.19	236.31
758.51	236.19
758.84	235.85
759.17	235.69
759.49	235.68
759.82	235.83
760.15	235.74
760.47	235.62
760.80	235.42
761.13	235.28
761.45	235.13
761.78	235.03
762.11	235.03
762.43	234.91
762.76	234.72
763.08	234.65
763.41	234.56
763.74	234.47
764.06	234.40
764.39	234.33
764.71	234.25
765.04	234.14
765.37	234.03
765.69	233.95
766.02	233.91
766.34	233.72
766.67	233.43
767.00	233.46
767.32	233.70
767.65	233.89
767.97	233.81
768.30	233.82
768.62	233.75
768.95	233.52
769.27	233.49
769.60	233.52
769.92	233.37
770.25	233.21
770.57	233.08
770.90	232.98
771.22	232.83
771.55	232.78
771.87	232.75
772.20	232.65
772.52	232.98
772.85	233.51
773.17	233.53
773.50	233.46
773.82	233.33
774.15	232.96
774.47	232.57
774.80	232.46
775.12	232.38
775.45	232.29
775.77	232.28
776.09	232.19
776.42	232.16
776.74	232.25
777.07	232.20
777.39	232.18
777.72	232.12
778.04	232.14
778.36	232.05
778.69	232.00
779.01	232.04
779.33	231.60
779.66	230.97
779.98	230.81
780.31	230.80
780.63	230.96
780.95	231.03
781.28	230.97
781.60	230.86
781.92	230.82
782.25	230.80
782.57	230.78
782.89	230.73
783.22	230.68
783.54	230.55
783.86	230.49
784.19	230.42
784.51	230.52
784.83	230.45
785.16	230.40
785.48	230.32
785.80	230.24
786.12	230.27
786.45	230.28
786.77	230.33
787.09	230.29
787.42	230.07
787.74	229.99
788.06	229.98
788.38	230.01
788.71	229.98
789.03	230.04
789.35	230.08
789.67	229.98
789.99	229.95
790.32	229.85
790.64	229.92
790.96	230.22
791.28	230.05
791.61	230.06
791.93	230.00
792.25	230.04
792.57	230.38
792.89	230.19
793.21	230.20
793.54	230.10
793.86	229.97
794.18	229.96
794.50	229.93
794.82	229.91
795.14	229.96
795.47	229.99
795.79	229.96
796.11	229.87
796.43	229.79
796.75	229.79
797.07	229.80
797.39	229.76
797.71	229.49
798.04	229.50
798.36	229.46
798.68	229.50
799.00	229.47
799.32	229.21
799.64	229.36
799.96	229.31
800.28	229.39
800.60	229.43
800.92	229.44
801.24	229.34
801.56	229.41
801.89	229.35
802.21	229.40
802.53	229.29
802.85	229.34
803.17	229.66
803.49	229.43
803.81	229.41
804.13	229.35
804.45	229.30
804.77	229.27
805.09	229.18
805.41	229.09
805.73	229.01
806.05	228.85
806.37	228.80
806.69	228.78
807.01	228.76
807.33	228.78
807.65	228.56
807.97	228.78
808.28	228.61
808.60	228.57
808.92	228.45
809.24	228.72
809.56	228.62
809.88	228.39
810.20	228.48
810.52	228.54
810.84	228.50
811.16	228.39
811.48	228.39
811.80	228.59
812.12	228.59
812.43	228.65
812.75	228.72
813.07	228.60
813.39	228.59
813.71	228.51
814.03	228.40
814.35	228.47
814.67	228.30
814.98	228.24
815.30	228.23
815.62	228.14
815.94	227.80
816.26	228.00
816.58	227.84
816.89	227.94
817.21	227.89
817.53	227.85
817.85	227.85
818.17	227.85
818.48	227.68
818.80	227.75
819.12	227.64
819.44	227.51
819.76	227.48
820.07	227.44
820.39	227.42
820.71	227.56
821.03	227.54
821.34	227.45
821.66	227.59
821.98	227.60
822.30	227.67
822.61	227.94
822.93	227.71
823.25	227.80
823.57	227.67
823.88	227.75
824.20	227.77
824.52	227.87
824.83	227.77
825.15	227.73
825.47	227.70
825.79	227.73
826.10	227.72
826.42	227.74
826.74	227.69
827.05	227.65
827.37	227.61
827.69	227.57
828.00	227.62
828.32	227.54
828.64	227.51
828.95	227.64
829.27	227.49
829.58	227.53
829.90	227.58
830.22	227.63
830.53	227.44
830.85	227.42
831.17	227.29
831.48	227.28
831.80	227.31
832.11	227.24
832.43	227.25
832.75	227.24
833.06	227.49
833.38	227.48
833.69	227.51
834.01	227.41
834.32	227.39
834.64	227.34
834.96	227.37
835.27	227.37
835.59	227.31
835.90	227.19
836.22	227.16
836.53	227.04
836.85	227.00
837.16	227.50
837.48	227.46
837.79	227.73
838.11	227.77
838.42	227.74
838.74	227.75
839.05	227.70
839.37	227.69
839.68	227.42
840.00	227.42
840.31	227.45
840.63	227.44
840.94	227.36
841.26	227.39
841.57	227.43
841.88	227.39
842.20	227.27
842.51	227.27
842.83	227.25
843.14	227.72
843.46	227.76
843.77	227.50
844.08	227.40
844.40	227.14
844.71	227.11
845.03	227.05
845.34	227.09
845.65	227.07
845.97	227.09
846.28	227.07
846.60	227.08
846.91	227.03
847.22	227.01
847.54	227.23
847.85	227.18
848.16	227.12
848.48	227.07
848.79	227.15
849.10	227.23
849.42	227.25
849.73	226.76
850.04	226.69
850.36	226.53
850.67	226.65
850.98	226.65
851.30	226.60
851.61	226.57
851.92	226.52
852.23	226.61
852.55	226.61
852.86	226.57
853.17	226.56
853.49	226.66
853.80	226.78
854.11	226.68
854.42	226.77
854.74	226.68
855.05	226.62
855.36	226.41
855.67	226.39
855.99	226.37
856.30	226.93
856.61	226.88
856.92	226.85
857.23	226.88
857.55	226.88
857.86	226.86
858.17	226.94
858.48	226.85
858.79	226.83
859.11	226.91
859.42	226.92
859.73	226.89
860.04	226.86
860.35	226.66
860.66	226.58
860.98	226.47
861.29	226.58
861.60	226.64
861.91	226.84
862.22	226.75
862.53	226.62
862.84	226.03
863.16	226.15
863.47	226.06
863.78	225.96
864.09	226.00
864.40	226.08
864.71	226.04
865.02	226.10
865.33	226.00
865.64	225.86
865.95	225.89
866.27	226.15
866.58	226.08
866.89	226.22
867.20	226.18
867.51	226.21
867.82	226.18
868.13	226.23
868.44	226.14
868.75	226.26
869.06	226.35
869.37	226.47
869.68	226.39
869.99	226.55
870.30	226.61
870.61	226.60
870.92	226.48
871.23	226.48
871.54	226.53
871.85	226.60
872.16	226.69
872.47	226.66
872.78	226.39
873.09	226.42
873.40	226.31
873.71	226.41
874.02	226.43
874.33	226.40
874.64	226.42
874.95	226.45
875.26	226.35
875.56	226.27
875.87	226.27
876.18	226.25
876.49	226.61
876.80	226.53
877.11	226.45
877.42	226.62
877.73	226.66
878.04	226.59
878.35	226.61
878.66	226.62
878.96	226.61
879.27	226.63
879.58	226.64
879.89	226.70
880.20	226.80
880.51	226.72
880.82	226.73
881.12	226.75
881.43	226.71
881.74	226.65
882.05	226.74
882.36	226.74
882.67	226.76
882.97	226.29
883.28	226.28
883.59	226.30
883.90	226.26
884.21	226.30
884.51	226.32
884.82	226.25
885.13	226.23
885.44	226.25
885.74	226.23
886.05	226.16
886.36	226.10
886.67	225.93
886.98	226.21
887.28	226.19
887.59	226.11
887.90	226.09
888.20	226.08
888.51	226.20
888.82	226.18
889.13	226.24
889.43	226.63
889.74	226.62
890.05	226.60
890.35	226.55
890.66	226.48
890.97	226.40
891.28	226.35
891.58	226.38
891.89	226.34
892.20	226.29
892.50	226.25
892.81	226.25
893.12	226.26
893.42	226.05
893.73	226.10
894.04	226.15
894.34	226.18
894.65	226.12
894.95	225.95
895.26	225.98
895.57	226.14
895.87	225.70
896.18	225.80
896.48	225.85
896.79	225.84
897.10	225.86
897.40	225.88
897.71	225.86
898.01	225.82
898.32	225.94
898.63	225.89
898.93	225.97
899.24	225.93
899.54	225.94
899.85	225.87
900.15	225.79
900.46	225.80
900.76	225.83
901.07	225.85
901.38	225.86
901.68	225.80
901.99	225.51
902.29	225.53
902.60	225.43
902.90	225.38
903.21	225.34
903.51	225.32
903.82	225.42
904.12	225.55
904.43	225.47
904.73	225.36
905.03	225.41
905.34	225.81
905.64	225.82
905.95	225.77
906.25	225.75
906.56	225.75
906.86	225.68
907.17	225.62
907.47	225.65
907.77	225.67
908.08	225.62
908.38	225.73
908.69	225.82
908.99	225.96
909.30	226.03
909.60	226.02
909.90	226.05
910.21	225.90
910.51	225.75
910.81	225.77
911.12	225.84
911.42	225.90
911.73	225.49
912.03	225.57
912.33	225.72
912.64	225.70
912.94	225.63
913.24	225.55
913.55	225.53
913.85	225.50
914.15	225.51
914.46	225.60
914.76	225.58
915.06	225.51
915.37	225.41
915.67	225.38
915.97	225.47
916.27	225.41
916.58	225.48
916.88	225.53
917.18	225.55
917.49	225.84
917.79	225.81
918.09	225.88
918.39	226.00
918.70	225.91
919.00	225.93
919.30	226.24
919.60	226.23
919.91	226.19
920.21	226.30
920.51	226.27
920.81	226.23
921.12	226.31
921.42	226.31
921.72	226.30
922.02	226.33
922.32	226.39
922.63	226.46
922.93	226.74
923.23	226.80
923.53	226.79
923.83	226.50
924.13	226.60
924.44	226.58
924.74	226.60
925.04	226.77
925.34	226.80
925.64	226.60
925.94	226.71
926.24	226.99
926.55	226.94
926.85	227.01
927.15	226.99
927.45	226.95
927.75	226.99
928.05	227.07
928.35	227.04
928.65	227.00
928.95	227.00
929.26	226.75
929.56	226.83
929.86	226.90
930.16	226.88
930.46	226.81
930.76	226.85
931.06	226.59
931.36	226.48
931.66	226.65
931.96	226.67
932.26	226.55
932.56	226.40
932.86	226.40
933.16	226.34
933.46	226.36
933.76	226.23
934.06	226.31
934.36	226.40
934.66	226.39
934.96	226.45
935.26	226.45
935.56	226.55
935.86	226.44
936.16	226.36
936.46	226.28
936.76	226.25
937.06	226.16
937.36	226.20
937.66	226.18
937.96	226.01
938.26	225.96
938.56	226.02
938.86	225.99
939.16	226.06
939.46	226.12
939.76	226.15
940.06	226.20
940.35	226.07
940.65	225.88
940.95	225.89
941.25	225.74
941.55	225.66
941.85	225.60
942.15	225.62
942.45	225.73
942.75	225.75
943.04	225.78
943.34	225.84
943.64	225.86
943.94	225.81
944.24	225.82
944.54	225.86
944.84	225.83
945.13	225.87
945.43	225.81
945.73	225.81
946.03	225.72
946.33	225.67
946.62	225.58
946.92	225.58
947.22	225.59
947.52	225.64
947.82	225.73
948.11	225.69
948.41	225.61
948.71	225.51
949.01	225.54
949.31	225.48
949.60	225.39
949.90	225.39
950.20	225.39
950.50	225.41
950.79	225.40
951.09	225.46
951.39	225.44
951.69	225.38
951.98	225.51
952.28	225.53
952.58	225.57
952.87	225.67
953.17	225.80
953.47	225.80
953.76	225.80
954.06	225.73
954.36	225.65
954.66	225.63
954.95	225.72
955.25	225.80
955.55	225.82
955.84	225.84
956.14	225.96
956.44	225.95
956.73	225.86
957.03	225.85
957.32	225.89
957.62	225.85
957.92	225.98
958.21	225.87
958.51	226.45
958.81	226.51
959.10	226.54
959.40	226.58
959.69	226.57
959.99	226.62
960.29	226.64
960.58	226.62
960.88	226.87
961.17	226.85
961.47	226.87
961.76	226.87
962.06	226.91
962.36	226.79
962.65	226.81
962.95	226.83
963.24	226.80
963.54	226.75
963.83	226.71
964.13	226.64
964.42	226.50
964.72	226.08
965.01	226.08
965.31	226.03
965.60	225.93
965.90	226.28
966.19	226.17
966.49	226.24
966.78	226.26
967.08	226.27
967.37	226.30
967.67	226.16
967.96	226.23
968.26	226.20
968.55	226.29
968.85	226.33
969.14	226.38
969.43	226.35
969.73	226.36
970.02	226.43
970.32	226.41
970.61	226.42
970.91	226.23
971.20	226.16
971.49	226.14
971.79	226.23
972.08	225.83
972.38	225.86
972.67	225.82
972.96	225.94
973.26	225.81
973.55	225.96
973.85	226.01
974.14	225.99
974.43	226.03
974.73	225.93
975.02	225.86
975.31	225.86
975.61	225.91
975.90	225.84
976.19	225.78
976.49	225.90
976.78	225.89
977.07	226.01
977.37	226.01
977.66	226.10
977.95	225.95
978.24	226.02
978.54	226.11
978.83	226.04
979.12	225.97
979.42	225.93
979.71	225.77
980.00	225.80
980.29	225.84
980.59	225.77
980.88	225.93
981.17	225.92
981.46	225.90
981.76	225.88
982.05	226.05
982.34	226.10
982.63	226.05
982.93	226.12
983.22	226.23
983.51	226.29
983.80	226.39
984.09	226.44
984.39	226.39
984.68	226.39
984.97	226.47
985.26	226.40
985.55	226.43
985.85	226.38
986.14	226.36
986.43	226.41
986.72	226.43
987.01	226.32
987.30	226.36
987.59	226.35
987.89	226.37
988.18	226.31
988.47	226.27
988.76	226.19
989.05	226.19
989.34	226.08
989.63	226.20
989.92	226.13
990.22	226.09
990.51	226.14
990.80	226.02
991.09	226.09
991.38	226.23
991.67	226.19
991.96	226.12
992.25	226.20
992.54	226.08
992.83	226.07
993.12	225.99
993.41	226.08
993.70	226.35
993.99	226.45
994.28	226.40
994.58	226.46
994.87	226.48
995.16	226.50
995.45	226.46
995.74	226.28
996.03	226.27
996.32	226.38
996.61	226.43
996.90	226.50
997.19	226.46
997.48	226.42
997.77	226.43
998.06	226.51
998.34	226.45
998.63	226.50
998.92	226.51
999.21	226.65
999.50	226.57
999.79	226.32
1000.08	226.30
1000.37	226.32
1000.66	226.29
1000.95	226.34
1001.24	226.29
1001.53	226.39
1001.82	226.39
1002.11	226.31
1002.40	226.28
1002.68	226.36
1002.97	226.64
1003.26	226.50
1003.55	226.40
1003.84	226.41
1004.13	226.53
1004.42	226.45
1004.71	226.41
1004.99	226.32
1005.28	226.30
1005.57	226.22
1005.86	226.17
1006.15	226.07
1006.44	226.03
1006.72	226.03
1007.01	225.94
1007.30	225.99
1007.59	225.91
1007.88	225.85
1008.17	225.84
1008.45	225.73
1008.74	225.55
1009.03	225.43
1009.32	225.48
1009.60	225.47
1009.89	225.37
1010.18	225.17
1010.47	225.19
1010.76	225.11
1011.04	225.09
1011.33	225.14
1011.62	225.20
1011.91	225.23
1012.19	225.21
1012.48	225.14
1012.77	225.11
1013.05	225.32
1013.34	225.27
1013.63	225.22
1013.92	225.26
1014.20	225.19
1014.49	225.24
1014.78	225.23
1015.06	225.02
1015.35	224.99
1015.64	224.98
1015.92	225.04
1016.21	225.12
1016.50	225.12
1016.78	225.20
1017.07	225.30
1017.36	225.26
1017.64	225.18
1017.93	225.21
1018.22	225.26
1018.50	225.24
1018.79	225.23
1019.08	225.01
1019.36	225.06
1019.65	224.99
1019.93	225.14
1020.22	225.28
1020.51	225.45
1020.79	225.41
1021.08	225.15
1021.36	223.50
1021.65	224.85
1021.94	224.90
1022.22	226.20
1022.51	223.50
1022.79	227.80
1023.08	226.10
1023.36	229.75
1023.65	224.25
>>>>>End Processed Spectral Data<<<<<
