SpectraSuite Data File
++++++++++++++++++++++++++++++++++++
Date: Wed Sep 04 17:39:35 EDT 2013
User: lab3
Dark Spectrum Present: Yes
Reference Spectrum Present: No
Number of Sampled Component Spectra: 1
Spectrometers: USB2E7196
Integration Time (usec): 170000 (USB2E7196)
Spectra Averaged: 20 (USB2E7196)
Boxcar Smoothing: 10 (USB2E7196)
Correct for Electrical Dark: No (USB2E7196)
Strobe/Lamp Enabled: No (USB2E7196)
Correct for Detector Non-linearity: No (USB2E7196)
Correct for Stray Light: No (USB2E7196)
Number of Pixels in Processed Spectrum: 2048
>>>>>Begin Processed Spectral Data<<<<<
339.09	0.00
339.48	213.05
339.86	213.90
340.24	215.10
340.63	217.45
341.01	224.00
341.39	219.30
341.78	222.05
342.16	223.70
342.54	221.55
342.93	212.00
343.31	222.68
343.69	223.21
344.07	223.70
344.46	224.19
344.84	224.56
345.22	224.58
345.60	224.86
345.99	225.01
346.37	225.10
346.75	225.13
347.13	225.18
347.52	225.22
347.90	225.29
348.28	225.22
348.66	225.22
349.05	225.04
349.43	225.21
349.81	225.25
350.19	225.20
350.57	225.20
350.96	225.28
351.34	225.39
351.72	225.44
352.10	225.55
352.48	225.62
352.87	225.66
353.25	225.72
353.63	225.80
354.01	225.84
354.39	225.89
354.77	226.06
355.15	226.22
355.54	226.24
355.92	226.25
356.30	226.33
356.68	226.79
357.06	226.86
357.44	226.77
357.82	226.84
358.20	227.31
358.58	227.38
358.97	227.42
359.35	227.51
359.73	227.66
360.11	227.72
360.49	227.75
360.87	227.82
361.25	227.93
361.63	228.18
362.01	228.23
362.39	228.31
362.77	228.43
363.15	228.45
363.53	228.48
363.91	228.51
364.29	228.63
364.67	228.23
365.05	228.31
365.43	228.41
365.81	228.58
366.19	228.48
366.57	228.74
366.95	228.77
367.33	228.76
367.71	228.79
368.09	228.87
368.47	228.90
368.85	228.88
369.23	228.96
369.61	228.63
369.99	228.90
370.37	228.95
370.75	229.17
371.13	229.10
371.51	229.09
371.89	229.13
372.27	229.06
372.65	229.00
373.03	229.00
373.41	229.04
373.78	228.95
374.16	228.60
374.54	228.37
374.92	228.33
375.30	228.27
375.68	228.15
376.06	228.05
376.44	228.00
376.82	227.98
377.19	227.91
377.57	227.92
377.95	227.61
378.33	227.46
378.71	227.07
379.09	227.07
379.47	227.02
379.84	226.89
380.22	226.76
380.60	226.65
380.98	226.57
381.36	226.43
381.73	226.25
382.11	226.32
382.49	226.25
382.87	226.18
383.25	226.12
383.62	226.61
384.00	226.51
384.38	226.43
384.76	226.45
385.13	226.56
385.51	226.54
385.89	226.46
386.27	226.39
386.64	226.47
387.02	226.28
387.40	226.25
387.78	226.20
388.15	226.21
388.53	226.10
388.91	226.05
389.29	225.94
389.66	226.06
390.04	225.92
390.42	226.00
390.79	225.89
391.17	225.88
391.55	225.33
391.92	225.28
392.30	225.26
392.68	225.17
393.05	225.09
393.43	225.10
393.81	225.16
394.18	225.11
394.56	225.09
394.94	225.33
395.31	225.26
395.69	225.42
396.06	225.54
396.44	225.62
396.82	225.57
397.19	225.85
397.57	225.84
397.95	226.03
398.32	225.92
398.70	226.07
399.07	226.21
399.45	226.23
399.82	226.29
400.20	226.38
400.58	226.45
400.95	226.40
401.33	226.56
401.70	226.91
402.08	227.05
402.45	227.15
402.83	227.30
403.20	227.47
403.58	227.57
403.95	227.78
404.33	228.01
404.71	228.25
405.08	228.63
405.46	228.73
405.83	228.91
406.21	229.11
406.58	229.37
406.96	229.49
407.33	229.84
407.70	230.16
408.08	230.84
408.45	231.23
408.83	231.65
409.20	232.00
409.58	232.12
409.95	232.65
410.33	233.11
410.70	233.43
411.08	233.97
411.45	234.46
411.82	234.91
412.20	235.60
412.57	236.57
412.95	236.80
413.32	237.60
413.69	238.26
414.07	239.04
414.44	239.89
414.82	240.87
415.19	241.82
415.56	242.87
415.94	243.59
416.31	244.77
416.68	245.93
417.06	247.22
417.43	248.68
417.81	250.02
418.18	251.61
418.55	253.20
418.93	254.85
419.30	256.62
419.67	258.51
420.04	260.37
420.42	262.28
420.79	264.90
421.16	267.24
421.54	269.87
421.91	272.42
422.28	274.88
422.66	277.54
423.03	280.58
423.40	283.37
423.77	286.38
424.15	289.35
424.52	292.46
424.89	296.02
425.26	299.24
425.64	302.46
426.01	305.88
426.38	309.62
426.75	313.47
427.13	317.31
427.50	321.19
427.87	325.17
428.24	329.18
428.61	333.04
428.99	337.58
429.36	342.06
429.73	346.60
430.10	351.24
430.47	355.95
430.85	360.44
431.22	365.61
431.59	371.35
431.96	376.63
432.33	382.34
432.70	387.91
433.08	394.35
433.45	400.62
433.82	406.81
434.19	413.53
434.56	420.23
434.93	426.66
435.30	433.15
435.68	440.39
436.05	447.41
436.42	454.25
436.79	460.56
437.16	467.49
437.53	474.81
437.90	482.03
438.27	489.21
438.64	496.65
439.01	503.33
439.38	509.19
439.75	515.00
440.13	521.70
440.50	527.85
440.87	532.99
441.24	538.09
441.61	543.86
441.98	548.16
442.35	552.94
442.72	557.84
443.09	562.87
443.46	565.69
443.83	567.50
444.20	569.10
444.57	571.23
444.94	572.24
445.31	573.16
445.68	574.48
446.05	574.77
446.42	573.74
446.79	572.68
447.16	571.49
447.53	570.53
447.90	567.59
448.27	564.53
448.64	560.47
449.01	557.54
449.37	552.40
449.74	547.32
450.11	541.86
450.48	535.45
450.85	528.64
451.22	523.05
451.59	517.83
451.96	512.64
452.33	506.05
452.70	499.99
453.07	492.95
453.43	485.31
453.80	478.26
454.17	471.69
454.54	465.49
454.91	458.73
455.28	452.15
455.65	445.93
456.02	440.62
456.38	435.55
456.75	429.14
457.12	423.85
457.49	418.68
457.86	413.20
458.23	409.03
458.59	404.35
458.96	399.64
459.33	395.32
459.70	391.15
460.07	387.80
460.43	383.78
460.80	380.24
461.17	377.19
461.54	373.88
461.91	370.67
462.27	367.34
462.64	364.61
463.01	361.67
463.38	359.05
463.74	355.43
464.11	352.83
464.48	350.75
464.85	348.30
465.21	346.64
465.58	344.92
465.95	342.55
466.32	340.75
466.68	338.83
467.05	337.08
467.42	335.18
467.78	333.16
468.15	331.52
468.52	330.25
468.88	328.48
469.25	326.90
469.62	325.72
469.98	324.49
470.35	323.30
470.72	322.14
471.08	320.72
471.45	319.81
471.82	318.86
472.18	317.64
472.55	316.90
472.92	315.78
473.28	314.72
473.65	313.89
474.02	312.93
474.38	312.21
474.75	311.63
475.11	311.02
475.48	310.58
475.85	310.15
476.21	309.59
476.58	309.20
476.94	309.00
477.31	308.58
477.67	308.24
478.04	307.94
478.41	307.81
478.77	308.13
479.14	307.86
479.50	307.87
479.87	307.96
480.23	308.00
480.60	308.05
480.96	308.30
481.33	308.63
481.69	308.96
482.06	309.32
482.42	309.55
482.79	309.89
483.15	310.44
483.52	310.99
483.88	311.40
484.25	311.90
484.61	312.47
484.98	313.19
485.34	314.20
485.71	315.06
486.07	316.01
486.44	316.63
486.80	317.68
487.17	318.58
487.53	319.87
487.90	321.21
488.26	322.80
488.62	324.28
488.99	325.72
489.35	327.37
489.72	329.11
490.08	330.96
490.44	332.91
490.81	334.77
491.17	336.75
491.54	339.10
491.90	341.53
492.26	343.98
492.63	346.51
492.99	349.06
493.36	351.91
493.72	354.90
494.08	357.95
494.45	361.36
494.81	365.02
495.17	368.56
495.54	372.17
495.90	375.94
496.26	379.91
496.63	384.20
496.99	388.42
497.35	392.81
497.72	397.49
498.08	402.37
498.44	407.58
498.80	412.91
499.17	418.30
499.53	423.80
499.89	429.80
500.26	435.82
500.62	441.96
500.98	448.49
501.34	454.95
501.71	461.92
502.07	468.79
502.43	475.81
502.79	483.26
503.16	491.20
503.52	499.11
503.88	507.14
504.24	515.60
504.60	524.30
504.97	533.47
505.33	542.70
505.69	552.26
506.05	561.86
506.41	571.64
506.78	581.73
507.14	592.23
507.50	602.81
507.86	613.78
508.22	624.92
508.59	636.11
508.95	647.98
509.31	660.09
509.67	672.26
510.03	684.57
510.39	697.00
510.75	709.68
511.12	722.50
511.48	735.86
511.84	749.05
512.20	762.58
512.56	776.24
512.92	790.41
513.28	804.36
513.64	818.62
514.00	833.40
514.37	848.14
514.73	863.15
515.09	878.32
515.45	893.50
515.81	908.81
516.17	924.17
516.53	939.22
516.89	954.35
517.25	970.03
517.61	986.33
517.97	1002.79
518.33	1018.91
518.69	1035.41
519.05	1051.86
519.41	1068.51
519.77	1085.53
520.13	1102.12
520.49	1118.29
520.85	1136.39
521.21	1153.33
521.57	1170.15
521.93	1186.49
522.29	1203.10
522.65	1219.14
523.01	1235.32
523.37	1251.29
523.73	1267.66
524.09	1283.52
524.45	1299.52
524.81	1315.71
525.17	1331.44
525.53	1346.90
525.89	1362.93
526.25	1378.37
526.61	1393.58
526.97	1409.26
527.33	1425.07
527.68	1441.31
528.04	1457.24
528.40	1471.41
528.76	1486.80
529.12	1501.62
529.48	1517.03
529.84	1531.53
530.20	1546.97
530.56	1562.30
530.91	1577.40
531.27	1592.08
531.63	1607.02
531.99	1621.83
532.35	1635.85
532.71	1650.11
533.07	1664.84
533.42	1678.95
533.78	1693.24
534.14	1707.36
534.50	1720.76
534.86	1734.02
535.21	1745.81
535.57	1758.30
535.93	1770.09
536.29	1781.70
536.65	1793.90
537.00	1805.49
537.36	1817.14
537.72	1827.45
538.08	1838.20
538.44	1849.02
538.79	1859.63
539.15	1870.25
539.51	1880.36
539.87	1889.93
540.22	1898.45
540.58	1907.32
540.94	1914.78
541.29	1922.10
541.65	1929.05
542.01	1936.00
542.37	1941.34
542.72	1947.19
543.08	1952.71
543.44	1959.31
543.79	1964.70
544.15	1969.68
544.51	1974.75
544.87	1979.43
545.22	1983.92
545.58	1987.49
545.94	1990.54
546.29	1992.79
546.65	1994.74
547.01	1996.18
547.36	1998.20
547.72	1999.94
548.07	2000.05
548.43	2001.39
548.79	2002.18
549.14	2002.89
549.50	2003.14
549.86	2003.87
550.21	2004.27
550.57	2004.40
550.92	2002.61
551.28	2001.16
551.64	2000.29
551.99	1998.95
552.35	1997.53
552.70	1996.66
553.06	1995.61
553.41	1993.90
553.77	1992.74
554.13	1991.42
554.48	1990.46
554.84	1988.77
555.19	1987.45
555.55	1986.72
555.90	1984.05
556.26	1981.15
556.61	1977.86
556.97	1973.95
557.32	1971.07
557.68	1967.72
558.03	1964.25
558.39	1961.30
558.74	1958.48
559.10	1954.25
559.45	1949.73
559.81	1944.65
560.16	1938.71
560.52	1932.97
560.87	1927.95
561.23	1922.38
561.58	1916.59
561.94	1909.49
562.29	1902.44
562.64	1895.51
563.00	1887.55
563.35	1880.97
563.71	1874.44
564.06	1868.21
564.42	1862.16
564.77	1855.62
565.12	1849.23
565.48	1842.62
565.83	1835.62
566.19	1828.56
566.54	1821.24
566.89	1814.00
567.25	1807.23
567.60	1801.01
567.96	1794.69
568.31	1787.73
568.66	1780.41
569.02	1772.95
569.37	1765.97
569.72	1759.45
570.08	1751.76
570.43	1743.97
570.78	1736.49
571.14	1728.76
571.49	1720.49
571.84	1712.53
572.20	1703.97
572.55	1695.72
572.90	1686.79
573.26	1678.36
573.61	1669.64
573.96	1661.12
574.31	1651.84
574.67	1642.59
575.02	1632.52
575.37	1622.31
575.72	1612.01
576.08	1602.44
576.43	1592.69
576.78	1582.81
577.13	1572.31
577.49	1563.00
577.84	1554.00
578.19	1544.92
578.54	1535.55
578.90	1526.52
579.25	1517.50
579.60	1508.09
579.95	1498.31
580.30	1488.61
580.66	1478.60
581.01	1468.64
581.36	1458.19
581.71	1448.95
582.06	1439.58
582.42	1430.56
582.77	1421.48
583.12	1412.80
583.47	1403.70
583.82	1395.02
584.17	1386.34
584.53	1377.96
584.88	1368.16
585.23	1358.56
585.58	1348.59
585.93	1339.16
586.28	1329.70
586.63	1319.63
586.98	1309.55
587.34	1300.23
587.69	1291.06
588.04	1282.33
588.39	1273.48
588.74	1264.90
589.09	1256.28
589.44	1247.03
589.79	1238.49
590.14	1230.07
590.49	1221.44
590.84	1212.96
591.19	1204.33
591.54	1195.48
591.89	1186.73
592.25	1179.52
592.60	1171.50
592.95	1163.34
593.30	1154.99
593.65	1146.62
594.00	1138.32
594.35	1131.85
594.70	1123.59
595.05	1115.58
595.40	1107.19
595.75	1099.14
596.10	1091.54
596.45	1083.77
596.80	1076.41
597.15	1068.62
597.50	1060.40
597.85	1052.66
598.19	1044.98
598.54	1037.00
598.89	1029.41
599.24	1022.04
599.59	1014.15
599.94	1006.95
600.29	999.80
600.64	992.77
600.99	985.56
601.34	979.08
601.69	971.18
602.04	964.57
602.39	957.85
602.74	951.80
603.08	945.44
603.43	939.05
603.78	932.34
604.13	925.85
604.48	919.32
604.83	912.76
605.18	906.17
605.53	899.60
605.87	893.52
606.22	887.72
606.57	881.69
606.92	875.43
607.27	869.30
607.62	863.54
607.96	857.92
608.31	852.69
608.66	846.96
609.01	841.10
609.36	835.23
609.70	829.44
610.05	823.42
610.40	817.63
610.75	811.66
611.10	806.25
611.44	800.56
611.79	794.93
612.14	789.68
612.49	784.35
612.83	779.18
613.18	773.96
613.53	768.72
613.88	763.28
614.22	757.99
614.57	752.68
614.92	747.21
615.27	742.03
615.61	736.42
615.96	731.31
616.31	726.23
616.65	721.60
617.00	716.64
617.35	711.79
617.70	706.94
618.04	702.37
618.39	697.60
618.74	693.31
619.08	688.71
619.43	684.06
619.78	679.31
620.12	674.54
620.47	669.94
620.82	665.25
621.16	660.69
621.51	656.57
621.85	652.36
622.20	647.97
622.55	643.43
622.89	639.27
623.24	635.08
623.59	630.82
623.93	626.42
624.28	622.49
624.62	618.96
624.97	615.19
625.32	611.13
625.66	607.15
626.01	602.89
626.35	599.17
626.70	595.37
627.04	591.92
627.39	588.29
627.73	584.80
628.08	581.30
628.43	577.64
628.77	573.86
629.12	570.22
629.46	567.03
629.81	563.93
630.15	560.68
630.50	557.10
630.84	553.93
631.19	550.73
631.53	547.57
631.88	543.65
632.22	540.24
632.57	537.16
632.91	533.90
633.26	530.99
633.60	527.79
633.95	524.65
634.29	521.26
634.64	518.09
634.98	514.70
635.32	511.77
635.67	509.08
636.01	506.30
636.36	503.36
636.70	500.56
637.05	497.63
637.39	494.89
637.73	492.19
638.08	489.28
638.42	486.35
638.77	483.38
639.11	480.60
639.45	477.67
639.80	474.82
640.14	472.13
640.49	469.31
640.83	466.77
641.17	464.19
641.52	461.79
641.86	459.43
642.20	457.15
642.55	454.50
642.89	451.86
643.23	449.39
643.58	447.25
643.92	444.69
644.26	442.28
644.61	440.09
644.95	437.77
645.29	435.40
645.64	433.26
645.98	430.97
646.32	428.98
646.66	426.80
647.01	424.55
647.35	422.52
647.69	420.52
648.04	418.55
648.38	416.66
648.72	414.62
649.06	412.54
649.41	410.50
649.75	408.47
650.09	406.48
650.43	404.44
650.78	402.26
651.12	400.27
651.46	398.36
651.80	396.34
652.14	394.64
652.49	393.02
652.83	391.24
653.17	389.49
653.51	387.51
653.85	385.95
654.20	384.37
654.54	382.66
654.88	380.91
655.22	379.44
655.56	377.78
655.90	376.26
656.25	374.65
656.59	373.06
656.93	371.64
657.27	370.35
657.61	368.74
657.95	367.34
658.29	365.85
658.64	364.48
658.98	362.81
659.32	361.10
659.66	359.58
660.00	358.10
660.34	356.78
660.68	355.39
661.02	354.00
661.36	352.64
661.70	351.27
662.05	349.97
662.39	348.54
662.73	347.26
663.07	346.22
663.41	345.02
663.75	343.67
664.09	342.40
664.43	340.93
664.77	339.80
665.11	338.52
665.45	337.45
665.79	336.32
666.13	335.30
666.47	334.16
666.81	332.91
667.15	331.66
667.49	330.65
667.83	329.86
668.17	328.75
668.51	327.77
668.85	326.81
669.19	326.08
669.53	324.92
669.87	323.90
670.21	322.74
670.55	321.75
670.89	321.09
671.23	320.08
671.57	319.17
671.91	318.22
672.25	317.30
672.58	316.42
672.92	315.37
673.26	314.45
673.60	313.67
673.94	312.86
674.28	312.24
674.62	311.48
674.96	310.44
675.30	309.61
675.64	308.75
675.97	307.88
676.31	306.82
676.65	306.01
676.99	305.36
677.33	304.39
677.67	303.63
678.01	302.56
678.34	301.87
678.68	301.31
679.02	300.52
679.36	299.79
679.70	298.98
680.04	298.32
680.37	297.70
680.71	297.00
681.05	296.36
681.39	295.69
681.73	294.87
682.06	294.23
682.40	293.54
682.74	292.92
683.08	292.51
683.42	291.84
683.75	291.28
684.09	290.59
684.43	290.06
684.77	289.40
685.10	288.88
685.44	288.32
685.78	287.62
686.12	287.08
686.45	286.53
686.79	285.95
687.13	285.44
687.46	284.80
687.80	284.38
688.14	283.80
688.48	283.20
688.81	282.70
689.15	282.25
689.49	281.72
689.82	281.12
690.16	280.31
690.50	279.79
690.83	279.21
691.17	278.58
691.51	278.08
691.84	277.64
692.18	277.16
692.52	276.58
692.85	276.16
693.19	275.94
693.52	275.46
693.86	275.01
694.20	274.51
694.53	274.15
694.87	273.54
695.21	273.18
695.54	272.71
695.88	272.22
696.21	271.65
696.55	271.20
696.88	270.76
697.22	270.37
697.56	269.94
697.89	269.42
698.23	269.06
698.56	268.59
698.90	268.30
699.23	267.82
699.57	267.47
699.90	266.95
700.24	266.32
700.58	265.98
700.91	265.67
701.25	265.70
701.58	265.59
701.92	265.35
702.25	264.90
702.59	264.49
702.92	264.19
703.26	263.96
703.59	263.64
703.93	263.79
704.26	263.49
704.60	263.23
704.93	262.88
705.26	262.54
705.60	262.29
705.93	261.84
706.27	261.63
706.60	261.47
706.94	261.50
707.27	261.25
707.61	260.93
707.94	260.65
708.27	259.96
708.61	259.41
708.94	259.09
709.28	258.77
709.61	258.53
709.94	258.30
710.28	258.04
710.61	257.85
710.95	257.10
711.28	257.15
711.61	256.81
711.95	256.72
712.28	256.43
712.61	256.23
712.95	256.16
713.28	256.09
713.61	255.68
713.95	255.21
714.28	254.97
714.61	254.75
714.95	254.41
715.28	254.06
715.61	253.77
715.95	253.47
716.28	253.24
716.61	252.97
716.95	252.56
717.28	252.28
717.61	251.92
717.94	251.68
718.28	250.97
718.61	250.74
718.94	250.44
719.27	250.19
719.61	249.94
719.94	249.62
720.27	249.20
720.60	248.94
720.94	248.73
721.27	248.62
721.60	248.45
721.93	248.22
722.27	248.24
722.60	248.07
722.93	247.91
723.26	247.77
723.59	247.52
723.93	247.54
724.26	247.35
724.59	247.23
724.92	247.15
725.25	247.18
725.59	246.95
725.92	246.80
726.25	246.64
726.58	246.44
726.91	246.25
727.24	246.16
727.57	246.05
727.91	245.77
728.24	245.50
728.57	245.28
728.90	245.15
729.23	244.85
729.56	244.95
729.89	244.72
730.22	244.57
730.55	244.44
730.89	244.24
731.22	244.01
731.55	243.82
731.88	243.59
732.21	243.39
732.54	243.29
732.87	243.15
733.20	243.03
733.53	242.90
733.86	242.79
734.19	242.56
734.52	242.51
734.85	242.67
735.18	242.51
735.51	242.55
735.84	242.49
736.17	242.46
736.50	242.04
736.83	242.50
737.16	242.30
737.49	242.18
737.82	241.97
738.15	241.92
738.48	241.76
738.81	241.57
739.14	241.39
739.47	241.30
739.80	241.18
740.13	241.06
740.46	240.91
740.79	240.69
741.12	240.59
741.45	240.30
741.78	240.00
742.11	240.01
742.44	239.77
742.77	239.73
743.10	239.50
743.43	239.37
743.75	238.70
744.08	239.27
744.41	239.12
744.74	238.99
745.07	238.83
745.40	238.83
745.73	238.95
746.06	238.86
746.39	238.74
746.71	238.55
747.04	238.43
747.37	238.25
747.70	238.26
748.03	238.12
748.36	238.15
748.68	237.97
749.01	237.76
749.34	237.64
749.67	237.46
750.00	237.44
750.33	237.72
750.65	237.69
750.98	236.90
751.31	236.85
751.64	236.82
751.97	237.01
752.29	236.86
752.62	236.56
752.95	236.40
753.28	236.28
753.60	236.15
753.93	236.22
754.26	236.25
754.59	236.05
754.91	235.96
755.24	235.82
755.57	235.77
755.90	235.62
756.22	235.51
756.55	235.38
756.88	235.22
757.20	234.84
757.53	234.60
757.86	234.53
758.19	234.43
758.51	234.28
758.84	233.89
759.17	233.76
759.49	233.66
759.82	233.85
760.15	233.88
760.47	233.92
760.80	233.65
761.13	233.56
761.45	233.48
761.78	233.40
762.11	233.33
762.43	233.21
762.76	233.13
763.08	233.11
763.41	233.03
763.74	232.97
764.06	232.78
764.39	232.76
764.71	232.76
765.04	232.71
765.37	232.65
765.69	232.60
766.02	232.60
766.34	232.57
766.67	232.29
767.00	232.24
767.32	232.45
767.65	232.66
767.97	232.53
768.30	232.49
768.62	232.38
768.95	232.30
769.27	232.23
769.60	232.30
769.92	232.16
770.25	232.10
770.57	232.02
770.90	232.05
771.22	231.90
771.55	231.79
771.87	231.80
772.20	231.75
772.52	232.14
772.85	232.65
773.17	232.57
773.50	232.45
773.82	232.33
774.15	231.94
774.47	231.56
774.80	231.50
775.12	231.48
775.45	231.37
775.77	231.30
776.09	231.32
776.42	231.25
776.74	231.35
777.07	231.25
777.39	231.20
777.72	231.09
778.04	231.22
778.36	231.13
778.69	231.05
779.01	231.04
779.33	230.55
779.66	229.92
779.98	229.89
780.31	229.99
780.63	230.15
780.95	230.18
781.28	230.14
781.60	230.12
781.92	230.10
782.25	230.15
782.57	230.20
782.89	230.12
783.22	230.00
783.54	229.84
783.86	229.89
784.19	229.83
784.51	229.99
784.83	229.86
785.16	229.82
785.48	229.76
785.80	229.77
786.12	229.79
786.45	229.81
786.77	229.75
787.09	229.64
787.42	229.45
787.74	229.48
788.06	229.53
788.38	229.48
788.71	229.34
789.03	229.40
789.35	229.37
789.67	229.32
789.99	229.33
790.32	229.22
790.64	229.24
790.96	229.63
791.28	229.36
791.61	229.33
791.93	229.40
792.25	229.38
792.57	229.67
792.89	229.53
793.21	229.51
793.54	229.56
793.86	229.47
794.18	229.42
794.50	229.23
794.82	229.25
795.14	229.32
795.47	229.41
795.79	229.38
796.11	229.28
796.43	229.16
796.75	229.10
797.07	229.21
797.39	229.09
797.71	228.70
798.04	228.78
798.36	228.79
798.68	228.70
799.00	228.72
799.32	228.41
799.64	228.52
799.96	228.52
800.28	228.58
800.60	228.64
800.92	228.65
801.24	228.71
801.56	228.64
801.89	228.52
802.21	228.49
802.53	228.37
802.85	228.45
803.17	228.72
803.49	228.66
803.81	228.57
804.13	228.59
804.45	228.50
804.77	228.48
805.09	228.43
805.41	228.42
805.73	228.30
806.05	228.19
806.37	228.21
806.69	228.11
807.01	228.03
807.33	227.98
807.65	227.82
807.97	227.94
808.28	227.92
808.60	227.98
808.92	227.96
809.24	228.21
809.56	228.14
809.88	227.97
810.20	227.96
810.52	228.04
810.84	227.86
811.16	227.88
811.48	227.85
811.80	228.00
812.12	227.99
812.43	228.12
812.75	228.17
813.07	228.06
813.39	228.07
813.71	227.93
814.03	227.92
814.35	227.99
814.67	227.85
814.98	227.79
815.30	227.72
815.62	227.52
815.94	227.28
816.26	227.49
816.58	227.32
816.89	227.42
817.21	227.29
817.53	227.43
817.85	227.44
818.17	227.48
818.48	227.34
818.80	227.43
819.12	227.27
819.44	227.14
819.76	227.11
820.07	227.19
820.39	227.21
820.71	227.23
821.03	227.23
821.34	227.18
821.66	227.22
821.98	227.24
822.30	227.33
822.61	227.48
822.93	227.20
823.25	227.27
823.57	227.25
823.88	227.36
824.20	227.37
824.52	227.42
824.83	227.37
825.15	227.36
825.47	227.21
825.79	227.32
826.10	227.36
826.42	227.34
826.74	227.33
827.05	227.31
827.37	227.26
827.69	227.22
828.00	227.26
828.32	227.30
828.64	227.25
828.95	227.47
829.27	227.37
829.58	227.40
829.90	227.52
830.22	227.50
830.53	227.34
830.85	227.21
831.17	227.04
831.48	227.02
831.80	227.03
832.11	227.04
832.43	226.92
832.75	226.93
833.06	227.22
833.38	227.01
833.69	227.02
834.01	227.03
834.32	227.00
834.64	226.88
834.96	226.92
835.27	226.96
835.59	226.80
835.90	226.80
836.22	226.79
836.53	226.62
836.85	226.55
837.16	227.06
837.48	227.05
837.79	227.20
838.11	227.23
838.42	227.20
838.74	227.27
839.05	227.22
839.37	227.18
839.68	226.91
840.00	227.01
840.31	227.07
840.63	227.04
840.94	226.99
841.26	227.03
841.57	226.95
841.88	226.88
842.20	226.83
842.51	226.73
842.83	226.70
843.14	227.22
843.46	227.26
843.77	226.98
844.08	226.93
844.40	226.86
844.71	226.78
845.03	226.71
845.34	226.71
845.65	226.74
845.97	226.77
846.28	226.71
846.60	226.67
846.91	226.56
847.22	226.56
847.54	226.65
847.85	226.67
848.16	226.64
848.48	226.58
848.79	226.80
849.10	226.85
849.42	226.88
849.73	226.38
850.04	226.38
850.36	226.18
850.67	226.34
850.98	226.35
851.30	226.42
851.61	226.42
851.92	226.34
852.23	226.46
852.55	226.48
852.86	226.54
853.17	226.56
853.49	226.67
853.80	226.80
854.11	226.87
854.42	226.95
854.74	226.95
855.05	227.00
855.36	226.74
855.67	226.71
855.99	226.74
856.30	227.38
856.61	227.34
856.92	227.37
857.23	227.34
857.55	227.23
857.86	227.19
858.17	227.31
858.48	227.31
858.79	227.30
859.11	227.37
859.42	227.32
859.73	227.27
860.04	227.29
860.35	227.16
860.66	227.05
860.98	227.02
861.29	227.05
861.60	227.00
861.91	227.16
862.22	227.11
862.53	226.97
862.84	226.34
863.16	226.40
863.47	226.35
863.78	226.32
864.09	226.43
864.40	226.46
864.71	226.50
865.02	226.52
865.33	226.39
865.64	226.33
865.95	226.37
866.27	226.69
866.58	226.67
866.89	226.76
867.20	226.67
867.51	226.61
867.82	226.55
868.13	226.73
868.44	226.56
868.75	226.62
869.06	226.69
869.37	226.78
869.68	226.68
869.99	226.72
870.30	226.77
870.61	226.77
870.92	226.66
871.23	226.57
871.54	226.64
871.85	226.78
872.16	226.80
872.47	226.81
872.78	226.59
873.09	226.68
873.40	226.53
873.71	226.65
874.02	226.59
874.33	226.68
874.64	226.55
874.95	226.68
875.26	226.63
875.56	226.65
875.87	226.59
876.18	226.62
876.49	227.12
876.80	227.09
877.11	227.03
877.42	227.09
877.73	227.14
878.04	227.05
878.35	227.01
878.66	226.98
878.96	226.90
879.27	226.85
879.58	226.73
879.89	226.75
880.20	226.87
880.51	226.93
880.82	226.87
881.12	226.91
881.43	226.86
881.74	226.79
882.05	226.78
882.36	226.84
882.67	226.83
882.97	226.29
883.28	226.25
883.59	226.22
883.90	226.22
884.21	226.31
884.51	226.31
884.82	226.23
885.13	226.24
885.44	226.22
885.74	226.24
886.05	226.19
886.36	226.25
886.67	226.05
886.98	226.26
887.28	226.22
887.59	226.22
887.90	226.21
888.20	226.17
888.51	226.24
888.82	226.06
889.13	226.09
889.43	226.50
889.74	226.45
890.05	226.48
890.35	226.43
890.66	226.25
890.97	226.21
891.28	226.18
891.58	226.18
891.89	226.14
892.20	226.07
892.50	226.06
892.81	225.98
893.12	226.01
893.42	225.77
893.73	225.87
894.04	225.85
894.34	225.83
894.65	225.88
894.95	225.83
895.26	225.90
895.57	226.14
895.87	225.74
896.18	225.86
896.48	225.88
896.79	225.86
897.10	225.89
897.40	225.98
897.71	226.00
898.01	225.97
898.32	226.08
898.63	226.05
898.93	226.05
899.24	226.15
899.54	226.08
899.85	226.06
900.15	225.94
900.46	225.87
900.76	225.88
901.07	225.90
901.38	225.85
901.68	225.90
901.99	225.63
902.29	225.56
902.60	225.51
902.90	225.42
903.21	225.45
903.51	225.47
903.82	225.50
904.12	225.56
904.43	225.60
904.73	225.55
905.03	225.60
905.34	226.07
905.64	225.95
905.95	225.97
906.25	225.97
906.56	226.04
906.86	226.11
907.17	226.10
907.47	226.03
907.77	225.99
908.08	225.91
908.38	225.94
908.69	226.03
908.99	226.10
909.30	226.16
909.60	226.16
909.90	226.13
910.21	225.99
910.51	225.91
910.81	225.85
911.12	225.83
911.42	225.86
911.73	225.33
912.03	225.33
912.33	225.49
912.64	225.47
912.94	225.47
913.24	225.37
913.55	225.30
913.85	225.28
914.15	225.37
914.46	225.41
914.76	225.37
915.06	225.26
915.37	225.15
915.67	225.10
915.97	225.07
916.27	225.03
916.58	225.10
916.88	225.08
917.18	225.03
917.49	225.34
917.79	225.24
918.09	225.43
918.39	225.49
918.70	225.38
919.00	225.38
919.30	225.51
919.60	225.46
919.91	225.46
920.21	225.58
920.51	225.49
920.81	225.45
921.12	225.53
921.42	225.58
921.72	225.63
922.02	225.68
922.32	225.76
922.63	225.73
922.93	225.85
923.23	225.93
923.53	225.95
923.83	225.68
924.13	225.80
924.44	225.73
924.74	225.90
925.04	226.00
925.34	226.06
925.64	225.90
925.94	225.98
926.24	226.22
926.55	226.10
926.85	226.18
927.15	226.22
927.45	226.24
927.75	226.22
928.05	226.27
928.35	226.24
928.65	226.31
928.95	226.38
929.26	226.24
929.56	226.28
929.86	226.37
930.16	226.36
930.46	226.31
930.76	226.32
931.06	226.08
931.36	225.99
931.66	226.05
931.96	226.11
932.26	226.11
932.56	226.02
932.86	226.10
933.16	226.10
933.46	226.06
933.76	225.99
934.06	226.18
934.36	226.37
934.66	226.36
934.96	226.28
935.26	226.29
935.56	226.35
935.86	226.27
936.16	226.20
936.46	226.14
936.76	226.20
937.06	226.17
937.36	226.30
937.66	226.30
937.96	226.19
938.26	226.08
938.56	226.03
938.86	225.92
939.16	226.05
939.46	226.13
939.76	226.16
940.06	226.14
940.35	225.94
940.65	225.64
940.95	225.68
941.25	225.59
941.55	225.51
941.85	225.52
942.15	225.55
942.45	225.73
942.75	225.75
943.04	225.66
943.34	225.73
943.64	225.60
943.94	225.51
944.24	225.61
944.54	225.66
944.84	225.68
945.13	225.68
945.43	225.54
945.73	225.46
946.03	225.43
946.33	225.36
946.62	225.41
946.92	225.37
947.22	225.41
947.52	225.44
947.82	225.55
948.11	225.49
948.41	225.42
948.71	225.23
949.01	225.24
949.31	225.22
949.60	225.22
949.90	225.30
950.20	225.27
950.50	225.29
950.79	225.28
951.09	225.34
951.39	225.36
951.69	225.30
951.98	225.39
952.28	225.37
952.58	225.33
952.87	225.29
953.17	225.43
953.47	225.31
953.76	225.31
954.06	225.25
954.36	225.19
954.66	225.18
954.95	225.29
955.25	225.26
955.55	225.25
955.84	225.15
956.14	225.16
956.44	225.23
956.73	225.08
957.03	225.06
957.32	224.98
957.62	224.93
957.92	225.03
958.21	224.99
958.51	225.55
958.81	225.62
959.10	225.66
959.40	225.73
959.69	225.74
959.99	225.84
960.29	225.86
960.58	225.81
960.88	226.00
961.17	225.96
961.47	226.09
961.76	226.07
962.06	226.15
962.36	226.09
962.65	226.13
962.95	226.17
963.24	226.11
963.54	226.16
963.83	226.22
964.13	226.17
964.42	226.03
964.72	225.61
965.01	225.69
965.31	225.71
965.60	225.57
965.90	225.96
966.19	225.86
966.49	225.85
966.78	225.89
967.08	225.85
967.37	225.85
967.67	225.74
967.96	225.84
968.26	225.86
968.55	225.92
968.85	225.91
969.14	225.93
969.43	225.96
969.73	225.98
970.02	225.93
970.32	226.00
970.61	226.00
970.91	225.89
971.20	225.77
971.49	225.71
971.79	225.83
972.08	225.45
972.38	225.43
972.67	225.40
972.96	225.50
973.26	225.33
973.55	225.44
973.85	225.40
974.14	225.40
974.43	225.39
974.73	225.23
975.02	225.22
975.31	225.20
975.61	225.19
975.90	225.07
976.19	225.05
976.49	225.02
976.78	225.03
977.07	225.03
977.37	225.13
977.66	225.17
977.95	225.05
978.24	225.06
978.54	225.18
978.83	225.25
979.12	225.16
979.42	225.26
979.71	225.24
980.00	225.23
980.29	225.23
980.59	225.17
980.88	225.25
981.17	225.16
981.46	225.16
981.76	225.17
982.05	225.43
982.34	225.43
982.63	225.48
982.93	225.49
983.22	225.64
983.51	225.58
983.80	225.65
984.09	225.70
984.39	225.71
984.68	225.61
984.97	225.55
985.26	225.52
985.55	225.47
985.85	225.31
986.14	225.40
986.43	225.41
986.72	225.38
987.01	225.33
987.30	225.36
987.59	225.28
987.89	225.32
988.18	225.14
988.47	225.09
988.76	224.97
989.05	224.87
989.34	224.80
989.63	224.95
989.92	224.83
990.22	224.71
990.51	224.68
990.80	224.68
991.09	224.72
991.38	224.81
991.67	224.80
991.96	224.74
992.25	224.77
992.54	224.65
992.83	224.64
993.12	224.65
993.41	224.71
993.70	224.95
993.99	224.98
994.28	225.02
994.58	225.07
994.87	225.01
995.16	225.12
995.45	224.96
995.74	224.68
996.03	224.82
996.32	224.95
996.61	225.10
996.90	225.01
997.19	224.97
997.48	224.95
997.77	224.89
998.06	224.98
998.34	224.91
998.63	224.90
998.92	224.95
999.21	225.03
999.50	225.06
999.79	224.91
1000.08	224.91
1000.37	224.94
1000.66	224.93
1000.95	225.10
1001.24	225.11
1001.53	225.30
1001.82	225.38
1002.11	225.22
1002.40	225.26
1002.68	225.37
1002.97	225.78
1003.26	225.82
1003.55	225.76
1003.84	225.82
1004.13	225.95
1004.42	225.93
1004.71	226.01
1004.99	225.94
1005.28	226.12
1005.57	226.05
1005.86	226.05
1006.15	226.07
1006.44	226.00
1006.72	226.05
1007.01	225.97
1007.30	225.97
1007.59	225.88
1007.88	225.90
1008.17	225.97
1008.45	225.90
1008.74	225.67
1009.03	225.48
1009.32	225.47
1009.60	225.41
1009.89	225.35
1010.18	225.19
1010.47	225.18
1010.76	225.07
1011.04	225.05
1011.33	224.97
1011.62	225.03
1011.91	225.01
1012.19	224.97
1012.48	225.07
1012.77	225.09
1013.05	225.40
1013.34	225.38
1013.63	225.44
1013.92	225.52
1014.20	225.50
1014.49	225.54
1014.78	225.57
1015.06	225.40
1015.35	225.40
1015.64	225.52
1015.92	225.66
1016.21	225.68
1016.50	225.69
1016.78	225.78
1017.07	225.85
1017.36	225.81
1017.64	225.81
1017.93	225.86
1018.22	225.85
1018.50	225.77
1018.79	225.73
1019.08	225.42
1019.36	225.46
1019.65	225.42
1019.93	225.44
1020.22	225.48
1020.51	225.66
1020.79	225.55
1021.08	225.05
1021.36	224.95
1021.65	225.25
1021.94	224.75
1022.22	225.70
1022.51	225.45
1022.79	226.30
1023.08	225.90
1023.36	230.60
1023.65	222.50
>>>>>End Processed Spectral Data<<<<<
