SpectraSuite Data File
++++++++++++++++++++++++++++++++++++
Date: Wed Sep 04 17:41:57 EDT 2013
User: lab3
Dark Spectrum Present: Yes
Reference Spectrum Present: No
Number of Sampled Component Spectra: 1
Spectrometers: USB2E7196
Integration Time (usec): 170000 (USB2E7196)
Spectra Averaged: 20 (USB2E7196)
Boxcar Smoothing: 10 (USB2E7196)
Correct for Electrical Dark: No (USB2E7196)
Strobe/Lamp Enabled: No (USB2E7196)
Correct for Detector Non-linearity: No (USB2E7196)
Correct for Stray Light: No (USB2E7196)
Number of Pixels in Processed Spectrum: 2048
>>>>>Begin Processed Spectral Data<<<<<
339.09	0.00
339.48	212.45
339.86	212.75
340.24	215.85
340.63	216.85
341.01	225.00
341.39	219.10
341.78	221.65
342.16	223.20
342.54	223.10
342.93	211.42
343.31	222.09
343.69	222.65
344.07	223.20
344.46	223.65
344.84	223.98
345.22	223.95
345.60	224.22
345.99	224.39
346.37	224.45
346.75	224.50
347.13	224.56
347.52	224.63
347.90	224.90
348.28	224.92
348.66	225.06
349.05	224.89
349.43	224.97
349.81	225.09
350.19	225.22
350.57	225.30
350.96	225.42
351.34	225.57
351.72	225.66
352.10	225.66
352.48	225.64
352.87	225.72
353.25	225.78
353.63	225.82
354.01	225.83
354.39	225.97
354.77	226.05
355.15	226.25
355.54	226.25
355.92	226.14
356.30	226.29
356.68	226.68
357.06	226.84
357.44	226.83
357.82	226.88
358.20	227.26
358.58	227.39
358.97	227.45
359.35	227.50
359.73	227.60
360.11	227.65
360.49	227.82
360.87	227.89
361.25	228.00
361.63	228.23
362.01	228.40
362.39	228.38
362.77	228.49
363.15	228.40
363.53	228.40
363.91	228.54
364.29	228.50
364.67	228.07
365.05	228.09
365.43	228.17
365.81	228.24
366.19	228.07
366.57	228.24
366.95	228.22
367.33	228.17
367.71	228.22
368.09	228.40
368.47	228.31
368.85	228.32
369.23	228.48
369.61	228.33
369.99	228.41
370.37	228.44
370.75	228.64
371.13	228.59
371.51	228.60
371.89	228.58
372.27	228.65
372.65	228.65
373.03	228.58
373.41	228.50
373.78	228.38
374.16	228.10
374.54	227.88
374.92	227.78
375.30	227.73
375.68	227.51
376.06	227.50
376.44	227.44
376.82	227.44
377.19	227.30
377.57	227.23
377.95	226.98
378.33	226.89
378.71	226.54
379.09	226.57
379.47	226.56
379.84	226.46
380.22	226.29
380.60	226.09
380.98	226.10
381.36	226.08
381.73	225.99
382.11	226.00
382.49	225.97
382.87	225.89
383.25	225.80
383.62	226.35
384.00	226.16
384.38	226.16
384.76	226.13
385.13	226.33
385.51	226.23
385.89	226.09
386.27	226.03
386.64	226.03
387.02	225.97
387.40	225.87
387.78	225.79
388.15	225.80
388.53	225.81
388.91	225.67
389.29	225.56
389.66	225.61
390.04	225.54
390.42	225.56
390.79	225.55
391.17	225.59
391.55	225.01
391.92	225.02
392.30	225.01
392.68	224.91
393.05	224.77
393.43	224.83
393.81	224.86
394.18	224.86
394.56	224.84
394.94	224.90
395.31	224.92
395.69	225.15
396.06	225.22
396.44	225.28
396.82	225.33
397.19	225.64
397.57	225.68
397.95	225.82
398.32	225.78
398.70	225.85
399.07	226.00
399.45	226.06
399.82	226.09
400.20	226.12
400.58	226.20
400.95	226.11
401.33	226.29
401.70	226.85
402.08	226.98
402.45	227.11
402.83	227.33
403.20	227.51
403.58	227.59
403.95	227.83
404.33	227.92
404.71	228.12
405.08	228.59
405.46	228.78
405.83	228.94
406.21	229.18
406.58	229.45
406.96	229.68
407.33	229.98
407.70	230.39
408.08	231.14
408.45	231.56
408.83	232.00
409.20	232.26
409.58	232.30
409.95	232.80
410.33	233.32
410.70	233.60
411.08	234.11
411.45	234.61
411.82	235.09
412.20	235.83
412.57	236.76
412.95	236.94
413.32	237.63
413.69	238.37
414.07	239.13
414.44	239.95
414.82	240.79
415.19	241.87
415.56	242.84
415.94	243.57
416.31	244.77
416.68	245.94
417.06	247.32
417.43	248.69
417.81	250.13
418.18	251.69
418.55	253.34
418.93	255.00
419.30	256.73
419.67	258.59
420.04	260.50
420.42	262.36
420.79	264.98
421.16	267.36
421.54	270.01
421.91	272.51
422.28	275.05
422.66	277.81
423.03	280.74
423.40	283.50
423.77	286.51
424.15	289.53
424.52	292.71
424.89	296.20
425.26	299.54
425.64	302.69
426.01	306.13
426.38	309.79
426.75	313.50
427.13	317.21
427.50	321.14
427.87	325.23
428.24	329.35
428.61	333.05
428.99	337.62
429.36	342.00
429.73	346.59
430.10	351.18
430.47	355.87
430.85	360.45
431.22	365.63
431.59	371.30
431.96	376.43
432.33	382.24
432.70	387.87
433.08	394.40
433.45	400.55
433.82	406.70
434.19	413.54
434.56	420.35
434.93	426.75
435.30	433.13
435.68	440.29
436.05	447.30
436.42	454.19
436.79	460.37
437.16	467.33
437.53	474.58
437.90	481.84
438.27	488.95
438.64	496.34
439.01	503.14
439.38	509.03
439.75	514.93
440.13	521.53
440.50	527.78
440.87	532.86
441.24	538.25
441.61	543.88
441.98	548.12
442.35	552.79
442.72	557.96
443.09	562.93
443.46	565.76
443.83	567.60
444.20	569.41
444.57	571.80
444.94	572.84
445.31	573.83
445.68	575.15
446.05	575.47
446.42	574.42
446.79	573.45
447.16	572.15
447.53	571.10
447.90	568.12
448.27	565.10
448.64	561.03
449.01	558.02
449.37	553.10
449.74	548.24
450.11	542.86
450.48	536.39
450.85	529.86
451.22	524.24
451.59	518.82
451.96	513.46
452.33	506.77
452.70	500.69
453.07	493.58
453.43	485.92
453.80	478.86
454.17	472.25
454.54	465.77
454.91	459.06
455.28	452.46
455.65	446.31
456.02	440.76
456.38	435.58
456.75	429.14
457.12	423.82
457.49	418.52
457.86	413.10
458.23	408.86
458.59	403.94
458.96	399.19
459.33	394.95
459.70	390.84
460.07	387.42
460.43	383.45
460.80	379.93
461.17	376.85
461.54	373.58
461.91	370.48
462.27	367.25
462.64	364.47
463.01	361.59
463.38	358.85
463.74	355.34
464.11	352.72
464.48	350.55
464.85	348.20
465.21	346.45
465.58	344.67
465.95	342.29
466.32	340.56
466.68	338.70
467.05	336.84
467.42	334.99
467.78	332.98
468.15	331.23
468.52	329.92
468.88	328.10
469.25	326.52
469.62	325.28
469.98	324.10
470.35	322.95
470.72	321.81
471.08	320.44
471.45	319.49
471.82	318.55
472.18	317.39
472.55	316.60
472.92	315.54
473.28	314.54
473.65	313.65
474.02	312.72
474.38	312.01
474.75	311.54
475.11	310.83
475.48	310.43
475.85	310.04
476.21	309.53
476.58	309.19
476.94	308.92
477.31	308.60
477.67	308.14
478.04	307.87
478.41	307.73
478.77	308.09
479.14	307.83
479.50	307.83
479.87	307.96
480.23	307.95
480.60	307.98
480.96	308.14
481.33	308.57
481.69	308.90
482.06	309.20
482.42	309.55
482.79	309.95
483.15	310.40
483.52	310.94
483.88	311.40
484.25	312.00
484.61	312.66
484.98	313.26
485.34	314.21
485.71	315.10
486.07	316.01
486.44	316.44
486.80	317.48
487.17	318.56
487.53	319.75
487.90	321.01
488.26	322.49
488.62	324.04
488.99	325.53
489.35	327.07
489.72	328.76
490.08	330.54
490.44	332.35
490.81	334.37
491.17	336.41
491.54	338.70
491.90	340.87
492.26	343.35
492.63	346.02
492.99	348.65
493.36	351.40
493.72	354.44
494.08	357.64
494.45	360.99
494.81	364.55
495.17	368.00
495.54	371.80
495.90	375.64
496.26	379.53
496.63	383.70
496.99	388.14
497.35	392.65
497.72	397.40
498.08	402.35
498.44	407.48
498.80	412.91
499.17	418.28
499.53	423.97
499.89	429.91
500.26	435.93
500.62	442.15
500.98	448.80
501.34	455.29
501.71	462.13
502.07	469.05
502.43	476.10
502.79	483.63
503.16	491.32
503.52	499.23
503.88	507.47
504.24	515.99
504.60	524.84
504.97	533.85
505.33	542.98
505.69	552.68
506.05	562.24
506.41	572.10
506.78	582.29
507.14	593.01
507.50	603.59
507.86	614.40
508.22	625.59
508.59	636.76
508.95	648.62
509.31	660.82
509.67	673.01
510.03	685.28
510.39	697.71
510.75	710.56
511.12	723.43
511.48	736.72
511.84	749.79
512.20	763.20
512.56	776.83
512.92	791.02
513.28	805.09
513.64	819.46
514.00	833.84
514.37	848.39
514.73	863.31
515.09	878.43
515.45	893.53
515.81	908.87
516.17	924.32
516.53	939.54
516.89	954.68
517.25	970.49
517.61	986.88
517.97	1003.36
518.33	1019.31
518.69	1035.69
519.05	1052.01
519.41	1068.58
519.77	1085.42
520.13	1101.92
520.49	1117.99
520.85	1135.77
521.21	1152.48
521.57	1169.21
521.93	1185.64
522.29	1202.19
522.65	1218.26
523.01	1234.69
523.37	1250.41
523.73	1266.94
524.09	1282.92
524.45	1298.79
524.81	1314.85
525.17	1330.55
525.53	1346.32
525.89	1362.36
526.25	1378.18
526.61	1393.56
526.97	1409.26
527.33	1425.16
527.68	1441.56
528.04	1457.77
528.40	1472.29
528.76	1487.74
529.12	1502.97
529.48	1518.22
529.84	1532.84
530.20	1548.32
530.56	1563.44
530.91	1578.85
531.27	1593.40
531.63	1608.14
531.99	1622.80
532.35	1636.90
532.71	1651.08
533.07	1665.53
533.42	1679.67
533.78	1693.45
534.14	1707.38
534.50	1720.89
534.86	1734.07
535.21	1745.96
535.57	1758.47
535.93	1769.94
536.29	1781.89
536.65	1793.92
537.00	1805.73
537.36	1817.15
537.72	1827.76
538.08	1838.92
538.44	1849.69
538.79	1859.99
539.15	1870.62
539.51	1880.79
539.87	1890.42
540.22	1899.30
540.58	1908.24
540.94	1915.88
541.29	1923.15
541.65	1930.48
542.01	1937.82
542.37	1943.47
542.72	1949.46
543.08	1954.81
543.44	1961.42
543.79	1966.72
544.15	1971.81
544.51	1976.87
544.87	1981.73
545.22	1985.89
545.58	1989.18
545.94	1992.10
546.29	1994.61
546.65	1996.77
547.01	1998.65
547.36	2000.16
547.72	2001.84
548.07	2001.75
548.43	2003.05
548.79	2003.97
549.14	2004.47
549.50	2004.31
549.86	2004.54
550.21	2005.04
550.57	2005.32
550.92	2003.95
551.28	2002.59
551.64	2001.76
551.99	2000.75
552.35	1999.31
552.70	1998.39
553.06	1997.22
553.41	1995.85
553.77	1995.03
554.13	1993.76
554.48	1992.55
554.84	1991.18
555.19	1989.48
555.55	1988.72
555.90	1986.07
556.26	1983.60
556.61	1980.36
556.97	1976.68
557.32	1974.08
557.68	1971.06
558.03	1967.58
558.39	1964.32
558.74	1961.49
559.10	1956.78
559.45	1952.09
559.81	1947.05
560.16	1941.50
560.52	1935.75
560.87	1930.49
561.23	1924.54
561.58	1918.47
561.94	1911.69
562.29	1904.72
562.64	1897.81
563.00	1890.21
563.35	1883.92
563.71	1877.54
564.06	1871.17
564.42	1865.17
564.77	1858.50
565.12	1851.39
565.48	1844.63
565.83	1837.73
566.19	1830.35
566.54	1823.63
566.89	1816.56
567.25	1809.69
567.60	1803.48
567.96	1797.34
568.31	1790.55
568.66	1783.17
569.02	1775.47
569.37	1768.57
569.72	1762.09
570.08	1754.55
570.43	1746.83
570.78	1739.10
571.14	1731.07
571.49	1723.04
571.84	1715.25
572.20	1707.01
572.55	1698.71
572.90	1690.15
573.26	1681.63
573.61	1672.89
573.96	1664.14
574.31	1654.66
574.67	1645.50
575.02	1635.38
575.37	1625.27
575.72	1615.06
576.08	1605.87
576.43	1596.25
576.78	1586.05
577.13	1575.82
577.49	1566.27
577.84	1557.06
578.19	1547.98
578.54	1538.57
578.90	1529.34
579.25	1519.90
579.60	1510.23
579.95	1500.82
580.30	1490.78
580.66	1480.98
581.01	1471.00
581.36	1460.62
581.71	1451.42
582.06	1442.20
582.42	1432.98
582.77	1423.77
583.12	1415.01
583.47	1405.84
583.82	1397.33
584.17	1388.77
584.53	1380.03
584.88	1370.47
585.23	1360.82
585.58	1350.51
585.93	1340.98
586.28	1331.50
586.63	1321.56
586.98	1311.48
587.34	1302.00
587.69	1292.79
588.04	1283.69
588.39	1275.21
588.74	1266.65
589.09	1257.98
589.44	1248.44
589.79	1239.73
590.14	1231.25
590.49	1222.54
590.84	1213.78
591.19	1205.08
591.54	1196.40
591.89	1187.59
592.25	1180.77
592.60	1172.93
592.95	1164.89
593.30	1156.55
593.65	1148.19
594.00	1139.99
594.35	1133.69
594.70	1125.60
595.05	1117.62
595.40	1109.41
595.75	1101.09
596.10	1093.35
596.45	1085.50
596.80	1078.24
597.15	1070.57
597.50	1062.39
597.85	1054.76
598.19	1046.88
598.54	1038.81
598.89	1031.03
599.24	1023.71
599.59	1015.44
599.94	1007.95
600.29	1000.95
600.64	994.08
600.99	986.71
601.34	979.97
601.69	971.73
602.04	964.99
602.39	958.33
602.74	952.10
603.08	945.69
603.43	939.41
603.78	932.76
604.13	926.17
604.48	919.59
604.83	913.09
605.18	906.28
605.53	899.90
605.87	893.86
606.22	888.04
606.57	881.85
606.92	875.35
607.27	869.32
607.62	863.57
607.96	857.84
608.31	852.61
608.66	846.93
609.01	841.15
609.36	835.30
609.70	829.66
610.05	823.73
610.40	818.08
610.75	812.23
611.10	806.60
611.44	800.85
611.79	795.36
612.14	789.95
612.49	784.50
612.83	779.32
613.18	774.01
613.53	768.71
613.88	763.51
614.22	758.30
614.57	752.91
614.92	747.56
615.27	742.27
615.61	736.77
615.96	731.64
616.31	726.62
616.65	721.80
617.00	716.78
617.35	711.85
617.70	706.94
618.04	702.01
618.39	697.27
618.74	692.98
619.08	688.30
619.43	683.60
619.78	678.88
620.12	674.12
620.47	669.51
620.82	664.59
621.16	660.04
621.51	656.04
621.85	651.79
622.20	647.24
622.55	642.71
622.89	638.57
623.24	634.34
623.59	629.97
623.93	625.68
624.28	621.62
624.62	618.12
624.97	614.42
625.32	610.52
625.66	606.51
626.01	602.26
626.35	598.58
626.70	594.85
627.04	591.36
627.39	587.66
627.73	584.12
628.08	580.68
628.43	577.04
628.77	573.13
629.12	569.69
629.46	566.45
629.81	563.40
630.15	560.10
630.50	556.74
630.84	553.59
631.19	550.28
631.53	547.01
631.88	543.23
632.22	539.69
632.57	536.80
632.91	533.61
633.26	530.69
633.60	527.41
633.95	524.30
634.29	521.05
634.64	518.02
634.98	514.69
635.32	511.75
635.67	508.90
636.01	506.04
636.36	502.92
636.70	500.09
637.05	497.07
637.39	494.27
637.73	491.55
638.08	488.88
638.42	485.99
638.77	483.17
639.11	480.18
639.45	477.27
639.80	474.10
640.14	471.47
640.49	468.72
640.83	466.10
641.17	463.62
641.52	461.12
641.86	458.61
642.20	456.47
642.55	453.95
642.89	451.48
643.23	449.08
643.58	446.93
643.92	444.39
644.26	441.98
644.61	439.82
644.95	437.46
645.29	435.04
645.64	433.02
645.98	430.87
646.32	429.01
646.66	426.94
647.01	424.95
647.35	422.89
647.69	420.76
648.04	418.79
648.38	416.72
648.72	414.75
649.06	412.69
649.41	410.41
649.75	408.32
650.09	406.37
650.43	404.46
650.78	402.40
651.12	400.62
651.46	398.61
651.80	396.50
652.14	394.58
652.49	392.93
652.83	391.01
653.17	389.13
653.51	387.22
653.85	385.60
654.20	383.85
654.54	382.20
654.88	380.58
655.22	379.11
655.56	377.52
655.90	376.03
656.25	374.43
656.59	373.08
656.93	371.60
657.27	370.23
657.61	368.59
657.95	367.19
658.29	365.60
658.64	364.33
658.98	362.90
659.32	361.37
659.66	359.80
660.00	358.50
660.34	357.13
660.68	355.72
661.02	354.21
661.36	352.79
661.70	351.35
662.05	350.07
662.39	348.60
662.73	347.41
663.07	346.33
663.41	345.16
663.75	343.75
664.09	342.43
664.43	341.04
664.77	339.96
665.11	338.63
665.45	337.44
665.79	336.35
666.13	335.23
666.47	334.10
666.81	332.88
667.15	331.50
667.49	330.35
667.83	329.47
668.17	328.42
668.51	327.48
668.85	326.58
669.19	325.72
669.53	324.59
669.87	323.47
670.21	322.16
670.55	321.10
670.89	320.35
671.23	319.46
671.57	318.45
671.91	317.46
672.25	316.53
672.58	315.78
672.92	314.61
673.26	313.73
673.60	312.93
673.94	312.25
674.28	311.57
674.62	310.85
674.96	309.86
675.30	309.09
675.64	308.25
675.97	307.29
676.31	306.28
676.65	305.45
676.99	304.84
677.33	304.00
677.67	303.33
678.01	302.32
678.34	301.71
678.68	301.15
679.02	300.35
679.36	299.69
679.70	298.88
680.04	298.33
680.37	297.70
680.71	296.90
681.05	296.19
681.39	295.55
681.73	294.81
682.06	294.13
682.40	293.39
682.74	292.79
683.08	292.39
683.42	291.73
683.75	291.25
684.09	290.46
684.43	289.90
684.77	289.20
685.10	288.65
685.44	287.94
685.78	287.28
686.12	286.67
686.45	286.00
686.79	285.40
687.13	284.92
687.46	284.29
687.80	283.84
688.14	283.21
688.48	282.57
688.81	282.10
689.15	281.73
689.49	281.22
689.82	280.70
690.16	279.89
690.50	279.38
690.83	278.77
691.17	278.19
691.51	277.66
691.84	277.19
692.18	276.78
692.52	276.23
692.85	275.83
693.19	275.61
693.52	275.26
693.86	274.78
694.20	274.20
694.53	273.78
694.87	273.25
695.21	272.75
695.54	272.37
695.88	271.72
696.21	271.06
696.55	270.67
696.88	270.22
697.22	269.90
697.56	269.53
697.89	269.10
698.23	268.75
698.56	268.35
698.90	268.02
699.23	267.58
699.57	267.28
699.90	266.72
700.24	266.20
700.58	265.82
700.91	265.54
701.25	265.65
701.58	265.58
701.92	265.41
702.25	265.16
702.59	264.83
702.92	264.65
703.26	264.50
703.59	264.12
703.93	264.19
704.26	263.91
704.60	263.62
704.93	263.30
705.26	262.96
705.60	262.75
705.93	262.30
706.27	262.14
706.60	261.94
706.94	261.91
707.27	261.49
707.61	261.27
707.94	260.95
708.27	260.19
708.61	259.63
708.94	259.25
709.28	258.95
709.61	258.51
709.94	258.25
710.28	257.82
710.61	257.56
710.95	256.80
711.28	256.87
711.61	256.45
711.95	256.30
712.28	256.02
712.61	255.66
712.95	255.69
713.28	255.58
713.61	255.14
713.95	254.73
714.28	254.47
714.61	254.07
714.95	253.71
715.28	253.38
715.61	253.03
715.95	252.74
716.28	252.36
716.61	252.22
716.95	251.82
717.28	251.67
717.61	251.40
717.94	251.18
718.28	250.54
718.61	250.35
718.94	249.95
719.27	249.72
719.61	249.55
719.94	249.11
720.27	248.56
720.60	248.34
720.94	248.04
721.27	247.92
721.60	247.85
721.93	247.65
722.27	247.64
722.60	247.53
722.93	247.33
723.26	247.28
723.59	247.06
723.93	246.98
724.26	246.65
724.59	246.47
724.92	246.33
725.25	246.26
725.59	246.08
725.92	246.05
726.25	245.83
726.58	245.69
726.91	245.55
727.24	245.50
727.57	245.32
727.91	245.07
728.24	244.94
728.57	244.63
728.90	244.57
729.23	244.12
729.56	244.18
729.89	244.06
730.22	243.81
730.55	243.70
730.89	243.58
731.22	243.50
731.55	243.27
731.88	243.10
732.21	242.88
732.54	242.72
732.87	242.50
733.20	242.49
733.53	242.29
733.86	242.24
734.19	242.07
734.52	242.06
734.85	242.35
735.18	242.12
735.51	242.15
735.84	242.03
736.17	242.18
736.50	241.77
736.83	242.22
737.16	242.12
737.49	241.98
737.82	241.81
738.15	241.82
738.48	241.71
738.81	241.56
739.14	241.46
739.47	241.30
739.80	241.24
740.13	241.12
740.46	240.97
740.79	240.71
741.12	240.56
741.45	240.36
741.78	239.97
742.11	240.02
742.44	239.84
742.77	239.75
743.10	239.55
743.43	239.41
743.75	238.70
744.08	239.20
744.41	239.03
744.74	238.93
745.07	238.70
745.40	238.66
745.73	238.79
746.06	238.66
746.39	238.66
746.71	238.52
747.04	238.35
747.37	238.26
747.70	238.26
748.03	238.29
748.36	238.28
748.68	238.15
749.01	237.90
749.34	237.80
749.67	237.63
750.00	237.61
750.33	237.93
750.65	237.86
750.98	237.14
751.31	237.10
751.64	237.02
751.97	237.16
752.29	237.05
752.62	236.75
752.95	236.60
753.28	236.43
753.60	236.30
753.93	236.28
754.26	236.19
754.59	235.96
754.91	235.78
755.24	235.62
755.57	235.59
755.90	235.45
756.22	235.33
756.55	235.24
756.88	235.03
757.20	234.55
757.53	234.37
757.86	234.27
758.19	234.21
758.51	234.10
758.84	233.80
759.17	233.69
759.49	233.57
759.82	233.74
760.15	233.66
760.47	233.62
760.80	233.41
761.13	233.42
761.45	233.33
761.78	233.12
762.11	233.05
762.43	232.89
762.76	232.88
763.08	232.82
763.41	232.73
763.74	232.66
764.06	232.60
764.39	232.59
764.71	232.55
765.04	232.41
765.37	232.28
765.69	232.22
766.02	232.09
766.34	231.99
766.67	231.72
767.00	231.75
767.32	231.89
767.65	232.10
767.97	232.02
768.30	232.01
768.62	232.08
768.95	231.98
769.27	231.93
769.60	231.92
769.92	231.82
770.25	231.72
770.57	231.55
770.90	231.54
771.22	231.37
771.55	231.34
771.87	231.30
772.20	231.20
772.52	231.55
772.85	232.17
773.17	232.23
773.50	232.16
773.82	232.04
774.15	231.80
774.47	231.50
774.80	231.38
775.12	231.37
775.45	231.20
775.77	231.19
776.09	231.17
776.42	231.18
776.74	231.33
777.07	231.21
777.39	231.31
777.72	231.22
778.04	231.28
778.36	231.23
778.69	231.20
779.01	231.25
779.33	230.80
779.66	230.25
779.98	230.13
780.31	230.11
780.63	230.23
780.95	230.27
781.28	230.17
781.60	230.16
781.92	230.10
782.25	230.04
782.57	229.96
782.89	229.90
783.22	229.77
783.54	229.64
783.86	229.71
784.19	229.65
784.51	229.78
784.83	229.68
785.16	229.60
785.48	229.60
785.80	229.61
786.12	229.63
786.45	229.52
786.77	229.51
787.09	229.48
787.42	229.35
787.74	229.30
788.06	229.36
788.38	229.29
788.71	229.17
789.03	229.21
789.35	229.26
789.67	229.20
789.99	229.23
790.32	229.14
790.64	229.10
790.96	229.48
791.28	229.25
791.61	229.20
791.93	229.22
792.25	229.18
792.57	229.48
792.89	229.34
793.21	229.36
793.54	229.29
793.86	229.18
794.18	229.20
794.50	229.15
794.82	229.17
795.14	229.15
795.47	229.31
795.79	229.25
796.11	229.16
796.43	229.14
796.75	229.14
797.07	229.15
797.39	229.11
797.71	228.70
798.04	228.76
798.36	228.80
798.68	228.83
799.00	228.80
799.32	228.50
799.64	228.60
799.96	228.59
800.28	228.78
800.60	228.80
800.92	228.82
801.24	228.73
801.56	228.69
801.89	228.68
802.21	228.64
802.53	228.61
802.85	228.74
803.17	228.95
803.49	228.82
803.81	228.71
804.13	228.74
804.45	228.65
804.77	228.65
805.09	228.68
805.41	228.54
805.73	228.49
806.05	228.37
806.37	228.29
806.69	228.19
807.01	228.06
807.33	228.05
807.65	227.94
807.97	228.15
808.28	228.11
808.60	228.06
808.92	228.01
809.24	228.28
809.56	228.14
809.88	227.92
810.20	227.95
810.52	228.00
810.84	227.95
811.16	227.93
811.48	227.92
811.80	228.07
812.12	228.05
812.43	228.13
812.75	228.11
813.07	228.14
813.39	228.21
813.71	228.12
814.03	228.05
814.35	227.91
814.67	227.66
814.98	227.60
815.30	227.68
815.62	227.59
815.94	227.24
816.26	227.42
816.58	227.35
816.89	227.34
817.21	227.28
817.53	227.23
817.85	227.26
818.17	227.22
818.48	226.99
818.80	227.11
819.12	227.02
819.44	226.96
819.76	226.88
820.07	226.86
820.39	226.85
820.71	226.89
821.03	226.94
821.34	226.92
821.66	227.01
821.98	226.92
822.30	226.88
822.61	227.20
822.93	226.97
823.25	226.96
823.57	226.99
823.88	227.13
824.20	227.22
824.52	227.34
824.83	227.31
825.15	227.25
825.47	227.22
825.79	227.23
826.10	227.25
826.42	227.27
826.74	227.29
827.05	227.28
827.37	227.28
827.69	227.26
828.00	227.37
828.32	227.41
828.64	227.41
828.95	227.71
829.27	227.60
829.58	227.60
829.90	227.74
830.22	227.74
830.53	227.61
830.85	227.49
831.17	227.37
831.48	227.41
831.80	227.48
832.11	227.43
832.43	227.41
832.75	227.41
833.06	227.66
833.38	227.58
833.69	227.60
834.01	227.64
834.32	227.66
834.64	227.56
834.96	227.52
835.27	227.56
835.59	227.32
835.90	227.20
836.22	227.19
836.53	227.05
836.85	226.99
837.16	227.38
837.48	227.44
837.79	227.55
838.11	227.53
838.42	227.47
838.74	227.56
839.05	227.51
839.37	227.53
839.68	227.20
840.00	227.16
840.31	227.23
840.63	227.20
840.94	227.07
841.26	227.02
841.57	226.96
841.88	226.93
842.20	226.89
842.51	226.83
842.83	226.80
843.14	227.16
843.46	227.20
843.77	226.96
844.08	226.90
844.40	226.71
844.71	226.67
845.03	226.70
845.34	226.61
845.65	226.57
845.97	226.52
846.28	226.54
846.60	226.53
846.91	226.45
847.22	226.45
847.54	226.58
847.85	226.64
848.16	226.61
848.48	226.50
848.79	226.71
849.10	226.79
849.42	226.80
849.73	226.36
850.04	226.26
850.36	226.06
850.67	226.13
850.98	226.16
851.30	226.15
851.61	226.12
851.92	226.07
852.23	226.29
852.55	226.31
852.86	226.37
853.17	226.44
853.49	226.53
853.80	226.56
854.11	226.61
854.42	226.70
854.74	226.58
855.05	226.57
855.36	226.35
855.67	226.35
855.99	226.35
856.30	226.96
856.61	226.90
856.92	226.92
857.23	226.92
857.55	226.86
857.86	226.94
858.17	226.95
858.48	226.91
858.79	226.70
859.11	226.76
859.42	226.73
859.73	226.67
860.04	226.60
860.35	226.50
860.66	226.30
860.98	226.21
861.29	226.31
861.60	226.29
861.91	226.35
862.22	226.37
862.53	226.33
862.84	225.81
863.16	225.97
863.47	225.96
863.78	225.94
864.09	226.05
864.40	225.99
864.71	226.02
865.02	226.13
865.33	226.09
865.64	226.00
865.95	226.01
866.27	226.32
866.58	226.34
866.89	226.41
867.20	226.44
867.51	226.38
867.82	226.40
868.13	226.63
868.44	226.60
868.75	226.61
869.06	226.63
869.37	226.65
869.68	226.53
869.99	226.58
870.30	226.59
870.61	226.54
870.92	226.49
871.23	226.51
871.54	226.52
871.85	226.65
872.16	226.72
872.47	226.69
872.78	226.40
873.09	226.40
873.40	226.35
873.71	226.45
874.02	226.46
874.33	226.42
874.64	226.31
874.95	226.32
875.26	226.23
875.56	226.27
875.87	226.17
876.18	226.19
876.49	226.69
876.80	226.64
877.11	226.60
877.42	226.72
877.73	226.61
878.04	226.60
878.35	226.59
878.66	226.58
878.96	226.57
879.27	226.62
879.58	226.57
879.89	226.57
880.20	226.72
880.51	226.74
880.82	226.75
881.12	226.77
881.43	226.72
881.74	226.66
882.05	226.60
882.36	226.73
882.67	226.72
882.97	226.15
883.28	226.18
883.59	226.20
883.90	226.17
884.21	226.38
884.51	226.35
884.82	226.33
885.13	226.30
885.44	226.33
885.74	226.28
886.05	226.26
886.36	226.24
886.67	226.01
886.98	226.21
887.28	226.21
887.59	226.19
887.90	226.21
888.20	226.22
888.51	226.29
888.82	226.24
889.13	226.29
889.43	226.67
889.74	226.59
890.05	226.55
890.35	226.47
890.66	226.27
890.97	226.24
891.28	226.23
891.58	226.25
891.89	226.20
892.20	226.15
892.50	226.15
892.81	226.18
893.12	226.19
893.42	225.94
893.73	226.00
894.04	225.97
894.34	225.94
894.65	225.90
894.95	225.84
895.26	225.77
895.57	225.97
895.87	225.51
896.18	225.55
896.48	225.53
896.79	225.59
897.10	225.69
897.40	225.64
897.71	225.61
898.01	225.55
898.32	225.63
898.63	225.62
898.93	225.63
899.24	225.60
899.54	225.56
899.85	225.55
900.15	225.52
900.46	225.54
900.76	225.55
901.07	225.55
901.38	225.53
901.68	225.60
901.99	225.36
902.29	225.40
902.60	225.39
902.90	225.34
903.21	225.33
903.51	225.30
903.82	225.50
904.12	225.51
904.43	225.57
904.73	225.53
905.03	225.60
905.34	226.12
905.64	226.07
905.95	226.15
906.25	226.11
906.56	226.05
906.86	226.10
907.17	226.03
907.47	226.11
907.77	226.11
908.08	226.02
908.38	226.11
908.69	226.11
908.99	226.20
909.30	226.27
909.60	226.28
909.90	226.30
910.21	226.09
910.51	226.10
910.81	226.07
911.12	226.05
911.42	225.98
911.73	225.45
912.03	225.56
912.33	225.67
912.64	225.72
912.94	225.66
913.24	225.56
913.55	225.65
913.85	225.60
914.15	225.79
914.46	225.86
914.76	225.81
915.06	225.86
915.37	225.80
915.67	225.76
915.97	225.78
916.27	225.67
916.58	225.65
916.88	225.63
917.18	225.65
917.49	225.99
917.79	226.03
918.09	226.01
918.39	226.08
918.70	225.95
919.00	225.90
919.30	226.20
919.60	226.16
919.91	226.07
920.21	226.09
920.51	225.89
920.81	225.81
921.12	225.89
921.42	225.87
921.72	225.90
922.02	225.97
922.32	225.97
922.63	225.98
922.93	226.22
923.23	226.20
923.53	226.15
923.83	225.83
924.13	225.86
924.44	225.86
924.74	225.92
925.04	226.08
925.34	226.13
925.64	225.85
925.94	225.83
926.24	226.13
926.55	226.10
926.85	226.13
927.15	226.19
927.45	226.16
927.75	226.10
928.05	226.08
928.35	226.06
928.65	226.15
928.95	226.19
929.26	226.01
929.56	226.05
929.86	226.10
930.16	226.01
930.46	225.91
930.76	225.97
931.06	225.80
931.36	225.69
931.66	225.76
931.96	225.89
932.26	225.94
932.56	225.71
932.86	225.68
933.16	225.75
933.46	225.72
933.76	225.69
934.06	225.84
934.36	226.00
934.66	225.93
934.96	225.91
935.26	225.98
935.56	226.07
935.86	225.98
936.16	225.94
936.46	225.93
936.76	225.93
937.06	225.90
937.36	225.88
937.66	225.86
937.96	225.88
938.26	225.83
938.56	225.80
938.86	225.81
939.16	225.89
939.46	225.94
939.76	225.97
940.06	225.92
940.35	225.87
940.65	225.61
940.95	225.68
941.25	225.51
941.55	225.40
941.85	225.31
942.15	225.49
942.45	225.55
942.75	225.52
943.04	225.56
943.34	225.67
943.64	225.65
943.94	225.57
944.24	225.48
944.54	225.48
944.84	225.51
945.13	225.51
945.43	225.52
945.73	225.49
946.03	225.45
946.33	225.45
946.62	225.35
946.92	225.37
947.22	225.44
947.52	225.44
947.82	225.48
948.11	225.50
948.41	225.32
948.71	225.27
949.01	225.39
949.31	225.41
949.60	225.38
949.90	225.48
950.20	225.52
950.50	225.53
950.79	225.46
951.09	225.51
951.39	225.45
951.69	225.40
951.98	225.49
952.28	225.57
952.58	225.55
952.87	225.54
953.17	225.57
953.47	225.47
953.76	225.55
954.06	225.52
954.36	225.43
954.66	225.48
954.95	225.63
955.25	225.57
955.55	225.62
955.84	225.49
956.14	225.50
956.44	225.52
956.73	225.49
957.03	225.57
957.32	225.59
957.62	225.65
957.92	225.75
958.21	225.73
958.51	226.20
958.81	226.24
959.10	226.33
959.40	226.45
959.69	226.51
959.99	226.56
960.29	226.57
960.58	226.52
960.88	226.71
961.17	226.63
961.47	226.76
961.76	226.71
962.06	226.80
962.36	226.75
962.65	226.73
962.95	226.75
963.24	226.66
963.54	226.69
963.83	226.71
964.13	226.64
964.42	226.48
964.72	226.09
965.01	226.16
965.31	226.07
965.60	225.96
965.90	226.26
966.19	226.17
966.49	226.21
966.78	226.26
967.08	226.13
967.37	226.13
967.67	225.97
967.96	226.00
968.26	225.92
968.55	226.00
968.85	226.03
969.14	225.98
969.43	225.99
969.73	225.92
970.02	225.85
970.32	225.85
970.61	225.93
970.91	225.78
971.20	225.69
971.49	225.68
971.79	225.75
972.08	225.40
972.38	225.42
972.67	225.38
972.96	225.51
973.26	225.46
973.55	225.56
973.85	225.59
974.14	225.55
974.43	225.60
974.73	225.48
975.02	225.42
975.31	225.46
975.61	225.44
975.90	225.43
976.19	225.39
976.49	225.45
976.78	225.39
977.07	225.45
977.37	225.51
977.66	225.52
977.95	225.40
978.24	225.39
978.54	225.48
978.83	225.40
979.12	225.34
979.42	225.34
979.71	225.25
980.00	225.22
980.29	225.22
980.59	225.19
980.88	225.35
981.17	225.26
981.46	225.32
981.76	225.33
982.05	225.46
982.34	225.51
982.63	225.48
982.93	225.49
983.22	225.56
983.51	225.50
983.80	225.62
984.09	225.67
984.39	225.73
984.68	225.61
984.97	225.67
985.26	225.57
985.55	225.58
985.85	225.46
986.14	225.55
986.43	225.64
986.72	225.55
987.01	225.30
987.30	225.32
987.59	225.19
987.89	225.19
988.18	225.05
988.47	225.04
988.76	224.99
989.05	224.95
989.34	224.90
989.63	225.09
989.92	225.04
990.22	225.06
990.51	225.00
990.80	224.97
991.09	224.98
991.38	225.12
991.67	225.10
991.96	225.03
992.25	225.08
992.54	224.99
992.83	225.05
993.12	225.12
993.41	225.25
993.70	225.42
993.99	225.51
994.28	225.58
994.58	225.69
994.87	225.63
995.16	225.67
995.45	225.63
995.74	225.45
996.03	225.50
996.32	225.56
996.61	225.75
996.90	225.79
997.19	225.80
997.48	225.78
997.77	225.75
998.06	225.93
998.34	225.85
998.63	225.88
998.92	225.95
999.21	225.98
999.50	226.00
999.79	225.92
1000.08	225.91
1000.37	225.85
1000.66	225.76
1000.95	225.93
1001.24	225.95
1001.53	226.07
1001.82	226.09
1002.11	225.97
1002.40	226.06
1002.68	226.09
1002.97	226.43
1003.26	226.46
1003.55	226.35
1003.84	226.43
1004.13	226.53
1004.42	226.57
1004.71	226.58
1004.99	226.49
1005.28	226.64
1005.57	226.56
1005.86	226.53
1006.15	226.45
1006.44	226.37
1006.72	226.40
1007.01	226.31
1007.30	226.34
1007.59	226.21
1007.88	226.21
1008.17	226.25
1008.45	226.08
1008.74	225.93
1009.03	225.73
1009.32	225.68
1009.60	225.68
1009.89	225.63
1010.18	225.40
1010.47	225.40
1010.76	225.37
1011.04	225.42
1011.33	225.40
1011.62	225.46
1011.91	225.50
1012.19	225.63
1012.48	225.62
1012.77	225.60
1013.05	225.82
1013.34	225.77
1013.63	225.81
1013.92	225.81
1014.20	225.81
1014.49	225.84
1014.78	225.85
1015.06	225.63
1015.35	225.62
1015.64	225.72
1015.92	225.80
1016.21	225.82
1016.50	225.76
1016.78	225.78
1017.07	225.81
1017.36	225.65
1017.64	225.59
1017.93	225.60
1018.22	225.54
1018.50	225.55
1018.79	225.56
1019.08	225.26
1019.36	225.29
1019.65	225.15
1019.93	225.28
1020.22	225.35
1020.51	225.56
1020.79	225.51
1021.08	225.55
1021.36	224.00
1021.65	225.85
1021.94	223.70
1022.22	225.80
1022.51	223.55
1022.79	228.25
1023.08	226.65
1023.36	230.50
1023.65	224.70
>>>>>End Processed Spectral Data<<<<<
