SpectraSuite Data File
++++++++++++++++++++++++++++++++++++
Date: Wed Sep 04 17:49:26 EDT 2013
User: lab3
Dark Spectrum Present: Yes
Reference Spectrum Present: No
Number of Sampled Component Spectra: 1
Spectrometers: USB2E7196
Integration Time (usec): 170000 (USB2E7196)
Spectra Averaged: 20 (USB2E7196)
Boxcar Smoothing: 10 (USB2E7196)
Correct for Electrical Dark: No (USB2E7196)
Strobe/Lamp Enabled: No (USB2E7196)
Correct for Detector Non-linearity: No (USB2E7196)
Correct for Stray Light: No (USB2E7196)
Number of Pixels in Processed Spectrum: 2048
>>>>>Begin Processed Spectral Data<<<<<
339.09	0.00
339.48	212.10
339.86	216.10
340.24	215.75
340.63	216.55
341.01	225.50
341.39	219.95
341.78	223.25
342.16	223.40
342.54	224.15
342.93	212.11
343.31	222.83
343.69	223.39
344.07	223.82
344.46	224.37
344.84	224.82
345.22	224.77
345.60	225.08
345.99	225.19
346.37	225.32
346.75	225.35
347.13	225.39
347.52	225.52
347.90	225.82
348.28	225.80
348.66	225.93
349.05	225.78
349.43	225.85
349.81	225.93
350.19	226.00
350.57	226.00
350.96	226.07
351.34	226.13
351.72	226.24
352.10	226.24
352.48	226.21
352.87	226.28
353.25	226.40
353.63	226.37
354.01	226.38
354.39	226.46
354.77	226.51
355.15	226.76
355.54	226.78
355.92	226.65
356.30	226.74
356.68	227.10
357.06	227.17
357.44	227.17
357.82	227.24
358.20	227.68
358.58	227.80
358.97	227.91
359.35	228.06
359.73	228.24
360.11	228.32
360.49	228.37
360.87	228.38
361.25	228.42
361.63	228.67
362.01	228.87
362.39	228.87
362.77	228.97
363.15	228.95
363.53	229.07
363.91	229.18
364.29	229.23
364.67	228.84
365.05	229.00
365.43	229.09
365.81	229.16
366.19	229.02
366.57	229.24
366.95	229.24
367.33	229.26
367.71	229.30
368.09	229.43
368.47	229.46
368.85	229.45
369.23	229.62
369.61	229.45
369.99	229.46
370.37	229.50
370.75	229.76
371.13	229.62
371.51	229.47
371.89	229.48
372.27	229.45
372.65	229.38
373.03	229.29
373.41	229.25
373.78	229.13
374.16	228.89
374.54	228.64
374.92	228.55
375.30	228.41
375.68	228.26
376.06	228.22
376.44	228.15
376.82	228.12
377.19	228.00
377.57	227.95
377.95	227.74
378.33	227.63
378.71	227.21
379.09	227.28
379.47	227.31
379.84	227.16
380.22	227.07
380.60	226.94
380.98	226.84
381.36	226.72
381.73	226.68
382.11	226.67
382.49	226.62
382.87	226.48
383.25	226.44
383.62	226.94
384.00	226.78
384.38	226.72
384.76	226.79
385.13	226.90
385.51	226.83
385.89	226.78
386.27	226.78
386.64	226.81
387.02	226.66
387.40	226.60
387.78	226.60
388.15	226.63
388.53	226.63
388.91	226.56
389.29	226.49
389.66	226.52
390.04	226.49
390.42	226.55
390.79	226.61
391.17	226.53
391.55	225.96
391.92	225.93
392.30	225.95
392.68	225.81
393.05	225.74
393.43	225.74
393.81	225.81
394.18	225.76
394.56	225.84
394.94	226.05
395.31	226.01
395.69	226.25
396.06	226.28
396.44	226.43
396.82	226.50
397.19	226.83
397.57	226.84
397.95	226.98
398.32	226.92
398.70	227.03
399.07	227.24
399.45	227.28
399.82	227.39
400.20	227.40
400.58	227.56
400.95	227.48
401.33	227.70
401.70	228.09
402.08	228.25
402.45	228.40
402.83	228.56
403.20	228.75
403.58	228.71
403.95	229.03
404.33	229.23
404.71	229.47
405.08	229.93
405.46	230.14
405.83	230.35
406.21	230.60
406.58	230.84
406.96	231.03
407.33	231.32
407.70	231.71
408.08	232.44
408.45	232.90
408.83	233.41
409.20	233.75
409.58	233.89
409.95	234.48
410.33	234.98
410.70	235.39
411.08	236.02
411.45	236.74
411.82	237.21
412.20	238.03
412.57	238.96
412.95	239.30
413.32	240.24
413.69	241.14
414.07	242.07
414.44	243.04
414.82	244.11
415.19	245.39
415.56	246.59
415.94	247.65
416.31	249.05
416.68	250.50
417.06	252.13
417.43	253.83
417.81	255.51
418.18	257.30
418.55	259.22
418.93	261.24
419.30	263.28
419.67	265.60
420.04	267.78
420.42	270.04
420.79	273.09
421.16	275.79
421.54	278.75
421.91	281.69
422.28	284.75
422.66	288.00
423.03	291.35
423.40	294.68
423.77	298.25
424.15	301.80
424.52	305.57
424.89	309.73
425.26	313.54
425.64	317.28
426.01	321.49
426.38	325.80
426.75	330.21
427.13	334.75
427.50	339.40
427.87	344.14
428.24	349.06
428.61	353.47
428.99	358.72
429.36	364.16
429.73	369.54
430.10	375.03
430.47	380.66
430.85	386.35
431.22	392.37
431.59	399.12
431.96	405.35
432.33	412.14
432.70	418.72
433.08	426.51
433.45	433.80
433.82	440.95
434.19	449.11
434.56	457.18
434.93	464.77
435.30	472.36
435.68	480.91
436.05	489.15
436.42	497.40
436.79	505.14
437.16	513.32
437.53	522.08
437.90	530.60
438.27	539.07
438.64	547.73
439.01	556.10
439.38	563.07
439.75	570.02
440.13	578.05
440.50	585.43
440.87	591.42
441.24	597.81
441.61	604.89
441.98	610.02
442.35	615.81
442.72	621.85
443.09	627.65
443.46	631.04
443.83	633.62
444.20	635.52
444.57	638.07
444.94	639.11
445.31	640.27
445.68	641.71
446.05	642.00
446.42	640.81
446.79	639.26
447.16	637.60
447.53	636.37
447.90	632.64
448.27	629.13
448.64	624.39
449.01	620.73
449.37	614.54
449.74	608.47
450.11	601.60
450.48	593.92
450.85	586.01
451.22	579.17
451.59	572.31
451.96	566.14
452.33	558.08
452.70	550.83
453.07	542.27
453.43	533.30
453.80	524.77
454.17	516.76
454.54	509.10
454.91	501.06
455.28	493.14
455.65	485.81
456.02	478.86
456.38	472.62
456.75	464.94
457.12	458.45
457.49	452.24
457.86	445.93
458.23	440.80
458.59	435.16
458.96	429.49
459.33	424.58
459.70	419.51
460.07	415.37
460.43	410.77
460.80	406.45
461.17	402.74
461.54	398.84
461.91	395.17
462.27	391.31
462.64	388.07
463.01	384.57
463.38	381.30
463.74	377.46
464.11	374.37
464.48	371.75
464.85	368.92
465.21	366.75
465.58	364.40
465.95	361.52
466.32	359.29
466.68	357.04
467.05	354.75
467.42	352.63
467.78	350.49
468.15	348.38
468.52	346.79
468.88	344.59
469.25	342.76
469.62	341.27
469.98	339.70
470.35	338.30
470.72	336.83
471.08	335.08
471.45	333.84
471.82	332.61
472.18	331.20
472.55	330.22
472.92	328.87
473.28	327.85
473.65	326.85
474.02	325.83
474.38	325.06
474.75	324.35
475.11	323.42
475.48	322.67
475.85	322.08
476.21	321.43
476.58	320.93
476.94	320.55
477.31	320.01
477.67	319.63
478.04	319.26
478.41	319.05
478.77	319.41
479.14	319.11
479.50	319.06
479.87	319.11
480.23	319.23
480.60	319.28
480.96	319.30
481.33	319.63
481.69	319.87
482.06	320.04
482.42	320.24
482.79	320.62
483.15	321.12
483.52	321.75
483.88	322.22
484.25	322.71
484.61	323.29
484.98	323.97
485.34	324.88
485.71	325.86
486.07	326.80
486.44	327.29
486.80	328.38
487.17	329.45
487.53	330.73
487.90	332.07
488.26	333.71
488.62	335.40
488.99	336.90
489.35	338.56
489.72	340.49
490.08	342.48
490.44	344.50
490.81	346.55
491.17	348.66
491.54	351.20
491.90	353.81
492.26	356.49
492.63	359.38
492.99	362.19
493.36	365.15
493.72	368.47
494.08	371.94
494.45	375.65
494.81	379.62
495.17	383.55
495.54	387.69
495.90	391.78
496.26	396.21
496.63	400.93
496.99	405.66
497.35	410.58
497.72	415.80
498.08	421.27
498.44	427.03
498.80	433.06
499.17	439.11
499.53	445.45
499.89	452.13
500.26	458.94
500.62	465.87
500.98	473.44
501.34	480.82
501.71	488.49
502.07	496.27
502.43	504.32
502.79	512.59
503.16	521.26
503.52	530.29
503.88	539.50
504.24	548.99
504.60	559.04
504.97	569.33
505.33	579.84
505.69	590.83
506.05	601.77
506.41	612.87
506.78	624.44
507.14	636.32
507.50	648.52
507.86	661.09
508.22	674.04
508.59	686.80
508.95	700.48
509.31	714.55
509.67	728.53
510.03	742.78
510.39	757.46
510.75	772.25
511.12	787.46
511.48	802.84
511.84	818.45
512.20	834.27
512.56	850.46
512.92	866.98
513.28	883.70
513.64	900.90
514.00	918.32
514.37	935.85
514.73	953.84
515.09	972.05
515.45	990.05
515.81	1008.39
516.17	1027.22
516.53	1045.58
516.89	1064.10
517.25	1083.35
517.61	1103.45
517.97	1123.61
518.33	1143.72
518.69	1163.67
519.05	1184.11
519.41	1204.55
519.77	1225.55
520.13	1246.31
520.49	1266.87
520.85	1288.90
521.21	1309.83
521.57	1331.24
521.93	1351.73
522.29	1372.57
522.65	1393.00
523.01	1414.07
523.37	1434.51
523.73	1455.26
524.09	1476.19
524.45	1496.66
524.81	1517.50
525.17	1537.79
525.53	1557.97
525.89	1578.56
526.25	1598.99
526.61	1619.20
526.97	1640.30
527.33	1661.41
527.68	1682.74
528.04	1704.16
528.40	1724.09
528.76	1745.01
529.12	1764.90
529.48	1785.89
529.84	1805.94
530.20	1827.07
530.56	1847.56
530.91	1868.38
531.27	1888.51
531.63	1908.67
531.99	1929.01
532.35	1948.82
532.71	1968.88
533.07	1989.35
533.42	2008.66
533.78	2028.57
534.14	2048.20
534.50	2067.00
534.86	2085.78
535.21	2103.35
535.57	2121.23
535.93	2138.22
536.29	2155.70
536.65	2173.63
537.00	2190.79
537.36	2208.46
537.72	2224.50
538.08	2241.25
538.44	2257.57
538.79	2273.95
539.15	2290.10
539.51	2305.83
539.87	2320.84
540.22	2334.39
540.58	2348.78
540.94	2362.46
541.29	2375.27
541.65	2387.80
542.01	2400.11
542.37	2410.21
542.72	2420.81
543.08	2431.31
543.44	2442.95
543.79	2452.79
544.15	2462.50
544.51	2472.35
544.87	2481.70
545.22	2489.83
545.58	2497.36
545.94	2504.35
546.29	2510.41
546.65	2516.29
547.01	2521.71
547.36	2526.91
547.72	2532.45
548.07	2535.74
548.43	2540.86
548.79	2544.89
549.14	2548.57
549.50	2552.15
549.86	2556.35
550.21	2560.08
550.57	2562.83
550.92	2563.95
551.28	2564.95
551.64	2566.72
551.99	2568.28
552.35	2569.20
552.70	2571.53
553.06	2573.22
553.41	2574.34
553.77	2575.82
554.13	2577.29
554.48	2578.92
554.84	2580.16
555.19	2581.00
555.55	2582.83
555.90	2581.77
556.26	2580.62
556.61	2578.97
556.97	2576.60
557.32	2575.56
557.68	2573.99
558.03	2572.62
558.39	2571.07
558.74	2570.11
559.10	2567.24
559.45	2563.83
559.81	2559.30
560.16	2553.78
560.52	2548.59
560.87	2544.28
561.23	2539.24
561.58	2533.41
561.94	2526.29
562.29	2519.04
562.64	2512.23
563.00	2503.87
563.35	2497.20
563.71	2490.83
564.06	2484.53
564.42	2477.99
564.77	2470.88
565.12	2463.54
565.48	2455.94
565.83	2448.13
566.19	2440.10
566.54	2432.18
566.89	2423.98
567.25	2416.50
567.60	2409.60
567.96	2402.52
568.31	2394.50
568.66	2385.66
569.02	2376.55
569.37	2368.31
569.72	2361.04
570.08	2351.86
570.43	2342.29
570.78	2333.09
571.14	2323.36
571.49	2313.33
571.84	2303.62
572.20	2292.62
572.55	2282.53
572.90	2271.70
573.26	2261.22
573.61	2250.40
573.96	2239.25
574.31	2227.45
574.67	2215.75
575.02	2202.94
575.37	2189.90
575.72	2176.70
576.08	2164.66
576.43	2152.10
576.78	2139.08
577.13	2125.08
577.49	2112.33
577.84	2100.76
578.19	2088.74
578.54	2076.53
578.90	2064.61
579.25	2052.54
579.60	2040.50
579.95	2027.51
580.30	2014.67
580.66	2001.43
581.01	1987.93
581.36	1974.11
581.71	1961.52
582.06	1948.70
582.42	1936.56
582.77	1924.12
583.12	1912.35
583.47	1900.11
583.82	1888.50
584.17	1876.91
584.53	1865.43
584.88	1852.63
585.23	1839.46
585.58	1825.68
585.93	1812.69
586.28	1799.57
586.63	1785.87
586.98	1771.95
587.34	1758.81
587.69	1745.63
588.04	1733.22
588.39	1721.15
588.74	1709.07
589.09	1697.18
589.44	1684.52
589.79	1672.35
590.14	1660.45
590.49	1648.31
590.84	1636.47
591.19	1624.55
591.54	1612.37
591.89	1600.30
592.25	1590.47
592.60	1579.10
592.95	1567.63
593.30	1555.92
593.65	1544.02
594.00	1532.09
594.35	1522.30
594.70	1511.08
595.05	1500.04
595.40	1488.13
595.75	1476.45
596.10	1465.61
596.45	1454.10
596.80	1443.42
597.15	1432.35
597.50	1420.82
597.85	1409.76
598.19	1397.93
598.54	1386.27
598.89	1375.20
599.24	1364.55
599.59	1352.81
599.94	1342.38
600.29	1332.18
600.64	1322.08
600.99	1311.73
601.34	1302.23
601.69	1291.32
602.04	1281.43
602.39	1271.68
602.74	1262.86
603.08	1253.81
603.43	1244.52
603.78	1235.01
604.13	1225.76
604.48	1216.07
604.83	1206.54
605.18	1196.82
605.53	1187.74
605.87	1178.92
606.22	1170.45
606.57	1161.11
606.92	1151.86
607.27	1143.05
607.62	1134.64
607.96	1126.11
608.31	1118.15
608.66	1109.91
609.01	1101.59
609.36	1093.30
609.70	1084.89
610.05	1076.37
610.40	1067.81
610.75	1059.31
611.10	1051.05
611.44	1042.31
611.79	1034.13
612.14	1026.39
612.49	1018.60
612.83	1011.25
613.18	1003.51
613.53	995.70
613.88	988.09
614.22	980.58
614.57	972.57
614.92	964.63
615.27	956.92
615.61	949.24
615.96	941.71
616.31	934.22
616.65	927.29
617.00	920.06
617.35	912.83
617.70	905.86
618.04	898.75
618.39	891.89
618.74	885.67
619.08	879.15
619.43	872.26
619.78	865.43
620.12	858.57
620.47	851.78
620.82	844.92
621.16	838.35
621.51	832.15
621.85	826.10
622.20	819.72
622.55	813.44
622.89	807.21
623.24	801.02
623.59	794.86
623.93	788.54
624.28	782.49
624.62	776.91
624.97	771.23
625.32	765.67
625.66	759.90
626.01	753.72
626.35	748.32
626.70	742.87
627.04	737.76
627.39	732.15
627.73	726.97
628.08	721.77
628.43	716.27
628.77	710.77
629.12	705.48
629.46	700.84
629.81	696.20
630.15	691.53
630.50	686.78
630.84	681.98
631.19	677.20
631.53	672.77
631.88	667.55
632.22	662.63
632.57	658.14
632.91	653.66
633.26	649.46
633.60	644.76
633.95	640.25
634.29	635.43
634.64	631.10
634.98	626.34
635.32	622.17
635.67	618.46
636.01	614.49
636.36	610.30
636.70	606.16
637.05	602.10
637.39	598.08
637.73	593.94
638.08	589.93
638.42	585.88
638.77	581.54
639.11	577.42
639.45	573.26
639.80	568.94
640.14	564.94
640.49	560.98
640.83	557.38
641.17	553.58
641.52	549.97
641.86	546.41
642.20	543.40
642.55	539.75
642.89	536.00
643.23	532.38
643.58	529.31
643.92	525.72
644.26	522.28
644.61	518.90
644.95	515.76
645.29	512.52
645.64	509.23
645.98	506.23
646.32	503.27
646.66	500.32
647.01	497.40
647.35	494.74
647.69	491.84
648.04	489.05
648.38	486.38
648.72	483.51
649.06	480.57
649.41	477.54
649.75	474.66
650.09	471.89
650.43	469.16
650.78	466.20
651.12	463.46
651.46	460.58
651.80	457.86
652.14	455.04
652.49	452.55
652.83	450.10
653.17	447.50
653.51	445.04
653.85	442.61
654.20	440.15
654.54	437.45
654.88	435.00
655.22	432.72
655.56	430.31
655.90	428.10
656.25	425.79
656.59	423.54
656.93	421.39
657.27	419.40
657.61	417.06
657.95	414.88
658.29	412.65
658.64	410.69
658.98	408.55
659.32	406.45
659.66	404.24
660.00	402.15
660.34	400.18
660.68	398.14
661.02	396.13
661.36	394.29
661.70	392.31
662.05	390.45
662.39	388.57
662.73	386.86
663.07	385.21
663.41	383.46
663.75	381.60
664.09	379.89
664.43	377.80
664.77	376.17
665.11	374.46
665.45	372.87
665.79	371.22
666.13	369.50
666.47	367.83
666.81	366.31
667.15	364.67
667.49	363.21
667.83	361.90
668.17	360.40
668.51	358.84
668.85	357.60
669.19	356.47
669.53	354.85
669.87	353.25
670.21	351.67
670.55	350.32
670.89	349.22
671.23	347.74
671.57	346.61
671.91	345.27
672.25	343.98
672.58	342.77
672.92	341.33
673.26	340.08
673.60	338.99
673.94	337.75
674.28	336.64
674.62	335.47
674.96	334.05
675.30	332.92
675.64	331.79
675.97	330.49
676.31	329.10
676.65	327.92
676.99	327.02
677.33	325.93
677.67	324.80
678.01	323.47
678.34	322.50
678.68	321.47
679.02	320.43
679.36	319.40
679.70	318.35
680.04	317.45
680.37	316.58
680.71	315.53
681.05	314.61
681.39	313.73
681.73	312.73
682.06	311.85
682.40	311.01
682.74	310.14
683.08	309.47
683.42	308.55
683.75	307.85
684.09	306.78
684.43	305.96
684.77	305.07
685.10	304.27
685.44	303.41
685.78	302.53
686.12	301.77
686.45	301.02
686.79	300.23
687.13	299.64
687.46	298.87
687.80	298.28
688.14	297.47
688.48	296.67
688.81	295.90
689.15	295.28
689.49	294.53
689.82	293.88
690.16	292.93
690.50	292.30
690.83	291.50
691.17	290.84
691.51	290.14
691.84	289.66
692.18	289.01
692.52	288.40
692.85	287.78
693.19	287.35
693.52	286.77
693.86	286.14
694.20	285.46
694.53	284.93
694.87	284.19
695.21	283.59
695.54	283.01
695.88	282.41
696.21	281.70
696.55	281.10
696.88	280.50
697.22	279.98
697.56	279.49
697.89	278.95
698.23	278.56
698.56	278.09
698.90	277.56
699.23	277.04
699.57	276.50
699.90	276.02
700.24	275.39
700.58	274.85
700.91	274.49
701.25	274.35
701.58	274.10
701.92	273.85
702.25	273.45
702.59	273.02
702.92	272.66
703.26	272.30
703.59	271.91
703.93	271.84
704.26	271.51
704.60	271.08
704.93	270.61
705.26	270.05
705.60	269.60
705.93	269.13
706.27	268.93
706.60	268.63
706.94	268.49
707.27	268.01
707.61	267.69
707.94	267.19
708.27	266.38
708.61	265.75
708.94	265.25
709.28	264.90
709.61	264.50
709.94	264.13
710.28	263.90
710.61	263.53
710.95	262.79
711.28	262.69
711.61	262.25
711.95	261.99
712.28	261.65
712.61	261.35
712.95	261.25
713.28	260.99
713.61	260.62
713.95	260.08
714.28	259.85
714.61	259.44
714.95	259.19
715.28	258.83
715.61	258.46
715.95	258.19
716.28	257.78
716.61	257.49
716.95	257.09
717.28	256.65
717.61	256.29
717.94	256.05
718.28	255.50
718.61	255.18
718.94	254.87
719.27	254.61
719.61	254.42
719.94	253.99
720.27	253.57
720.60	253.22
720.94	253.07
721.27	252.77
721.60	252.67
721.93	252.37
722.27	252.38
722.60	252.20
722.93	251.86
723.26	251.75
723.59	251.51
723.93	251.41
724.26	251.23
724.59	250.95
724.92	250.70
725.25	250.58
725.59	250.44
725.92	250.19
726.25	249.92
726.58	249.62
726.91	249.43
727.24	249.29
727.57	249.09
727.91	248.74
728.24	248.62
728.57	248.31
728.90	248.15
729.23	247.74
729.56	247.76
729.89	247.65
730.22	247.45
730.55	247.18
730.89	246.93
731.22	246.71
731.55	246.65
731.88	246.48
732.21	246.15
732.54	245.84
732.87	245.69
733.20	245.60
733.53	245.42
733.86	245.24
734.19	245.03
734.52	244.93
734.85	245.10
735.18	244.84
735.51	244.81
735.84	244.66
736.17	244.67
736.50	244.32
736.83	244.65
737.16	244.46
737.49	244.33
737.82	244.15
738.15	244.06
738.48	243.85
738.81	243.75
739.14	243.58
739.47	243.45
739.80	243.33
740.13	243.20
740.46	243.05
740.79	242.83
741.12	242.63
741.45	242.49
741.78	242.15
742.11	242.18
742.44	241.98
742.77	241.91
743.10	241.72
743.43	241.45
743.75	240.84
744.08	241.31
744.41	241.20
744.74	240.98
745.07	240.78
745.40	240.71
745.73	240.69
746.06	240.60
746.39	240.56
746.71	240.42
747.04	240.30
747.37	240.11
747.70	240.12
748.03	240.00
748.36	239.93
748.68	239.75
749.01	239.50
749.34	239.37
749.67	239.25
750.00	239.20
750.33	239.51
750.65	239.43
750.98	238.78
751.31	238.76
751.64	238.79
751.97	238.97
752.29	238.84
752.62	238.58
752.95	238.45
753.28	238.28
753.60	238.15
753.93	238.15
754.26	238.15
754.59	237.91
754.91	237.75
755.24	237.62
755.57	237.52
755.90	237.41
756.22	237.26
756.55	237.10
756.88	236.92
757.20	236.52
757.53	236.30
757.86	236.08
758.19	235.92
758.51	235.86
758.84	235.56
759.17	235.44
759.49	235.33
759.82	235.53
760.15	235.57
760.47	235.52
760.80	235.31
761.13	235.31
761.45	235.19
761.78	235.14
762.11	234.99
762.43	234.84
762.76	234.82
763.08	234.79
763.41	234.69
763.74	234.60
764.06	234.47
764.39	234.38
764.71	234.37
765.04	234.20
765.37	234.04
765.69	233.95
766.02	233.88
766.34	233.76
766.67	233.45
767.00	233.37
767.32	233.53
767.65	233.71
767.97	233.54
768.30	233.51
768.62	233.44
768.95	233.40
769.27	233.29
769.60	233.18
769.92	233.05
770.25	232.96
770.57	232.81
770.90	232.83
771.22	232.73
771.55	232.66
771.87	232.68
772.20	232.66
772.52	232.99
772.85	233.57
773.17	233.56
773.50	233.50
773.82	233.42
774.15	233.14
774.47	232.81
774.80	232.78
775.12	232.70
775.45	232.65
775.77	232.58
776.09	232.62
776.42	232.63
776.74	232.70
777.07	232.60
777.39	232.66
777.72	232.54
778.04	232.55
778.36	232.43
778.69	232.37
779.01	232.35
779.33	231.86
779.66	231.29
779.98	231.23
780.31	231.25
780.63	231.36
780.95	231.41
781.28	231.36
781.60	231.23
781.92	231.26
782.25	231.25
782.57	231.19
782.89	231.14
783.22	231.10
783.54	230.95
783.86	231.03
784.19	230.92
784.51	231.08
784.83	230.97
785.16	231.00
785.48	230.95
785.80	230.86
786.12	230.92
786.45	230.82
786.77	230.80
787.09	230.63
787.42	230.41
787.74	230.39
788.06	230.40
788.38	230.37
788.71	230.27
789.03	230.27
789.35	230.32
789.67	230.26
789.99	230.21
790.32	230.10
790.64	230.08
790.96	230.38
791.28	230.07
791.61	230.08
791.93	230.02
792.25	229.99
792.57	230.29
792.89	230.12
793.21	230.14
793.54	230.12
793.86	230.12
794.18	230.12
794.50	229.97
794.82	229.93
795.14	229.98
795.47	230.05
795.79	230.01
796.11	229.88
796.43	229.80
796.75	229.78
797.07	229.81
797.39	229.79
797.71	229.45
798.04	229.51
798.36	229.50
798.68	229.53
799.00	229.58
799.32	229.35
799.64	229.47
799.96	229.39
800.28	229.40
800.60	229.34
800.92	229.40
801.24	229.41
801.56	229.38
801.89	229.36
802.21	229.38
802.53	229.27
802.85	229.36
803.17	229.59
803.49	229.43
803.81	229.41
804.13	229.35
804.45	229.33
804.77	229.33
805.09	229.25
805.41	229.17
805.73	229.07
806.05	228.94
806.37	228.88
806.69	228.85
807.01	228.81
807.33	228.88
807.65	228.68
807.97	228.87
808.28	228.83
808.60	228.76
808.92	228.66
809.24	228.93
809.56	228.85
809.88	228.59
810.20	228.65
810.52	228.75
810.84	228.66
811.16	228.51
811.48	228.48
811.80	228.74
812.12	228.70
812.43	228.75
812.75	228.78
813.07	228.68
813.39	228.67
813.71	228.60
814.03	228.52
814.35	228.49
814.67	228.26
814.98	228.18
815.30	228.20
815.62	228.08
815.94	227.80
816.26	228.02
816.58	227.98
816.89	227.99
817.21	227.78
817.53	227.80
817.85	227.90
818.17	227.86
818.48	227.56
818.80	227.69
819.12	227.58
819.44	227.43
819.76	227.42
820.07	227.44
820.39	227.39
820.71	227.41
821.03	227.41
821.34	227.34
821.66	227.42
821.98	227.45
822.30	227.48
822.61	227.74
822.93	227.45
823.25	227.43
823.57	227.37
823.88	227.50
824.20	227.44
824.52	227.50
824.83	227.44
825.15	227.45
825.47	227.36
825.79	227.43
826.10	227.44
826.42	227.41
826.74	227.36
827.05	227.35
827.37	227.38
827.69	227.36
828.00	227.40
828.32	227.36
828.64	227.30
828.95	227.57
829.27	227.45
829.58	227.52
829.90	227.60
830.22	227.64
830.53	227.53
830.85	227.49
831.17	227.36
831.48	227.38
831.80	227.37
832.11	227.35
832.43	227.30
832.75	227.30
833.06	227.57
833.38	227.49
833.69	227.53
834.01	227.49
834.32	227.49
834.64	227.49
834.96	227.50
835.27	227.43
835.59	227.18
835.90	227.11
836.22	226.98
836.53	226.81
836.85	226.74
837.16	227.23
837.48	227.23
837.79	227.38
838.11	227.41
838.42	227.44
838.74	227.47
839.05	227.37
839.37	227.40
839.68	227.05
840.00	227.05
840.31	227.07
840.63	227.05
840.94	227.05
841.26	226.98
841.57	226.98
841.88	227.05
842.20	227.02
842.51	226.93
842.83	227.02
843.14	227.46
843.46	227.50
843.77	227.19
844.08	227.21
844.40	227.07
844.71	227.01
845.03	226.93
845.34	226.89
845.65	226.88
845.97	226.86
846.28	226.95
846.60	226.99
846.91	226.92
847.22	226.86
847.54	226.95
847.85	227.00
848.16	226.93
848.48	226.91
848.79	227.09
849.10	227.17
849.42	227.16
849.73	226.82
850.04	226.86
850.36	226.77
850.67	226.91
850.98	226.93
851.30	227.02
851.61	227.07
851.92	227.06
852.23	227.23
852.55	227.27
852.86	227.24
853.17	227.30
853.49	227.47
853.80	227.60
854.11	227.53
854.42	227.60
854.74	227.54
855.05	227.57
855.36	227.38
855.67	227.36
855.99	227.37
856.30	227.92
856.61	227.87
856.92	227.83
857.23	227.78
857.55	227.75
857.86	227.70
858.17	227.74
858.48	227.65
858.79	227.48
859.11	227.51
859.42	227.44
859.73	227.35
860.04	227.21
860.35	227.09
860.66	226.96
860.98	226.93
861.29	226.98
861.60	226.95
861.91	226.98
862.22	226.92
862.53	226.85
862.84	226.24
863.16	226.38
863.47	226.28
863.78	226.29
864.09	226.31
864.40	226.35
864.71	226.44
865.02	226.55
865.33	226.60
865.64	226.51
865.95	226.55
866.27	226.85
866.58	226.83
866.89	226.82
867.20	226.85
867.51	226.75
867.82	226.73
868.13	226.79
868.44	226.71
868.75	226.78
869.06	226.75
869.37	226.85
869.68	226.66
869.99	226.77
870.30	226.70
870.61	226.74
870.92	226.57
871.23	226.50
871.54	226.52
871.85	226.62
872.16	226.67
872.47	226.67
872.78	226.34
873.09	226.47
873.40	226.46
873.71	226.50
874.02	226.55
874.33	226.52
874.64	226.40
874.95	226.52
875.26	226.42
875.56	226.48
875.87	226.42
876.18	226.40
876.49	226.85
876.80	226.84
877.11	226.77
877.42	226.87
877.73	226.84
878.04	226.75
878.35	226.77
878.66	226.79
878.96	226.68
879.27	226.69
879.58	226.55
879.89	226.55
880.20	226.70
880.51	226.63
880.82	226.60
881.12	226.64
881.43	226.52
881.74	226.42
882.05	226.33
882.36	226.37
882.67	226.38
882.97	225.86
883.28	225.86
883.59	225.84
883.90	225.89
884.21	226.00
884.51	226.00
884.82	225.88
885.13	225.82
885.44	225.93
885.74	225.96
886.05	226.00
886.36	226.01
886.67	225.86
886.98	226.15
887.28	226.19
887.59	226.22
887.90	226.23
888.20	226.20
888.51	226.32
888.82	226.21
889.13	226.31
889.43	226.70
889.74	226.61
890.05	226.61
890.35	226.54
890.66	226.38
890.97	226.38
891.28	226.41
891.58	226.46
891.89	226.37
892.20	226.35
892.50	226.30
892.81	226.30
893.12	226.22
893.42	225.98
893.73	226.02
894.04	226.07
894.34	226.15
894.65	226.20
894.95	226.15
895.26	226.23
895.57	226.36
895.87	225.95
896.18	226.15
896.48	226.17
896.79	226.19
897.10	226.29
897.40	226.36
897.71	226.38
898.01	226.30
898.32	226.41
898.63	226.39
898.93	226.36
899.24	226.35
899.54	226.47
899.85	226.48
900.15	226.47
900.46	226.39
900.76	226.38
901.07	226.39
901.38	226.41
901.68	226.42
901.99	226.20
902.29	226.24
902.60	226.16
902.90	226.15
903.21	226.13
903.51	226.12
903.82	226.17
904.12	226.14
904.43	226.28
904.73	226.28
905.03	226.27
905.34	226.79
905.64	226.71
905.95	226.63
906.25	226.67
906.56	226.61
906.86	226.60
907.17	226.58
907.47	226.60
907.77	226.52
908.08	226.42
908.38	226.45
908.69	226.44
908.99	226.58
909.30	226.59
909.60	226.59
909.90	226.61
910.21	226.48
910.51	226.45
910.81	226.36
911.12	226.35
911.42	226.36
911.73	225.91
912.03	225.99
912.33	226.10
912.64	226.03
912.94	226.06
913.24	225.96
913.55	225.96
913.85	225.95
914.15	225.97
914.46	226.12
914.76	226.08
915.06	226.06
915.37	225.92
915.67	225.85
915.97	225.89
916.27	225.79
916.58	225.77
916.88	225.78
917.18	225.76
917.49	226.16
917.79	226.14
918.09	226.13
918.39	226.23
918.70	226.21
919.00	226.28
919.30	226.43
919.60	226.44
919.91	226.31
920.21	226.38
920.51	226.37
920.81	226.29
921.12	226.35
921.42	226.34
921.72	226.33
922.02	226.36
922.32	226.35
922.63	226.43
922.93	226.73
923.23	226.73
923.53	226.69
923.83	226.31
924.13	226.35
924.44	226.37
924.74	226.47
925.04	226.56
925.34	226.50
925.64	226.34
925.94	226.39
926.24	226.75
926.55	226.71
926.85	226.76
927.15	226.77
927.45	226.80
927.75	226.81
928.05	226.84
928.35	226.79
928.65	226.88
928.95	226.85
929.26	226.62
929.56	226.74
929.86	226.77
930.16	226.75
930.46	226.77
930.76	226.80
931.06	226.60
931.36	226.41
931.66	226.50
931.96	226.57
932.26	226.65
932.56	226.45
932.86	226.42
933.16	226.43
933.46	226.42
933.76	226.35
934.06	226.46
934.36	226.65
934.66	226.65
934.96	226.59
935.26	226.61
935.56	226.71
935.86	226.55
936.16	226.50
936.46	226.42
936.76	226.43
937.06	226.35
937.36	226.36
937.66	226.48
937.96	226.42
938.26	226.35
938.56	226.26
938.86	226.30
939.16	226.40
939.46	226.42
939.76	226.41
940.06	226.41
940.35	226.29
940.65	226.02
940.95	226.12
941.25	226.02
941.55	225.97
941.85	225.90
942.15	225.99
942.45	226.14
942.75	226.18
943.04	226.09
943.34	226.19
943.64	226.17
943.94	226.09
944.24	226.05
944.54	226.04
944.84	226.04
945.13	225.90
945.43	225.77
945.73	225.72
946.03	225.65
946.33	225.60
946.62	225.57
946.92	225.52
947.22	225.45
947.52	225.47
947.82	225.56
948.11	225.50
948.41	225.44
948.71	225.27
949.01	225.22
949.31	225.21
949.60	225.21
949.90	225.20
950.20	225.18
950.50	225.23
950.79	225.20
951.09	225.18
951.39	225.21
951.69	225.19
951.98	225.27
952.28	225.37
952.58	225.35
952.87	225.34
953.17	225.46
953.47	225.46
953.76	225.45
954.06	225.31
954.36	225.21
954.66	225.18
954.95	225.32
955.25	225.43
955.55	225.48
955.84	225.33
956.14	225.41
956.44	225.38
956.73	225.22
957.03	225.22
957.32	225.27
957.62	225.25
957.92	225.39
958.21	225.34
958.51	225.80
958.81	225.92
959.10	225.99
959.40	226.06
959.69	226.12
959.99	226.19
960.29	226.19
960.58	226.27
960.88	226.40
961.17	226.34
961.47	226.44
961.76	226.42
962.06	226.57
962.36	226.55
962.65	226.56
962.95	226.62
963.24	226.57
963.54	226.60
963.83	226.60
964.13	226.54
964.42	226.45
964.72	226.14
965.01	226.09
965.31	226.00
965.60	225.91
965.90	226.20
966.19	226.15
966.49	226.19
966.78	226.17
967.08	226.16
967.37	226.13
967.67	225.99
967.96	226.02
968.26	225.96
968.55	226.00
968.85	226.02
969.14	226.02
969.43	226.01
969.73	225.97
970.02	225.97
970.32	225.98
970.61	225.99
970.91	225.80
971.20	225.74
971.49	225.80
971.79	225.88
972.08	225.53
972.38	225.54
972.67	225.55
972.96	225.58
973.26	225.58
973.55	225.76
973.85	225.64
974.14	225.67
974.43	225.67
974.73	225.56
975.02	225.53
975.31	225.56
975.61	225.60
975.90	225.54
976.19	225.45
976.49	225.45
976.78	225.40
977.07	225.40
977.37	225.42
977.66	225.42
977.95	225.26
978.24	225.32
978.54	225.35
978.83	225.27
979.12	225.27
979.42	225.22
979.71	225.10
980.00	225.28
980.29	225.31
980.59	225.20
980.88	225.36
981.17	225.34
981.46	225.26
981.76	225.26
982.05	225.45
982.34	225.61
982.63	225.71
982.93	225.76
983.22	225.90
983.51	225.95
983.80	226.05
984.09	226.23
984.39	226.17
984.68	226.09
984.97	226.10
985.26	226.08
985.55	226.10
985.85	225.98
986.14	225.94
986.43	225.95
986.72	226.01
987.01	225.86
987.30	225.85
987.59	225.83
987.89	225.83
988.18	225.70
988.47	225.60
988.76	225.48
989.05	225.45
989.34	225.26
989.63	225.42
989.92	225.34
990.22	225.20
990.51	225.24
990.80	225.32
991.09	225.40
991.38	225.47
991.67	225.39
991.96	225.42
992.25	225.43
992.54	225.36
992.83	225.36
993.12	225.40
993.41	225.49
993.70	225.80
993.99	225.97
994.28	226.11
994.58	226.13
994.87	226.13
995.16	226.13
995.45	226.15
995.74	225.95
996.03	226.03
996.32	226.08
996.61	226.16
996.90	226.08
997.19	226.06
997.48	226.07
997.77	226.08
998.06	226.06
998.34	226.02
998.63	225.97
998.92	225.99
999.21	226.03
999.50	226.05
999.79	225.85
1000.08	225.79
1000.37	225.71
1000.66	225.69
1000.95	225.80
1001.24	225.85
1001.53	225.99
1001.82	225.98
1002.11	225.87
1002.40	226.00
1002.68	226.15
1002.97	226.51
1003.26	226.52
1003.55	226.49
1003.84	226.55
1004.13	226.76
1004.42	226.75
1004.71	226.75
1004.99	226.75
1005.28	226.87
1005.57	226.83
1005.86	226.85
1006.15	226.80
1006.44	226.71
1006.72	226.74
1007.01	226.64
1007.30	226.71
1007.59	226.61
1007.88	226.60
1008.17	226.62
1008.45	226.38
1008.74	226.15
1009.03	225.93
1009.32	225.88
1009.60	225.90
1009.89	225.85
1010.18	225.60
1010.47	225.58
1010.76	225.60
1011.04	225.63
1011.33	225.60
1011.62	225.62
1011.91	225.62
1012.19	225.63
1012.48	225.71
1012.77	225.67
1013.05	225.95
1013.34	225.85
1013.63	225.85
1013.92	225.84
1014.20	225.76
1014.49	225.92
1014.78	225.91
1015.06	225.70
1015.35	225.75
1015.64	225.69
1015.92	225.70
1016.21	225.74
1016.50	225.74
1016.78	225.78
1017.07	225.74
1017.36	225.63
1017.64	225.52
1017.93	225.57
1018.22	225.51
1018.50	225.45
1018.79	225.49
1019.08	225.19
1019.36	225.22
1019.65	225.10
1019.93	225.25
1020.22	225.35
1020.51	225.53
1020.79	225.49
1021.08	224.80
1021.36	224.65
1021.65	225.95
1021.94	224.55
1022.22	225.35
1022.51	223.10
1022.79	227.85
1023.08	225.95
1023.36	231.50
1023.65	224.15
>>>>>End Processed Spectral Data<<<<<
