SpectraSuite Data File
++++++++++++++++++++++++++++++++++++
Date: Wed Sep 04 17:41:16 EDT 2013
User: lab3
Dark Spectrum Present: Yes
Reference Spectrum Present: No
Number of Sampled Component Spectra: 1
Spectrometers: USB2E7196
Integration Time (usec): 170000 (USB2E7196)
Spectra Averaged: 20 (USB2E7196)
Boxcar Smoothing: 10 (USB2E7196)
Correct for Electrical Dark: No (USB2E7196)
Strobe/Lamp Enabled: No (USB2E7196)
Correct for Detector Non-linearity: No (USB2E7196)
Correct for Stray Light: No (USB2E7196)
Number of Pixels in Processed Spectrum: 2048
>>>>>Begin Processed Spectral Data<<<<<
339.09	0.00
339.48	212.55
339.86	214.20
340.24	216.45
340.63	216.90
341.01	225.00
341.39	219.10
341.78	222.15
342.16	224.15
342.54	223.15
342.93	212.05
343.31	222.73
343.69	223.30
344.07	223.74
344.46	224.23
344.84	224.66
345.22	224.63
345.60	224.94
345.99	225.08
346.37	225.16
346.75	225.22
347.13	225.29
347.52	225.42
347.90	225.60
348.28	225.62
348.66	225.81
349.05	225.63
349.43	225.72
349.81	225.81
350.19	225.80
350.57	225.82
350.96	225.90
351.34	225.96
351.72	226.07
352.10	226.14
352.48	226.11
352.87	226.10
353.25	226.18
353.63	226.23
354.01	226.25
354.39	226.26
354.77	226.37
355.15	226.59
355.54	226.50
355.92	226.41
356.30	226.49
356.68	226.77
357.06	226.98
357.44	226.87
357.82	226.88
358.20	227.41
358.58	227.55
358.97	227.64
359.35	227.87
359.73	227.99
360.11	228.08
360.49	228.13
360.87	228.15
361.25	228.25
361.63	228.41
362.01	228.50
362.39	228.59
362.77	228.63
363.15	228.57
363.53	228.67
363.91	228.75
364.29	228.74
364.67	228.36
365.05	228.29
365.43	228.50
365.81	228.63
366.19	228.46
366.57	228.59
366.95	228.60
367.33	228.50
367.71	228.45
368.09	228.54
368.47	228.48
368.85	228.56
369.23	228.69
369.61	228.54
369.99	228.75
370.37	228.73
370.75	229.01
371.13	228.88
371.51	228.77
371.89	228.78
372.27	228.79
372.65	228.85
373.03	228.90
373.41	228.79
373.78	228.68
374.16	228.42
374.54	228.29
374.92	228.17
375.30	228.14
375.68	227.98
376.06	227.98
376.44	227.93
376.82	227.87
377.19	227.76
377.57	227.69
377.95	227.44
378.33	227.45
378.71	227.12
379.09	227.18
379.47	227.10
379.84	226.96
380.22	226.82
380.60	226.61
380.98	226.59
381.36	226.53
381.73	226.38
382.11	226.37
382.49	226.22
382.87	226.01
383.25	225.92
383.62	226.47
384.00	226.28
384.38	226.30
384.76	226.30
385.13	226.39
385.51	226.36
385.89	226.20
386.27	226.08
386.64	226.05
387.02	225.95
387.40	225.95
387.78	225.94
388.15	225.99
388.53	225.98
388.91	225.78
389.29	225.71
389.66	225.80
390.04	225.76
390.42	225.83
390.79	225.94
391.17	225.93
391.55	225.40
391.92	225.36
392.30	225.36
392.68	225.27
393.05	225.19
393.43	225.16
393.81	225.23
394.18	225.15
394.56	225.16
394.94	225.31
395.31	225.30
395.69	225.46
396.06	225.53
396.44	225.53
396.82	225.58
397.19	225.88
397.57	225.87
397.95	225.99
398.32	225.92
398.70	225.99
399.07	226.14
399.45	226.18
399.82	226.28
400.20	226.34
400.58	226.43
400.95	226.38
401.33	226.51
401.70	226.98
402.08	227.13
402.45	227.21
402.83	227.35
403.20	227.47
403.58	227.50
403.95	227.67
404.33	227.93
404.71	228.09
405.08	228.46
405.46	228.65
405.83	228.86
406.21	229.05
406.58	229.35
406.96	229.52
407.33	229.85
407.70	230.16
408.08	230.87
408.45	231.24
408.83	231.61
409.20	231.95
409.58	231.99
409.95	232.49
410.33	232.94
410.70	233.29
411.08	233.84
411.45	234.32
411.82	234.76
412.20	235.38
412.57	236.37
412.95	236.58
413.32	237.30
413.69	237.97
414.07	238.82
414.44	239.57
414.82	240.43
415.19	241.43
415.56	242.37
415.94	243.17
416.31	244.37
416.68	245.59
417.06	247.00
417.43	248.33
417.81	249.71
418.18	251.22
418.55	252.83
418.93	254.50
419.30	256.29
419.67	258.16
420.04	260.11
420.42	261.84
420.79	264.50
421.16	266.77
421.54	269.38
421.91	271.87
422.28	274.41
422.66	277.14
423.03	280.01
423.40	282.87
423.77	285.80
424.15	288.66
424.52	291.81
424.89	295.25
425.26	298.56
425.64	301.77
426.01	305.20
426.38	308.83
426.75	312.67
427.13	316.50
427.50	320.45
427.87	324.48
428.24	328.65
428.61	332.28
428.99	336.69
429.36	341.13
429.73	345.74
430.10	350.45
430.47	355.23
430.85	359.85
431.22	364.97
431.59	370.69
431.96	375.90
432.33	381.65
432.70	387.13
433.08	393.74
433.45	399.85
433.82	406.08
434.19	412.91
434.56	419.64
434.93	425.88
435.30	432.30
435.68	439.47
436.05	446.42
436.42	453.40
436.79	459.84
437.16	466.76
437.53	474.01
437.90	481.09
438.27	488.12
438.64	495.55
439.01	502.40
439.38	508.16
439.75	514.20
440.13	520.79
440.50	527.09
440.87	532.15
441.24	537.57
441.61	543.33
441.98	547.47
442.35	552.26
442.72	557.41
443.09	562.41
443.46	565.35
443.83	567.41
444.20	569.13
444.57	571.50
444.94	572.49
445.31	573.40
445.68	574.72
446.05	575.11
446.42	574.12
446.79	573.15
447.16	572.06
447.53	571.02
447.90	568.12
448.27	565.11
448.64	561.09
449.01	558.07
449.37	553.05
449.74	548.37
450.11	542.85
450.48	536.43
450.85	529.69
451.22	523.90
451.59	518.47
451.96	513.14
452.33	506.25
452.70	500.18
453.07	493.19
453.43	485.70
453.80	478.59
454.17	471.91
454.54	465.48
454.91	458.60
455.28	452.02
455.65	445.80
456.02	440.35
456.38	435.18
456.75	428.69
457.12	423.20
457.49	417.77
457.86	412.44
458.23	408.21
458.59	403.47
458.96	398.69
459.33	394.46
459.70	390.35
460.07	387.04
460.43	383.13
460.80	379.46
461.17	376.27
461.54	373.10
461.91	369.97
462.27	366.81
462.64	364.14
463.01	361.18
463.38	358.56
463.74	355.07
464.11	352.50
464.48	350.37
464.85	348.11
465.21	346.43
465.58	344.50
465.95	342.17
466.32	340.40
466.68	338.58
467.05	336.62
467.42	334.82
467.78	332.95
468.15	331.29
468.52	330.05
468.88	328.18
469.25	326.49
469.62	325.33
469.98	323.92
470.35	322.76
470.72	321.65
471.08	320.14
471.45	319.16
471.82	318.17
472.18	316.97
472.55	316.20
472.92	315.10
473.28	314.22
473.65	313.34
474.02	312.49
474.38	311.85
474.75	311.41
475.11	310.69
475.48	310.22
475.85	309.70
476.21	309.17
476.58	308.90
476.94	308.69
477.31	308.26
477.67	307.95
478.04	307.66
478.41	307.50
478.77	307.93
479.14	307.81
479.50	307.69
479.87	307.81
480.23	307.91
480.60	308.00
480.96	308.13
481.33	308.51
481.69	308.69
482.06	308.99
482.42	309.26
482.79	309.54
483.15	309.98
483.52	310.56
483.88	311.10
484.25	311.59
484.61	312.22
484.98	312.89
485.34	313.89
485.71	314.75
486.07	315.71
486.44	316.25
486.80	317.23
487.17	318.30
487.53	319.68
487.90	320.95
488.26	322.50
488.62	324.04
488.99	325.50
489.35	327.22
489.72	328.90
490.08	330.71
490.44	332.67
490.81	334.77
491.17	336.80
491.54	339.10
491.90	341.50
492.26	343.99
492.63	346.61
492.99	349.14
493.36	352.07
493.72	355.03
494.08	358.22
494.45	361.59
494.81	365.14
495.17	368.49
495.54	372.18
495.90	375.94
496.26	379.86
496.63	384.00
496.99	388.43
497.35	392.97
497.72	397.71
498.08	402.71
498.44	407.75
498.80	413.20
499.17	418.56
499.53	424.12
499.89	430.06
500.26	436.18
500.62	442.51
500.98	449.00
501.34	455.64
501.71	462.49
502.07	469.38
502.43	476.79
502.79	484.29
503.16	492.04
503.52	499.91
503.88	508.10
504.24	516.67
504.60	525.45
504.97	534.52
505.33	543.69
505.69	553.42
506.05	563.12
506.41	572.88
506.78	582.91
507.14	593.49
507.50	604.10
507.86	614.92
508.22	626.04
508.59	637.11
508.95	648.98
509.31	661.00
509.67	673.12
510.03	685.12
510.39	697.66
510.75	710.45
511.12	723.35
511.48	736.62
511.84	749.90
512.20	763.20
512.56	776.91
512.92	790.95
513.28	804.80
513.64	819.12
514.00	833.83
514.37	848.65
514.73	863.48
515.09	878.55
515.45	893.69
515.81	908.85
516.17	924.27
516.53	939.34
516.89	954.66
517.25	970.58
517.61	987.10
517.97	1003.66
518.33	1019.91
518.69	1036.59
519.05	1053.14
519.41	1069.57
519.77	1086.68
520.13	1102.97
520.49	1119.27
520.85	1137.42
521.21	1153.98
521.57	1170.69
521.93	1187.07
522.29	1203.86
522.65	1220.02
523.01	1236.26
523.37	1252.30
523.73	1268.69
524.09	1284.77
524.45	1300.75
524.81	1316.75
525.17	1332.35
525.53	1347.49
525.89	1363.30
526.25	1378.71
526.61	1394.10
526.97	1410.19
527.33	1425.86
527.68	1442.47
528.04	1458.54
528.40	1472.44
528.76	1488.02
529.12	1502.93
529.48	1518.28
529.84	1532.84
530.20	1548.18
530.56	1563.46
530.91	1578.88
531.27	1593.59
531.63	1608.25
531.99	1623.01
532.35	1637.10
532.71	1651.30
533.07	1666.39
533.42	1680.12
533.78	1694.06
534.14	1707.77
534.50	1720.90
534.86	1734.30
535.21	1745.75
535.57	1758.45
535.93	1770.67
536.29	1782.65
536.65	1795.02
537.00	1806.75
537.36	1818.36
537.72	1829.02
538.08	1840.20
538.44	1850.87
538.79	1861.70
539.15	1872.11
539.51	1882.24
539.87	1891.95
540.22	1900.77
540.58	1909.43
540.94	1917.58
541.29	1924.93
541.65	1932.23
542.01	1939.25
542.37	1944.62
542.72	1951.04
543.08	1956.06
543.44	1962.47
543.79	1967.70
544.15	1972.36
544.51	1977.49
544.87	1982.38
545.22	1986.57
545.58	1989.84
545.94	1992.71
546.29	1994.78
546.65	1997.30
547.01	1998.90
547.36	2000.54
547.72	2002.04
548.07	2002.23
548.43	2003.47
548.79	2004.60
549.14	2005.33
549.50	2005.94
549.86	2006.60
550.21	2006.94
550.57	2007.55
550.92	2006.09
551.28	2004.81
551.64	2004.44
551.99	2003.38
552.35	2001.68
552.70	2000.89
553.06	1999.65
553.41	1997.93
553.77	1997.08
554.13	1995.99
554.48	1994.72
554.84	1993.21
555.19	1991.86
555.55	1991.06
555.90	1988.37
556.26	1985.65
556.61	1982.04
556.97	1978.16
557.32	1975.13
557.68	1972.18
558.03	1968.87
558.39	1965.68
558.74	1962.87
559.10	1958.37
559.45	1953.55
559.81	1948.73
560.16	1942.97
560.52	1937.61
560.87	1932.73
561.23	1926.68
561.58	1920.40
561.94	1913.56
562.29	1906.74
562.64	1899.78
563.00	1891.85
563.35	1885.31
563.71	1878.63
564.06	1872.32
564.42	1865.92
564.77	1859.65
565.12	1852.84
565.48	1845.96
565.83	1839.03
566.19	1831.81
566.54	1824.75
566.89	1817.47
567.25	1810.58
567.60	1804.12
567.96	1797.56
568.31	1790.66
568.66	1783.45
569.02	1775.66
569.37	1768.74
569.72	1762.18
570.08	1754.46
570.43	1746.99
570.78	1739.48
571.14	1731.74
571.49	1723.82
571.84	1715.76
572.20	1706.95
572.55	1698.26
572.90	1689.11
573.26	1680.59
573.61	1671.78
573.96	1662.95
574.31	1653.60
574.67	1644.39
575.02	1634.47
575.37	1624.30
575.72	1614.10
576.08	1604.76
576.43	1595.31
576.78	1585.23
577.13	1574.66
577.49	1565.28
577.84	1556.18
578.19	1547.00
578.54	1537.62
578.90	1528.49
579.25	1519.35
579.60	1510.09
579.95	1500.55
580.30	1491.01
580.66	1481.03
581.01	1470.90
581.36	1460.68
581.71	1451.39
582.06	1441.79
582.42	1432.78
582.77	1423.75
583.12	1415.03
583.47	1405.97
583.82	1397.21
584.17	1388.69
584.53	1380.24
584.88	1370.71
585.23	1360.84
585.58	1350.62
585.93	1340.88
586.28	1331.25
586.63	1321.33
586.98	1311.21
587.34	1301.82
587.69	1292.46
588.04	1283.35
588.39	1274.68
588.74	1266.01
589.09	1257.57
589.44	1248.44
589.79	1239.78
590.14	1231.32
590.49	1222.58
590.84	1213.90
591.19	1205.12
591.54	1196.27
591.89	1187.62
592.25	1180.41
592.60	1172.68
592.95	1164.86
593.30	1156.70
593.65	1148.36
594.00	1140.18
594.35	1133.61
594.70	1125.34
595.05	1117.25
595.40	1108.89
595.75	1100.56
596.10	1092.77
596.45	1084.77
596.80	1077.37
597.15	1069.30
597.50	1061.05
597.85	1053.48
598.19	1045.52
598.54	1037.60
598.89	1029.84
599.24	1022.53
599.59	1014.43
599.94	1006.99
600.29	999.75
600.64	992.60
600.99	985.45
601.34	978.74
601.69	970.68
602.04	964.00
602.39	957.53
602.74	951.61
603.08	945.49
603.43	939.20
603.78	932.58
604.13	926.01
604.48	919.56
604.83	913.00
605.18	906.06
605.53	899.70
605.87	893.52
606.22	888.03
606.57	881.81
606.92	875.51
607.27	869.45
607.62	863.67
607.96	858.12
608.31	852.66
608.66	846.95
609.01	841.24
609.36	835.74
609.70	829.85
610.05	823.80
610.40	818.05
610.75	812.12
611.10	806.59
611.44	800.87
611.79	795.38
612.14	790.05
612.49	784.63
612.83	779.52
613.18	774.25
613.53	768.76
613.88	763.36
614.22	758.13
614.57	752.67
614.92	747.24
615.27	742.03
615.61	736.74
615.96	731.57
616.31	726.45
616.65	721.50
617.00	716.55
617.35	711.63
617.70	706.73
618.04	701.85
618.39	697.05
618.74	692.69
619.08	688.10
619.43	683.32
619.78	678.81
620.12	673.99
620.47	669.40
620.82	664.70
621.16	660.04
621.51	655.97
621.85	651.75
622.20	647.49
622.55	643.04
622.89	638.68
623.24	634.41
623.59	630.20
623.93	625.95
624.28	621.94
624.62	618.39
624.97	614.46
625.32	610.63
625.66	606.66
626.01	602.55
626.35	598.71
626.70	595.00
627.04	591.51
627.39	587.70
627.73	584.15
628.08	580.60
628.43	577.00
628.77	573.06
629.12	569.42
629.46	566.01
629.81	562.85
630.15	559.70
630.50	556.43
630.84	553.14
631.19	549.81
631.53	546.71
631.88	542.92
632.22	539.65
632.57	536.51
632.91	533.31
633.26	530.25
633.60	527.19
633.95	524.06
634.29	520.70
634.64	517.81
634.98	514.49
635.32	511.49
635.67	508.64
636.01	505.80
636.36	502.89
636.70	500.12
637.05	497.11
637.39	494.30
637.73	491.55
638.08	488.82
638.42	485.95
638.77	483.00
639.11	480.09
639.45	477.00
639.80	474.02
640.14	471.29
640.49	468.57
640.83	465.84
641.17	463.28
641.52	460.77
641.86	458.28
642.20	456.21
642.55	453.67
642.89	451.23
643.23	448.86
643.58	446.79
643.92	444.19
644.26	441.86
644.61	439.57
644.95	437.33
645.29	434.98
645.64	432.83
645.98	430.57
646.32	428.69
646.66	426.67
647.01	424.51
647.35	422.57
647.69	420.58
648.04	418.64
648.38	416.79
648.72	414.77
649.06	412.64
649.41	410.40
649.75	408.43
650.09	406.49
650.43	404.49
650.78	402.33
651.12	400.50
651.46	398.51
651.80	396.53
652.14	394.61
652.49	392.95
652.83	391.15
653.17	389.50
653.51	387.51
653.85	385.89
654.20	384.38
654.54	382.53
654.88	380.77
655.22	379.29
655.56	377.57
655.90	376.02
656.25	374.52
656.59	373.10
656.93	371.61
657.27	370.15
657.61	368.53
657.95	367.05
658.29	365.57
658.64	364.15
658.98	362.64
659.32	360.99
659.66	359.45
660.00	358.03
660.34	356.55
660.68	355.22
661.02	353.86
661.36	352.39
661.70	350.98
662.05	349.62
662.39	348.25
662.73	347.15
663.07	346.08
663.41	344.78
663.75	343.34
664.09	341.99
664.43	340.63
664.77	339.43
665.11	338.24
665.45	337.10
665.79	336.05
666.13	334.94
666.47	333.85
666.81	332.65
667.15	331.34
667.49	330.33
667.83	329.42
668.17	328.34
668.51	327.28
668.85	326.44
669.19	325.75
669.53	324.70
669.87	323.57
670.21	322.38
670.55	321.52
670.89	320.91
671.23	320.02
671.57	319.04
671.91	318.23
672.25	317.30
672.58	316.48
672.92	315.38
673.26	314.49
673.60	313.70
673.94	312.92
674.28	312.20
674.62	311.44
674.96	310.56
675.30	309.75
675.64	308.91
675.97	308.04
676.31	307.01
676.65	306.00
676.99	305.34
677.33	304.55
677.67	303.72
678.01	302.70
678.34	301.92
678.68	301.37
679.02	300.60
679.36	299.87
679.70	298.96
680.04	298.26
680.37	297.58
680.71	296.90
681.05	296.19
681.39	295.55
681.73	294.78
682.06	294.08
682.40	293.48
682.74	293.00
683.08	292.53
683.42	291.90
683.75	291.47
684.09	290.65
684.43	290.08
684.77	289.47
685.10	288.91
685.44	288.39
685.78	287.72
686.12	287.10
686.45	286.45
686.79	285.91
687.13	285.41
687.46	284.80
687.80	284.36
688.14	283.80
688.48	283.27
688.81	282.75
689.15	282.28
689.49	281.67
689.82	281.15
690.16	280.49
690.50	279.92
690.83	279.24
691.17	278.71
691.51	278.09
691.84	277.61
692.18	277.01
692.52	276.50
692.85	276.08
693.19	275.78
693.52	275.34
693.86	274.88
694.20	274.40
694.53	273.95
694.87	273.48
695.21	273.01
695.54	272.57
695.88	272.06
696.21	271.52
696.55	271.04
696.88	270.50
697.22	269.95
697.56	269.56
697.89	269.18
698.23	268.82
698.56	268.42
698.90	268.09
699.23	267.67
699.57	267.22
699.90	266.73
700.24	266.17
700.58	265.84
700.91	265.59
701.25	265.62
701.58	265.61
701.92	265.25
702.25	264.85
702.59	264.44
702.92	264.07
703.26	263.73
703.59	263.42
703.93	263.48
704.26	263.38
704.60	263.17
704.93	262.86
705.26	262.44
705.60	262.23
705.93	261.75
706.27	261.64
706.60	261.46
706.94	261.39
707.27	261.09
707.61	260.78
707.94	260.41
708.27	259.75
708.61	259.08
708.94	258.67
709.28	258.46
709.61	258.11
709.94	257.90
710.28	257.69
710.61	257.43
710.95	256.76
711.28	256.68
711.61	256.33
711.95	256.09
712.28	255.82
712.61	255.54
712.95	255.55
713.28	255.38
713.61	255.07
713.95	254.64
714.28	254.41
714.61	254.15
714.95	253.81
715.28	253.46
715.61	253.17
715.95	252.99
716.28	252.73
716.61	252.59
716.95	252.30
717.28	251.97
717.61	251.68
717.94	251.47
718.28	250.85
718.61	250.57
718.94	250.35
719.27	250.15
719.61	249.95
719.94	249.64
720.27	249.21
720.60	248.95
720.94	248.72
721.27	248.58
721.60	248.46
721.93	248.35
722.27	248.32
722.60	248.32
722.93	248.08
723.26	247.92
723.59	247.73
723.93	247.61
724.26	247.52
724.59	247.29
724.92	247.18
725.25	247.08
725.59	246.90
725.92	246.81
726.25	246.65
726.58	246.51
726.91	246.25
727.24	246.15
727.57	245.94
727.91	245.67
728.24	245.50
728.57	245.27
728.90	245.07
729.23	244.81
729.56	244.79
729.89	244.66
730.22	244.45
730.55	244.22
730.89	244.04
731.22	243.83
731.55	243.73
731.88	243.57
732.21	243.40
732.54	243.23
732.87	243.00
733.20	242.85
733.53	242.67
733.86	242.61
734.19	242.45
734.52	242.45
734.85	242.68
735.18	242.43
735.51	242.42
735.84	242.45
736.17	242.35
736.50	242.01
736.83	242.40
737.16	242.21
737.49	242.14
737.82	241.99
738.15	241.92
738.48	241.78
738.81	241.65
739.14	241.46
739.47	241.25
739.80	241.10
740.13	241.07
740.46	240.88
740.79	240.71
741.12	240.52
741.45	240.32
741.78	239.94
742.11	240.05
742.44	239.79
742.77	239.62
743.10	239.40
743.43	239.20
743.75	238.53
744.08	239.09
744.41	238.84
744.74	238.74
745.07	238.52
745.40	238.48
745.73	238.44
746.06	238.34
746.39	238.36
746.71	238.24
747.04	238.07
747.37	237.95
747.70	237.91
748.03	237.89
748.36	237.92
748.68	237.78
749.01	237.42
749.34	237.31
749.67	237.18
750.00	237.27
750.33	237.55
750.65	237.50
750.98	236.77
751.31	236.80
751.64	236.69
751.97	236.88
752.29	236.70
752.62	236.35
752.95	236.17
753.28	235.99
753.60	235.90
753.93	235.93
754.26	235.92
754.59	235.70
754.91	235.49
755.24	235.31
755.57	235.32
755.90	235.24
756.22	235.16
756.55	235.03
756.88	234.79
757.20	234.36
757.53	234.15
757.86	234.10
758.19	234.00
758.51	233.90
758.84	233.60
759.17	233.50
759.49	233.51
759.82	233.78
760.15	233.77
760.47	233.67
760.80	233.38
761.13	233.30
761.45	233.20
761.78	233.12
762.11	233.06
762.43	232.89
762.76	232.79
763.08	232.72
763.41	232.70
763.74	232.70
764.06	232.68
764.39	232.70
764.71	232.62
765.04	232.47
765.37	232.36
765.69	232.25
766.02	232.15
766.34	232.09
766.67	231.80
767.00	231.86
767.32	232.02
767.65	232.26
767.97	232.25
768.30	232.19
768.62	232.12
768.95	231.96
769.27	231.94
769.60	231.99
769.92	231.92
770.25	231.80
770.57	231.61
770.90	231.57
771.22	231.46
771.55	231.45
771.87	231.46
772.20	231.40
772.52	231.77
772.85	232.39
773.17	232.36
773.50	232.29
773.82	232.09
774.15	231.93
774.47	231.65
774.80	231.49
775.12	231.45
775.45	231.48
775.77	231.52
776.09	231.46
776.42	231.47
776.74	231.51
777.07	231.45
777.39	231.41
777.72	231.30
778.04	231.25
778.36	231.09
778.69	231.09
779.01	231.09
779.33	230.68
779.66	230.06
779.98	230.00
780.31	229.95
780.63	230.11
780.95	230.11
781.28	230.01
781.60	229.97
781.92	229.89
782.25	229.83
782.57	229.79
782.89	229.72
783.22	229.56
783.54	229.51
783.86	229.49
784.19	229.46
784.51	229.59
784.83	229.53
785.16	229.54
785.48	229.44
785.80	229.43
786.12	229.42
786.45	229.44
786.77	229.44
787.09	229.42
787.42	229.21
787.74	229.20
788.06	229.23
788.38	229.19
788.71	229.14
789.03	229.14
789.35	229.19
789.67	229.11
789.99	229.18
790.32	229.07
790.64	229.05
790.96	229.47
791.28	229.26
791.61	229.24
791.93	229.25
792.25	229.28
792.57	229.50
792.89	229.39
793.21	229.38
793.54	229.26
793.86	229.20
794.18	229.20
794.50	229.08
794.82	229.06
795.14	229.08
795.47	229.19
795.79	229.18
796.11	229.01
796.43	228.98
796.75	228.87
797.07	228.87
797.39	228.85
797.71	228.45
798.04	228.46
798.36	228.47
798.68	228.49
799.00	228.49
799.32	228.33
799.64	228.43
799.96	228.38
800.28	228.48
800.60	228.37
800.92	228.42
801.24	228.39
801.56	228.42
801.89	228.42
802.21	228.41
802.53	228.31
802.85	228.36
803.17	228.58
803.49	228.59
803.81	228.55
804.13	228.52
804.45	228.43
804.77	228.46
805.09	228.45
805.41	228.33
805.73	228.19
806.05	228.05
806.37	227.98
806.69	227.90
807.01	227.91
807.33	228.02
807.65	227.83
807.97	228.04
808.28	227.91
808.60	227.85
808.92	227.76
809.24	228.03
809.56	228.01
809.88	227.87
810.20	227.89
810.52	227.95
810.84	227.87
811.16	227.79
811.48	227.75
811.80	227.87
812.12	227.91
812.43	227.98
812.75	228.02
813.07	227.99
813.39	228.00
813.71	227.89
814.03	227.81
814.35	227.84
814.67	227.64
814.98	227.64
815.30	227.64
815.62	227.53
815.94	227.20
816.26	227.37
816.58	227.20
816.89	227.15
817.21	226.99
817.53	227.05
817.85	227.14
818.17	227.18
818.48	227.00
818.80	227.12
819.12	227.05
819.44	226.91
819.76	226.87
820.07	226.94
820.39	226.84
820.71	226.89
821.03	226.81
821.34	226.69
821.66	226.78
821.98	226.84
822.30	226.77
822.61	227.05
822.93	226.82
823.25	226.85
823.57	226.83
823.88	227.00
824.20	226.96
824.52	226.99
824.83	226.90
825.15	226.88
825.47	226.73
825.79	226.80
826.10	226.77
826.42	226.74
826.74	226.68
827.05	226.69
827.37	226.64
827.69	226.64
828.00	226.67
828.32	226.62
828.64	226.51
828.95	226.82
829.27	226.70
829.58	226.69
829.90	226.73
830.22	226.72
830.53	226.53
830.85	226.55
831.17	226.46
831.48	226.41
831.80	226.43
832.11	226.48
832.43	226.35
832.75	226.38
833.06	226.60
833.38	226.44
833.69	226.49
834.01	226.63
834.32	226.71
834.64	226.77
834.96	226.80
835.27	226.81
835.59	226.58
835.90	226.51
836.22	226.50
836.53	226.49
836.85	226.54
837.16	226.99
837.48	226.94
837.79	227.07
838.11	227.13
838.42	227.11
838.74	227.15
839.05	227.18
839.37	227.15
839.68	226.86
840.00	226.91
840.31	226.95
840.63	226.83
840.94	226.72
841.26	226.71
841.57	226.69
841.88	226.75
842.20	226.80
842.51	226.68
842.83	226.65
843.14	227.08
843.46	227.06
843.77	226.83
844.08	226.81
844.40	226.61
844.71	226.55
845.03	226.46
845.34	226.40
845.65	226.38
845.97	226.45
846.28	226.50
846.60	226.62
846.91	226.53
847.22	226.52
847.54	226.71
847.85	226.73
848.16	226.67
848.48	226.57
848.79	226.73
849.10	226.85
849.42	226.96
849.73	226.45
850.04	226.39
850.36	226.26
850.67	226.35
850.98	226.42
851.30	226.47
851.61	226.56
851.92	226.53
852.23	226.67
852.55	226.59
852.86	226.63
853.17	226.55
853.49	226.63
853.80	226.72
854.11	226.68
854.42	226.68
854.74	226.63
855.05	226.68
855.36	226.45
855.67	226.46
855.99	226.37
856.30	227.00
856.61	227.04
856.92	227.02
857.23	226.96
857.55	226.97
857.86	226.99
858.17	227.02
858.48	227.03
858.79	226.97
859.11	227.09
859.42	227.08
859.73	227.03
860.04	227.00
860.35	226.81
860.66	226.66
860.98	226.64
861.29	226.73
861.60	226.67
861.91	226.74
862.22	226.64
862.53	226.59
862.84	226.00
863.16	226.09
863.47	226.06
863.78	226.08
864.09	226.05
864.40	226.01
864.71	225.98
865.02	225.99
865.33	225.90
865.64	225.76
865.95	225.67
866.27	226.05
866.58	226.05
866.89	226.17
867.20	226.13
867.51	226.06
867.82	226.01
868.13	226.19
868.44	226.12
868.75	226.20
869.06	226.23
869.37	226.25
869.68	226.07
869.99	226.20
870.30	226.21
870.61	226.35
870.92	226.28
871.23	226.31
871.54	226.36
871.85	226.49
872.16	226.59
872.47	226.61
872.78	226.25
873.09	226.26
873.40	226.24
873.71	226.35
874.02	226.43
874.33	226.40
874.64	226.28
874.95	226.44
875.26	226.30
875.56	226.35
875.87	226.36
876.18	226.42
876.49	226.85
876.80	226.79
877.11	226.64
877.42	226.71
877.73	226.72
878.04	226.68
878.35	226.67
878.66	226.75
878.96	226.76
879.27	226.81
879.58	226.84
879.89	226.84
880.20	226.97
880.51	226.91
880.82	226.95
881.12	226.98
881.43	226.80
881.74	226.80
882.05	226.77
882.36	226.86
882.67	226.86
882.97	226.33
883.28	226.30
883.59	226.29
883.90	226.33
884.21	226.38
884.51	226.34
884.82	226.29
885.13	226.20
885.44	226.13
885.74	226.11
886.05	226.10
886.36	226.01
886.67	225.82
886.98	226.03
887.28	226.08
887.59	226.06
887.90	226.18
888.20	226.10
888.51	226.17
888.82	226.01
889.13	226.10
889.43	226.41
889.74	226.40
890.05	226.42
890.35	226.35
890.66	226.17
890.97	226.14
891.28	226.05
891.58	226.04
891.89	226.10
892.20	226.07
892.50	225.96
892.81	226.00
893.12	225.98
893.42	225.80
893.73	225.82
894.04	225.79
894.34	225.72
894.65	225.78
894.95	225.66
895.26	225.71
895.57	225.87
895.87	225.50
896.18	225.67
896.48	225.67
896.79	225.68
897.10	225.81
897.40	225.79
897.71	225.87
898.01	225.86
898.32	225.94
898.63	225.85
898.93	225.92
899.24	226.02
899.54	226.06
899.85	225.96
900.15	225.90
900.46	225.88
900.76	225.91
901.07	225.93
901.38	225.97
901.68	226.03
901.99	225.80
902.29	225.84
902.60	225.70
902.90	225.66
903.21	225.67
903.51	225.59
903.82	225.74
904.12	225.70
904.43	225.78
904.73	225.72
905.03	225.79
905.34	226.26
905.64	226.11
905.95	226.07
906.25	226.20
906.56	226.24
906.86	226.35
907.17	226.35
907.47	226.33
907.77	226.27
908.08	226.19
908.38	226.16
908.69	226.19
908.99	226.36
909.30	226.44
909.60	226.43
909.90	226.50
910.21	226.35
910.51	226.35
910.81	226.29
911.12	226.30
911.42	226.30
911.73	225.75
912.03	225.87
912.33	226.01
912.64	225.93
912.94	225.87
913.24	225.75
913.55	225.69
913.85	225.71
914.15	225.87
914.46	225.93
914.76	225.93
915.06	225.85
915.37	225.70
915.67	225.66
915.97	225.65
916.27	225.59
916.58	225.69
916.88	225.68
917.18	225.68
917.49	226.05
917.79	226.11
918.09	226.23
918.39	226.26
918.70	226.14
919.00	226.16
919.30	226.38
919.60	226.41
919.91	226.41
920.21	226.47
920.51	226.23
920.81	226.13
921.12	226.27
921.42	226.35
921.72	226.46
922.02	226.47
922.32	226.61
922.63	226.60
922.93	226.79
923.23	226.83
923.53	226.75
923.83	226.45
924.13	226.45
924.44	226.48
924.74	226.56
925.04	226.75
925.34	226.76
925.64	226.50
925.94	226.45
926.24	226.74
926.55	226.65
926.85	226.73
927.15	226.81
927.45	226.67
927.75	226.62
928.05	226.61
928.35	226.53
928.65	226.55
928.95	226.57
929.26	226.39
929.56	226.41
929.86	226.49
930.16	226.45
930.46	226.35
930.76	226.31
931.06	226.13
931.36	225.96
931.66	225.99
931.96	226.07
932.26	226.12
932.56	225.84
932.86	225.90
933.16	226.00
933.46	225.90
933.76	225.85
934.06	225.96
934.36	226.03
934.66	226.08
934.96	225.98
935.26	226.04
935.56	226.03
935.86	226.01
936.16	225.91
936.46	225.83
936.76	225.87
937.06	225.74
937.36	225.72
937.66	225.75
937.96	225.78
938.26	225.65
938.56	225.49
938.86	225.50
939.16	225.56
939.46	225.53
939.76	225.57
940.06	225.61
940.35	225.42
940.65	225.18
940.95	225.21
941.25	225.15
941.55	225.10
941.85	225.08
942.15	225.11
942.45	225.28
942.75	225.32
943.04	225.30
943.34	225.44
943.64	225.44
943.94	225.39
944.24	225.38
944.54	225.44
944.84	225.53
945.13	225.52
945.43	225.45
945.73	225.45
946.03	225.45
946.33	225.41
946.62	225.47
946.92	225.46
947.22	225.50
947.52	225.45
947.82	225.58
948.11	225.51
948.41	225.45
948.71	225.36
949.01	225.39
949.31	225.42
949.60	225.39
949.90	225.43
950.20	225.42
950.50	225.40
950.79	225.41
951.09	225.49
951.39	225.49
951.69	225.45
951.98	225.55
952.28	225.57
952.58	225.58
952.87	225.56
953.17	225.67
953.47	225.70
953.76	225.75
954.06	225.58
954.36	225.55
954.66	225.54
954.95	225.67
955.25	225.66
955.55	225.66
955.84	225.62
956.14	225.71
956.44	225.78
956.73	225.68
957.03	225.71
957.32	225.70
957.62	225.60
957.92	225.70
958.21	225.67
958.51	226.18
958.81	226.29
959.10	226.32
959.40	226.37
959.69	226.30
959.99	226.36
960.29	226.43
960.58	226.39
960.88	226.60
961.17	226.48
961.47	226.62
961.76	226.63
962.06	226.74
962.36	226.65
962.65	226.67
962.95	226.69
963.24	226.59
963.54	226.60
963.83	226.70
964.13	226.68
964.42	226.56
964.72	226.18
965.01	226.14
965.31	226.13
965.60	226.06
965.90	226.31
966.19	226.22
966.49	226.20
966.78	226.24
967.08	226.10
967.37	226.11
967.67	225.95
967.96	226.06
968.26	226.00
968.55	226.12
968.85	226.10
969.14	226.13
969.43	226.15
969.73	226.05
970.02	226.06
970.32	226.04
970.61	226.03
970.91	225.87
971.20	225.81
971.49	225.81
971.79	225.86
972.08	225.59
972.38	225.66
972.67	225.62
972.96	225.71
973.26	225.65
973.55	225.81
973.85	225.79
974.14	225.66
974.43	225.66
974.73	225.48
975.02	225.42
975.31	225.42
975.61	225.40
975.90	225.47
976.19	225.37
976.49	225.39
976.78	225.45
977.07	225.50
977.37	225.58
977.66	225.54
977.95	225.50
978.24	225.54
978.54	225.64
978.83	225.56
979.12	225.47
979.42	225.46
979.71	225.35
980.00	225.41
980.29	225.46
980.59	225.33
980.88	225.43
981.17	225.43
981.46	225.42
981.76	225.43
982.05	225.52
982.34	225.58
982.63	225.52
982.93	225.46
983.22	225.53
983.51	225.45
983.80	225.51
984.09	225.50
984.39	225.42
984.68	225.27
984.97	225.35
985.26	225.38
985.55	225.45
985.85	225.35
986.14	225.33
986.43	225.34
986.72	225.25
987.01	225.17
987.30	225.12
987.59	225.08
987.89	225.10
988.18	224.93
988.47	224.92
988.76	224.91
989.05	224.87
989.34	224.78
989.63	224.96
989.92	224.94
990.22	224.96
990.51	224.98
990.80	225.00
991.09	225.06
991.38	225.07
991.67	224.95
991.96	224.90
992.25	224.93
992.54	224.85
992.83	224.98
993.12	224.93
993.41	225.09
993.70	225.23
993.99	225.33
994.28	225.46
994.58	225.59
994.87	225.51
995.16	225.55
995.45	225.57
995.74	225.41
996.03	225.45
996.32	225.51
996.61	225.67
996.90	225.61
997.19	225.55
997.48	225.59
997.77	225.59
998.06	225.67
998.34	225.70
998.63	225.75
998.92	225.75
999.21	225.87
999.50	225.87
999.79	225.78
1000.08	225.79
1000.37	225.82
1000.66	225.62
1000.95	225.78
1001.24	225.78
1001.53	225.87
1001.82	225.87
1002.11	225.78
1002.40	225.79
1002.68	225.87
1002.97	226.25
1003.26	226.17
1003.55	226.13
1003.84	226.12
1004.13	226.32
1004.42	226.32
1004.71	226.36
1004.99	226.39
1005.28	226.49
1005.57	226.45
1005.86	226.39
1006.15	226.29
1006.44	226.16
1006.72	226.28
1007.01	226.25
1007.30	226.29
1007.59	226.23
1007.88	226.24
1008.17	226.25
1008.45	226.11
1008.74	225.92
1009.03	225.74
1009.32	225.77
1009.60	225.78
1009.89	225.74
1010.18	225.51
1010.47	225.41
1010.76	225.30
1011.04	225.27
1011.33	225.25
1011.62	225.21
1011.91	225.26
1012.19	225.32
1012.48	225.29
1012.77	225.27
1013.05	225.42
1013.34	225.39
1013.63	225.38
1013.92	225.38
1014.20	225.39
1014.49	225.48
1014.78	225.47
1015.06	225.29
1015.35	225.26
1015.64	225.28
1015.92	225.35
1016.21	225.38
1016.50	225.41
1016.78	225.55
1017.07	225.59
1017.36	225.43
1017.64	225.44
1017.93	225.45
1018.22	225.34
1018.50	225.33
1018.79	225.31
1019.08	225.05
1019.36	225.09
1019.65	225.04
1019.93	225.16
1020.22	225.20
1020.51	225.41
1020.79	225.35
1021.08	223.90
1021.36	223.55
1021.65	225.00
1021.94	223.85
1022.22	225.80
1022.51	224.65
1022.79	227.30
1023.08	226.15
1023.36	230.70
1023.65	223.90
>>>>>End Processed Spectral Data<<<<<
