SpectraSuite Data File
++++++++++++++++++++++++++++++++++++
Date: Wed Sep 04 18:04:04 EDT 2013
User: lab3
Dark Spectrum Present: Yes
Reference Spectrum Present: No
Number of Sampled Component Spectra: 1
Spectrometers: USB2E7196
Integration Time (usec): 170000 (USB2E7196)
Spectra Averaged: 20 (USB2E7196)
Boxcar Smoothing: 10 (USB2E7196)
Correct for Electrical Dark: No (USB2E7196)
Strobe/Lamp Enabled: No (USB2E7196)
Correct for Detector Non-linearity: No (USB2E7196)
Correct for Stray Light: No (USB2E7196)
Number of Pixels in Processed Spectrum: 2048
>>>>>Begin Processed Spectral Data<<<<<
339.09	0.00
339.48	212.80
339.86	214.85
340.24	215.75
340.63	218.65
341.01	226.25
341.39	220.50
341.78	222.45
342.16	224.85
342.54	222.75
342.93	212.59
343.31	223.21
343.69	223.84
344.07	224.33
344.46	224.89
344.84	225.26
345.22	225.24
345.60	225.51
345.99	225.70
346.37	225.80
346.75	225.95
347.13	226.00
347.52	226.05
347.90	226.30
348.28	226.41
348.66	226.64
349.05	226.46
349.43	226.57
349.81	226.68
350.19	226.76
350.57	226.82
350.96	226.90
351.34	227.08
351.72	227.14
352.10	227.19
352.48	227.16
352.87	227.23
353.25	227.33
353.63	227.35
354.01	227.45
354.39	227.48
354.77	227.57
355.15	227.77
355.54	227.81
355.92	227.65
356.30	227.65
356.68	227.95
357.06	228.09
357.44	228.07
357.82	228.13
358.20	228.47
358.58	228.52
358.97	228.66
359.35	228.76
359.73	228.90
360.11	228.91
360.49	228.99
360.87	229.06
361.25	229.10
361.63	229.31
362.01	229.33
362.39	229.39
362.77	229.44
363.15	229.45
363.53	229.47
363.91	229.59
364.29	229.73
364.67	229.35
365.05	229.43
365.43	229.53
365.81	229.58
366.19	229.47
366.57	229.65
366.95	229.56
367.33	229.54
367.71	229.52
368.09	229.70
368.47	229.74
368.85	229.64
369.23	229.79
369.61	229.60
369.99	229.75
370.37	229.83
370.75	230.04
371.13	229.86
371.51	229.80
371.89	229.83
372.27	229.80
372.65	229.87
373.03	229.81
373.41	229.75
373.78	229.71
374.16	229.51
374.54	229.33
374.92	229.28
375.30	229.20
375.68	229.08
376.06	229.00
376.44	228.91
376.82	228.94
377.19	228.81
377.57	228.85
377.95	228.62
378.33	228.53
378.71	228.18
379.09	228.33
379.47	228.31
379.84	228.23
380.22	228.07
380.60	227.88
380.98	227.81
381.36	227.67
381.73	227.48
382.11	227.53
382.49	227.48
382.87	227.40
383.25	227.36
383.62	227.85
384.00	227.71
384.38	227.68
384.76	227.72
385.13	227.87
385.51	227.79
385.89	227.74
386.27	227.63
386.64	227.68
387.02	227.54
387.40	227.51
387.78	227.40
388.15	227.43
388.53	227.42
388.91	227.35
389.29	227.39
389.66	227.49
390.04	227.37
390.42	227.45
390.79	227.43
391.17	227.47
391.55	226.98
391.92	227.06
392.30	227.11
392.68	227.00
393.05	226.92
393.43	226.95
393.81	226.93
394.18	226.92
394.56	226.94
394.94	227.04
395.31	227.04
395.69	227.27
396.06	227.32
396.44	227.34
396.82	227.32
397.19	227.55
397.57	227.53
397.95	227.69
398.32	227.60
398.70	227.77
399.07	227.90
399.45	227.90
399.82	227.90
400.20	227.98
400.58	228.17
400.95	228.11
401.33	228.32
401.70	228.81
402.08	228.94
402.45	229.08
402.83	229.32
403.20	229.48
403.58	229.55
403.95	229.84
404.33	230.14
404.71	230.46
405.08	230.88
405.46	231.13
405.83	231.36
406.21	231.60
406.58	231.85
406.96	232.12
407.33	232.55
407.70	232.95
408.08	233.66
408.45	234.02
408.83	234.55
409.20	234.85
409.58	234.97
409.95	235.48
410.33	236.05
410.70	236.41
411.08	237.04
411.45	237.60
411.82	238.16
412.20	238.92
412.57	239.85
412.95	240.21
413.32	241.10
413.69	241.94
414.07	242.88
414.44	243.88
414.82	244.92
415.19	246.12
415.56	247.32
415.94	248.28
416.31	249.70
416.68	251.12
417.06	252.73
417.43	254.38
417.81	256.14
418.18	257.97
418.55	259.91
418.93	261.92
419.30	264.04
419.67	266.29
420.04	268.51
420.42	270.79
420.79	273.97
421.16	276.71
421.54	279.78
421.91	282.80
422.28	285.93
422.66	289.21
423.03	292.66
423.40	295.98
423.77	299.52
424.15	303.17
424.52	307.02
424.89	311.31
425.26	315.26
425.64	319.18
426.01	323.30
426.38	327.76
426.75	332.37
427.13	337.09
427.50	341.79
427.87	346.75
428.24	351.79
428.61	356.24
428.99	361.68
429.36	367.16
429.73	372.70
430.10	378.16
430.47	383.98
430.85	389.63
431.22	395.96
431.59	402.82
431.96	409.12
432.33	416.01
432.70	422.68
433.08	430.71
433.45	438.15
433.82	445.63
434.19	453.98
434.56	462.09
434.93	469.76
435.30	477.52
435.68	486.13
436.05	494.78
436.42	503.25
436.79	510.95
437.16	519.52
437.53	528.46
437.90	537.23
438.27	545.84
438.64	554.89
439.01	563.22
439.38	570.33
439.75	577.31
440.13	585.48
440.50	592.88
440.87	598.98
441.24	605.53
441.61	612.54
441.98	617.60
442.35	623.45
442.72	629.53
443.09	635.60
443.46	638.99
443.83	641.09
444.20	643.04
444.57	645.82
444.94	646.75
445.31	647.60
445.68	648.98
446.05	649.11
446.42	647.70
446.79	646.20
447.16	644.62
447.53	643.52
447.90	639.67
448.27	636.21
448.64	631.30
449.01	627.47
449.37	621.13
449.74	615.12
450.11	608.21
450.48	600.24
450.85	592.10
451.22	585.34
451.59	578.68
451.96	572.22
452.33	563.89
452.70	556.47
453.07	547.82
453.43	538.66
453.80	530.18
454.17	522.06
454.54	514.31
454.91	506.11
455.28	498.16
455.65	490.66
456.02	483.65
456.38	477.24
456.75	469.31
457.12	462.87
457.49	456.42
457.86	449.89
458.23	444.76
458.59	439.00
458.96	433.14
459.33	428.08
459.70	422.97
460.07	418.97
460.43	414.26
460.80	410.01
461.17	406.24
461.54	402.12
461.91	398.28
462.27	394.43
462.64	391.21
463.01	387.50
463.38	384.18
463.74	380.21
464.11	377.17
464.48	374.57
464.85	371.71
465.21	369.55
465.58	367.41
465.95	364.70
466.32	362.44
466.68	360.12
467.05	357.82
467.42	355.69
467.78	353.20
468.15	351.03
468.52	349.43
468.88	347.20
469.25	345.35
469.62	343.92
469.98	342.12
470.35	340.55
470.72	339.08
471.08	337.33
471.45	336.13
471.82	334.81
472.18	333.40
472.55	332.39
472.92	330.99
473.28	329.75
473.65	328.61
474.02	327.45
474.38	326.64
474.75	325.82
475.11	324.97
475.48	324.40
475.85	323.73
476.21	323.05
476.58	322.62
476.94	322.16
477.31	321.58
477.67	321.30
478.04	320.98
478.41	320.75
478.77	321.10
479.14	320.73
479.50	320.57
479.87	320.63
480.23	320.55
480.60	320.51
480.96	320.51
481.33	320.87
481.69	321.12
482.06	321.28
482.42	321.61
482.79	321.91
483.15	322.35
483.52	322.93
483.88	323.43
484.25	323.86
484.61	324.63
484.98	325.27
485.34	326.18
485.71	327.03
486.07	327.97
486.44	328.47
486.80	329.50
487.17	330.65
487.53	331.95
487.90	333.34
488.26	335.08
488.62	336.80
488.99	338.24
489.35	339.99
489.72	341.79
490.08	343.71
490.44	345.70
490.81	347.95
491.17	350.20
491.54	352.63
491.90	355.30
492.26	357.88
492.63	360.80
492.99	363.61
493.36	366.81
493.72	370.17
494.08	373.67
494.45	377.47
494.81	381.40
495.17	385.31
495.54	389.51
495.90	393.64
496.26	398.15
496.63	402.88
496.99	407.71
497.35	412.87
497.72	418.25
498.08	423.79
498.44	429.41
498.80	435.48
499.17	441.67
499.53	447.94
499.89	454.57
500.26	461.41
500.62	468.47
500.98	475.82
501.34	483.29
501.71	491.10
502.07	498.90
502.43	507.00
502.79	515.37
503.16	524.15
503.52	533.24
503.88	542.49
504.24	552.14
504.60	562.27
504.97	572.74
505.33	583.14
505.69	594.35
506.05	605.49
506.41	616.54
506.78	628.21
507.14	640.39
507.50	652.64
507.86	665.31
508.22	678.31
508.59	691.42
508.95	705.24
509.31	719.30
509.67	733.70
510.03	748.04
510.39	762.95
510.75	778.13
511.12	793.50
511.48	808.98
511.84	824.90
512.20	840.79
512.56	856.93
512.92	873.85
513.28	890.54
513.64	907.60
514.00	925.39
514.37	943.35
514.73	961.41
515.09	980.00
515.45	998.58
515.81	1017.12
516.17	1035.96
516.53	1054.56
516.89	1073.37
517.25	1092.90
517.61	1113.35
517.97	1133.65
518.33	1153.60
518.69	1173.79
519.05	1194.46
519.41	1215.06
519.77	1236.11
520.13	1256.77
520.49	1277.54
520.85	1299.94
521.21	1321.43
521.57	1342.91
521.93	1363.51
522.29	1385.03
522.65	1405.66
523.01	1426.50
523.37	1447.22
523.73	1468.49
524.09	1489.00
524.45	1509.88
524.81	1530.76
525.17	1551.25
525.53	1571.99
525.89	1593.17
526.25	1614.18
526.61	1634.94
526.97	1656.05
527.33	1677.61
527.68	1699.78
528.04	1721.14
528.40	1740.65
528.76	1761.69
529.12	1781.90
529.48	1802.89
529.84	1822.85
530.20	1844.17
530.56	1864.93
530.91	1885.97
531.27	1906.49
531.63	1927.61
531.99	1948.35
532.35	1968.31
532.71	1988.80
533.07	2009.61
533.42	2029.33
533.78	2049.21
534.14	2068.85
534.50	2087.94
534.86	2107.06
535.21	2124.97
535.57	2143.63
535.93	2161.65
536.29	2179.51
536.65	2197.93
537.00	2215.73
537.36	2233.69
537.72	2250.14
538.08	2267.67
538.44	2284.40
538.79	2301.00
539.15	2317.60
539.51	2333.29
539.87	2348.89
540.22	2363.17
540.58	2377.28
540.94	2390.89
541.29	2403.61
541.65	2416.78
542.01	2429.41
542.37	2440.05
542.72	2451.00
543.08	2461.65
543.44	2473.57
543.79	2484.09
544.15	2494.14
544.51	2504.22
544.87	2513.60
545.22	2522.71
545.58	2530.19
545.94	2537.82
546.29	2544.53
546.65	2550.75
547.01	2556.38
547.36	2562.18
547.72	2567.88
548.07	2572.12
548.43	2577.45
548.79	2582.29
549.14	2586.25
549.50	2590.82
549.86	2595.18
550.21	2599.09
550.57	2602.69
550.92	2604.26
551.28	2605.59
551.64	2608.49
551.99	2610.37
552.35	2612.39
552.70	2614.33
553.06	2616.58
553.41	2617.84
553.77	2619.62
554.13	2621.20
554.48	2623.30
554.84	2624.43
555.19	2625.75
555.55	2627.46
555.90	2626.91
556.26	2626.33
556.61	2624.79
556.97	2622.37
557.32	2621.98
557.68	2620.84
558.03	2619.33
558.39	2617.98
558.74	2617.49
559.10	2613.87
559.45	2610.66
559.81	2606.23
560.16	2601.63
560.52	2596.90
560.87	2592.40
561.23	2586.95
561.58	2581.12
561.94	2574.36
562.29	2567.30
562.64	2560.06
563.00	2551.83
563.35	2545.48
563.71	2539.19
564.06	2533.27
564.42	2526.68
564.77	2519.55
565.12	2511.71
565.48	2503.92
565.83	2496.23
566.19	2487.85
566.54	2480.10
566.89	2471.83
567.25	2464.25
567.60	2456.74
567.96	2449.12
568.31	2441.41
568.66	2432.68
569.02	2423.85
569.37	2415.65
569.72	2407.91
570.08	2398.47
570.43	2389.33
570.78	2379.99
571.14	2370.07
571.49	2359.68
571.84	2350.25
572.20	2339.19
572.55	2329.50
572.90	2318.71
573.26	2308.29
573.61	2297.33
573.96	2285.97
574.31	2274.30
574.67	2262.42
575.02	2249.92
575.37	2236.98
575.72	2223.15
576.08	2211.33
576.43	2198.89
576.78	2185.67
577.13	2171.94
577.49	2159.46
577.84	2147.39
578.19	2135.16
578.54	2122.84
578.90	2110.70
579.25	2098.32
579.60	2086.14
579.95	2072.96
580.30	2059.77
580.66	2046.47
581.01	2032.67
581.36	2018.75
581.71	2005.91
582.06	1992.55
582.42	1979.65
582.77	1966.71
583.12	1954.95
583.47	1942.22
583.82	1929.95
584.17	1918.00
584.53	1906.23
584.88	1893.13
585.23	1879.77
585.58	1865.24
585.93	1851.85
586.28	1838.43
586.63	1824.19
586.98	1809.48
587.34	1796.23
587.69	1782.88
588.04	1769.90
588.39	1757.82
588.74	1745.52
589.09	1733.17
589.44	1720.53
589.79	1708.41
590.14	1696.76
590.49	1684.66
590.84	1672.41
591.19	1660.36
591.54	1647.92
591.89	1635.55
592.25	1625.27
592.60	1613.91
592.95	1602.92
593.30	1590.84
593.65	1578.85
594.00	1566.83
594.35	1557.18
594.70	1545.08
595.05	1533.69
595.40	1521.40
595.75	1509.44
596.10	1498.14
596.45	1486.78
596.80	1475.61
597.15	1464.10
597.50	1452.05
597.85	1440.50
598.19	1428.98
598.54	1417.24
598.89	1405.79
599.24	1395.12
599.59	1383.29
599.94	1372.34
600.29	1361.57
600.64	1351.11
600.99	1340.34
601.34	1330.91
601.69	1319.53
602.04	1309.80
602.39	1299.91
602.74	1290.70
603.08	1281.04
603.43	1271.77
603.78	1261.86
604.13	1252.37
604.48	1242.47
604.83	1232.91
605.18	1223.16
605.53	1213.40
605.87	1204.23
606.22	1195.55
606.57	1186.05
606.92	1176.65
607.27	1167.61
607.62	1158.88
607.96	1150.20
608.31	1142.26
608.66	1133.68
609.01	1125.12
609.36	1116.27
609.70	1107.67
610.05	1098.76
610.40	1090.21
610.75	1081.27
611.10	1072.90
611.44	1064.26
611.79	1056.06
612.14	1048.11
612.49	1040.22
612.83	1032.71
613.18	1024.89
613.53	1017.15
613.88	1009.15
614.22	1001.40
614.57	993.21
614.92	985.30
615.27	977.82
615.61	970.09
615.96	962.24
616.31	954.71
616.65	947.80
617.00	940.42
617.35	933.20
617.70	926.05
618.04	918.87
618.39	911.79
618.74	905.41
619.08	898.41
619.43	891.24
619.78	883.87
620.12	876.56
620.47	869.44
620.82	862.25
621.16	855.52
621.51	849.15
621.85	842.86
622.20	836.07
622.55	829.24
622.89	822.53
623.24	816.09
623.59	809.61
623.93	803.16
624.28	796.97
624.62	791.45
624.97	785.46
625.32	779.72
625.66	773.70
626.01	767.34
626.35	761.71
626.70	755.92
627.04	750.81
627.39	745.28
627.73	739.86
628.08	734.55
628.43	728.90
628.77	723.17
629.12	717.80
629.46	713.10
629.81	708.38
630.15	703.56
630.50	698.64
630.84	693.61
631.19	688.66
631.53	683.97
631.88	678.48
632.22	673.56
632.57	668.79
632.91	664.03
633.26	659.63
633.60	654.90
633.95	650.19
634.29	645.32
634.64	640.83
634.98	636.01
635.32	631.51
635.67	627.47
636.01	623.20
636.36	618.72
636.70	614.63
637.05	610.33
637.39	606.20
637.73	602.04
638.08	598.05
638.42	593.79
638.77	589.34
639.11	585.09
639.45	580.84
639.80	576.51
640.14	572.45
640.49	568.30
640.83	564.54
641.17	560.88
641.52	557.06
641.86	553.50
642.20	550.27
642.55	546.71
642.89	543.09
643.23	539.60
643.58	536.54
643.92	532.70
644.26	529.30
644.61	526.04
644.95	522.59
645.29	519.11
645.64	515.92
645.98	512.91
646.32	510.10
646.66	507.03
647.01	504.13
647.35	501.30
647.69	498.35
648.04	495.54
648.38	492.72
648.72	489.90
649.06	486.81
649.41	483.80
649.75	480.75
650.09	477.91
650.43	475.05
650.78	472.05
651.12	469.30
651.46	466.62
651.80	463.87
652.14	461.31
652.49	458.90
652.83	456.39
653.17	453.71
653.51	450.86
653.85	448.40
654.20	445.88
654.54	443.27
654.88	440.79
655.22	438.52
655.56	436.00
655.90	433.63
656.25	431.44
656.59	429.17
656.93	427.00
657.27	424.86
657.61	422.48
657.95	420.25
658.29	418.09
658.64	415.85
658.98	413.43
659.32	411.14
659.66	408.94
660.00	406.82
660.34	404.75
660.68	402.81
661.02	400.72
661.36	398.77
661.70	396.71
662.05	394.61
662.39	392.51
662.73	390.70
663.07	389.01
663.41	387.13
663.75	385.15
664.09	383.28
664.43	381.26
664.77	379.68
665.11	377.81
665.45	376.08
665.79	374.43
666.13	372.78
666.47	371.00
666.81	369.29
667.15	367.46
667.49	366.00
667.83	364.67
668.17	363.23
668.51	361.68
668.85	360.33
669.19	359.15
669.53	357.64
669.87	356.12
670.21	354.53
670.55	352.98
670.89	351.94
671.23	350.65
671.57	349.32
671.91	347.83
672.25	346.59
672.58	345.46
672.92	343.97
673.26	342.69
673.60	341.57
673.94	340.40
674.28	339.37
674.62	338.19
674.96	336.84
675.30	335.62
675.64	334.35
675.97	333.13
676.31	331.79
676.65	330.56
676.99	329.63
677.33	328.46
677.67	327.41
678.01	326.01
678.34	324.87
678.68	323.81
679.02	322.72
679.36	321.70
679.70	320.54
680.04	319.60
680.37	318.67
680.71	317.61
681.05	316.71
681.39	315.85
681.73	314.82
682.06	313.81
682.40	312.95
682.74	312.29
683.08	311.55
683.42	310.70
683.75	309.94
684.09	308.90
684.43	308.15
684.77	307.40
685.10	306.66
685.44	305.85
685.78	305.07
686.12	304.30
686.45	303.49
686.79	302.58
687.13	301.89
687.46	301.03
687.80	300.44
688.14	299.58
688.48	298.78
688.81	298.04
689.15	297.32
689.49	296.45
689.82	295.63
690.16	294.81
690.50	294.14
690.83	293.39
691.17	292.63
691.51	291.95
691.84	291.26
692.18	290.49
692.52	289.80
692.85	289.25
693.19	288.85
693.52	288.26
693.86	287.69
694.20	286.98
694.53	286.54
694.87	285.86
695.21	285.12
695.54	284.51
695.88	283.88
696.21	283.25
696.55	282.66
696.88	282.00
697.22	281.27
697.56	280.77
697.89	280.10
698.23	279.65
698.56	279.02
698.90	278.60
699.23	278.09
699.57	277.63
699.90	276.98
700.24	276.39
700.58	275.88
700.91	275.51
701.25	275.46
701.58	275.25
701.92	274.85
702.25	274.57
702.59	274.10
702.92	273.65
703.26	273.31
703.59	273.00
703.93	273.04
704.26	272.76
704.60	272.29
704.93	271.89
705.26	271.46
705.60	271.12
705.93	270.59
706.27	270.40
706.60	270.11
706.94	269.90
707.27	269.47
707.61	269.15
707.94	268.71
708.27	267.90
708.61	267.15
708.94	266.72
709.28	266.29
709.61	265.84
709.94	265.54
710.28	265.09
710.61	264.66
710.95	263.85
711.28	263.78
711.61	263.44
711.95	263.16
712.28	262.75
712.61	262.38
712.95	262.21
713.28	261.98
713.61	261.46
713.95	260.93
714.28	260.55
714.61	260.13
714.95	259.70
715.28	259.28
715.61	258.89
715.95	258.64
716.28	258.26
716.61	258.00
716.95	257.63
717.28	257.26
717.61	256.93
717.94	256.59
718.28	255.93
718.61	255.58
718.94	255.21
719.27	254.96
719.61	254.70
719.94	254.35
720.27	253.83
720.60	253.63
720.94	253.43
721.27	253.23
721.60	253.02
721.93	252.80
722.27	252.74
722.60	252.60
722.93	252.24
723.26	252.08
723.59	251.75
723.93	251.58
724.26	251.50
724.59	251.27
724.92	251.06
725.25	250.94
725.59	250.71
725.92	250.62
726.25	250.38
726.58	250.21
726.91	249.95
727.24	249.84
727.57	249.61
727.91	249.30
728.24	249.16
728.57	248.95
728.90	248.86
729.23	248.55
729.56	248.54
729.89	248.41
730.22	248.20
730.55	248.06
730.89	247.85
731.22	247.57
731.55	247.42
731.88	247.37
732.21	247.26
732.54	247.06
732.87	246.89
733.20	246.81
733.53	246.67
733.86	246.55
734.19	246.35
734.52	246.23
734.85	246.50
735.18	246.23
735.51	246.23
735.84	246.10
736.17	246.15
736.50	245.77
736.83	246.20
737.16	246.05
737.49	245.97
737.82	245.76
738.15	245.76
738.48	245.55
738.81	245.34
739.14	245.05
739.47	244.94
739.80	244.76
740.13	244.64
740.46	244.39
740.79	244.15
741.12	243.95
741.45	243.79
741.78	243.34
742.11	243.43
742.44	243.17
742.77	243.10
743.10	242.84
743.43	242.72
743.75	242.03
744.08	242.54
744.41	242.36
744.74	242.23
745.07	241.98
745.40	242.01
745.73	242.11
746.06	241.95
746.39	241.84
746.71	241.72
747.04	241.53
747.37	241.43
747.70	241.40
748.03	241.38
748.36	241.28
748.68	241.12
749.01	240.73
749.34	240.55
749.67	240.39
750.00	240.33
750.33	240.58
750.65	240.45
750.98	239.72
751.31	239.64
751.64	239.58
751.97	239.70
752.29	239.51
752.62	239.16
752.95	239.09
753.28	238.92
753.60	238.78
753.93	238.77
754.26	238.70
754.59	238.46
754.91	238.30
755.24	238.23
755.57	238.11
755.90	238.05
756.22	237.95
756.55	237.76
756.88	237.55
757.20	237.06
757.53	236.84
757.86	236.66
758.19	236.60
758.51	236.42
758.84	236.13
759.17	235.96
759.49	235.92
759.82	236.03
760.15	235.96
760.47	235.88
760.80	235.64
761.13	235.56
761.45	235.42
761.78	235.24
762.11	235.12
762.43	235.00
762.76	234.88
763.08	234.81
763.41	234.77
763.74	234.75
764.06	234.65
764.39	234.65
764.71	234.66
765.04	234.42
765.37	234.36
765.69	234.24
766.02	234.17
766.34	234.04
766.67	233.83
767.00	233.87
767.32	234.02
767.65	234.30
767.97	234.28
768.30	234.32
768.62	234.31
768.95	234.23
769.27	234.15
769.60	234.19
769.92	234.14
770.25	234.00
770.57	233.86
770.90	233.80
771.22	233.66
771.55	233.58
771.87	233.73
772.20	233.64
772.52	234.03
772.85	234.61
773.17	234.54
773.50	234.42
773.82	234.33
774.15	234.02
774.47	233.59
774.80	233.48
775.12	233.40
775.45	233.36
775.77	233.34
776.09	233.42
776.42	233.37
776.74	233.45
777.07	233.35
777.39	233.33
777.72	233.31
778.04	233.34
778.36	233.27
778.69	233.12
779.01	233.18
779.33	232.73
779.66	232.14
779.98	232.10
780.31	232.12
780.63	232.27
780.95	232.41
781.28	232.40
781.60	232.31
781.92	232.31
782.25	232.26
782.57	232.19
782.89	232.04
783.22	231.97
783.54	231.75
783.86	231.76
784.19	231.74
784.51	231.86
784.83	231.80
785.16	231.72
785.48	231.71
785.80	231.68
786.12	231.67
786.45	231.70
786.77	231.74
787.09	231.64
787.42	231.35
787.74	231.27
788.06	231.17
788.38	231.15
788.71	231.06
789.03	231.05
789.35	231.05
789.67	230.98
789.99	230.98
790.32	230.98
790.64	231.01
790.96	231.31
791.28	231.06
791.61	230.98
791.93	231.02
792.25	230.95
792.57	231.27
792.89	231.10
793.21	230.98
793.54	230.85
793.86	230.80
794.18	230.94
794.50	230.82
794.82	230.93
795.14	230.91
795.47	231.01
795.79	231.01
796.11	230.89
796.43	230.83
796.75	230.91
797.07	230.91
797.39	230.94
797.71	230.63
798.04	230.71
798.36	230.74
798.68	230.72
799.00	230.80
799.32	230.48
799.64	230.60
799.96	230.55
800.28	230.65
800.60	230.60
800.92	230.55
801.24	230.49
801.56	230.43
801.89	230.40
802.21	230.38
802.53	230.20
802.85	230.31
803.17	230.50
803.49	230.32
803.81	230.24
804.13	230.16
804.45	230.07
804.77	230.00
805.09	229.98
805.41	229.84
805.73	229.75
806.05	229.60
806.37	229.53
806.69	229.59
807.01	229.58
807.33	229.60
807.65	229.41
807.97	229.68
808.28	229.66
808.60	229.60
808.92	229.50
809.24	229.85
809.56	229.73
809.88	229.63
810.20	229.64
810.52	229.76
810.84	229.70
811.16	229.64
811.48	229.66
811.80	229.79
812.12	229.89
812.43	229.93
812.75	229.95
813.07	229.89
813.39	229.85
813.71	229.69
814.03	229.61
814.35	229.64
814.67	229.39
814.98	229.35
815.30	229.36
815.62	229.26
815.94	228.90
816.26	229.14
816.58	228.98
816.89	228.99
817.21	228.86
817.53	228.82
817.85	228.82
818.17	228.75
818.48	228.52
818.80	228.53
819.12	228.40
819.44	228.39
819.76	228.38
820.07	228.35
820.39	228.34
820.71	228.36
821.03	228.34
821.34	228.34
821.66	228.42
821.98	228.51
822.30	228.45
822.61	228.74
822.93	228.46
823.25	228.53
823.57	228.46
823.88	228.50
824.20	228.43
824.52	228.51
824.83	228.52
825.15	228.51
825.47	228.48
825.79	228.50
826.10	228.42
826.42	228.34
826.74	228.38
827.05	228.39
827.37	228.40
827.69	228.35
828.00	228.29
828.32	228.25
828.64	228.11
828.95	228.39
829.27	228.24
829.58	228.18
829.90	228.15
830.22	228.16
830.53	228.06
830.85	228.03
831.17	227.82
831.48	227.85
831.80	227.82
832.11	227.74
832.43	227.71
832.75	227.74
833.06	227.94
833.38	227.77
833.69	227.74
834.01	227.77
834.32	227.75
834.64	227.69
834.96	227.66
835.27	227.76
835.59	227.63
835.90	227.54
836.22	227.57
836.53	227.50
836.85	227.45
837.16	227.89
837.48	227.88
837.79	228.11
838.11	228.07
838.42	228.05
838.74	228.08
839.05	228.04
839.37	227.95
839.68	227.69
840.00	227.70
840.31	227.75
840.63	227.65
840.94	227.69
841.26	227.71
841.57	227.66
841.88	227.65
842.20	227.54
842.51	227.54
842.83	227.59
843.14	228.07
843.46	228.10
843.77	227.84
844.08	227.78
844.40	227.58
844.71	227.51
845.03	227.53
845.34	227.55
845.65	227.55
845.97	227.58
846.28	227.71
846.60	227.76
846.91	227.67
847.22	227.70
847.54	227.80
847.85	227.82
848.16	227.74
848.48	227.61
848.79	227.83
849.10	227.82
849.42	227.87
849.73	227.37
850.04	227.30
850.36	227.15
850.67	227.27
850.98	227.25
851.30	227.32
851.61	227.34
851.92	227.32
852.23	227.52
852.55	227.61
852.86	227.59
853.17	227.61
853.49	227.72
853.80	227.78
854.11	227.75
854.42	227.79
854.74	227.76
855.05	227.82
855.36	227.60
855.67	227.59
855.99	227.55
856.30	228.16
856.61	228.17
856.92	228.16
857.23	228.20
857.55	228.25
857.86	228.20
858.17	228.18
858.48	228.08
858.79	227.84
859.11	227.86
859.42	227.82
859.73	227.80
860.04	227.74
860.35	227.62
860.66	227.49
860.98	227.42
861.29	227.56
861.60	227.52
861.91	227.56
862.22	227.48
862.53	227.36
862.84	226.72
863.16	226.82
863.47	226.75
863.78	226.66
864.09	226.70
864.40	226.75
864.71	226.81
865.02	226.90
865.33	226.88
865.64	226.80
865.95	226.75
866.27	226.96
866.58	226.96
866.89	226.98
867.20	226.97
867.51	226.87
867.82	226.75
868.13	226.87
868.44	226.78
868.75	226.87
869.06	226.95
869.37	227.01
869.68	226.92
869.99	227.03
870.30	227.01
870.61	227.03
870.92	226.92
871.23	226.83
871.54	226.83
871.85	226.93
872.16	226.94
872.47	226.92
872.78	226.67
873.09	226.67
873.40	226.62
873.71	226.64
874.02	226.74
874.33	226.66
874.64	226.57
874.95	226.61
875.26	226.54
875.56	226.46
875.87	226.45
876.18	226.34
876.49	226.86
876.80	226.86
877.11	226.73
877.42	226.73
877.73	226.78
878.04	226.77
878.35	226.79
878.66	226.82
878.96	226.81
879.27	226.91
879.58	226.88
879.89	226.92
880.20	227.12
880.51	227.09
880.82	227.15
881.12	227.24
881.43	227.15
881.74	227.14
882.05	227.19
882.36	227.26
882.67	227.35
882.97	226.81
883.28	226.88
883.59	226.94
883.90	227.07
884.21	227.09
884.51	227.08
884.82	227.01
885.13	226.98
885.44	226.97
885.74	226.86
886.05	226.85
886.36	226.82
886.67	226.58
886.98	226.80
887.28	226.86
887.59	226.76
887.90	226.83
888.20	226.78
888.51	226.91
888.82	226.87
889.13	227.00
889.43	227.33
889.74	227.27
890.05	227.29
890.35	227.20
890.66	227.17
890.97	227.17
891.28	227.11
891.58	227.15
891.89	227.18
892.20	227.18
892.50	227.20
892.81	227.16
893.12	227.27
893.42	227.07
893.73	227.09
894.04	227.15
894.34	227.18
894.65	227.20
894.95	227.09
895.26	227.03
895.57	227.15
895.87	226.75
896.18	226.87
896.48	226.92
896.79	226.90
897.10	226.99
897.40	227.03
897.71	227.15
898.01	227.11
898.32	227.13
898.63	227.11
898.93	227.15
899.24	227.21
899.54	227.13
899.85	227.15
900.15	227.12
900.46	227.11
900.76	227.21
901.07	227.23
901.38	227.20
901.68	227.27
901.99	227.05
902.29	227.07
902.60	226.98
902.90	226.92
903.21	226.97
903.51	226.94
903.82	227.00
904.12	227.00
904.43	227.02
904.73	227.04
905.03	227.10
905.34	227.50
905.64	227.49
905.95	227.43
906.25	227.33
906.56	227.32
906.86	227.31
907.17	227.22
907.47	227.24
907.77	227.20
908.08	227.06
908.38	227.14
908.69	227.21
908.99	227.25
909.30	227.29
909.60	227.25
909.90	227.21
910.21	227.06
910.51	226.99
910.81	226.96
911.12	226.93
911.42	226.93
911.73	226.49
912.03	226.49
912.33	226.65
912.64	226.75
912.94	226.68
913.24	226.64
913.55	226.63
913.85	226.55
914.15	226.68
914.46	226.81
914.76	226.74
915.06	226.69
915.37	226.63
915.67	226.62
915.97	226.62
916.27	226.56
916.58	226.60
916.88	226.59
917.18	226.61
917.49	226.96
917.79	226.93
918.09	227.00
918.39	227.09
918.70	227.00
919.00	226.98
919.30	227.25
919.60	227.22
919.91	227.15
920.21	227.16
920.51	227.12
920.81	227.10
921.12	227.14
921.42	227.06
921.72	227.16
922.02	227.14
922.32	227.19
922.63	227.24
922.93	227.43
923.23	227.50
923.53	227.44
923.83	227.13
924.13	227.20
924.44	227.18
924.74	227.26
925.04	227.40
925.34	227.37
925.64	227.21
925.94	227.16
926.24	227.42
926.55	227.45
926.85	227.42
927.15	227.47
927.45	227.45
927.75	227.50
928.05	227.51
928.35	227.44
928.65	227.56
928.95	227.63
929.26	227.40
929.56	227.47
929.86	227.58
930.16	227.58
930.46	227.55
930.76	227.59
931.06	227.32
931.36	227.21
931.66	227.35
931.96	227.35
932.26	227.41
932.56	227.22
932.86	227.28
933.16	227.31
933.46	227.18
933.76	227.22
934.06	227.38
934.36	227.51
934.66	227.55
934.96	227.43
935.26	227.42
935.56	227.54
935.86	227.40
936.16	227.30
936.46	227.28
936.76	227.22
937.06	227.12
937.36	227.25
937.66	227.24
937.96	227.21
938.26	227.15
938.56	227.12
938.86	227.21
939.16	227.32
939.46	227.27
939.76	227.38
940.06	227.25
940.35	227.00
940.65	226.76
940.95	226.73
941.25	226.64
941.55	226.56
941.85	226.60
942.15	226.63
942.45	226.75
942.75	226.69
943.04	226.69
943.34	226.80
943.64	226.70
943.94	226.63
944.24	226.56
944.54	226.63
944.84	226.59
945.13	226.42
945.43	226.30
945.73	226.35
946.03	226.26
946.33	226.22
946.62	226.30
946.92	226.23
947.22	226.34
947.52	226.40
947.82	226.49
948.11	226.36
948.41	226.28
948.71	226.20
949.01	226.27
949.31	226.32
949.60	226.24
949.90	226.34
950.20	226.33
950.50	226.35
950.79	226.22
951.09	226.34
951.39	226.40
951.69	226.39
951.98	226.43
952.28	226.46
952.58	226.49
952.87	226.47
953.17	226.60
953.47	226.53
953.76	226.54
954.06	226.46
954.36	226.47
954.66	226.48
954.95	226.55
955.25	226.60
955.55	226.53
955.84	226.50
956.14	226.53
956.44	226.56
956.73	226.45
957.03	226.56
957.32	226.53
957.62	226.50
957.92	226.59
958.21	226.59
958.51	227.14
958.81	227.19
959.10	227.22
959.40	227.27
959.69	227.27
959.99	227.34
960.29	227.35
960.58	227.21
960.88	227.41
961.17	227.38
961.47	227.36
961.76	227.42
962.06	227.43
962.36	227.36
962.65	227.48
962.95	227.61
963.24	227.57
963.54	227.57
963.83	227.60
964.13	227.54
964.42	227.42
964.72	227.00
965.01	227.03
965.31	226.99
965.60	226.92
965.90	227.23
966.19	227.05
966.49	227.01
966.78	227.10
967.08	226.97
967.37	226.99
967.67	226.88
967.96	226.94
968.26	226.96
968.55	227.05
968.85	226.96
969.14	226.92
969.43	226.94
969.73	226.97
970.02	227.00
970.32	227.02
970.61	226.95
970.91	226.88
971.20	226.84
971.49	226.77
971.79	226.84
972.08	226.50
972.38	226.57
972.67	226.51
972.96	226.57
973.26	226.54
973.55	226.67
973.85	226.72
974.14	226.69
974.43	226.80
974.73	226.74
975.02	226.77
975.31	226.78
975.61	226.72
975.90	226.62
976.19	226.56
976.49	226.62
976.78	226.73
977.07	226.69
977.37	226.68
977.66	226.84
977.95	226.71
978.24	226.76
978.54	226.90
978.83	226.92
979.12	226.89
979.42	226.91
979.71	226.78
980.00	226.76
980.29	226.78
980.59	226.59
980.88	226.63
981.17	226.60
981.46	226.60
981.76	226.68
982.05	226.83
982.34	226.83
982.63	226.72
982.93	226.75
983.22	226.89
983.51	226.83
983.80	226.80
984.09	226.95
984.39	226.89
984.68	226.87
984.97	226.95
985.26	226.90
985.55	226.94
985.85	226.87
986.14	226.90
986.43	226.92
986.72	226.90
987.01	226.82
987.30	226.84
987.59	226.76
987.89	226.66
988.18	226.55
988.47	226.52
988.76	226.51
989.05	226.41
989.34	226.30
989.63	226.54
989.92	226.45
990.22	226.35
990.51	226.32
990.80	226.14
991.09	226.15
991.38	226.26
991.67	226.22
991.96	226.19
992.25	226.20
992.54	226.06
992.83	226.16
993.12	226.15
993.41	226.18
993.70	226.38
993.99	226.48
994.28	226.48
994.58	226.54
994.87	226.59
995.16	226.69
995.45	226.62
995.74	226.41
996.03	226.53
996.32	226.56
996.61	226.75
996.90	226.81
997.19	226.73
997.48	226.72
997.77	226.65
998.06	226.70
998.34	226.70
998.63	226.85
998.92	226.88
999.21	226.99
999.50	226.94
999.79	226.78
1000.08	226.78
1000.37	226.83
1000.66	226.77
1000.95	226.87
1001.24	226.91
1001.53	227.01
1001.82	227.02
1002.11	226.85
1002.40	226.94
1002.68	227.07
1002.97	227.47
1003.26	227.43
1003.55	227.35
1003.84	227.38
1004.13	227.59
1004.42	227.54
1004.71	227.51
1004.99	227.36
1005.28	227.42
1005.57	227.44
1005.86	227.43
1006.15	227.42
1006.44	227.39
1006.72	227.41
1007.01	227.35
1007.30	227.27
1007.59	227.21
1007.88	227.22
1008.17	227.31
1008.45	227.18
1008.74	226.88
1009.03	226.56
1009.32	226.61
1009.60	226.57
1009.89	226.57
1010.18	226.34
1010.47	226.37
1010.76	226.28
1011.04	226.28
1011.33	226.32
1011.62	226.35
1011.91	226.34
1012.19	226.40
1012.48	226.39
1012.77	226.41
1013.05	226.56
1013.34	226.55
1013.63	226.53
1013.92	226.55
1014.20	226.43
1014.49	226.40
1014.78	226.50
1015.06	226.33
1015.35	226.36
1015.64	226.42
1015.92	226.48
1016.21	226.52
1016.50	226.50
1016.78	226.65
1017.07	226.74
1017.36	226.59
1017.64	226.50
1017.93	226.56
1018.22	226.43
1018.50	226.41
1018.79	226.34
1019.08	226.13
1019.36	226.14
1019.65	226.09
1019.93	226.23
1020.22	226.35
1020.51	226.67
1020.79	226.48
1021.08	225.30
1021.36	225.95
1021.65	224.90
1021.94	226.35
1022.22	226.30
1022.51	225.20
1022.79	228.95
1023.08	226.70
1023.36	232.40
1023.65	223.35
>>>>>End Processed Spectral Data<<<<<
