SpectraSuite Data File
++++++++++++++++++++++++++++++++++++
Date: Wed Sep 04 18:02:51 EDT 2013
User: lab3
Dark Spectrum Present: Yes
Reference Spectrum Present: No
Number of Sampled Component Spectra: 1
Spectrometers: USB2E7196
Integration Time (usec): 170000 (USB2E7196)
Spectra Averaged: 20 (USB2E7196)
Boxcar Smoothing: 10 (USB2E7196)
Correct for Electrical Dark: No (USB2E7196)
Strobe/Lamp Enabled: No (USB2E7196)
Correct for Detector Non-linearity: No (USB2E7196)
Correct for Stray Light: No (USB2E7196)
Number of Pixels in Processed Spectrum: 2048
>>>>>Begin Processed Spectral Data<<<<<
339.09	0.00
339.48	213.55
339.86	213.60
340.24	216.65
340.63	216.85
341.01	226.25
341.39	221.00
341.78	222.25
342.16	223.90
342.54	223.75
342.93	212.54
343.31	223.20
343.69	223.70
344.07	224.27
344.46	224.78
344.84	225.23
345.22	225.23
345.60	225.47
345.99	225.65
346.37	225.76
346.75	225.87
347.13	225.94
347.52	226.02
347.90	226.22
348.28	226.23
348.66	226.35
349.05	226.14
349.43	226.18
349.81	226.18
350.19	226.27
350.57	226.35
350.96	226.46
351.34	226.65
351.72	226.81
352.10	226.83
352.48	226.77
352.87	226.82
353.25	226.85
353.63	226.79
354.01	226.84
354.39	226.90
354.77	227.01
355.15	227.19
355.54	227.16
355.92	227.12
356.30	227.22
356.68	227.66
357.06	227.82
357.44	227.79
357.82	227.90
358.20	228.39
358.58	228.45
358.97	228.58
359.35	228.67
359.73	228.81
360.11	228.90
360.49	228.99
360.87	229.03
361.25	229.19
361.63	229.47
362.01	229.59
362.39	229.68
362.77	229.66
363.15	229.65
363.53	229.76
363.91	229.79
364.29	229.81
364.67	229.37
365.05	229.43
365.43	229.51
365.81	229.62
366.19	229.43
366.57	229.65
366.95	229.63
367.33	229.58
367.71	229.56
368.09	229.70
368.47	229.76
368.85	229.71
369.23	229.78
369.61	229.70
369.99	229.84
370.37	229.82
370.75	230.09
371.13	229.98
371.51	229.91
371.89	229.96
372.27	229.97
372.65	229.98
373.03	229.93
373.41	229.91
373.78	229.80
374.16	229.50
374.54	229.25
374.92	229.15
375.30	229.06
375.68	228.88
376.06	228.87
376.44	228.70
376.82	228.72
377.19	228.58
377.57	228.46
377.95	228.24
378.33	228.20
378.71	227.83
379.09	227.90
379.47	227.89
379.84	227.77
380.22	227.70
380.60	227.55
380.98	227.47
381.36	227.40
381.73	227.19
382.11	227.29
382.49	227.26
382.87	227.11
383.25	227.10
383.62	227.66
384.00	227.41
384.38	227.41
384.76	227.48
385.13	227.53
385.51	227.43
385.89	227.27
386.27	227.19
386.64	227.27
387.02	227.07
387.40	226.97
387.78	226.92
388.15	226.87
388.53	226.82
388.91	226.74
389.29	226.66
389.66	226.76
390.04	226.64
390.42	226.64
390.79	226.57
391.17	226.53
391.55	225.93
391.92	225.96
392.30	226.04
392.68	225.89
393.05	225.94
393.43	225.98
393.81	226.04
394.18	225.99
394.56	225.93
394.94	226.10
395.31	226.10
395.69	226.25
396.06	226.32
396.44	226.35
396.82	226.37
397.19	226.71
397.57	226.68
397.95	226.77
398.32	226.72
398.70	226.99
399.07	227.15
399.45	227.18
399.82	227.21
400.20	227.16
400.58	227.23
400.95	227.17
401.33	227.40
401.70	227.80
402.08	228.00
402.45	228.21
402.83	228.46
403.20	228.66
403.58	228.81
403.95	229.06
404.33	229.37
404.71	229.69
405.08	230.09
405.46	230.39
405.83	230.69
406.21	230.91
406.58	231.15
406.96	231.38
407.33	231.75
407.70	232.19
408.08	233.00
408.45	233.50
408.83	233.98
409.20	234.36
409.58	234.62
409.95	235.11
410.33	235.60
410.70	235.96
411.08	236.62
411.45	237.16
411.82	237.67
412.20	238.48
412.57	239.41
412.95	239.73
413.32	240.61
413.69	241.49
414.07	242.53
414.44	243.44
414.82	244.51
415.19	245.69
415.56	246.86
415.94	247.85
416.31	249.30
416.68	250.71
417.06	252.34
417.43	253.98
417.81	255.82
418.18	257.74
418.55	259.67
418.93	261.65
419.30	263.81
419.67	266.04
420.04	268.27
420.42	270.66
420.79	273.79
421.16	276.59
421.54	279.60
421.91	282.60
422.28	285.80
422.66	289.15
423.03	292.74
423.40	296.07
423.77	299.70
424.15	303.25
424.52	307.05
424.89	311.23
425.26	315.19
425.64	318.95
426.01	323.19
426.38	327.71
426.75	332.25
427.13	336.81
427.50	341.66
427.87	346.59
428.24	351.49
428.61	356.03
428.99	361.38
429.36	366.97
429.73	372.48
430.10	377.95
430.47	383.62
430.85	389.23
431.22	395.49
431.59	402.47
431.96	408.91
432.33	415.86
432.70	422.66
433.08	430.60
433.45	438.12
433.82	445.39
434.19	453.58
434.56	461.68
434.93	469.50
435.30	477.44
435.68	486.07
436.05	494.53
436.42	502.78
436.79	510.46
437.16	518.76
437.53	527.70
437.90	536.59
438.27	545.21
438.64	554.16
439.01	562.57
439.38	569.69
439.75	576.83
440.13	585.02
440.50	592.55
440.87	598.59
441.24	604.99
441.61	611.88
441.98	616.89
442.35	622.77
442.72	628.78
443.09	634.56
443.46	638.00
443.83	640.36
444.20	642.50
444.57	645.16
444.94	646.26
445.31	647.27
445.68	648.61
446.05	648.70
446.42	647.38
446.79	645.93
447.16	644.20
447.53	642.89
447.90	639.02
448.27	635.24
448.64	630.40
449.01	626.61
449.37	620.56
449.74	614.61
450.11	607.79
450.48	600.09
450.85	591.96
451.22	585.08
451.59	578.40
451.96	571.91
452.33	563.74
452.70	556.39
453.07	547.68
453.43	538.52
453.80	530.05
454.17	522.00
454.54	514.12
454.91	505.85
455.28	497.73
455.65	490.29
456.02	483.45
456.38	477.01
456.75	469.24
457.12	462.72
457.49	456.41
457.86	449.96
458.23	444.55
458.59	438.89
458.96	433.09
459.33	427.86
459.70	422.90
460.07	418.90
460.43	414.09
460.80	409.73
461.17	405.90
461.54	401.98
461.91	398.11
462.27	394.24
462.64	390.94
463.01	387.48
463.38	384.19
463.74	380.06
464.11	377.02
464.48	374.36
464.85	371.46
465.21	369.21
465.58	366.85
465.95	364.15
466.32	361.89
466.68	359.70
467.05	357.55
467.42	355.25
467.78	352.89
468.15	350.80
468.52	349.26
468.88	347.09
469.25	345.14
469.62	343.65
469.98	342.05
470.35	340.56
470.72	339.09
471.08	337.30
471.45	336.15
471.82	334.95
472.18	333.58
472.55	332.58
472.92	331.26
473.28	330.12
473.65	329.01
474.02	327.94
474.38	326.99
474.75	326.27
475.11	325.44
475.48	324.78
475.85	324.13
476.21	323.42
476.58	322.90
476.94	322.53
477.31	322.08
477.67	321.68
478.04	321.36
478.41	321.16
478.77	321.50
479.14	321.26
479.50	321.07
479.87	321.05
480.23	320.99
480.60	320.95
480.96	321.02
481.33	321.35
481.69	321.48
482.06	321.69
482.42	321.93
482.79	322.22
483.15	322.67
483.52	323.23
483.88	323.86
484.25	324.42
484.61	325.10
484.98	325.77
485.34	326.71
485.71	327.60
486.07	328.42
486.44	328.95
486.80	329.93
487.17	331.10
487.53	332.49
487.90	333.91
488.26	335.64
488.62	337.26
488.99	338.76
489.35	340.57
489.72	342.41
490.08	344.37
490.44	346.46
490.81	348.65
491.17	350.95
491.54	353.30
491.90	355.90
492.26	358.68
492.63	361.42
492.99	364.25
493.36	367.38
493.72	370.70
494.08	374.10
494.45	377.74
494.81	381.62
495.17	385.43
495.54	389.64
495.90	393.81
496.26	398.32
496.63	403.10
496.99	407.92
497.35	413.10
497.72	418.41
498.08	423.89
498.44	429.60
498.80	435.66
499.17	441.76
499.53	448.08
499.89	454.64
500.26	461.42
500.62	468.49
500.98	475.86
501.34	483.37
501.71	491.22
502.07	499.07
502.43	507.22
502.79	515.59
503.16	524.27
503.52	533.30
503.88	542.52
504.24	552.23
504.60	562.10
504.97	572.32
505.33	582.80
505.69	593.82
506.05	604.92
506.41	616.17
506.78	627.90
507.14	639.89
507.50	652.28
507.86	664.91
508.22	677.81
508.59	690.97
508.95	704.73
509.31	719.00
509.67	733.36
510.03	747.62
510.39	762.46
510.75	777.53
511.12	792.86
511.48	808.58
511.84	824.35
512.20	840.40
512.56	856.80
512.92	873.64
513.28	890.55
513.64	907.75
514.00	925.15
514.37	942.85
514.73	961.08
515.09	978.97
515.45	997.59
515.81	1016.25
516.17	1034.91
516.53	1053.41
516.89	1072.15
517.25	1091.71
517.61	1111.99
517.97	1132.60
518.33	1152.85
518.69	1173.13
519.05	1193.79
519.41	1214.43
519.77	1235.92
520.13	1256.64
520.49	1277.38
520.85	1299.86
521.21	1321.23
521.57	1342.70
521.93	1363.69
522.29	1384.90
522.65	1406.00
523.01	1426.80
523.37	1447.55
523.73	1469.00
524.09	1489.81
524.45	1510.55
524.81	1531.26
525.17	1552.04
525.53	1572.35
525.89	1592.97
526.25	1614.10
526.61	1634.64
526.97	1655.69
527.33	1676.95
527.68	1699.13
528.04	1720.27
528.40	1739.97
528.76	1761.17
529.12	1781.48
529.48	1802.32
529.84	1822.40
530.20	1843.63
530.56	1864.65
530.91	1885.52
531.27	1906.01
531.63	1926.84
531.99	1947.63
532.35	1967.83
532.71	1988.11
533.07	2008.99
533.42	2029.11
533.78	2048.95
534.14	2068.86
534.50	2088.20
534.86	2107.39
535.21	2124.69
535.57	2143.63
535.93	2161.67
536.29	2179.55
536.65	2198.21
537.00	2215.69
537.36	2233.67
537.72	2250.31
538.08	2267.75
538.44	2285.22
538.79	2301.98
539.15	2318.72
539.51	2334.44
539.87	2350.03
540.22	2364.40
540.58	2378.57
540.94	2392.06
541.29	2404.81
541.65	2417.52
542.01	2430.23
542.37	2440.98
542.72	2452.21
543.08	2462.97
543.44	2474.82
543.79	2484.90
544.15	2494.41
544.51	2504.72
544.87	2514.34
545.22	2523.17
545.58	2531.10
545.94	2537.89
546.29	2544.45
546.65	2550.34
547.01	2556.36
547.36	2561.91
547.72	2567.68
548.07	2571.98
548.43	2577.43
548.79	2582.14
549.14	2586.20
549.50	2590.20
549.86	2594.23
550.21	2598.41
550.57	2601.57
550.92	2602.85
551.28	2604.15
551.64	2606.95
551.99	2609.46
552.35	2611.08
552.70	2613.24
553.06	2614.51
553.41	2616.06
553.77	2617.70
554.13	2619.78
554.48	2621.33
554.84	2622.84
555.19	2623.95
555.55	2625.53
555.90	2624.75
556.26	2624.35
556.61	2623.06
556.97	2620.63
557.32	2619.77
557.68	2618.60
558.03	2617.33
558.39	2615.79
558.74	2615.19
559.10	2612.07
559.45	2608.41
559.81	2604.42
560.16	2599.25
560.52	2594.72
560.87	2590.11
561.23	2584.71
561.58	2578.62
561.94	2571.74
562.29	2564.19
562.64	2557.44
563.00	2548.99
563.35	2542.63
563.71	2535.90
564.06	2529.71
564.42	2523.50
564.77	2517.15
565.12	2509.49
565.48	2501.96
565.83	2494.15
566.19	2486.16
566.54	2478.45
566.89	2470.04
567.25	2462.18
567.60	2455.14
567.96	2447.61
568.31	2439.76
568.66	2431.04
569.02	2421.99
569.37	2413.93
569.72	2406.42
570.08	2396.62
570.43	2387.72
570.78	2378.63
571.14	2369.01
571.49	2358.58
571.84	2348.98
572.20	2337.57
572.55	2327.65
572.90	2316.66
573.26	2306.63
573.61	2295.51
573.96	2284.09
574.31	2272.44
574.67	2260.43
575.02	2247.96
575.37	2235.30
575.72	2221.87
576.08	2209.66
576.43	2197.47
576.78	2184.02
577.13	2170.36
577.49	2157.69
577.84	2145.60
578.19	2133.16
578.54	2120.73
578.90	2109.03
579.25	2096.61
579.60	2084.33
579.95	2071.10
580.30	2058.03
580.66	2044.42
581.01	2030.73
581.36	2016.75
581.71	2003.95
582.06	1991.02
582.42	1978.16
582.77	1965.50
583.12	1953.71
583.47	1941.29
583.82	1929.32
584.17	1917.72
584.53	1905.76
584.88	1892.82
585.23	1879.46
585.58	1865.36
585.93	1851.92
586.28	1838.28
586.63	1824.10
586.98	1809.63
587.34	1796.39
587.69	1782.95
588.04	1770.11
588.39	1758.06
588.74	1745.71
589.09	1733.53
589.44	1720.61
589.79	1708.43
590.14	1696.20
590.49	1684.01
590.84	1671.75
591.19	1659.35
591.54	1646.84
591.89	1634.65
592.25	1624.53
592.60	1613.26
592.95	1602.15
593.30	1590.20
593.65	1578.24
594.00	1566.09
594.35	1556.33
594.70	1544.20
595.05	1532.76
595.40	1520.59
595.75	1508.31
596.10	1497.16
596.45	1485.28
596.80	1474.35
597.15	1462.61
597.50	1450.59
597.85	1438.95
598.19	1427.52
598.54	1415.86
598.89	1404.48
599.24	1393.79
599.59	1381.75
599.94	1370.58
600.29	1359.78
600.64	1349.15
600.99	1338.42
601.34	1329.03
601.69	1317.86
602.04	1308.00
602.39	1298.32
602.74	1289.09
603.08	1279.84
603.43	1270.36
603.78	1260.82
604.13	1251.07
604.48	1241.45
604.83	1232.05
605.18	1222.35
605.53	1212.64
605.87	1203.23
606.22	1194.61
606.57	1185.30
606.92	1175.96
607.27	1166.90
607.62	1158.16
607.96	1149.58
608.31	1141.45
608.66	1132.83
609.01	1124.00
609.36	1115.40
609.70	1106.65
610.05	1097.82
610.40	1089.07
610.75	1080.35
611.10	1071.87
611.44	1063.11
611.79	1054.82
612.14	1046.70
612.49	1038.59
612.83	1031.12
613.18	1023.26
613.53	1015.49
613.88	1007.25
614.22	999.60
614.57	991.57
614.92	983.42
615.27	975.96
615.61	968.15
615.96	960.59
616.31	953.11
616.65	946.01
617.00	938.64
617.35	931.57
617.70	924.40
618.04	917.04
618.39	909.98
618.74	903.75
619.08	896.92
619.43	889.76
619.78	882.58
620.12	875.21
620.47	868.48
620.82	861.26
621.16	854.51
621.51	848.07
621.85	841.88
622.20	835.35
622.55	828.60
622.89	822.14
623.24	815.47
623.59	808.98
623.93	802.67
624.28	796.28
624.62	790.58
624.97	784.75
625.32	779.15
625.66	773.05
626.01	766.79
626.35	760.99
626.70	755.43
627.04	750.18
627.39	744.71
627.73	739.14
628.08	733.93
628.43	728.50
628.77	722.99
629.12	717.60
629.46	712.68
629.81	707.87
630.15	703.01
630.50	698.18
630.84	693.36
631.19	688.50
631.53	684.02
631.88	678.55
632.22	673.51
632.57	669.02
632.91	664.51
633.26	660.03
633.60	655.45
633.95	650.75
634.29	645.95
634.64	641.35
634.98	636.67
635.32	632.20
635.67	628.19
636.01	623.86
636.36	619.53
636.70	615.38
637.05	611.15
637.39	607.00
637.73	602.85
638.08	598.79
638.42	594.50
638.77	590.01
639.11	585.80
639.45	581.54
639.80	576.95
640.14	572.80
640.49	568.81
640.83	564.92
641.17	561.28
641.52	557.61
641.86	554.16
642.20	550.95
642.55	547.27
642.89	543.55
643.23	539.94
643.58	536.76
643.92	533.10
644.26	529.61
644.61	526.26
644.95	522.77
645.29	519.28
645.64	516.03
645.98	513.07
646.32	510.08
646.66	506.99
647.01	504.09
647.35	501.26
647.69	498.26
648.04	495.45
648.38	492.55
648.72	489.61
649.06	486.46
649.41	483.25
649.75	480.29
650.09	477.41
650.43	474.66
650.78	471.63
651.12	468.78
651.46	465.91
651.80	463.12
652.14	460.51
652.49	458.04
652.83	455.42
653.17	452.75
653.51	450.04
653.85	447.62
654.20	444.95
654.54	442.21
654.88	439.67
655.22	437.39
655.56	434.97
655.90	432.56
656.25	430.26
656.59	428.07
656.93	425.84
657.27	423.75
657.61	421.30
657.95	419.10
658.29	417.03
658.64	414.89
658.98	412.61
659.32	410.26
659.66	407.98
660.00	405.87
660.34	403.76
660.68	401.70
661.02	399.68
661.36	397.75
661.70	395.79
662.05	393.80
662.39	391.82
662.73	390.08
663.07	388.43
663.41	386.64
663.75	384.72
664.09	382.87
664.43	380.86
664.77	379.18
665.11	377.49
665.45	375.70
665.79	374.13
666.13	372.40
666.47	370.73
666.81	369.09
667.15	367.40
667.49	365.86
667.83	364.53
668.17	362.93
668.51	361.41
668.85	360.06
669.19	358.93
669.53	357.33
669.87	355.65
670.21	354.15
670.55	352.77
670.89	351.73
671.23	350.34
671.57	349.01
671.91	347.67
672.25	346.18
672.58	345.10
672.92	343.55
673.26	342.38
673.60	341.21
673.94	340.03
674.28	338.91
674.62	337.66
674.96	336.31
675.30	335.13
675.64	333.92
675.97	332.67
676.31	331.25
676.65	330.03
676.99	329.10
677.33	327.93
677.67	326.79
678.01	325.39
678.34	324.24
678.68	323.19
679.02	322.06
679.36	321.16
679.70	319.98
680.04	319.07
680.37	318.04
680.71	317.02
681.05	316.05
681.39	315.15
681.73	314.24
682.06	313.34
682.40	312.49
682.74	311.74
683.08	310.97
683.42	310.10
683.75	309.35
684.09	308.35
684.43	307.45
684.77	306.54
685.10	305.70
685.44	305.01
685.78	304.20
686.12	303.53
686.45	302.70
686.79	301.85
687.13	301.20
687.46	300.45
687.80	299.91
688.14	299.17
688.48	298.32
688.81	297.59
689.15	296.93
689.49	296.20
689.82	295.45
690.16	294.57
690.50	293.83
690.83	293.12
691.17	292.29
691.51	291.69
691.84	291.16
692.18	290.42
692.52	289.70
692.85	289.09
693.19	288.54
693.52	287.91
693.86	287.37
694.20	286.69
694.53	286.16
694.87	285.46
695.21	284.78
695.54	284.19
695.88	283.56
696.21	282.85
696.55	282.32
696.88	281.69
697.22	281.16
697.56	280.68
697.89	280.13
698.23	279.75
698.56	279.18
698.90	278.63
699.23	278.16
699.57	277.68
699.90	277.13
700.24	276.53
700.58	276.02
700.91	275.61
701.25	275.57
701.58	275.41
701.92	275.04
702.25	274.70
702.59	274.26
702.92	273.89
703.26	273.52
703.59	273.10
703.93	273.07
704.26	272.71
704.60	272.32
704.93	271.85
705.26	271.35
705.60	271.01
705.93	270.57
706.27	270.28
706.60	269.99
706.94	269.81
707.27	269.34
707.61	269.04
707.94	268.54
708.27	267.69
708.61	266.85
708.94	266.35
709.28	265.98
709.61	265.61
709.94	265.29
710.28	264.89
710.61	264.56
710.95	263.76
711.28	263.72
711.61	263.31
711.95	263.03
712.28	262.60
712.61	262.20
712.95	262.11
713.28	262.01
713.61	261.55
713.95	261.00
714.28	260.77
714.61	260.31
714.95	259.97
715.28	259.59
715.61	259.28
715.95	259.06
716.28	258.66
716.61	258.34
716.95	257.93
717.28	257.64
717.61	257.21
717.94	256.95
718.28	256.26
718.61	255.93
718.94	255.61
719.27	255.43
719.61	255.20
719.94	254.82
720.27	254.20
720.60	253.97
720.94	253.81
721.27	253.56
721.60	253.47
721.93	253.22
722.27	253.27
722.60	253.10
722.93	252.81
723.26	252.66
723.59	252.42
723.93	252.34
724.26	252.15
724.59	251.97
724.92	251.77
725.25	251.70
725.59	251.56
725.92	251.37
726.25	251.16
726.58	250.99
726.91	250.70
727.24	250.58
727.57	250.39
727.91	250.10
728.24	249.89
728.57	249.65
728.90	249.58
729.23	249.16
729.56	249.29
729.89	249.18
730.22	248.86
730.55	248.74
730.89	248.51
731.22	248.27
731.55	248.14
731.88	247.99
732.21	247.73
732.54	247.44
732.87	247.29
733.20	247.09
733.53	246.90
733.86	246.81
734.19	246.66
734.52	246.51
734.85	246.66
735.18	246.48
735.51	246.43
735.84	246.33
736.17	246.39
736.50	245.99
736.83	246.31
737.16	246.21
737.49	246.06
737.82	245.87
738.15	245.92
738.48	245.70
738.81	245.55
739.14	245.34
739.47	245.23
739.80	245.05
740.13	245.03
740.46	244.72
740.79	244.51
741.12	244.29
741.45	244.08
741.78	243.69
742.11	243.69
742.44	243.39
742.77	243.27
743.10	243.05
743.43	242.83
743.75	242.20
744.08	242.77
744.41	242.54
744.74	242.30
745.07	241.92
745.40	241.85
745.73	241.83
746.06	241.77
746.39	241.77
746.71	241.57
747.04	241.31
747.37	241.25
747.70	241.26
748.03	241.16
748.36	241.17
748.68	240.96
749.01	240.69
749.34	240.59
749.67	240.40
750.00	240.35
750.33	240.64
750.65	240.55
750.98	239.77
751.31	239.69
751.64	239.71
751.97	239.82
752.29	239.71
752.62	239.45
752.95	239.28
753.28	239.10
753.60	239.01
753.93	239.01
754.26	238.97
754.59	238.62
754.91	238.52
755.24	238.35
755.57	238.33
755.90	238.20
756.22	238.06
756.55	237.92
756.88	237.61
757.20	237.10
757.53	236.81
757.86	236.74
758.19	236.70
758.51	236.54
758.84	236.27
759.17	236.12
759.49	236.04
759.82	236.19
760.15	236.02
760.47	235.95
760.80	235.73
761.13	235.67
761.45	235.64
761.78	235.58
762.11	235.48
762.43	235.30
762.76	235.27
763.08	235.26
763.41	235.16
763.74	235.14
764.06	235.09
764.39	235.05
764.71	234.90
765.04	234.74
765.37	234.58
765.69	234.46
766.02	234.40
766.34	234.26
766.67	233.91
767.00	233.93
767.32	234.06
767.65	234.28
767.97	234.19
768.30	234.11
768.62	233.94
768.95	233.86
769.27	233.87
769.60	233.80
769.92	233.62
770.25	233.46
770.57	233.26
770.90	233.16
771.22	233.09
771.55	233.05
771.87	233.03
772.20	232.98
772.52	233.37
772.85	233.82
773.17	233.80
773.50	233.73
773.82	233.60
774.15	233.30
774.47	232.94
774.80	232.80
775.12	232.70
775.45	232.62
775.77	232.55
776.09	232.50
776.42	232.43
776.74	232.48
777.07	232.45
777.39	232.51
777.72	232.40
778.04	232.43
778.36	232.39
778.69	232.30
779.01	232.29
779.33	231.78
779.66	231.28
779.98	231.18
780.31	231.17
780.63	231.33
780.95	231.40
781.28	231.36
781.60	231.25
781.92	231.19
782.25	231.20
782.57	231.15
782.89	231.05
783.22	230.99
783.54	230.89
783.86	230.90
784.19	230.80
784.51	230.95
784.83	230.85
785.16	230.74
785.48	230.73
785.80	230.67
786.12	230.72
786.45	230.59
786.77	230.54
787.09	230.51
787.42	230.29
787.74	230.24
788.06	230.21
788.38	230.19
788.71	230.20
789.03	230.19
789.35	230.22
789.67	230.14
789.99	230.09
790.32	229.98
790.64	230.04
790.96	230.43
791.28	230.20
791.61	230.11
791.93	230.19
792.25	230.17
792.57	230.55
792.89	230.44
793.21	230.47
793.54	230.47
793.86	230.44
794.18	230.43
794.50	230.32
794.82	230.30
795.14	230.35
795.47	230.36
795.79	230.32
796.11	230.15
796.43	230.10
796.75	230.15
797.07	230.16
797.39	230.03
797.71	229.72
798.04	229.78
798.36	229.82
798.68	229.85
799.00	229.83
799.32	229.48
799.64	229.60
799.96	229.59
800.28	229.67
800.60	229.65
800.92	229.67
801.24	229.69
801.56	229.70
801.89	229.68
802.21	229.76
802.53	229.71
802.85	229.85
803.17	230.14
803.49	229.97
803.81	229.95
804.13	229.94
804.45	229.84
804.77	229.85
805.09	229.83
805.41	229.71
805.73	229.71
806.05	229.65
806.37	229.55
806.69	229.51
807.01	229.45
807.33	229.41
807.65	229.26
807.97	229.50
808.28	229.53
808.60	229.54
808.92	229.48
809.24	229.75
809.56	229.66
809.88	229.46
810.20	229.60
810.52	229.75
810.84	229.71
811.16	229.65
811.48	229.68
811.80	229.83
812.12	229.84
812.43	229.90
812.75	229.94
813.07	229.89
813.39	229.88
813.71	229.77
814.03	229.77
814.35	229.85
814.67	229.58
814.98	229.48
815.30	229.46
815.62	229.34
815.94	229.00
816.26	229.18
816.58	229.04
816.89	228.96
817.21	228.82
817.53	228.85
817.85	228.84
818.17	228.75
818.48	228.54
818.80	228.57
819.12	228.47
819.44	228.39
819.76	228.29
820.07	228.28
820.39	228.31
820.71	228.37
821.03	228.31
821.34	228.24
821.66	228.25
821.98	228.22
822.30	228.17
822.61	228.48
822.93	228.26
823.25	228.24
823.57	228.19
823.88	228.23
824.20	228.16
824.52	228.25
824.83	228.21
825.15	228.15
825.47	228.08
825.79	228.14
826.10	228.16
826.42	228.21
826.74	228.31
827.05	228.24
827.37	228.21
827.69	228.21
828.00	228.27
828.32	228.27
828.64	228.22
828.95	228.48
829.27	228.34
829.58	228.34
829.90	228.46
830.22	228.43
830.53	228.30
830.85	228.26
831.17	228.15
831.48	228.19
831.80	228.23
832.11	228.17
832.43	228.12
832.75	228.04
833.06	228.32
833.38	228.14
833.69	228.10
834.01	228.09
834.32	228.01
834.64	227.98
834.96	228.00
835.27	228.02
835.59	227.82
835.90	227.75
836.22	227.71
836.53	227.65
836.85	227.63
837.16	228.13
837.48	228.11
837.79	228.20
838.11	228.22
838.42	228.17
838.74	228.24
839.05	228.19
839.37	228.20
839.68	227.86
840.00	227.85
840.31	227.93
840.63	227.90
840.94	227.89
841.26	227.82
841.57	227.79
841.88	227.79
842.20	227.75
842.51	227.64
842.83	227.61
843.14	227.95
843.46	227.96
843.77	227.67
844.08	227.71
844.40	227.61
844.71	227.58
845.03	227.54
845.34	227.46
845.65	227.44
845.97	227.42
846.28	227.48
846.60	227.48
846.91	227.38
847.22	227.32
847.54	227.39
847.85	227.43
848.16	227.37
848.48	227.31
848.79	227.49
849.10	227.52
849.42	227.57
849.73	227.15
850.04	227.14
850.36	226.93
850.67	227.00
850.98	226.99
851.30	226.99
851.61	226.99
851.92	226.98
852.23	227.16
852.55	227.10
852.86	227.03
853.17	227.08
853.49	227.23
853.80	227.36
854.11	227.36
854.42	227.50
854.74	227.38
855.05	227.38
855.36	227.15
855.67	227.18
855.99	227.20
856.30	227.74
856.61	227.72
856.92	227.76
857.23	227.73
857.55	227.71
857.86	227.64
858.17	227.77
858.48	227.70
858.79	227.50
859.11	227.61
859.42	227.61
859.73	227.51
860.04	227.47
860.35	227.30
860.66	227.18
860.98	227.06
861.29	227.21
861.60	227.19
861.91	227.32
862.22	227.28
862.53	227.20
862.84	226.72
863.16	226.80
863.47	226.81
863.78	226.82
864.09	226.82
864.40	226.85
864.71	226.82
865.02	226.90
865.33	226.85
865.64	226.81
865.95	226.78
866.27	227.14
866.58	227.10
866.89	227.17
867.20	227.19
867.51	227.14
867.82	227.15
868.13	227.34
868.44	227.15
868.75	227.20
869.06	227.25
869.37	227.31
869.68	227.16
869.99	227.14
870.30	227.11
870.61	227.13
870.92	227.07
871.23	227.01
871.54	227.08
871.85	227.22
872.16	227.28
872.47	227.35
872.78	227.09
873.09	227.16
873.40	227.08
873.71	227.16
874.02	227.22
874.33	227.11
874.64	227.02
874.95	227.14
875.26	227.04
875.56	227.01
875.87	226.91
876.18	226.98
876.49	227.48
876.80	227.50
877.11	227.41
877.42	227.49
877.73	227.58
878.04	227.45
878.35	227.46
878.66	227.45
878.96	227.37
879.27	227.33
879.58	227.25
879.89	227.31
880.20	227.38
880.51	227.28
880.82	227.35
881.12	227.37
881.43	227.31
881.74	227.28
882.05	227.26
882.36	227.33
882.67	227.36
882.97	226.82
883.28	226.77
883.59	226.79
883.90	226.82
884.21	226.81
884.51	226.80
884.82	226.73
885.13	226.72
885.44	226.77
885.74	226.75
886.05	226.76
886.36	226.78
886.67	226.62
886.98	226.86
887.28	226.90
887.59	226.92
887.90	226.86
888.20	226.91
888.51	226.99
888.82	226.83
889.13	226.82
889.43	227.23
889.74	227.18
890.05	227.14
890.35	227.09
890.66	227.05
890.97	226.97
891.28	226.92
891.58	226.83
891.89	226.75
892.20	226.71
892.50	226.63
892.81	226.60
893.12	226.60
893.42	226.46
893.73	226.48
894.04	226.41
894.34	226.52
894.65	226.47
894.95	226.35
895.26	226.41
895.57	226.62
895.87	226.15
896.18	226.23
896.48	226.28
896.79	226.24
897.10	226.25
897.40	226.39
897.71	226.48
898.01	226.45
898.32	226.51
898.63	226.51
898.93	226.62
899.24	226.59
899.54	226.56
899.85	226.60
900.15	226.53
900.46	226.56
900.76	226.53
901.07	226.45
901.38	226.50
901.68	226.58
901.99	226.42
902.29	226.50
902.60	226.44
902.90	226.42
903.21	226.44
903.51	226.43
903.82	226.48
904.12	226.44
904.43	226.55
904.73	226.61
905.03	226.72
905.34	227.07
905.64	227.04
905.95	227.08
906.25	226.93
906.56	226.94
906.86	226.93
907.17	226.89
907.47	227.08
907.77	227.05
908.08	226.95
908.38	226.92
908.69	226.95
908.99	227.08
909.30	227.10
909.60	227.10
909.90	227.24
910.21	227.15
910.51	227.11
910.81	227.08
911.12	227.03
911.42	226.99
911.73	226.60
912.03	226.70
912.33	226.81
912.64	226.89
912.94	226.89
913.24	226.82
913.55	226.84
913.85	226.73
914.15	226.82
914.46	226.88
914.76	226.81
915.06	226.81
915.37	226.72
915.67	226.74
915.97	226.73
916.27	226.59
916.58	226.52
916.88	226.51
917.18	226.49
917.49	226.87
917.79	226.89
918.09	226.90
918.39	226.98
918.70	226.93
919.00	226.91
919.30	227.14
919.60	227.17
919.91	227.07
920.21	227.12
920.51	227.09
920.81	227.05
921.12	227.12
921.42	227.10
921.72	227.14
922.02	227.17
922.32	227.22
922.63	227.25
922.93	227.56
923.23	227.55
923.53	227.47
923.83	227.12
924.13	227.12
924.44	227.11
924.74	227.18
925.04	227.26
925.34	227.24
925.64	226.94
925.94	226.83
926.24	227.12
926.55	227.09
926.85	227.10
927.15	227.10
927.45	227.12
927.75	227.07
928.05	227.03
928.35	226.95
928.65	227.09
928.95	227.12
929.26	226.90
929.56	227.00
929.86	227.06
930.16	227.09
930.46	227.03
930.76	227.06
931.06	226.85
931.36	226.70
931.66	226.75
931.96	226.90
932.26	227.02
932.56	226.84
932.86	226.80
933.16	226.83
933.46	226.81
933.76	226.82
934.06	226.89
934.36	227.08
934.66	227.07
934.96	226.90
935.26	226.95
935.56	227.06
935.86	226.96
936.16	226.94
936.46	226.86
936.76	226.92
937.06	226.83
937.36	226.81
937.66	226.91
937.96	226.93
938.26	226.77
938.56	226.71
938.86	226.79
939.16	226.99
939.46	226.95
939.76	227.05
940.06	226.97
940.35	226.91
940.65	226.65
940.95	226.64
941.25	226.59
941.55	226.50
941.85	226.43
942.15	226.51
942.45	226.65
942.75	226.63
943.04	226.60
943.34	226.71
943.64	226.67
943.94	226.58
944.24	226.59
944.54	226.67
944.84	226.65
945.13	226.58
945.43	226.49
945.73	226.52
946.03	226.45
946.33	226.39
946.62	226.36
946.92	226.41
947.22	226.49
947.52	226.51
947.82	226.61
948.11	226.55
948.41	226.46
948.71	226.33
949.01	226.43
949.31	226.34
949.60	226.29
949.90	226.45
950.20	226.43
950.50	226.43
950.79	226.40
951.09	226.52
951.39	226.43
951.69	226.38
951.98	226.48
952.28	226.45
952.58	226.45
952.87	226.54
953.17	226.57
953.47	226.50
953.76	226.55
954.06	226.36
954.36	226.34
954.66	226.34
954.95	226.46
955.25	226.43
955.55	226.49
955.84	226.45
956.14	226.39
956.44	226.41
956.73	226.33
957.03	226.35
957.32	226.30
957.62	226.34
957.92	226.43
958.21	226.39
958.51	226.95
958.81	227.05
959.10	227.09
959.40	227.15
959.69	227.22
959.99	227.23
960.29	227.25
960.58	227.24
960.88	227.39
961.17	227.37
961.47	227.41
961.76	227.40
962.06	227.53
962.36	227.55
962.65	227.53
962.95	227.57
963.24	227.55
963.54	227.56
963.83	227.61
964.13	227.56
964.42	227.37
964.72	226.99
965.01	227.01
965.31	226.92
965.60	226.90
965.90	227.16
966.19	227.02
966.49	227.14
966.78	227.17
967.08	227.17
967.37	227.15
967.67	227.12
967.96	227.20
968.26	227.13
968.55	227.17
968.85	227.21
969.14	227.22
969.43	227.24
969.73	227.26
970.02	227.26
970.32	227.25
970.61	227.30
970.91	227.16
971.20	227.07
971.49	227.01
971.79	227.08
972.08	226.83
972.38	226.89
972.67	226.80
972.96	226.84
973.26	226.69
973.55	226.91
973.85	226.88
974.14	226.81
974.43	226.83
974.73	226.76
975.02	226.70
975.31	226.63
975.61	226.62
975.90	226.54
976.19	226.49
976.49	226.57
976.78	226.63
977.07	226.69
977.37	226.73
977.66	226.82
977.95	226.67
978.24	226.67
978.54	226.83
978.83	226.87
979.12	226.87
979.42	226.93
979.71	226.68
980.00	226.62
980.29	226.65
980.59	226.57
980.88	226.68
981.17	226.72
981.46	226.82
981.76	226.81
982.05	226.96
982.34	227.02
982.63	227.02
982.93	226.93
983.22	226.99
983.51	226.99
983.80	227.09
984.09	227.20
984.39	227.20
984.68	227.12
984.97	227.08
985.26	227.06
985.55	227.09
985.85	227.08
986.14	227.20
986.43	227.23
986.72	227.19
987.01	227.05
987.30	227.09
987.59	227.00
987.89	227.04
988.18	226.88
988.47	226.79
988.76	226.73
989.05	226.71
989.34	226.68
989.63	226.75
989.92	226.71
990.22	226.58
990.51	226.59
990.80	226.51
991.09	226.55
991.38	226.58
991.67	226.49
991.96	226.41
992.25	226.40
992.54	226.40
992.83	226.35
993.12	226.27
993.41	226.31
993.70	226.51
993.99	226.57
994.28	226.64
994.58	226.77
994.87	226.66
995.16	226.72
995.45	226.65
995.74	226.53
996.03	226.53
996.32	226.59
996.61	226.65
996.90	226.67
997.19	226.62
997.48	226.64
997.77	226.60
998.06	226.65
998.34	226.62
998.63	226.58
998.92	226.64
999.21	226.76
999.50	226.79
999.79	226.58
1000.08	226.59
1000.37	226.55
1000.66	226.42
1000.95	226.57
1001.24	226.56
1001.53	226.62
1001.82	226.60
1002.11	226.45
1002.40	226.54
1002.68	226.63
1002.97	226.95
1003.26	226.91
1003.55	226.79
1003.84	226.81
1004.13	226.95
1004.42	226.93
1004.71	226.92
1004.99	226.92
1005.28	227.01
1005.57	226.94
1005.86	226.87
1006.15	226.75
1006.44	226.70
1006.72	226.80
1007.01	226.73
1007.30	226.75
1007.59	226.66
1007.88	226.68
1008.17	226.77
1008.45	226.68
1008.74	226.54
1009.03	226.25
1009.32	226.31
1009.60	226.28
1009.89	226.26
1010.18	226.06
1010.47	226.11
1010.76	226.10
1011.04	226.07
1011.33	226.09
1011.62	226.10
1011.91	226.22
1012.19	226.27
1012.48	226.29
1012.77	226.29
1013.05	226.59
1013.34	226.59
1013.63	226.55
1013.92	226.58
1014.20	226.53
1014.49	226.54
1014.78	226.57
1015.06	226.43
1015.35	226.35
1015.64	226.43
1015.92	226.52
1016.21	226.60
1016.50	226.52
1016.78	226.58
1017.07	226.58
1017.36	226.49
1017.64	226.38
1017.93	226.37
1018.22	226.31
1018.50	226.27
1018.79	226.20
1019.08	225.88
1019.36	225.85
1019.65	225.84
1019.93	225.95
1020.22	225.98
1020.51	226.26
1020.79	226.09
1021.08	225.65
1021.36	224.80
1021.65	225.70
1021.94	225.65
1022.22	225.75
1022.51	225.05
1022.79	228.35
1023.08	226.00
1023.36	233.25
1023.65	223.70
>>>>>End Processed Spectral Data<<<<<
