SpectraSuite Data File
++++++++++++++++++++++++++++++++++++
Date: Wed Sep 04 17:42:53 EDT 2013
User: lab3
Dark Spectrum Present: Yes
Reference Spectrum Present: No
Number of Sampled Component Spectra: 1
Spectrometers: USB2E7196
Integration Time (usec): 170000 (USB2E7196)
Spectra Averaged: 20 (USB2E7196)
Boxcar Smoothing: 10 (USB2E7196)
Correct for Electrical Dark: No (USB2E7196)
Strobe/Lamp Enabled: No (USB2E7196)
Correct for Detector Non-linearity: No (USB2E7196)
Correct for Stray Light: No (USB2E7196)
Number of Pixels in Processed Spectrum: 2048
>>>>>Begin Processed Spectral Data<<<<<
339.09	0.00
339.48	214.25
339.86	213.45
340.24	215.80
340.63	217.95
341.01	226.10
341.39	219.45
341.78	222.15
342.16	223.85
342.54	223.65
342.93	212.31
343.31	222.99
343.69	223.48
344.07	224.01
344.46	224.50
344.84	224.90
345.22	224.87
345.60	225.15
345.99	225.37
346.37	225.45
346.75	225.52
347.13	225.57
347.52	225.70
347.90	225.82
348.28	225.84
348.66	225.91
349.05	225.82
349.43	225.87
349.81	225.91
350.19	225.96
350.57	225.95
350.96	226.05
351.34	226.14
351.72	226.23
352.10	226.34
352.48	226.37
352.87	226.41
353.25	226.40
353.63	226.45
354.01	226.46
354.39	226.54
354.77	226.62
355.15	226.86
355.54	226.81
355.92	226.77
356.30	226.88
356.68	227.19
357.06	227.26
357.44	227.22
357.82	227.29
358.20	227.77
358.58	227.75
358.97	227.76
359.35	227.94
359.73	228.14
360.11	228.17
360.49	228.20
360.87	228.24
361.25	228.36
361.63	228.60
362.01	228.66
362.39	228.72
362.77	228.80
363.15	228.82
363.53	228.93
363.91	228.95
364.29	228.99
364.67	228.54
365.05	228.59
365.43	228.70
365.81	228.75
366.19	228.58
366.57	228.85
366.95	228.94
367.33	228.83
367.71	228.73
368.09	228.76
368.47	228.76
368.85	228.73
369.23	228.83
369.61	228.64
369.99	228.74
370.37	228.80
370.75	229.04
371.13	228.85
371.51	228.81
371.89	228.85
372.27	228.79
372.65	228.88
373.03	228.92
373.41	228.85
373.78	228.81
374.16	228.49
374.54	228.27
374.92	228.11
375.30	228.10
375.68	227.98
376.06	227.98
376.44	227.95
376.82	227.91
377.19	227.84
377.57	227.80
377.95	227.63
378.33	227.48
378.71	227.10
379.09	227.11
379.47	227.08
379.84	226.88
380.22	226.75
380.60	226.63
380.98	226.48
381.36	226.47
381.73	226.31
382.11	226.42
382.49	226.42
382.87	226.30
383.25	226.17
383.62	226.67
384.00	226.53
384.38	226.39
384.76	226.49
385.13	226.52
385.51	226.39
385.89	226.31
386.27	226.23
386.64	226.29
387.02	226.25
387.40	226.10
387.78	226.09
388.15	226.13
388.53	226.07
388.91	225.97
389.29	225.83
389.66	225.88
390.04	225.70
390.42	225.79
390.79	225.87
391.17	225.82
391.55	225.23
391.92	225.20
392.30	225.31
392.68	225.11
393.05	225.08
393.43	225.17
393.81	225.16
394.18	225.12
394.56	225.05
394.94	225.16
395.31	225.13
395.69	225.27
396.06	225.30
396.44	225.38
396.82	225.43
397.19	225.71
397.57	225.68
397.95	225.88
398.32	225.72
398.70	225.72
399.07	225.95
399.45	226.04
399.82	226.12
400.20	226.12
400.58	226.22
400.95	226.15
401.33	226.26
401.70	226.70
402.08	226.79
402.45	226.90
402.83	227.02
403.20	227.29
403.58	227.41
403.95	227.62
404.33	227.89
404.71	228.13
405.08	228.52
405.46	228.76
405.83	229.03
406.21	229.25
406.58	229.54
406.96	229.68
407.33	229.95
407.70	230.21
408.08	230.96
408.45	231.29
408.83	231.71
409.20	232.09
409.58	232.19
409.95	232.71
410.33	233.17
410.70	233.44
411.08	233.82
411.45	234.31
411.82	234.81
412.20	235.41
412.57	236.24
412.95	236.55
413.32	237.19
413.69	237.84
414.07	238.61
414.44	239.43
414.82	240.35
415.19	241.44
415.56	242.52
415.94	243.29
416.31	244.55
416.68	245.69
417.06	247.01
417.43	248.35
417.81	249.83
418.18	251.38
418.55	253.01
418.93	254.80
419.30	256.58
419.67	258.45
420.04	260.31
420.42	262.18
420.79	264.74
421.16	267.24
421.54	269.83
421.91	272.30
422.28	274.90
422.66	277.59
423.03	280.41
423.40	283.21
423.77	286.10
424.15	289.13
424.52	292.30
424.89	295.73
425.26	299.08
425.64	302.17
426.01	305.67
426.38	309.41
426.75	313.19
427.13	316.99
427.50	321.02
427.87	325.10
428.24	329.22
428.61	332.94
428.99	337.34
429.36	341.81
429.73	346.49
430.10	351.09
430.47	355.92
430.85	360.67
431.22	365.74
431.59	371.49
431.96	376.66
432.33	382.63
432.70	388.20
433.08	394.76
433.45	400.97
433.82	407.05
434.19	413.93
434.56	420.65
434.93	427.01
435.30	433.50
435.68	440.66
436.05	447.63
436.42	454.48
436.79	460.83
437.16	467.75
437.53	475.08
437.90	482.37
438.27	489.51
438.64	496.86
439.01	503.75
439.38	509.58
439.75	515.49
440.13	522.02
440.50	528.36
440.87	533.36
441.24	538.72
441.61	544.45
441.98	548.68
442.35	553.54
442.72	558.67
443.09	563.48
443.46	566.29
443.83	568.28
444.20	569.96
444.57	572.17
444.94	573.15
445.31	574.02
445.68	575.40
446.05	575.60
446.42	574.61
446.79	573.62
447.16	572.44
447.53	571.52
447.90	568.45
448.27	565.25
448.64	561.31
449.01	558.33
449.37	553.26
449.74	548.12
450.11	542.53
450.48	535.95
450.85	529.24
451.22	523.79
451.59	518.40
451.96	513.22
452.33	506.44
452.70	500.33
453.07	493.29
453.43	485.55
453.80	478.61
454.17	471.87
454.54	465.46
454.91	458.67
455.28	451.96
455.65	445.88
456.02	440.48
456.38	435.16
456.75	428.68
457.12	423.38
457.49	418.39
457.86	413.05
458.23	408.90
458.59	404.25
458.96	399.24
459.33	394.97
459.70	390.80
460.07	387.56
460.43	383.76
460.80	380.15
461.17	377.03
461.54	373.64
461.91	370.66
462.27	367.41
462.64	364.66
463.01	361.78
463.38	359.10
463.74	355.65
464.11	353.19
464.48	351.08
464.85	348.70
465.21	346.88
465.58	345.02
465.95	342.66
466.32	340.82
466.68	339.02
467.05	337.26
467.42	335.56
467.78	333.66
468.15	331.92
468.52	330.66
468.88	328.78
469.25	327.15
469.62	325.86
469.98	324.51
470.35	323.36
470.72	322.18
471.08	320.73
471.45	319.81
471.82	318.76
472.18	317.55
472.55	316.76
472.92	315.65
473.28	314.69
473.65	313.81
474.02	312.97
474.38	312.36
474.75	311.71
475.11	310.98
475.48	310.43
475.85	309.87
476.21	309.31
476.58	308.94
476.94	308.70
477.31	308.32
477.67	308.03
478.04	307.78
478.41	307.69
478.77	308.01
479.14	307.72
479.50	307.66
479.87	307.73
480.23	307.83
480.60	307.77
480.96	307.94
481.33	308.33
481.69	308.61
482.06	308.85
482.42	309.19
482.79	309.51
483.15	310.00
483.52	310.69
483.88	311.18
484.25	311.82
484.61	312.50
484.98	313.09
485.34	314.08
485.71	314.90
486.07	315.86
486.44	316.39
486.80	317.54
487.17	318.61
487.53	319.92
487.90	321.24
488.26	322.92
488.62	324.37
488.99	325.81
489.35	327.45
489.72	329.13
490.08	330.91
490.44	332.81
490.81	334.82
491.17	336.83
491.54	339.09
491.90	341.36
492.26	343.83
492.63	346.51
492.99	349.10
493.36	351.98
493.72	355.00
494.08	358.28
494.45	361.57
494.81	365.15
495.17	368.62
495.54	372.45
495.90	376.23
496.26	380.36
496.63	384.52
496.99	388.74
497.35	393.25
497.72	397.92
498.08	402.82
498.44	407.86
498.80	413.27
499.17	418.73
499.53	424.41
499.89	430.23
500.26	436.32
500.62	442.47
500.98	449.04
501.34	455.67
501.71	462.45
502.07	469.39
502.43	476.55
502.79	484.03
503.16	491.66
503.52	499.78
503.88	507.68
504.24	516.28
504.60	525.19
504.97	534.19
505.33	543.23
505.69	552.88
506.05	562.57
506.41	572.26
506.78	582.24
507.14	592.61
507.50	603.23
507.86	614.15
508.22	625.34
508.59	636.46
508.95	648.16
509.31	660.24
509.67	672.45
510.03	684.56
510.39	697.03
510.75	709.73
511.12	722.45
511.48	735.74
511.84	748.88
512.20	762.19
512.56	775.89
512.92	790.01
513.28	803.83
513.64	818.12
514.00	832.70
514.37	847.55
514.73	862.55
515.09	877.78
515.45	892.76
515.81	907.88
516.17	923.33
516.53	938.45
516.89	953.64
517.25	969.46
517.61	985.80
517.97	1002.06
518.33	1018.37
518.69	1034.79
519.05	1051.27
519.41	1067.61
519.77	1084.50
520.13	1100.96
520.49	1117.31
520.85	1135.58
521.21	1152.30
521.57	1168.96
521.93	1185.23
522.29	1201.70
522.65	1217.79
523.01	1234.04
523.37	1249.92
523.73	1266.40
524.09	1282.24
524.45	1298.02
524.81	1313.85
525.17	1329.66
525.53	1345.35
525.89	1360.93
526.25	1376.47
526.61	1391.90
526.97	1408.00
527.33	1423.61
527.68	1439.93
528.04	1456.01
528.40	1470.07
528.76	1485.56
529.12	1500.80
529.48	1516.26
529.84	1531.08
530.20	1546.40
530.56	1561.52
530.91	1576.79
531.27	1591.32
531.63	1606.21
531.99	1621.00
532.35	1635.21
532.71	1649.47
533.07	1664.10
533.42	1678.13
533.78	1692.02
534.14	1705.72
534.50	1718.68
534.86	1732.29
535.21	1744.33
535.57	1756.55
535.93	1768.34
536.29	1780.13
536.65	1792.27
537.00	1803.71
537.36	1815.31
537.72	1826.03
538.08	1837.20
538.44	1848.06
538.79	1858.41
539.15	1868.83
539.51	1879.27
539.87	1888.84
540.22	1897.52
540.58	1906.30
540.94	1914.19
541.29	1921.84
541.65	1929.30
542.01	1936.79
542.37	1942.22
542.72	1947.97
543.08	1953.76
543.44	1960.44
543.79	1965.86
544.15	1970.96
544.51	1976.15
544.87	1980.75
545.22	1984.62
545.58	1988.20
545.94	1991.25
546.29	1993.73
546.65	1996.38
547.01	1998.05
547.36	1999.83
547.72	2001.55
548.07	2001.83
548.43	2003.05
548.79	2003.99
549.14	2004.45
549.50	2004.50
549.86	2004.95
550.21	2005.54
550.57	2005.85
550.92	2003.95
551.28	2002.59
551.64	2001.88
551.99	2001.09
552.35	1999.90
552.70	1999.40
553.06	1998.25
553.41	1996.60
553.77	1995.53
554.13	1993.95
554.48	1992.66
554.84	1991.14
555.19	1989.44
555.55	1988.58
555.90	1986.00
556.26	1983.02
556.61	1979.62
556.97	1976.02
557.32	1973.40
557.68	1970.49
558.03	1967.45
558.39	1964.71
558.74	1961.96
559.10	1957.39
559.45	1952.59
559.81	1947.42
560.16	1941.66
560.52	1935.96
560.87	1931.03
561.23	1925.32
561.58	1919.54
561.94	1913.01
562.29	1906.09
562.64	1899.58
563.00	1891.99
563.35	1885.53
563.71	1879.00
564.06	1873.12
564.42	1867.20
564.77	1860.58
565.12	1853.72
565.48	1846.66
565.83	1839.63
566.19	1832.66
566.54	1825.65
566.89	1818.56
567.25	1811.67
567.60	1805.32
567.96	1798.87
568.31	1792.12
568.66	1784.77
569.02	1777.03
569.37	1769.44
569.72	1762.90
570.08	1754.96
570.43	1747.07
570.78	1739.72
571.14	1732.27
571.49	1723.72
571.84	1715.49
572.20	1707.08
572.55	1698.68
572.90	1689.73
573.26	1681.38
573.61	1672.46
573.96	1663.71
574.31	1654.18
574.67	1645.10
575.02	1635.22
575.37	1625.35
575.72	1614.81
576.08	1605.45
576.43	1595.84
576.78	1586.29
577.13	1575.92
577.49	1566.53
577.84	1557.63
578.19	1548.40
578.54	1538.75
578.90	1530.00
579.25	1520.64
579.60	1511.22
579.95	1501.58
580.30	1491.98
580.66	1482.01
581.01	1471.96
581.36	1461.74
581.71	1452.66
582.06	1443.31
582.42	1434.26
582.77	1424.77
583.12	1416.07
583.47	1407.13
583.82	1398.29
584.17	1389.36
584.53	1380.77
584.88	1371.19
585.23	1361.53
585.58	1351.44
585.93	1341.97
586.28	1332.32
586.63	1322.42
586.98	1312.19
587.34	1302.79
587.69	1293.17
588.04	1284.13
588.39	1275.42
588.74	1266.61
589.09	1258.00
589.44	1248.88
589.79	1240.05
590.14	1231.70
590.49	1223.31
590.84	1214.69
591.19	1206.27
591.54	1197.78
591.89	1189.13
592.25	1182.10
592.60	1174.10
592.95	1166.09
593.30	1157.82
593.65	1149.31
594.00	1141.15
594.35	1134.88
594.70	1126.67
595.05	1118.84
595.40	1110.45
595.75	1102.29
596.10	1094.63
596.45	1086.67
596.80	1079.11
597.15	1071.28
597.50	1063.25
597.85	1055.45
598.19	1047.50
598.54	1039.61
598.89	1031.71
599.24	1024.54
599.59	1016.45
599.94	1009.01
600.29	1001.92
600.64	994.90
600.99	987.75
601.34	981.05
601.69	972.92
602.04	966.25
602.39	959.43
602.74	953.35
603.08	946.88
603.43	940.51
603.78	933.74
604.13	927.11
604.48	920.63
604.83	914.03
605.18	907.19
605.53	900.72
605.87	894.18
606.22	888.55
606.57	882.26
606.92	875.95
607.27	869.98
607.62	864.03
607.96	858.29
608.31	852.98
608.66	847.49
609.01	841.79
609.36	836.07
609.70	830.45
610.05	824.61
610.40	818.96
610.75	813.03
611.10	807.49
611.44	801.76
611.79	796.11
612.14	790.77
612.49	785.42
612.83	780.38
613.18	775.05
613.53	769.70
613.88	764.23
614.22	758.79
614.57	753.38
614.92	748.04
615.27	742.87
615.61	737.63
615.96	732.30
616.31	727.16
616.65	722.30
617.00	717.26
617.35	712.29
617.70	707.25
618.04	702.32
618.39	697.59
618.74	693.45
619.08	688.72
619.43	683.86
619.78	679.40
620.12	674.52
620.47	670.03
620.82	665.04
621.16	660.50
621.51	656.58
621.85	652.23
622.20	647.66
622.55	643.11
622.89	638.73
623.24	634.58
623.59	630.35
623.93	626.00
624.28	621.85
624.62	618.27
624.97	614.49
625.32	610.63
625.66	606.45
626.01	602.10
626.35	598.54
626.70	594.97
627.04	591.14
627.39	587.35
627.73	583.80
628.08	580.50
628.43	576.78
628.77	573.00
629.12	569.46
629.46	566.33
629.81	563.16
630.15	559.90
630.50	556.53
630.84	553.05
631.19	549.75
631.53	546.72
631.88	542.96
632.22	539.59
632.57	536.61
632.91	533.51
633.26	530.50
633.60	527.13
633.95	523.83
634.29	520.60
634.64	517.70
634.98	514.49
635.32	511.43
635.67	508.81
636.01	505.80
636.36	502.74
636.70	499.81
637.05	496.75
637.39	493.88
637.73	490.95
638.08	488.26
638.42	485.53
638.77	482.80
639.11	479.83
639.45	476.82
639.80	473.82
640.14	471.19
640.49	468.41
640.83	465.81
641.17	463.38
641.52	460.87
641.86	458.33
642.20	456.22
642.55	453.71
642.89	451.18
643.23	448.77
643.58	446.70
643.92	444.13
644.26	441.93
644.61	439.80
644.95	437.53
645.29	435.22
645.64	433.05
645.98	430.76
646.32	428.85
646.66	426.75
647.01	424.77
647.35	422.75
647.69	420.82
648.04	419.02
648.38	417.01
648.72	415.15
649.06	413.06
649.41	410.77
649.75	408.68
650.09	406.66
650.43	404.71
650.78	402.69
651.12	400.82
651.46	398.85
651.80	396.76
652.14	395.01
652.49	393.32
652.83	391.46
653.17	389.60
653.51	387.67
653.85	386.01
654.20	384.26
654.54	382.51
654.88	380.77
655.22	379.21
655.56	377.50
655.90	375.83
656.25	374.27
656.59	372.81
656.93	371.29
657.27	369.84
657.61	368.20
657.95	366.60
658.29	365.11
658.64	363.79
658.98	362.23
659.32	360.56
659.66	359.03
660.00	357.60
660.34	356.18
660.68	354.83
661.02	353.46
661.36	352.09
661.70	350.66
662.05	349.29
662.39	347.91
662.73	346.77
663.07	345.66
663.41	344.32
663.75	342.91
664.09	341.63
664.43	340.23
664.77	339.09
665.11	337.82
665.45	336.72
665.79	335.58
666.13	334.38
666.47	333.33
666.81	332.19
667.15	330.89
667.49	329.88
667.83	328.90
668.17	327.88
668.51	326.73
668.85	325.79
669.19	325.05
669.53	323.88
669.87	322.78
670.21	321.67
670.55	320.72
670.89	320.05
671.23	319.18
671.57	318.27
671.91	317.31
672.25	316.40
672.58	315.58
672.92	314.44
673.26	313.70
673.60	312.89
673.94	312.04
674.28	311.31
674.62	310.48
674.96	309.58
675.30	308.71
675.64	307.97
675.97	307.13
676.31	306.09
676.65	305.25
676.99	304.70
677.33	303.81
677.67	303.15
678.01	302.15
678.34	301.47
678.68	300.90
679.02	300.16
679.36	299.57
679.70	298.81
680.04	298.25
680.37	297.60
680.71	296.82
681.05	296.14
681.39	295.49
681.73	294.77
682.06	294.17
682.40	293.58
682.74	293.10
683.08	292.62
683.42	292.03
683.75	291.57
684.09	290.74
684.43	290.30
684.77	289.68
685.10	289.17
685.44	288.60
685.78	287.92
686.12	287.27
686.45	286.67
686.79	286.10
687.13	285.56
687.46	284.95
687.80	284.60
688.14	284.03
688.48	283.51
688.81	283.07
689.15	282.67
689.49	282.13
689.82	281.64
690.16	280.99
690.50	280.44
690.83	279.88
691.17	279.34
691.51	278.74
691.84	278.27
692.18	277.76
692.52	277.26
692.85	276.83
693.19	276.62
693.52	276.11
693.86	275.51
694.20	275.13
694.53	274.68
694.87	274.09
695.21	273.62
695.54	273.18
695.88	272.63
696.21	272.02
696.55	271.55
696.88	271.01
697.22	270.49
697.56	270.13
697.89	269.67
698.23	269.32
698.56	268.93
698.90	268.61
699.23	268.12
699.57	267.75
699.90	267.28
700.24	266.78
700.58	266.47
700.91	266.25
701.25	266.06
701.58	266.04
701.92	265.77
702.25	265.49
702.59	265.14
702.92	264.80
703.26	264.55
703.59	264.23
703.93	264.29
704.26	264.11
704.60	263.86
704.93	263.47
705.26	263.06
705.60	262.82
705.93	262.31
706.27	262.19
706.60	261.98
706.94	261.90
707.27	261.50
707.61	261.21
707.94	260.88
708.27	260.30
708.61	259.67
708.94	259.33
709.28	259.00
709.61	258.67
709.94	258.41
710.28	257.95
710.61	257.64
710.95	256.97
711.28	256.91
711.61	256.56
711.95	256.39
712.28	256.11
712.61	255.65
712.95	255.70
713.28	255.59
713.61	255.11
713.95	254.64
714.28	254.39
714.61	254.01
714.95	253.62
715.28	253.30
715.61	252.93
715.95	252.72
716.28	252.38
716.61	252.16
716.95	251.82
717.28	251.61
717.61	251.34
717.94	251.04
718.28	250.44
718.61	250.10
718.94	249.76
719.27	249.49
719.61	249.41
719.94	249.00
720.27	248.48
720.60	248.25
720.94	248.00
721.27	247.82
721.60	247.71
721.93	247.54
722.27	247.47
722.60	247.39
722.93	247.09
723.26	246.95
723.59	246.68
723.93	246.56
724.26	246.40
724.59	246.16
724.92	246.04
725.25	246.06
725.59	245.85
725.92	245.79
726.25	245.72
726.58	245.57
726.91	245.41
727.24	245.36
727.57	245.16
727.91	244.98
728.24	244.88
728.57	244.65
728.90	244.65
729.23	244.47
729.56	244.52
729.89	244.44
730.22	244.23
730.55	244.10
730.89	244.00
731.22	243.88
731.55	243.78
731.88	243.68
732.21	243.37
732.54	243.31
732.87	243.15
733.20	242.98
733.53	242.82
733.86	242.73
734.19	242.55
734.52	242.48
734.85	242.69
735.18	242.51
735.51	242.61
735.84	242.36
736.17	242.27
736.50	241.93
736.83	242.35
737.16	242.26
737.49	242.12
737.82	241.90
738.15	241.85
738.48	241.70
738.81	241.54
739.14	241.36
739.47	241.25
739.80	241.09
740.13	240.97
740.46	240.71
740.79	240.51
741.12	240.40
741.45	240.32
741.78	239.95
742.11	239.87
742.44	239.58
742.77	239.61
743.10	239.42
743.43	239.22
743.75	238.52
744.08	239.02
744.41	238.85
744.74	238.69
745.07	238.51
745.40	238.49
745.73	238.58
746.06	238.47
746.39	238.41
746.71	238.33
747.04	238.14
747.37	238.05
747.70	238.02
748.03	237.90
748.36	237.85
748.68	237.72
749.01	237.52
749.34	237.43
749.67	237.33
750.00	237.31
750.33	237.67
750.65	237.65
750.98	236.95
751.31	236.94
751.64	236.88
751.97	237.00
752.29	236.86
752.62	236.58
752.95	236.47
753.28	236.27
753.60	236.22
753.93	236.32
754.26	236.32
754.59	236.10
754.91	236.00
755.24	235.87
755.57	235.80
755.90	235.80
756.22	235.71
756.55	235.53
756.88	235.35
757.20	234.88
757.53	234.64
757.86	234.56
758.19	234.51
758.51	234.56
758.84	234.18
759.17	234.06
759.49	234.02
759.82	234.28
760.15	234.21
760.47	234.10
760.80	233.88
761.13	233.86
761.45	233.75
761.78	233.65
762.11	233.51
762.43	233.43
762.76	233.29
763.08	233.25
763.41	233.20
763.74	233.15
764.06	233.10
764.39	233.10
764.71	233.04
765.04	233.00
765.37	232.81
765.69	232.82
766.02	232.80
766.34	232.69
766.67	232.41
767.00	232.51
767.32	232.64
767.65	232.85
767.97	232.74
768.30	232.77
768.62	232.77
768.95	232.71
769.27	232.59
769.60	232.61
769.92	232.50
770.25	232.33
770.57	232.22
770.90	232.11
771.22	231.96
771.55	231.90
771.87	231.82
772.20	231.79
772.52	232.14
772.85	232.67
773.17	232.59
773.50	232.48
773.82	232.32
774.15	232.05
774.47	231.73
774.80	231.72
775.12	231.68
775.45	231.58
775.77	231.56
776.09	231.58
776.42	231.56
776.74	231.69
777.07	231.68
777.39	231.68
777.72	231.66
778.04	231.71
778.36	231.68
778.69	231.62
779.01	231.61
779.33	231.15
779.66	230.56
779.98	230.56
780.31	230.56
780.63	230.69
780.95	230.75
781.28	230.76
781.60	230.64
781.92	230.52
782.25	230.50
782.57	230.44
782.89	230.32
783.22	230.25
783.54	230.09
783.86	230.05
784.19	229.98
784.51	230.03
784.83	229.94
785.16	229.80
785.48	229.80
785.80	229.69
786.12	229.76
786.45	229.65
786.77	229.64
787.09	229.60
787.42	229.45
787.74	229.40
788.06	229.34
788.38	229.28
788.71	229.14
789.03	229.16
789.35	229.27
789.67	229.21
789.99	229.24
790.32	229.14
790.64	229.18
790.96	229.54
791.28	229.37
791.61	229.33
791.93	229.33
792.25	229.23
792.57	229.69
792.89	229.56
793.21	229.67
793.54	229.57
793.86	229.54
794.18	229.45
794.50	229.36
794.82	229.32
795.14	229.31
795.47	229.50
795.79	229.38
796.11	229.24
796.43	229.25
796.75	229.16
797.07	229.22
797.39	229.18
797.71	228.77
798.04	228.82
798.36	228.96
798.68	228.95
799.00	229.06
799.32	228.74
799.64	228.76
799.96	228.71
800.28	228.84
800.60	228.82
800.92	228.91
801.24	228.93
801.56	228.97
801.89	228.99
802.21	228.96
802.53	228.93
802.85	229.00
803.17	229.19
803.49	229.13
803.81	229.10
804.13	229.05
804.45	229.03
804.77	229.10
805.09	229.01
805.41	229.03
805.73	228.89
806.05	228.75
806.37	228.72
806.69	228.63
807.01	228.55
807.33	228.54
807.65	228.32
807.97	228.52
808.28	228.41
808.60	228.37
808.92	228.31
809.24	228.58
809.56	228.53
809.88	228.33
810.20	228.38
810.52	228.46
810.84	228.40
811.16	228.37
811.48	228.32
811.80	228.37
812.12	228.33
812.43	228.36
812.75	228.36
813.07	228.32
813.39	228.37
813.71	228.22
814.03	228.17
814.35	228.16
814.67	227.91
814.98	227.94
815.30	227.90
815.62	227.89
815.94	227.62
816.26	227.73
816.58	227.62
816.89	227.59
817.21	227.37
817.53	227.35
817.85	227.37
818.17	227.30
818.48	227.16
818.80	227.23
819.12	227.19
819.44	227.16
819.76	227.13
820.07	227.11
820.39	227.05
820.71	227.10
821.03	227.14
821.34	227.13
821.66	227.17
821.98	227.19
822.30	227.12
822.61	227.33
822.93	227.15
823.25	227.16
823.57	227.14
823.88	227.25
824.20	227.28
824.52	227.28
824.83	227.23
825.15	227.20
825.47	227.15
825.79	227.14
826.10	227.05
826.42	226.99
826.74	227.00
827.05	227.02
827.37	226.98
827.69	226.90
828.00	226.90
828.32	226.91
828.64	226.82
828.95	227.06
829.27	226.90
829.58	226.88
829.90	226.99
830.22	226.99
830.53	226.83
830.85	226.76
831.17	226.67
831.48	226.68
831.80	226.66
832.11	226.66
832.43	226.61
832.75	226.64
833.06	226.92
833.38	226.82
833.69	226.82
834.01	226.85
834.32	226.86
834.64	226.83
834.96	226.72
835.27	226.74
835.59	226.55
835.90	226.52
836.22	226.58
836.53	226.45
836.85	226.34
837.16	226.90
837.48	226.90
837.79	227.05
838.11	227.11
838.42	227.08
838.74	227.09
839.05	227.06
839.37	227.02
839.68	226.77
840.00	226.77
840.31	226.91
840.63	226.85
840.94	226.82
841.26	226.80
841.57	226.85
841.88	226.95
842.20	226.87
842.51	226.79
842.83	226.75
843.14	227.17
843.46	227.26
843.77	227.00
844.08	226.93
844.40	226.83
844.71	226.73
845.03	226.70
845.34	226.65
845.65	226.68
845.97	226.71
846.28	226.67
846.60	226.66
846.91	226.55
847.22	226.54
847.54	226.65
847.85	226.59
848.16	226.57
848.48	226.42
848.79	226.65
849.10	226.69
849.42	226.67
849.73	226.22
850.04	226.14
850.36	225.89
850.67	226.01
850.98	225.98
851.30	226.01
851.61	226.04
851.92	226.08
852.23	226.20
852.55	226.20
852.86	226.23
853.17	226.28
853.49	226.33
853.80	226.39
854.11	226.40
854.42	226.51
854.74	226.49
855.05	226.53
855.36	226.26
855.67	226.31
855.99	226.40
856.30	226.96
856.61	226.99
856.92	227.01
857.23	227.03
857.55	226.99
857.86	226.98
858.17	227.00
858.48	226.91
858.79	226.82
859.11	226.87
859.42	226.87
859.73	226.77
860.04	226.71
860.35	226.57
860.66	226.43
860.98	226.32
861.29	226.34
861.60	226.30
861.91	226.48
862.22	226.34
862.53	226.19
862.84	225.58
863.16	225.71
863.47	225.63
863.78	225.56
864.09	225.53
864.40	225.58
864.71	225.64
865.02	225.68
865.33	225.60
865.64	225.51
865.95	225.50
866.27	225.80
866.58	225.80
866.89	225.94
867.20	225.95
867.51	225.94
867.82	226.00
868.13	226.15
868.44	226.06
868.75	226.16
869.06	226.19
869.37	226.35
869.68	226.18
869.99	226.30
870.30	226.35
870.61	226.46
870.92	226.40
871.23	226.31
871.54	226.40
871.85	226.49
872.16	226.52
872.47	226.51
872.78	226.31
873.09	226.37
873.40	226.22
873.71	226.29
874.02	226.36
874.33	226.25
874.64	226.09
874.95	226.18
875.26	226.02
875.56	226.05
875.87	226.02
876.18	226.02
876.49	226.44
876.80	226.34
877.11	226.28
877.42	226.26
877.73	226.34
878.04	226.31
878.35	226.32
878.66	226.37
878.96	226.41
879.27	226.37
879.58	226.28
879.89	226.35
880.20	226.46
880.51	226.39
880.82	226.34
881.12	226.45
881.43	226.33
881.74	226.41
882.05	226.41
882.36	226.39
882.67	226.50
882.97	226.08
883.28	226.12
883.59	226.06
883.90	226.18
884.21	226.25
884.51	226.20
884.82	226.15
885.13	226.20
885.44	226.17
885.74	226.17
886.05	226.20
886.36	226.25
886.67	226.13
886.98	226.45
887.28	226.59
887.59	226.55
887.90	226.54
888.20	226.49
888.51	226.55
888.82	226.49
889.13	226.45
889.43	226.82
889.74	226.82
890.05	226.84
890.35	226.80
890.66	226.72
890.97	226.65
891.28	226.66
891.58	226.61
891.89	226.67
892.20	226.68
892.50	226.64
892.81	226.55
893.12	226.51
893.42	226.26
893.73	226.26
894.04	226.23
894.34	226.33
894.65	226.35
894.95	226.33
895.26	226.34
895.57	226.60
895.87	226.11
896.18	226.18
896.48	226.21
896.79	226.17
897.10	226.21
897.40	226.29
897.71	226.32
898.01	226.27
898.32	226.26
898.63	226.21
898.93	226.24
899.24	226.31
899.54	226.35
899.85	226.31
900.15	226.29
900.46	226.33
900.76	226.28
901.07	226.31
901.38	226.30
901.68	226.40
901.99	226.15
902.29	226.20
902.60	226.19
902.90	226.12
903.21	226.10
903.51	226.07
903.82	226.08
904.12	226.09
904.43	226.12
904.73	226.07
905.03	226.14
905.34	226.64
905.64	226.65
905.95	226.65
906.25	226.62
906.56	226.56
906.86	226.62
907.17	226.59
907.47	226.56
907.77	226.53
908.08	226.41
908.38	226.44
908.69	226.45
908.99	226.46
909.30	226.47
909.60	226.47
909.90	226.60
910.21	226.46
910.51	226.36
910.81	226.31
911.12	226.38
911.42	226.37
911.73	225.80
912.03	225.78
912.33	225.83
912.64	225.91
912.94	225.90
913.24	225.79
913.55	225.69
913.85	225.72
914.15	225.89
914.46	225.97
914.76	225.90
915.06	225.84
915.37	225.83
915.67	225.82
915.97	225.87
916.27	225.67
916.58	225.71
916.88	225.72
917.18	225.62
917.49	225.92
917.79	225.89
918.09	225.96
918.39	226.06
918.70	226.03
919.00	225.97
919.30	226.24
919.60	226.20
919.91	226.20
920.21	226.18
920.51	225.99
920.81	225.95
921.12	226.03
921.42	225.98
921.72	225.95
922.02	225.97
922.32	226.05
922.63	226.07
922.93	226.34
923.23	226.33
923.53	226.40
923.83	226.07
924.13	226.11
924.44	226.06
924.74	226.11
925.04	226.21
925.34	226.23
925.64	225.95
925.94	225.96
926.24	226.28
926.55	226.25
926.85	226.31
927.15	226.24
927.45	226.25
927.75	226.34
928.05	226.40
928.35	226.39
928.65	226.46
928.95	226.51
929.26	226.27
929.56	226.34
929.86	226.43
930.16	226.36
930.46	226.28
930.76	226.30
931.06	226.10
931.36	225.95
931.66	226.01
931.96	226.09
932.26	226.16
932.56	226.00
932.86	225.96
933.16	225.90
933.46	225.98
933.76	225.92
934.06	226.02
934.36	226.18
934.66	226.15
934.96	226.02
935.26	226.01
935.56	226.13
935.86	226.02
936.16	225.88
936.46	225.86
936.76	225.85
937.06	225.86
937.36	225.86
937.66	225.89
937.96	225.85
938.26	225.76
938.56	225.67
938.86	225.63
939.16	225.78
939.46	225.92
939.76	225.90
940.06	225.83
940.35	225.69
940.65	225.40
940.95	225.52
941.25	225.40
941.55	225.32
941.85	225.28
942.15	225.44
942.45	225.62
942.75	225.60
943.04	225.69
943.34	225.73
943.64	225.74
943.94	225.70
944.24	225.70
944.54	225.74
944.84	225.74
945.13	225.66
945.43	225.57
945.73	225.50
946.03	225.43
946.33	225.49
946.62	225.51
946.92	225.55
947.22	225.45
947.52	225.48
947.82	225.55
948.11	225.49
948.41	225.35
948.71	225.19
949.01	225.31
949.31	225.27
949.60	225.23
949.90	225.29
950.20	225.25
950.50	225.23
950.79	225.14
951.09	225.23
951.39	225.27
951.69	225.24
951.98	225.34
952.28	225.37
952.58	225.31
952.87	225.34
953.17	225.39
953.47	225.38
953.76	225.40
954.06	225.40
954.36	225.30
954.66	225.33
954.95	225.48
955.25	225.43
955.55	225.44
955.84	225.37
956.14	225.43
956.44	225.52
956.73	225.45
957.03	225.63
957.32	225.59
957.62	225.58
957.92	225.66
958.21	225.59
958.51	226.15
958.81	226.21
959.10	226.18
959.40	226.28
959.69	226.32
959.99	226.42
960.29	226.38
960.58	226.45
960.88	226.65
961.17	226.60
961.47	226.73
961.76	226.73
962.06	226.86
962.36	226.74
962.65	226.69
962.95	226.74
963.24	226.68
963.54	226.73
963.83	226.73
964.13	226.73
964.42	226.68
964.72	226.26
965.01	226.28
965.31	226.27
965.60	226.10
965.90	226.40
966.19	226.26
966.49	226.34
966.78	226.29
967.08	226.25
967.37	226.28
967.67	226.14
967.96	226.19
968.26	226.10
968.55	226.19
968.85	226.23
969.14	226.24
969.43	226.20
969.73	226.14
970.02	226.15
970.32	226.06
970.61	226.02
970.91	225.87
971.20	225.81
971.49	225.80
971.79	225.91
972.08	225.67
972.38	225.80
972.67	225.71
972.96	225.81
973.26	225.71
973.55	225.89
973.85	225.90
974.14	225.89
974.43	226.03
974.73	225.97
975.02	225.92
975.31	225.90
975.61	225.88
975.90	225.86
976.19	225.76
976.49	225.83
976.78	225.85
977.07	225.83
977.37	225.83
977.66	225.89
977.95	225.77
978.24	225.72
978.54	225.74
978.83	225.73
979.12	225.71
979.42	225.68
979.71	225.49
980.00	225.48
980.29	225.43
980.59	225.29
980.88	225.43
981.17	225.38
981.46	225.39
981.76	225.35
982.05	225.50
982.34	225.59
982.63	225.63
982.93	225.62
983.22	225.78
983.51	225.76
983.80	225.77
984.09	225.91
984.39	225.82
984.68	225.73
984.97	225.78
985.26	225.70
985.55	225.81
985.85	225.73
986.14	225.77
986.43	225.82
986.72	225.76
987.01	225.60
987.30	225.65
987.59	225.57
987.89	225.57
988.18	225.37
988.47	225.30
988.76	225.17
989.05	225.13
989.34	225.01
989.63	225.14
989.92	225.08
990.22	224.91
990.51	224.99
990.80	224.95
991.09	224.95
991.38	224.97
991.67	224.84
991.96	224.78
992.25	224.82
992.54	224.72
992.83	224.79
993.12	224.80
993.41	224.86
993.70	225.02
993.99	225.13
994.28	225.27
994.58	225.41
994.87	225.39
995.16	225.37
995.45	225.41
995.74	225.24
996.03	225.28
996.32	225.44
996.61	225.45
996.90	225.46
997.19	225.45
997.48	225.45
997.77	225.45
998.06	225.54
998.34	225.40
998.63	225.50
998.92	225.48
999.21	225.60
999.50	225.65
999.79	225.58
1000.08	225.53
1000.37	225.45
1000.66	225.40
1000.95	225.53
1001.24	225.61
1001.53	225.59
1001.82	225.67
1002.11	225.56
1002.40	225.56
1002.68	225.72
1002.97	226.03
1003.26	225.96
1003.55	225.96
1003.84	225.97
1004.13	226.10
1004.42	226.20
1004.71	226.18
1004.99	226.24
1005.28	226.32
1005.57	226.24
1005.86	226.18
1006.15	226.22
1006.44	226.19
1006.72	226.20
1007.01	226.18
1007.30	226.16
1007.59	226.20
1007.88	226.22
1008.17	226.27
1008.45	226.18
1008.74	225.91
1009.03	225.76
1009.32	225.80
1009.60	225.79
1009.89	225.81
1010.18	225.68
1010.47	225.56
1010.76	225.51
1011.04	225.49
1011.33	225.45
1011.62	225.51
1011.91	225.59
1012.19	225.60
1012.48	225.60
1012.77	225.65
1013.05	225.85
1013.34	225.80
1013.63	225.79
1013.92	225.75
1014.20	225.76
1014.49	225.74
1014.78	225.80
1015.06	225.55
1015.35	225.55
1015.64	225.63
1015.92	225.69
1016.21	225.71
1016.50	225.72
1016.78	225.72
1017.07	225.70
1017.36	225.57
1017.64	225.46
1017.93	225.46
1018.22	225.40
1018.50	225.37
1018.79	225.33
1019.08	225.09
1019.36	225.13
1019.65	225.08
1019.93	225.18
1020.22	225.30
1020.51	225.58
1020.79	225.60
1021.08	224.85
1021.36	224.25
1021.65	226.30
1021.94	225.50
1022.22	225.25
1022.51	224.90
1022.79	226.80
1023.08	227.40
1023.36	230.55
1023.65	225.05
>>>>>End Processed Spectral Data<<<<<
