SpectraSuite Data File
++++++++++++++++++++++++++++++++++++
Date: Wed Sep 04 18:00:38 EDT 2013
User: lab3
Dark Spectrum Present: Yes
Reference Spectrum Present: No
Number of Sampled Component Spectra: 1
Spectrometers: USB2E7196
Integration Time (usec): 170000 (USB2E7196)
Spectra Averaged: 20 (USB2E7196)
Boxcar Smoothing: 10 (USB2E7196)
Correct for Electrical Dark: No (USB2E7196)
Strobe/Lamp Enabled: No (USB2E7196)
Correct for Detector Non-linearity: No (USB2E7196)
Correct for Stray Light: No (USB2E7196)
Number of Pixels in Processed Spectrum: 2048
>>>>>Begin Processed Spectral Data<<<<<
339.09	0.00
339.48	212.25
339.86	215.15
340.24	214.75
340.63	217.05
341.01	225.90
341.39	220.70
341.78	221.55
342.16	224.30
342.54	222.25
342.93	212.60
343.31	223.32
343.69	223.92
344.07	224.42
344.46	224.95
344.84	225.36
345.22	225.33
345.60	225.60
345.99	225.89
346.37	226.03
346.75	226.22
347.13	226.19
347.52	226.30
347.90	226.48
348.28	226.50
348.66	226.65
349.05	226.53
349.43	226.65
349.81	226.73
350.19	226.77
350.57	226.78
350.96	226.91
351.34	227.03
351.72	227.14
352.10	227.17
352.48	227.27
352.87	227.36
353.25	227.46
353.63	227.52
354.01	227.50
354.39	227.59
354.77	227.68
355.15	227.84
355.54	227.80
355.92	227.71
356.30	227.82
356.68	228.17
357.06	228.26
357.44	228.18
357.82	228.26
358.20	228.65
358.58	228.72
358.97	228.82
359.35	228.97
359.73	229.14
360.11	229.22
360.49	229.27
360.87	229.33
361.25	229.36
361.63	229.59
362.01	229.65
362.39	229.65
362.77	229.70
363.15	229.74
363.53	229.77
363.91	229.83
364.29	229.82
364.67	229.36
365.05	229.45
365.43	229.53
365.81	229.61
366.19	229.55
366.57	229.73
366.95	229.71
367.33	229.60
367.71	229.61
368.09	229.66
368.47	229.68
368.85	229.57
369.23	229.79
369.61	229.59
369.99	229.72
370.37	229.80
370.75	230.07
371.13	230.00
371.51	229.97
371.89	229.94
372.27	229.92
372.65	229.91
373.03	229.86
373.41	229.85
373.78	229.74
374.16	229.42
374.54	229.24
374.92	229.16
375.30	229.11
375.68	228.92
376.06	228.92
376.44	228.75
376.82	228.77
377.19	228.61
377.57	228.49
377.95	228.33
378.33	228.15
378.71	227.77
379.09	227.77
379.47	227.74
379.84	227.63
380.22	227.59
380.60	227.45
380.98	227.39
381.36	227.27
381.73	227.12
382.11	227.12
382.49	227.03
382.87	226.87
383.25	226.83
383.62	227.32
384.00	227.15
384.38	227.19
384.76	227.28
385.13	227.40
385.51	227.39
385.89	227.25
386.27	227.21
386.64	227.18
387.02	227.10
387.40	227.02
387.78	227.03
388.15	226.94
388.53	226.90
388.91	226.87
389.29	226.80
389.66	226.85
390.04	226.79
390.42	226.90
390.79	226.94
391.17	226.80
391.55	226.29
391.92	226.27
392.30	226.32
392.68	226.13
393.05	226.07
393.43	226.01
393.81	226.06
394.18	226.00
394.56	226.06
394.94	226.15
395.31	226.12
395.69	226.34
396.06	226.50
396.44	226.64
396.82	226.59
397.19	226.84
397.57	226.83
397.95	226.95
398.32	226.83
398.70	227.01
399.07	227.26
399.45	227.34
399.82	227.42
400.20	227.39
400.58	227.51
400.95	227.39
401.33	227.74
401.70	228.19
402.08	228.34
402.45	228.46
402.83	228.65
403.20	228.77
403.58	228.85
403.95	229.09
404.33	229.25
404.71	229.48
405.08	229.94
405.46	230.19
405.83	230.47
406.21	230.74
406.58	230.96
406.96	231.24
407.33	231.53
407.70	231.91
408.08	232.67
408.45	233.10
408.83	233.63
409.20	233.94
409.58	234.10
409.95	234.73
410.33	235.28
410.70	235.68
411.08	236.41
411.45	236.98
411.82	237.51
412.20	238.31
412.57	239.30
412.95	239.65
413.32	240.59
413.69	241.37
414.07	242.28
414.44	243.29
414.82	244.25
415.19	245.49
415.56	246.71
415.94	247.75
416.31	249.29
416.68	250.75
417.06	252.34
417.43	253.98
417.81	255.65
418.18	257.48
418.55	259.44
418.93	261.47
419.30	263.59
419.67	265.85
420.04	268.10
420.42	270.42
420.79	273.51
421.16	276.29
421.54	279.42
421.91	282.48
422.28	285.54
422.66	288.90
423.03	292.42
423.40	295.79
423.77	299.32
424.15	302.89
424.52	306.65
424.89	310.82
425.26	314.84
425.64	318.73
426.01	322.89
426.38	327.38
426.75	331.84
427.13	336.42
427.50	341.25
427.87	346.22
428.24	351.16
428.61	355.74
428.99	361.16
429.36	366.63
429.73	372.12
430.10	377.81
430.47	383.42
430.85	388.99
431.22	395.15
431.59	402.00
431.96	408.27
432.33	415.25
432.70	421.91
433.08	429.84
433.45	437.27
433.82	444.75
434.19	452.82
434.56	460.95
434.93	468.77
435.30	476.61
435.68	485.38
436.05	493.86
436.42	502.15
436.79	509.84
437.16	518.30
437.53	527.22
437.90	535.76
438.27	544.47
438.64	553.63
439.01	562.04
439.38	569.24
439.75	576.48
440.13	584.67
440.50	592.18
440.87	598.20
441.24	604.62
441.61	611.77
441.98	617.00
442.35	622.87
442.72	628.81
443.09	634.62
443.46	637.86
443.83	640.26
444.20	642.35
444.57	644.98
444.94	646.02
445.31	647.10
445.68	648.50
446.05	648.72
446.42	647.26
446.79	645.80
447.16	644.18
447.53	642.79
447.90	638.91
448.27	635.32
448.64	630.55
449.01	626.80
449.37	620.53
449.74	614.31
450.11	607.42
450.48	599.58
450.85	591.36
451.22	584.51
451.59	577.87
451.96	571.48
452.33	563.30
452.70	555.82
453.07	547.05
453.43	537.87
453.80	529.35
454.17	521.22
454.54	513.46
454.91	505.12
455.28	497.17
455.65	489.73
456.02	482.85
456.38	476.28
456.75	468.59
457.12	461.99
457.49	455.75
457.86	449.44
458.23	444.33
458.59	438.75
458.96	433.05
459.33	427.77
459.70	422.69
460.07	418.54
460.43	413.82
460.80	409.65
461.17	405.98
461.54	402.00
461.91	398.25
462.27	394.29
462.64	391.19
463.01	387.63
463.38	384.30
463.74	380.20
464.11	377.33
464.48	374.60
464.85	371.58
465.21	369.39
465.58	367.00
465.95	364.18
466.32	361.94
466.68	359.59
467.05	357.40
467.42	355.13
467.78	352.85
468.15	350.74
468.52	349.06
468.88	346.80
469.25	344.83
469.62	343.27
469.98	341.73
470.35	340.14
470.72	338.66
471.08	336.95
471.45	335.85
471.82	334.52
472.18	333.21
472.55	332.31
472.92	331.04
473.28	329.88
473.65	328.81
474.02	327.73
474.38	326.81
474.75	326.14
475.11	325.23
475.48	324.64
475.85	324.06
476.21	323.32
476.58	322.87
476.94	322.46
477.31	321.91
477.67	321.50
478.04	321.17
478.41	320.87
478.77	321.15
479.14	320.75
479.50	320.58
479.87	320.47
480.23	320.44
480.60	320.44
480.96	320.54
481.33	320.82
481.69	321.01
482.06	321.30
482.42	321.54
482.79	321.95
483.15	322.29
483.52	322.88
483.88	323.40
484.25	323.85
484.61	324.54
484.98	325.29
485.34	326.36
485.71	327.36
486.07	328.41
486.44	328.86
486.80	330.00
487.17	331.12
487.53	332.54
487.90	333.86
488.26	335.53
488.62	337.20
488.99	338.83
489.35	340.62
489.72	342.53
490.08	344.41
490.44	346.49
490.81	348.78
491.17	350.96
491.54	353.40
491.90	356.09
492.26	358.77
492.63	361.51
492.99	364.24
493.36	367.23
493.72	370.53
494.08	374.08
494.45	377.75
494.81	381.72
495.17	385.49
495.54	389.80
495.90	393.97
496.26	398.49
496.63	403.14
496.99	407.96
497.35	412.95
497.72	418.41
498.08	423.76
498.44	429.45
498.80	435.49
499.17	441.65
499.53	447.99
499.89	454.73
500.26	461.73
500.62	468.85
500.98	476.40
501.34	483.86
501.71	491.65
502.07	499.57
502.43	507.67
502.79	516.16
503.16	524.90
503.52	533.98
503.88	543.18
504.24	552.84
504.60	562.89
504.97	573.21
505.33	583.60
505.69	594.82
506.05	605.81
506.41	616.96
506.78	628.77
507.14	640.88
507.50	653.30
507.86	666.02
508.22	678.93
508.59	691.90
508.95	705.52
509.31	719.60
509.67	734.03
510.03	748.40
510.39	763.20
510.75	778.17
511.12	793.62
511.48	809.27
511.84	825.05
512.20	841.05
512.56	857.30
512.92	874.10
513.28	890.99
513.64	908.44
514.00	926.36
514.37	944.06
514.73	962.13
515.09	980.31
515.45	998.74
515.81	1017.30
516.17	1036.17
516.53	1054.88
516.89	1073.87
517.25	1093.18
517.61	1113.55
517.97	1134.04
518.33	1154.22
518.69	1174.49
519.05	1194.99
519.41	1215.78
519.77	1237.16
520.13	1257.92
520.49	1278.69
520.85	1301.00
521.21	1322.25
521.57	1343.37
521.93	1364.36
522.29	1385.78
522.65	1406.49
523.01	1427.30
523.37	1448.11
523.73	1469.25
524.09	1490.07
524.45	1510.91
524.81	1531.95
525.17	1552.74
525.53	1573.27
525.89	1594.13
526.25	1614.86
526.61	1635.46
526.97	1656.54
527.33	1677.66
527.68	1700.05
528.04	1721.17
528.40	1740.63
528.76	1761.75
529.12	1782.39
529.48	1803.17
529.84	1823.39
530.20	1844.63
530.56	1865.62
530.91	1886.69
531.27	1907.08
531.63	1927.65
531.99	1948.50
532.35	1968.62
532.71	1988.63
533.07	2009.39
533.42	2029.50
533.78	2049.72
534.14	2069.79
534.50	2089.00
534.86	2108.02
535.21	2125.58
535.57	2144.47
535.93	2162.87
536.29	2180.45
536.65	2198.51
537.00	2216.55
537.36	2234.36
537.72	2251.23
538.08	2268.56
538.44	2285.25
538.79	2302.04
539.15	2318.64
539.51	2334.10
539.87	2349.50
540.22	2364.11
540.58	2378.12
540.94	2391.32
541.29	2403.78
541.65	2416.50
542.01	2429.17
542.37	2440.14
542.72	2451.32
543.08	2462.11
543.44	2473.65
543.79	2484.13
544.15	2494.34
544.51	2504.28
544.87	2513.90
545.22	2522.45
545.58	2529.94
545.94	2537.44
546.29	2544.19
546.65	2550.49
547.01	2556.65
547.36	2562.31
547.72	2567.73
548.07	2572.31
548.43	2577.81
548.79	2582.72
549.14	2586.80
549.50	2590.65
549.86	2594.78
550.21	2598.40
550.57	2601.65
550.92	2603.14
551.28	2604.56
551.64	2606.98
551.99	2608.81
552.35	2610.20
552.70	2612.47
553.06	2614.55
553.41	2615.61
553.77	2617.25
554.13	2619.60
554.48	2621.14
554.84	2622.79
555.19	2623.82
555.55	2625.40
555.90	2624.85
556.26	2624.03
556.61	2622.34
556.97	2620.61
557.32	2619.83
557.68	2618.84
558.03	2617.56
558.39	2616.38
558.74	2615.74
559.10	2612.38
559.45	2609.21
559.81	2604.84
560.16	2599.85
560.52	2595.14
560.87	2590.84
561.23	2585.50
561.58	2579.10
561.94	2572.25
562.29	2564.55
562.64	2557.52
563.00	2549.35
563.35	2542.84
563.71	2536.52
564.06	2530.71
564.42	2523.63
564.77	2516.51
565.12	2508.66
565.48	2500.79
565.83	2493.04
566.19	2484.60
566.54	2476.86
566.89	2468.55
567.25	2461.12
567.60	2453.53
567.96	2445.70
568.31	2437.60
568.66	2428.81
569.02	2419.92
569.37	2411.67
569.72	2404.30
570.08	2394.81
570.43	2385.23
570.78	2375.91
571.14	2366.29
571.49	2355.91
571.84	2346.42
572.20	2335.72
572.55	2326.06
572.90	2315.04
573.26	2304.46
573.61	2293.61
573.96	2282.57
574.31	2270.49
574.67	2258.57
575.02	2246.24
575.37	2233.63
575.72	2220.32
576.08	2208.10
576.43	2195.37
576.78	2182.04
577.13	2168.09
577.49	2155.52
577.84	2143.47
578.19	2131.27
578.54	2118.79
578.90	2106.62
579.25	2094.24
579.60	2081.63
579.95	2068.48
580.30	2055.33
580.66	2041.63
581.01	2028.18
581.36	2013.85
581.71	2001.33
582.06	1988.11
582.42	1975.23
582.77	1962.30
583.12	1950.36
583.47	1937.93
583.82	1926.00
584.17	1914.42
584.53	1902.56
584.88	1889.82
585.23	1876.82
585.58	1862.75
585.93	1849.42
586.28	1836.25
586.63	1822.46
586.98	1808.21
587.34	1794.76
587.69	1781.93
588.04	1769.29
588.39	1756.98
588.74	1744.81
589.09	1732.15
589.44	1719.68
589.79	1707.76
590.14	1695.97
590.49	1683.79
590.84	1671.54
591.19	1659.15
591.54	1646.50
591.89	1634.18
592.25	1623.69
592.60	1612.16
592.95	1600.82
593.30	1588.90
593.65	1576.98
594.00	1564.68
594.35	1554.88
594.70	1542.89
595.05	1531.26
595.40	1519.25
595.75	1506.95
596.10	1495.74
596.45	1484.28
596.80	1473.05
597.15	1461.39
597.50	1449.40
597.85	1438.04
598.19	1426.34
598.54	1414.89
598.89	1403.52
599.24	1392.67
599.59	1380.91
599.94	1370.10
600.29	1359.34
600.64	1348.53
600.99	1337.58
601.34	1328.11
601.69	1316.70
602.04	1306.93
602.39	1297.16
602.74	1288.07
603.08	1278.86
603.43	1269.38
603.78	1259.63
604.13	1249.93
604.48	1240.09
604.83	1230.37
605.18	1220.39
605.53	1210.72
605.87	1201.56
606.22	1192.87
606.57	1183.53
606.92	1174.23
607.27	1165.10
607.62	1156.19
607.96	1147.65
608.31	1139.65
608.66	1131.28
609.01	1122.78
609.36	1114.06
609.70	1105.35
610.05	1096.30
610.40	1087.63
610.75	1078.79
611.10	1070.44
611.44	1061.78
611.79	1053.64
612.14	1045.90
612.49	1038.06
612.83	1030.79
613.18	1022.73
613.53	1015.05
613.88	1007.18
614.22	999.21
614.57	991.22
614.92	983.35
615.27	975.79
615.61	967.93
615.96	960.04
616.31	952.56
616.65	945.41
617.00	938.07
617.35	931.01
617.70	923.83
618.04	916.76
618.39	909.79
618.74	903.44
619.08	896.43
619.43	889.08
619.78	881.88
620.12	874.56
620.47	867.50
620.82	860.17
621.16	853.37
621.51	847.21
621.85	840.84
622.20	834.29
622.55	827.55
622.89	821.18
623.24	814.75
623.59	808.26
623.93	801.95
624.28	795.74
624.62	789.94
624.97	783.90
625.32	778.22
625.66	772.17
626.01	765.82
626.35	760.40
626.70	755.01
627.04	749.93
627.39	744.56
627.73	739.39
628.08	734.22
628.43	728.68
628.77	722.98
629.12	717.58
629.46	712.66
629.81	707.98
630.15	703.15
630.50	698.43
630.84	693.55
631.19	688.54
631.53	683.75
631.88	678.45
632.22	673.65
632.57	669.03
632.91	664.53
633.26	660.10
633.60	655.29
633.95	650.48
634.29	645.48
634.64	641.00
634.98	636.19
635.32	631.86
635.67	627.89
636.01	623.73
636.36	619.28
636.70	615.30
637.05	611.00
637.39	606.65
637.73	602.30
638.08	598.30
638.42	594.17
638.77	590.06
639.11	585.62
639.45	581.35
639.80	576.83
640.14	572.69
640.49	568.79
640.83	564.94
641.17	561.21
641.52	557.44
641.86	553.76
642.20	550.42
642.55	546.67
642.89	543.09
643.23	539.55
643.58	536.46
643.92	532.75
644.26	529.27
644.61	526.04
644.95	522.74
645.29	519.32
645.64	516.09
645.98	512.87
646.32	510.09
646.66	507.03
647.01	504.20
647.35	501.40
647.69	498.47
648.04	495.59
648.38	492.74
648.72	489.97
649.06	486.75
649.41	483.88
649.75	480.83
650.09	477.83
650.43	475.01
650.78	471.97
651.12	469.24
651.46	466.50
651.80	463.66
652.14	460.92
652.49	458.31
652.83	455.76
653.17	453.12
653.51	450.31
653.85	447.68
654.20	445.07
654.54	442.31
654.88	439.70
655.22	437.42
655.56	434.92
655.90	432.53
656.25	430.30
656.59	428.01
656.93	425.83
657.27	423.79
657.61	421.32
657.95	419.18
658.29	416.86
658.64	414.72
658.98	412.47
659.32	410.11
659.66	407.91
660.00	405.73
660.34	403.80
660.68	401.85
661.02	399.80
661.36	397.76
661.70	395.86
662.05	393.84
662.39	391.76
662.73	390.01
663.07	388.34
663.41	386.55
663.75	384.50
664.09	382.65
664.43	380.63
664.77	379.01
665.11	377.17
665.45	375.55
665.79	373.85
666.13	372.10
666.47	370.48
666.81	368.83
667.15	367.18
667.49	365.50
667.83	364.11
668.17	362.69
668.51	361.20
668.85	359.77
669.19	358.65
669.53	357.24
669.87	355.64
670.21	354.15
670.55	352.85
670.89	351.74
671.23	350.36
671.57	348.96
671.91	347.56
672.25	346.35
672.58	345.08
672.92	343.65
673.26	342.55
673.60	341.39
673.94	340.23
674.28	339.10
674.62	337.88
674.96	336.53
675.30	335.36
675.64	334.20
675.97	332.92
676.31	331.44
676.65	330.10
676.99	329.17
677.33	327.88
677.67	326.68
678.01	325.31
678.34	324.26
678.68	323.36
679.02	322.34
679.36	321.20
679.70	320.14
680.04	319.26
680.37	318.22
680.71	317.13
681.05	316.22
681.39	315.31
681.73	314.35
682.06	313.43
682.40	312.56
682.74	311.70
683.08	311.01
683.42	310.15
683.75	309.41
684.09	308.45
684.43	307.65
684.77	306.82
685.10	306.04
685.44	305.30
685.78	304.53
686.12	303.65
686.45	302.93
686.79	302.03
687.13	301.35
687.46	300.56
687.80	299.88
688.14	299.02
688.48	298.22
688.81	297.61
689.15	296.98
689.49	296.22
689.82	295.61
690.16	294.77
690.50	294.18
690.83	293.55
691.17	292.84
691.51	292.26
691.84	291.68
692.18	291.03
692.52	290.29
692.85	289.63
693.19	289.35
693.52	288.63
693.86	288.06
694.20	287.35
694.53	286.78
694.87	286.25
695.21	285.70
695.54	285.16
695.88	284.44
696.21	283.72
696.55	283.13
696.88	282.49
697.22	281.86
697.56	281.30
697.89	280.54
698.23	280.02
698.56	279.33
698.90	278.85
699.23	278.30
699.57	277.87
699.90	277.27
700.24	276.39
700.58	275.96
700.91	275.57
701.25	275.47
701.58	275.29
701.92	274.83
702.25	274.31
702.59	273.76
702.92	273.29
703.26	272.88
703.59	272.47
703.93	272.40
704.26	272.01
704.60	271.63
704.93	271.29
705.26	270.81
705.60	270.50
705.93	269.96
706.27	269.69
706.60	269.34
706.94	269.08
707.27	268.72
707.61	268.27
707.94	267.82
708.27	266.98
708.61	266.24
708.94	265.78
709.28	265.43
709.61	265.07
709.94	264.70
710.28	264.30
710.61	263.86
710.95	263.09
711.28	263.08
711.61	262.67
711.95	262.41
712.28	261.94
712.61	261.60
712.95	261.46
713.28	261.28
713.61	260.78
713.95	260.26
714.28	260.01
714.61	259.69
714.95	259.32
715.28	259.03
715.61	258.68
715.95	258.38
716.28	257.90
716.61	257.57
716.95	257.24
717.28	256.93
717.61	256.59
717.94	256.29
718.28	255.53
718.61	255.22
718.94	254.84
719.27	254.69
719.61	254.40
719.94	254.05
720.27	253.60
720.60	253.40
720.94	253.19
721.27	252.96
721.60	252.84
721.93	252.60
722.27	252.53
722.60	252.39
722.93	252.13
723.26	252.04
723.59	251.74
723.93	251.62
724.26	251.48
724.59	251.30
724.92	251.12
725.25	251.16
725.59	250.95
725.92	250.83
726.25	250.66
726.58	250.57
726.91	250.33
727.24	250.24
727.57	250.03
727.91	249.84
728.24	249.66
728.57	249.39
728.90	249.20
729.23	248.79
729.56	248.90
729.89	248.74
730.22	248.52
730.55	248.45
730.89	248.26
731.22	248.08
731.55	247.94
731.88	247.72
732.21	247.45
732.54	247.26
732.87	247.10
733.20	246.92
733.53	246.72
733.86	246.56
734.19	246.22
734.52	246.17
734.85	246.34
735.18	246.11
735.51	246.16
735.84	246.11
736.17	246.19
736.50	245.66
736.83	246.15
737.16	246.01
737.49	245.86
737.82	245.60
738.15	245.46
738.48	245.32
738.81	245.16
739.14	244.90
739.47	244.70
739.80	244.50
740.13	244.42
740.46	244.18
740.79	244.00
741.12	243.90
741.45	243.58
741.78	243.14
742.11	243.11
742.44	242.82
742.77	242.78
743.10	242.54
743.43	242.36
743.75	241.63
744.08	242.13
744.41	241.98
744.74	241.85
745.07	241.66
745.40	241.55
745.73	241.70
746.06	241.65
746.39	241.62
746.71	241.48
747.04	241.17
747.37	241.06
747.70	241.02
748.03	240.92
748.36	240.92
748.68	240.78
749.01	240.47
749.34	240.36
749.67	240.10
750.00	240.00
750.33	240.31
750.65	240.29
750.98	239.59
751.31	239.46
751.64	239.42
751.97	239.55
752.29	239.41
752.62	239.03
752.95	238.95
753.28	238.80
753.60	238.66
753.93	238.75
754.26	238.66
754.59	238.37
754.91	238.16
755.24	237.97
755.57	237.86
755.90	237.80
756.22	237.59
756.55	237.41
756.88	237.22
757.20	236.84
757.53	236.50
757.86	236.33
758.19	236.30
758.51	236.17
758.84	235.86
759.17	235.80
759.49	235.84
759.82	235.91
760.15	235.83
760.47	235.71
760.80	235.47
761.13	235.40
761.45	235.32
761.78	235.32
762.11	235.22
762.43	235.07
762.76	234.95
763.08	234.94
763.41	234.98
763.74	234.98
764.06	234.80
764.39	234.83
764.71	234.75
765.04	234.61
765.37	234.63
765.69	234.56
766.02	234.39
766.34	234.16
766.67	233.85
767.00	233.80
767.32	234.02
767.65	234.25
767.97	234.20
768.30	234.13
768.62	233.98
768.95	233.97
769.27	233.87
769.60	233.88
769.92	233.75
770.25	233.58
770.57	233.43
770.90	233.41
771.22	233.30
771.55	233.27
771.87	233.21
772.20	233.04
772.52	233.40
772.85	233.90
773.17	233.93
773.50	233.90
773.82	233.84
774.15	233.56
774.47	233.21
774.80	233.05
775.12	233.01
775.45	233.00
775.77	232.94
776.09	233.05
776.42	233.06
776.74	233.25
777.07	233.21
777.39	233.15
777.72	233.08
778.04	233.09
778.36	233.03
778.69	233.03
779.01	233.06
779.33	232.52
779.66	232.01
779.98	231.91
780.31	231.94
780.63	232.08
780.95	232.12
781.28	232.11
781.60	232.13
781.92	232.11
782.25	232.09
782.57	232.11
782.89	232.06
783.22	231.93
783.54	231.71
783.86	231.77
784.19	231.73
784.51	231.89
784.83	231.82
785.16	231.82
785.48	231.73
785.80	231.64
786.12	231.69
786.45	231.65
786.77	231.62
787.09	231.59
787.42	231.41
787.74	231.42
788.06	231.38
788.38	231.35
788.71	231.28
789.03	231.28
789.35	231.25
789.67	231.06
789.99	231.11
790.32	231.02
790.64	230.93
790.96	231.26
791.28	231.10
791.61	231.01
791.93	230.96
792.25	230.90
792.57	231.26
792.89	231.16
793.21	231.10
793.54	231.00
793.86	230.86
794.18	230.82
794.50	230.62
794.82	230.61
795.14	230.63
795.47	230.64
795.79	230.57
796.11	230.43
796.43	230.44
796.75	230.36
797.07	230.40
797.39	230.40
797.71	230.01
798.04	229.92
798.36	229.94
798.68	229.93
799.00	229.95
799.32	229.66
799.64	229.69
799.96	229.68
800.28	229.75
800.60	229.68
800.92	229.67
801.24	229.66
801.56	229.64
801.89	229.56
802.21	229.61
802.53	229.53
802.85	229.59
803.17	229.79
803.49	229.64
803.81	229.52
804.13	229.54
804.45	229.51
804.77	229.52
805.09	229.51
805.41	229.43
805.73	229.37
806.05	229.22
806.37	229.12
806.69	229.04
807.01	228.99
807.33	229.01
807.65	228.83
807.97	229.05
808.28	229.00
808.60	228.96
808.92	228.89
809.24	229.14
809.56	229.10
809.88	228.96
810.20	229.06
810.52	229.22
810.84	229.07
811.16	229.00
811.48	228.99
811.80	229.08
812.12	229.08
812.43	229.16
812.75	229.21
813.07	229.24
813.39	229.24
813.71	229.22
814.03	229.20
814.35	229.20
814.67	228.90
814.98	228.84
815.30	228.80
815.62	228.69
815.94	228.34
816.26	228.55
816.58	228.39
816.89	228.41
817.21	228.30
817.53	228.34
817.85	228.34
818.17	228.29
818.48	228.15
818.80	228.25
819.12	228.10
819.44	227.93
819.76	227.88
820.07	227.96
820.39	227.95
820.71	228.00
821.03	228.02
821.34	228.06
821.66	228.12
821.98	228.19
822.30	228.17
822.61	228.50
822.93	228.20
823.25	228.23
823.57	228.18
823.88	228.21
824.20	228.19
824.52	228.30
824.83	228.30
825.15	228.21
825.47	228.12
825.79	228.22
826.10	228.27
826.42	228.24
826.74	228.23
827.05	228.16
827.37	228.12
827.69	228.12
828.00	228.14
828.32	228.13
828.64	228.07
828.95	228.32
829.27	228.14
829.58	228.15
829.90	228.19
830.22	228.18
830.53	228.08
830.85	228.09
831.17	227.85
831.48	227.85
831.80	227.91
832.11	227.88
832.43	227.76
832.75	227.80
833.06	228.04
833.38	227.80
833.69	227.75
834.01	227.81
834.32	227.79
834.64	227.67
834.96	227.63
835.27	227.63
835.59	227.45
835.90	227.40
836.22	227.39
836.53	227.30
836.85	227.26
837.16	227.77
837.48	227.67
837.79	227.89
838.11	227.90
838.42	227.80
838.74	227.85
839.05	227.78
839.37	227.74
839.68	227.40
840.00	227.45
840.31	227.55
840.63	227.50
840.94	227.40
841.26	227.42
841.57	227.49
841.88	227.46
842.20	227.40
842.51	227.32
842.83	227.34
843.14	227.80
843.46	227.78
843.77	227.43
844.08	227.41
844.40	227.30
844.71	227.25
845.03	227.23
845.34	227.18
845.65	227.23
845.97	227.25
846.28	227.37
846.60	227.42
846.91	227.35
847.22	227.34
847.54	227.48
847.85	227.49
848.16	227.43
848.48	227.40
848.79	227.58
849.10	227.68
849.42	227.67
849.73	227.23
850.04	227.18
850.36	227.11
850.67	227.18
850.98	227.23
851.30	227.36
851.61	227.36
851.92	227.42
852.23	227.50
852.55	227.52
852.86	227.49
853.17	227.56
853.49	227.67
853.80	227.75
854.11	227.74
854.42	227.81
854.74	227.70
855.05	227.71
855.36	227.54
855.67	227.53
855.99	227.55
856.30	228.16
856.61	228.22
856.92	228.18
857.23	228.18
857.55	228.11
857.86	228.03
858.17	228.20
858.48	228.07
858.79	227.98
859.11	228.03
859.42	227.98
859.73	227.90
860.04	227.87
860.35	227.69
860.66	227.62
860.98	227.63
861.29	227.70
861.60	227.65
861.91	227.70
862.22	227.63
862.53	227.57
862.84	226.98
863.16	227.11
863.47	227.00
863.78	226.98
864.09	227.05
864.40	227.01
864.71	227.03
865.02	227.13
865.33	227.08
865.64	226.96
865.95	226.98
866.27	227.23
866.58	227.12
866.89	227.25
867.20	227.26
867.51	227.16
867.82	227.14
868.13	227.32
868.44	227.22
868.75	227.32
869.06	227.33
869.37	227.34
869.68	227.17
869.99	227.32
870.30	227.39
870.61	227.36
870.92	227.36
871.23	227.16
871.54	227.19
871.85	227.35
872.16	227.41
872.47	227.39
872.78	227.11
873.09	227.18
873.40	227.07
873.71	227.00
874.02	227.02
874.33	227.05
874.64	226.92
874.95	227.03
875.26	226.89
875.56	226.91
875.87	226.92
876.18	226.89
876.49	227.35
876.80	227.26
877.11	227.14
877.42	227.15
877.73	227.22
878.04	227.13
878.35	227.12
878.66	227.10
878.96	227.10
879.27	227.14
879.58	227.15
879.89	227.16
880.20	227.37
880.51	227.33
880.82	227.26
881.12	227.26
881.43	227.14
881.74	227.10
882.05	227.05
882.36	226.98
882.67	227.06
882.97	226.48
883.28	226.49
883.59	226.58
883.90	226.55
884.21	226.64
884.51	226.65
884.82	226.56
885.13	226.60
885.44	226.64
885.74	226.65
886.05	226.60
886.36	226.59
886.67	226.37
886.98	226.65
887.28	226.78
887.59	226.85
887.90	226.88
888.20	226.88
888.51	226.99
888.82	227.02
889.13	227.05
889.43	227.48
889.74	227.41
890.05	227.41
890.35	227.47
890.66	227.35
890.97	227.33
891.28	227.27
891.58	227.25
891.89	227.20
892.20	227.20
892.50	227.23
892.81	227.28
893.12	227.32
893.42	227.11
893.73	227.10
894.04	227.11
894.34	227.17
894.65	227.19
894.95	227.09
895.26	227.06
895.57	227.21
895.87	226.80
896.18	226.96
896.48	226.95
896.79	226.95
897.10	227.03
897.40	227.06
897.71	227.15
898.01	227.09
898.32	227.15
898.63	227.11
898.93	227.12
899.24	227.09
899.54	227.15
899.85	227.13
900.15	227.11
900.46	227.10
900.76	227.13
901.07	227.11
901.38	227.14
901.68	227.20
901.99	227.03
902.29	227.04
902.60	226.94
902.90	226.90
903.21	226.90
903.51	226.90
903.82	226.96
904.12	226.97
904.43	226.97
904.73	227.05
905.03	227.04
905.34	227.49
905.64	227.51
905.95	227.44
906.25	227.51
906.56	227.43
906.86	227.40
907.17	227.39
907.47	227.48
907.77	227.41
908.08	227.33
908.38	227.38
908.69	227.36
908.99	227.36
909.30	227.40
909.60	227.38
909.90	227.39
910.21	227.30
910.51	227.22
910.81	227.28
911.12	227.26
911.42	227.31
911.73	226.88
912.03	226.85
912.33	226.98
912.64	226.91
912.94	226.85
913.24	226.75
913.55	226.67
913.85	226.60
914.15	226.74
914.46	226.78
914.76	226.67
915.06	226.69
915.37	226.65
915.67	226.63
915.97	226.68
916.27	226.60
916.58	226.67
916.88	226.68
917.18	226.64
917.49	226.94
917.79	226.89
918.09	226.85
918.39	226.95
918.70	226.90
919.00	226.90
919.30	227.17
919.60	227.17
919.91	227.09
920.21	227.17
920.51	227.04
920.81	227.02
921.12	227.05
921.42	227.01
921.72	227.05
922.02	227.09
922.32	227.04
922.63	227.03
922.93	227.24
923.23	227.27
923.53	227.32
923.83	226.97
924.13	227.08
924.44	227.05
924.74	227.16
925.04	227.26
925.34	227.25
925.64	227.07
925.94	227.05
926.24	227.39
926.55	227.30
926.85	227.39
927.15	227.42
927.45	227.45
927.75	227.47
928.05	227.51
928.35	227.44
928.65	227.57
928.95	227.62
929.26	227.38
929.56	227.44
929.86	227.46
930.16	227.43
930.46	227.36
930.76	227.45
931.06	227.16
931.36	227.02
931.66	227.11
931.96	227.18
932.26	227.22
932.56	227.04
932.86	227.07
933.16	227.07
933.46	227.00
933.76	226.91
934.06	227.02
934.36	227.20
934.66	227.24
934.96	227.11
935.26	227.10
935.56	227.17
935.86	227.00
936.16	226.83
936.46	226.77
936.76	226.81
937.06	226.77
937.36	226.86
937.66	226.86
937.96	226.79
938.26	226.67
938.56	226.59
938.86	226.57
939.16	226.69
939.46	226.68
939.76	226.77
940.06	226.74
940.35	226.70
940.65	226.40
940.95	226.35
941.25	226.25
941.55	226.20
941.85	226.18
942.15	226.34
942.45	226.48
942.75	226.49
943.04	226.40
943.34	226.48
943.64	226.45
943.94	226.36
944.24	226.35
944.54	226.35
944.84	226.40
945.13	226.39
945.43	226.31
945.73	226.26
946.03	226.14
946.33	226.12
946.62	226.05
946.92	226.06
947.22	226.21
947.52	226.21
947.82	226.26
948.11	226.19
948.41	226.04
948.71	225.95
949.01	225.99
949.31	225.99
949.60	225.86
949.90	225.94
950.20	225.97
950.50	226.00
950.79	226.08
951.09	226.17
951.39	226.08
951.69	226.01
951.98	226.18
952.28	226.25
952.58	226.30
952.87	226.32
953.17	226.45
953.47	226.34
953.76	226.39
954.06	226.33
954.36	226.26
954.66	226.31
954.95	226.46
955.25	226.53
955.55	226.54
955.84	226.57
956.14	226.65
956.44	226.62
956.73	226.58
957.03	226.55
957.32	226.55
957.62	226.64
957.92	226.69
958.21	226.60
958.51	227.12
958.81	227.19
959.10	227.25
959.40	227.30
959.69	227.32
959.99	227.49
960.29	227.45
960.58	227.50
960.88	227.63
961.17	227.59
961.47	227.60
961.76	227.57
962.06	227.62
962.36	227.47
962.65	227.49
962.95	227.54
963.24	227.50
963.54	227.48
963.83	227.45
964.13	227.49
964.42	227.36
964.72	226.89
965.01	226.90
965.31	226.81
965.60	226.68
965.90	226.99
966.19	226.82
966.49	226.91
966.78	226.88
967.08	226.83
967.37	226.78
967.67	226.69
967.96	226.76
968.26	226.72
968.55	226.81
968.85	226.85
969.14	226.80
969.43	226.72
969.73	226.66
970.02	226.63
970.32	226.51
970.61	226.50
970.91	226.47
971.20	226.39
971.49	226.37
971.79	226.45
972.08	226.12
972.38	226.07
972.67	226.00
972.96	226.09
973.26	226.03
973.55	226.10
973.85	226.11
974.14	226.06
974.43	226.12
974.73	226.05
975.02	226.00
975.31	225.98
975.61	225.96
975.90	225.92
976.19	225.85
976.49	225.97
976.78	226.03
977.07	226.00
977.37	226.00
977.66	226.03
977.95	225.92
978.24	225.90
978.54	225.97
978.83	225.99
979.12	225.87
979.42	225.89
979.71	225.85
980.00	225.83
980.29	225.87
980.59	225.80
980.88	225.92
981.17	225.82
981.46	225.80
981.76	225.91
982.05	226.07
982.34	226.18
982.63	226.20
982.93	226.15
983.22	226.29
983.51	226.32
983.80	226.42
984.09	226.48
984.39	226.44
984.68	226.42
984.97	226.43
985.26	226.48
985.55	226.45
985.85	226.34
986.14	226.42
986.43	226.49
986.72	226.38
987.01	226.17
987.30	226.25
987.59	226.27
987.89	226.15
988.18	225.99
988.47	225.92
988.76	225.83
989.05	225.81
989.34	225.68
989.63	225.77
989.92	225.73
990.22	225.70
990.51	225.70
990.80	225.68
991.09	225.67
991.38	225.72
991.67	225.69
991.96	225.67
992.25	225.67
992.54	225.58
992.83	225.69
993.12	225.78
993.41	225.80
993.70	226.01
993.99	226.18
994.28	226.26
994.58	226.32
994.87	226.32
995.16	226.30
995.45	226.30
995.74	226.18
996.03	226.21
996.32	226.34
996.61	226.47
996.90	226.46
997.19	226.46
997.48	226.47
997.77	226.45
998.06	226.45
998.34	226.39
998.63	226.40
998.92	226.36
999.21	226.39
999.50	226.38
999.79	226.21
1000.08	226.21
1000.37	226.15
1000.66	226.06
1000.95	226.17
1001.24	226.23
1001.53	226.28
1001.82	226.26
1002.11	226.15
1002.40	226.09
1002.68	226.21
1002.97	226.58
1003.26	226.50
1003.55	226.41
1003.84	226.49
1004.13	226.69
1004.42	226.70
1004.71	226.65
1004.99	226.57
1005.28	226.71
1005.57	226.69
1005.86	226.59
1006.15	226.58
1006.44	226.55
1006.72	226.73
1007.01	226.69
1007.30	226.71
1007.59	226.65
1007.88	226.63
1008.17	226.69
1008.45	226.65
1008.74	226.46
1009.03	226.23
1009.32	226.33
1009.60	226.31
1009.89	226.24
1010.18	226.06
1010.47	226.00
1010.76	226.02
1011.04	226.10
1011.33	226.09
1011.62	226.14
1011.91	226.24
1012.19	226.18
1012.48	226.20
1012.77	226.17
1013.05	226.37
1013.34	226.31
1013.63	226.28
1013.92	226.39
1014.20	226.32
1014.49	226.39
1014.78	226.40
1015.06	226.26
1015.35	226.18
1015.64	226.30
1015.92	226.34
1016.21	226.36
1016.50	226.40
1016.78	226.49
1017.07	226.48
1017.36	226.34
1017.64	226.30
1017.93	226.33
1018.22	226.28
1018.50	226.24
1018.79	226.20
1019.08	225.93
1019.36	226.03
1019.65	226.02
1019.93	226.07
1020.22	226.15
1020.51	226.33
1020.79	226.34
1021.08	224.85
1021.36	224.45
1021.65	226.60
1021.94	225.55
1022.22	227.25
1022.51	225.10
1022.79	228.20
1023.08	227.35
1023.36	231.60
1023.65	226.60
>>>>>End Processed Spectral Data<<<<<
