SpectraSuite Data File
++++++++++++++++++++++++++++++++++++
Date: Wed Sep 04 17:47:28 EDT 2013
User: lab3
Dark Spectrum Present: Yes
Reference Spectrum Present: No
Number of Sampled Component Spectra: 1
Spectrometers: USB2E7196
Integration Time (usec): 170000 (USB2E7196)
Spectra Averaged: 20 (USB2E7196)
Boxcar Smoothing: 10 (USB2E7196)
Correct for Electrical Dark: No (USB2E7196)
Strobe/Lamp Enabled: No (USB2E7196)
Correct for Detector Non-linearity: No (USB2E7196)
Correct for Stray Light: No (USB2E7196)
Number of Pixels in Processed Spectrum: 2048
>>>>>Begin Processed Spectral Data<<<<<
339.09	0.00
339.48	212.55
339.86	215.00
340.24	216.40
340.63	216.10
341.01	226.05
341.39	219.55
341.78	222.30
342.16	222.90
342.54	223.10
342.93	212.21
343.31	222.90
343.69	223.49
344.07	223.92
344.46	224.43
344.84	224.81
345.22	224.77
345.60	225.06
345.99	225.29
346.37	225.39
346.75	225.46
347.13	225.50
347.52	225.53
347.90	225.66
348.28	225.70
348.66	225.85
349.05	225.72
349.43	225.75
349.81	225.75
350.19	225.89
350.57	225.85
350.96	225.93
351.34	226.01
351.72	226.05
352.10	226.13
352.48	226.09
352.87	226.18
353.25	226.22
353.63	226.29
354.01	226.29
354.39	226.35
354.77	226.46
355.15	226.71
355.54	226.74
355.92	226.66
356.30	226.73
356.68	227.03
357.06	227.09
357.44	227.15
357.82	227.25
358.20	227.62
358.58	227.80
358.97	227.82
359.35	227.96
359.73	228.19
360.11	228.28
360.49	228.35
360.87	228.46
361.25	228.58
361.63	228.77
362.01	228.78
362.39	228.82
362.77	228.87
363.15	228.86
363.53	228.91
363.91	228.98
364.29	229.04
364.67	228.62
365.05	228.73
365.43	228.77
365.81	228.81
366.19	228.72
366.57	228.85
366.95	228.87
367.33	228.73
367.71	228.64
368.09	228.73
368.47	228.74
368.85	228.71
369.23	228.79
369.61	228.68
369.99	228.86
370.37	228.97
370.75	229.27
371.13	229.05
371.51	228.95
371.89	228.97
372.27	228.90
372.65	228.92
373.03	228.87
373.41	228.85
373.78	228.83
374.16	228.59
374.54	228.44
374.92	228.43
375.30	228.50
375.68	228.40
376.06	228.33
376.44	228.28
376.82	228.23
377.19	228.11
377.57	227.95
377.95	227.74
378.33	227.60
378.71	227.26
379.09	227.32
379.47	227.31
379.84	227.22
380.22	227.18
380.60	227.04
380.98	226.96
381.36	226.85
381.73	226.70
382.11	226.67
382.49	226.63
382.87	226.51
383.25	226.41
383.62	226.97
384.00	226.80
384.38	226.75
384.76	226.80
385.13	226.94
385.51	226.90
385.89	226.83
386.27	226.82
386.64	226.72
387.02	226.61
387.40	226.56
387.78	226.55
388.15	226.49
388.53	226.44
388.91	226.36
389.29	226.26
389.66	226.35
390.04	226.21
390.42	226.25
390.79	226.26
391.17	226.20
391.55	225.60
391.92	225.66
392.30	225.68
392.68	225.58
393.05	225.56
393.43	225.53
393.81	225.44
394.18	225.35
394.56	225.48
394.94	225.63
395.31	225.70
395.69	225.84
396.06	225.94
396.44	226.08
396.82	226.12
397.19	226.43
397.57	226.38
397.95	226.48
398.32	226.39
398.70	226.48
399.07	226.66
399.45	226.63
399.82	226.67
400.20	226.73
400.58	226.80
400.95	226.73
401.33	227.01
401.70	227.53
402.08	227.63
402.45	227.73
402.83	227.95
403.20	228.05
403.58	228.18
403.95	228.38
404.33	228.65
404.71	228.86
405.08	229.33
405.46	229.58
405.83	229.85
406.21	230.10
406.58	230.36
406.96	230.64
407.33	231.05
407.70	231.46
408.08	232.15
408.45	232.68
408.83	233.12
409.20	233.45
409.58	233.63
409.95	234.23
410.33	234.77
410.70	235.21
411.08	235.80
411.45	236.41
411.82	237.05
412.20	237.78
412.57	238.73
412.95	239.13
413.32	240.03
413.69	240.84
414.07	241.83
414.44	242.80
414.82	243.80
415.19	245.07
415.56	246.29
415.94	247.29
416.31	248.63
416.68	250.02
417.06	251.63
417.43	253.21
417.81	254.99
418.18	256.80
418.55	258.69
418.93	260.72
419.30	262.76
419.67	264.95
420.04	267.17
420.42	269.46
420.79	272.47
421.16	275.19
421.54	278.31
421.91	281.23
422.28	284.18
422.66	287.48
423.03	290.79
423.40	293.95
423.77	297.54
424.15	301.12
424.52	304.90
424.89	309.08
425.26	312.97
425.64	316.69
426.01	320.75
426.38	325.12
426.75	329.55
427.13	334.08
427.50	338.73
427.87	343.59
428.24	348.42
428.61	352.76
428.99	358.03
429.36	363.32
429.73	368.78
430.10	374.36
430.47	379.78
430.85	385.33
431.22	391.45
431.59	398.03
431.96	404.24
432.33	410.95
432.70	417.51
433.08	425.24
433.45	432.47
433.82	439.76
434.19	447.76
434.56	455.68
434.93	463.32
435.30	470.88
435.68	479.26
436.05	487.59
436.42	495.75
436.79	503.25
437.16	511.43
437.53	520.04
437.90	528.61
438.27	537.07
438.64	545.86
439.01	554.11
439.38	561.18
439.75	568.06
440.13	575.98
440.50	583.34
440.87	589.40
441.24	595.70
441.61	602.45
441.98	607.42
442.35	613.14
442.72	618.88
443.09	624.65
443.46	627.99
443.83	630.12
444.20	632.12
444.57	634.77
444.94	635.89
445.31	636.89
445.68	638.11
446.05	638.27
446.42	636.97
446.79	635.59
447.16	634.00
447.53	632.83
447.90	629.35
448.27	625.75
448.64	620.92
449.01	617.40
449.37	611.42
449.74	605.52
450.11	598.86
450.48	591.34
450.85	583.60
451.22	576.92
451.59	570.49
451.96	564.35
452.33	556.34
452.70	549.05
453.07	540.59
453.43	531.74
453.80	523.48
454.17	515.66
454.54	508.02
454.91	499.94
455.28	492.13
455.65	484.74
456.02	477.93
456.38	471.66
456.75	463.96
457.12	457.56
457.49	451.30
457.86	445.06
458.23	440.06
458.59	434.23
458.96	428.52
459.33	423.58
459.70	418.52
460.07	414.58
460.43	409.98
460.80	405.80
461.17	402.14
461.54	398.24
461.91	394.40
462.27	390.51
462.64	387.31
463.01	383.75
463.38	380.42
463.74	376.46
464.11	373.56
464.48	370.93
464.85	368.13
465.21	366.07
465.58	363.76
465.95	360.82
466.32	358.78
466.68	356.57
467.05	354.33
467.42	352.15
467.78	349.78
468.15	347.70
468.52	346.12
468.88	343.89
469.25	342.09
469.62	340.55
469.98	339.12
470.35	337.69
470.72	336.27
471.08	334.60
471.45	333.46
471.82	332.22
472.18	330.80
472.55	329.92
472.92	328.58
473.28	327.48
473.65	326.49
474.02	325.34
474.38	324.44
474.75	323.69
475.11	322.88
475.48	322.33
475.85	321.75
476.21	321.09
476.58	320.55
476.94	320.24
477.31	319.87
477.67	319.37
478.04	318.95
478.41	318.67
478.77	319.04
479.14	318.73
479.50	318.62
479.87	318.71
480.23	318.65
480.60	318.57
480.96	318.57
481.33	318.92
481.69	319.24
482.06	319.55
482.42	319.76
482.79	320.14
483.15	320.60
483.52	321.33
483.88	321.77
484.25	322.42
484.61	322.99
484.98	323.66
485.34	324.58
485.71	325.65
486.07	326.75
486.44	327.30
486.80	328.38
487.17	329.47
487.53	330.81
487.90	332.22
488.26	333.92
488.62	335.65
488.99	337.20
489.35	338.86
489.72	340.70
490.08	342.74
490.44	344.73
490.81	346.95
491.17	349.01
491.54	351.52
491.90	354.02
492.26	356.68
492.63	359.37
492.99	362.21
493.36	365.17
493.72	368.43
494.08	371.88
494.45	375.59
494.81	379.40
495.17	383.20
495.54	387.33
495.90	391.57
496.26	395.93
496.63	400.56
496.99	405.24
497.35	410.31
497.72	415.63
498.08	421.01
498.44	426.54
498.80	432.52
499.17	438.44
499.53	444.58
499.89	451.16
500.26	457.95
500.62	465.06
500.98	472.48
501.34	479.88
501.71	487.38
502.07	495.16
502.43	503.34
502.79	511.74
503.16	520.31
503.52	529.11
503.88	538.36
504.24	547.97
504.60	558.10
504.97	568.23
505.33	578.50
505.69	589.57
506.05	600.59
506.41	611.65
506.78	623.29
507.14	635.25
507.50	647.54
507.86	660.17
508.22	672.91
508.59	685.44
508.95	698.84
509.31	712.99
509.67	727.04
510.03	740.92
510.39	755.44
510.75	770.48
511.12	785.59
511.48	800.93
511.84	816.46
512.20	831.99
512.56	848.15
512.92	864.50
513.28	881.00
513.64	898.01
514.00	915.41
514.37	932.85
514.73	950.78
515.09	968.78
515.45	987.09
515.81	1005.29
516.17	1024.24
516.53	1042.61
516.89	1061.06
517.25	1080.36
517.61	1100.59
517.97	1120.81
518.33	1140.45
518.69	1160.49
519.05	1180.81
519.41	1201.36
519.77	1222.42
520.13	1242.68
520.49	1263.28
520.85	1285.45
521.21	1306.51
521.57	1327.62
521.93	1348.33
522.29	1369.35
522.65	1389.64
523.01	1410.11
523.37	1430.43
523.73	1451.25
524.09	1471.80
524.45	1491.97
524.81	1512.39
525.17	1532.55
525.53	1552.59
525.89	1573.00
526.25	1593.50
526.61	1613.42
526.97	1634.02
527.33	1654.59
527.68	1676.16
528.04	1697.44
528.40	1716.70
528.76	1737.12
529.12	1757.18
529.48	1777.69
529.84	1797.15
530.20	1817.85
530.56	1838.15
530.91	1858.80
531.27	1878.61
531.63	1898.50
531.99	1918.64
532.35	1938.33
532.71	1958.28
533.07	1978.52
533.42	1997.98
533.78	2017.58
534.14	2037.38
534.50	2055.85
534.86	2074.62
535.21	2091.75
535.57	2109.12
535.93	2126.38
536.29	2143.86
536.65	2161.56
537.00	2178.61
537.36	2196.01
537.72	2212.17
538.08	2228.86
538.44	2245.21
538.79	2261.14
539.15	2277.45
539.51	2293.44
539.87	2308.08
540.22	2321.56
540.58	2335.78
540.94	2348.84
541.29	2360.93
541.65	2372.99
542.01	2385.12
542.37	2395.43
542.72	2406.20
543.08	2416.55
543.44	2427.74
543.79	2437.47
544.15	2446.86
544.51	2456.72
544.87	2465.90
545.22	2474.38
545.58	2481.98
545.94	2488.75
546.29	2494.80
546.65	2500.49
547.01	2505.68
547.36	2510.96
547.72	2516.20
548.07	2519.40
548.43	2523.76
548.79	2528.25
549.14	2531.93
549.50	2535.69
549.86	2539.43
550.21	2542.89
550.57	2546.26
550.92	2547.33
551.28	2548.24
551.64	2550.31
551.99	2551.61
552.35	2552.69
552.70	2554.64
553.06	2556.30
553.41	2557.35
553.77	2559.04
554.13	2560.30
554.48	2561.34
554.84	2562.42
555.19	2563.63
555.55	2565.01
555.90	2564.57
556.26	2563.45
556.61	2561.74
556.97	2559.06
557.32	2558.33
557.68	2557.31
558.03	2555.61
558.39	2554.36
558.74	2553.19
559.10	2549.48
559.45	2545.49
559.81	2541.00
560.16	2535.33
560.52	2529.81
560.87	2525.41
561.23	2519.75
561.58	2514.05
561.94	2507.17
562.29	2499.75
562.64	2492.42
563.00	2484.30
563.35	2477.56
563.71	2470.96
564.06	2464.52
564.42	2458.45
564.77	2451.34
565.12	2443.72
565.48	2436.05
565.83	2427.96
566.19	2419.61
566.54	2411.67
566.89	2403.90
567.25	2396.37
567.60	2389.48
567.96	2381.90
568.31	2373.75
568.66	2365.31
569.02	2356.31
569.37	2348.24
569.72	2340.89
570.08	2331.51
570.43	2322.06
570.78	2313.16
571.14	2303.75
571.49	2293.85
571.84	2283.99
572.20	2273.36
572.55	2262.91
572.90	2252.01
573.26	2241.74
573.61	2231.13
573.96	2220.50
574.31	2208.51
574.67	2196.90
575.02	2184.26
575.37	2171.93
575.72	2159.06
576.08	2147.26
576.43	2135.01
576.78	2122.02
577.13	2108.50
577.49	2096.13
577.84	2084.39
578.19	2072.25
578.54	2059.85
578.90	2047.78
579.25	2035.68
579.60	2023.05
579.95	2010.59
580.30	1997.78
580.66	1984.70
581.01	1971.58
581.36	1957.97
581.71	1945.89
582.06	1933.33
582.42	1921.12
582.77	1908.79
583.12	1896.76
583.47	1884.69
583.82	1873.10
584.17	1861.51
584.53	1850.20
584.88	1837.46
585.23	1824.55
585.58	1810.91
585.93	1797.77
586.28	1785.14
586.63	1771.44
586.98	1757.70
587.34	1744.61
587.69	1731.75
588.04	1719.26
588.39	1707.39
588.74	1695.43
589.09	1683.32
589.44	1670.79
589.79	1658.66
590.14	1646.83
590.49	1635.30
590.84	1623.42
591.19	1611.61
591.54	1599.46
591.89	1587.22
592.25	1577.50
592.60	1566.60
592.95	1555.38
593.30	1543.80
593.65	1531.87
594.00	1520.30
594.35	1510.91
594.70	1499.31
595.05	1488.12
595.40	1476.42
595.75	1464.65
596.10	1453.69
596.45	1442.45
596.80	1431.72
597.15	1420.82
597.50	1409.28
597.85	1398.00
598.19	1386.62
598.54	1374.98
598.89	1364.06
599.24	1353.84
599.59	1342.37
599.94	1331.67
600.29	1321.63
600.64	1311.65
600.99	1301.33
601.34	1291.95
601.69	1280.88
602.04	1271.32
602.39	1261.80
602.74	1252.81
603.08	1243.88
603.43	1234.68
603.78	1225.32
604.13	1216.14
604.48	1206.70
604.83	1197.46
605.18	1187.86
605.53	1178.68
605.87	1169.77
606.22	1161.55
606.57	1152.25
606.92	1142.95
607.27	1134.25
607.62	1125.81
607.96	1117.47
608.31	1109.66
608.66	1101.46
609.01	1093.06
609.36	1084.88
609.70	1076.45
610.05	1068.25
610.40	1059.86
610.75	1051.41
611.10	1043.40
611.44	1034.87
611.79	1026.84
612.14	1018.93
612.49	1011.18
612.83	1003.77
613.18	996.37
613.53	988.87
613.88	981.24
614.22	973.89
614.57	966.05
614.92	958.36
615.27	951.02
615.61	943.49
615.96	936.02
616.31	928.78
616.65	921.94
617.00	914.84
617.35	907.74
617.70	900.88
618.04	894.02
618.39	887.06
618.74	880.76
619.08	873.97
619.43	867.20
619.78	860.41
620.12	853.48
620.47	846.63
620.82	839.50
621.16	833.02
621.51	826.73
621.85	820.59
622.20	814.32
622.55	808.11
622.89	801.86
623.24	795.70
623.59	789.52
623.93	783.12
624.28	777.20
624.62	771.76
624.97	766.02
625.32	760.36
625.66	754.71
626.01	748.80
626.35	743.49
626.70	738.21
627.04	733.00
627.39	727.62
627.73	722.52
628.08	717.39
628.43	711.92
628.77	706.68
629.12	701.59
629.46	696.86
629.81	692.14
630.15	687.50
630.50	682.73
630.84	678.04
631.19	673.47
631.53	669.08
631.88	663.68
632.22	658.87
632.57	654.48
632.91	649.96
633.26	645.74
633.60	641.05
633.95	636.37
634.29	631.85
634.64	627.55
634.98	622.84
635.32	618.70
635.67	614.84
636.01	610.75
636.36	606.57
636.70	602.55
637.05	598.36
637.39	594.24
637.73	590.36
638.08	586.52
638.42	582.49
638.77	578.26
639.11	574.21
639.45	570.05
639.80	565.85
640.14	561.92
640.49	558.01
640.83	554.41
641.17	550.91
641.52	547.34
641.86	543.80
642.20	540.81
642.55	537.26
642.89	533.81
643.23	530.42
643.58	527.36
643.92	523.60
644.26	520.26
644.61	517.18
644.95	513.79
645.29	510.48
645.64	507.25
645.98	504.23
646.32	501.38
646.66	498.35
647.01	495.55
647.35	492.87
647.69	489.95
648.04	487.19
648.38	484.56
648.72	481.80
649.06	478.81
649.41	475.76
649.75	472.83
650.09	469.90
650.43	467.07
650.78	464.14
651.12	461.46
651.46	458.70
651.80	455.99
652.14	453.34
652.49	450.86
652.83	448.39
653.17	445.87
653.51	443.25
653.85	440.99
654.20	438.49
654.54	435.92
654.88	433.47
655.22	431.30
655.56	428.71
655.90	426.40
656.25	424.17
656.59	421.96
656.93	419.94
657.27	418.06
657.61	415.71
657.95	413.54
658.29	411.50
658.64	409.53
658.98	407.32
659.32	405.34
659.66	403.20
660.00	401.20
660.34	399.26
660.68	397.38
661.02	395.48
661.36	393.59
661.70	391.59
662.05	389.66
662.39	387.77
662.73	386.12
663.07	384.56
663.41	382.89
663.75	381.05
664.09	379.20
664.43	377.10
664.77	375.49
665.11	373.82
665.45	372.19
665.79	370.68
666.13	369.02
666.47	367.25
666.81	365.67
667.15	364.02
667.49	362.50
667.83	361.21
668.17	359.65
668.51	358.22
668.85	356.97
669.19	355.96
669.53	354.38
669.87	352.88
670.21	351.30
670.55	349.90
670.89	348.84
671.23	347.49
671.57	346.29
671.91	345.07
672.25	343.74
672.58	342.53
672.92	340.96
673.26	339.82
673.60	338.70
673.94	337.45
674.28	336.35
674.62	335.18
674.96	333.80
675.30	332.65
675.64	331.50
675.97	330.29
676.31	328.86
676.65	327.77
676.99	326.94
677.33	325.76
677.67	324.73
678.01	323.31
678.34	322.23
678.68	321.33
679.02	320.26
679.36	319.32
679.70	318.32
680.04	317.54
680.37	316.55
680.71	315.52
681.05	314.64
681.39	313.78
681.73	312.82
682.06	311.99
682.40	311.11
682.74	310.21
683.08	309.43
683.42	308.55
683.75	307.69
684.09	306.63
684.43	305.90
684.77	305.07
685.10	304.33
685.44	303.58
685.78	302.77
686.12	301.96
686.45	301.12
686.79	300.28
687.13	299.57
687.46	298.75
687.80	298.15
688.14	297.33
688.48	296.51
688.81	295.71
689.15	295.10
689.49	294.36
689.82	293.63
690.16	292.80
690.50	292.16
690.83	291.41
691.17	290.72
691.51	289.99
691.84	289.30
692.18	288.61
692.52	287.90
692.85	287.20
693.19	286.75
693.52	286.11
693.86	285.48
694.20	284.82
694.53	284.25
694.87	283.49
695.21	282.86
695.54	282.29
695.88	281.70
696.21	280.92
696.55	280.38
696.88	279.85
697.22	279.24
697.56	278.72
697.89	278.16
698.23	277.65
698.56	277.06
698.90	276.66
699.23	276.19
699.57	275.75
699.90	275.24
700.24	274.61
700.58	274.18
700.91	273.75
701.25	273.67
701.58	273.59
701.92	273.29
702.25	272.95
702.59	272.48
702.92	272.08
703.26	271.72
703.59	271.29
703.93	271.24
704.26	270.93
704.60	270.48
704.93	270.08
705.26	269.59
705.60	269.32
705.93	268.76
706.27	268.45
706.60	268.09
706.94	267.90
707.27	267.53
707.61	267.19
707.94	266.82
708.27	266.00
708.61	265.28
708.94	264.85
709.28	264.54
709.61	264.12
709.94	263.80
710.28	263.40
710.61	263.05
710.95	262.24
711.28	262.12
711.61	261.76
711.95	261.52
712.28	261.16
712.61	260.83
712.95	260.75
713.28	260.64
713.61	260.28
713.95	259.82
714.28	259.51
714.61	259.17
714.95	258.81
715.28	258.46
715.61	258.10
715.95	257.83
716.28	257.38
716.61	257.24
716.95	256.93
717.28	256.66
717.61	256.45
717.94	256.17
718.28	255.64
718.61	255.43
718.94	255.13
719.27	254.85
719.61	254.59
719.94	254.17
720.27	253.60
720.60	253.37
720.94	253.10
721.27	252.92
721.60	252.77
721.93	252.60
722.27	252.56
722.60	252.40
722.93	252.11
723.26	251.97
723.59	251.58
723.93	251.38
724.26	251.22
724.59	250.88
724.92	250.72
725.25	250.62
725.59	250.34
725.92	250.14
726.25	249.94
726.58	249.70
726.91	249.46
727.24	249.34
727.57	249.15
727.91	248.88
728.24	248.68
728.57	248.38
728.90	248.17
729.23	247.82
729.56	247.89
729.89	247.64
730.22	247.41
730.55	247.25
730.89	247.05
731.22	246.79
731.55	246.70
731.88	246.46
732.21	246.15
732.54	245.92
732.87	245.78
733.20	245.70
733.53	245.58
733.86	245.46
734.19	245.25
734.52	245.11
734.85	245.30
735.18	245.10
735.51	245.19
735.84	245.04
736.17	244.98
736.50	244.52
736.83	245.00
737.16	244.88
737.49	244.80
737.82	244.61
738.15	244.50
738.48	244.22
738.81	244.12
739.14	243.92
739.47	243.72
739.80	243.55
740.13	243.39
740.46	243.12
740.79	242.92
741.12	242.79
741.45	242.58
741.78	242.19
742.11	242.12
742.44	241.80
742.77	241.75
743.10	241.52
743.43	241.40
743.75	240.68
744.08	241.18
744.41	240.99
744.74	240.85
745.07	240.60
745.40	240.68
745.73	240.71
746.06	240.67
746.39	240.64
746.71	240.45
747.04	240.25
747.37	240.22
747.70	240.17
748.03	240.15
748.36	240.11
748.68	239.96
749.01	239.72
749.34	239.58
749.67	239.45
750.00	239.45
750.33	239.72
750.65	239.73
750.98	238.95
751.31	238.91
751.64	238.85
751.97	239.04
752.29	238.84
752.62	238.55
752.95	238.36
753.28	238.20
753.60	238.17
753.93	238.15
754.26	237.99
754.59	237.75
754.91	237.53
755.24	237.47
755.57	237.40
755.90	237.30
756.22	237.13
756.55	236.94
756.88	236.72
757.20	236.28
757.53	236.00
757.86	235.90
758.19	235.82
758.51	235.65
758.84	235.30
759.17	235.10
759.49	235.10
759.82	235.28
760.15	235.15
760.47	235.02
760.80	234.89
761.13	234.93
761.45	234.86
761.78	234.76
762.11	234.57
762.43	234.37
762.76	234.30
763.08	234.26
763.41	234.18
763.74	234.10
764.06	233.95
764.39	233.95
764.71	233.89
765.04	233.69
765.37	233.62
765.69	233.47
766.02	233.43
766.34	233.26
766.67	233.00
767.00	233.07
767.32	233.27
767.65	233.40
767.97	233.30
768.30	233.28
768.62	233.24
768.95	233.15
769.27	233.15
769.60	233.12
769.92	233.02
770.25	232.94
770.57	232.82
770.90	232.80
771.22	232.76
771.55	232.68
771.87	232.66
772.20	232.61
772.52	233.02
772.85	233.53
773.17	233.46
773.50	233.45
773.82	233.31
774.15	233.00
774.47	232.67
774.80	232.51
775.12	232.43
775.45	232.39
775.77	232.38
776.09	232.29
776.42	232.32
776.74	232.43
777.07	232.34
777.39	232.32
777.72	232.25
778.04	232.21
778.36	232.14
778.69	232.18
779.01	232.16
779.33	231.80
779.66	231.24
779.98	231.19
780.31	231.09
780.63	231.25
780.95	231.35
781.28	231.35
781.60	231.34
781.92	231.31
782.25	231.29
782.57	231.19
782.89	231.18
783.22	231.03
783.54	230.86
783.86	230.89
784.19	230.88
784.51	230.93
784.83	230.78
785.16	230.73
785.48	230.67
785.80	230.65
786.12	230.55
786.45	230.51
786.77	230.46
787.09	230.37
787.42	230.19
787.74	230.09
788.06	230.05
788.38	229.95
788.71	229.84
789.03	229.83
789.35	229.94
789.67	229.76
789.99	229.79
790.32	229.74
790.64	229.75
790.96	230.10
791.28	229.91
791.61	229.94
791.93	229.97
792.25	229.82
792.57	230.13
792.89	230.06
793.21	230.10
793.54	230.03
793.86	230.02
794.18	229.92
794.50	229.81
794.82	229.85
795.14	229.89
795.47	229.98
795.79	229.89
796.11	229.66
796.43	229.74
796.75	229.75
797.07	229.74
797.39	229.65
797.71	229.26
798.04	229.33
798.36	229.25
798.68	229.20
799.00	229.26
799.32	228.95
799.64	228.96
799.96	228.86
800.28	228.89
800.60	228.83
800.92	228.91
801.24	228.86
801.56	228.78
801.89	228.73
802.21	228.74
802.53	228.67
802.85	228.78
803.17	228.91
803.49	228.71
803.81	228.64
804.13	228.60
804.45	228.55
804.77	228.49
805.09	228.47
805.41	228.45
805.73	228.34
806.05	228.20
806.37	228.17
806.69	228.06
807.01	228.04
807.33	228.06
807.65	227.88
807.97	228.09
808.28	228.03
808.60	228.02
808.92	227.88
809.24	228.17
809.56	228.06
809.88	227.91
810.20	227.97
810.52	228.05
810.84	227.99
811.16	227.90
811.48	227.91
811.80	228.08
812.12	228.02
812.43	228.11
812.75	228.15
813.07	228.09
813.39	228.13
813.71	228.09
814.03	228.03
814.35	227.94
814.67	227.72
814.98	227.74
815.30	227.74
815.62	227.71
815.94	227.40
816.26	227.66
816.58	227.56
816.89	227.58
817.21	227.47
817.53	227.47
817.85	227.51
818.17	227.43
818.48	227.32
818.80	227.38
819.12	227.27
819.44	227.16
819.76	227.15
820.07	227.22
820.39	227.20
820.71	227.23
821.03	227.35
821.34	227.30
821.66	227.43
821.98	227.44
822.30	227.43
822.61	227.73
822.93	227.47
823.25	227.37
823.57	227.36
823.88	227.41
824.20	227.49
824.52	227.54
824.83	227.60
825.15	227.54
825.47	227.58
825.79	227.66
826.10	227.67
826.42	227.67
826.74	227.62
827.05	227.69
827.37	227.69
827.69	227.65
828.00	227.66
828.32	227.57
828.64	227.50
828.95	227.74
829.27	227.55
829.58	227.54
829.90	227.66
830.22	227.65
830.53	227.52
830.85	227.38
831.17	227.21
831.48	227.15
831.80	227.18
832.11	227.10
832.43	227.01
832.75	227.01
833.06	227.25
833.38	227.11
833.69	227.08
834.01	227.15
834.32	227.14
834.64	227.12
834.96	227.07
835.27	227.08
835.59	226.96
835.90	226.86
836.22	226.86
836.53	226.83
836.85	226.80
837.16	227.32
837.48	227.32
837.79	227.52
838.11	227.54
838.42	227.51
838.74	227.65
839.05	227.64
839.37	227.61
839.68	227.27
840.00	227.34
840.31	227.32
840.63	227.29
840.94	227.31
841.26	227.26
841.57	227.24
841.88	227.26
842.20	227.19
842.51	227.11
842.83	227.11
843.14	227.52
843.46	227.49
843.77	227.17
844.08	227.16
844.40	227.00
844.71	226.98
845.03	226.90
845.34	226.78
845.65	226.73
845.97	226.74
846.28	226.83
846.60	226.85
846.91	226.79
847.22	226.77
847.54	226.84
847.85	226.89
848.16	226.89
848.48	226.86
848.79	227.04
849.10	227.12
849.42	227.17
849.73	226.70
850.04	226.80
850.36	226.64
850.67	226.72
850.98	226.75
851.30	226.88
851.61	226.96
851.92	226.90
852.23	227.13
852.55	227.18
852.86	227.19
853.17	227.20
853.49	227.34
853.80	227.41
854.11	227.38
854.42	227.46
854.74	227.43
855.05	227.43
855.36	227.18
855.67	227.18
855.99	227.09
856.30	227.66
856.61	227.56
856.92	227.55
857.23	227.57
857.55	227.51
857.86	227.40
858.17	227.41
858.48	227.44
858.79	227.37
859.11	227.45
859.42	227.46
859.73	227.40
860.04	227.40
860.35	227.30
860.66	227.23
860.98	227.20
861.29	227.30
861.60	227.21
861.91	227.29
862.22	227.25
862.53	227.24
862.84	226.69
863.16	226.81
863.47	226.82
863.78	226.84
864.09	226.89
864.40	226.89
864.71	226.90
865.02	226.94
865.33	226.74
865.64	226.60
865.95	226.61
866.27	226.96
866.58	226.90
866.89	226.91
867.20	226.88
867.51	226.78
867.82	226.72
868.13	226.94
868.44	226.83
868.75	226.87
869.06	226.90
869.37	226.97
869.68	226.82
869.99	226.95
870.30	226.96
870.61	227.08
870.92	227.07
871.23	227.03
871.54	227.08
871.85	227.30
872.16	227.40
872.47	227.34
872.78	227.05
873.09	227.07
873.40	227.08
873.71	227.07
874.02	227.18
874.33	227.07
874.64	226.97
874.95	227.08
875.26	227.08
875.56	227.00
875.87	226.96
876.18	226.96
876.49	227.32
876.80	227.27
877.11	227.12
877.42	227.07
877.73	227.07
878.04	227.04
878.35	227.01
878.66	226.98
878.96	226.93
879.27	226.90
879.58	226.86
879.89	226.76
880.20	226.89
880.51	226.86
880.82	226.88
881.12	226.87
881.43	226.74
881.74	226.63
882.05	226.69
882.36	226.65
882.67	226.61
882.97	226.12
883.28	226.02
883.59	226.05
883.90	226.11
884.21	226.22
884.51	226.12
884.82	225.99
885.13	226.03
885.44	225.99
885.74	226.00
886.05	225.97
886.36	226.00
886.67	225.87
886.98	226.05
887.28	226.10
887.59	226.11
887.90	226.19
888.20	226.22
888.51	226.29
888.82	226.20
889.13	226.38
889.43	226.75
889.74	226.74
890.05	226.66
890.35	226.63
890.66	226.47
890.97	226.42
891.28	226.42
891.58	226.37
891.89	226.36
892.20	226.31
892.50	226.21
892.81	226.18
893.12	226.13
893.42	225.85
893.73	225.82
894.04	225.75
894.34	225.80
894.65	225.74
894.95	225.70
895.26	225.78
895.57	225.89
895.87	225.44
896.18	225.52
896.48	225.59
896.79	225.57
897.10	225.66
897.40	225.72
897.71	225.73
898.01	225.64
898.32	225.71
898.63	225.70
898.93	225.75
899.24	225.74
899.54	225.77
899.85	225.80
900.15	225.80
900.46	225.85
900.76	225.85
901.07	225.84
901.38	225.77
901.68	225.88
901.99	225.67
902.29	225.71
902.60	225.60
902.90	225.55
903.21	225.48
903.51	225.42
903.82	225.49
904.12	225.54
904.43	225.67
904.73	225.61
905.03	225.61
905.34	226.08
905.64	226.09
905.95	226.11
906.25	226.08
906.56	226.10
906.86	226.09
907.17	226.05
907.47	226.09
907.77	226.10
908.08	226.00
908.38	226.03
908.69	226.03
908.99	226.26
909.30	226.30
909.60	226.32
909.90	226.42
910.21	226.27
910.51	226.23
910.81	226.19
911.12	226.30
911.42	226.30
911.73	225.87
912.03	225.93
912.33	225.93
912.64	225.94
912.94	225.92
913.24	225.83
913.55	225.75
913.85	225.72
914.15	225.75
914.46	225.79
914.76	225.72
915.06	225.75
915.37	225.63
915.67	225.55
915.97	225.55
916.27	225.42
916.58	225.45
916.88	225.45
917.18	225.42
917.49	225.69
917.79	225.68
918.09	225.66
918.39	225.74
918.70	225.75
919.00	225.76
919.30	225.92
919.60	225.89
919.91	225.90
920.21	226.00
920.51	225.99
920.81	225.96
921.12	226.01
921.42	226.00
921.72	226.07
922.02	226.13
922.32	226.26
922.63	226.27
922.93	226.57
923.23	226.54
923.53	226.49
923.83	226.18
924.13	226.26
924.44	226.28
924.74	226.40
925.04	226.53
925.34	226.55
925.64	226.39
925.94	226.38
926.24	226.57
926.55	226.47
926.85	226.56
927.15	226.56
927.45	226.66
927.75	226.63
928.05	226.61
928.35	226.55
928.65	226.59
928.95	226.66
929.26	226.44
929.56	226.55
929.86	226.64
930.16	226.63
930.46	226.54
930.76	226.52
931.06	226.25
931.36	226.07
931.66	226.19
931.96	226.29
932.26	226.37
932.56	226.24
932.86	226.30
933.16	226.25
933.46	226.23
933.76	226.09
934.06	226.20
934.36	226.32
934.66	226.34
934.96	226.30
935.26	226.33
935.56	226.40
935.86	226.31
936.16	226.28
936.46	226.20
936.76	226.18
937.06	226.13
937.36	226.15
937.66	226.27
937.96	226.18
938.26	226.00
938.56	225.96
938.86	226.01
939.16	226.14
939.46	226.19
939.76	226.19
940.06	226.13
940.35	226.10
940.65	225.93
940.95	225.94
941.25	225.77
941.55	225.68
941.85	225.58
942.15	225.67
942.45	225.76
942.75	225.79
943.04	225.83
943.34	225.95
943.64	225.96
943.94	225.85
944.24	225.81
944.54	225.90
944.84	225.89
945.13	225.78
945.43	225.70
945.73	225.64
946.03	225.67
946.33	225.68
946.62	225.67
946.92	225.63
947.22	225.71
947.52	225.75
947.82	225.85
948.11	225.84
948.41	225.71
948.71	225.57
949.01	225.62
949.31	225.54
949.60	225.49
949.90	225.59
950.20	225.60
950.50	225.59
950.79	225.58
951.09	225.63
951.39	225.61
951.69	225.60
951.98	225.64
952.28	225.59
952.58	225.58
952.87	225.48
953.17	225.58
953.47	225.59
953.76	225.62
954.06	225.47
954.36	225.47
954.66	225.48
954.95	225.63
955.25	225.60
955.55	225.76
955.84	225.71
956.14	225.70
956.44	225.75
956.73	225.73
957.03	225.73
957.32	225.69
957.62	225.68
957.92	225.68
958.21	225.74
958.51	226.29
958.81	226.36
959.10	226.53
959.40	226.59
959.69	226.51
959.99	226.61
960.29	226.70
960.58	226.67
960.88	226.90
961.17	226.86
961.47	226.94
961.76	226.89
962.06	226.98
962.36	226.87
962.65	226.91
962.95	226.94
963.24	226.86
963.54	226.97
963.83	227.02
964.13	227.00
964.42	226.84
964.72	226.55
965.01	226.53
965.31	226.36
965.60	226.26
965.90	226.61
966.19	226.50
966.49	226.49
966.78	226.43
967.08	226.33
967.37	226.34
967.67	226.23
967.96	226.28
968.26	226.26
968.55	226.42
968.85	226.33
969.14	226.28
969.43	226.32
969.73	226.21
970.02	226.26
970.32	226.25
970.61	226.27
970.91	226.10
971.20	226.08
971.49	226.09
971.79	226.18
972.08	225.83
972.38	225.83
972.67	225.82
972.96	225.90
973.26	225.83
973.55	225.91
973.85	225.94
974.14	225.85
974.43	225.94
974.73	225.82
975.02	225.77
975.31	225.76
975.61	225.78
975.90	225.72
976.19	225.60
976.49	225.64
976.78	225.57
977.07	225.50
977.37	225.54
977.66	225.59
977.95	225.49
978.24	225.43
978.54	225.56
978.83	225.41
979.12	225.41
979.42	225.39
979.71	225.30
980.00	225.28
980.29	225.28
980.59	225.09
980.88	225.24
981.17	225.23
981.46	225.18
981.76	225.09
982.05	225.24
982.34	225.25
982.63	225.22
982.93	225.24
983.22	225.30
983.51	225.31
983.80	225.38
984.09	225.42
984.39	225.41
984.68	225.31
984.97	225.44
985.26	225.40
985.55	225.43
985.85	225.32
986.14	225.37
986.43	225.42
986.72	225.43
987.01	225.27
987.30	225.30
987.59	225.33
987.89	225.38
988.18	225.30
988.47	225.23
988.76	225.15
989.05	225.25
989.34	225.15
989.63	225.20
989.92	225.04
990.22	224.99
990.51	225.04
990.80	225.05
991.09	225.05
991.38	225.08
991.67	225.04
991.96	225.03
992.25	225.07
992.54	225.01
992.83	225.08
993.12	225.06
993.41	225.14
993.70	225.35
993.99	225.47
994.28	225.52
994.58	225.75
994.87	225.73
995.16	225.68
995.45	225.72
995.74	225.58
996.03	225.69
996.32	225.75
996.61	225.84
996.90	225.78
997.19	225.79
997.48	225.84
997.77	225.81
998.06	225.94
998.34	225.89
998.63	225.91
998.92	225.85
999.21	225.95
999.50	226.03
999.79	225.91
1000.08	225.88
1000.37	225.89
1000.66	225.71
1000.95	225.93
1001.24	226.00
1001.53	226.14
1001.82	226.21
1002.11	226.11
1002.40	226.16
1002.68	226.35
1002.97	226.70
1003.26	226.63
1003.55	226.60
1003.84	226.60
1004.13	226.68
1004.42	226.64
1004.71	226.65
1004.99	226.63
1005.28	226.75
1005.57	226.67
1005.86	226.60
1006.15	226.56
1006.44	226.52
1006.72	226.67
1007.01	226.49
1007.30	226.44
1007.59	226.32
1007.88	226.25
1008.17	226.27
1008.45	226.10
1008.74	225.81
1009.03	225.60
1009.32	225.60
1009.60	225.48
1009.89	225.44
1010.18	225.23
1010.47	225.23
1010.76	225.26
1011.04	225.25
1011.33	225.18
1011.62	225.18
1011.91	225.23
1012.19	225.24
1012.48	225.24
1012.77	225.18
1013.05	225.46
1013.34	225.40
1013.63	225.37
1013.92	225.42
1014.20	225.32
1014.49	225.36
1014.78	225.43
1015.06	225.31
1015.35	225.29
1015.64	225.41
1015.92	225.49
1016.21	225.52
1016.50	225.51
1016.78	225.49
1017.07	225.49
1017.36	225.47
1017.64	225.40
1017.93	225.46
1018.22	225.45
1018.50	225.41
1018.79	225.34
1019.08	225.09
1019.36	225.13
1019.65	225.13
1019.93	225.28
1020.22	225.42
1020.51	225.73
1020.79	225.58
1021.08	225.10
1021.36	224.80
1021.65	224.30
1021.94	225.20
1022.22	225.35
1022.51	225.05
1022.79	228.25
1023.08	225.55
1023.36	231.30
1023.65	223.10
>>>>>End Processed Spectral Data<<<<<
