SpectraSuite Data File
++++++++++++++++++++++++++++++++++++
Date: Wed Sep 04 17:54:33 EDT 2013
User: lab3
Dark Spectrum Present: Yes
Reference Spectrum Present: No
Number of Sampled Component Spectra: 1
Spectrometers: USB2E7196
Integration Time (usec): 170000 (USB2E7196)
Spectra Averaged: 20 (USB2E7196)
Boxcar Smoothing: 10 (USB2E7196)
Correct for Electrical Dark: No (USB2E7196)
Strobe/Lamp Enabled: No (USB2E7196)
Correct for Detector Non-linearity: No (USB2E7196)
Correct for Stray Light: No (USB2E7196)
Number of Pixels in Processed Spectrum: 2048
>>>>>Begin Processed Spectral Data<<<<<
339.09	0.00
339.48	211.30
339.86	213.80
340.24	215.50
340.63	216.50
341.01	225.60
341.39	220.30
341.78	222.95
342.16	224.45
342.54	223.55
342.93	212.04
343.31	222.74
343.69	223.41
344.07	223.94
344.46	224.43
344.84	224.89
345.22	224.87
345.60	225.16
345.99	225.31
346.37	225.44
346.75	225.47
347.13	225.59
347.52	225.67
347.90	225.87
348.28	225.91
348.66	226.08
349.05	225.96
349.43	226.12
349.81	226.18
350.19	226.21
350.57	226.27
350.96	226.34
351.34	226.43
351.72	226.51
352.10	226.55
352.48	226.64
352.87	226.68
353.25	226.75
353.63	226.79
354.01	226.82
354.39	226.83
354.77	226.97
355.15	227.12
355.54	227.16
355.92	227.07
356.30	227.18
356.68	227.49
357.06	227.53
357.44	227.40
357.82	227.48
358.20	227.92
358.58	228.04
358.97	228.06
359.35	228.27
359.73	228.35
360.11	228.48
360.49	228.51
360.87	228.48
361.25	228.56
361.63	228.77
362.01	228.88
362.39	228.93
362.77	228.97
363.15	228.98
363.53	228.99
363.91	229.09
364.29	229.14
364.67	228.76
365.05	228.81
365.43	228.98
365.81	229.05
366.19	228.90
366.57	229.14
366.95	229.20
367.33	229.09
367.71	229.14
368.09	229.22
368.47	229.22
368.85	229.31
369.23	229.41
369.61	229.15
369.99	229.21
370.37	229.26
370.75	229.58
371.13	229.47
371.51	229.43
371.89	229.52
372.27	229.52
372.65	229.53
373.03	229.53
373.41	229.46
373.78	229.44
374.16	229.28
374.54	229.06
374.92	228.98
375.30	228.92
375.68	228.82
376.06	228.77
376.44	228.70
376.82	228.66
377.19	228.65
377.57	228.71
377.95	228.60
378.33	228.47
378.71	228.07
379.09	228.11
379.47	228.10
379.84	227.96
380.22	227.85
380.60	227.66
380.98	227.58
381.36	227.52
381.73	227.38
382.11	227.32
382.49	227.29
382.87	227.17
383.25	227.12
383.62	227.62
384.00	227.47
384.38	227.45
384.76	227.46
385.13	227.54
385.51	227.46
385.89	227.35
386.27	227.35
386.64	227.42
387.02	227.34
387.40	227.24
387.78	227.20
388.15	227.17
388.53	227.19
388.91	227.18
389.29	227.16
389.66	227.21
390.04	227.14
390.42	227.23
390.79	227.27
391.17	227.23
391.55	226.64
391.92	226.60
392.30	226.58
392.68	226.55
393.05	226.47
393.43	226.50
393.81	226.56
394.18	226.54
394.56	226.44
394.94	226.55
395.31	226.62
395.69	226.83
396.06	227.00
396.44	227.07
396.82	227.05
397.19	227.36
397.57	227.33
397.95	227.45
398.32	227.33
398.70	227.43
399.07	227.64
399.45	227.74
399.82	227.86
400.20	227.85
400.58	227.84
400.95	227.74
401.33	227.92
401.70	228.35
402.08	228.45
402.45	228.66
402.83	228.94
403.20	229.05
403.58	229.07
403.95	229.18
404.33	229.39
404.71	229.68
405.08	230.08
405.46	230.37
405.83	230.64
406.21	230.91
406.58	231.26
406.96	231.48
407.33	231.73
407.70	232.13
408.08	232.93
408.45	233.48
408.83	234.06
409.20	234.35
409.58	234.47
409.95	235.01
410.33	235.42
410.70	235.67
411.08	236.28
411.45	236.96
411.82	237.61
412.20	238.38
412.57	239.34
412.95	239.69
413.32	240.51
413.69	241.37
414.07	242.25
414.44	243.22
414.82	244.22
415.19	245.51
415.56	246.67
415.94	247.65
416.31	248.93
416.68	250.26
417.06	251.95
417.43	253.57
417.81	255.36
418.18	257.28
418.55	259.26
418.93	261.28
419.30	263.21
419.67	265.36
420.04	267.60
420.42	269.85
420.79	272.91
421.16	275.66
421.54	278.68
421.91	281.61
422.28	284.70
422.66	287.99
423.03	291.40
423.40	294.70
423.77	298.32
424.15	302.06
424.52	305.87
424.89	310.05
425.26	313.96
425.64	317.73
426.01	321.92
426.38	326.23
426.75	330.79
427.13	335.47
427.50	340.13
427.87	345.03
428.24	349.92
428.61	354.27
428.99	359.63
429.36	365.09
429.73	370.69
430.10	376.16
430.47	381.91
430.85	387.52
431.22	393.77
431.59	400.54
431.96	406.71
432.33	413.58
432.70	420.25
433.08	428.14
433.45	435.61
433.82	442.95
434.19	451.19
434.56	459.19
434.93	466.81
435.30	474.70
435.68	483.29
436.05	491.66
436.42	500.20
436.79	507.86
437.16	516.19
437.53	524.93
437.90	533.58
438.27	541.95
438.64	550.90
439.01	559.14
439.38	566.37
439.75	573.53
440.13	581.50
440.50	588.90
440.87	595.01
441.24	601.35
441.61	608.40
441.98	613.48
442.35	619.27
442.72	625.29
443.09	631.06
443.46	634.44
443.83	636.92
444.20	638.71
444.57	641.25
444.94	642.33
445.31	643.49
445.68	644.80
446.05	645.13
446.42	643.70
446.79	642.39
447.16	640.58
447.53	639.34
447.90	635.81
448.27	632.22
448.64	627.33
449.01	623.63
449.37	617.34
449.74	611.37
450.11	604.55
450.48	596.73
450.85	588.71
451.22	581.92
451.59	575.20
451.96	568.98
452.33	560.96
452.70	553.66
453.07	545.01
453.43	535.97
453.80	527.54
454.17	519.61
454.54	511.69
454.91	503.58
455.28	495.50
455.65	487.99
456.02	481.24
456.38	474.82
456.75	467.05
457.12	460.52
457.49	454.16
457.86	447.86
458.23	442.83
458.59	437.18
458.96	431.41
459.33	426.29
459.70	421.09
460.07	417.03
460.43	412.39
460.80	408.02
461.17	404.27
461.54	400.30
461.91	396.47
462.27	392.68
462.64	389.41
463.01	385.91
463.38	382.55
463.74	378.45
464.11	375.48
464.48	372.83
464.85	370.12
465.21	368.05
465.58	365.68
465.95	362.82
466.32	360.65
466.68	358.32
467.05	356.08
467.42	353.93
467.78	351.62
468.15	349.36
468.52	347.79
468.88	345.64
469.25	343.71
469.62	342.30
469.98	340.72
470.35	339.35
470.72	337.85
471.08	336.23
471.45	335.00
471.82	333.81
472.18	332.34
472.55	331.35
472.92	329.94
473.28	328.81
473.65	327.76
474.02	326.63
474.38	325.82
474.75	325.15
475.11	324.24
475.48	323.56
475.85	322.92
476.21	322.20
476.58	321.72
476.94	321.25
477.31	320.70
477.67	320.23
478.04	319.80
478.41	319.59
478.77	319.85
479.14	319.46
479.50	319.34
479.87	319.42
480.23	319.39
480.60	319.38
480.96	319.43
481.33	319.82
481.69	319.93
482.06	320.08
482.42	320.30
482.79	320.75
483.15	321.20
483.52	321.88
483.88	322.40
484.25	322.91
484.61	323.61
484.98	324.28
485.34	325.25
485.71	326.14
486.07	327.14
486.44	327.81
486.80	329.00
487.17	330.10
487.53	331.46
487.90	332.86
488.26	334.60
488.62	336.34
488.99	337.76
489.35	339.71
489.72	341.69
490.08	343.70
490.44	345.72
490.81	348.03
491.17	350.22
491.54	352.78
491.90	355.40
492.26	358.05
492.63	360.94
492.99	363.80
493.36	366.89
493.72	370.21
494.08	373.63
494.45	377.35
494.81	381.24
495.17	385.11
495.54	389.32
495.90	393.42
496.26	397.85
496.63	402.55
496.99	407.29
497.35	412.27
497.72	417.51
498.08	422.99
498.44	428.55
498.80	434.54
499.17	440.59
499.53	446.80
499.89	453.49
500.26	460.27
500.62	467.14
500.98	474.60
501.34	482.02
501.71	489.69
502.07	497.37
502.43	505.46
502.79	513.97
503.16	522.50
503.52	531.62
503.88	540.87
504.24	550.52
504.60	560.54
504.97	570.90
505.33	581.34
505.69	592.35
506.05	603.46
506.41	614.78
506.78	626.45
507.14	638.60
507.50	650.79
507.86	663.52
508.22	676.71
508.59	689.69
508.95	703.33
509.31	717.51
509.67	731.94
510.03	746.32
510.39	760.87
510.75	775.95
511.12	791.10
511.48	806.68
511.84	822.60
512.20	838.51
512.56	854.61
512.92	871.39
513.28	888.29
513.64	905.38
514.00	922.71
514.37	940.14
514.73	958.25
515.09	976.71
515.45	995.09
515.81	1013.34
516.17	1032.08
516.53	1050.65
516.89	1069.26
517.25	1088.48
517.61	1108.42
517.97	1128.70
518.33	1148.67
518.69	1168.95
519.05	1189.39
519.41	1210.03
519.77	1231.24
520.13	1252.29
520.49	1272.95
520.85	1295.09
521.21	1316.31
521.57	1337.73
521.93	1358.65
522.29	1379.55
522.65	1399.96
523.01	1420.56
523.37	1441.16
523.73	1462.11
524.09	1482.69
524.45	1503.28
524.81	1524.25
525.17	1544.87
525.53	1565.38
525.89	1586.18
526.25	1606.90
526.61	1627.16
526.97	1647.72
527.33	1668.70
527.68	1690.39
528.04	1711.71
528.40	1731.27
528.76	1752.20
529.12	1772.44
529.48	1793.32
529.84	1813.44
530.20	1834.68
530.56	1855.59
530.91	1876.60
531.27	1896.98
531.63	1917.28
531.99	1937.72
532.35	1957.49
532.71	1977.73
533.07	1998.30
533.42	2018.22
533.78	2037.96
534.14	2057.88
534.50	2076.97
534.86	2095.98
535.21	2113.22
535.57	2131.53
535.93	2149.47
536.29	2167.26
536.65	2185.30
537.00	2202.67
537.36	2220.61
537.72	2236.99
538.08	2254.15
538.44	2270.55
538.79	2286.95
539.15	2303.73
539.51	2319.83
539.87	2335.04
540.22	2349.20
540.58	2363.44
540.94	2376.53
541.29	2389.42
541.65	2401.75
542.01	2414.43
542.37	2424.99
542.72	2436.02
543.08	2446.41
543.44	2457.76
543.79	2467.62
544.15	2477.90
544.51	2488.34
544.87	2497.70
545.22	2506.42
545.58	2513.84
545.94	2521.21
546.29	2527.72
546.65	2533.76
547.01	2539.43
547.36	2545.20
547.72	2550.54
548.07	2554.02
548.43	2559.56
548.79	2563.91
549.14	2568.30
549.50	2571.73
549.86	2576.07
550.21	2579.86
550.57	2583.45
550.92	2584.92
551.28	2586.61
551.64	2588.56
551.99	2590.06
552.35	2591.40
552.70	2593.63
553.06	2595.62
553.41	2596.81
553.77	2598.49
554.13	2600.28
554.48	2601.70
554.84	2602.67
555.19	2603.78
555.55	2605.85
555.90	2604.84
556.26	2604.25
556.61	2602.74
556.97	2600.77
557.32	2599.64
557.68	2598.57
558.03	2596.99
558.39	2595.44
558.74	2594.52
559.10	2591.24
559.45	2587.95
559.81	2583.63
560.16	2578.40
560.52	2573.36
560.87	2568.70
561.23	2563.25
561.58	2557.47
561.94	2550.53
562.29	2543.31
562.64	2536.62
563.00	2528.50
563.35	2522.15
563.71	2515.36
564.06	2509.02
564.42	2502.46
564.77	2495.81
565.12	2488.16
565.48	2480.51
565.83	2472.63
566.19	2464.19
566.54	2456.34
566.89	2447.98
567.25	2440.24
567.60	2433.13
567.96	2425.38
568.31	2417.53
568.66	2408.88
569.02	2399.54
569.37	2391.53
569.72	2384.22
570.08	2374.66
570.43	2365.20
570.78	2355.98
571.14	2346.73
571.49	2336.65
571.84	2327.33
572.20	2316.16
572.55	2306.09
572.90	2295.31
573.26	2285.65
573.61	2274.71
573.96	2263.78
574.31	2252.05
574.67	2240.41
575.02	2227.50
575.37	2215.10
575.72	2201.98
576.08	2190.03
576.43	2177.59
576.78	2164.36
577.13	2150.55
577.49	2137.82
577.84	2125.92
578.19	2113.79
578.54	2100.73
578.90	2088.76
579.25	2076.27
579.60	2063.92
579.95	2050.82
580.30	2037.62
580.66	2023.46
581.01	2010.00
581.36	1995.60
581.71	1982.68
582.06	1969.44
582.42	1957.11
582.77	1944.26
583.12	1932.28
583.47	1919.93
583.82	1907.85
584.17	1896.10
584.53	1884.31
584.88	1871.50
585.23	1858.06
585.58	1843.81
585.93	1831.11
586.28	1817.62
586.63	1803.75
586.98	1789.52
587.34	1776.37
587.69	1763.07
588.04	1750.68
588.39	1738.62
588.74	1726.83
589.09	1714.95
589.44	1702.51
589.79	1690.35
590.14	1678.64
590.49	1666.87
590.84	1654.82
591.19	1643.12
591.54	1630.49
591.89	1618.08
592.25	1607.84
592.60	1596.69
592.95	1585.78
593.30	1573.69
593.65	1561.95
594.00	1549.91
594.35	1540.18
594.70	1528.43
595.05	1517.16
595.40	1505.09
595.75	1493.31
596.10	1482.17
596.45	1470.74
596.80	1459.59
597.15	1448.09
597.50	1436.27
597.85	1424.67
598.19	1412.92
598.54	1401.23
598.89	1390.41
599.24	1380.24
599.59	1368.42
599.94	1357.77
600.29	1347.21
600.64	1337.09
600.99	1326.43
601.34	1316.97
601.69	1305.83
602.04	1296.24
602.39	1286.59
602.74	1277.45
603.08	1267.90
603.43	1258.44
603.78	1248.55
604.13	1239.25
604.48	1229.62
604.83	1220.04
605.18	1210.29
605.53	1201.19
605.87	1192.04
606.22	1183.33
606.57	1173.87
606.92	1164.81
607.27	1155.60
607.62	1146.86
607.96	1138.21
608.31	1130.28
608.66	1121.95
609.01	1113.48
609.36	1104.66
609.70	1096.02
610.05	1087.44
610.40	1079.14
610.75	1070.43
611.10	1062.19
611.44	1053.56
611.79	1045.44
612.14	1037.46
612.49	1029.45
612.83	1021.63
613.18	1013.80
613.53	1005.98
613.88	998.05
614.22	990.35
614.57	982.58
614.92	974.62
615.27	967.15
615.61	959.33
615.96	951.66
616.31	944.13
616.65	937.23
617.00	930.01
617.35	922.67
617.70	915.37
618.04	908.39
618.39	901.40
618.74	894.98
619.08	888.07
619.43	881.19
619.78	874.30
620.12	867.02
620.47	860.25
620.82	853.07
621.16	846.43
621.51	840.06
621.85	833.72
622.20	827.17
622.55	820.55
622.89	814.09
623.24	807.76
623.59	801.45
623.93	795.09
624.28	788.98
624.62	783.38
624.97	777.66
625.32	771.86
625.66	765.95
626.01	759.79
626.35	754.23
626.70	748.57
627.04	743.39
627.39	738.00
627.73	732.51
628.08	727.48
628.43	722.06
628.77	716.50
629.12	711.26
629.46	706.52
629.81	701.82
630.15	697.12
630.50	692.29
630.84	687.48
631.19	682.69
631.53	678.10
631.88	673.07
632.22	668.16
632.57	663.75
632.91	659.09
633.26	654.69
633.60	650.06
633.95	645.62
634.29	640.85
634.64	636.50
634.98	631.97
635.32	627.53
635.67	623.41
636.01	619.32
636.36	614.99
636.70	610.96
637.05	606.68
637.39	602.58
637.73	598.46
638.08	594.45
638.42	590.22
638.77	586.00
639.11	581.58
639.45	577.34
639.80	572.92
640.14	568.97
640.49	564.91
640.83	561.10
641.17	557.37
641.52	553.64
641.86	550.11
642.20	546.84
642.55	543.23
642.89	539.65
643.23	536.15
643.58	533.08
643.92	529.31
644.26	525.91
644.61	522.63
644.95	519.35
645.29	516.03
645.64	513.03
645.98	509.95
646.32	507.16
646.66	504.14
647.01	501.19
647.35	498.53
647.69	495.67
648.04	492.87
648.38	490.06
648.72	487.29
649.06	484.30
649.41	481.28
649.75	478.29
650.09	475.48
650.43	472.68
650.78	469.73
651.12	467.04
651.46	464.39
651.80	461.60
652.14	458.77
652.49	456.16
652.83	453.61
653.17	450.94
653.51	448.19
653.85	445.85
654.20	443.31
654.54	440.61
654.88	438.15
655.22	435.82
655.56	433.40
655.90	431.03
656.25	428.85
656.59	426.70
656.93	424.62
657.27	422.40
657.61	419.98
657.95	417.73
658.29	415.45
658.64	413.17
658.98	411.00
659.32	408.88
659.66	406.81
660.00	404.53
660.34	402.45
660.68	400.43
661.02	398.37
661.36	396.45
661.70	394.48
662.05	392.53
662.39	390.73
662.73	388.72
663.07	387.08
663.41	385.09
663.75	383.03
664.09	381.19
664.43	379.28
664.77	377.62
665.11	375.94
665.45	374.25
665.79	372.70
666.13	370.92
666.47	369.29
666.81	367.56
667.15	365.87
667.49	364.34
667.83	363.02
668.17	361.38
668.51	360.00
668.85	358.68
669.19	357.48
669.53	355.82
669.87	354.47
670.21	352.84
670.55	351.58
670.89	350.55
671.23	349.22
671.57	347.87
671.91	346.57
672.25	345.14
672.58	343.90
672.92	342.43
673.26	341.16
673.60	339.96
673.94	338.78
674.28	337.72
674.62	336.64
674.96	335.27
675.30	334.17
675.64	332.86
675.97	331.60
676.31	330.24
676.65	329.08
676.99	328.08
677.33	326.89
677.67	325.74
678.01	324.35
678.34	323.21
678.68	322.32
679.02	321.18
679.36	320.15
679.70	319.15
680.04	318.20
680.37	317.34
680.71	316.35
681.05	315.46
681.39	314.51
681.73	313.44
682.06	312.57
682.40	311.73
682.74	310.96
683.08	310.21
683.42	309.34
683.75	308.54
684.09	307.57
684.43	306.85
684.77	306.02
685.10	305.34
685.44	304.55
685.78	303.66
686.12	302.91
686.45	302.15
686.79	301.32
687.13	300.67
687.46	299.78
687.80	299.13
688.14	298.31
688.48	297.62
688.81	296.96
689.15	296.36
689.49	295.56
689.82	294.87
690.16	293.97
690.50	293.32
690.83	292.64
691.17	291.92
691.51	291.24
691.84	290.65
692.18	289.91
692.52	289.23
692.85	288.63
693.19	288.20
693.52	287.67
693.86	287.06
694.20	286.38
694.53	285.86
694.87	285.13
695.21	284.51
695.54	283.86
695.88	283.15
696.21	282.35
696.55	281.83
696.88	281.16
697.22	280.58
697.56	280.14
697.89	279.49
698.23	278.96
698.56	278.39
698.90	277.92
699.23	277.37
699.57	276.86
699.90	276.20
700.24	275.56
700.58	274.98
700.91	274.62
701.25	274.55
701.58	274.35
701.92	274.04
702.25	273.58
702.59	273.05
702.92	272.66
703.26	272.32
703.59	271.87
703.93	271.86
704.26	271.49
704.60	271.00
704.93	270.59
705.26	270.05
705.60	269.71
705.93	269.16
706.27	268.87
706.60	268.62
706.94	268.54
707.27	268.03
707.61	267.72
707.94	267.26
708.27	266.46
708.61	265.77
708.94	265.31
709.28	264.97
709.61	264.59
709.94	264.35
710.28	264.00
710.61	263.65
710.95	262.85
711.28	262.77
711.61	262.42
711.95	262.20
712.28	261.86
712.61	261.49
712.95	261.35
713.28	261.26
713.61	260.86
713.95	260.36
714.28	260.09
714.61	259.71
714.95	259.30
715.28	258.95
715.61	258.58
715.95	258.22
716.28	257.78
716.61	257.61
716.95	257.15
717.28	256.84
717.61	256.53
717.94	256.34
718.28	255.70
718.61	255.38
718.94	255.02
719.27	254.76
719.61	254.53
719.94	254.15
720.27	253.60
720.60	253.27
720.94	253.01
721.27	252.84
721.60	252.67
721.93	252.47
722.27	252.39
722.60	252.29
722.93	252.05
723.26	251.99
723.59	251.69
723.93	251.56
724.26	251.41
724.59	251.15
724.92	250.85
725.25	250.83
725.59	250.61
725.92	250.44
726.25	250.35
726.58	250.14
726.91	249.95
727.24	249.84
727.57	249.64
727.91	249.33
728.24	249.17
728.57	248.89
728.90	248.78
729.23	248.45
729.56	248.49
729.89	248.32
730.22	248.16
730.55	247.93
730.89	247.78
731.22	247.53
731.55	247.29
731.88	247.20
732.21	246.93
732.54	246.70
732.87	246.53
733.20	246.33
733.53	246.24
733.86	246.10
734.19	245.90
734.52	245.81
734.85	246.03
735.18	245.74
735.51	245.83
735.84	245.66
736.17	245.66
736.50	245.17
736.83	245.60
737.16	245.40
737.49	245.36
737.82	245.18
738.15	245.07
738.48	244.96
738.81	244.79
739.14	244.64
739.47	244.46
739.80	244.27
740.13	244.14
740.46	243.82
740.79	243.61
741.12	243.39
741.45	243.15
741.78	242.69
742.11	242.70
742.44	242.40
742.77	242.27
743.10	242.03
743.43	241.91
743.75	241.30
744.08	241.77
744.41	241.51
744.74	241.36
745.07	241.16
745.40	241.10
745.73	241.17
746.06	240.96
746.39	241.01
746.71	240.92
747.04	240.74
747.37	240.68
747.70	240.59
748.03	240.52
748.36	240.52
748.68	240.38
749.01	240.19
749.34	239.99
749.67	239.85
750.00	239.78
750.33	240.05
750.65	239.94
750.98	239.16
751.31	239.15
751.64	239.02
751.97	239.11
752.29	238.97
752.62	238.65
752.95	238.55
753.28	238.25
753.60	238.05
753.93	238.10
754.26	237.92
754.59	237.76
754.91	237.60
755.24	237.42
755.57	237.40
755.90	237.22
756.22	237.11
756.55	236.92
756.88	236.70
757.20	236.24
757.53	236.01
757.86	235.90
758.19	235.78
758.51	235.67
758.84	235.27
759.17	235.14
759.49	235.04
759.82	235.23
760.15	235.30
760.47	235.22
760.80	234.97
761.13	234.95
761.45	234.79
761.78	234.76
762.11	234.72
762.43	234.61
762.76	234.55
763.08	234.59
763.41	234.61
763.74	234.60
764.06	234.51
764.39	234.45
764.71	234.46
765.04	234.32
765.37	234.26
765.69	234.27
766.02	234.18
766.34	234.05
766.67	233.73
767.00	233.65
767.32	233.79
767.65	233.97
767.97	233.88
768.30	233.87
768.62	233.81
768.95	233.66
769.27	233.65
769.60	233.62
769.92	233.50
770.25	233.32
770.57	233.16
770.90	233.08
771.22	232.97
771.55	232.87
771.87	232.82
772.20	232.71
772.52	233.03
772.85	233.60
773.17	233.60
773.50	233.57
773.82	233.48
774.15	233.29
774.47	232.96
774.80	232.88
775.12	232.79
775.45	232.73
775.77	232.73
776.09	232.67
776.42	232.70
776.74	232.70
777.07	232.69
777.39	232.69
777.72	232.59
778.04	232.58
778.36	232.52
778.69	232.59
779.01	232.58
779.33	232.16
779.66	231.57
779.98	231.50
780.31	231.51
780.63	231.70
780.95	231.71
781.28	231.70
781.60	231.60
781.92	231.59
782.25	231.56
782.57	231.48
782.89	231.36
783.22	231.27
783.54	231.16
783.86	231.10
784.19	231.08
784.51	231.21
784.83	231.11
785.16	231.10
785.48	230.96
785.80	230.95
786.12	230.95
786.45	230.87
786.77	230.90
787.09	230.79
787.42	230.55
787.74	230.48
788.06	230.52
788.38	230.54
788.71	230.50
789.03	230.45
789.35	230.46
789.67	230.36
789.99	230.34
790.32	230.24
790.64	230.30
790.96	230.63
791.28	230.50
791.61	230.47
791.93	230.42
792.25	230.39
792.57	230.70
792.89	230.55
793.21	230.56
793.54	230.43
793.86	230.37
794.18	230.40
794.50	230.32
794.82	230.30
795.14	230.36
795.47	230.43
795.79	230.40
796.11	230.30
796.43	230.30
796.75	230.22
797.07	230.27
797.39	230.23
797.71	229.88
798.04	229.88
798.36	229.93
798.68	229.92
799.00	230.00
799.32	229.66
799.64	229.79
799.96	229.80
800.28	229.90
800.60	229.90
800.92	229.81
801.24	229.77
801.56	229.73
801.89	229.65
802.21	229.62
802.53	229.51
802.85	229.59
803.17	229.80
803.49	229.76
803.81	229.66
804.13	229.62
804.45	229.55
804.77	229.50
805.09	229.49
805.41	229.41
805.73	229.29
806.05	229.22
806.37	229.14
806.69	229.12
807.01	229.10
807.33	229.09
807.65	228.97
807.97	229.23
808.28	229.13
808.60	229.10
808.92	229.01
809.24	229.34
809.56	229.27
809.88	229.09
810.20	229.08
810.52	229.23
810.84	229.08
811.16	228.99
811.48	228.98
811.80	229.16
812.12	229.15
812.43	229.25
812.75	229.24
813.07	229.25
813.39	229.25
813.71	229.18
814.03	229.17
814.35	229.20
814.67	228.89
814.98	228.86
815.30	228.88
815.62	228.76
815.94	228.40
816.26	228.56
816.58	228.45
816.89	228.51
817.21	228.35
817.53	228.44
817.85	228.46
818.17	228.43
818.48	228.15
818.80	228.25
819.12	228.15
819.44	228.10
819.76	227.96
820.07	227.92
820.39	227.87
820.71	227.85
821.03	227.79
821.34	227.79
821.66	227.84
821.98	227.84
822.30	227.87
822.61	228.15
822.93	227.96
823.25	228.00
823.57	227.91
823.88	228.06
824.20	228.11
824.52	228.17
824.83	228.23
825.15	228.16
825.47	228.15
825.79	228.17
826.10	228.12
826.42	228.15
826.74	228.14
827.05	228.08
827.37	228.10
827.69	228.18
828.00	228.21
828.32	228.22
828.64	228.17
828.95	228.40
829.27	228.23
829.58	228.19
829.90	228.30
830.22	228.32
830.53	228.20
830.85	228.07
831.17	227.94
831.48	227.88
831.80	227.98
832.11	227.94
832.43	227.86
832.75	227.90
833.06	228.20
833.38	228.10
833.69	228.20
834.01	228.24
834.32	228.13
834.64	228.06
834.96	228.03
835.27	227.99
835.59	227.82
835.90	227.80
836.22	227.85
836.53	227.73
836.85	227.65
837.16	228.04
837.48	228.08
837.79	228.23
838.11	228.27
838.42	228.24
838.74	228.23
839.05	228.22
839.37	228.13
839.68	227.80
840.00	227.74
840.31	227.68
840.63	227.58
840.94	227.58
841.26	227.53
841.57	227.54
841.88	227.60
842.20	227.50
842.51	227.42
842.83	227.27
843.14	227.62
843.46	227.65
843.77	227.44
844.08	227.43
844.40	227.33
844.71	227.20
845.03	227.14
845.34	227.16
845.65	227.12
845.97	227.22
846.28	227.27
846.60	227.29
846.91	227.23
847.22	227.19
847.54	227.30
847.85	227.36
848.16	227.30
848.48	227.19
848.79	227.41
849.10	227.41
849.42	227.47
849.73	227.05
850.04	227.05
850.36	226.82
850.67	226.86
850.98	226.90
851.30	227.00
851.61	227.00
851.92	226.90
852.23	227.01
852.55	226.93
852.86	226.97
853.17	227.02
853.49	227.12
853.80	227.25
854.11	227.20
854.42	227.29
854.74	227.20
855.05	227.25
855.36	227.00
855.67	227.07
855.99	227.15
856.30	227.77
856.61	227.73
856.92	227.79
857.23	227.79
857.55	227.71
857.86	227.62
858.17	227.76
858.48	227.71
858.79	227.59
859.11	227.70
859.42	227.66
859.73	227.60
860.04	227.61
860.35	227.52
860.66	227.46
860.98	227.41
861.29	227.55
861.60	227.48
861.91	227.58
862.22	227.53
862.53	227.42
862.84	226.87
863.16	227.01
863.47	226.95
863.78	226.93
864.09	226.99
864.40	227.00
864.71	226.89
865.02	227.06
865.33	227.09
865.64	227.04
865.95	227.05
866.27	227.31
866.58	227.22
866.89	227.28
867.20	227.26
867.51	227.23
867.82	227.17
868.13	227.35
868.44	227.33
868.75	227.41
869.06	227.45
869.37	227.51
869.68	227.38
869.99	227.48
870.30	227.48
870.61	227.50
870.92	227.52
871.23	227.58
871.54	227.58
871.85	227.66
872.16	227.66
872.47	227.62
872.78	227.41
873.09	227.50
873.40	227.36
873.71	227.31
874.02	227.35
874.33	227.28
874.64	227.20
874.95	227.20
875.26	227.10
875.56	227.08
875.87	226.98
876.18	226.94
876.49	227.34
876.80	227.25
877.11	227.18
877.42	227.23
877.73	227.17
878.04	227.08
878.35	227.02
878.66	227.00
878.96	226.96
879.27	226.91
879.58	226.90
879.89	226.90
880.20	227.06
880.51	226.88
880.82	226.89
881.12	226.81
881.43	226.72
881.74	226.69
882.05	226.66
882.36	226.71
882.67	226.75
882.97	226.26
883.28	226.31
883.59	226.28
883.90	226.22
884.21	226.25
884.51	226.19
884.82	226.12
885.13	226.14
885.44	226.11
885.74	226.14
886.05	226.18
886.36	226.21
886.67	226.05
886.98	226.41
887.28	226.50
887.59	226.48
887.90	226.51
888.20	226.43
888.51	226.47
888.82	226.40
889.13	226.37
889.43	226.72
889.74	226.63
890.05	226.59
890.35	226.56
890.66	226.50
890.97	226.51
891.28	226.49
891.58	226.44
891.89	226.46
892.20	226.38
892.50	226.26
892.81	226.20
893.12	226.18
893.42	225.94
893.73	225.93
894.04	225.92
894.34	225.94
894.65	225.93
894.95	225.90
895.26	225.90
895.57	226.14
895.87	225.66
896.18	225.71
896.48	225.78
896.79	225.78
897.10	225.82
897.40	225.82
897.71	225.87
898.01	225.90
898.32	225.90
898.63	225.93
898.93	225.95
899.24	226.02
899.54	226.02
899.85	226.02
900.15	225.98
900.46	226.00
900.76	226.04
901.07	226.02
901.38	226.05
901.68	226.05
901.99	225.83
902.29	225.95
902.60	225.99
902.90	225.92
903.21	225.95
903.51	225.94
903.82	226.01
904.12	226.10
904.43	226.11
904.73	226.16
905.03	226.18
905.34	226.60
905.64	226.61
905.95	226.64
906.25	226.75
906.56	226.78
906.86	226.79
907.17	226.74
907.47	226.84
907.77	226.85
908.08	226.80
908.38	226.84
908.69	226.82
908.99	226.90
909.30	227.01
909.60	226.98
909.90	226.98
910.21	226.81
910.51	226.70
910.81	226.73
911.12	226.68
911.42	226.59
911.73	226.10
912.03	226.08
912.33	226.11
912.64	226.00
912.94	225.91
913.24	225.84
913.55	225.80
913.85	225.78
914.15	225.80
914.46	225.90
914.76	225.81
915.06	225.80
915.37	225.67
915.67	225.68
915.97	225.64
916.27	225.55
916.58	225.66
916.88	225.59
917.18	225.50
917.49	225.83
917.79	225.88
918.09	226.04
918.39	226.15
918.70	226.17
919.00	226.16
919.30	226.39
919.60	226.40
919.91	226.43
920.21	226.47
920.51	226.38
920.81	226.33
921.12	226.39
921.42	226.38
921.72	226.45
922.02	226.36
922.32	226.45
922.63	226.47
922.93	226.71
923.23	226.78
923.53	226.80
923.83	226.56
924.13	226.61
924.44	226.56
924.74	226.60
925.04	226.67
925.34	226.73
925.64	226.54
925.94	226.54
926.24	226.75
926.55	226.67
926.85	226.69
927.15	226.73
927.45	226.82
927.75	226.76
928.05	226.77
928.35	226.79
928.65	226.88
928.95	226.92
929.26	226.71
929.56	226.82
929.86	226.87
930.16	226.83
930.46	226.80
930.76	226.82
931.06	226.61
931.36	226.55
931.66	226.55
931.96	226.57
932.26	226.66
932.56	226.43
932.86	226.51
933.16	226.53
933.46	226.45
933.76	226.39
934.06	226.55
934.36	226.70
934.66	226.70
934.96	226.63
935.26	226.66
935.56	226.68
935.86	226.58
936.16	226.49
936.46	226.48
936.76	226.40
937.06	226.38
937.36	226.51
937.66	226.50
937.96	226.50
938.26	226.48
938.56	226.35
938.86	226.40
939.16	226.46
939.46	226.53
939.76	226.50
940.06	226.49
940.35	226.40
940.65	226.15
940.95	226.23
941.25	226.14
941.55	226.10
941.85	226.15
942.15	226.20
942.45	226.37
942.75	226.35
943.04	226.41
943.34	226.50
943.64	226.41
943.94	226.39
944.24	226.40
944.54	226.44
944.84	226.50
945.13	226.44
945.43	226.41
945.73	226.38
946.03	226.40
946.33	226.32
946.62	226.26
946.92	226.30
947.22	226.25
947.52	226.26
947.82	226.38
948.11	226.32
948.41	226.20
948.71	226.05
949.01	226.09
949.31	226.10
949.60	225.98
949.90	226.05
950.20	226.11
950.50	226.14
950.79	226.04
951.09	226.07
951.39	226.07
951.69	225.98
951.98	226.06
952.28	226.07
952.58	226.05
952.87	226.05
953.17	226.11
953.47	226.06
953.76	226.07
954.06	225.96
954.36	225.94
954.66	225.93
954.95	226.10
955.25	226.07
955.55	226.10
955.84	226.07
956.14	226.08
956.44	225.96
956.73	225.84
957.03	225.94
957.32	225.95
957.62	225.96
957.92	226.01
958.21	225.97
958.51	226.49
958.81	226.63
959.10	226.74
959.40	226.73
959.69	226.77
959.99	226.90
960.29	226.85
960.58	226.80
960.88	227.03
961.17	226.93
961.47	226.97
961.76	226.94
962.06	226.98
962.36	226.88
962.65	226.93
962.95	226.94
963.24	226.84
963.54	226.87
963.83	226.89
964.13	226.93
964.42	226.82
964.72	226.44
965.01	226.34
965.31	226.27
965.60	226.21
965.90	226.53
966.19	226.40
966.49	226.49
966.78	226.50
967.08	226.40
967.37	226.46
967.67	226.39
967.96	226.43
968.26	226.42
968.55	226.53
968.85	226.46
969.14	226.45
969.43	226.51
969.73	226.41
970.02	226.36
970.32	226.33
970.61	226.30
970.91	226.24
971.20	226.31
971.49	226.26
971.79	226.32
972.08	225.93
972.38	225.98
972.67	225.92
972.96	225.97
973.26	225.88
973.55	226.00
973.85	225.96
974.14	225.96
974.43	226.05
974.73	225.95
975.02	225.95
975.31	225.94
975.61	225.94
975.90	225.96
976.19	226.00
976.49	226.02
976.78	226.04
977.07	225.95
977.37	225.86
977.66	226.01
977.95	225.92
978.24	226.02
978.54	226.04
978.83	225.99
979.12	225.97
979.42	225.92
979.71	225.79
980.00	225.80
980.29	225.80
980.59	225.69
980.88	225.80
981.17	225.76
981.46	225.87
981.76	225.93
982.05	226.10
982.34	226.13
982.63	226.14
982.93	226.21
983.22	226.38
983.51	226.39
983.80	226.35
984.09	226.46
984.39	226.39
984.68	226.31
984.97	226.40
985.26	226.43
985.55	226.51
985.85	226.41
986.14	226.47
986.43	226.51
986.72	226.48
987.01	226.35
987.30	226.34
987.59	226.25
987.89	226.16
988.18	225.93
988.47	225.88
988.76	225.86
989.05	225.76
989.34	225.64
989.63	225.80
989.92	225.75
990.22	225.69
990.51	225.70
990.80	225.66
991.09	225.72
991.38	225.72
991.67	225.72
991.96	225.68
992.25	225.72
992.54	225.57
992.83	225.64
993.12	225.68
993.41	225.82
993.70	225.98
993.99	226.13
994.28	226.26
994.58	226.36
994.87	226.28
995.16	226.30
995.45	226.32
995.74	226.17
996.03	226.21
996.32	226.26
996.61	226.41
996.90	226.44
997.19	226.41
997.48	226.47
997.77	226.46
998.06	226.48
998.34	226.43
998.63	226.42
998.92	226.41
999.21	226.45
999.50	226.38
999.79	226.20
1000.08	226.13
1000.37	226.13
1000.66	225.98
1000.95	226.06
1001.24	226.06
1001.53	226.13
1001.82	226.11
1002.11	226.02
1002.40	226.09
1002.68	226.14
1002.97	226.48
1003.26	226.34
1003.55	226.18
1003.84	226.13
1004.13	226.32
1004.42	226.25
1004.71	226.30
1004.99	226.25
1005.28	226.36
1005.57	226.35
1005.86	226.38
1006.15	226.39
1006.44	226.29
1006.72	226.42
1007.01	226.39
1007.30	226.43
1007.59	226.36
1007.88	226.38
1008.17	226.41
1008.45	226.30
1008.74	226.07
1009.03	225.85
1009.32	225.94
1009.60	225.93
1009.89	225.96
1010.18	225.76
1010.47	225.80
1010.76	225.78
1011.04	225.77
1011.33	225.81
1011.62	225.92
1011.91	225.92
1012.19	225.86
1012.48	225.94
1012.77	225.93
1013.05	226.14
1013.34	226.14
1013.63	226.08
1013.92	226.06
1014.20	226.00
1014.49	225.98
1014.78	226.13
1015.06	225.93
1015.35	225.92
1015.64	225.97
1015.92	226.07
1016.21	226.11
1016.50	226.12
1016.78	226.25
1017.07	226.32
1017.36	226.17
1017.64	226.10
1017.93	226.19
1018.22	226.19
1018.50	226.11
1018.79	226.00
1019.08	225.80
1019.36	225.83
1019.65	225.81
1019.93	225.96
1020.22	226.09
1020.51	226.35
1020.79	226.16
1021.08	225.35
1021.36	224.80
1021.65	225.00
1021.94	225.95
1022.22	226.00
1022.51	224.50
1022.79	228.40
1023.08	227.15
1023.36	231.40
1023.65	223.40
>>>>>End Processed Spectral Data<<<<<
