SpectraSuite Data File
++++++++++++++++++++++++++++++++++++
Date: Wed Sep 04 18:03:36 EDT 2013
User: lab3
Dark Spectrum Present: Yes
Reference Spectrum Present: No
Number of Sampled Component Spectra: 1
Spectrometers: USB2E7196
Integration Time (usec): 170000 (USB2E7196)
Spectra Averaged: 20 (USB2E7196)
Boxcar Smoothing: 10 (USB2E7196)
Correct for Electrical Dark: No (USB2E7196)
Strobe/Lamp Enabled: No (USB2E7196)
Correct for Detector Non-linearity: No (USB2E7196)
Correct for Stray Light: No (USB2E7196)
Number of Pixels in Processed Spectrum: 2048
>>>>>Begin Processed Spectral Data<<<<<
339.09	0.00
339.48	211.95
339.86	215.35
340.24	215.05
340.63	218.35
341.01	225.70
341.39	221.30
341.78	222.05
342.16	224.35
342.54	224.05
342.93	212.66
343.31	223.35
343.69	223.98
344.07	224.46
344.46	224.99
344.84	225.40
345.22	225.43
345.60	225.72
345.99	225.95
346.37	226.09
346.75	226.18
347.13	226.36
347.52	226.46
347.90	226.69
348.28	226.80
348.66	226.93
349.05	226.69
349.43	226.73
349.81	226.75
350.19	226.76
350.57	226.89
350.96	227.00
351.34	227.15
351.72	227.15
352.10	227.19
352.48	227.24
352.87	227.25
353.25	227.27
353.63	227.28
354.01	227.26
354.39	227.30
354.77	227.39
355.15	227.45
355.54	227.46
355.92	227.35
356.30	227.41
356.68	227.76
357.06	227.92
357.44	227.90
357.82	227.94
358.20	228.43
358.58	228.41
358.97	228.48
359.35	228.65
359.73	228.88
360.11	229.00
360.49	229.05
360.87	229.08
361.25	229.21
361.63	229.39
362.01	229.46
362.39	229.51
362.77	229.65
363.15	229.67
363.53	229.70
363.91	229.79
364.29	229.81
364.67	229.42
365.05	229.42
365.43	229.54
365.81	229.69
366.19	229.47
366.57	229.70
366.95	229.64
367.33	229.50
367.71	229.45
368.09	229.54
368.47	229.57
368.85	229.56
369.23	229.63
369.61	229.46
369.99	229.63
370.37	229.61
370.75	229.75
371.13	229.62
371.51	229.54
371.89	229.53
372.27	229.52
372.65	229.55
373.03	229.56
373.41	229.40
373.78	229.27
374.16	229.01
374.54	228.85
374.92	228.80
375.30	228.74
375.68	228.63
376.06	228.55
376.44	228.42
376.82	228.40
377.19	228.26
377.57	228.13
377.95	227.90
378.33	227.85
378.71	227.51
379.09	227.51
379.47	227.51
379.84	227.36
380.22	227.24
380.60	227.00
380.98	226.93
381.36	226.89
381.73	226.80
382.11	226.82
382.49	226.78
382.87	226.65
383.25	226.57
383.62	227.11
384.00	226.91
384.38	226.87
384.76	226.88
385.13	227.03
385.51	226.98
385.89	226.86
386.27	226.82
386.64	226.83
387.02	226.75
387.40	226.68
387.78	226.72
388.15	226.69
388.53	226.69
388.91	226.56
389.29	226.51
389.66	226.54
390.04	226.46
390.42	226.47
390.79	226.54
391.17	226.64
391.55	226.07
391.92	226.14
392.30	226.18
392.68	226.12
393.05	226.00
393.43	226.13
393.81	226.21
394.18	226.18
394.56	226.23
394.94	226.39
395.31	226.45
395.69	226.60
396.06	226.75
396.44	226.85
396.82	226.89
397.19	227.26
397.57	227.29
397.95	227.47
398.32	227.39
398.70	227.52
399.07	227.67
399.45	227.65
399.82	227.72
400.20	227.78
400.58	227.82
400.95	227.83
401.33	227.98
401.70	228.43
402.08	228.62
402.45	228.70
402.83	228.89
403.20	229.00
403.58	229.10
403.95	229.34
404.33	229.65
404.71	229.98
405.08	230.34
405.46	230.54
405.83	230.85
406.21	231.18
406.58	231.49
406.96	231.70
407.33	232.11
407.70	232.50
408.08	233.28
408.45	233.87
408.83	234.38
409.20	234.86
409.58	235.05
409.95	235.62
410.33	236.17
410.70	236.53
411.08	237.20
411.45	237.83
411.82	238.32
412.20	238.98
412.57	240.00
412.95	240.39
413.32	241.35
413.69	242.13
414.07	243.06
414.44	244.05
414.82	245.07
415.19	246.32
415.56	247.54
415.94	248.58
416.31	249.98
416.68	251.34
417.06	252.86
417.43	254.54
417.81	256.24
418.18	258.10
418.55	260.13
418.93	262.02
419.30	264.12
419.67	266.45
420.04	268.74
420.42	270.96
420.79	274.01
421.16	276.69
421.54	279.71
421.91	282.61
422.28	285.63
422.66	288.98
423.03	292.34
423.40	295.64
423.77	299.13
424.15	302.69
424.52	306.53
424.89	310.65
425.26	314.52
425.64	318.23
426.01	322.48
426.38	326.86
426.75	331.50
427.13	335.97
427.50	340.76
427.87	345.69
428.24	350.66
428.61	355.27
428.99	360.65
429.36	366.23
429.73	371.90
430.10	377.44
430.47	383.07
430.85	388.71
431.22	395.01
431.59	401.82
431.96	408.08
432.33	415.10
432.70	421.89
433.08	429.87
433.45	437.45
433.82	444.75
434.19	453.06
434.56	461.21
434.93	468.98
435.30	476.83
435.68	485.54
436.05	494.08
436.42	502.28
436.79	510.04
437.16	518.48
437.53	527.25
437.90	536.03
438.27	544.68
438.64	553.72
439.01	562.10
439.38	569.25
439.75	576.43
440.13	584.49
440.50	592.08
440.87	598.16
441.24	604.48
441.61	611.42
441.98	616.40
442.35	622.13
442.72	628.22
443.09	634.05
443.46	637.50
443.83	639.72
444.20	641.68
444.57	644.35
444.94	645.25
445.31	646.35
445.68	647.64
446.05	647.84
446.42	646.48
446.79	645.00
447.16	643.37
447.53	642.12
447.90	638.37
448.27	634.60
448.64	629.71
449.01	626.07
449.37	619.91
449.74	613.82
450.11	607.01
450.48	599.29
450.85	591.22
451.22	584.35
451.59	577.74
451.96	571.55
452.33	563.40
452.70	555.99
453.07	547.45
453.43	538.32
453.80	529.90
454.17	521.81
454.54	514.02
454.91	505.89
455.28	497.91
455.65	490.52
456.02	483.56
456.38	477.15
456.75	469.40
457.12	462.90
457.49	456.61
457.86	450.22
458.23	445.00
458.59	439.26
458.96	433.42
459.33	428.33
459.70	423.11
460.07	418.98
460.43	414.31
460.80	409.96
461.17	406.22
461.54	402.18
461.91	398.33
462.27	394.38
462.64	391.09
463.01	387.43
463.38	384.05
463.74	380.13
464.11	377.23
464.48	374.59
464.85	371.74
465.21	369.58
465.58	367.25
465.95	364.37
466.32	362.09
466.68	359.76
467.05	357.52
467.42	355.42
467.78	353.15
468.15	351.02
468.52	349.25
468.88	347.04
469.25	345.07
469.62	343.65
469.98	342.07
470.35	340.51
470.72	339.10
471.08	337.46
471.45	336.15
471.82	334.71
472.18	333.24
472.55	332.25
472.92	331.00
473.28	329.91
473.65	328.86
474.02	327.80
474.38	326.98
474.75	326.17
475.11	325.29
475.48	324.62
475.85	324.01
476.21	323.39
476.58	322.90
476.94	322.56
477.31	322.12
477.67	321.68
478.04	321.38
478.41	321.16
478.77	321.23
479.14	320.87
479.50	320.79
479.87	320.78
480.23	320.79
480.60	320.73
480.96	320.77
481.33	321.17
481.69	321.40
482.06	321.58
482.42	321.86
482.79	322.12
483.15	322.54
483.52	323.10
483.88	323.57
484.25	324.08
484.61	324.67
484.98	325.37
485.34	326.39
485.71	327.31
486.07	328.24
486.44	328.82
486.80	330.05
487.17	331.19
487.53	332.60
487.90	334.03
488.26	335.73
488.62	337.28
488.99	338.67
489.35	340.46
489.72	342.41
490.08	344.40
490.44	346.50
490.81	348.61
491.17	350.87
491.54	353.35
491.90	355.93
492.26	358.62
492.63	361.31
492.99	364.04
493.36	367.14
493.72	370.47
494.08	374.04
494.45	377.75
494.81	381.64
495.17	385.41
495.54	389.56
495.90	393.68
496.26	398.08
496.63	402.83
496.99	407.61
497.35	412.63
497.72	417.96
498.08	423.39
498.44	429.20
498.80	435.24
499.17	441.32
499.53	447.61
499.89	454.49
500.26	461.34
500.62	468.53
500.98	475.84
501.34	483.31
501.71	491.04
502.07	498.95
502.43	507.22
502.79	515.77
503.16	524.44
503.52	533.54
503.88	543.01
504.24	552.60
504.60	562.69
504.97	572.99
505.33	583.46
505.69	594.74
506.05	605.81
506.41	617.05
506.78	628.66
507.14	640.73
507.50	652.78
507.86	665.58
508.22	678.30
508.59	691.59
508.95	705.39
509.31	719.65
509.67	734.05
510.03	748.31
510.39	763.01
510.75	778.30
511.12	793.42
511.48	809.03
511.84	824.79
512.20	840.69
512.56	857.03
512.92	873.79
513.28	890.40
513.64	907.60
514.00	925.14
514.37	943.03
514.73	961.25
515.09	979.75
515.45	998.20
515.81	1016.85
516.17	1035.67
516.53	1054.31
516.89	1073.10
517.25	1092.42
517.61	1112.72
517.97	1133.10
518.33	1153.17
518.69	1173.81
519.05	1194.45
519.41	1215.17
519.77	1236.41
520.13	1257.09
520.49	1277.75
520.85	1300.30
521.21	1321.43
521.57	1343.00
521.93	1363.78
522.29	1385.41
522.65	1406.02
523.01	1426.72
523.37	1447.47
523.73	1468.46
524.09	1488.99
524.45	1509.84
524.81	1530.77
525.17	1551.54
525.53	1572.17
525.89	1592.95
526.25	1613.65
526.61	1634.22
526.97	1655.28
527.33	1676.54
527.68	1698.75
528.04	1720.31
528.40	1739.89
528.76	1761.10
529.12	1781.39
529.48	1802.36
529.84	1822.23
530.20	1843.65
530.56	1864.85
530.91	1885.89
531.27	1906.60
531.63	1927.29
531.99	1948.14
532.35	1968.21
532.71	1988.60
533.07	2009.12
533.42	2028.99
533.78	2049.22
534.14	2069.23
534.50	2088.87
534.86	2107.96
535.21	2125.42
535.57	2143.98
535.93	2161.78
536.29	2179.67
536.65	2197.90
537.00	2215.85
537.36	2233.78
537.72	2250.50
538.08	2267.62
538.44	2284.80
538.79	2301.36
539.15	2318.25
539.51	2334.15
539.87	2349.83
540.22	2364.09
540.58	2378.76
540.94	2392.41
541.29	2405.25
541.65	2417.81
542.01	2430.29
542.37	2441.21
542.72	2452.46
543.08	2463.33
543.44	2475.13
543.79	2485.46
544.15	2495.47
544.51	2505.35
544.87	2514.64
545.22	2523.21
545.58	2531.31
545.94	2538.65
546.29	2545.35
546.65	2551.72
547.01	2557.33
547.36	2562.77
547.72	2568.14
548.07	2572.14
548.43	2577.53
548.79	2582.27
549.14	2586.39
549.50	2590.50
549.86	2594.80
550.21	2599.00
550.57	2602.36
550.92	2604.30
551.28	2605.71
551.64	2608.39
551.99	2610.43
552.35	2612.50
552.70	2614.77
553.06	2616.21
553.41	2617.33
553.77	2619.19
554.13	2620.92
554.48	2622.59
554.84	2624.12
555.19	2625.35
555.55	2627.07
555.90	2626.60
556.26	2626.12
556.61	2624.62
556.97	2622.49
557.32	2621.94
557.68	2620.56
558.03	2619.25
558.39	2617.99
558.74	2617.36
559.10	2614.01
559.45	2610.90
559.81	2606.47
560.16	2601.68
560.52	2597.14
560.87	2592.81
561.23	2587.14
561.58	2581.18
561.94	2574.40
562.29	2567.21
562.64	2560.23
563.00	2552.16
563.35	2545.62
563.71	2538.72
564.06	2532.94
564.42	2526.26
564.77	2518.85
565.12	2511.37
565.48	2503.52
565.83	2495.42
566.19	2487.32
566.54	2479.83
566.89	2471.38
567.25	2463.64
567.60	2456.29
567.96	2448.74
568.31	2440.80
568.66	2432.44
569.02	2423.54
569.37	2415.56
569.72	2407.66
570.08	2398.58
570.43	2388.90
570.78	2379.77
571.14	2370.29
571.49	2359.94
571.84	2350.50
572.20	2339.75
572.55	2329.68
572.90	2318.71
573.26	2308.47
573.61	2297.36
573.96	2285.92
574.31	2274.12
574.67	2262.38
575.02	2249.63
575.37	2236.72
575.72	2223.35
576.08	2211.05
576.43	2198.42
576.78	2185.10
577.13	2171.45
577.49	2158.10
577.84	2146.33
578.19	2133.92
578.54	2121.29
578.90	2109.26
579.25	2096.72
579.60	2084.28
579.95	2071.11
580.30	2058.08
580.66	2044.15
581.01	2030.32
581.36	2016.37
581.71	2003.74
582.06	1990.70
582.42	1978.07
582.77	1965.49
583.12	1953.53
583.47	1940.97
583.82	1928.97
584.17	1916.58
584.53	1904.60
584.88	1892.32
585.23	1879.40
585.58	1865.27
585.93	1851.97
586.28	1838.47
586.63	1824.31
586.98	1810.07
587.34	1796.72
587.69	1783.53
588.04	1771.29
588.39	1759.33
588.74	1746.95
589.09	1734.63
589.44	1721.50
589.79	1709.29
590.14	1697.28
590.49	1685.20
590.84	1673.07
591.19	1660.79
591.54	1648.83
591.89	1636.54
592.25	1625.89
592.60	1614.20
592.95	1602.82
593.30	1590.76
593.65	1578.93
594.00	1567.05
594.35	1556.89
594.70	1545.24
595.05	1533.66
595.40	1521.38
595.75	1509.19
596.10	1498.08
596.45	1486.44
596.80	1475.65
597.15	1464.07
597.50	1452.22
597.85	1440.60
598.19	1428.95
598.54	1417.21
598.89	1405.46
599.24	1394.81
599.59	1383.24
599.94	1372.37
600.29	1361.73
600.64	1351.28
600.99	1340.42
601.34	1330.73
601.69	1319.72
602.04	1309.39
602.39	1299.48
602.74	1290.22
603.08	1280.87
603.43	1271.25
603.78	1261.68
604.13	1252.19
604.48	1242.23
604.83	1232.39
605.18	1222.40
605.53	1212.94
605.87	1203.87
606.22	1195.39
606.57	1186.28
606.92	1176.87
607.27	1167.55
607.62	1158.65
607.96	1150.10
608.31	1141.95
608.66	1133.39
609.01	1124.73
609.36	1116.30
609.70	1107.67
610.05	1098.92
610.40	1090.29
610.75	1081.42
611.10	1072.73
611.44	1063.91
611.79	1055.86
612.14	1047.82
612.49	1039.85
612.83	1032.11
613.18	1024.21
613.53	1016.49
613.88	1008.21
614.22	1000.30
614.57	992.40
614.92	984.54
615.27	976.71
615.61	968.84
615.96	961.27
616.31	953.70
616.65	946.68
617.00	939.48
617.35	932.28
617.70	925.07
618.04	918.08
618.39	911.34
618.74	905.06
619.08	898.03
619.43	890.82
619.78	883.71
620.12	876.70
620.47	869.61
620.82	862.44
621.16	855.71
621.51	849.32
621.85	843.01
622.20	836.31
622.55	829.78
622.89	823.32
623.24	816.68
623.59	810.21
623.93	803.57
624.28	797.23
624.62	791.30
624.97	785.42
625.32	779.49
625.66	773.19
626.01	766.75
626.35	761.25
626.70	755.77
627.04	750.72
627.39	744.92
627.73	739.54
628.08	734.34
628.43	728.79
628.77	723.20
629.12	717.73
629.46	712.76
629.81	707.92
630.15	703.08
630.50	698.32
630.84	693.60
631.19	688.72
631.53	684.07
631.88	678.77
632.22	673.79
632.57	669.09
632.91	664.55
633.26	660.03
633.60	655.31
633.95	650.66
634.29	645.71
634.64	641.23
634.98	636.51
635.32	631.98
635.67	627.85
636.01	623.64
636.36	619.29
636.70	615.36
637.05	611.03
637.39	606.83
637.73	602.52
638.08	598.47
638.42	594.26
638.77	589.93
639.11	585.70
639.45	581.36
639.80	577.05
640.14	572.87
640.49	568.78
640.83	564.85
641.17	561.18
641.52	557.51
641.86	554.03
642.20	550.77
642.55	547.06
642.89	543.45
643.23	539.95
643.58	536.74
643.92	532.91
644.26	529.56
644.61	526.21
644.95	522.82
645.29	519.19
645.64	516.17
645.98	513.04
646.32	510.05
646.66	507.02
647.01	504.14
647.35	501.37
647.69	498.56
648.04	495.72
648.38	492.84
648.72	489.94
649.06	486.80
649.41	483.66
649.75	480.51
650.09	477.66
650.43	474.71
650.78	471.79
651.12	469.09
651.46	466.33
651.80	463.46
652.14	460.82
652.49	458.35
652.83	455.69
653.17	452.94
653.51	450.30
653.85	447.81
654.20	445.23
654.54	442.46
654.88	439.84
655.22	437.54
655.56	434.97
655.90	432.45
656.25	430.11
656.59	427.82
656.93	425.78
657.27	423.59
657.61	421.14
657.95	418.94
658.29	416.66
658.64	414.49
658.98	412.40
659.32	410.21
659.66	407.95
660.00	405.82
660.34	403.93
660.68	401.89
661.02	399.86
661.36	397.92
661.70	396.09
662.05	394.25
662.39	392.20
662.73	390.50
663.07	389.01
663.41	387.18
663.75	385.27
664.09	383.44
664.43	381.47
664.77	379.97
665.11	378.17
665.45	376.56
665.79	374.90
666.13	373.10
666.47	371.35
666.81	369.69
667.15	367.98
667.49	366.44
667.83	365.00
668.17	363.50
668.51	362.03
668.85	360.52
669.19	359.30
669.53	357.87
669.87	356.24
670.21	354.57
670.55	353.21
670.89	352.12
671.23	350.75
671.57	349.40
671.91	347.89
672.25	346.53
672.58	345.23
672.92	343.85
673.26	342.72
673.60	341.57
673.94	340.40
674.28	339.21
674.62	337.93
674.96	336.55
675.30	335.46
675.64	334.23
675.97	333.04
676.31	331.55
676.65	330.25
676.99	329.32
677.33	328.12
677.67	327.06
678.01	325.77
678.34	324.76
678.68	323.75
679.02	322.71
679.36	321.65
679.70	320.59
680.04	319.61
680.37	318.50
680.71	317.49
681.05	316.50
681.39	315.68
681.73	314.69
682.06	313.81
682.40	312.91
682.74	312.16
683.08	311.34
683.42	310.45
683.75	309.68
684.09	308.73
684.43	307.96
684.77	307.00
685.10	306.18
685.44	305.28
685.78	304.38
686.12	303.60
686.45	302.88
686.79	302.05
687.13	301.35
687.46	300.64
687.80	300.00
688.14	299.24
688.48	298.45
688.81	297.74
689.15	297.10
689.49	296.39
689.82	295.64
690.16	294.80
690.50	294.19
690.83	293.47
691.17	292.67
691.51	291.97
691.84	291.37
692.18	290.62
692.52	289.92
692.85	289.39
693.19	288.98
693.52	288.35
693.86	287.72
694.20	287.07
694.53	286.51
694.87	285.77
695.21	285.14
695.54	284.54
695.88	283.91
696.21	283.17
696.55	282.55
696.88	281.89
697.22	281.30
697.56	280.73
697.89	280.07
698.23	279.67
698.56	279.07
698.90	278.62
699.23	278.11
699.57	277.65
699.90	277.09
700.24	276.45
700.58	275.99
700.91	275.53
701.25	275.45
701.58	275.28
701.92	274.93
702.25	274.50
702.59	274.04
702.92	273.64
703.26	273.23
703.59	272.75
703.93	272.74
704.26	272.39
704.60	272.03
704.93	271.65
705.26	271.13
705.60	270.84
705.93	270.32
706.27	270.04
706.60	269.74
706.94	269.54
707.27	269.07
707.61	268.71
707.94	268.34
708.27	267.48
708.61	266.74
708.94	266.32
709.28	266.01
709.61	265.53
709.94	265.17
710.28	264.85
710.61	264.48
710.95	263.66
711.28	263.65
711.61	263.27
711.95	263.04
712.28	262.63
712.61	262.28
712.95	262.20
713.28	262.02
713.61	261.53
713.95	261.06
714.28	260.74
714.61	260.32
714.95	259.97
715.28	259.60
715.61	259.29
715.95	258.95
716.28	258.46
716.61	258.25
716.95	257.88
717.28	257.54
717.61	257.24
717.94	256.90
718.28	256.26
718.61	255.95
718.94	255.54
719.27	255.34
719.61	255.01
719.94	254.57
720.27	254.07
720.60	253.83
720.94	253.56
721.27	253.35
721.60	253.13
721.93	252.87
722.27	252.91
722.60	252.67
722.93	252.31
723.26	252.14
723.59	251.82
723.93	251.61
724.26	251.51
724.59	251.31
724.92	251.10
725.25	250.95
725.59	250.65
725.92	250.57
726.25	250.36
726.58	250.13
726.91	249.94
727.24	249.75
727.57	249.58
727.91	249.27
728.24	249.11
728.57	248.88
728.90	248.73
729.23	248.29
729.56	248.34
729.89	248.25
730.22	248.17
730.55	248.02
730.89	247.84
731.22	247.53
731.55	247.29
731.88	247.15
732.21	246.86
732.54	246.72
732.87	246.46
733.20	246.34
733.53	246.22
733.86	246.08
734.19	245.88
734.52	245.78
734.85	245.96
735.18	245.79
735.51	245.76
735.84	245.62
736.17	245.65
736.50	245.25
736.83	245.66
737.16	245.35
737.49	245.32
737.82	245.16
738.15	245.09
738.48	244.99
738.81	244.82
739.14	244.71
739.47	244.53
739.80	244.44
740.13	244.25
740.46	244.04
740.79	243.75
741.12	243.68
741.45	243.49
741.78	243.07
742.11	243.02
742.44	242.80
742.77	242.77
743.10	242.47
743.43	242.30
743.75	241.71
744.08	242.23
744.41	241.95
744.74	241.82
745.07	241.56
745.40	241.48
745.73	241.60
746.06	241.45
746.39	241.42
746.71	241.22
747.04	241.05
747.37	240.88
747.70	240.92
748.03	240.71
748.36	240.66
748.68	240.57
749.01	240.30
749.34	240.10
749.67	239.97
750.00	240.04
750.33	240.27
750.65	240.17
750.98	239.48
751.31	239.42
751.64	239.34
751.97	239.52
752.29	239.39
752.62	239.05
752.95	238.92
753.28	238.81
753.60	238.68
753.93	238.74
754.26	238.77
754.59	238.49
754.91	238.41
755.24	238.28
755.57	238.15
755.90	238.05
756.22	238.05
756.55	237.83
756.88	237.56
757.20	237.16
757.53	236.94
757.86	236.88
758.19	236.81
758.51	236.74
758.84	236.34
759.17	236.22
759.49	236.15
759.82	236.32
760.15	236.12
760.47	236.06
760.80	235.76
761.13	235.68
761.45	235.61
761.78	235.53
762.11	235.42
762.43	235.35
762.76	235.22
763.08	235.13
763.41	235.15
763.74	235.08
764.06	234.95
764.39	234.85
764.71	234.66
765.04	234.45
765.37	234.34
765.69	234.34
766.02	234.22
766.34	234.10
766.67	233.77
767.00	233.78
767.32	233.93
767.65	234.18
767.97	234.04
768.30	233.99
768.62	233.91
768.95	233.79
769.27	233.69
769.60	233.76
769.92	233.62
770.25	233.41
770.57	233.26
770.90	233.27
771.22	233.20
771.55	233.16
771.87	233.20
772.20	233.10
772.52	233.39
772.85	233.92
773.17	233.88
773.50	233.76
773.82	233.69
774.15	233.44
774.47	233.12
774.80	233.04
775.12	233.00
775.45	232.95
775.77	232.93
776.09	232.97
776.42	232.85
776.74	232.93
777.07	232.91
777.39	232.95
777.72	232.78
778.04	232.80
778.36	232.81
778.69	232.80
779.01	232.79
779.33	232.39
779.66	231.83
779.98	231.74
780.31	231.76
780.63	231.87
780.95	231.83
781.28	231.75
781.60	231.69
781.92	231.66
782.25	231.60
782.57	231.55
782.89	231.40
783.22	231.38
783.54	231.26
783.86	231.26
784.19	231.16
784.51	231.32
784.83	231.21
785.16	231.12
785.48	231.02
785.80	230.97
786.12	230.90
786.45	230.77
786.77	230.76
787.09	230.78
787.42	230.56
787.74	230.57
788.06	230.58
788.38	230.53
788.71	230.50
789.03	230.41
789.35	230.44
789.67	230.41
789.99	230.38
790.32	230.30
790.64	230.29
790.96	230.58
791.28	230.41
791.61	230.35
791.93	230.33
792.25	230.32
792.57	230.66
792.89	230.56
793.21	230.68
793.54	230.58
793.86	230.45
794.18	230.49
794.50	230.38
794.82	230.31
795.14	230.36
795.47	230.41
795.79	230.47
796.11	230.28
796.43	230.25
796.75	230.23
797.07	230.21
797.39	230.10
797.71	229.82
798.04	229.84
798.36	229.88
798.68	229.87
799.00	229.79
799.32	229.47
799.64	229.58
799.96	229.45
800.28	229.59
800.60	229.47
800.92	229.53
801.24	229.50
801.56	229.64
801.89	229.55
802.21	229.56
802.53	229.41
802.85	229.54
803.17	229.78
803.49	229.66
803.81	229.72
804.13	229.69
804.45	229.57
804.77	229.51
805.09	229.44
805.41	229.37
805.73	229.33
806.05	229.20
806.37	229.15
806.69	229.11
807.01	229.01
807.33	229.14
807.65	228.91
807.97	229.15
808.28	229.02
808.60	228.96
808.92	228.83
809.24	229.08
809.56	229.00
809.88	228.81
810.20	228.85
810.52	228.90
810.84	228.85
811.16	228.83
811.48	228.78
811.80	228.99
812.12	228.96
812.43	229.06
812.75	229.16
813.07	229.15
813.39	229.25
813.71	229.18
814.03	229.11
814.35	229.16
814.67	228.89
814.98	228.73
815.30	228.80
815.62	228.76
815.94	228.57
816.26	228.81
816.58	228.67
816.89	228.67
817.21	228.50
817.53	228.53
817.85	228.62
818.17	228.62
818.48	228.35
818.80	228.44
819.12	228.29
819.44	228.12
819.76	227.96
820.07	227.90
820.39	227.91
820.71	227.92
821.03	227.87
821.34	227.81
821.66	227.98
821.98	227.93
822.30	227.94
822.61	228.12
822.93	227.86
823.25	227.83
823.57	227.79
823.88	227.88
824.20	227.85
824.52	227.86
824.83	227.82
825.15	227.77
825.47	227.72
825.79	227.76
826.10	227.79
826.42	227.84
826.74	227.85
827.05	227.78
827.37	227.81
827.69	227.77
828.00	227.84
828.32	227.82
828.64	227.81
828.95	228.00
829.27	227.92
829.58	227.91
829.90	228.02
830.22	227.99
830.53	227.86
830.85	227.82
831.17	227.68
831.48	227.67
831.80	227.74
832.11	227.76
832.43	227.69
832.75	227.65
833.06	227.98
833.38	227.88
833.69	227.93
834.01	227.91
834.32	227.98
834.64	227.94
834.96	227.82
835.27	227.75
835.59	227.60
835.90	227.47
836.22	227.52
836.53	227.41
836.85	227.45
837.16	227.92
837.48	227.89
837.79	228.08
838.11	228.17
838.42	228.19
838.74	228.19
839.05	228.20
839.37	228.28
839.68	227.93
840.00	227.96
840.31	227.98
840.63	227.92
840.94	227.90
841.26	227.78
841.57	227.89
841.88	228.01
842.20	227.96
842.51	227.94
842.83	227.81
843.14	228.30
843.46	228.32
843.77	228.02
844.08	228.03
844.40	227.88
844.71	227.79
845.03	227.79
845.34	227.85
845.65	227.85
845.97	227.78
846.28	227.83
846.60	227.83
846.91	227.75
847.22	227.77
847.54	227.80
847.85	227.80
848.16	227.82
848.48	227.79
848.79	228.02
849.10	228.12
849.42	228.21
849.73	227.70
850.04	227.61
850.36	227.46
850.67	227.54
850.98	227.50
851.30	227.57
851.61	227.49
851.92	227.40
852.23	227.51
852.55	227.58
852.86	227.55
853.17	227.63
853.49	227.80
853.80	227.90
854.11	227.92
854.42	228.09
854.74	227.92
855.05	227.94
855.36	227.69
855.67	227.66
855.99	227.62
856.30	228.13
856.61	228.08
856.92	228.08
857.23	228.00
857.55	227.95
857.86	227.96
858.17	228.05
858.48	227.96
858.79	227.92
859.11	227.95
859.42	227.95
859.73	227.76
860.04	227.68
860.35	227.48
860.66	227.30
860.98	227.19
861.29	227.26
861.60	227.21
861.91	227.34
862.22	227.19
862.53	227.15
862.84	226.58
863.16	226.71
863.47	226.61
863.78	226.66
864.09	226.73
864.40	226.69
864.71	226.69
865.02	226.84
865.33	226.75
865.64	226.66
865.95	226.73
866.27	227.05
866.58	226.97
866.89	227.07
867.20	227.20
867.51	227.19
867.82	227.18
868.13	227.29
868.44	227.08
868.75	227.24
869.06	227.27
869.37	227.38
869.68	227.28
869.99	227.39
870.30	227.33
870.61	227.34
870.92	227.23
871.23	227.22
871.54	227.19
871.85	227.27
872.16	227.30
872.47	227.27
872.78	227.01
873.09	227.09
873.40	227.10
873.71	227.09
874.02	227.15
874.33	227.12
874.64	226.97
874.95	227.16
875.26	227.06
875.56	227.03
875.87	227.05
876.18	227.06
876.49	227.54
876.80	227.56
877.11	227.45
877.42	227.46
877.73	227.44
878.04	227.39
878.35	227.46
878.66	227.46
878.96	227.47
879.27	227.51
879.58	227.48
879.89	227.42
880.20	227.58
880.51	227.56
880.82	227.61
881.12	227.66
881.43	227.53
881.74	227.50
882.05	227.53
882.36	227.55
882.67	227.53
882.97	227.02
883.28	226.99
883.59	227.07
883.90	227.17
884.21	227.25
884.51	227.18
884.82	227.12
885.13	227.10
885.44	226.98
885.74	226.95
886.05	226.95
886.36	226.90
886.67	226.68
886.98	226.94
887.28	226.89
887.59	226.87
887.90	226.88
888.20	226.87
888.51	226.98
888.82	226.88
889.13	226.95
889.43	227.28
889.74	227.24
890.05	227.20
890.35	227.17
890.66	227.03
890.97	227.04
891.28	226.89
891.58	226.89
891.89	226.90
892.20	226.85
892.50	226.78
892.81	226.77
893.12	226.80
893.42	226.49
893.73	226.55
894.04	226.51
894.34	226.50
894.65	226.50
894.95	226.38
895.26	226.40
895.57	226.60
895.87	226.18
896.18	226.27
896.48	226.30
896.79	226.28
897.10	226.33
897.40	226.40
897.71	226.53
898.01	226.49
898.32	226.52
898.63	226.47
898.93	226.55
899.24	226.65
899.54	226.61
899.85	226.65
900.15	226.63
900.46	226.65
900.76	226.69
901.07	226.73
901.38	226.72
901.68	226.77
901.99	226.53
902.29	226.56
902.60	226.49
902.90	226.45
903.21	226.43
903.51	226.37
903.82	226.39
904.12	226.35
904.43	226.39
904.73	226.41
905.03	226.49
905.34	226.95
905.64	226.87
905.95	226.91
906.25	226.91
906.56	226.82
906.86	226.79
907.17	226.85
907.47	226.87
907.77	226.89
908.08	226.80
908.38	226.85
908.69	226.92
908.99	227.07
909.30	227.14
909.60	227.18
909.90	227.27
910.21	227.15
910.51	227.10
910.81	227.17
911.12	227.20
911.42	227.21
911.73	226.73
912.03	226.76
912.33	226.85
912.64	226.85
912.94	226.85
913.24	226.85
913.55	226.82
913.85	226.80
914.15	226.85
914.46	226.93
914.76	226.95
915.06	226.90
915.37	226.79
915.67	226.75
915.97	226.80
916.27	226.71
916.58	226.77
916.88	226.81
917.18	226.72
917.49	227.04
917.79	226.98
918.09	227.07
918.39	227.20
918.70	227.10
919.00	227.10
919.30	227.35
919.60	227.33
919.91	227.28
920.21	227.23
920.51	227.21
920.81	227.19
921.12	227.24
921.42	227.26
921.72	227.35
922.02	227.43
922.32	227.42
922.63	227.41
922.93	227.59
923.23	227.60
923.53	227.57
923.83	227.29
924.13	227.35
924.44	227.29
924.74	227.38
925.04	227.52
925.34	227.50
925.64	227.29
925.94	227.27
926.24	227.50
926.55	227.49
926.85	227.48
927.15	227.45
927.45	227.43
927.75	227.40
928.05	227.36
928.35	227.25
928.65	227.37
928.95	227.43
929.26	227.32
929.56	227.42
929.86	227.48
930.16	227.38
930.46	227.33
930.76	227.32
931.06	227.03
931.36	226.89
931.66	226.96
931.96	226.96
932.26	227.02
932.56	226.82
932.86	226.80
933.16	226.82
933.46	226.73
933.76	226.63
934.06	226.77
934.36	226.87
934.66	226.85
934.96	226.74
935.26	226.70
935.56	226.63
935.86	226.51
936.16	226.41
936.46	226.39
936.76	226.36
937.06	226.25
937.36	226.27
937.66	226.29
937.96	226.23
938.26	226.22
938.56	226.14
938.86	226.15
939.16	226.26
939.46	226.29
939.76	226.40
940.06	226.31
940.35	226.20
940.65	225.95
940.95	226.00
941.25	225.83
941.55	225.81
941.85	225.82
942.15	225.94
942.45	226.06
942.75	226.11
943.04	226.09
943.34	226.25
943.64	226.25
943.94	226.22
944.24	226.25
944.54	226.21
944.84	226.24
945.13	226.17
945.43	226.12
945.73	226.08
946.03	226.06
946.33	226.13
946.62	226.04
946.92	226.07
947.22	226.17
947.52	226.29
947.82	226.30
948.11	226.29
948.41	226.12
948.71	226.01
949.01	226.03
949.31	226.08
949.60	226.04
949.90	226.07
950.20	226.02
950.50	226.01
950.79	226.03
951.09	226.13
951.39	226.19
951.69	226.17
951.98	226.30
952.28	226.31
952.58	226.25
952.87	226.29
953.17	226.39
953.47	226.33
953.76	226.32
954.06	226.30
954.36	226.26
954.66	226.31
954.95	226.48
955.25	226.51
955.55	226.55
955.84	226.51
956.14	226.56
956.44	226.57
956.73	226.45
957.03	226.52
957.32	226.45
957.62	226.37
957.92	226.46
958.21	226.39
958.51	226.86
958.81	227.05
959.10	227.13
959.40	227.20
959.69	227.17
959.99	227.15
960.29	227.20
960.58	227.09
960.88	227.28
961.17	227.16
961.47	227.21
961.76	227.15
962.06	227.25
962.36	227.25
962.65	227.30
962.95	227.31
963.24	227.25
963.54	227.28
963.83	227.36
964.13	227.24
964.42	227.18
964.72	226.82
965.01	226.74
965.31	226.72
965.60	226.62
965.90	226.94
966.19	226.91
966.49	226.89
966.78	226.97
967.08	226.81
967.37	226.82
967.67	226.77
967.96	226.84
968.26	226.81
968.55	226.85
968.85	226.88
969.14	226.93
969.43	226.94
969.73	226.89
970.02	226.75
970.32	226.68
970.61	226.61
970.91	226.50
971.20	226.38
971.49	226.27
971.79	226.39
972.08	226.02
972.38	226.04
972.67	226.02
972.96	226.07
973.26	226.04
973.55	226.17
973.85	226.11
974.14	226.04
974.43	225.98
974.73	225.90
975.02	225.82
975.31	225.82
975.61	225.82
975.90	225.79
976.19	225.83
976.49	225.91
976.78	225.91
977.07	225.84
977.37	225.94
977.66	226.04
977.95	225.88
978.24	225.94
978.54	226.03
978.83	226.04
979.12	226.01
979.42	226.05
979.71	226.02
980.00	225.99
980.29	226.09
980.59	226.03
980.88	226.08
981.17	226.13
981.46	226.11
981.76	226.10
982.05	226.29
982.34	226.39
982.63	226.48
982.93	226.52
983.22	226.73
983.51	226.75
983.80	226.82
984.09	226.89
984.39	226.90
984.68	226.83
984.97	226.85
985.26	226.82
985.55	226.85
985.85	226.66
986.14	226.79
986.43	226.79
986.72	226.84
987.01	226.74
987.30	226.73
987.59	226.75
987.89	226.79
988.18	226.60
988.47	226.57
988.76	226.51
989.05	226.54
989.34	226.52
989.63	226.62
989.92	226.56
990.22	226.55
990.51	226.52
990.80	226.56
991.09	226.65
991.38	226.68
991.67	226.66
991.96	226.68
992.25	226.65
992.54	226.60
992.83	226.62
993.12	226.68
993.41	226.75
993.70	226.95
993.99	227.03
994.28	227.15
994.58	227.18
994.87	227.19
995.16	227.14
995.45	227.05
995.74	226.86
996.03	226.87
996.32	227.00
996.61	227.08
996.90	227.00
997.19	226.94
997.48	227.03
997.77	226.92
998.06	227.01
998.34	227.00
998.63	227.05
998.92	227.03
999.21	227.06
999.50	227.12
999.79	227.01
1000.08	227.00
1000.37	226.99
1000.66	226.95
1000.95	227.05
1001.24	227.05
1001.53	227.09
1001.82	227.16
1002.11	227.08
1002.40	227.07
1002.68	227.21
1002.97	227.56
1003.26	227.54
1003.55	227.39
1003.84	227.43
1004.13	227.47
1004.42	227.43
1004.71	227.40
1004.99	227.41
1005.28	227.47
1005.57	227.40
1005.86	227.24
1006.15	227.20
1006.44	227.10
1006.72	227.07
1007.01	226.93
1007.30	226.94
1007.59	226.86
1007.88	226.84
1008.17	226.83
1008.45	226.68
1008.74	226.40
1009.03	226.10
1009.32	226.07
1009.60	226.10
1009.89	226.07
1010.18	225.88
1010.47	225.90
1010.76	225.86
1011.04	225.86
1011.33	225.86
1011.62	225.88
1011.91	225.99
1012.19	226.00
1012.48	226.07
1012.77	226.06
1013.05	226.30
1013.34	226.27
1013.63	226.31
1013.92	226.39
1014.20	226.35
1014.49	226.43
1014.78	226.53
1015.06	226.45
1015.35	226.40
1015.64	226.48
1015.92	226.58
1016.21	226.62
1016.50	226.50
1016.78	226.58
1017.07	226.56
1017.36	226.54
1017.64	226.48
1017.93	226.55
1018.22	226.47
1018.50	226.38
1018.79	226.41
1019.08	226.20
1019.36	226.28
1019.65	226.16
1019.93	226.22
1020.22	226.35
1020.51	226.56
1020.79	226.54
1021.08	225.50
1021.36	225.10
1021.65	226.35
1021.94	226.45
1022.22	227.35
1022.51	224.45
1022.79	228.50
1023.08	226.90
1023.36	232.05
1023.65	226.10
>>>>>End Processed Spectral Data<<<<<
