SpectraSuite Data File
++++++++++++++++++++++++++++++++++++
Date: Wed Sep 04 17:43:07 EDT 2013
User: lab3
Dark Spectrum Present: Yes
Reference Spectrum Present: No
Number of Sampled Component Spectra: 1
Spectrometers: USB2E7196
Integration Time (usec): 170000 (USB2E7196)
Spectra Averaged: 20 (USB2E7196)
Boxcar Smoothing: 10 (USB2E7196)
Correct for Electrical Dark: No (USB2E7196)
Strobe/Lamp Enabled: No (USB2E7196)
Correct for Detector Non-linearity: No (USB2E7196)
Correct for Stray Light: No (USB2E7196)
Number of Pixels in Processed Spectrum: 2048
>>>>>Begin Processed Spectral Data<<<<<
339.09	0.00
339.48	211.55
339.86	213.25
340.24	215.70
340.63	217.70
341.01	224.60
341.39	219.35
341.78	221.90
342.16	222.20
342.54	222.85
342.93	211.55
343.31	222.22
343.69	222.74
344.07	223.25
344.46	223.76
344.84	224.12
345.22	224.11
345.60	224.40
345.99	224.55
346.37	224.70
346.75	224.78
347.13	224.86
347.52	225.03
347.90	225.19
348.28	225.25
348.66	225.47
349.05	225.33
349.43	225.48
349.81	225.48
350.19	225.43
350.57	225.46
350.96	225.52
351.34	225.55
351.72	225.70
352.10	225.74
352.48	225.68
352.87	225.71
353.25	225.77
353.63	225.78
354.01	225.91
354.39	225.93
354.77	225.99
355.15	226.19
355.54	226.13
355.92	226.02
356.30	226.06
356.68	226.42
357.06	226.61
357.44	226.55
357.82	226.63
358.20	227.13
358.58	227.18
358.97	227.27
359.35	227.51
359.73	227.67
360.11	227.74
360.49	227.84
360.87	227.91
361.25	228.02
361.63	228.24
362.01	228.26
362.39	228.29
362.77	228.40
363.15	228.36
363.53	228.43
363.91	228.49
364.29	228.51
364.67	228.04
365.05	228.04
365.43	228.16
365.81	228.24
366.19	228.12
366.57	228.35
366.95	228.38
367.33	228.26
367.71	228.25
368.09	228.37
368.47	228.43
368.85	228.38
369.23	228.47
369.61	228.30
369.99	228.49
370.37	228.60
370.75	228.78
371.13	228.68
371.51	228.53
371.89	228.53
372.27	228.61
372.65	228.63
373.03	228.55
373.41	228.50
373.78	228.41
374.16	228.10
374.54	227.91
374.92	227.77
375.30	227.74
375.68	227.54
376.06	227.46
376.44	227.31
376.82	227.30
377.19	227.17
377.57	227.15
377.95	226.89
378.33	226.78
378.71	226.45
379.09	226.49
379.47	226.48
379.84	226.36
380.22	226.14
380.60	226.05
380.98	226.00
381.36	225.95
381.73	225.81
382.11	225.81
382.49	225.77
382.87	225.74
383.25	225.66
383.62	226.22
384.00	226.15
384.38	226.08
384.76	226.17
385.13	226.35
385.51	226.25
385.89	226.13
386.27	226.11
386.64	226.17
387.02	226.09
387.40	226.08
387.78	226.04
388.15	226.05
388.53	225.94
388.91	225.85
389.29	225.76
389.66	225.86
390.04	225.75
390.42	225.85
390.79	225.81
391.17	225.74
391.55	225.25
391.92	225.17
392.30	225.29
392.68	225.10
393.05	225.09
393.43	225.08
393.81	225.15
394.18	225.14
394.56	225.19
394.94	225.30
395.31	225.29
395.69	225.52
396.06	225.66
396.44	225.78
396.82	225.87
397.19	226.17
397.57	226.09
397.95	226.25
398.32	226.18
398.70	226.26
399.07	226.50
399.45	226.55
399.82	226.68
400.20	226.64
400.58	226.79
400.95	226.59
401.33	226.78
401.70	227.15
402.08	227.26
402.45	227.36
402.83	227.50
403.20	227.62
403.58	227.72
403.95	227.91
404.33	228.15
404.71	228.30
405.08	228.68
405.46	228.91
405.83	229.15
406.21	229.25
406.58	229.50
406.96	229.71
407.33	229.95
407.70	230.26
408.08	231.00
408.45	231.40
408.83	231.88
409.20	232.19
409.58	232.30
409.95	232.78
410.33	233.19
410.70	233.56
411.08	234.18
411.45	234.66
411.82	235.11
412.20	235.75
412.57	236.70
412.95	237.01
413.32	237.75
413.69	238.44
414.07	239.25
414.44	240.14
414.82	240.93
415.19	241.97
415.56	243.00
415.94	243.76
416.31	244.91
416.68	246.15
417.06	247.54
417.43	248.97
417.81	250.44
418.18	251.96
418.55	253.55
418.93	255.19
419.30	256.92
419.67	258.76
420.04	260.57
420.42	262.35
420.79	265.03
421.16	267.34
421.54	269.96
421.91	272.57
422.28	275.07
422.66	277.90
423.03	280.80
423.40	283.52
423.77	286.51
424.15	289.49
424.52	292.61
424.89	296.12
425.26	299.37
425.64	302.49
426.01	306.02
426.38	309.76
426.75	313.63
427.13	317.50
427.50	321.62
427.87	325.87
428.24	330.03
428.61	333.64
428.99	338.16
429.36	342.68
429.73	347.24
430.10	351.91
430.47	356.63
430.85	361.32
431.22	366.58
431.59	372.36
431.96	377.60
432.33	383.41
432.70	388.95
433.08	395.62
433.45	401.93
433.82	408.09
434.19	414.97
434.56	421.92
434.93	428.39
435.30	434.87
435.68	442.05
436.05	449.18
436.42	456.16
436.79	462.65
437.16	469.62
437.53	476.96
437.90	484.28
438.27	491.50
438.64	498.93
439.01	505.81
439.38	511.70
439.75	517.83
440.13	524.50
440.50	530.83
440.87	535.91
441.24	541.20
441.61	547.09
441.98	551.26
442.35	555.94
442.72	560.99
443.09	565.84
443.46	568.58
443.83	570.47
444.20	572.21
444.57	574.57
444.94	575.54
445.31	576.57
445.68	578.02
446.05	578.25
446.42	577.25
446.79	576.33
447.16	575.14
447.53	574.13
447.90	571.15
448.27	568.09
448.64	564.17
449.01	561.19
449.37	556.00
449.74	551.09
450.11	545.57
450.48	539.09
450.85	532.42
451.22	526.88
451.59	521.51
451.96	516.21
452.33	509.34
452.70	503.30
453.07	496.09
453.43	488.21
453.80	481.21
454.17	474.52
454.54	467.84
454.91	460.95
455.28	454.22
455.65	448.07
456.02	442.47
456.38	437.03
456.75	430.55
457.12	425.14
457.49	419.75
457.86	414.27
458.23	410.00
458.59	405.26
458.96	400.44
459.33	396.03
459.70	391.86
460.07	388.38
460.43	384.43
460.80	380.87
461.17	377.81
461.54	374.50
461.91	371.35
462.27	368.15
462.64	365.43
463.01	362.55
463.38	359.83
463.74	356.40
464.11	353.92
464.48	351.75
464.85	349.40
465.21	347.75
465.58	345.81
465.95	343.48
466.32	341.75
466.68	339.80
467.05	338.03
467.42	336.10
467.78	334.21
468.15	332.39
468.52	331.09
468.88	329.23
469.25	327.61
469.62	326.38
469.98	325.16
470.35	323.95
470.72	322.76
471.08	321.31
471.45	320.33
471.82	319.35
472.18	318.09
472.55	317.30
472.92	316.18
473.28	315.31
473.65	314.46
474.02	313.46
474.38	312.84
474.75	312.28
475.11	311.62
475.48	311.13
475.85	310.70
476.21	310.10
476.58	309.71
476.94	309.50
477.31	309.16
477.67	308.81
478.04	308.65
478.41	308.40
478.77	308.79
479.14	308.61
479.50	308.56
479.87	308.72
480.23	308.80
480.60	308.82
480.96	308.93
481.33	309.25
481.69	309.55
482.06	309.79
482.42	310.10
482.79	310.46
483.15	310.91
483.52	311.53
483.88	311.98
484.25	312.52
484.61	313.10
484.98	313.71
485.34	314.67
485.71	315.45
486.07	316.37
486.44	316.85
486.80	317.91
487.17	318.92
487.53	320.18
487.90	321.51
488.26	323.08
488.62	324.62
488.99	326.06
489.35	327.63
489.72	329.43
490.08	331.14
490.44	333.00
490.81	335.02
491.17	337.06
491.54	339.44
491.90	341.85
492.26	344.41
492.63	347.02
492.99	349.57
493.36	352.45
493.72	355.46
494.08	358.70
494.45	362.13
494.81	365.73
495.17	369.23
495.54	372.99
495.90	376.78
496.26	380.77
496.63	384.95
496.99	389.30
497.35	393.86
497.72	398.65
498.08	403.60
498.44	408.70
498.80	414.17
499.17	419.69
499.53	425.36
499.89	431.15
500.26	437.14
500.62	443.45
500.98	450.06
501.34	456.78
501.71	463.68
502.07	470.41
502.43	477.57
502.79	485.10
503.16	492.90
503.52	500.92
503.88	509.01
504.24	517.45
504.60	526.21
504.97	535.26
505.33	544.48
505.69	554.37
506.05	563.94
506.41	573.65
506.78	583.71
507.14	594.11
507.50	604.75
507.86	615.85
508.22	627.00
508.59	638.20
508.95	649.91
509.31	662.04
509.67	674.43
510.03	686.58
510.39	698.97
510.75	711.68
511.12	724.73
511.48	738.02
511.84	751.42
512.20	765.03
512.56	778.88
512.92	793.04
513.28	806.97
513.64	821.57
514.00	836.13
514.37	850.96
514.73	866.03
515.09	881.17
515.45	896.44
515.81	911.57
516.17	926.94
516.53	942.11
516.89	957.39
517.25	973.04
517.61	989.66
517.97	1006.15
518.33	1022.36
518.69	1038.92
519.05	1055.60
519.41	1072.41
519.77	1089.29
520.13	1105.90
520.49	1122.13
520.85	1139.29
521.21	1156.11
521.57	1173.05
521.93	1189.50
522.29	1206.26
522.65	1222.65
523.01	1238.90
523.37	1255.14
523.73	1271.70
524.09	1287.87
524.45	1303.95
524.81	1320.18
525.17	1335.98
525.53	1351.79
525.89	1368.00
526.25	1383.70
526.61	1399.15
526.97	1414.87
527.33	1431.05
527.68	1447.35
528.04	1463.61
528.40	1478.92
528.76	1494.79
529.12	1510.14
529.48	1525.64
529.84	1540.56
530.20	1556.39
530.56	1571.77
530.91	1587.37
531.27	1602.28
531.63	1617.00
531.99	1631.92
532.35	1646.31
532.71	1660.90
533.07	1675.78
533.42	1689.85
533.78	1703.89
534.14	1718.08
534.50	1731.87
534.86	1745.14
535.21	1757.00
535.57	1769.75
535.93	1781.72
536.29	1793.77
536.65	1806.14
537.00	1818.01
537.36	1829.85
537.72	1840.41
538.08	1851.81
538.44	1862.63
538.79	1873.29
539.15	1884.50
539.51	1894.68
539.87	1904.68
540.22	1913.30
540.58	1922.48
540.94	1930.55
541.29	1938.35
541.65	1945.46
542.01	1952.42
542.37	1958.25
542.72	1964.58
543.08	1970.42
543.44	1977.16
543.79	1982.34
544.15	1987.44
544.51	1992.67
544.87	1997.29
545.22	2001.70
545.58	2004.94
545.94	2008.13
546.29	2010.66
546.65	2012.67
547.01	2014.43
547.36	2016.16
547.72	2018.00
548.07	2017.99
548.43	2019.33
548.79	2020.27
549.14	2021.02
549.50	2021.45
549.86	2021.91
550.21	2022.44
550.57	2022.83
550.92	2021.50
551.28	2020.30
551.64	2019.51
551.99	2018.31
552.35	2017.07
552.70	2016.37
553.06	2015.70
553.41	2013.97
553.77	2013.19
554.13	2012.13
554.48	2011.49
554.84	2010.15
555.19	2009.09
555.55	2008.55
555.90	2006.14
556.26	2003.09
556.61	1999.86
556.97	1996.05
557.32	1993.85
557.68	1991.01
558.03	1987.59
558.39	1984.48
558.74	1981.71
559.10	1977.41
559.45	1972.90
559.81	1967.91
560.16	1962.05
560.52	1956.30
560.87	1951.38
561.23	1945.49
561.58	1939.61
561.94	1932.54
562.29	1925.46
562.64	1918.48
563.00	1910.73
563.35	1904.15
563.71	1897.96
564.06	1891.91
564.42	1885.96
564.77	1878.95
565.12	1871.94
565.48	1865.12
565.83	1858.22
566.19	1851.13
566.54	1844.10
566.89	1837.29
567.25	1830.59
567.60	1824.43
567.96	1817.76
568.31	1810.78
568.66	1803.26
569.02	1795.40
569.37	1788.42
569.72	1781.90
570.08	1773.96
570.43	1765.87
570.78	1758.27
571.14	1750.46
571.49	1741.84
571.84	1733.64
572.20	1725.06
572.55	1716.84
572.90	1707.93
573.26	1699.33
573.61	1690.30
573.96	1681.31
574.31	1671.66
574.67	1662.37
575.02	1652.17
575.37	1642.19
575.72	1631.90
576.08	1622.49
576.43	1612.97
576.78	1602.85
577.13	1592.37
577.49	1582.68
577.84	1573.77
578.19	1564.75
578.54	1555.25
578.90	1546.52
579.25	1537.37
579.60	1527.89
579.95	1517.93
580.30	1508.01
580.66	1497.90
581.01	1487.75
581.36	1477.52
581.71	1468.00
582.06	1458.25
582.42	1449.25
582.77	1440.20
583.12	1431.50
583.47	1422.30
583.82	1413.26
584.17	1404.29
584.53	1395.46
584.88	1386.01
585.23	1376.48
585.58	1365.91
585.93	1356.19
586.28	1346.42
586.63	1336.58
586.98	1326.40
587.34	1317.07
587.69	1307.62
588.04	1298.72
588.39	1290.20
588.74	1281.42
589.09	1272.73
589.44	1263.64
589.79	1254.57
590.14	1245.87
590.49	1236.86
590.84	1228.42
591.19	1220.05
591.54	1211.39
591.89	1202.75
592.25	1195.68
592.60	1187.36
592.95	1179.32
593.30	1170.91
593.65	1162.45
594.00	1153.71
594.35	1147.22
594.70	1138.65
595.05	1130.66
595.40	1122.09
595.75	1113.37
596.10	1105.46
596.45	1097.54
596.80	1089.95
597.15	1082.11
597.50	1073.53
597.85	1065.87
598.19	1057.55
598.54	1049.23
598.89	1041.48
599.24	1033.97
599.59	1025.51
599.94	1018.07
600.29	1010.67
600.64	1003.44
600.99	996.16
601.34	989.64
601.69	981.20
602.04	974.42
602.39	967.56
602.74	961.27
603.08	954.89
603.43	948.49
603.78	941.48
604.13	934.66
604.48	927.94
604.83	921.58
605.18	914.67
605.53	908.48
605.87	902.39
606.22	896.55
606.57	890.23
606.92	884.07
607.27	878.00
607.62	872.12
607.96	866.36
608.31	860.82
608.66	854.95
609.01	849.28
609.36	843.67
609.70	837.92
610.05	832.01
610.40	826.50
610.75	820.51
611.10	815.15
611.44	809.49
611.79	803.83
612.14	798.38
612.49	793.26
612.83	788.08
613.18	782.64
613.53	777.20
613.88	771.93
614.22	766.35
614.57	760.69
614.92	755.48
615.27	750.28
615.61	744.98
615.96	739.80
616.31	734.67
616.65	729.59
617.00	724.47
617.35	719.43
617.70	714.25
618.04	709.39
618.39	704.52
618.74	700.06
619.08	695.36
619.43	690.55
619.78	685.48
620.12	680.31
620.47	675.52
620.82	670.52
621.16	665.63
621.51	661.44
621.85	657.26
622.20	652.71
622.55	648.20
622.89	643.82
623.24	639.34
623.59	635.00
623.93	630.91
624.28	626.78
624.62	623.20
624.97	619.34
625.32	615.33
625.66	611.18
626.01	606.94
626.35	603.25
626.70	599.46
627.04	595.81
627.39	592.10
627.73	588.66
628.08	585.24
628.43	581.53
628.77	577.61
629.12	573.88
629.46	570.52
629.81	567.17
630.15	563.86
630.50	560.61
630.84	557.20
631.19	553.69
631.53	550.52
631.88	546.59
632.22	543.12
632.57	540.05
632.91	536.88
633.26	533.92
633.60	530.59
633.95	527.33
634.29	524.13
634.64	521.09
634.98	517.60
635.32	514.53
635.67	511.84
636.01	509.16
636.36	506.25
636.70	503.29
637.05	500.35
637.39	497.50
637.73	494.65
638.08	492.00
638.42	489.16
638.77	486.19
639.11	483.33
639.45	480.37
639.80	477.29
640.14	474.46
640.49	471.60
640.83	469.00
641.17	466.53
641.52	463.99
641.86	461.42
642.20	459.41
642.55	456.85
642.89	454.31
643.23	451.73
643.58	449.57
643.92	446.93
644.26	444.40
644.61	442.15
644.95	439.82
645.29	437.40
645.64	435.19
645.98	433.03
646.32	430.95
646.66	428.85
647.01	426.84
647.35	424.88
647.69	422.88
648.04	420.93
648.38	418.98
648.72	417.00
649.06	414.84
649.41	412.52
649.75	410.48
650.09	408.48
650.43	406.54
650.78	404.45
651.12	402.56
651.46	400.75
651.80	398.82
652.14	396.89
652.49	395.10
652.83	393.27
653.17	391.48
653.51	389.53
653.85	387.89
654.20	386.22
654.54	384.45
654.88	382.72
655.22	381.21
655.56	379.39
655.90	377.74
656.25	376.22
656.59	374.64
656.93	373.12
657.27	371.68
657.61	369.92
657.95	368.38
658.29	366.89
658.64	365.46
658.98	363.85
659.32	362.28
659.66	360.79
660.00	359.31
660.34	357.89
660.68	356.57
661.02	355.06
661.36	353.65
661.70	352.24
662.05	350.86
662.39	349.43
662.73	348.35
663.07	347.33
663.41	346.03
663.75	344.70
664.09	343.46
664.43	341.98
664.77	340.92
665.11	339.58
665.45	338.51
665.79	337.37
666.13	336.10
666.47	335.00
666.81	333.84
667.15	332.67
667.49	331.48
667.83	330.61
668.17	329.58
668.51	328.49
668.85	327.53
669.19	326.70
669.53	325.68
669.87	324.53
670.21	323.37
670.55	322.40
670.89	321.70
671.23	320.72
671.57	319.89
671.91	318.96
672.25	318.10
672.58	317.17
672.92	316.07
673.26	315.34
673.60	314.43
673.94	313.69
674.28	312.90
674.62	312.11
674.96	311.12
675.30	310.30
675.64	309.50
675.97	308.66
676.31	307.64
676.65	306.66
676.99	305.96
677.33	305.11
677.67	304.41
678.01	303.37
678.34	302.62
678.68	301.95
679.02	301.18
679.36	300.47
679.70	299.65
680.04	299.09
680.37	298.30
680.71	297.56
681.05	296.85
681.39	296.12
681.73	295.39
682.06	294.68
682.40	294.04
682.74	293.43
683.08	292.95
683.42	292.25
683.75	291.73
684.09	290.95
684.43	290.39
684.77	289.71
685.10	289.19
685.44	288.54
685.78	287.90
686.12	287.21
686.45	286.55
686.79	285.89
687.13	285.34
687.46	284.77
687.80	284.39
688.14	283.72
688.48	283.20
688.81	282.70
689.15	282.29
689.49	281.68
689.82	281.11
690.16	280.44
690.50	280.01
690.83	279.35
691.17	278.79
691.51	278.22
691.84	277.74
692.18	277.19
692.52	276.75
692.85	276.28
693.19	276.06
693.52	275.55
693.86	275.05
694.20	274.50
694.53	274.11
694.87	273.49
695.21	272.98
695.54	272.55
695.88	272.02
696.21	271.40
696.55	270.97
696.88	270.42
697.22	269.93
697.56	269.49
697.89	269.11
698.23	268.85
698.56	268.42
698.90	267.94
699.23	267.55
699.57	267.19
699.90	266.67
700.24	266.11
700.58	265.88
700.91	265.68
701.25	265.70
701.58	265.67
701.92	265.45
702.25	265.16
702.59	264.74
702.92	264.40
703.26	264.20
703.59	263.97
703.93	264.20
704.26	263.95
704.60	263.63
704.93	263.21
705.26	262.76
705.60	262.58
705.93	262.19
706.27	262.03
706.60	261.74
706.94	261.74
707.27	261.48
707.61	261.18
707.94	260.89
708.27	260.24
708.61	259.59
708.94	259.22
709.28	258.93
709.61	258.69
709.94	258.39
710.28	258.04
710.61	257.75
710.95	256.96
711.28	256.91
711.61	256.62
711.95	256.59
712.28	256.22
712.61	255.85
712.95	255.95
713.28	255.79
713.61	255.46
713.95	255.04
714.28	254.75
714.61	254.40
714.95	254.04
715.28	253.73
715.61	253.40
715.95	253.17
716.28	252.89
716.61	252.65
716.95	252.39
717.28	252.21
717.61	251.96
717.94	251.75
718.28	251.19
718.61	250.98
718.94	250.60
719.27	250.48
719.61	250.33
719.94	249.94
720.27	249.55
720.60	249.29
720.94	249.10
721.27	248.90
721.60	248.78
721.93	248.67
722.27	248.64
722.60	248.57
722.93	248.35
723.26	248.23
723.59	248.03
723.93	247.95
724.26	247.77
724.59	247.52
724.92	247.33
725.25	247.28
725.59	247.02
725.92	246.95
726.25	246.74
726.58	246.55
726.91	246.36
727.24	246.20
727.57	246.06
727.91	245.74
728.24	245.60
728.57	245.41
728.90	245.27
729.23	244.95
729.56	245.00
729.89	244.84
730.22	244.62
730.55	244.39
730.89	244.20
731.22	243.94
731.55	243.79
731.88	243.70
732.21	243.51
732.54	243.35
732.87	243.16
733.20	243.07
733.53	242.93
733.86	242.77
734.19	242.56
734.52	242.40
734.85	242.57
735.18	242.36
735.51	242.33
735.84	242.18
736.17	242.15
736.50	241.66
736.83	242.06
737.16	241.90
737.49	241.89
737.82	241.73
738.15	241.69
738.48	241.56
738.81	241.33
739.14	241.09
739.47	240.96
739.80	240.77
740.13	240.67
740.46	240.48
740.79	240.38
741.12	240.18
741.45	240.05
741.78	239.73
742.11	239.80
742.44	239.56
742.77	239.51
743.10	239.38
743.43	239.26
743.75	238.70
744.08	239.16
744.41	238.99
744.74	238.89
745.07	238.72
745.40	238.67
745.73	238.79
746.06	238.80
746.39	238.76
746.71	238.66
747.04	238.46
747.37	238.41
747.70	238.43
748.03	238.42
748.36	238.36
748.68	238.22
749.01	237.99
749.34	237.98
749.67	237.92
750.00	237.86
750.33	238.11
750.65	238.07
750.98	237.47
751.31	237.43
751.64	237.31
751.97	237.48
752.29	237.42
752.62	237.11
752.95	236.97
753.28	236.78
753.60	236.70
753.93	236.79
754.26	236.70
754.59	236.48
754.91	236.35
755.24	236.22
755.57	236.18
755.90	236.12
756.22	235.93
756.55	235.78
756.88	235.63
757.20	235.25
757.53	234.99
757.86	234.95
758.19	234.90
758.51	234.78
758.84	234.45
759.17	234.26
759.49	234.29
759.82	234.45
760.15	234.51
760.47	234.39
760.80	234.20
761.13	234.24
761.45	234.04
761.78	234.01
762.11	234.01
762.43	233.86
762.76	233.73
763.08	233.67
763.41	233.68
763.74	233.56
764.06	233.55
764.39	233.55
764.71	233.45
765.04	233.35
765.37	233.32
765.69	233.25
766.02	233.18
766.34	232.98
766.67	232.72
767.00	232.73
767.32	232.90
767.65	233.08
767.97	232.98
768.30	233.02
768.62	232.87
768.95	232.74
769.27	232.66
769.60	232.66
769.92	232.53
770.25	232.30
770.57	232.18
770.90	232.09
771.22	231.95
771.55	231.83
771.87	231.74
772.20	231.67
772.52	231.94
772.85	232.52
773.17	232.52
773.50	232.50
773.82	232.26
774.15	231.97
774.47	231.62
774.80	231.45
775.12	231.30
775.45	231.32
775.77	231.31
776.09	231.29
776.42	231.28
776.74	231.38
777.07	231.30
777.39	231.34
777.72	231.20
778.04	231.27
778.36	231.24
778.69	231.27
779.01	231.28
779.33	230.85
779.66	230.25
779.98	230.22
780.31	230.13
780.63	230.36
780.95	230.42
781.28	230.36
781.60	230.29
781.92	230.29
782.25	230.19
782.57	230.16
782.89	230.12
783.22	229.96
783.54	229.89
783.86	229.95
784.19	229.91
784.51	230.02
784.83	229.79
785.16	229.66
785.48	229.48
785.80	229.35
786.12	229.38
786.45	229.35
786.77	229.32
787.09	229.24
787.42	229.05
787.74	229.00
788.06	228.99
788.38	228.95
788.71	228.92
789.03	228.92
789.35	228.85
789.67	228.78
789.99	228.81
790.32	228.60
790.64	228.61
790.96	228.88
791.28	228.71
791.61	228.69
791.93	228.76
792.25	228.78
792.57	229.11
792.89	228.99
793.21	228.97
793.54	228.84
793.86	228.87
794.18	228.82
794.50	228.72
794.82	228.76
795.14	228.80
795.47	228.85
795.79	228.84
796.11	228.74
796.43	228.66
796.75	228.67
797.07	228.79
797.39	228.69
797.71	228.33
798.04	228.33
798.36	228.32
798.68	228.24
799.00	228.20
799.32	227.93
799.64	228.05
799.96	227.94
800.28	228.12
800.60	228.12
800.92	228.18
801.24	228.15
801.56	228.15
801.89	228.11
802.21	228.06
802.53	228.00
802.85	228.14
803.17	228.44
803.49	228.33
803.81	228.27
804.13	228.26
804.45	228.29
804.77	228.33
805.09	228.38
805.41	228.32
805.73	228.28
806.05	228.20
806.37	228.10
806.69	228.08
807.01	227.94
807.33	227.86
807.65	227.61
807.97	227.85
808.28	227.79
808.60	227.81
808.92	227.78
809.24	228.06
809.56	227.93
809.88	227.71
810.20	227.77
810.52	227.90
810.84	227.80
811.16	227.77
811.48	227.71
811.80	227.91
812.12	227.92
812.43	227.99
812.75	227.99
813.07	228.00
813.39	228.09
813.71	227.98
814.03	227.94
814.35	228.00
814.67	227.76
814.98	227.73
815.30	227.71
815.62	227.56
815.94	227.31
816.26	227.59
816.58	227.48
816.89	227.51
817.21	227.36
817.53	227.41
817.85	227.34
818.17	227.38
818.48	227.15
818.80	227.23
819.12	227.16
819.44	227.10
819.76	227.02
820.07	227.01
820.39	227.10
820.71	227.13
821.03	227.14
821.34	227.07
821.66	227.10
821.98	227.10
822.30	227.20
822.61	227.41
822.93	227.09
823.25	227.09
823.57	227.00
823.88	227.08
824.20	227.07
824.52	227.20
824.83	227.15
825.15	227.12
825.47	227.10
825.79	227.18
826.10	227.14
826.42	227.13
826.74	227.13
827.05	227.06
827.37	227.06
827.69	227.01
828.00	227.11
828.32	227.15
828.64	227.11
828.95	227.31
829.27	227.15
829.58	227.24
829.90	227.33
830.22	227.39
830.53	227.28
830.85	227.22
831.17	227.08
831.48	227.06
831.80	227.03
832.11	227.01
832.43	226.92
832.75	226.92
833.06	227.24
833.38	227.11
833.69	227.08
834.01	227.16
834.32	227.12
834.64	227.07
834.96	227.06
835.27	227.04
835.59	226.81
835.90	226.75
836.22	226.72
836.53	226.60
836.85	226.53
837.16	227.03
837.48	227.08
837.79	227.20
838.11	227.28
838.42	227.27
838.74	227.29
839.05	227.33
839.37	227.32
839.68	226.99
840.00	226.95
840.31	227.05
840.63	226.97
840.94	226.93
841.26	226.87
841.57	226.83
841.88	226.85
842.20	226.86
842.51	226.84
842.83	226.83
843.14	227.35
843.46	227.44
843.77	227.17
844.08	227.18
844.40	227.06
844.71	226.95
845.03	226.96
845.34	226.94
845.65	226.93
845.97	227.00
846.28	227.03
846.60	227.08
846.91	226.98
847.22	227.00
847.54	227.18
847.85	227.21
848.16	227.23
848.48	227.15
848.79	227.32
849.10	227.33
849.42	227.34
849.73	226.85
850.04	226.73
850.36	226.54
850.67	226.55
850.98	226.55
851.30	226.69
851.61	226.65
851.92	226.68
852.23	226.77
852.55	226.68
852.86	226.71
853.17	226.77
853.49	226.89
853.80	226.94
854.11	226.93
854.42	227.00
854.74	226.92
855.05	227.00
855.36	226.64
855.67	226.61
855.99	226.63
856.30	227.14
856.61	227.16
856.92	227.22
857.23	227.25
857.55	227.21
857.86	227.14
858.17	227.27
858.48	227.16
858.79	227.01
859.11	227.08
859.42	226.96
859.73	226.82
860.04	226.87
860.35	226.65
860.66	226.48
860.98	226.43
861.29	226.46
861.60	226.41
861.91	226.64
862.22	226.60
862.53	226.46
862.84	225.95
863.16	226.06
863.47	225.95
863.78	225.89
864.09	225.93
864.40	225.90
864.71	225.89
865.02	225.89
865.33	225.86
865.64	225.80
865.95	225.84
866.27	226.19
866.58	226.10
866.89	226.26
867.20	226.31
867.51	226.28
867.82	226.26
868.13	226.41
868.44	226.30
868.75	226.40
869.06	226.45
869.37	226.54
869.68	226.40
869.99	226.46
870.30	226.49
870.61	226.54
870.92	226.50
871.23	226.48
871.54	226.62
871.85	226.75
872.16	226.80
872.47	226.81
872.78	226.54
873.09	226.60
873.40	226.51
873.71	226.49
874.02	226.54
874.33	226.45
874.64	226.33
874.95	226.34
875.26	226.30
875.56	226.26
875.87	226.16
876.18	226.19
876.49	226.64
876.80	226.59
877.11	226.52
877.42	226.54
877.73	226.51
878.04	226.48
878.35	226.50
878.66	226.48
878.96	226.43
879.27	226.39
879.58	226.32
879.89	226.35
880.20	226.49
880.51	226.45
880.82	226.48
881.12	226.45
881.43	226.42
881.74	226.34
882.05	226.32
882.36	226.46
882.67	226.45
882.97	226.01
883.28	225.99
883.59	225.94
883.90	226.04
884.21	226.08
884.51	225.98
884.82	225.95
885.13	225.93
885.44	226.00
885.74	226.04
886.05	226.05
886.36	226.05
886.67	225.91
886.98	226.07
887.28	226.19
887.59	226.18
887.90	226.25
888.20	226.19
888.51	226.33
888.82	226.16
889.13	226.19
889.43	226.49
889.74	226.50
890.05	226.58
890.35	226.45
890.66	226.36
890.97	226.35
891.28	226.25
891.58	226.27
891.89	226.27
892.20	226.21
892.50	226.18
892.81	226.12
893.12	226.10
893.42	225.95
893.73	225.91
894.04	225.97
894.34	226.01
894.65	226.01
894.95	225.96
895.26	226.05
895.57	226.23
895.87	225.82
896.18	225.89
896.48	225.83
896.79	225.83
897.10	225.91
897.40	225.95
897.71	225.98
898.01	225.99
898.32	226.09
898.63	226.14
898.93	226.14
899.24	226.18
899.54	226.08
899.85	226.05
900.15	226.04
900.46	226.08
900.76	226.02
901.07	226.07
901.38	226.00
901.68	226.02
901.99	225.72
902.29	225.84
902.60	225.75
902.90	225.73
903.21	225.80
903.51	225.80
903.82	225.84
904.12	225.82
904.43	225.82
904.73	225.75
905.03	225.73
905.34	226.25
905.64	226.22
905.95	226.33
906.25	226.32
906.56	226.32
906.86	226.25
907.17	226.20
907.47	226.18
907.77	226.14
908.08	226.06
908.38	226.21
908.69	226.16
908.99	226.29
909.30	226.33
909.60	226.29
909.90	226.30
910.21	226.23
910.51	226.21
910.81	226.24
911.12	226.27
911.42	226.31
911.73	225.76
912.03	225.81
912.33	225.91
912.64	225.93
912.94	225.91
913.24	225.83
913.55	225.89
913.85	225.93
914.15	226.02
914.46	226.08
914.76	226.00
915.06	225.96
915.37	225.88
915.67	225.77
915.97	225.78
916.27	225.64
916.58	225.68
916.88	225.69
917.18	225.61
917.49	225.91
917.79	225.83
918.09	225.94
918.39	226.05
918.70	226.07
919.00	226.08
919.30	226.31
919.60	226.37
919.91	226.22
920.21	226.32
920.51	226.25
920.81	226.20
921.12	226.32
921.42	226.35
921.72	226.34
922.02	226.41
922.32	226.49
922.63	226.53
922.93	226.73
923.23	226.77
923.53	226.67
923.83	226.33
924.13	226.37
924.44	226.39
924.74	226.47
925.04	226.50
925.34	226.48
925.64	226.23
925.94	226.21
926.24	226.56
926.55	226.48
926.85	226.55
927.15	226.60
927.45	226.57
927.75	226.55
928.05	226.57
928.35	226.60
928.65	226.64
928.95	226.73
929.26	226.48
929.56	226.48
929.86	226.60
930.16	226.59
930.46	226.54
930.76	226.50
931.06	226.24
931.36	226.14
931.66	226.21
931.96	226.15
932.26	226.25
932.56	225.99
932.86	226.01
933.16	226.01
933.46	225.91
933.76	225.79
934.06	225.91
934.36	226.06
934.66	225.99
934.96	225.89
935.26	225.88
935.56	226.04
935.86	225.92
936.16	225.91
936.46	225.85
936.76	225.82
937.06	225.67
937.36	225.72
937.66	225.74
937.96	225.69
938.26	225.66
938.56	225.61
938.86	225.65
939.16	225.71
939.46	225.77
939.76	225.79
940.06	225.80
940.35	225.72
940.65	225.50
940.95	225.58
941.25	225.48
941.55	225.45
941.85	225.41
942.15	225.60
942.45	225.61
942.75	225.66
943.04	225.66
943.34	225.85
943.64	225.81
943.94	225.71
944.24	225.72
944.54	225.78
944.84	225.74
945.13	225.65
945.43	225.56
945.73	225.52
946.03	225.53
946.33	225.48
946.62	225.38
946.92	225.42
947.22	225.45
947.52	225.55
947.82	225.51
948.11	225.45
948.41	225.27
948.71	225.15
949.01	225.16
949.31	225.18
949.60	225.10
949.90	225.19
950.20	225.19
950.50	225.19
950.79	225.18
951.09	225.23
951.39	225.21
951.69	225.23
951.98	225.38
952.28	225.43
952.58	225.47
952.87	225.49
953.17	225.55
953.47	225.53
953.76	225.50
954.06	225.48
954.36	225.40
954.66	225.41
954.95	225.61
955.25	225.66
955.55	225.74
955.84	225.73
956.14	225.79
956.44	225.86
956.73	225.76
957.03	225.85
957.32	225.81
957.62	225.85
957.92	225.89
958.21	225.72
958.51	226.20
958.81	226.27
959.10	226.35
959.40	226.39
959.69	226.42
959.99	226.50
960.29	226.55
960.58	226.60
960.88	226.85
961.17	226.78
961.47	226.85
961.76	226.81
962.06	226.87
962.36	226.81
962.65	226.79
962.95	226.90
963.24	226.76
963.54	226.85
963.83	226.93
964.13	226.90
964.42	226.87
964.72	226.47
965.01	226.45
965.31	226.41
965.60	226.32
965.90	226.58
966.19	226.39
966.49	226.45
966.78	226.41
967.08	226.38
967.37	226.40
967.67	226.29
967.96	226.43
968.26	226.37
968.55	226.42
968.85	226.40
969.14	226.29
969.43	226.35
969.73	226.28
970.02	226.24
970.32	226.25
970.61	226.23
970.91	226.10
971.20	225.98
971.49	225.96
971.79	226.02
972.08	225.69
972.38	225.79
972.67	225.70
972.96	225.76
973.26	225.64
973.55	225.77
973.85	225.74
974.14	225.65
974.43	225.69
974.73	225.57
975.02	225.47
975.31	225.51
975.61	225.51
975.90	225.40
976.19	225.30
976.49	225.28
976.78	225.34
977.07	225.33
977.37	225.41
977.66	225.43
977.95	225.32
978.24	225.34
978.54	225.42
978.83	225.45
979.12	225.39
979.42	225.27
979.71	225.13
980.00	225.10
980.29	225.10
980.59	225.01
980.88	225.16
981.17	225.18
981.46	225.17
981.76	225.14
982.05	225.32
982.34	225.38
982.63	225.35
982.93	225.30
983.22	225.47
983.51	225.43
983.80	225.47
984.09	225.55
984.39	225.47
984.68	225.36
984.97	225.33
985.26	225.29
985.55	225.44
985.85	225.38
986.14	225.43
986.43	225.46
986.72	225.47
987.01	225.30
987.30	225.38
987.59	225.35
987.89	225.36
988.18	225.23
988.47	225.14
988.76	225.15
989.05	225.14
989.34	225.00
989.63	225.22
989.92	225.16
990.22	225.11
990.51	225.22
990.80	225.21
991.09	225.31
991.38	225.43
991.67	225.35
991.96	225.30
992.25	225.36
992.54	225.27
992.83	225.31
993.12	225.37
993.41	225.43
993.70	225.62
993.99	225.77
994.28	225.86
994.58	225.96
994.87	225.90
995.16	225.85
995.45	225.83
995.74	225.59
996.03	225.61
996.32	225.70
996.61	225.76
996.90	225.76
997.19	225.67
997.48	225.61
997.77	225.58
998.06	225.57
998.34	225.52
998.63	225.54
998.92	225.53
999.21	225.57
999.50	225.48
999.79	225.31
1000.08	225.21
1000.37	225.27
1000.66	225.30
1000.95	225.49
1001.24	225.60
1001.53	225.61
1001.82	225.69
1002.11	225.70
1002.40	225.76
1002.68	225.89
1002.97	226.23
1003.26	226.16
1003.55	226.18
1003.84	226.24
1004.13	226.47
1004.42	226.43
1004.71	226.49
1004.99	226.38
1005.28	226.46
1005.57	226.56
1005.86	226.56
1006.15	226.54
1006.44	226.44
1006.72	226.42
1007.01	226.26
1007.30	226.20
1007.59	226.21
1007.88	226.20
1008.17	226.12
1008.45	225.98
1008.74	225.74
1009.03	225.51
1009.32	225.54
1009.60	225.47
1009.89	225.47
1010.18	225.28
1010.47	225.24
1010.76	225.19
1011.04	225.25
1011.33	225.26
1011.62	225.17
1011.91	225.13
1012.19	225.13
1012.48	225.10
1012.77	225.06
1013.05	225.23
1013.34	225.27
1013.63	225.25
1013.92	225.23
1014.20	225.21
1014.49	225.25
1014.78	225.30
1015.06	225.09
1015.35	225.11
1015.64	225.15
1015.92	225.19
1016.21	225.17
1016.50	225.22
1016.78	225.22
1017.07	225.24
1017.36	225.11
1017.64	225.11
1017.93	225.13
1018.22	225.08
1018.50	225.06
1018.79	225.11
1019.08	224.91
1019.36	224.92
1019.65	224.85
1019.93	225.00
1020.22	225.03
1020.51	225.23
1020.79	225.10
1021.08	223.75
1021.36	224.15
1021.65	225.70
1021.94	224.40
1022.22	225.50
1022.51	223.95
1022.79	227.95
1023.08	224.70
1023.36	230.20
1023.65	222.80
>>>>>End Processed Spectral Data<<<<<
