SpectraSuite Data File
++++++++++++++++++++++++++++++++++++
Date: Wed Sep 04 17:43:45 EDT 2013
User: lab3
Dark Spectrum Present: Yes
Reference Spectrum Present: No
Number of Sampled Component Spectra: 1
Spectrometers: USB2E7196
Integration Time (usec): 170000 (USB2E7196)
Spectra Averaged: 20 (USB2E7196)
Boxcar Smoothing: 10 (USB2E7196)
Correct for Electrical Dark: No (USB2E7196)
Strobe/Lamp Enabled: No (USB2E7196)
Correct for Detector Non-linearity: No (USB2E7196)
Correct for Stray Light: No (USB2E7196)
Number of Pixels in Processed Spectrum: 2048
>>>>>Begin Processed Spectral Data<<<<<
339.09	0.00
339.48	211.90
339.86	214.15
340.24	215.55
340.63	216.65
341.01	226.20
341.39	219.90
341.78	220.85
342.16	223.70
342.54	222.00
342.93	211.89
343.31	222.57
343.69	223.17
344.07	223.63
344.46	224.10
344.84	224.46
345.22	224.42
345.60	224.70
345.99	224.93
346.37	225.04
346.75	225.11
347.13	225.18
347.52	225.32
347.90	225.48
348.28	225.47
348.66	225.60
349.05	225.50
349.43	225.62
349.81	225.66
350.19	225.80
350.57	225.86
350.96	225.92
351.34	226.05
351.72	226.12
352.10	226.29
352.48	226.33
352.87	226.39
353.25	226.40
353.63	226.43
354.01	226.45
354.39	226.53
354.77	226.67
355.15	226.91
355.54	226.89
355.92	226.82
356.30	226.88
356.68	227.30
357.06	227.35
357.44	227.27
357.82	227.31
358.20	227.79
358.58	227.85
358.97	227.94
359.35	228.10
359.73	228.31
360.11	228.32
360.49	228.41
360.87	228.47
361.25	228.63
361.63	228.87
362.01	228.96
362.39	228.86
362.77	229.01
363.15	228.99
363.53	229.00
363.91	229.07
364.29	229.19
364.67	228.73
365.05	228.77
365.43	228.84
365.81	228.95
366.19	228.74
366.57	228.93
366.95	228.94
367.33	228.84
367.71	228.77
368.09	228.86
368.47	228.86
368.85	228.87
369.23	228.91
369.61	228.68
369.99	228.87
370.37	229.08
370.75	229.17
371.13	229.08
371.51	229.08
371.89	229.08
372.27	229.01
372.65	229.03
373.03	228.99
373.41	228.96
373.78	228.94
374.16	228.68
374.54	228.45
374.92	228.39
375.30	228.33
375.68	228.20
376.06	228.19
376.44	228.12
376.82	228.12
377.19	228.08
377.57	228.02
377.95	227.71
378.33	227.52
378.71	227.23
379.09	227.23
379.47	227.17
379.84	226.97
380.22	226.93
380.60	226.78
380.98	226.68
381.36	226.54
381.73	226.37
382.11	226.34
382.49	226.25
382.87	226.12
383.25	226.03
383.62	226.55
384.00	226.37
384.38	226.32
384.76	226.35
385.13	226.43
385.51	226.39
385.89	226.33
386.27	226.34
386.64	226.35
387.02	226.26
387.40	226.19
387.78	226.20
388.15	226.15
388.53	226.10
388.91	226.06
389.29	226.03
389.66	226.07
390.04	225.97
390.42	226.08
390.79	226.06
391.17	226.07
391.55	225.53
391.92	225.56
392.30	225.59
392.68	225.48
393.05	225.47
393.43	225.53
393.81	225.57
394.18	225.50
394.56	225.46
394.94	225.55
395.31	225.54
395.69	225.78
396.06	225.88
396.44	225.90
396.82	225.94
397.19	226.28
397.57	226.27
397.95	226.41
398.32	226.35
398.70	226.46
399.07	226.65
399.45	226.72
399.82	226.74
400.20	226.80
400.58	226.94
400.95	226.80
401.33	226.97
401.70	227.42
402.08	227.59
402.45	227.78
402.83	228.03
403.20	228.22
403.58	228.29
403.95	228.64
404.33	229.00
404.71	229.23
405.08	229.60
405.46	229.92
405.83	230.21
406.21	230.44
406.58	230.75
406.96	230.94
407.33	231.18
407.70	231.58
408.08	232.26
408.45	232.65
408.83	233.13
409.20	233.45
409.58	233.63
409.95	234.16
410.33	234.68
410.70	235.13
411.08	235.79
411.45	236.43
411.82	236.85
412.20	237.51
412.57	238.49
412.95	238.76
413.32	239.56
413.69	240.27
414.07	241.16
414.44	242.12
414.82	243.13
415.19	244.30
415.56	245.41
415.94	246.36
416.31	247.74
416.68	249.09
417.06	250.67
417.43	252.19
417.81	253.86
418.18	255.61
418.55	257.42
418.93	259.38
419.30	261.35
419.67	263.54
420.04	265.77
420.42	267.98
420.79	271.02
421.16	273.67
421.54	276.65
421.91	279.55
422.28	282.49
422.66	285.69
423.03	289.04
423.40	292.32
423.77	295.74
424.15	299.23
424.52	302.85
424.89	306.89
425.26	310.73
425.64	314.38
426.01	318.33
426.38	322.51
426.75	326.76
427.13	331.20
427.50	335.69
427.87	340.33
428.24	344.96
428.61	349.22
428.99	354.36
429.36	359.59
429.73	364.91
430.10	370.18
430.47	375.63
430.85	381.00
431.22	386.90
431.59	393.38
431.96	399.31
432.33	405.96
432.70	412.33
433.08	419.93
433.45	427.08
433.82	434.25
434.19	442.23
434.56	450.03
434.93	457.30
435.30	464.79
435.68	473.05
436.05	481.11
436.42	489.18
436.79	496.46
437.16	504.43
437.53	512.92
437.90	521.36
438.27	529.48
438.64	538.03
439.01	546.02
439.38	552.89
439.75	559.80
440.13	567.56
440.50	574.80
440.87	580.59
441.24	586.67
441.61	593.37
441.98	598.11
442.35	603.80
442.72	609.57
443.09	615.25
443.46	618.57
443.83	620.89
444.20	622.80
444.57	625.42
444.94	626.56
445.31	627.59
445.68	628.93
446.05	629.21
446.42	627.99
446.79	626.65
447.16	625.20
447.53	623.90
447.90	620.30
448.27	616.66
448.64	611.84
449.01	608.40
449.37	602.53
449.74	596.76
450.11	590.06
450.48	582.50
450.85	574.81
451.22	568.30
451.59	561.99
451.96	555.96
452.33	548.15
452.70	541.08
453.07	532.73
453.43	523.92
453.80	515.83
454.17	508.03
454.54	500.61
454.91	492.78
455.28	485.13
455.65	477.99
456.02	471.52
456.38	465.60
456.75	458.08
457.12	451.73
457.49	445.73
457.86	439.70
458.23	435.02
458.59	429.41
458.96	423.82
459.33	418.93
459.70	414.06
460.07	410.25
460.43	405.79
460.80	401.74
461.17	398.11
461.54	394.35
461.91	390.81
462.27	386.99
462.64	383.81
463.01	380.46
463.38	377.45
463.74	373.57
464.11	370.57
464.48	368.06
464.85	365.25
465.21	363.15
465.58	360.93
465.95	358.17
466.32	356.10
466.68	353.91
467.05	351.75
467.42	349.59
467.78	347.32
468.15	345.29
468.52	343.69
468.88	341.58
469.25	339.68
469.62	338.16
469.98	336.72
470.35	335.23
470.72	333.83
471.08	332.10
471.45	330.89
471.82	329.80
472.18	328.45
472.55	327.61
472.92	326.37
473.28	325.30
473.65	324.25
474.02	323.24
474.38	322.51
474.75	321.92
475.11	321.04
475.48	320.42
475.85	319.82
476.21	319.17
476.58	318.74
476.94	318.44
477.31	318.06
477.67	317.63
478.04	317.41
478.41	317.19
478.77	317.53
479.14	317.34
479.50	317.27
479.87	317.29
480.23	317.29
480.60	317.26
480.96	317.31
481.33	317.75
481.69	317.96
482.06	318.25
482.42	318.39
482.79	318.82
483.15	319.30
483.52	319.90
483.88	320.48
484.25	321.00
484.61	321.71
484.98	322.36
485.34	323.41
485.71	324.36
486.07	325.45
486.44	326.09
486.80	327.20
487.17	328.30
487.53	329.71
487.90	331.18
488.26	332.96
488.62	334.60
488.99	335.94
489.35	337.70
489.72	339.49
490.08	341.41
490.44	343.35
490.81	345.59
491.17	347.71
491.54	350.16
491.90	352.69
492.26	355.30
492.63	358.21
492.99	360.96
493.36	363.97
493.72	367.17
494.08	370.52
494.45	374.16
494.81	378.03
495.17	381.82
495.54	385.88
495.90	389.93
496.26	394.20
496.63	398.89
496.99	403.58
497.35	408.50
497.72	413.69
498.08	419.10
498.44	424.60
498.80	430.55
499.17	436.51
499.53	442.66
499.89	449.12
500.26	455.65
500.62	462.44
500.98	469.69
501.34	476.95
501.71	484.49
502.07	491.99
502.43	499.89
502.79	508.04
503.16	516.50
503.52	525.37
503.88	534.57
504.24	544.17
504.60	553.91
504.97	563.96
505.33	573.97
505.69	584.75
506.05	595.41
506.41	606.38
506.78	617.65
507.14	629.50
507.50	641.50
507.86	653.89
508.22	666.51
508.59	679.19
508.95	692.43
509.31	706.20
509.67	720.30
510.03	734.04
510.39	748.43
510.75	763.15
511.12	777.85
511.48	793.03
511.84	807.95
512.20	823.43
512.56	839.41
512.92	855.96
513.28	872.20
513.64	889.03
514.00	905.89
514.37	923.15
514.73	940.65
515.09	958.31
515.45	975.99
515.81	993.97
516.17	1012.25
516.53	1030.10
516.89	1048.14
517.25	1066.95
517.61	1086.61
517.97	1106.08
518.33	1125.37
518.69	1145.33
519.05	1165.12
519.41	1185.31
519.77	1205.47
520.13	1225.36
520.49	1245.21
520.85	1265.22
521.21	1285.51
521.57	1306.03
521.93	1325.93
522.29	1346.24
522.65	1366.17
523.01	1386.47
523.37	1406.46
523.73	1426.61
524.09	1446.60
524.45	1466.52
524.81	1486.42
525.17	1505.99
525.53	1525.68
525.89	1545.64
526.25	1565.10
526.61	1584.56
526.97	1604.55
527.33	1624.76
527.68	1645.53
528.04	1665.74
528.40	1685.82
528.76	1706.06
529.12	1725.64
529.48	1745.44
529.84	1764.59
530.20	1784.67
530.56	1804.17
530.91	1823.70
531.27	1843.02
531.63	1862.58
531.99	1882.02
532.35	1900.66
532.71	1919.97
533.07	1939.35
533.42	1957.69
533.78	1976.43
534.14	1995.12
534.50	2012.78
534.86	2031.00
535.21	2047.28
535.57	2064.44
535.93	2081.04
536.29	2097.32
536.65	2114.12
537.00	2130.75
537.36	2147.05
537.72	2162.18
538.08	2178.14
538.44	2193.65
538.79	2208.94
539.15	2224.19
539.51	2238.62
539.87	2252.86
540.22	2265.75
540.58	2279.08
540.94	2291.55
541.29	2303.09
541.65	2314.41
542.01	2326.15
542.37	2335.29
542.72	2345.14
543.08	2354.69
543.44	2365.45
543.79	2374.52
544.15	2383.37
544.51	2392.03
544.87	2400.47
545.22	2408.31
545.58	2414.95
545.94	2421.04
546.29	2426.16
546.65	2431.14
547.01	2435.93
547.36	2440.30
547.72	2444.63
548.07	2447.35
548.43	2451.68
548.79	2455.50
549.14	2458.22
549.50	2460.87
549.86	2464.12
550.21	2466.91
550.57	2469.75
550.92	2470.32
551.28	2470.79
551.64	2471.87
551.99	2472.88
552.35	2473.84
552.70	2474.81
553.06	2475.49
553.41	2476.10
553.77	2477.55
554.13	2478.52
554.48	2479.42
554.84	2480.26
555.19	2480.74
555.55	2481.52
555.90	2479.96
556.26	2478.47
556.61	2476.62
556.97	2474.15
557.32	2473.04
557.68	2471.55
558.03	2469.33
558.39	2467.26
558.74	2466.00
559.10	2462.55
559.45	2458.71
559.81	2453.93
560.16	2448.58
560.52	2443.60
560.87	2438.84
561.23	2433.02
561.58	2427.15
561.94	2419.96
562.29	2412.51
562.64	2405.30
563.00	2397.53
563.35	2391.06
563.71	2384.28
564.06	2377.92
564.42	2371.14
564.77	2363.95
565.12	2356.15
565.48	2348.38
565.83	2340.36
566.19	2332.39
566.54	2324.37
566.89	2316.20
567.25	2308.12
567.60	2301.01
567.96	2293.61
568.31	2285.33
568.66	2277.00
569.02	2268.00
569.37	2259.95
569.72	2252.25
570.08	2243.17
570.43	2233.53
570.78	2224.81
571.14	2215.55
571.49	2205.76
571.84	2196.62
572.20	2186.12
572.55	2176.36
572.90	2165.90
573.26	2155.74
573.61	2144.91
573.96	2134.32
574.31	2123.03
574.67	2111.78
575.02	2099.52
575.37	2087.32
575.72	2074.95
576.08	2063.06
576.43	2050.97
576.78	2038.71
577.13	2025.89
577.49	2013.95
577.84	2003.03
578.19	1991.33
578.54	1979.58
578.90	1968.15
579.25	1956.06
579.60	1944.43
579.95	1932.22
580.30	1919.76
580.66	1906.99
581.01	1894.06
581.36	1880.86
581.71	1868.70
582.06	1856.62
582.42	1844.82
582.77	1832.95
583.12	1821.93
583.47	1810.22
583.82	1799.15
584.17	1787.74
584.53	1776.51
584.88	1764.32
585.23	1751.85
585.58	1738.32
585.93	1725.53
586.28	1713.12
586.63	1700.22
586.98	1686.76
587.34	1674.45
587.69	1661.99
588.04	1650.59
588.39	1639.22
588.74	1627.97
589.09	1616.55
589.44	1604.53
589.79	1592.90
590.14	1581.53
590.49	1570.05
590.84	1558.84
591.19	1547.41
591.54	1535.74
591.89	1524.20
592.25	1514.44
592.60	1503.55
592.95	1493.05
593.30	1481.94
593.65	1470.73
594.00	1459.34
594.35	1450.35
594.70	1439.16
595.05	1428.49
595.40	1417.04
595.75	1405.95
596.10	1395.37
596.45	1384.81
596.80	1374.70
597.15	1364.44
597.50	1353.44
597.85	1342.81
598.19	1331.72
598.54	1320.77
598.89	1310.42
599.24	1300.34
599.59	1289.48
599.94	1279.29
600.29	1269.67
600.64	1260.09
600.99	1249.96
601.34	1241.25
601.69	1230.59
602.04	1221.28
602.39	1212.18
602.74	1203.80
603.08	1195.06
603.43	1186.30
603.78	1177.40
604.13	1168.53
604.48	1159.40
604.83	1150.24
605.18	1140.99
605.53	1132.11
605.87	1123.85
606.22	1115.89
606.57	1107.61
606.92	1099.04
607.27	1090.80
607.62	1082.54
607.96	1074.81
608.31	1067.70
608.66	1059.93
609.01	1051.97
609.36	1044.40
609.70	1036.44
610.05	1028.39
610.40	1020.63
610.75	1012.80
611.10	1004.98
611.44	996.94
611.79	989.39
612.14	982.37
612.49	975.16
612.83	968.41
613.18	960.86
613.53	953.52
613.88	946.04
614.22	938.94
614.57	931.70
614.92	924.37
615.27	917.20
615.61	910.02
615.96	902.96
616.31	896.01
616.65	889.34
617.00	882.69
617.35	875.82
617.70	869.20
618.04	862.55
618.39	855.96
618.74	849.99
619.08	843.64
619.43	837.11
619.78	830.56
620.12	824.00
620.47	817.70
620.82	811.22
621.16	805.02
621.51	799.09
621.85	793.09
622.20	787.11
622.55	780.92
622.89	774.77
623.24	768.80
623.59	762.88
623.93	757.17
624.28	751.49
624.62	746.53
624.97	741.12
625.32	735.80
625.66	730.36
626.01	724.79
626.35	719.68
626.70	714.63
627.04	709.90
627.39	704.67
627.73	699.87
628.08	695.12
628.43	690.10
628.77	685.16
629.12	680.40
629.46	675.99
629.81	671.73
630.15	667.47
630.50	663.00
630.84	658.69
631.19	654.00
631.53	649.74
631.88	644.62
632.22	640.15
632.57	636.05
632.91	631.83
633.26	627.76
633.60	623.41
633.95	618.95
634.29	614.51
634.64	610.47
634.98	606.01
635.32	601.86
635.67	598.20
636.01	594.25
636.36	590.20
636.70	586.31
637.05	582.31
637.39	578.48
637.73	574.66
638.08	570.97
638.42	567.15
638.77	563.33
639.11	559.53
639.45	555.50
639.80	551.30
640.14	547.52
640.49	543.81
640.83	540.43
641.17	537.28
641.52	533.88
641.86	530.57
642.20	527.61
642.55	524.26
642.89	520.88
643.23	517.59
643.58	514.66
643.92	511.29
644.26	508.23
644.61	505.17
644.95	502.11
645.29	498.86
645.64	495.92
645.98	492.88
646.32	490.10
646.66	487.16
647.01	484.45
647.35	481.90
647.69	479.23
648.04	476.54
648.38	473.64
648.72	470.93
649.06	468.08
649.41	465.18
649.75	462.39
650.09	459.68
650.43	457.03
650.78	454.35
651.12	451.83
651.46	449.21
651.80	446.58
652.14	444.00
652.49	441.77
652.83	439.43
653.17	437.04
653.51	434.56
653.85	432.36
654.20	430.09
654.54	427.68
654.88	425.29
655.22	423.19
655.56	421.00
655.90	418.85
656.25	416.73
656.59	414.73
656.93	412.79
657.27	410.82
657.61	408.68
657.95	406.60
658.29	404.50
658.64	402.45
658.98	400.49
659.32	398.45
659.66	396.42
660.00	394.33
660.34	392.40
660.68	390.55
661.02	388.76
661.36	386.91
661.70	384.97
662.05	383.12
662.39	381.20
662.73	379.57
663.07	378.04
663.41	376.40
663.75	374.61
664.09	372.80
664.43	371.04
664.77	369.50
665.11	367.85
665.45	366.43
665.79	365.00
666.13	363.35
666.47	361.76
666.81	360.22
667.15	358.65
667.49	357.30
667.83	356.06
668.17	354.62
668.51	353.28
668.85	352.05
669.19	351.02
669.53	349.62
669.87	348.14
670.21	346.65
670.55	345.33
670.89	344.35
671.23	343.15
671.57	341.83
671.91	340.47
672.25	339.22
672.58	337.95
672.92	336.59
673.26	335.55
673.60	334.53
673.94	333.37
674.28	332.39
674.62	331.30
674.96	330.01
675.30	328.86
675.64	327.77
675.97	326.61
676.31	325.27
676.65	324.03
676.99	323.14
677.33	322.10
677.67	321.11
678.01	319.79
678.34	318.84
678.68	317.95
679.02	317.00
679.36	316.06
679.70	315.10
680.04	314.29
680.37	313.26
680.71	312.25
681.05	311.32
681.39	310.47
681.73	309.54
682.06	308.72
682.40	307.87
682.74	307.02
683.08	306.35
683.42	305.48
683.75	304.80
684.09	303.82
684.43	303.06
684.77	302.18
685.10	301.49
685.44	300.70
685.78	299.89
686.12	299.13
686.45	298.38
686.79	297.60
687.13	296.89
687.46	296.16
687.80	295.55
688.14	294.83
688.48	294.06
688.81	293.29
689.15	292.73
689.49	292.07
689.82	291.44
690.16	290.59
690.50	289.94
690.83	289.23
691.17	288.56
691.51	287.89
691.84	287.37
692.18	286.71
692.52	285.99
692.85	285.44
693.19	285.08
693.52	284.45
693.86	283.80
694.20	283.18
694.53	282.64
694.87	281.96
695.21	281.34
695.54	280.77
695.88	280.23
696.21	279.48
696.55	278.90
696.88	278.26
697.22	277.66
697.56	277.21
697.89	276.66
698.23	276.21
698.56	275.61
698.90	275.18
699.23	274.65
699.57	274.22
699.90	273.65
700.24	273.03
700.58	272.67
700.91	272.33
701.25	272.26
701.58	272.09
701.92	271.82
702.25	271.47
702.59	271.03
702.92	270.67
703.26	270.45
703.59	270.10
703.93	270.19
704.26	269.83
704.60	269.42
704.93	268.98
705.26	268.55
705.60	268.28
705.93	267.74
706.27	267.52
706.60	267.37
706.94	267.25
707.27	266.77
707.61	266.38
707.94	266.00
708.27	265.24
708.61	264.59
708.94	264.12
709.28	263.76
709.61	263.36
709.94	263.03
710.28	262.53
710.61	262.23
710.95	261.34
711.28	261.36
711.61	261.08
711.95	260.81
712.28	260.45
712.61	260.00
712.95	260.03
713.28	259.94
713.61	259.42
713.95	258.90
714.28	258.68
714.61	258.22
714.95	257.81
715.28	257.42
715.61	257.08
715.95	256.75
716.28	256.43
716.61	256.20
716.95	255.88
717.28	255.60
717.61	255.15
717.94	254.94
718.28	254.33
718.61	254.03
718.94	253.75
719.27	253.56
719.61	253.43
719.94	252.91
720.27	252.34
720.60	252.15
720.94	251.91
721.27	251.73
721.60	251.68
721.93	251.46
722.27	251.40
722.60	251.22
722.93	251.02
723.26	250.86
723.59	250.64
723.93	250.42
724.26	250.32
724.59	250.15
724.92	249.98
725.25	249.90
725.59	249.70
725.92	249.63
726.25	249.40
726.58	249.16
726.91	248.96
727.24	248.89
727.57	248.60
727.91	248.38
728.24	248.23
728.57	247.94
728.90	247.81
729.23	247.50
729.56	247.61
729.89	247.45
730.22	247.27
730.55	247.02
730.89	246.93
731.22	246.61
731.55	246.37
731.88	246.17
732.21	245.91
732.54	245.60
732.87	245.34
733.20	245.12
733.53	244.97
733.86	244.87
734.19	244.58
734.52	244.60
734.85	244.73
735.18	244.42
735.51	244.47
735.84	244.36
736.17	244.34
736.50	243.87
736.83	244.30
737.16	244.09
737.49	243.98
737.82	243.75
738.15	243.71
738.48	243.68
738.81	243.58
739.14	243.33
739.47	243.20
739.80	243.05
740.13	243.03
740.46	242.77
740.79	242.54
741.12	242.41
741.45	242.10
741.78	241.67
742.11	241.72
742.44	241.42
742.77	241.33
743.10	241.06
743.43	240.93
743.75	240.26
744.08	240.80
744.41	240.64
744.74	240.50
745.07	240.30
745.40	240.25
745.73	240.33
746.06	240.30
746.39	240.26
746.71	240.16
747.04	239.91
747.37	239.80
747.70	239.81
748.03	239.71
748.36	239.68
748.68	239.65
749.01	239.33
749.34	239.23
749.67	239.15
750.00	239.14
750.33	239.34
750.65	239.25
750.98	238.58
751.31	238.45
751.64	238.36
751.97	238.50
752.29	238.32
752.62	238.04
752.95	237.91
753.28	237.75
753.60	237.60
753.93	237.69
754.26	237.72
754.59	237.48
754.91	237.30
755.24	237.10
755.57	237.01
755.90	236.98
756.22	236.85
756.55	236.63
756.88	236.44
757.20	236.10
757.53	235.88
757.86	235.72
758.19	235.76
758.51	235.66
758.84	235.29
759.17	235.11
759.49	234.93
759.82	235.04
760.15	235.04
760.47	234.91
760.80	234.65
761.13	234.62
761.45	234.50
761.78	234.40
762.11	234.35
762.43	234.14
762.76	233.99
763.08	233.94
763.41	233.92
763.74	233.82
764.06	233.74
764.39	233.77
764.71	233.61
765.04	233.44
765.37	233.30
765.69	233.24
766.02	233.20
766.34	233.10
766.67	232.85
767.00	232.83
767.32	232.97
767.65	233.13
767.97	233.02
768.30	233.02
768.62	233.01
768.95	232.98
769.27	232.94
769.60	233.01
769.92	232.88
770.25	232.71
770.57	232.65
770.90	232.60
771.22	232.37
771.55	232.39
771.87	232.32
772.20	232.23
772.52	232.55
772.85	233.06
773.17	233.04
773.50	232.91
773.82	232.78
774.15	232.58
774.47	232.30
774.80	232.20
775.12	232.11
775.45	232.07
775.77	232.03
776.09	232.00
776.42	231.90
776.74	231.99
777.07	231.95
777.39	231.90
777.72	231.79
778.04	231.91
778.36	231.82
778.69	231.81
779.01	231.85
779.33	231.47
779.66	230.91
779.98	230.88
780.31	230.91
780.63	231.08
780.95	231.10
781.28	231.03
781.60	230.87
781.92	230.85
782.25	230.78
782.57	230.75
782.89	230.67
783.22	230.63
783.54	230.49
783.86	230.43
784.19	230.38
784.51	230.53
784.83	230.36
785.16	230.34
785.48	230.28
785.80	230.27
786.12	230.25
786.45	230.17
786.77	230.17
787.09	230.14
787.42	229.88
787.74	229.93
788.06	229.91
788.38	229.87
788.71	229.85
789.03	229.90
789.35	229.97
789.67	229.91
789.99	229.88
790.32	229.81
790.64	229.90
790.96	230.30
791.28	230.12
791.61	230.08
791.93	230.11
792.25	230.07
792.57	230.38
792.89	230.27
793.21	230.30
793.54	230.24
793.86	230.21
794.18	230.22
794.50	230.08
794.82	230.09
795.14	230.20
795.47	230.19
795.79	230.12
796.11	229.90
796.43	229.94
796.75	229.86
797.07	229.91
797.39	229.78
797.71	229.44
798.04	229.33
798.36	229.34
798.68	229.26
799.00	229.36
799.32	229.09
799.64	229.16
799.96	229.17
800.28	229.25
800.60	229.17
800.92	229.20
801.24	229.15
801.56	229.20
801.89	229.10
802.21	229.13
802.53	229.06
802.85	229.29
803.17	229.47
803.49	229.43
803.81	229.39
804.13	229.42
804.45	229.31
804.77	229.44
805.09	229.43
805.41	229.42
805.73	229.28
806.05	229.16
806.37	229.10
806.69	229.05
807.01	228.96
807.33	229.02
807.65	228.83
807.97	229.00
808.28	228.93
808.60	228.87
808.92	228.79
809.24	229.10
809.56	228.93
809.88	228.63
810.20	228.59
810.52	228.69
810.84	228.57
811.16	228.46
811.48	228.30
811.80	228.43
812.12	228.39
812.43	228.49
812.75	228.41
813.07	228.36
813.39	228.32
813.71	228.23
814.03	228.04
814.35	228.05
814.67	227.86
814.98	227.80
815.30	227.82
815.62	227.75
815.94	227.35
816.26	227.59
816.58	227.59
816.89	227.70
817.21	227.50
817.53	227.60
817.85	227.65
818.17	227.68
818.48	227.49
818.80	227.48
819.12	227.40
819.44	227.33
819.76	227.25
820.07	227.25
820.39	227.26
820.71	227.39
821.03	227.37
821.34	227.33
821.66	227.38
821.98	227.37
822.30	227.34
822.61	227.67
822.93	227.34
823.25	227.32
823.57	227.22
823.88	227.32
824.20	227.22
824.52	227.28
824.83	227.26
825.15	227.20
825.47	227.23
825.79	227.23
826.10	227.21
826.42	227.23
826.74	227.25
827.05	227.18
827.37	227.15
827.69	227.18
828.00	227.20
828.32	227.18
828.64	227.18
828.95	227.47
829.27	227.25
829.58	227.29
829.90	227.35
830.22	227.37
830.53	227.31
830.85	227.30
831.17	227.24
831.48	227.26
831.80	227.30
832.11	227.28
832.43	227.24
832.75	227.34
833.06	227.65
833.38	227.54
833.69	227.62
834.01	227.64
834.32	227.59
834.64	227.55
834.96	227.48
835.27	227.45
835.59	227.24
835.90	227.22
836.22	227.19
836.53	227.10
836.85	227.08
837.16	227.49
837.48	227.51
837.79	227.63
838.11	227.65
838.42	227.65
838.74	227.72
839.05	227.62
839.37	227.52
839.68	227.14
840.00	227.10
840.31	227.17
840.63	227.09
840.94	227.07
841.26	226.98
841.57	227.06
841.88	227.13
842.20	227.05
842.51	227.00
842.83	226.99
843.14	227.49
843.46	227.50
843.77	227.22
844.08	227.21
844.40	227.03
844.71	226.98
845.03	226.87
845.34	226.78
845.65	226.86
845.97	226.89
846.28	226.97
846.60	227.06
846.91	226.92
847.22	226.91
847.54	227.02
847.85	227.10
848.16	227.05
848.48	226.91
848.79	227.15
849.10	227.13
849.42	227.15
849.73	226.65
850.04	226.61
850.36	226.46
850.67	226.55
850.98	226.57
851.30	226.65
851.61	226.74
851.92	226.72
852.23	226.79
852.55	226.77
852.86	226.81
853.17	226.77
853.49	226.91
853.80	227.00
854.11	227.00
854.42	227.00
854.74	226.93
855.05	227.04
855.36	226.70
855.67	226.78
855.99	226.79
856.30	227.34
856.61	227.31
856.92	227.35
857.23	227.32
857.55	227.30
857.86	227.23
858.17	227.24
858.48	227.14
858.79	227.10
859.11	227.14
859.42	227.05
859.73	227.04
860.04	226.89
860.35	226.85
860.66	226.75
860.98	226.71
861.29	226.78
861.60	226.74
861.91	226.94
862.22	226.84
862.53	226.75
862.84	226.26
863.16	226.35
863.47	226.23
863.78	226.23
864.09	226.24
864.40	226.30
864.71	226.31
865.02	226.46
865.33	226.31
865.64	226.30
865.95	226.35
866.27	226.60
866.58	226.65
866.89	226.65
867.20	226.61
867.51	226.59
867.82	226.51
868.13	226.61
868.44	226.53
868.75	226.61
869.06	226.68
869.37	226.67
869.68	226.60
869.99	226.73
870.30	226.74
870.61	226.79
870.92	226.77
871.23	226.75
871.54	226.80
871.85	227.01
872.16	227.03
872.47	226.90
872.78	226.71
873.09	226.77
873.40	226.74
873.71	226.84
874.02	226.83
874.33	226.88
874.64	226.76
874.95	226.78
875.26	226.70
875.56	226.64
875.87	226.60
876.18	226.55
876.49	226.96
876.80	226.88
877.11	226.76
877.42	226.65
877.73	226.62
878.04	226.51
878.35	226.52
878.66	226.51
878.96	226.59
879.27	226.50
879.58	226.41
879.89	226.37
880.20	226.42
880.51	226.38
880.82	226.29
881.12	226.32
881.43	226.25
881.74	226.16
882.05	226.13
882.36	226.15
882.67	226.17
882.97	225.68
883.28	225.67
883.59	225.64
883.90	225.74
884.21	225.80
884.51	225.78
884.82	225.67
885.13	225.58
885.44	225.60
885.74	225.56
886.05	225.55
886.36	225.51
886.67	225.40
886.98	225.70
887.28	225.80
887.59	225.81
887.90	225.77
888.20	225.82
888.51	225.91
888.82	225.90
889.13	226.00
889.43	226.36
889.74	226.34
890.05	226.36
890.35	226.25
890.66	226.15
890.97	226.10
891.28	226.07
891.58	226.13
891.89	226.07
892.20	226.09
892.50	226.06
892.81	226.09
893.12	226.05
893.42	225.81
893.73	225.82
894.04	225.85
894.34	225.92
894.65	225.92
894.95	225.84
895.26	225.87
895.57	226.00
895.87	225.61
896.18	225.69
896.48	225.74
896.79	225.80
897.10	225.90
897.40	225.96
897.71	226.01
898.01	226.03
898.32	226.08
898.63	226.00
898.93	226.04
899.24	226.03
899.54	226.06
899.85	226.12
900.15	226.11
900.46	226.07
900.76	226.15
901.07	226.10
901.38	226.20
901.68	226.20
901.99	226.00
902.29	226.03
902.60	226.01
902.90	225.96
903.21	225.96
903.51	225.95
903.82	226.00
904.12	226.03
904.43	226.06
904.73	226.05
905.03	226.17
905.34	226.64
905.64	226.62
905.95	226.59
906.25	226.55
906.56	226.49
906.86	226.59
907.17	226.57
907.47	226.67
907.77	226.54
908.08	226.44
908.38	226.47
908.69	226.50
908.99	226.59
909.30	226.63
909.60	226.58
909.90	226.57
910.21	226.50
910.51	226.44
910.81	226.41
911.12	226.51
911.42	226.48
911.73	225.99
912.03	226.05
912.33	226.17
912.64	226.20
912.94	226.20
913.24	226.05
913.55	225.95
913.85	225.95
914.15	226.07
914.46	226.14
914.76	226.07
915.06	226.01
915.37	225.89
915.67	225.88
915.97	225.95
916.27	225.84
916.58	225.88
916.88	225.86
917.18	225.83
917.49	226.06
917.79	226.08
918.09	226.22
918.39	226.29
918.70	226.23
919.00	226.21
919.30	226.47
919.60	226.49
919.91	226.47
920.21	226.50
920.51	226.41
920.81	226.35
921.12	226.51
921.42	226.50
921.72	226.55
922.02	226.55
922.32	226.59
922.63	226.66
922.93	226.81
923.23	226.87
923.53	226.84
923.83	226.51
924.13	226.55
924.44	226.45
924.74	226.56
925.04	226.67
925.34	226.65
925.64	226.39
925.94	226.37
926.24	226.65
926.55	226.52
926.85	226.58
927.15	226.68
927.45	226.61
927.75	226.65
928.05	226.60
928.35	226.54
928.65	226.58
928.95	226.63
929.26	226.47
929.56	226.57
929.86	226.59
930.16	226.60
930.46	226.57
930.76	226.63
931.06	226.35
931.36	226.25
931.66	226.29
931.96	226.30
932.26	226.29
932.56	226.07
932.86	226.17
933.16	226.14
933.46	226.03
933.76	225.97
934.06	226.06
934.36	226.21
934.66	226.20
934.96	226.12
935.26	226.07
935.56	226.13
935.86	225.93
936.16	225.89
936.46	225.87
936.76	225.80
937.06	225.65
937.36	225.72
937.66	225.65
937.96	225.65
938.26	225.59
938.56	225.53
938.86	225.50
939.16	225.58
939.46	225.64
939.76	225.69
940.06	225.71
940.35	225.57
940.65	225.34
940.95	225.39
941.25	225.27
941.55	225.27
941.85	225.18
942.15	225.27
942.45	225.42
942.75	225.36
943.04	225.35
943.34	225.48
943.64	225.45
943.94	225.42
944.24	225.39
944.54	225.44
944.84	225.45
945.13	225.38
945.43	225.30
945.73	225.28
946.03	225.22
946.33	225.14
946.62	225.15
946.92	225.16
947.22	225.14
947.52	225.24
947.82	225.21
948.11	225.22
948.41	225.13
948.71	224.92
949.01	224.95
949.31	224.96
949.60	224.94
949.90	225.07
950.20	224.99
950.50	225.00
950.79	224.94
951.09	225.05
951.39	225.05
951.69	224.98
951.98	225.11
952.28	225.16
952.58	225.15
952.87	225.14
953.17	225.23
953.47	225.23
953.76	225.22
954.06	225.21
954.36	225.16
954.66	225.13
954.95	225.32
955.25	225.36
955.55	225.38
955.84	225.31
956.14	225.33
956.44	225.42
956.73	225.39
957.03	225.45
957.32	225.43
957.62	225.42
957.92	225.55
958.21	225.48
958.51	226.00
958.81	226.11
959.10	226.16
959.40	226.25
959.69	226.36
959.99	226.43
960.29	226.43
960.58	226.45
960.88	226.66
961.17	226.58
961.47	226.70
961.76	226.65
962.06	226.73
962.36	226.65
962.65	226.70
962.95	226.66
963.24	226.63
963.54	226.65
963.83	226.76
964.13	226.66
964.42	226.55
964.72	226.18
965.01	226.16
965.31	226.11
965.60	225.98
965.90	226.22
966.19	226.14
966.49	226.21
966.78	226.25
967.08	226.21
967.37	226.21
967.67	226.08
967.96	226.24
968.26	226.24
968.55	226.30
968.85	226.34
969.14	226.33
969.43	226.32
969.73	226.29
970.02	226.25
970.32	226.27
970.61	226.25
970.91	226.15
971.20	226.04
971.49	226.08
971.79	226.10
972.08	225.75
972.38	225.75
972.67	225.68
972.96	225.69
973.26	225.59
973.55	225.77
973.85	225.73
974.14	225.64
974.43	225.71
974.73	225.67
975.02	225.52
975.31	225.58
975.61	225.57
975.90	225.55
976.19	225.44
976.49	225.50
976.78	225.55
977.07	225.47
977.37	225.57
977.66	225.60
977.95	225.52
978.24	225.60
978.54	225.64
978.83	225.58
979.12	225.54
979.42	225.54
979.71	225.42
980.00	225.40
980.29	225.42
980.59	225.22
980.88	225.32
981.17	225.38
981.46	225.38
981.76	225.41
982.05	225.61
982.34	225.74
982.63	225.67
982.93	225.64
983.22	225.77
983.51	225.72
983.80	225.80
984.09	225.92
984.39	225.82
984.68	225.79
984.97	225.85
985.26	225.79
985.55	225.80
985.85	225.74
986.14	225.82
986.43	225.94
986.72	225.96
987.01	225.85
987.30	225.79
987.59	225.69
987.89	225.65
988.18	225.41
988.47	225.23
988.76	225.21
989.05	225.18
989.34	225.14
989.63	225.25
989.92	225.16
990.22	225.10
990.51	225.14
990.80	225.16
991.09	225.17
991.38	225.23
991.67	225.25
991.96	225.19
992.25	225.25
992.54	225.09
992.83	225.09
993.12	225.01
993.41	225.11
993.70	225.36
993.99	225.43
994.28	225.54
994.58	225.71
994.87	225.63
995.16	225.60
995.45	225.60
995.74	225.45
996.03	225.52
996.32	225.54
996.61	225.67
996.90	225.55
997.19	225.47
997.48	225.46
997.77	225.38
998.06	225.45
998.34	225.34
998.63	225.36
998.92	225.40
999.21	225.51
999.50	225.48
999.79	225.34
1000.08	225.34
1000.37	225.37
1000.66	225.35
1000.95	225.52
1001.24	225.56
1001.53	225.59
1001.82	225.60
1002.11	225.48
1002.40	225.50
1002.68	225.64
1002.97	226.05
1003.26	226.14
1003.55	226.05
1003.84	226.11
1004.13	226.28
1004.42	226.25
1004.71	226.25
1004.99	226.22
1005.28	226.34
1005.57	226.36
1005.86	226.32
1006.15	226.25
1006.44	226.16
1006.72	226.15
1007.01	226.06
1007.30	226.07
1007.59	226.04
1007.88	226.11
1008.17	226.11
1008.45	226.10
1008.74	225.78
1009.03	225.70
1009.32	225.71
1009.60	225.82
1009.89	225.79
1010.18	225.54
1010.47	225.55
1010.76	225.57
1011.04	225.57
1011.33	225.59
1011.62	225.62
1011.91	225.67
1012.19	225.72
1012.48	225.76
1012.77	225.78
1013.05	226.03
1013.34	226.09
1013.63	226.04
1013.92	226.02
1014.20	225.99
1014.49	225.99
1014.78	226.10
1015.06	225.77
1015.35	225.77
1015.64	225.80
1015.92	225.85
1016.21	225.91
1016.50	225.96
1016.78	226.06
1017.07	226.11
1017.36	226.01
1017.64	225.97
1017.93	225.98
1018.22	225.93
1018.50	225.88
1018.79	225.89
1019.08	225.65
1019.36	225.68
1019.65	225.65
1019.93	225.80
1020.22	225.90
1020.51	226.17
1020.79	226.08
1021.08	224.55
1021.36	224.65
1021.65	226.10
1021.94	225.40
1022.22	226.80
1022.51	225.00
1022.79	228.35
1023.08	226.85
1023.36	231.75
1023.65	224.30
>>>>>End Processed Spectral Data<<<<<
