SpectraSuite Data File
++++++++++++++++++++++++++++++++++++
Date: Wed Sep 04 17:50:57 EDT 2013
User: lab3
Dark Spectrum Present: Yes
Reference Spectrum Present: No
Number of Sampled Component Spectra: 1
Spectrometers: USB2E7196
Integration Time (usec): 170000 (USB2E7196)
Spectra Averaged: 20 (USB2E7196)
Boxcar Smoothing: 10 (USB2E7196)
Correct for Electrical Dark: No (USB2E7196)
Strobe/Lamp Enabled: No (USB2E7196)
Correct for Detector Non-linearity: No (USB2E7196)
Correct for Stray Light: No (USB2E7196)
Number of Pixels in Processed Spectrum: 2048
>>>>>Begin Processed Spectral Data<<<<<
339.09	0.00
339.48	212.85
339.86	214.65
340.24	216.40
340.63	217.45
341.01	225.85
341.39	220.65
341.78	221.60
342.16	222.45
342.54	222.80
342.93	212.04
343.31	222.74
343.69	223.18
344.07	223.61
344.46	224.08
344.84	224.49
345.22	224.47
345.60	224.75
345.99	224.98
346.37	225.15
346.75	225.33
347.13	225.41
347.52	225.61
347.90	225.80
348.28	225.87
348.66	226.00
349.05	225.91
349.43	226.03
349.81	226.14
350.19	226.28
350.57	226.33
350.96	226.38
351.34	226.45
351.72	226.64
352.10	226.77
352.48	226.78
352.87	226.84
353.25	226.87
353.63	226.88
354.01	226.93
354.39	227.00
354.77	227.04
355.15	227.30
355.54	227.29
355.92	227.23
356.30	227.32
356.68	227.69
357.06	227.68
357.44	227.61
357.82	227.57
358.20	227.97
358.58	228.02
358.97	228.18
359.35	228.38
359.73	228.58
360.11	228.60
360.49	228.65
360.87	228.71
361.25	228.82
361.63	229.00
362.01	229.08
362.39	229.07
362.77	229.14
363.15	229.09
363.53	229.11
363.91	229.22
364.29	229.24
364.67	228.82
365.05	228.90
365.43	228.99
365.81	229.10
366.19	228.99
366.57	229.20
366.95	229.13
367.33	229.03
367.71	229.01
368.09	229.14
368.47	229.17
368.85	229.16
369.23	229.25
369.61	229.07
369.99	229.16
370.37	229.27
370.75	229.45
371.13	229.32
371.51	229.25
371.89	229.19
372.27	229.15
372.65	229.19
373.03	229.14
373.41	229.16
373.78	229.11
374.16	228.72
374.54	228.51
374.92	228.48
375.30	228.40
375.68	228.25
376.06	228.14
376.44	228.06
376.82	228.06
377.19	228.03
377.57	228.05
377.95	227.85
378.33	227.70
378.71	227.33
379.09	227.37
379.47	227.33
379.84	227.27
380.22	227.18
380.60	226.95
380.98	226.91
381.36	226.81
381.73	226.67
382.11	226.80
382.49	226.71
382.87	226.59
383.25	226.51
383.62	227.10
384.00	226.98
384.38	226.92
384.76	226.88
385.13	226.94
385.51	226.83
385.89	226.69
386.27	226.65
386.64	226.74
387.02	226.66
387.40	226.58
387.78	226.50
388.15	226.50
388.53	226.44
388.91	226.41
389.29	226.31
389.66	226.41
390.04	226.24
390.42	226.43
390.79	226.46
391.17	226.49
391.55	225.92
391.92	225.94
392.30	225.96
392.68	225.88
393.05	225.87
393.43	225.89
393.81	226.00
394.18	225.98
394.56	225.98
394.94	226.14
395.31	226.18
395.69	226.38
396.06	226.49
396.44	226.61
396.82	226.58
397.19	226.93
397.57	226.93
397.95	227.16
398.32	227.05
398.70	227.13
399.07	227.36
399.45	227.35
399.82	227.44
400.20	227.56
400.58	227.62
400.95	227.57
401.33	227.79
401.70	228.22
402.08	228.37
402.45	228.48
402.83	228.66
403.20	228.85
403.58	228.93
403.95	229.13
404.33	229.41
404.71	229.64
405.08	230.06
405.46	230.29
405.83	230.58
406.21	230.84
406.58	231.15
406.96	231.40
407.33	231.74
407.70	232.15
408.08	232.84
408.45	233.38
408.83	233.78
409.20	234.16
409.58	234.31
409.95	234.89
410.33	235.39
410.70	235.81
411.08	236.40
411.45	236.95
411.82	237.59
412.20	238.35
412.57	239.38
412.95	239.69
413.32	240.54
413.69	241.31
414.07	242.19
414.44	243.17
414.82	244.17
415.19	245.41
415.56	246.56
415.94	247.58
416.31	248.96
416.68	250.39
417.06	251.95
417.43	253.65
417.81	255.34
418.18	257.14
418.55	259.02
418.93	261.11
419.30	263.24
419.67	265.48
420.04	267.68
420.42	269.88
420.79	272.87
421.16	275.60
421.54	278.64
421.91	281.65
422.28	284.68
422.66	287.85
423.03	291.27
423.40	294.66
423.77	298.13
424.15	301.66
424.52	305.35
424.89	309.39
425.26	313.18
425.64	316.92
426.01	321.07
426.38	325.44
426.75	329.81
427.13	334.40
427.50	339.08
427.87	343.90
428.24	348.86
428.61	353.32
428.99	358.55
429.36	363.97
429.73	369.45
430.10	375.09
430.47	380.82
430.85	386.40
431.22	392.46
431.59	399.18
431.96	405.29
432.33	412.34
432.70	419.03
433.08	426.81
433.45	434.12
433.82	441.59
434.19	449.74
434.56	457.80
434.93	465.39
435.30	473.00
435.68	481.53
436.05	489.95
436.42	498.30
436.79	506.06
437.16	514.27
437.53	522.97
437.90	531.52
438.27	540.17
438.64	548.95
439.01	557.25
439.38	564.50
439.75	571.66
440.13	579.43
440.50	586.96
440.87	592.98
441.24	599.47
441.61	606.34
441.98	611.30
442.35	617.00
442.72	622.97
443.09	628.88
443.46	632.28
443.83	634.45
444.20	636.31
444.57	638.95
444.94	640.10
445.31	641.21
445.68	642.43
446.05	642.43
446.42	641.14
446.79	639.77
447.16	638.07
447.53	636.81
447.90	633.30
448.27	629.60
448.64	624.90
449.01	621.24
449.37	615.01
449.74	609.10
450.11	602.26
450.48	594.56
450.85	586.48
451.22	579.85
451.59	573.41
451.96	567.25
452.33	559.25
452.70	551.90
453.07	543.25
453.43	534.25
453.80	525.90
454.17	517.98
454.54	510.40
454.91	502.33
455.28	494.37
455.65	486.97
456.02	480.23
456.38	473.91
456.75	466.02
457.12	459.68
457.49	453.36
457.86	447.17
458.23	442.10
458.59	436.55
458.96	430.73
459.33	425.68
459.70	420.58
460.07	416.47
460.43	411.77
460.80	407.52
461.17	403.85
461.54	399.94
461.91	396.17
462.27	392.19
462.64	388.89
463.01	385.49
463.38	382.21
463.74	378.16
464.11	375.21
464.48	372.75
464.85	369.86
465.21	367.76
465.58	365.40
465.95	362.54
466.32	360.22
466.68	357.84
467.05	355.60
467.42	353.45
467.78	351.10
468.15	349.03
468.52	347.42
468.88	345.21
469.25	343.19
469.62	341.73
469.98	340.07
470.35	338.55
470.72	336.84
471.08	335.06
471.45	333.80
471.82	332.49
472.18	331.01
472.55	329.98
472.92	328.60
473.28	327.45
473.65	326.31
474.02	325.26
474.38	324.46
474.75	323.57
475.11	322.52
475.48	321.81
475.85	321.16
476.21	320.46
476.58	319.86
476.94	319.58
477.31	318.99
477.67	318.60
478.04	318.26
478.41	318.17
478.77	318.52
479.14	318.26
479.50	318.14
479.87	318.18
480.23	318.16
480.60	318.17
480.96	318.17
481.33	318.52
481.69	318.75
482.06	319.08
482.42	319.39
482.79	319.73
483.15	320.20
483.52	320.85
483.88	321.46
484.25	322.06
484.61	322.62
484.98	323.33
485.34	324.28
485.71	325.33
486.07	326.23
486.44	326.70
486.80	327.81
487.17	328.91
487.53	330.25
487.90	331.65
488.26	333.43
488.62	335.23
488.99	336.79
489.35	338.65
489.72	340.48
490.08	342.51
490.44	344.61
490.81	346.88
491.17	349.09
491.54	351.46
491.90	354.08
492.26	356.80
492.63	359.64
492.99	362.50
493.36	365.44
493.72	368.96
494.08	372.58
494.45	376.27
494.81	380.10
495.17	384.04
495.54	388.30
495.90	392.45
496.26	396.88
496.63	401.51
496.99	406.29
497.35	411.25
497.72	416.53
498.08	422.00
498.44	427.64
498.80	433.73
499.17	439.89
499.53	446.14
499.89	452.78
500.26	459.58
500.62	466.50
500.98	473.96
501.34	481.28
501.71	489.01
502.07	496.80
502.43	504.96
502.79	513.16
503.16	521.75
503.52	530.79
503.88	540.02
504.24	549.66
504.60	559.56
504.97	569.90
505.33	580.37
505.69	591.42
506.05	602.46
506.41	613.69
506.78	625.25
507.14	637.41
507.50	649.58
507.86	662.30
508.22	675.24
508.59	688.32
508.95	701.98
509.31	716.01
509.67	730.09
510.03	744.34
510.39	759.10
510.75	774.24
511.12	789.34
511.48	804.97
511.84	820.83
512.20	836.55
512.56	852.81
512.92	869.44
513.28	886.30
513.64	903.42
514.00	920.80
514.37	938.56
514.73	956.51
515.09	974.88
515.45	993.09
515.81	1011.58
516.17	1030.13
516.53	1048.69
516.89	1067.21
517.25	1086.69
517.61	1106.78
517.97	1126.79
518.33	1146.64
518.69	1166.95
519.05	1187.46
519.41	1207.90
519.77	1228.89
520.13	1249.31
520.49	1269.80
520.85	1291.89
521.21	1312.84
521.57	1334.07
521.93	1354.52
522.29	1375.88
522.65	1396.29
523.01	1417.10
523.37	1437.47
523.73	1458.47
524.09	1478.86
524.45	1499.47
524.81	1520.14
525.17	1540.56
525.53	1561.06
525.89	1581.64
526.25	1602.14
526.61	1622.14
526.97	1642.89
527.33	1664.10
527.68	1685.89
528.04	1707.06
528.40	1726.66
528.76	1747.66
529.12	1767.84
529.48	1788.74
529.84	1808.33
530.20	1829.28
530.56	1849.92
530.91	1870.88
531.27	1891.01
531.63	1911.55
531.99	1932.03
532.35	1951.79
532.71	1971.81
533.07	1992.78
533.42	2012.75
533.78	2032.48
534.14	2052.35
534.50	2071.39
534.86	2090.31
535.21	2107.65
535.57	2125.96
535.93	2143.16
536.29	2160.89
536.65	2178.67
537.00	2196.01
537.36	2213.32
537.72	2229.89
538.08	2246.55
538.44	2262.93
538.79	2279.38
539.15	2295.73
539.51	2311.35
539.87	2326.49
540.22	2340.56
540.58	2354.51
540.94	2367.39
541.29	2380.01
541.65	2392.15
542.01	2404.77
542.37	2414.98
542.72	2425.99
543.08	2436.43
543.44	2448.43
543.79	2458.10
544.15	2468.03
544.51	2477.81
544.87	2487.21
545.22	2495.55
545.58	2503.61
545.94	2510.71
546.29	2517.01
546.65	2523.11
547.01	2528.88
547.36	2534.25
547.72	2539.55
548.07	2543.05
548.43	2548.20
548.79	2552.68
549.14	2556.60
549.50	2559.85
549.86	2563.85
550.21	2567.50
550.57	2570.73
550.92	2571.70
551.28	2573.14
551.64	2575.56
551.99	2577.64
552.35	2579.10
552.70	2581.22
553.06	2582.58
553.41	2583.95
553.77	2585.45
554.13	2586.56
554.48	2587.87
554.84	2589.35
555.19	2590.36
555.55	2591.99
555.90	2591.35
556.26	2590.17
556.61	2588.70
556.97	2586.72
557.32	2586.03
557.68	2584.59
558.03	2582.97
558.39	2581.46
558.74	2580.73
559.10	2576.99
559.45	2573.30
559.81	2568.71
560.16	2563.20
560.52	2557.88
560.87	2553.20
561.23	2547.46
561.58	2541.81
561.94	2534.59
562.29	2527.05
562.64	2520.16
563.00	2511.81
563.35	2505.51
563.71	2498.94
564.06	2492.70
564.42	2486.17
564.77	2479.20
565.12	2471.55
565.48	2464.11
565.83	2456.11
566.19	2447.69
566.54	2440.10
566.89	2431.67
567.25	2424.31
567.60	2417.37
567.96	2409.86
568.31	2401.60
568.66	2393.37
569.02	2384.10
569.37	2375.98
569.72	2368.70
570.08	2359.26
570.43	2349.88
570.78	2340.47
571.14	2330.87
571.49	2320.79
571.84	2311.34
572.20	2300.50
572.55	2290.37
572.90	2279.11
573.26	2269.05
573.61	2257.86
573.96	2246.45
574.31	2234.67
574.67	2222.69
575.02	2209.77
575.37	2197.28
575.72	2184.26
576.08	2172.41
576.43	2160.24
576.78	2147.55
577.13	2133.65
577.49	2121.11
577.84	2109.61
578.19	2097.41
578.54	2084.93
578.90	2073.01
579.25	2060.50
579.60	2047.90
579.95	2035.09
580.30	2022.22
580.66	2008.61
581.01	1995.16
581.36	1981.53
581.71	1969.12
582.06	1956.37
582.42	1944.18
582.77	1931.81
583.12	1920.24
583.47	1907.76
583.82	1895.85
584.17	1883.75
584.53	1872.00
584.88	1859.05
585.23	1845.74
585.58	1831.87
585.93	1818.88
586.28	1805.47
586.63	1791.72
586.98	1777.99
587.34	1764.98
587.69	1751.88
588.04	1739.59
588.39	1727.92
588.74	1715.80
589.09	1703.67
589.44	1690.99
589.79	1678.80
590.14	1666.80
590.49	1654.50
590.84	1642.56
591.19	1630.74
591.54	1618.50
591.89	1606.45
592.25	1596.73
592.60	1585.32
592.95	1574.02
593.30	1562.32
593.65	1550.59
594.00	1538.52
594.35	1528.51
594.70	1516.91
595.05	1505.73
595.40	1493.78
595.75	1481.74
596.10	1470.78
596.45	1459.64
596.80	1449.10
597.15	1437.84
597.50	1426.28
597.85	1415.18
598.19	1403.55
598.54	1391.84
598.89	1380.95
599.24	1370.47
599.59	1358.79
599.94	1348.08
600.29	1337.82
600.64	1327.82
600.99	1317.24
601.34	1308.09
601.69	1297.32
602.04	1287.57
602.39	1277.81
602.74	1268.75
603.08	1259.85
603.43	1250.62
603.78	1241.01
604.13	1231.39
604.48	1221.90
604.83	1212.49
605.18	1202.73
605.53	1193.39
605.87	1184.42
606.22	1175.92
606.57	1166.84
606.92	1157.37
607.27	1148.65
607.62	1139.91
607.96	1131.22
608.31	1123.45
608.66	1114.95
609.01	1106.44
609.36	1098.06
609.70	1089.81
610.05	1081.28
610.40	1072.63
610.75	1063.96
611.10	1055.50
611.44	1047.05
611.79	1038.83
612.14	1031.01
612.49	1023.12
612.83	1015.78
613.18	1008.21
613.53	1000.31
613.88	992.34
614.22	984.78
614.57	976.87
614.92	969.16
615.27	961.87
615.61	954.00
615.96	946.34
616.31	938.94
616.65	931.76
617.00	924.34
617.35	917.16
617.70	910.06
618.04	902.90
618.39	896.02
618.74	889.52
619.08	882.70
619.43	875.71
619.78	868.75
620.12	861.52
620.47	854.55
620.82	847.35
621.16	840.62
621.51	834.48
621.85	828.34
622.20	821.63
622.55	814.93
622.89	808.52
623.24	802.27
623.59	795.93
623.93	789.69
624.28	783.71
624.62	778.19
624.97	772.31
625.32	766.75
625.66	760.71
626.01	754.77
626.35	749.57
626.70	743.94
627.04	738.79
627.39	733.42
627.73	728.23
628.08	723.40
628.43	718.10
628.77	712.52
629.12	707.29
629.46	702.69
629.81	698.22
630.15	693.82
630.50	689.08
630.84	684.24
631.19	679.56
631.53	675.01
631.88	669.92
632.22	665.24
632.57	660.70
632.91	656.26
633.26	651.90
633.60	647.20
633.95	642.63
634.29	637.99
634.64	633.66
634.98	629.00
635.32	624.57
635.67	620.69
636.01	616.62
636.36	612.27
636.70	608.31
637.05	603.85
637.39	599.66
637.73	595.72
638.08	591.93
638.42	587.77
638.77	583.50
639.11	579.13
639.45	574.86
639.80	570.50
640.14	566.39
640.49	562.44
640.83	558.65
641.17	555.15
641.52	551.49
641.86	547.85
642.20	544.69
642.55	541.06
642.89	537.20
643.23	533.69
643.58	530.61
643.92	526.94
644.26	523.70
644.61	520.59
644.95	517.17
645.29	513.79
645.64	510.67
645.98	507.70
646.32	504.92
646.66	502.01
647.01	499.14
647.35	496.62
647.69	493.61
648.04	490.85
648.38	487.96
648.72	485.10
649.06	482.09
649.41	478.94
649.75	476.11
650.09	473.38
650.43	470.54
650.78	467.54
651.12	464.74
651.46	462.01
651.80	459.34
652.14	456.60
652.49	454.02
652.83	451.44
653.17	448.83
653.51	446.13
653.85	443.69
654.20	441.20
654.54	438.57
654.88	436.19
655.22	434.01
655.56	431.62
655.90	429.21
656.25	426.94
656.59	424.83
656.93	422.68
657.27	420.77
657.61	418.39
657.95	416.23
658.29	414.06
658.64	411.90
658.98	409.51
659.32	407.33
659.66	405.25
660.00	403.20
660.34	401.24
660.68	399.20
661.02	397.09
661.36	395.14
661.70	393.13
662.05	391.09
662.39	389.05
662.73	387.32
663.07	385.86
663.41	384.10
663.75	382.18
664.09	380.35
664.43	378.31
664.77	376.69
665.11	375.03
665.45	373.41
665.79	371.75
666.13	370.02
666.47	368.40
666.81	366.72
667.15	365.03
667.49	363.46
667.83	362.23
668.17	360.75
668.51	359.27
668.85	357.94
669.19	356.81
669.53	355.20
669.87	353.62
670.21	352.00
670.55	350.55
670.89	349.48
671.23	348.11
671.57	346.76
671.91	345.45
672.25	344.05
672.58	342.84
672.92	341.39
673.26	340.27
673.60	339.10
673.94	337.92
674.28	336.80
674.62	335.76
674.96	334.37
675.30	333.24
675.64	332.12
675.97	330.89
676.31	329.66
676.65	328.48
676.99	327.56
677.33	326.40
677.67	325.47
678.01	324.15
678.34	323.17
678.68	322.27
679.02	321.20
679.36	320.23
679.70	319.16
680.04	318.34
680.37	317.27
680.71	316.46
681.05	315.66
681.39	314.70
681.73	313.62
682.06	312.81
682.40	311.97
682.74	311.20
683.08	310.48
683.42	309.56
683.75	308.90
684.09	307.99
684.43	307.29
684.77	306.41
685.10	305.63
685.44	304.86
685.78	304.01
686.12	303.23
686.45	302.42
686.79	301.65
687.13	300.96
687.46	300.34
687.80	299.58
688.14	298.63
688.48	297.88
688.81	297.19
689.15	296.50
689.49	295.77
689.82	295.08
690.16	294.25
690.50	293.55
690.83	292.82
691.17	292.07
691.51	291.42
691.84	290.81
692.18	290.13
692.52	289.38
692.85	288.76
693.19	288.35
693.52	287.69
693.86	287.03
694.20	286.30
694.53	285.68
694.87	285.00
695.21	284.38
695.54	283.90
695.88	283.23
696.21	282.53
696.55	281.97
696.88	281.37
697.22	280.74
697.56	280.18
697.89	279.51
698.23	278.95
698.56	278.34
698.90	277.80
699.23	277.28
699.57	276.80
699.90	276.24
700.24	275.57
700.58	275.10
700.91	274.74
701.25	274.67
701.58	274.51
701.92	274.18
702.25	273.74
702.59	273.23
702.92	272.81
703.26	272.38
703.59	271.90
703.93	271.86
704.26	271.56
704.60	271.13
704.93	270.73
705.26	270.24
705.60	269.81
705.93	269.24
706.27	268.92
706.60	268.63
706.94	268.47
707.27	268.09
707.61	267.78
707.94	267.31
708.27	266.47
708.61	265.68
708.94	265.22
709.28	264.80
709.61	264.37
709.94	264.04
710.28	263.65
710.61	263.29
710.95	262.50
711.28	262.37
711.61	261.90
711.95	261.68
712.28	261.27
712.61	260.94
712.95	260.92
713.28	260.82
713.61	260.35
713.95	259.86
714.28	259.55
714.61	259.23
714.95	258.87
715.28	258.53
715.61	258.22
715.95	257.92
716.28	257.66
716.61	257.46
716.95	257.05
717.28	256.70
717.61	256.44
717.94	256.11
718.28	255.51
718.61	255.30
718.94	254.95
719.27	254.74
719.61	254.61
719.94	254.20
720.27	253.67
720.60	253.45
720.94	253.23
721.27	252.97
721.60	252.76
721.93	252.54
722.27	252.56
722.60	252.40
722.93	252.07
723.26	251.88
723.59	251.59
723.93	251.44
724.26	251.22
724.59	250.92
724.92	250.70
725.25	250.61
725.59	250.40
725.92	250.22
726.25	250.05
726.58	249.74
726.91	249.52
727.24	249.29
727.57	249.13
727.91	248.86
728.24	248.76
728.57	248.47
728.90	248.33
729.23	247.85
729.56	247.90
729.89	247.74
730.22	247.49
730.55	247.28
730.89	247.17
731.22	247.02
731.55	246.81
731.88	246.65
732.21	246.42
732.54	246.24
732.87	246.11
733.20	245.96
733.53	245.83
733.86	245.73
734.19	245.55
734.52	245.42
734.85	245.55
735.18	245.27
735.51	245.28
735.84	245.13
736.17	245.24
736.50	244.82
736.83	245.27
737.16	245.12
737.49	245.06
737.82	244.85
738.15	244.79
738.48	244.71
738.81	244.57
739.14	244.33
739.47	244.16
739.80	243.90
740.13	243.78
740.46	243.56
740.79	243.35
741.12	243.22
741.45	242.93
741.78	242.52
742.11	242.55
742.44	242.23
742.77	242.17
743.10	241.88
743.43	241.69
743.75	241.05
744.08	241.50
744.41	241.31
744.74	241.09
745.07	240.83
745.40	240.80
745.73	240.86
746.06	240.76
746.39	240.69
746.71	240.61
747.04	240.40
747.37	240.25
747.70	240.18
748.03	240.07
748.36	240.11
748.68	239.98
749.01	239.75
749.34	239.61
749.67	239.54
750.00	239.52
750.33	239.76
750.65	239.65
750.98	238.94
751.31	238.82
751.64	238.72
751.97	238.82
752.29	238.62
752.62	238.37
752.95	238.29
753.28	238.10
753.60	237.97
753.93	238.08
754.26	238.08
754.59	237.88
754.91	237.74
755.24	237.58
755.57	237.53
755.90	237.40
756.22	237.35
756.55	237.09
756.88	236.82
757.20	236.41
757.53	236.14
757.86	236.11
758.19	236.05
758.51	236.05
758.84	235.80
759.17	235.72
759.49	235.54
759.82	235.64
760.15	235.62
760.47	235.59
760.80	235.30
761.13	235.27
761.45	235.16
761.78	235.06
762.11	234.90
762.43	234.75
762.76	234.70
763.08	234.64
763.41	234.67
763.74	234.69
764.06	234.60
764.39	234.59
764.71	234.46
765.04	234.25
765.37	234.16
765.69	234.09
766.02	233.98
766.34	233.85
766.67	233.61
767.00	233.67
767.32	233.70
767.65	233.91
767.97	233.80
768.30	233.72
768.62	233.67
768.95	233.65
769.27	233.60
769.60	233.60
769.92	233.48
770.25	233.26
770.57	233.16
770.90	233.16
771.22	233.07
771.55	233.08
771.87	233.10
772.20	233.03
772.52	233.33
772.85	233.88
773.17	233.85
773.50	233.75
773.82	233.59
774.15	233.41
774.47	233.07
774.80	232.91
775.12	232.95
775.45	232.92
775.77	232.82
776.09	232.73
776.42	232.68
776.74	232.83
777.07	232.73
777.39	232.68
777.72	232.61
778.04	232.73
778.36	232.63
778.69	232.56
779.01	232.51
779.33	232.11
779.66	231.56
779.98	231.55
780.31	231.50
780.63	231.72
780.95	231.75
781.28	231.71
781.60	231.66
781.92	231.54
782.25	231.54
782.57	231.55
782.89	231.48
783.22	231.34
783.54	231.13
783.86	231.27
784.19	231.22
784.51	231.22
784.83	231.05
785.16	230.96
785.48	230.94
785.80	230.91
786.12	230.88
786.45	230.82
786.77	230.80
787.09	230.75
787.42	230.45
787.74	230.40
788.06	230.32
788.38	230.23
788.71	230.19
789.03	230.12
789.35	230.20
789.67	230.10
789.99	230.14
790.32	230.10
790.64	230.00
790.96	230.35
791.28	230.20
791.61	230.09
791.93	230.15
792.25	230.12
792.57	230.40
792.89	230.31
793.21	230.22
793.54	230.11
793.86	230.05
794.18	230.06
794.50	229.93
794.82	230.00
795.14	230.07
795.47	230.11
795.79	230.05
796.11	229.86
796.43	229.85
796.75	229.71
797.07	229.71
797.39	229.64
797.71	229.25
798.04	229.28
798.36	229.27
798.68	229.19
799.00	229.22
799.32	229.01
799.64	229.13
799.96	229.12
800.28	229.21
800.60	229.16
800.92	229.10
801.24	229.08
801.56	229.05
801.89	228.98
802.21	228.98
802.53	228.94
802.85	228.98
803.17	229.16
803.49	229.10
803.81	229.04
804.13	229.02
804.45	229.00
804.77	229.00
805.09	229.05
805.41	229.02
805.73	228.90
806.05	228.70
806.37	228.58
806.69	228.50
807.01	228.57
807.33	228.67
807.65	228.54
807.97	228.75
808.28	228.63
808.60	228.58
808.92	228.61
809.24	228.90
809.56	228.92
809.88	228.81
810.20	228.85
810.52	229.00
810.84	228.94
811.16	228.87
811.48	228.89
811.80	229.02
812.12	228.99
812.43	229.09
812.75	229.09
813.07	229.03
813.39	229.08
813.71	228.92
814.03	228.83
814.35	228.89
814.67	228.71
814.98	228.75
815.30	228.80
815.62	228.59
815.94	228.31
816.26	228.46
816.58	228.34
816.89	228.42
817.21	228.26
817.53	228.29
817.85	228.34
818.17	228.22
818.48	228.01
818.80	228.11
819.12	228.05
819.44	228.03
819.76	227.94
820.07	227.97
820.39	227.97
820.71	227.98
821.03	227.85
821.34	227.79
821.66	227.85
821.98	227.89
822.30	227.92
822.61	228.19
822.93	227.94
823.25	227.90
823.57	227.80
823.88	227.83
824.20	227.80
824.52	227.84
824.83	227.91
825.15	227.87
825.47	227.78
825.79	227.73
826.10	227.71
826.42	227.62
826.74	227.65
827.05	227.61
827.37	227.60
827.69	227.66
828.00	227.63
828.32	227.54
828.64	227.37
828.95	227.60
829.27	227.38
829.58	227.31
829.90	227.36
830.22	227.40
830.53	227.34
830.85	227.25
831.17	227.18
831.48	227.10
831.80	227.15
832.11	227.16
832.43	227.17
832.75	227.13
833.06	227.55
833.38	227.33
833.69	227.29
834.01	227.35
834.32	227.26
834.64	227.25
834.96	227.32
835.27	227.37
835.59	227.18
835.90	227.18
836.22	227.20
836.53	227.19
836.85	227.10
837.16	227.49
837.48	227.61
837.79	227.71
838.11	227.76
838.42	227.73
838.74	227.72
839.05	227.67
839.37	227.70
839.68	227.37
840.00	227.43
840.31	227.52
840.63	227.43
840.94	227.50
841.26	227.56
841.57	227.50
841.88	227.56
842.20	227.54
842.51	227.42
842.83	227.49
843.14	227.92
843.46	227.95
843.77	227.76
844.08	227.67
844.40	227.50
844.71	227.52
845.03	227.51
845.34	227.48
845.65	227.48
845.97	227.41
846.28	227.43
846.60	227.46
846.91	227.39
847.22	227.36
847.54	227.40
847.85	227.32
848.16	227.35
848.48	227.21
848.79	227.35
849.10	227.46
849.42	227.42
849.73	226.96
850.04	227.00
850.36	226.80
850.67	226.90
850.98	226.96
851.30	226.93
851.61	226.87
851.92	226.95
852.23	227.05
852.55	227.15
852.86	227.18
853.17	227.22
853.49	227.30
853.80	227.36
854.11	227.42
854.42	227.48
854.74	227.42
855.05	227.42
855.36	227.19
855.67	227.21
855.99	227.26
856.30	227.84
856.61	227.81
856.92	227.80
857.23	227.71
857.55	227.60
857.86	227.58
858.17	227.64
858.48	227.49
858.79	227.41
859.11	227.41
859.42	227.39
859.73	227.32
860.04	227.29
860.35	227.21
860.66	227.09
860.98	227.05
861.29	227.04
861.60	227.11
861.91	227.23
862.22	227.09
862.53	227.00
862.84	226.39
863.16	226.48
863.47	226.45
863.78	226.52
864.09	226.63
864.40	226.65
864.71	226.69
865.02	226.81
865.33	226.79
865.64	226.75
865.95	226.73
866.27	227.05
866.58	227.02
866.89	227.10
867.20	227.09
867.51	227.02
867.82	226.99
868.13	227.12
868.44	227.02
868.75	227.12
869.06	227.17
869.37	227.26
869.68	227.06
869.99	227.17
870.30	227.09
870.61	227.07
870.92	227.00
871.23	226.94
871.54	226.94
871.85	227.03
872.16	227.09
872.47	227.01
872.78	226.71
873.09	226.77
873.40	226.67
873.71	226.65
874.02	226.67
874.33	226.69
874.64	226.62
874.95	226.76
875.26	226.75
875.56	226.70
875.87	226.69
876.18	226.71
876.49	227.15
876.80	227.20
877.11	227.13
877.42	227.17
877.73	227.22
878.04	227.18
878.35	227.15
878.66	227.15
878.96	227.17
879.27	227.14
879.58	227.13
879.89	227.13
880.20	227.33
880.51	227.36
880.82	227.39
881.12	227.39
881.43	227.16
881.74	226.99
882.05	226.98
882.36	226.98
882.67	227.01
882.97	226.50
883.28	226.44
883.59	226.44
883.90	226.45
884.21	226.48
884.51	226.46
884.82	226.40
885.13	226.32
885.44	226.32
885.74	226.28
886.05	226.22
886.36	226.30
886.67	226.13
886.98	226.37
887.28	226.39
887.59	226.35
887.90	226.47
888.20	226.52
888.51	226.64
888.82	226.59
889.13	226.62
889.43	227.00
889.74	227.00
890.05	227.07
890.35	227.07
890.66	226.97
890.97	226.98
891.28	226.95
891.58	227.05
891.89	226.99
892.20	226.99
892.50	226.93
892.81	226.86
893.12	226.84
893.42	226.56
893.73	226.58
894.04	226.58
894.34	226.59
894.65	226.55
894.95	226.46
895.26	226.41
895.57	226.64
895.87	226.10
896.18	226.20
896.48	226.12
896.79	226.05
897.10	226.13
897.40	226.15
897.71	226.19
898.01	226.09
898.32	226.21
898.63	226.25
898.93	226.27
899.24	226.23
899.54	226.21
899.85	226.20
900.15	226.22
900.46	226.24
900.76	226.28
901.07	226.29
901.38	226.29
901.68	226.35
901.99	226.09
902.29	226.19
902.60	226.17
902.90	226.08
903.21	226.12
903.51	226.13
903.82	226.20
904.12	226.26
904.43	226.35
904.73	226.34
905.03	226.34
905.34	226.77
905.64	226.69
905.95	226.67
906.25	226.71
906.56	226.67
906.86	226.65
907.17	226.61
907.47	226.65
907.77	226.60
908.08	226.58
908.38	226.58
908.69	226.70
908.99	226.73
909.30	226.86
909.60	226.80
909.90	226.80
910.21	226.60
910.51	226.45
910.81	226.45
911.12	226.43
911.42	226.50
911.73	226.11
912.03	226.18
912.33	226.32
912.64	226.25
912.94	226.24
913.24	226.09
913.55	226.11
913.85	226.07
914.15	226.15
914.46	226.19
914.76	226.18
915.06	226.09
915.37	225.99
915.67	225.92
915.97	225.98
916.27	225.86
916.58	225.95
916.88	225.96
917.18	225.87
917.49	226.25
917.79	226.18
918.09	226.23
918.39	226.42
918.70	226.35
919.00	226.37
919.30	226.66
919.60	226.72
919.91	226.58
920.21	226.61
920.51	226.50
920.81	226.43
921.12	226.48
921.42	226.51
921.72	226.56
922.02	226.62
922.32	226.67
922.63	226.68
922.93	226.99
923.23	227.05
923.53	227.07
923.83	226.69
924.13	226.66
924.44	226.61
924.74	226.66
925.04	226.80
925.34	226.75
925.64	226.44
925.94	226.45
926.24	226.77
926.55	226.72
926.85	226.82
927.15	226.83
927.45	226.85
927.75	226.84
928.05	226.83
928.35	226.79
928.65	226.79
928.95	226.86
929.26	226.53
929.56	226.56
929.86	226.56
930.16	226.50
930.46	226.44
930.76	226.46
931.06	226.20
931.36	225.96
931.66	226.07
931.96	226.20
932.26	226.23
932.56	225.97
932.86	226.08
933.16	226.01
933.46	225.99
933.76	225.88
934.06	225.97
934.36	226.17
934.66	226.15
934.96	226.11
935.26	226.10
935.56	226.22
935.86	226.09
936.16	226.01
936.46	226.00
936.76	226.07
937.06	226.00
937.36	226.01
937.66	226.11
937.96	226.15
938.26	225.95
938.56	225.90
938.86	225.98
939.16	225.97
939.46	226.10
939.76	226.11
940.06	226.08
940.35	225.96
940.65	225.67
940.95	225.70
941.25	225.60
941.55	225.56
941.85	225.58
942.15	225.73
942.45	225.91
942.75	225.92
943.04	225.93
943.34	226.00
943.64	226.03
943.94	225.94
944.24	225.87
944.54	225.97
944.84	226.01
945.13	225.97
945.43	225.99
945.73	225.90
946.03	225.86
946.33	225.92
946.62	225.86
946.92	225.86
947.22	225.88
947.52	225.95
947.82	226.00
948.11	225.82
948.41	225.69
948.71	225.53
949.01	225.62
949.31	225.59
949.60	225.60
949.90	225.64
950.20	225.67
950.50	225.64
950.79	225.57
951.09	225.60
951.39	225.54
951.69	225.43
951.98	225.55
952.28	225.56
952.58	225.51
952.87	225.46
953.17	225.59
953.47	225.55
953.76	225.49
954.06	225.40
954.36	225.40
954.66	225.38
954.95	225.50
955.25	225.47
955.55	225.54
955.84	225.42
956.14	225.45
956.44	225.46
956.73	225.36
957.03	225.35
957.32	225.33
957.62	225.28
957.92	225.37
958.21	225.28
958.51	225.86
958.81	225.98
959.10	226.14
959.40	226.18
959.69	226.17
959.99	226.28
960.29	226.28
960.58	226.30
960.88	226.49
961.17	226.44
961.47	226.51
961.76	226.46
962.06	226.57
962.36	226.53
962.65	226.54
962.95	226.65
963.24	226.65
963.54	226.60
963.83	226.65
964.13	226.64
964.42	226.60
964.72	226.16
965.01	226.09
965.31	226.00
965.60	225.92
965.90	226.22
966.19	226.10
966.49	226.11
966.78	226.13
967.08	226.05
967.37	226.04
967.67	225.93
967.96	225.98
968.26	225.97
968.55	225.96
968.85	225.88
969.14	225.87
969.43	225.88
969.73	225.89
970.02	225.85
970.32	225.79
970.61	225.79
970.91	225.63
971.20	225.63
971.49	225.63
971.79	225.58
972.08	225.31
972.38	225.36
972.67	225.38
972.96	225.38
973.26	225.32
973.55	225.48
973.85	225.43
974.14	225.40
974.43	225.50
974.73	225.47
975.02	225.55
975.31	225.57
975.61	225.60
975.90	225.60
976.19	225.60
976.49	225.71
976.78	225.72
977.07	225.75
977.37	225.77
977.66	225.93
977.95	225.99
978.24	225.95
978.54	226.06
978.83	226.06
979.12	226.05
979.42	226.05
979.71	225.96
980.00	226.05
980.29	226.06
980.59	225.90
980.88	226.00
981.17	226.02
981.46	225.97
981.76	225.96
982.05	226.12
982.34	226.17
982.63	226.10
982.93	226.10
983.22	226.28
983.51	226.35
983.80	226.30
984.09	226.30
984.39	226.30
984.68	226.27
984.97	226.21
985.26	226.17
985.55	226.28
985.85	226.18
986.14	226.20
986.43	226.34
986.72	226.40
987.01	226.32
987.30	226.30
987.59	226.25
987.89	226.30
988.18	226.14
988.47	226.10
988.76	226.07
989.05	226.04
989.34	225.88
989.63	225.96
989.92	225.92
990.22	225.88
990.51	225.92
990.80	225.85
991.09	225.97
991.38	226.06
991.67	225.95
991.96	225.90
992.25	225.94
992.54	225.78
992.83	225.77
993.12	225.75
993.41	225.79
993.70	226.03
993.99	226.13
994.28	226.22
994.58	226.25
994.87	226.24
995.16	226.28
995.45	226.26
995.74	226.09
996.03	226.12
996.32	226.23
996.61	226.26
996.90	226.24
997.19	226.11
997.48	226.11
997.77	226.09
998.06	226.16
998.34	226.12
998.63	226.14
998.92	226.08
999.21	226.12
999.50	226.13
999.79	225.97
1000.08	225.87
1000.37	225.86
1000.66	225.77
1000.95	225.92
1001.24	225.85
1001.53	225.94
1001.82	225.97
1002.11	225.85
1002.40	225.91
1002.68	226.00
1002.97	226.42
1003.26	226.40
1003.55	226.30
1003.84	226.33
1004.13	226.50
1004.42	226.42
1004.71	226.40
1004.99	226.28
1005.28	226.38
1005.57	226.34
1005.86	226.25
1006.15	226.27
1006.44	226.13
1006.72	226.28
1007.01	226.18
1007.30	226.23
1007.59	226.14
1007.88	226.10
1008.17	226.14
1008.45	226.03
1008.74	225.87
1009.03	225.58
1009.32	225.65
1009.60	225.70
1009.89	225.65
1010.18	225.45
1010.47	225.43
1010.76	225.37
1011.04	225.48
1011.33	225.48
1011.62	225.52
1011.91	225.62
1012.19	225.67
1012.48	225.81
1012.77	225.78
1013.05	225.98
1013.34	225.97
1013.63	225.98
1013.92	226.05
1014.20	226.03
1014.49	226.01
1014.78	226.11
1015.06	225.99
1015.35	225.98
1015.64	226.02
1015.92	226.14
1016.21	226.19
1016.50	226.24
1016.78	226.40
1017.07	226.51
1017.36	226.46
1017.64	226.40
1017.93	226.41
1018.22	226.30
1018.50	226.27
1018.79	226.22
1019.08	225.98
1019.36	226.05
1019.65	226.07
1019.93	226.14
1020.22	226.19
1020.51	226.36
1020.79	226.28
1021.08	225.25
1021.36	225.55
1021.65	225.40
1021.94	225.30
1022.22	226.90
1022.51	225.60
1022.79	227.80
1023.08	226.20
1023.36	230.35
1023.65	225.35
>>>>>End Processed Spectral Data<<<<<
