SpectraSuite Data File
++++++++++++++++++++++++++++++++++++
Date: Wed Sep 04 18:04:00 EDT 2013
User: lab3
Dark Spectrum Present: Yes
Reference Spectrum Present: No
Number of Sampled Component Spectra: 1
Spectrometers: USB2E7196
Integration Time (usec): 170000 (USB2E7196)
Spectra Averaged: 20 (USB2E7196)
Boxcar Smoothing: 10 (USB2E7196)
Correct for Electrical Dark: No (USB2E7196)
Strobe/Lamp Enabled: No (USB2E7196)
Correct for Detector Non-linearity: No (USB2E7196)
Correct for Stray Light: No (USB2E7196)
Number of Pixels in Processed Spectrum: 2048
>>>>>Begin Processed Spectral Data<<<<<
339.09	0.00
339.48	213.60
339.86	215.35
340.24	215.45
340.63	217.60
341.01	225.95
341.39	220.75
341.78	222.90
342.16	224.30
342.54	222.70
342.93	212.78
343.31	223.53
343.69	224.03
344.07	224.46
344.46	224.96
344.84	225.36
345.22	225.38
345.60	225.56
345.99	225.80
346.37	225.87
346.75	226.00
347.13	226.05
347.52	226.08
347.90	226.34
348.28	226.36
348.66	226.51
349.05	226.40
349.43	226.51
349.81	226.54
350.19	226.53
350.57	226.62
350.96	226.70
351.34	226.76
351.72	226.88
352.10	227.06
352.48	227.10
352.87	227.24
353.25	227.30
353.63	227.43
354.01	227.41
354.39	227.51
354.77	227.62
355.15	227.78
355.54	227.83
355.92	227.74
356.30	227.80
356.68	228.10
357.06	228.16
357.44	228.10
357.82	228.16
358.20	228.65
358.58	228.70
358.97	228.78
359.35	228.98
359.73	229.16
360.11	229.14
360.49	229.25
360.87	229.20
361.25	229.25
361.63	229.43
362.01	229.56
362.39	229.57
362.77	229.65
363.15	229.75
363.53	229.76
363.91	229.77
364.29	229.80
364.67	229.43
365.05	229.42
365.43	229.44
365.81	229.53
366.19	229.41
366.57	229.54
366.95	229.57
367.33	229.45
367.71	229.37
368.09	229.51
368.47	229.47
368.85	229.48
369.23	229.64
369.61	229.48
369.99	229.52
370.37	229.55
370.75	229.71
371.13	229.56
371.51	229.50
371.89	229.50
372.27	229.53
372.65	229.53
373.03	229.58
373.41	229.52
373.78	229.54
374.16	229.33
374.54	229.25
374.92	229.19
375.30	229.16
375.68	229.09
376.06	229.03
376.44	229.01
376.82	228.99
377.19	228.88
377.57	228.84
377.95	228.68
378.33	228.60
378.71	228.29
379.09	228.23
379.47	228.24
379.84	228.16
380.22	228.00
380.60	227.87
380.98	227.80
381.36	227.75
381.73	227.54
382.11	227.50
382.49	227.46
382.87	227.30
383.25	227.25
383.62	227.75
384.00	227.58
384.38	227.55
384.76	227.64
385.13	227.79
385.51	227.72
385.89	227.63
386.27	227.67
386.64	227.67
387.02	227.66
387.40	227.64
387.78	227.65
388.15	227.70
388.53	227.71
388.91	227.71
389.29	227.72
389.66	227.81
390.04	227.75
390.42	227.79
390.79	227.85
391.17	227.86
391.55	227.26
391.92	227.35
392.30	227.31
392.68	227.21
393.05	227.13
393.43	227.23
393.81	227.28
394.18	227.21
394.56	227.28
394.94	227.35
395.31	227.38
395.69	227.59
396.06	227.66
396.44	227.69
396.82	227.60
397.19	227.89
397.57	227.91
397.95	228.01
398.32	227.95
398.70	228.09
399.07	228.21
399.45	228.36
399.82	228.39
400.20	228.49
400.58	228.53
400.95	228.50
401.33	228.63
401.70	229.10
402.08	229.26
402.45	229.31
402.83	229.55
403.20	229.61
403.58	229.68
403.95	229.93
404.33	230.13
404.71	230.40
405.08	230.85
405.46	231.04
405.83	231.24
406.21	231.45
406.58	231.69
406.96	231.96
407.33	232.25
407.70	232.62
408.08	233.37
408.45	233.87
408.83	234.29
409.20	234.75
409.58	234.76
409.95	235.33
410.33	235.94
410.70	236.30
411.08	237.01
411.45	237.60
411.82	238.14
412.20	238.96
412.57	239.98
412.95	240.17
413.32	241.06
413.69	241.93
414.07	242.87
414.44	243.82
414.82	244.86
415.19	246.04
415.56	247.27
415.94	248.21
416.31	249.57
416.68	250.96
417.06	252.47
417.43	254.24
417.81	255.97
418.18	257.74
418.55	259.71
418.93	261.62
419.30	263.78
419.67	265.96
420.04	268.20
420.42	270.45
420.79	273.66
421.16	276.43
421.54	279.48
421.91	282.52
422.28	285.66
422.66	288.91
423.03	292.40
423.40	295.75
423.77	299.38
424.15	302.95
424.52	306.84
424.89	311.09
425.26	315.06
425.64	318.92
426.01	323.16
426.38	327.58
426.75	332.25
427.13	336.80
427.50	341.68
427.87	346.54
428.24	351.49
428.61	356.03
428.99	361.37
429.36	366.77
429.73	372.31
430.10	377.89
430.47	383.62
430.85	389.34
431.22	395.58
431.59	402.47
431.96	408.81
432.33	415.80
432.70	422.46
433.08	430.25
433.45	437.65
433.82	445.10
434.19	453.43
434.56	461.44
434.93	469.28
435.30	476.97
435.68	485.67
436.05	494.20
436.42	502.48
436.79	510.25
437.16	518.72
437.53	527.61
437.90	536.41
438.27	545.17
438.64	554.13
439.01	562.50
439.38	569.75
439.75	577.06
440.13	585.08
440.50	592.61
440.87	598.77
441.24	605.26
441.61	612.25
441.98	617.40
442.35	623.20
442.72	629.07
443.09	635.04
443.46	638.64
443.83	641.03
444.20	643.00
444.57	645.67
444.94	646.76
445.31	647.77
445.68	649.04
446.05	649.03
446.42	647.71
446.79	646.33
447.16	644.58
447.53	643.20
447.90	639.38
448.27	635.67
448.64	630.87
449.01	627.19
449.37	620.91
449.74	614.77
450.11	607.91
450.48	600.10
450.85	592.09
451.22	585.03
451.59	578.33
451.96	571.98
452.33	563.90
452.70	556.50
453.07	547.77
453.43	538.59
453.80	530.28
454.17	522.10
454.54	514.26
454.91	505.92
455.28	497.87
455.65	490.54
456.02	483.61
456.38	477.14
456.75	469.26
457.12	462.75
457.49	456.34
457.86	449.98
458.23	444.91
458.59	439.12
458.96	433.32
459.33	428.07
459.70	423.04
460.07	418.93
460.43	414.30
460.80	410.03
461.17	406.27
461.54	402.19
461.91	398.35
462.27	394.39
462.64	391.21
463.01	387.61
463.38	384.17
463.74	380.29
464.11	377.37
464.48	374.68
464.85	371.85
465.21	369.78
465.58	367.51
465.95	364.54
466.32	362.28
466.68	359.97
467.05	357.83
467.42	355.62
467.78	353.27
468.15	351.04
468.52	349.33
468.88	347.09
469.25	345.10
469.62	343.65
469.98	341.90
470.35	340.32
470.72	338.83
471.08	337.15
471.45	335.85
471.82	334.57
472.18	333.14
472.55	332.04
472.92	330.59
473.28	329.45
473.65	328.40
474.02	327.34
474.38	326.43
474.75	325.71
475.11	324.80
475.48	324.08
475.85	323.50
476.21	322.91
476.58	322.40
476.94	322.03
477.31	321.50
477.67	321.18
478.04	320.79
478.41	320.55
478.77	320.81
479.14	320.39
479.50	320.17
479.87	320.16
480.23	320.26
480.60	320.29
480.96	320.30
481.33	320.65
481.69	320.83
482.06	321.11
482.42	321.24
482.79	321.59
483.15	322.03
483.52	322.65
483.88	323.16
484.25	323.79
484.61	324.38
484.98	325.08
485.34	326.08
485.71	327.13
486.07	328.06
486.44	328.67
486.80	329.75
487.17	330.95
487.53	332.30
487.90	333.65
488.26	335.35
488.62	337.07
488.99	338.60
489.35	340.34
489.72	342.29
490.08	344.32
490.44	346.34
490.81	348.65
491.17	350.86
491.54	353.32
491.90	355.83
492.26	358.55
492.63	361.37
492.99	364.22
493.36	367.35
493.72	370.74
494.08	374.23
494.45	378.14
494.81	381.87
495.17	385.78
495.54	390.00
495.90	394.27
496.26	398.70
496.63	403.37
496.99	408.18
497.35	413.27
497.72	418.51
498.08	424.12
498.44	429.70
498.80	435.83
499.17	441.88
499.53	448.14
499.89	454.98
500.26	461.78
500.62	468.62
500.98	475.95
501.34	483.36
501.71	491.10
502.07	498.90
502.43	507.23
502.79	515.63
503.16	524.30
503.52	533.19
503.88	542.36
504.24	552.14
504.60	562.25
504.97	572.47
505.33	582.88
505.69	593.82
506.05	604.95
506.41	616.12
506.78	627.85
507.14	640.06
507.50	652.30
507.86	665.00
508.22	678.26
508.59	691.31
508.95	705.03
509.31	719.14
509.67	733.39
510.03	747.70
510.39	762.50
510.75	777.39
511.12	792.76
511.48	808.63
511.84	824.37
512.20	840.41
512.56	856.67
512.92	873.64
513.28	890.55
513.64	907.91
514.00	925.52
514.37	943.22
514.73	961.39
515.09	979.68
515.45	998.35
515.81	1016.66
516.17	1035.43
516.53	1054.20
516.89	1073.04
517.25	1092.55
517.61	1112.80
517.97	1133.19
518.33	1153.48
518.69	1173.78
519.05	1194.27
519.41	1214.95
519.77	1236.05
520.13	1256.89
520.49	1277.49
520.85	1299.82
521.21	1320.95
521.57	1342.44
521.93	1363.26
522.29	1384.75
522.65	1405.58
523.01	1426.28
523.37	1447.06
523.73	1468.19
524.09	1488.79
524.45	1509.61
524.81	1530.40
525.17	1551.04
525.53	1571.68
525.89	1592.86
526.25	1613.72
526.61	1634.09
526.97	1655.16
527.33	1676.49
527.68	1698.56
528.04	1719.88
528.40	1739.86
528.76	1760.99
529.12	1781.07
529.48	1802.00
529.84	1821.79
530.20	1842.93
530.56	1863.83
530.91	1884.73
531.27	1905.31
531.63	1926.18
531.99	1947.00
532.35	1967.33
532.71	1987.83
533.07	2008.60
533.42	2028.41
533.78	2048.49
534.14	2068.51
534.50	2087.73
534.86	2107.00
535.21	2124.29
535.57	2143.05
535.93	2160.53
536.29	2178.44
536.65	2197.28
537.00	2215.19
537.36	2233.39
537.72	2250.03
538.08	2267.29
538.44	2284.65
538.79	2301.53
539.15	2318.37
539.51	2334.47
539.87	2349.85
540.22	2363.96
540.58	2378.25
540.94	2391.91
541.29	2404.80
541.65	2417.60
542.01	2430.37
542.37	2441.08
542.72	2452.71
543.08	2463.77
543.44	2475.75
543.79	2485.87
544.15	2495.46
544.51	2505.60
544.87	2515.15
545.22	2524.05
545.58	2532.10
545.94	2539.19
546.29	2545.72
546.65	2552.14
547.01	2557.55
547.36	2563.58
547.72	2569.14
548.07	2573.21
548.43	2578.39
548.79	2583.08
549.14	2587.10
549.50	2590.92
549.86	2595.26
550.21	2599.31
550.57	2602.50
550.92	2603.92
551.28	2605.39
551.64	2607.85
551.99	2610.17
552.35	2611.97
552.70	2614.00
553.06	2615.46
553.41	2616.63
553.77	2618.45
554.13	2620.08
554.48	2622.06
554.84	2623.16
555.19	2624.26
555.55	2626.30
555.90	2625.71
556.26	2624.81
556.61	2623.31
556.97	2621.64
557.32	2620.87
557.68	2619.83
558.03	2618.38
558.39	2617.35
558.74	2616.59
559.10	2613.65
559.45	2610.17
559.81	2605.33
560.16	2600.59
560.52	2596.05
560.87	2591.65
561.23	2586.44
561.58	2580.18
561.94	2573.22
562.29	2565.84
562.64	2559.29
563.00	2550.69
563.35	2544.51
563.71	2538.24
564.06	2532.43
564.42	2526.07
564.77	2519.23
565.12	2511.28
565.48	2503.69
565.83	2495.70
566.19	2487.79
566.54	2479.82
566.89	2471.30
567.25	2463.94
567.60	2456.42
567.96	2448.89
568.31	2440.83
568.66	2432.09
569.02	2423.24
569.37	2415.02
569.72	2407.62
570.08	2398.21
570.43	2389.05
570.78	2379.64
571.14	2370.04
571.49	2359.63
571.84	2349.45
572.20	2338.19
572.55	2328.20
572.90	2317.05
573.26	2306.63
573.61	2295.54
573.96	2284.41
574.31	2272.88
574.67	2260.95
575.02	2248.37
575.37	2235.44
575.72	2222.61
576.08	2210.37
576.43	2197.90
576.78	2184.79
577.13	2170.86
577.49	2158.20
577.84	2146.13
578.19	2133.91
578.54	2121.36
578.90	2109.39
579.25	2097.14
579.60	2084.84
579.95	2071.70
580.30	2058.73
580.66	2045.47
581.01	2031.75
581.36	2017.66
581.71	2004.80
582.06	1991.58
582.42	1979.15
582.77	1966.58
583.12	1954.61
583.47	1942.25
583.82	1930.18
584.17	1918.25
584.53	1906.26
584.88	1893.53
585.23	1880.66
585.58	1866.20
585.93	1853.07
586.28	1839.64
586.63	1825.67
586.98	1811.18
587.34	1797.80
587.69	1784.74
588.04	1771.98
588.39	1759.77
588.74	1747.71
589.09	1735.30
589.44	1722.91
589.79	1710.47
590.14	1698.46
590.49	1685.89
590.84	1673.32
591.19	1661.02
591.54	1648.54
591.89	1636.33
592.25	1625.54
592.60	1613.80
592.95	1602.73
593.30	1590.58
593.65	1578.55
594.00	1566.48
594.35	1556.79
594.70	1544.97
595.05	1533.36
595.40	1521.13
595.75	1509.07
596.10	1497.45
596.45	1485.81
596.80	1474.52
597.15	1462.97
597.50	1450.79
597.85	1439.49
598.19	1428.00
598.54	1416.35
598.89	1404.89
599.24	1394.46
599.59	1382.79
599.94	1371.99
600.29	1361.26
600.64	1350.73
600.99	1339.89
601.34	1330.21
601.69	1318.92
602.04	1309.14
602.39	1299.37
602.74	1289.96
603.08	1280.55
603.43	1271.12
603.78	1261.40
604.13	1251.68
604.48	1241.83
604.83	1232.22
605.18	1222.37
605.53	1212.92
605.87	1203.67
606.22	1195.07
606.57	1185.44
606.92	1175.71
607.27	1166.44
607.62	1157.52
607.96	1148.90
608.31	1140.82
608.66	1132.41
609.01	1123.77
609.36	1115.05
609.70	1106.32
610.05	1097.53
610.40	1088.92
610.75	1080.25
611.10	1071.78
611.44	1063.23
611.79	1055.16
612.14	1047.33
612.49	1039.40
612.83	1031.76
613.18	1023.96
613.53	1016.21
613.88	1008.26
614.22	1000.66
614.57	992.67
614.92	984.90
615.27	977.28
615.61	969.54
615.96	961.73
616.31	954.33
616.65	947.15
617.00	939.76
617.35	932.64
617.70	925.38
618.04	918.13
618.39	911.17
618.74	904.67
619.08	897.55
619.43	890.42
619.78	883.10
620.12	875.88
620.47	869.10
620.82	861.94
621.16	855.07
621.51	848.66
621.85	842.40
622.20	835.73
622.55	829.09
622.89	822.62
623.24	816.25
623.59	809.65
623.93	803.24
624.28	796.97
624.62	791.23
624.97	785.60
625.32	779.93
625.66	773.91
626.01	767.55
626.35	762.15
626.70	756.62
627.04	751.50
627.39	745.80
627.73	740.09
628.08	734.82
628.43	729.36
628.77	723.80
629.12	718.34
629.46	713.20
629.81	708.24
630.15	703.36
630.50	698.47
630.84	693.75
631.19	688.75
631.53	684.12
631.88	678.83
632.22	673.72
632.57	669.16
632.91	664.49
633.26	660.29
633.60	655.50
633.95	650.73
634.29	645.93
634.64	641.67
634.98	636.94
635.32	632.48
635.67	628.45
636.01	624.33
636.36	619.89
636.70	615.97
637.05	611.83
637.39	607.70
637.73	603.48
638.08	599.23
638.42	595.09
638.77	590.63
639.11	586.25
639.45	581.96
639.80	577.48
640.14	573.35
640.49	569.17
640.83	565.23
641.17	561.62
641.52	557.94
641.86	554.34
642.20	551.15
642.55	547.27
642.89	543.53
643.23	539.97
643.58	536.84
643.92	532.98
644.26	529.52
644.61	526.20
644.95	522.71
645.29	519.26
645.64	516.15
645.98	513.18
646.32	510.27
646.66	507.14
647.01	503.98
647.35	501.18
647.69	498.23
648.04	495.53
648.38	492.59
648.72	489.58
649.06	486.36
649.41	483.26
649.75	480.41
650.09	477.60
650.43	474.64
650.78	471.66
651.12	468.96
651.46	466.13
651.80	463.31
652.14	460.60
652.49	458.10
652.83	455.45
653.17	452.74
653.51	449.99
653.85	447.58
654.20	445.27
654.54	442.58
654.88	440.01
655.22	437.59
655.56	435.13
655.90	432.73
656.25	430.55
656.59	428.26
656.93	426.02
657.27	423.79
657.61	421.32
657.95	419.09
658.29	417.01
658.64	414.91
658.98	412.62
659.32	410.25
659.66	408.08
660.00	405.89
660.34	403.80
660.68	401.83
661.02	399.65
661.36	397.61
661.70	395.68
662.05	393.68
662.39	391.74
662.73	389.94
663.07	388.31
663.41	386.36
663.75	384.46
664.09	382.66
664.43	380.69
664.77	379.08
665.11	377.33
665.45	375.59
665.79	373.91
666.13	372.18
666.47	370.57
666.81	368.86
667.15	367.10
667.49	365.68
667.83	364.19
668.17	362.75
668.51	361.25
668.85	359.94
669.19	358.87
669.53	357.25
669.87	355.77
670.21	354.19
670.55	352.86
670.89	351.80
671.23	350.34
671.57	349.00
671.91	347.72
672.25	346.36
672.58	345.07
672.92	343.59
673.26	342.42
673.60	341.28
673.94	340.14
674.28	339.15
674.62	338.01
674.96	336.80
675.30	335.74
675.64	334.53
675.97	333.14
676.31	331.73
676.65	330.52
676.99	329.48
677.33	328.25
677.67	327.19
678.01	325.79
678.34	324.79
678.68	323.90
679.02	322.83
679.36	321.88
679.70	320.77
680.04	319.86
680.37	318.82
680.71	317.82
681.05	316.88
681.39	315.87
681.73	314.85
682.06	313.85
682.40	312.91
682.74	312.15
683.08	311.48
683.42	310.60
683.75	309.85
684.09	308.89
684.43	308.13
684.77	307.17
685.10	306.45
685.44	305.69
685.78	304.77
686.12	303.90
686.45	302.99
686.79	302.19
687.13	301.55
687.46	300.87
687.80	300.25
688.14	299.47
688.48	298.75
688.81	297.96
689.15	297.41
689.49	296.69
689.82	295.95
690.16	295.05
690.50	294.30
690.83	293.55
691.17	292.72
691.51	292.03
691.84	291.45
692.18	290.75
692.52	289.93
692.85	289.35
693.19	288.95
693.52	288.39
693.86	287.73
694.20	286.93
694.53	286.32
694.87	285.58
695.21	284.89
695.54	284.29
695.88	283.65
696.21	282.95
696.55	282.30
696.88	281.64
697.22	281.07
697.56	280.61
697.89	280.00
698.23	279.63
698.56	279.12
698.90	278.65
699.23	278.08
699.57	277.64
699.90	277.09
700.24	276.36
700.58	275.84
700.91	275.38
701.25	275.40
701.58	275.21
701.92	274.98
702.25	274.62
702.59	274.13
702.92	273.76
703.26	273.33
703.59	272.92
703.93	272.90
704.26	272.62
704.60	272.13
704.93	271.69
705.26	271.09
705.60	270.67
705.93	270.13
706.27	269.84
706.60	269.56
706.94	269.33
707.27	268.95
707.61	268.66
707.94	268.36
708.27	267.60
708.61	266.95
708.94	266.45
709.28	266.09
709.61	265.70
709.94	265.29
710.28	264.84
710.61	264.49
710.95	263.74
711.28	263.59
711.61	263.24
711.95	263.06
712.28	262.76
712.61	262.37
712.95	262.32
713.28	262.17
713.61	261.77
713.95	261.24
714.28	260.97
714.61	260.60
714.95	260.17
715.28	259.72
715.61	259.33
715.95	259.03
716.28	258.61
716.61	258.34
716.95	257.94
717.28	257.68
717.61	257.26
717.94	256.90
718.28	256.28
718.61	255.96
718.94	255.58
719.27	255.29
719.61	255.06
719.94	254.65
720.27	254.14
720.60	253.82
720.94	253.62
721.27	253.42
721.60	253.16
721.93	252.91
722.27	252.83
722.60	252.61
722.93	252.24
723.26	252.08
723.59	251.82
723.93	251.74
724.26	251.57
724.59	251.34
724.92	251.14
725.25	251.05
725.59	250.84
725.92	250.70
726.25	250.52
726.58	250.29
726.91	250.04
727.24	249.94
727.57	249.80
727.91	249.55
728.24	249.35
728.57	249.13
728.90	249.02
729.23	248.69
729.56	248.72
729.89	248.61
730.22	248.36
730.55	248.17
730.89	248.00
731.22	247.83
731.55	247.75
731.88	247.62
732.21	247.38
732.54	247.13
732.87	246.94
733.20	246.76
733.53	246.65
733.86	246.49
734.19	246.25
734.52	246.19
734.85	246.34
735.18	246.14
735.51	246.17
735.84	246.02
736.17	246.07
736.50	245.64
736.83	246.03
737.16	245.94
737.49	245.81
737.82	245.59
738.15	245.49
738.48	245.32
738.81	245.15
739.14	244.93
739.47	244.80
739.80	244.63
740.13	244.55
740.46	244.37
740.79	244.19
741.12	244.03
741.45	243.76
741.78	243.36
742.11	243.35
742.44	243.09
742.77	243.09
743.10	242.88
743.43	242.81
743.75	242.19
744.08	242.66
744.41	242.54
744.74	242.37
745.07	242.13
745.40	242.05
745.73	242.12
746.06	242.03
746.39	241.96
746.71	241.80
747.04	241.60
747.37	241.38
747.70	241.37
748.03	241.27
748.36	241.18
748.68	241.00
749.01	240.70
749.34	240.53
749.67	240.32
750.00	240.20
750.33	240.44
750.65	240.36
750.98	239.67
751.31	239.53
751.64	239.50
751.97	239.63
752.29	239.45
752.62	239.12
752.95	238.98
753.28	238.85
753.60	238.76
753.93	238.82
754.26	238.78
754.59	238.40
754.91	238.23
755.24	238.12
755.57	238.12
755.90	238.00
756.22	237.87
756.55	237.70
756.88	237.58
757.20	237.11
757.53	236.87
757.86	236.75
758.19	236.62
758.51	236.46
758.84	236.10
759.17	235.96
759.49	235.88
759.82	235.99
760.15	235.98
760.47	235.82
760.80	235.55
761.13	235.56
761.45	235.52
761.78	235.45
762.11	235.34
762.43	235.13
762.76	235.03
763.08	235.04
763.41	234.99
763.74	234.89
764.06	234.82
764.39	234.77
764.71	234.74
765.04	234.62
765.37	234.51
765.69	234.41
766.02	234.30
766.34	234.20
766.67	233.98
767.00	233.94
767.32	234.19
767.65	234.40
767.97	234.22
768.30	234.13
768.62	234.03
768.95	233.93
769.27	233.83
769.60	233.83
769.92	233.72
770.25	233.56
770.57	233.36
770.90	233.34
771.22	233.20
771.55	233.05
771.87	233.04
772.20	233.05
772.52	233.45
772.85	234.03
773.17	234.01
773.50	233.92
773.82	233.78
774.15	233.48
774.47	233.17
774.80	233.09
775.12	233.09
775.45	233.06
775.77	233.07
776.09	233.05
776.42	233.00
776.74	233.04
777.07	232.96
777.39	233.01
777.72	232.97
778.04	233.05
778.36	232.99
778.69	232.94
779.01	232.87
779.33	232.44
779.66	231.80
779.98	231.72
780.31	231.67
780.63	231.84
780.95	231.89
781.28	231.76
781.60	231.67
781.92	231.65
782.25	231.59
782.57	231.53
782.89	231.51
783.22	231.43
783.54	231.34
783.86	231.40
784.19	231.34
784.51	231.33
784.83	231.26
785.16	231.29
785.48	231.31
785.80	231.27
786.12	231.23
786.45	231.27
786.77	231.24
787.09	231.24
787.42	231.01
787.74	230.95
788.06	231.08
788.38	231.08
788.71	230.99
789.03	231.01
789.35	231.01
789.67	230.84
789.99	230.80
790.32	230.69
790.64	230.73
790.96	231.12
791.28	230.97
791.61	230.92
791.93	230.83
792.25	230.78
792.57	231.12
792.89	231.04
793.21	230.99
793.54	230.96
793.86	230.85
794.18	230.80
794.50	230.75
794.82	230.70
795.14	230.71
795.47	230.80
795.79	230.78
796.11	230.61
796.43	230.68
796.75	230.70
797.07	230.74
797.39	230.68
797.71	230.26
798.04	230.22
798.36	230.16
798.68	230.12
799.00	230.07
799.32	229.77
799.64	229.82
799.96	229.88
800.28	229.97
800.60	229.95
800.92	230.05
801.24	229.88
801.56	229.86
801.89	229.78
802.21	229.74
802.53	229.72
802.85	229.79
803.17	229.97
803.49	229.88
803.81	229.81
804.13	229.72
804.45	229.68
804.77	229.79
805.09	229.80
805.41	229.76
805.73	229.70
806.05	229.59
806.37	229.55
806.69	229.40
807.01	229.30
807.33	229.32
807.65	229.11
807.97	229.36
808.28	229.29
808.60	229.30
808.92	229.28
809.24	229.50
809.56	229.46
809.88	229.26
810.20	229.22
810.52	229.27
810.84	229.21
811.16	229.16
811.48	229.00
811.80	229.11
812.12	229.08
812.43	229.11
812.75	229.12
813.07	229.05
813.39	229.08
813.71	228.98
814.03	229.00
814.35	229.05
814.67	228.84
814.98	228.80
815.30	228.85
815.62	228.69
815.94	228.25
816.26	228.45
816.58	228.37
816.89	228.45
817.21	228.29
817.53	228.26
817.85	228.27
818.17	228.27
818.48	228.11
818.80	228.25
819.12	228.25
819.44	228.18
819.76	228.14
820.07	228.14
820.39	228.19
820.71	228.13
821.03	228.03
821.34	227.98
821.66	228.07
821.98	228.03
822.30	228.13
822.61	228.52
822.93	228.25
823.25	228.24
823.57	228.16
823.88	228.27
824.20	228.32
824.52	228.40
824.83	228.43
825.15	228.31
825.47	228.19
825.79	228.19
826.10	228.14
826.42	228.17
826.74	228.16
827.05	228.14
827.37	228.25
827.69	228.26
828.00	228.28
828.32	228.25
828.64	228.18
828.95	228.41
829.27	228.24
829.58	228.34
829.90	228.44
830.22	228.45
830.53	228.35
830.85	228.29
831.17	228.12
831.48	228.07
831.80	228.15
832.11	228.19
832.43	228.10
832.75	228.12
833.06	228.35
833.38	228.30
833.69	228.30
834.01	228.26
834.32	228.30
834.64	228.35
834.96	228.25
835.27	228.30
835.59	228.11
835.90	228.09
836.22	228.05
836.53	227.97
836.85	227.94
837.16	228.41
837.48	228.42
837.79	228.52
838.11	228.59
838.42	228.56
838.74	228.53
839.05	228.51
839.37	228.44
839.68	228.10
840.00	228.10
840.31	228.13
840.63	228.10
840.94	228.03
841.26	227.96
841.57	228.09
841.88	228.11
842.20	227.99
842.51	227.91
842.83	227.85
843.14	228.23
843.46	228.24
843.77	227.93
844.08	227.89
844.40	227.83
844.71	227.76
845.03	227.75
845.34	227.75
845.65	227.72
845.97	227.74
846.28	227.81
846.60	227.81
846.91	227.73
847.22	227.63
847.54	227.68
847.85	227.69
848.16	227.55
848.48	227.45
848.79	227.68
849.10	227.67
849.42	227.67
849.73	227.26
850.04	227.23
850.36	227.14
850.67	227.20
850.98	227.19
851.30	227.21
851.61	227.15
851.92	227.10
852.23	227.22
852.55	227.23
852.86	227.24
853.17	227.20
853.49	227.28
853.80	227.36
854.11	227.44
854.42	227.45
854.74	227.40
855.05	227.39
855.36	227.08
855.67	227.08
855.99	227.14
856.30	227.69
856.61	227.66
856.92	227.59
857.23	227.59
857.55	227.55
857.86	227.48
858.17	227.46
858.48	227.42
858.79	227.30
859.11	227.38
859.42	227.29
859.73	227.22
860.04	227.13
860.35	227.08
860.66	226.93
860.98	226.84
861.29	226.93
861.60	226.89
861.91	227.04
862.22	226.91
862.53	226.78
862.84	226.19
863.16	226.35
863.47	226.33
863.78	226.27
864.09	226.28
864.40	226.35
864.71	226.49
865.02	226.59
865.33	226.51
865.64	226.40
865.95	226.45
866.27	226.83
866.58	226.91
866.89	226.93
867.20	226.86
867.51	226.85
867.82	226.81
868.13	226.94
868.44	226.84
868.75	227.08
869.06	227.09
869.37	227.14
869.68	226.96
869.99	227.09
870.30	227.15
870.61	227.22
870.92	227.17
871.23	227.09
871.54	227.10
871.85	227.30
872.16	227.38
872.47	227.33
872.78	227.06
873.09	226.98
873.40	226.90
873.71	227.00
874.02	227.07
874.33	227.05
874.64	226.96
874.95	227.05
875.26	226.94
875.56	226.97
875.87	226.93
876.18	226.95
876.49	227.38
876.80	227.33
877.11	227.25
877.42	227.25
877.73	227.35
878.04	227.29
878.35	227.26
878.66	227.28
878.96	227.31
879.27	227.34
879.58	227.35
879.89	227.34
880.20	227.54
880.51	227.50
880.82	227.51
881.12	227.55
881.43	227.45
881.74	227.35
882.05	227.30
882.36	227.41
882.67	227.43
882.97	226.93
883.28	226.83
883.59	226.89
883.90	227.01
884.21	227.00
884.51	227.01
884.82	226.93
885.13	226.93
885.44	226.91
885.74	226.83
886.05	226.88
886.36	226.85
886.67	226.55
886.98	226.87
887.28	226.90
887.59	226.90
887.90	226.90
888.20	226.89
888.51	226.98
888.82	226.92
889.13	226.98
889.43	227.42
889.74	227.46
890.05	227.38
890.35	227.25
890.66	227.22
890.97	227.13
891.28	227.13
891.58	227.16
891.89	227.12
892.20	227.07
892.50	227.00
892.81	227.01
893.12	227.03
893.42	226.78
893.73	226.83
894.04	226.77
894.34	226.80
894.65	226.87
894.95	226.81
895.26	226.81
895.57	227.03
895.87	226.56
896.18	226.67
896.48	226.73
896.79	226.71
897.10	226.75
897.40	226.77
897.71	226.75
898.01	226.73
898.32	226.79
898.63	226.82
898.93	226.84
899.24	226.90
899.54	226.87
899.85	226.93
900.15	226.84
900.46	226.85
900.76	226.91
901.07	226.84
901.38	226.82
901.68	226.88
901.99	226.58
902.29	226.60
902.60	226.48
902.90	226.46
903.21	226.47
903.51	226.41
903.82	226.54
904.12	226.55
904.43	226.51
904.73	226.53
905.03	226.52
905.34	227.03
905.64	227.06
905.95	227.09
906.25	227.00
906.56	226.97
906.86	227.04
907.17	227.03
907.47	227.09
907.77	227.07
908.08	227.00
908.38	227.05
908.69	227.08
908.99	227.16
909.30	227.09
909.60	227.08
909.90	227.13
910.21	227.04
910.51	226.99
910.81	227.01
911.12	227.04
911.42	227.07
911.73	226.50
912.03	226.49
912.33	226.61
912.64	226.63
912.94	226.62
913.24	226.53
913.55	226.45
913.85	226.43
914.15	226.43
914.46	226.48
914.76	226.40
915.06	226.38
915.37	226.33
915.67	226.35
915.97	226.38
916.27	226.27
916.58	226.27
916.88	226.23
917.18	226.23
917.49	226.53
917.79	226.44
918.09	226.60
918.39	226.68
918.70	226.70
919.00	226.73
919.30	226.95
919.60	226.92
919.91	226.90
920.21	226.92
920.51	226.86
920.81	226.75
921.12	226.84
921.42	226.86
921.72	226.94
922.02	227.01
922.32	227.10
922.63	227.14
922.93	227.34
923.23	227.41
923.53	227.37
923.83	227.05
924.13	227.18
924.44	227.15
924.74	227.21
925.04	227.29
925.34	227.21
925.64	227.03
925.94	227.09
926.24	227.33
926.55	227.28
926.85	227.35
927.15	227.47
927.45	227.51
927.75	227.44
928.05	227.50
928.35	227.43
928.65	227.45
928.95	227.47
929.26	227.31
929.56	227.41
929.86	227.50
930.16	227.45
930.46	227.38
930.76	227.43
931.06	227.28
931.36	227.18
931.66	227.26
931.96	227.38
932.26	227.37
932.56	227.20
932.86	227.30
933.16	227.35
933.46	227.30
933.76	227.22
934.06	227.40
934.36	227.47
934.66	227.48
934.96	227.49
935.26	227.58
935.56	227.65
935.86	227.51
936.16	227.46
936.46	227.45
936.76	227.48
937.06	227.41
937.36	227.38
937.66	227.38
937.96	227.39
938.26	227.25
938.56	227.26
938.86	227.26
939.16	227.30
939.46	227.36
939.76	227.30
940.06	227.29
940.35	227.19
940.65	227.03
940.95	227.07
941.25	226.92
941.55	226.80
941.85	226.73
942.15	226.80
942.45	226.88
942.75	226.88
943.04	226.86
943.34	226.92
943.64	226.87
943.94	226.76
944.24	226.74
944.54	226.79
944.84	226.79
945.13	226.73
945.43	226.63
945.73	226.55
946.03	226.55
946.33	226.55
946.62	226.51
946.92	226.38
947.22	226.35
947.52	226.30
947.82	226.38
948.11	226.30
948.41	226.24
948.71	226.03
949.01	226.05
949.31	226.03
949.60	225.93
949.90	226.06
950.20	226.03
950.50	226.00
950.79	225.90
951.09	225.94
951.39	225.92
951.69	225.91
951.98	226.05
952.28	226.11
952.58	226.03
952.87	226.07
953.17	226.18
953.47	226.20
953.76	226.25
954.06	226.12
954.36	226.07
954.66	226.12
954.95	226.32
955.25	226.39
955.55	226.39
955.84	226.38
956.14	226.41
956.44	226.44
956.73	226.34
957.03	226.44
957.32	226.40
957.62	226.46
957.92	226.59
958.21	226.54
958.51	227.06
958.81	227.12
959.10	227.17
959.40	227.27
959.69	227.25
959.99	227.30
960.29	227.35
960.58	227.40
960.88	227.58
961.17	227.45
961.47	227.47
961.76	227.45
962.06	227.55
962.36	227.49
962.65	227.56
962.95	227.67
963.24	227.57
963.54	227.59
963.83	227.60
964.13	227.52
964.42	227.39
964.72	227.01
965.01	227.00
965.31	226.89
965.60	226.79
965.90	227.09
966.19	227.04
966.49	227.06
966.78	227.05
967.08	226.97
967.37	226.98
967.67	226.89
967.96	226.98
968.26	226.94
968.55	226.98
968.85	226.99
969.14	226.94
969.43	226.92
969.73	226.94
970.02	226.91
970.32	226.90
970.61	226.92
970.91	226.75
971.20	226.73
971.49	226.67
971.79	226.78
972.08	226.45
972.38	226.45
972.67	226.49
972.96	226.54
973.26	226.44
973.55	226.60
973.85	226.58
974.14	226.52
974.43	226.50
974.73	226.42
975.02	226.30
975.31	226.30
975.61	226.28
975.90	226.18
976.19	226.09
976.49	226.12
976.78	226.18
977.07	226.21
977.37	226.28
977.66	226.35
977.95	226.20
978.24	226.26
978.54	226.35
978.83	226.28
979.12	226.30
979.42	226.23
979.71	226.13
980.00	226.20
980.29	226.23
980.59	226.11
980.88	226.25
981.17	226.22
981.46	226.22
981.76	226.25
982.05	226.38
982.34	226.43
982.63	226.43
982.93	226.36
983.22	226.52
983.51	226.55
983.80	226.67
984.09	226.75
984.39	226.77
984.68	226.69
984.97	226.68
985.26	226.61
985.55	226.73
985.85	226.63
986.14	226.66
986.43	226.67
986.72	226.67
987.01	226.47
987.30	226.52
987.59	226.47
987.89	226.54
988.18	226.41
988.47	226.40
988.76	226.39
989.05	226.39
989.34	226.27
989.63	226.32
989.92	226.19
990.22	226.17
990.51	226.16
990.80	226.23
991.09	226.27
991.38	226.36
991.67	226.32
991.96	226.30
992.25	226.29
992.54	226.23
992.83	226.33
993.12	226.32
993.41	226.44
993.70	226.66
993.99	226.76
994.28	226.85
994.58	226.93
994.87	226.95
995.16	226.94
995.45	226.90
995.74	226.72
996.03	226.81
996.32	226.87
996.61	226.92
996.90	226.89
997.19	226.97
997.48	226.99
997.77	226.95
998.06	227.04
998.34	226.98
998.63	226.99
998.92	226.99
999.21	227.05
999.50	227.06
999.79	226.85
1000.08	226.78
1000.37	226.77
1000.66	226.69
1000.95	226.70
1001.24	226.69
1001.53	226.74
1001.82	226.77
1002.11	226.68
1002.40	226.68
1002.68	226.84
1002.97	227.12
1003.26	226.95
1003.55	226.84
1003.84	226.91
1004.13	227.01
1004.42	226.97
1004.71	226.95
1004.99	226.94
1005.28	227.11
1005.57	227.05
1005.86	227.00
1006.15	226.99
1006.44	226.94
1006.72	226.94
1007.01	226.88
1007.30	226.82
1007.59	226.77
1007.88	226.81
1008.17	226.80
1008.45	226.67
1008.74	226.40
1009.03	226.21
1009.32	226.24
1009.60	226.18
1009.89	226.05
1010.18	225.88
1010.47	225.87
1010.76	225.92
1011.04	225.80
1011.33	225.81
1011.62	225.85
1011.91	225.92
1012.19	225.91
1012.48	225.85
1012.77	225.91
1013.05	226.11
1013.34	226.15
1013.63	226.17
1013.92	226.17
1014.20	226.15
1014.49	226.23
1014.78	226.33
1015.06	226.15
1015.35	226.11
1015.64	226.26
1015.92	226.37
1016.21	226.45
1016.50	226.49
1016.78	226.56
1017.07	226.56
1017.36	226.46
1017.64	226.41
1017.93	226.48
1018.22	226.46
1018.50	226.49
1018.79	226.46
1019.08	226.25
1019.36	226.38
1019.65	226.22
1019.93	226.29
1020.22	226.38
1020.51	226.58
1020.79	226.49
1021.08	225.90
1021.36	225.20
1021.65	226.15
1021.94	226.20
1022.22	227.75
1022.51	224.20
1022.79	227.05
1023.08	227.00
1023.36	231.55
1023.65	225.40
>>>>>End Processed Spectral Data<<<<<
