SpectraSuite Data File
++++++++++++++++++++++++++++++++++++
Date: Wed Sep 04 17:46:22 EDT 2013
User: lab3
Dark Spectrum Present: Yes
Reference Spectrum Present: No
Number of Sampled Component Spectra: 1
Spectrometers: USB2E7196
Integration Time (usec): 170000 (USB2E7196)
Spectra Averaged: 20 (USB2E7196)
Boxcar Smoothing: 10 (USB2E7196)
Correct for Electrical Dark: No (USB2E7196)
Strobe/Lamp Enabled: No (USB2E7196)
Correct for Detector Non-linearity: No (USB2E7196)
Correct for Stray Light: No (USB2E7196)
Number of Pixels in Processed Spectrum: 2048
>>>>>Begin Processed Spectral Data<<<<<
339.09	0.00
339.48	212.75
339.86	213.55
340.24	216.15
340.63	217.05
341.01	225.90
341.39	219.80
341.78	221.60
342.16	224.15
342.54	223.80
342.93	212.12
343.31	222.79
343.69	223.28
344.07	223.79
344.46	224.21
344.84	224.59
345.22	224.62
345.60	224.90
345.99	225.10
346.37	225.19
346.75	225.27
347.13	225.44
347.52	225.52
347.90	225.72
348.28	225.70
348.66	225.92
349.05	225.84
349.43	225.95
349.81	225.95
350.19	225.93
350.57	225.99
350.96	226.12
351.34	226.19
351.72	226.37
352.10	226.47
352.48	226.55
352.87	226.57
353.25	226.55
353.63	226.60
354.01	226.62
354.39	226.70
354.77	226.70
355.15	226.88
355.54	226.81
355.92	226.66
356.30	226.78
356.68	227.11
357.06	227.15
357.44	227.05
357.82	227.12
358.20	227.67
358.58	227.71
358.97	227.69
359.35	227.80
359.73	227.92
360.11	227.98
360.49	228.02
360.87	228.09
361.25	228.19
361.63	228.43
362.01	228.58
362.39	228.55
362.77	228.67
363.15	228.59
363.53	228.68
363.91	228.73
364.29	228.81
364.67	228.30
365.05	228.38
365.43	228.43
365.81	228.47
366.19	228.33
366.57	228.53
366.95	228.57
367.33	228.55
367.71	228.48
368.09	228.58
368.47	228.57
368.85	228.63
369.23	228.78
369.61	228.56
369.99	228.63
370.37	228.66
370.75	228.92
371.13	228.88
371.51	228.82
371.89	228.86
372.27	228.79
372.65	228.87
373.03	228.80
373.41	228.74
373.78	228.66
374.16	228.38
374.54	228.19
374.92	228.11
375.30	228.08
375.68	227.98
376.06	227.85
376.44	227.77
376.82	227.68
377.19	227.48
377.57	227.41
377.95	227.18
378.33	227.08
378.71	226.70
379.09	226.70
379.47	226.64
379.84	226.55
380.22	226.49
380.60	226.30
380.98	226.25
381.36	226.20
381.73	226.11
382.11	226.13
382.49	226.02
382.87	225.95
383.25	225.89
383.62	226.42
384.00	226.34
384.38	226.34
384.76	226.46
385.13	226.70
385.51	226.62
385.89	226.58
386.27	226.52
386.64	226.55
387.02	226.44
387.40	226.40
387.78	226.38
388.15	226.29
388.53	226.31
388.91	226.35
389.29	226.29
389.66	226.36
390.04	226.20
390.42	226.30
390.79	226.29
391.17	226.30
391.55	225.75
391.92	225.74
392.30	225.82
392.68	225.70
393.05	225.54
393.43	225.57
393.81	225.60
394.18	225.64
394.56	225.69
394.94	225.84
395.31	225.83
395.69	226.03
396.06	226.18
396.44	226.22
396.82	226.16
397.19	226.48
397.57	226.52
397.95	226.72
398.32	226.65
398.70	226.78
399.07	226.95
399.45	226.97
399.82	227.09
400.20	227.13
400.58	227.20
400.95	227.16
401.33	227.43
401.70	227.87
402.08	228.06
402.45	228.21
402.83	228.50
403.20	228.71
403.58	228.81
403.95	229.03
404.33	229.29
404.71	229.52
405.08	229.91
405.46	230.14
405.83	230.36
406.21	230.63
406.58	230.87
406.96	231.17
407.33	231.52
407.70	231.89
408.08	232.60
408.45	233.07
408.83	233.59
409.20	233.91
409.58	234.09
409.95	234.60
410.33	235.13
410.70	235.45
411.08	236.02
411.45	236.60
411.82	237.18
412.20	237.89
412.57	238.90
412.95	239.22
413.32	240.06
413.69	240.93
414.07	241.84
414.44	242.81
414.82	243.80
415.19	244.95
415.56	246.08
415.94	246.99
416.31	248.37
416.68	249.74
417.06	251.24
417.43	252.85
417.81	254.50
418.18	256.21
418.55	258.13
418.93	260.16
419.30	262.19
419.67	264.38
420.04	266.57
420.42	268.84
420.79	271.90
421.16	274.55
421.54	277.53
421.91	280.52
422.28	283.51
422.66	286.73
423.03	290.17
423.40	293.42
423.77	296.90
424.15	300.33
424.52	304.01
424.89	308.12
425.26	312.01
425.64	315.74
426.01	319.82
426.38	324.15
426.75	328.51
427.13	333.01
427.50	337.60
427.87	342.42
428.24	347.16
428.61	351.54
428.99	356.81
429.36	362.06
429.73	367.43
430.10	372.85
430.47	378.31
430.85	383.80
431.22	389.88
431.59	396.63
431.96	402.81
432.33	409.56
432.70	416.10
433.08	423.70
433.45	430.82
433.82	438.07
434.19	446.13
434.56	454.10
434.93	461.73
435.30	469.41
435.68	477.88
436.05	486.08
436.42	494.24
436.79	501.75
437.16	510.01
437.53	518.58
437.90	527.11
438.27	535.64
438.64	544.34
439.01	552.47
439.38	559.45
439.75	566.39
440.13	574.40
440.50	581.77
440.87	587.73
441.24	594.11
441.61	600.94
441.98	605.87
442.35	611.50
442.72	617.12
443.09	622.78
443.46	626.10
443.83	628.47
444.20	630.36
444.57	632.99
444.94	634.03
445.31	635.17
445.68	636.67
446.05	636.76
446.42	635.55
446.79	634.11
447.16	632.60
447.53	631.43
447.90	627.76
448.27	624.19
448.64	619.60
449.01	615.94
449.37	609.87
449.74	603.95
450.11	597.44
450.48	590.02
450.85	582.25
451.22	575.62
451.59	569.19
451.96	563.06
452.33	555.20
452.70	548.13
453.07	539.63
453.43	530.67
453.80	522.46
454.17	514.57
454.54	507.14
454.91	499.08
455.28	491.26
455.65	483.92
456.02	477.23
456.38	470.88
456.75	463.35
457.12	457.01
457.49	450.86
457.86	444.57
458.23	439.57
458.59	434.05
458.96	428.41
459.33	423.41
459.70	418.46
460.07	414.48
460.43	409.79
460.80	405.67
461.17	401.92
461.54	398.06
461.91	394.39
462.27	390.57
462.64	387.34
463.01	383.88
463.38	380.62
463.74	376.65
464.11	373.79
464.48	371.24
464.85	368.45
465.21	366.31
465.58	363.99
465.95	361.08
466.32	358.84
466.68	356.55
467.05	354.28
467.42	352.08
467.78	349.70
468.15	347.56
468.52	345.91
468.88	343.73
469.25	341.88
469.62	340.45
469.98	338.81
470.35	337.40
470.72	335.90
471.08	334.27
471.45	333.07
471.82	331.84
472.18	330.42
472.55	329.43
472.92	328.18
473.28	327.03
473.65	326.05
474.02	324.98
474.38	324.16
474.75	323.42
475.11	322.62
475.48	322.01
475.85	321.46
476.21	320.84
476.58	320.46
476.94	320.03
477.31	319.53
477.67	319.12
478.04	318.71
478.41	318.62
478.77	318.98
479.14	318.69
479.50	318.51
479.87	318.52
480.23	318.58
480.60	318.43
480.96	318.44
481.33	318.78
481.69	319.00
482.06	319.23
482.42	319.50
482.79	319.81
483.15	320.28
483.52	320.90
483.88	321.34
484.25	321.87
484.61	322.49
484.98	323.12
485.34	324.10
485.71	325.07
486.07	325.98
486.44	326.46
486.80	327.56
487.17	328.71
487.53	330.14
487.90	331.48
488.26	333.13
488.62	334.85
488.99	336.38
489.35	338.11
489.72	339.99
490.08	341.99
490.44	343.93
490.81	346.08
491.17	348.25
491.54	350.73
491.90	353.25
492.26	355.88
492.63	358.71
492.99	361.50
493.36	364.53
493.72	367.86
494.08	371.30
494.45	375.02
494.81	378.94
495.17	382.65
495.54	386.80
495.90	391.08
496.26	395.51
496.63	400.11
496.99	404.88
497.35	409.88
497.72	415.07
498.08	420.62
498.44	426.37
498.80	432.29
499.17	438.32
499.53	444.50
499.89	451.07
500.26	457.72
500.62	464.73
500.98	472.17
501.34	479.42
501.71	487.13
502.07	494.74
502.43	502.72
502.79	511.09
503.16	519.63
503.52	528.47
503.88	537.66
504.24	547.31
504.60	557.10
504.97	567.34
505.33	577.56
505.69	588.45
506.05	599.15
506.41	610.42
506.78	621.90
507.14	633.77
507.50	646.03
507.86	658.56
508.22	671.30
508.59	684.05
508.95	697.56
509.31	711.47
509.67	725.75
510.03	739.91
510.39	754.45
510.75	769.27
511.12	784.40
511.48	799.65
511.84	815.04
512.20	830.77
512.56	846.87
512.92	863.67
513.28	880.29
513.64	897.43
514.00	914.67
514.37	932.34
514.73	950.34
515.09	968.42
515.45	986.56
515.81	1004.80
516.17	1023.52
516.53	1041.96
516.89	1060.40
517.25	1079.45
517.61	1099.42
517.97	1119.48
518.33	1139.24
518.69	1159.07
519.05	1179.42
519.41	1200.02
519.77	1221.00
520.13	1241.17
520.49	1261.31
520.85	1283.30
521.21	1303.96
521.57	1324.80
521.93	1345.14
522.29	1366.01
522.65	1386.19
523.01	1407.02
523.37	1427.24
523.73	1447.77
524.09	1468.06
524.45	1488.45
524.81	1508.84
525.17	1529.05
525.53	1549.40
525.89	1570.06
526.25	1590.35
526.61	1610.33
526.97	1630.74
527.33	1651.32
527.68	1672.90
528.04	1693.86
528.40	1712.77
528.76	1733.57
529.12	1753.50
529.48	1773.79
529.84	1793.30
530.20	1814.01
530.56	1833.87
530.91	1854.28
531.27	1874.17
531.63	1894.18
531.99	1914.40
532.35	1933.90
532.71	1953.59
533.07	1973.34
533.42	1992.46
533.78	2012.22
534.14	2031.66
534.50	2050.09
534.86	2068.62
535.21	2085.37
535.57	2103.16
535.93	2120.41
536.29	2137.34
536.65	2155.09
537.00	2172.47
537.36	2189.45
537.72	2205.32
538.08	2222.12
538.44	2238.20
538.79	2254.20
539.15	2270.25
539.51	2285.52
539.87	2300.43
540.22	2314.02
540.58	2327.77
540.94	2340.68
541.29	2352.51
541.65	2364.26
542.01	2376.15
542.37	2386.42
542.72	2397.37
543.08	2407.80
543.44	2419.06
543.79	2428.52
544.15	2437.85
544.51	2447.24
544.87	2456.20
545.22	2464.39
545.58	2471.40
545.94	2478.00
546.29	2484.03
546.65	2489.44
547.01	2494.64
547.36	2499.73
547.72	2504.64
548.07	2507.78
548.43	2512.51
548.79	2516.93
549.14	2520.68
549.50	2524.54
549.86	2527.97
550.21	2531.13
550.57	2533.75
550.92	2534.80
551.28	2536.04
551.64	2538.03
551.99	2539.58
552.35	2541.24
552.70	2543.00
553.06	2544.48
553.41	2545.68
553.77	2546.90
554.13	2548.65
554.48	2549.72
554.84	2550.66
555.19	2551.57
555.55	2553.21
555.90	2552.33
556.26	2551.22
556.61	2549.53
556.97	2546.87
557.32	2546.13
557.68	2544.43
558.03	2542.79
558.39	2541.15
558.74	2539.96
559.10	2536.46
559.45	2532.60
559.81	2527.76
560.16	2522.57
560.52	2517.79
560.87	2513.30
561.23	2507.71
561.58	2501.40
561.94	2494.58
562.29	2487.14
562.64	2479.85
563.00	2471.73
563.35	2465.25
563.71	2458.41
564.06	2452.04
564.42	2445.48
564.77	2438.44
565.12	2431.04
565.48	2423.32
565.83	2415.36
566.19	2407.23
566.54	2399.50
566.89	2391.13
567.25	2383.48
567.60	2376.39
567.96	2368.44
568.31	2360.30
568.66	2351.91
569.02	2343.00
569.37	2334.78
569.72	2327.32
570.08	2318.16
570.43	2308.70
570.78	2299.41
571.14	2290.03
571.49	2279.98
571.84	2270.46
572.20	2259.50
572.55	2249.59
572.90	2238.82
573.26	2228.97
573.61	2218.28
573.96	2207.29
574.31	2195.86
574.67	2184.16
575.02	2171.41
575.37	2159.07
575.72	2146.14
576.08	2134.06
576.43	2121.57
576.78	2108.65
577.13	2095.12
577.49	2082.66
577.84	2071.28
578.19	2059.33
578.54	2047.27
578.90	2035.63
579.25	2023.65
579.60	2011.75
579.95	1999.28
580.30	1986.54
580.66	1972.99
581.01	1959.46
581.36	1945.59
581.71	1933.17
582.06	1920.64
582.42	1908.51
582.77	1896.16
583.12	1884.68
583.47	1872.76
583.82	1861.25
584.17	1849.59
584.53	1838.31
584.88	1825.73
585.23	1812.87
585.58	1799.05
585.93	1785.90
586.28	1772.73
586.63	1759.22
586.98	1745.26
587.34	1731.92
587.69	1719.04
588.04	1706.92
588.39	1695.14
588.74	1683.39
589.09	1671.69
589.44	1659.23
589.79	1647.27
590.14	1635.71
590.49	1623.86
590.84	1612.03
591.19	1600.16
591.54	1588.29
591.89	1576.30
592.25	1566.46
592.60	1555.13
592.95	1544.47
593.30	1532.98
593.65	1521.78
594.00	1510.12
594.35	1500.58
594.70	1489.35
595.05	1478.33
595.40	1466.90
595.75	1455.61
596.10	1444.83
596.45	1433.73
596.80	1423.10
597.15	1412.28
597.50	1400.87
597.85	1389.72
598.19	1378.38
598.54	1367.41
598.89	1356.44
599.24	1345.95
599.59	1334.54
599.94	1324.37
600.29	1313.87
600.64	1304.20
600.99	1293.51
601.34	1284.13
601.69	1273.38
602.04	1263.76
602.39	1254.31
602.74	1245.31
603.08	1236.26
603.43	1227.19
603.78	1217.60
604.13	1208.42
604.48	1198.90
604.83	1189.40
605.18	1179.98
605.53	1170.97
605.87	1162.19
606.22	1153.91
606.57	1145.01
606.92	1136.09
607.27	1127.06
607.62	1118.75
607.96	1110.23
608.31	1102.76
608.66	1094.75
609.01	1086.54
609.36	1078.48
609.70	1070.24
610.05	1061.89
610.40	1053.48
610.75	1045.03
611.10	1037.03
611.44	1028.74
611.79	1020.88
612.14	1013.26
612.49	1005.71
612.83	998.45
613.18	990.77
613.53	983.21
613.88	975.49
614.22	968.03
614.57	960.53
614.92	953.01
615.27	945.74
615.61	938.05
615.96	930.52
616.31	923.35
616.65	916.53
617.00	909.51
617.35	902.56
617.70	895.71
618.04	888.79
618.39	882.00
618.74	875.85
619.08	869.17
619.43	862.65
619.78	855.86
620.12	848.99
620.47	842.36
620.82	835.54
621.16	829.17
621.51	823.03
621.85	817.05
622.20	810.67
622.55	804.23
622.89	798.09
623.24	792.15
623.59	785.81
623.93	779.43
624.28	773.49
624.62	767.86
624.97	762.36
625.32	756.84
625.66	751.00
626.01	745.07
626.35	739.83
626.70	734.36
627.04	729.11
627.39	723.71
627.73	718.61
628.08	713.72
628.43	708.39
628.77	703.13
629.12	697.98
629.46	693.27
629.81	688.61
630.15	683.98
630.50	679.15
630.84	674.52
631.19	670.05
631.53	665.57
631.88	660.59
632.22	655.78
632.57	651.44
632.91	646.95
633.26	642.62
633.60	638.00
633.95	633.50
634.29	628.83
634.64	624.59
634.98	619.99
635.32	615.73
635.67	611.96
636.01	607.94
636.36	603.71
636.70	599.82
637.05	595.73
637.39	591.75
637.73	587.82
638.08	583.99
638.42	579.98
638.77	575.90
639.11	571.66
639.45	567.52
639.80	563.35
640.14	559.55
640.49	555.69
640.83	552.01
641.17	548.57
641.52	545.13
641.86	541.56
642.20	538.51
642.55	534.94
642.89	531.36
643.23	527.87
643.58	524.85
643.92	521.23
644.26	518.20
644.61	515.08
644.95	511.76
645.29	508.43
645.64	505.48
645.98	502.38
646.32	499.59
646.66	496.70
647.01	493.70
647.35	490.97
647.69	488.21
648.04	485.50
648.38	482.69
648.72	480.02
649.06	477.11
649.41	474.15
649.75	471.18
650.09	468.33
650.43	465.55
650.78	462.76
651.12	460.07
651.46	457.21
651.80	454.54
652.14	451.98
652.49	449.60
652.83	447.01
653.17	444.54
653.51	441.95
653.85	439.63
654.20	437.33
654.54	434.81
654.88	432.30
655.22	430.06
655.56	427.77
655.90	425.32
656.25	423.15
656.59	420.91
656.93	418.95
657.27	417.05
657.61	414.74
657.95	412.53
658.29	410.44
658.64	408.39
658.98	406.16
659.32	404.02
659.66	401.92
660.00	399.83
660.34	397.93
660.68	396.00
661.02	393.98
661.36	392.13
661.70	390.18
662.05	388.23
662.39	386.41
662.73	384.59
663.07	383.02
663.41	381.26
663.75	379.40
664.09	377.49
664.43	375.46
664.77	373.81
665.11	372.11
665.45	370.50
665.79	368.86
666.13	367.24
666.47	365.61
666.81	363.92
667.15	362.27
667.49	360.83
667.83	359.53
668.17	358.07
668.51	356.50
668.85	355.22
669.19	354.20
669.53	352.54
669.87	351.04
670.21	349.52
670.55	348.19
670.89	347.14
671.23	345.95
671.57	344.61
671.91	343.35
672.25	341.99
672.58	340.82
672.92	339.41
673.26	338.10
673.60	336.90
673.94	335.77
674.28	334.77
674.62	333.50
674.96	332.19
675.30	331.11
675.64	329.96
675.97	328.79
676.31	327.35
676.65	326.20
676.99	325.33
677.33	324.16
677.67	323.15
678.01	321.86
678.34	320.79
678.68	319.92
679.02	318.98
679.36	318.10
679.70	317.06
680.04	316.30
680.37	315.44
680.71	314.47
681.05	313.58
681.39	312.63
681.73	311.65
682.06	310.78
682.40	309.90
682.74	309.16
683.08	308.56
683.42	307.72
683.75	307.10
684.09	306.20
684.43	305.50
684.77	304.63
685.10	303.90
685.44	303.10
685.78	302.30
686.12	301.38
686.45	300.53
686.79	299.63
687.13	298.94
687.46	298.28
687.80	297.71
688.14	296.90
688.48	296.18
688.81	295.49
689.15	295.00
689.49	294.29
689.82	293.56
690.16	292.65
690.50	292.06
690.83	291.33
691.17	290.54
691.51	289.93
691.84	289.33
692.18	288.69
692.52	288.02
692.85	287.48
693.19	287.17
693.52	286.58
693.86	286.07
694.20	285.43
694.53	284.77
694.87	284.04
695.21	283.44
695.54	282.84
695.88	282.21
696.21	281.41
696.55	280.83
696.88	280.24
697.22	279.66
697.56	279.18
697.89	278.57
698.23	278.13
698.56	277.44
698.90	276.92
699.23	276.29
699.57	275.89
699.90	275.30
700.24	274.69
700.58	274.20
700.91	273.79
701.25	273.70
701.58	273.56
701.92	273.18
702.25	272.78
702.59	272.39
702.92	271.99
703.26	271.62
703.59	271.20
703.93	271.16
704.26	270.77
704.60	270.34
704.93	269.97
705.26	269.51
705.60	269.30
705.93	268.89
706.27	268.63
706.60	268.30
706.94	268.13
707.27	267.64
707.61	267.35
707.94	266.98
708.27	266.13
708.61	265.44
708.94	265.08
709.28	264.75
709.61	264.32
709.94	264.01
710.28	263.59
710.61	263.22
710.95	262.50
711.28	262.47
711.61	262.09
711.95	261.87
712.28	261.47
712.61	261.04
712.95	260.88
713.28	260.76
713.61	260.38
713.95	259.83
714.28	259.60
714.61	259.23
714.95	258.91
715.28	258.55
715.61	258.20
715.95	257.89
716.28	257.55
716.61	257.30
716.95	256.86
717.28	256.65
717.61	256.35
717.94	256.06
718.28	255.43
718.61	255.04
718.94	254.63
719.27	254.47
719.61	254.24
719.94	253.88
720.27	253.36
720.60	253.04
720.94	252.88
721.27	252.68
721.60	252.55
721.93	252.25
722.27	252.27
722.60	252.18
722.93	251.93
723.26	251.70
723.59	251.39
723.93	251.31
724.26	251.02
724.59	250.80
724.92	250.56
725.25	250.48
725.59	250.32
725.92	250.23
726.25	249.96
726.58	249.79
726.91	249.52
727.24	249.42
727.57	249.21
727.91	248.97
728.24	248.79
728.57	248.51
728.90	248.45
729.23	248.02
729.56	248.01
729.89	247.82
730.22	247.65
730.55	247.46
730.89	247.30
731.22	247.14
731.55	246.98
731.88	246.88
732.21	246.62
732.54	246.48
732.87	246.24
733.20	246.12
733.53	245.89
733.86	245.84
734.19	245.60
734.52	245.53
734.85	245.62
735.18	245.39
735.51	245.38
735.84	245.18
736.17	245.22
736.50	244.78
736.83	245.26
737.16	245.08
737.49	244.93
737.82	244.74
738.15	244.65
738.48	244.50
738.81	244.30
739.14	244.20
739.47	244.00
739.80	243.87
740.13	243.70
740.46	243.57
740.79	243.38
741.12	243.27
741.45	243.02
741.78	242.67
742.11	242.71
742.44	242.48
742.77	242.36
743.10	242.15
743.43	241.97
743.75	241.32
744.08	241.91
744.41	241.70
744.74	241.56
745.07	241.34
745.40	241.22
745.73	241.35
746.06	241.19
746.39	241.14
746.71	241.03
747.04	240.89
747.37	240.77
747.70	240.71
748.03	240.62
748.36	240.54
748.68	240.44
749.01	240.13
749.34	240.01
749.67	240.03
750.00	239.97
750.33	240.22
750.65	240.14
750.98	239.39
751.31	239.37
751.64	239.30
751.97	239.43
752.29	239.31
752.62	238.95
752.95	238.82
753.28	238.65
753.60	238.50
753.93	238.44
754.26	238.39
754.59	238.11
754.91	237.95
755.24	237.93
755.57	237.77
755.90	237.59
756.22	237.39
756.55	237.08
756.88	236.88
757.20	236.48
757.53	236.20
757.86	236.07
758.19	236.03
758.51	235.92
758.84	235.60
759.17	235.46
759.49	235.43
759.82	235.53
760.15	235.46
760.47	235.36
760.80	235.17
761.13	235.20
761.45	235.10
761.78	235.00
762.11	234.83
762.43	234.70
762.76	234.67
763.08	234.65
763.41	234.58
763.74	234.55
764.06	234.46
764.39	234.40
764.71	234.27
765.04	234.13
765.37	233.98
765.69	233.81
766.02	233.66
766.34	233.48
766.67	233.22
767.00	233.18
767.32	233.34
767.65	233.54
767.97	233.30
768.30	233.25
768.62	233.18
768.95	233.05
769.27	232.95
769.60	233.03
769.92	232.88
770.25	232.73
770.57	232.55
770.90	232.44
771.22	232.26
771.55	232.15
771.87	232.07
772.20	231.95
772.52	232.41
772.85	232.99
773.17	232.97
773.50	232.89
773.82	232.77
774.15	232.47
774.47	232.12
774.80	232.07
775.12	232.00
775.45	231.95
775.77	231.89
776.09	231.91
776.42	231.82
776.74	231.96
777.07	231.96
777.39	231.95
777.72	231.92
778.04	231.97
778.36	231.95
778.69	231.88
779.01	231.90
779.33	231.37
779.66	230.80
779.98	230.71
780.31	230.75
780.63	230.93
780.95	230.92
781.28	230.91
781.60	230.85
781.92	230.83
782.25	230.75
782.57	230.75
782.89	230.67
783.22	230.55
783.54	230.38
783.86	230.30
784.19	230.20
784.51	230.24
784.83	230.21
785.16	230.16
785.48	230.10
785.80	230.10
786.12	230.11
786.45	230.06
786.77	229.99
787.09	229.90
787.42	229.70
787.74	229.68
788.06	229.62
788.38	229.59
788.71	229.48
789.03	229.50
789.35	229.57
789.67	229.42
789.99	229.47
790.32	229.41
790.64	229.50
790.96	229.85
791.28	229.72
791.61	229.69
791.93	229.72
792.25	229.80
792.57	230.09
792.89	229.99
793.21	230.02
793.54	230.02
793.86	229.90
794.18	229.82
794.50	229.73
794.82	229.74
795.14	229.78
795.47	229.92
795.79	229.81
796.11	229.61
796.43	229.64
796.75	229.57
797.07	229.51
797.39	229.45
797.71	229.16
798.04	229.13
798.36	229.16
798.68	229.11
799.00	229.11
799.32	228.84
799.64	228.95
799.96	228.87
800.28	228.93
800.60	228.93
800.92	229.10
801.24	229.08
801.56	229.12
801.89	229.02
802.21	229.01
802.53	228.97
802.85	229.03
803.17	229.21
803.49	229.09
803.81	229.13
804.13	229.11
804.45	229.08
804.77	229.11
805.09	229.07
805.41	228.98
805.73	228.91
806.05	228.72
806.37	228.66
806.69	228.59
807.01	228.60
807.33	228.61
807.65	228.33
807.97	228.55
808.28	228.45
808.60	228.49
808.92	228.36
809.24	228.62
809.56	228.64
809.88	228.44
810.20	228.45
810.52	228.53
810.84	228.42
811.16	228.30
811.48	228.21
811.80	228.35
812.12	228.35
812.43	228.32
812.75	228.38
813.07	228.32
813.39	228.34
813.71	228.18
814.03	228.13
814.35	228.10
814.67	227.86
814.98	227.81
815.30	227.69
815.62	227.67
815.94	227.34
816.26	227.51
816.58	227.48
816.89	227.50
817.21	227.33
817.53	227.34
817.85	227.33
818.17	227.31
818.48	227.18
818.80	227.29
819.12	227.24
819.44	227.12
819.76	227.05
820.07	227.02
820.39	227.04
820.71	227.03
821.03	227.15
821.34	227.16
821.66	227.20
821.98	227.24
822.30	227.20
822.61	227.55
822.93	227.29
823.25	227.21
823.57	227.14
823.88	227.21
824.20	227.20
824.52	227.26
824.83	227.30
825.15	227.20
825.47	227.15
825.79	227.21
826.10	227.32
826.42	227.29
826.74	227.34
827.05	227.33
827.37	227.41
827.69	227.31
828.00	227.31
828.32	227.29
828.64	227.30
828.95	227.54
829.27	227.43
829.58	227.43
829.90	227.48
830.22	227.53
830.53	227.44
830.85	227.38
831.17	227.26
831.48	227.22
831.80	227.23
832.11	227.20
832.43	227.14
832.75	227.08
833.06	227.45
833.38	227.29
833.69	227.24
834.01	227.20
834.32	227.18
834.64	227.12
834.96	227.18
835.27	227.12
835.59	226.88
835.90	226.79
836.22	226.80
836.53	226.74
836.85	226.69
837.16	227.15
837.48	227.21
837.79	227.39
838.11	227.35
838.42	227.33
838.74	227.38
839.05	227.33
839.37	227.36
839.68	226.91
840.00	226.95
840.31	227.06
840.63	227.05
840.94	227.03
841.26	227.04
841.57	226.97
841.88	227.05
842.20	226.98
842.51	226.92
842.83	226.89
843.14	227.34
843.46	227.36
843.77	227.13
844.08	227.08
844.40	226.97
844.71	226.98
845.03	226.96
845.34	226.84
845.65	226.82
845.97	226.73
846.28	226.81
846.60	226.87
846.91	226.85
847.22	226.82
847.54	226.93
847.85	226.89
848.16	226.94
848.48	226.85
848.79	227.15
849.10	227.13
849.42	227.21
849.73	226.75
850.04	226.73
850.36	226.53
850.67	226.64
850.98	226.66
851.30	226.75
851.61	226.70
851.92	226.75
852.23	226.93
852.55	227.01
852.86	227.07
853.17	227.12
853.49	227.20
853.80	227.29
854.11	227.34
854.42	227.44
854.74	227.29
855.05	227.33
855.36	227.05
855.67	227.13
855.99	227.12
856.30	227.77
856.61	227.80
856.92	227.79
857.23	227.78
857.55	227.72
857.86	227.63
858.17	227.68
858.48	227.55
858.79	227.44
859.11	227.52
859.42	227.46
859.73	227.44
860.04	227.36
860.35	227.29
860.66	227.15
860.98	227.13
861.29	227.23
861.60	227.18
861.91	227.31
862.22	227.23
862.53	227.14
862.84	226.48
863.16	226.55
863.47	226.52
863.78	226.43
864.09	226.46
864.40	226.52
864.71	226.60
865.02	226.73
865.33	226.71
865.64	226.54
865.95	226.54
866.27	226.79
866.58	226.78
866.89	226.77
867.20	226.68
867.51	226.60
867.82	226.60
868.13	226.80
868.44	226.65
868.75	226.75
869.06	226.74
869.37	226.82
869.68	226.68
869.99	226.74
870.30	226.80
870.61	226.81
870.92	226.72
871.23	226.66
871.54	226.75
871.85	226.84
872.16	226.86
872.47	226.85
872.78	226.52
873.09	226.54
873.40	226.48
873.71	226.57
874.02	226.54
874.33	226.54
874.64	226.38
874.95	226.52
875.26	226.38
875.56	226.36
875.87	226.28
876.18	226.35
876.49	226.87
876.80	226.82
877.11	226.79
877.42	226.88
877.73	226.87
878.04	226.71
878.35	226.63
878.66	226.65
878.96	226.64
879.27	226.72
879.58	226.66
879.89	226.69
880.20	226.89
880.51	226.87
880.82	226.83
881.12	226.82
881.43	226.64
881.74	226.61
882.05	226.64
882.36	226.66
882.67	226.70
882.97	226.15
883.28	226.10
883.59	226.05
883.90	226.05
884.21	226.11
884.51	226.14
884.82	226.15
885.13	226.14
885.44	226.15
885.74	226.12
886.05	226.16
886.36	226.11
886.67	225.89
886.98	226.12
887.28	226.19
887.59	226.19
887.90	226.19
888.20	226.12
888.51	226.15
888.82	226.16
889.13	226.13
889.43	226.54
889.74	226.51
890.05	226.49
890.35	226.45
890.66	226.33
890.97	226.20
891.28	226.14
891.58	226.16
891.89	226.19
892.20	226.14
892.50	226.05
892.81	226.08
893.12	226.10
893.42	225.93
893.73	225.90
894.04	225.89
894.34	226.03
894.65	226.08
894.95	226.09
895.26	226.10
895.57	226.30
895.87	225.85
896.18	225.92
896.48	225.99
896.79	225.98
897.10	226.14
897.40	226.20
897.71	226.28
898.01	226.24
898.32	226.24
898.63	226.27
898.93	226.36
899.24	226.38
899.54	226.30
899.85	226.22
900.15	226.23
900.46	226.20
900.76	226.15
901.07	226.16
901.38	226.08
901.68	226.08
901.99	225.87
902.29	225.88
902.60	225.86
902.90	225.78
903.21	225.70
903.51	225.66
903.82	225.79
904.12	225.80
904.43	225.80
904.73	225.82
905.03	225.77
905.34	226.19
905.64	226.16
905.95	226.13
906.25	226.17
906.56	226.17
906.86	226.27
907.17	226.28
907.47	226.35
907.77	226.32
908.08	226.27
908.38	226.30
908.69	226.42
908.99	226.51
909.30	226.54
909.60	226.66
909.90	226.71
910.21	226.58
910.51	226.49
910.81	226.51
911.12	226.53
911.42	226.55
911.73	226.03
912.03	225.99
912.33	226.17
912.64	226.20
912.94	226.17
913.24	226.00
913.55	225.91
913.85	225.83
914.15	225.97
914.46	225.97
914.76	225.88
915.06	225.78
915.37	225.66
915.67	225.58
915.97	225.44
916.27	225.17
916.58	225.10
916.88	225.04
917.18	225.02
917.49	225.28
917.79	225.23
918.09	225.27
918.39	225.45
918.70	225.32
919.00	225.32
919.30	225.42
919.60	225.42
919.91	225.42
920.21	225.50
920.51	225.38
920.81	225.33
921.12	225.42
921.42	225.40
921.72	225.42
922.02	225.49
922.32	225.66
922.63	225.73
922.93	226.06
923.23	226.06
923.53	225.99
923.83	225.72
924.13	225.72
924.44	225.76
924.74	225.75
925.04	225.91
925.34	225.84
925.64	225.68
925.94	225.70
926.24	225.97
926.55	225.89
926.85	225.91
927.15	225.94
927.45	225.87
927.75	225.80
928.05	225.81
928.35	225.81
928.65	225.85
928.95	225.92
929.26	225.68
929.56	225.76
929.86	225.92
930.16	225.87
930.46	225.91
930.76	225.88
931.06	225.71
931.36	225.53
931.66	225.65
931.96	225.70
932.26	225.75
932.56	225.52
932.86	225.58
933.16	225.56
933.46	225.53
933.76	225.55
934.06	225.75
934.36	225.90
934.66	225.94
934.96	225.93
935.26	225.97
935.56	226.09
935.86	226.03
936.16	225.89
936.46	225.82
936.76	225.78
937.06	225.76
937.36	225.78
937.66	225.80
937.96	225.75
938.26	225.69
938.56	225.62
938.86	225.72
939.16	225.77
939.46	225.89
939.76	225.94
940.06	226.00
940.35	225.85
940.65	225.63
940.95	225.62
941.25	225.41
941.55	225.37
941.85	225.37
942.15	225.48
942.45	225.65
942.75	225.75
943.04	225.79
943.34	225.90
943.64	225.95
943.94	225.93
944.24	225.91
944.54	225.95
944.84	226.04
945.13	225.90
945.43	225.90
945.73	225.92
946.03	225.93
946.33	225.82
946.62	225.87
946.92	225.87
947.22	225.85
947.52	225.96
947.82	225.99
948.11	225.94
948.41	225.88
948.71	225.71
949.01	225.72
949.31	225.65
949.60	225.60
949.90	225.69
950.20	225.65
950.50	225.66
950.79	225.73
951.09	225.77
951.39	225.75
951.69	225.67
951.98	225.66
952.28	225.62
952.58	225.63
952.87	225.61
953.17	225.69
953.47	225.73
953.76	225.70
954.06	225.64
954.36	225.50
954.66	225.48
954.95	225.60
955.25	225.57
955.55	225.65
955.84	225.56
956.14	225.50
956.44	225.53
956.73	225.44
957.03	225.38
957.32	225.31
957.62	225.34
957.92	225.42
958.21	225.33
958.51	225.86
958.81	225.91
959.10	225.97
959.40	226.06
959.69	226.02
959.99	226.09
960.29	226.11
960.58	226.10
960.88	226.28
961.17	226.25
961.47	226.30
961.76	226.23
962.06	226.37
962.36	226.30
962.65	226.36
962.95	226.40
963.24	226.38
963.54	226.42
963.83	226.45
964.13	226.41
964.42	226.37
964.72	225.95
965.01	225.96
965.31	225.89
965.60	225.73
965.90	226.11
966.19	226.03
966.49	226.06
966.78	226.09
967.08	225.98
967.37	225.99
967.67	225.93
967.96	226.06
968.26	226.02
968.55	226.15
968.85	226.16
969.14	226.15
969.43	226.15
969.73	226.10
970.02	226.03
970.32	226.03
970.61	226.06
970.91	225.96
971.20	225.90
971.49	225.85
971.79	225.89
972.08	225.50
972.38	225.57
972.67	225.53
972.96	225.66
973.26	225.58
973.55	225.73
973.85	225.74
974.14	225.66
974.43	225.65
974.73	225.60
975.02	225.50
975.31	225.61
975.61	225.58
975.90	225.58
976.19	225.53
976.49	225.52
976.78	225.48
977.07	225.47
977.37	225.46
977.66	225.55
977.95	225.54
978.24	225.60
978.54	225.68
978.83	225.66
979.12	225.55
979.42	225.60
979.71	225.56
980.00	225.55
980.29	225.59
980.59	225.55
980.88	225.63
981.17	225.75
981.46	225.74
981.76	225.76
982.05	225.90
982.34	226.00
982.63	226.10
982.93	226.12
983.22	226.30
983.51	226.41
983.80	226.42
984.09	226.47
984.39	226.40
984.68	226.31
984.97	226.30
985.26	226.34
985.55	226.43
985.85	226.29
986.14	226.35
986.43	226.40
986.72	226.39
987.01	226.26
987.30	226.16
987.59	226.11
987.89	226.05
988.18	225.96
988.47	225.93
988.76	225.89
989.05	225.82
989.34	225.70
989.63	225.79
989.92	225.81
990.22	225.73
990.51	225.76
990.80	225.74
991.09	225.79
991.38	225.84
991.67	225.69
991.96	225.67
992.25	225.71
992.54	225.65
992.83	225.64
993.12	225.66
993.41	225.79
993.70	225.98
993.99	226.12
994.28	226.17
994.58	226.22
994.87	226.14
995.16	226.18
995.45	226.15
995.74	226.00
996.03	226.00
996.32	226.10
996.61	226.18
996.90	226.13
997.19	226.12
997.48	226.12
997.77	226.08
998.06	226.07
998.34	226.00
998.63	225.94
998.92	225.97
999.21	226.01
999.50	225.95
999.79	225.76
1000.08	225.79
1000.37	225.74
1000.66	225.71
1000.95	225.87
1001.24	225.90
1001.53	225.93
1001.82	225.87
1002.11	225.81
1002.40	225.84
1002.68	225.98
1002.97	226.34
1003.26	226.30
1003.55	226.24
1003.84	226.33
1004.13	226.46
1004.42	226.38
1004.71	226.42
1004.99	226.40
1005.28	226.50
1005.57	226.53
1005.86	226.47
1006.15	226.42
1006.44	226.41
1006.72	226.44
1007.01	226.34
1007.30	226.36
1007.59	226.31
1007.88	226.32
1008.17	226.36
1008.45	226.32
1008.74	226.01
1009.03	225.79
1009.32	225.80
1009.60	225.74
1009.89	225.69
1010.18	225.48
1010.47	225.48
1010.76	225.44
1011.04	225.41
1011.33	225.31
1011.62	225.32
1011.91	225.32
1012.19	225.29
1012.48	225.23
1012.77	225.23
1013.05	225.41
1013.34	225.35
1013.63	225.39
1013.92	225.45
1014.20	225.44
1014.49	225.40
1014.78	225.56
1015.06	225.38
1015.35	225.37
1015.64	225.41
1015.92	225.50
1016.21	225.59
1016.50	225.71
1016.78	225.73
1017.07	225.84
1017.36	225.83
1017.64	225.75
1017.93	225.88
1018.22	225.90
1018.50	225.98
1018.79	226.00
1019.08	225.79
1019.36	225.90
1019.65	225.83
1019.93	226.00
1020.22	225.96
1020.51	226.22
1020.79	226.14
1021.08	226.00
1021.36	226.20
1021.65	226.40
1021.94	225.75
1022.22	226.70
1022.51	225.25
1022.79	228.45
1023.08	225.40
1023.36	231.60
1023.65	224.90
>>>>>End Processed Spectral Data<<<<<
