SpectraSuite Data File
++++++++++++++++++++++++++++++++++++
Date: Wed Sep 04 18:05:10 EDT 2013
User: lab3
Dark Spectrum Present: Yes
Reference Spectrum Present: No
Number of Sampled Component Spectra: 1
Spectrometers: USB2E7196
Integration Time (usec): 170000 (USB2E7196)
Spectra Averaged: 20 (USB2E7196)
Boxcar Smoothing: 10 (USB2E7196)
Correct for Electrical Dark: No (USB2E7196)
Strobe/Lamp Enabled: No (USB2E7196)
Correct for Detector Non-linearity: No (USB2E7196)
Correct for Stray Light: No (USB2E7196)
Number of Pixels in Processed Spectrum: 2048
>>>>>Begin Processed Spectral Data<<<<<
339.09	0.00
339.48	213.25
339.86	216.70
340.24	216.25
340.63	217.90
341.01	226.25
341.39	220.55
341.78	222.05
342.16	224.75
342.54	224.00
342.93	212.65
343.31	223.36
343.69	223.92
344.07	224.35
344.46	224.88
344.84	225.24
345.22	225.21
345.60	225.52
345.99	225.69
346.37	225.78
346.75	225.86
347.13	225.91
347.52	226.03
347.90	226.23
348.28	226.27
348.66	226.36
349.05	226.27
349.43	226.39
349.81	226.49
350.19	226.53
350.57	226.59
350.96	226.67
351.34	226.84
351.72	226.93
352.10	226.99
352.48	226.97
352.87	227.06
353.25	227.13
353.63	227.10
354.01	227.19
354.39	227.26
354.77	227.34
355.15	227.48
355.54	227.43
355.92	227.36
356.30	227.43
356.68	227.86
357.06	227.96
357.44	227.94
357.82	227.95
358.20	228.40
358.58	228.47
358.97	228.50
359.35	228.60
359.73	228.75
360.11	228.83
360.49	228.89
360.87	229.01
361.25	229.11
361.63	229.38
362.01	229.48
362.39	229.45
362.77	229.55
363.15	229.64
363.53	229.68
363.91	229.70
364.29	229.70
364.67	229.24
365.05	229.29
365.43	229.36
365.81	229.48
366.19	229.33
366.57	229.53
366.95	229.54
367.33	229.45
367.71	229.41
368.09	229.43
368.47	229.45
368.85	229.37
369.23	229.42
369.61	229.20
369.99	229.30
370.37	229.43
370.75	229.64
371.13	229.54
371.51	229.53
371.89	229.56
372.27	229.66
372.65	229.68
373.03	229.64
373.41	229.62
373.78	229.56
374.16	229.31
374.54	229.07
374.92	228.99
375.30	228.93
375.68	228.78
376.06	228.72
376.44	228.63
376.82	228.64
377.19	228.57
377.57	228.52
377.95	228.28
378.33	228.17
378.71	227.80
379.09	227.83
379.47	227.80
379.84	227.73
380.22	227.56
380.60	227.42
380.98	227.34
381.36	227.26
381.73	227.11
382.11	227.12
382.49	227.14
382.87	227.03
383.25	226.93
383.62	227.48
384.00	227.34
384.38	227.34
384.76	227.36
385.13	227.43
385.51	227.39
385.89	227.24
386.27	227.17
386.64	227.20
387.02	227.07
387.40	226.96
387.78	226.94
388.15	226.94
388.53	226.87
388.91	226.85
389.29	226.75
389.66	226.84
390.04	226.75
390.42	226.80
390.79	226.77
391.17	226.79
391.55	226.26
391.92	226.35
392.30	226.30
392.68	226.18
393.05	226.17
393.43	226.18
393.81	226.25
394.18	226.19
394.56	226.28
394.94	226.44
395.31	226.47
395.69	226.56
396.06	226.61
396.44	226.72
396.82	226.71
397.19	227.08
397.57	227.05
397.95	227.14
398.32	227.07
398.70	227.22
399.07	227.40
399.45	227.43
399.82	227.46
400.20	227.59
400.58	227.66
400.95	227.56
401.33	227.76
401.70	228.30
402.08	228.45
402.45	228.50
402.83	228.72
403.20	228.91
403.58	229.08
403.95	229.36
404.33	229.61
404.71	229.83
405.08	230.25
405.46	230.52
405.83	230.82
406.21	231.10
406.58	231.37
406.96	231.63
407.33	231.97
407.70	232.39
408.08	233.04
408.45	233.47
408.83	234.03
409.20	234.39
409.58	234.55
409.95	235.11
410.33	235.68
410.70	236.07
411.08	236.72
411.45	237.39
411.82	237.93
412.20	238.67
412.57	239.64
412.95	239.93
413.32	240.87
413.69	241.67
414.07	242.65
414.44	243.68
414.82	244.72
415.19	245.99
415.56	247.21
415.94	248.30
416.31	249.78
416.68	251.22
417.06	252.92
417.43	254.46
417.81	256.23
418.18	258.08
418.55	259.96
418.93	262.03
419.30	264.09
419.67	266.31
420.04	268.65
420.42	271.06
420.79	274.23
421.16	276.96
421.54	280.07
421.91	283.02
422.28	286.08
422.66	289.38
423.03	292.86
423.40	296.19
423.77	299.74
424.15	303.41
424.52	307.23
424.89	311.34
425.26	315.34
425.64	319.20
426.01	323.43
426.38	327.87
426.75	332.43
427.13	336.89
427.50	341.82
427.87	346.76
428.24	351.74
428.61	356.12
428.99	361.48
429.36	366.94
429.73	372.40
430.10	377.91
430.47	383.66
430.85	389.18
431.22	395.41
431.59	402.25
431.96	408.41
432.33	415.44
432.70	422.19
433.08	430.18
433.45	437.60
433.82	444.96
434.19	453.23
434.56	461.32
434.93	469.14
435.30	476.82
435.68	485.39
436.05	493.77
436.42	502.35
436.79	510.03
437.16	518.42
437.53	527.44
437.90	536.26
438.27	544.87
438.64	554.04
439.01	562.40
439.38	569.65
439.75	576.94
440.13	584.86
440.50	592.49
440.87	598.51
441.24	604.98
441.61	612.05
441.98	617.16
442.35	623.00
442.72	629.00
443.09	635.10
443.46	638.60
443.83	640.94
444.20	642.85
444.57	645.70
444.94	646.89
445.31	647.90
445.68	649.28
446.05	649.36
446.42	647.89
446.79	646.34
447.16	644.69
447.53	643.37
447.90	639.82
448.27	636.09
448.64	631.31
449.01	627.64
449.37	621.50
449.74	615.38
450.11	608.52
450.48	600.75
450.85	592.51
451.22	585.58
451.59	579.04
451.96	572.68
452.33	564.35
452.70	556.91
453.07	548.14
453.43	538.96
453.80	530.46
454.17	522.41
454.54	514.73
454.91	506.55
455.28	498.63
455.65	491.09
456.02	484.23
456.38	477.83
456.75	469.94
457.12	463.27
457.49	456.99
457.86	450.59
458.23	445.40
458.59	439.60
458.96	433.81
459.33	428.60
459.70	423.47
460.07	419.42
460.43	414.66
460.80	410.38
461.17	406.59
461.54	402.68
461.91	398.92
462.27	395.00
462.64	391.68
463.01	387.98
463.38	384.55
463.74	380.47
464.11	377.35
464.48	374.70
464.85	371.81
465.21	369.55
465.58	367.23
465.95	364.37
466.32	362.16
466.68	359.95
467.05	357.79
467.42	355.66
467.78	353.29
468.15	351.19
468.52	349.59
468.88	347.34
469.25	345.39
469.62	343.85
469.98	342.28
470.35	340.63
470.72	339.14
471.08	337.45
471.45	336.22
471.82	334.96
472.18	333.56
472.55	332.61
472.92	331.33
473.28	330.17
473.65	329.14
474.02	328.07
474.38	327.17
474.75	326.31
475.11	325.35
475.48	324.76
475.85	324.14
476.21	323.46
476.58	322.94
476.94	322.62
477.31	322.16
477.67	321.80
478.04	321.59
478.41	321.39
478.77	321.65
479.14	321.31
479.50	321.16
479.87	321.07
480.23	321.01
480.60	321.05
480.96	321.13
481.33	321.48
481.69	321.65
482.06	321.89
482.42	322.22
482.79	322.53
483.15	322.92
483.52	323.54
483.88	324.09
484.25	324.73
484.61	325.30
484.98	325.97
485.34	326.87
485.71	327.82
486.07	328.75
486.44	329.41
486.80	330.51
487.17	331.68
487.53	333.16
487.90	334.70
488.26	336.38
488.62	338.00
488.99	339.46
489.35	341.29
489.72	343.13
490.08	345.02
490.44	347.14
490.81	349.41
491.17	351.60
491.54	354.05
491.90	356.66
492.26	359.36
492.63	362.22
492.99	365.05
493.36	368.06
493.72	371.43
494.08	374.86
494.45	378.58
494.81	382.55
495.17	386.35
495.54	390.43
495.90	394.55
496.26	398.95
496.63	403.78
496.99	408.53
497.35	413.59
497.72	418.82
498.08	424.28
498.44	429.86
498.80	435.98
499.17	441.99
499.53	448.25
499.89	454.92
500.26	461.69
500.62	468.65
500.98	476.15
501.34	483.50
501.71	491.24
502.07	499.17
502.43	507.17
502.79	515.73
503.16	524.40
503.52	533.44
503.88	542.80
504.24	552.39
504.60	562.49
504.97	572.89
505.33	583.42
505.69	594.55
506.05	605.56
506.41	616.76
506.78	628.67
507.14	640.59
507.50	652.82
507.86	665.38
508.22	678.51
508.59	691.50
508.95	705.22
509.31	719.33
509.67	733.51
510.03	748.00
510.39	762.60
510.75	777.70
511.12	792.95
511.48	808.55
511.84	824.39
512.20	840.33
512.56	856.58
512.92	873.41
513.28	890.28
513.64	907.68
514.00	925.13
514.37	942.93
514.73	961.39
515.09	979.90
515.45	998.64
515.81	1016.80
516.17	1035.67
516.53	1054.38
516.89	1073.09
517.25	1092.75
517.61	1112.86
517.97	1133.21
518.33	1153.20
518.69	1173.57
519.05	1194.44
519.41	1215.27
519.77	1236.38
520.13	1257.08
520.49	1277.63
520.85	1299.93
521.21	1321.04
521.57	1342.47
521.93	1363.32
522.29	1384.48
522.65	1405.04
523.01	1426.07
523.37	1447.05
523.73	1468.08
524.09	1488.88
524.45	1509.80
524.81	1530.77
525.17	1551.52
525.53	1571.89
525.89	1593.07
526.25	1613.95
526.61	1634.18
526.97	1655.23
527.33	1676.84
527.68	1698.92
528.04	1720.66
528.40	1740.06
528.76	1761.15
529.12	1781.48
529.48	1802.14
529.84	1822.20
530.20	1843.48
530.56	1864.02
530.91	1885.20
531.27	1905.95
531.63	1926.82
531.99	1947.73
532.35	1967.59
532.71	1988.13
533.07	2009.11
533.42	2029.14
533.78	2049.24
534.14	2069.16
534.50	2088.39
534.86	2107.14
535.21	2124.95
535.57	2143.52
535.93	2161.64
536.29	2179.62
536.65	2197.86
537.00	2215.80
537.36	2233.67
537.72	2250.43
538.08	2267.79
538.44	2284.45
538.79	2301.34
539.15	2317.88
539.51	2333.79
539.87	2349.41
540.22	2363.76
540.58	2378.27
540.94	2391.74
541.29	2404.58
541.65	2417.32
542.01	2429.93
542.37	2440.93
542.72	2451.89
543.08	2462.47
543.44	2474.27
543.79	2484.61
544.15	2494.77
544.51	2504.86
544.87	2514.65
545.22	2523.58
545.58	2531.50
545.94	2539.33
546.29	2545.60
546.65	2551.89
547.01	2557.87
547.36	2563.70
547.72	2569.06
548.07	2573.37
548.43	2578.55
548.79	2583.35
549.14	2587.53
549.50	2591.30
549.86	2595.41
550.21	2598.98
550.57	2602.37
550.92	2604.12
551.28	2605.61
551.64	2607.92
551.99	2609.97
552.35	2611.94
552.70	2613.57
553.06	2615.19
553.41	2616.04
553.77	2618.02
554.13	2619.92
554.48	2621.42
554.84	2622.85
555.19	2624.40
555.55	2625.96
555.90	2625.40
556.26	2624.66
556.61	2623.36
556.97	2621.67
557.32	2621.43
557.68	2620.62
558.03	2619.35
558.39	2618.15
558.74	2617.73
559.10	2614.89
559.45	2611.68
559.81	2606.99
560.16	2602.47
560.52	2598.02
560.87	2593.89
561.23	2588.26
561.58	2582.02
561.94	2575.41
562.29	2567.73
562.64	2560.65
563.00	2552.63
563.35	2546.69
563.71	2540.11
564.06	2534.32
564.42	2527.37
564.77	2519.84
565.12	2512.39
565.48	2504.53
565.83	2496.37
566.19	2488.15
566.54	2480.38
566.89	2472.11
567.25	2464.46
567.60	2457.32
567.96	2449.51
568.31	2441.45
568.66	2432.98
569.02	2424.40
569.37	2416.18
569.72	2408.65
570.08	2399.51
570.43	2389.68
570.78	2379.92
571.14	2370.28
571.49	2360.17
571.84	2350.94
572.20	2340.13
572.55	2330.28
572.90	2319.46
573.26	2309.58
573.61	2298.21
573.96	2287.15
574.31	2275.24
574.67	2263.29
575.02	2250.56
575.37	2237.80
575.72	2224.34
576.08	2211.90
576.43	2199.07
576.78	2185.56
577.13	2171.89
577.49	2158.69
577.84	2147.00
578.19	2134.70
578.54	2122.30
578.90	2109.73
579.25	2097.38
579.60	2085.29
579.95	2072.07
580.30	2059.03
580.66	2045.10
581.01	2031.35
581.36	2017.31
581.71	2004.66
582.06	1991.58
582.42	1978.82
582.77	1966.26
583.12	1954.49
583.47	1941.83
583.82	1929.57
584.17	1917.88
584.53	1905.96
584.88	1893.15
585.23	1880.13
585.58	1866.14
585.93	1852.86
586.28	1839.23
586.63	1824.91
586.98	1810.62
587.34	1797.36
587.69	1784.28
588.04	1771.93
588.39	1759.95
588.74	1747.50
589.09	1735.26
589.44	1722.44
589.79	1710.39
590.14	1698.44
590.49	1686.25
590.84	1674.46
591.19	1662.61
591.54	1650.06
591.89	1637.82
592.25	1627.48
592.60	1615.90
592.95	1604.61
593.30	1592.43
593.65	1580.60
594.00	1568.76
594.35	1558.78
594.70	1546.65
595.05	1535.21
595.40	1522.79
595.75	1510.65
596.10	1499.35
596.45	1487.47
596.80	1476.64
597.15	1464.90
597.50	1452.70
597.85	1440.85
598.19	1429.15
598.54	1417.40
598.89	1405.98
599.24	1395.31
599.59	1383.50
599.94	1372.18
600.29	1361.43
600.64	1350.91
600.99	1340.15
601.34	1330.51
601.69	1319.12
602.04	1309.31
602.39	1299.43
602.74	1290.16
603.08	1280.83
603.43	1271.49
603.78	1261.75
604.13	1252.11
604.48	1242.44
604.83	1232.87
605.18	1223.37
605.53	1213.85
605.87	1204.71
606.22	1196.15
606.57	1186.93
606.92	1177.41
607.27	1168.55
607.62	1159.65
607.96	1150.99
608.31	1142.92
608.66	1134.28
609.01	1125.61
609.36	1116.96
609.70	1107.99
610.05	1099.11
610.40	1090.47
610.75	1081.78
611.10	1073.35
611.44	1064.40
611.79	1056.07
612.14	1048.05
612.49	1040.01
612.83	1032.37
613.18	1024.53
613.53	1016.69
613.88	1008.42
614.22	1000.81
614.57	992.85
614.92	984.95
615.27	977.52
615.61	969.91
615.96	962.17
616.31	954.66
616.65	947.56
617.00	940.29
617.35	932.93
617.70	925.70
618.04	918.31
618.39	911.45
618.74	905.21
619.08	898.26
619.43	891.22
619.78	884.03
620.12	876.91
620.47	869.96
620.82	862.72
621.16	855.93
621.51	849.40
621.85	843.13
622.20	836.49
622.55	829.73
622.89	823.00
623.24	816.62
623.59	810.19
623.93	803.74
624.28	797.47
624.62	791.95
624.97	786.16
625.32	780.34
625.66	774.15
626.01	767.97
626.35	762.38
626.70	756.74
627.04	751.50
627.39	745.83
627.73	740.39
628.08	735.12
628.43	729.75
628.77	724.13
629.12	718.70
629.46	713.76
629.81	708.98
630.15	704.16
630.50	699.44
630.84	694.53
631.19	689.68
631.53	685.13
631.88	679.84
632.22	674.74
632.57	670.20
632.91	665.57
633.26	660.96
633.60	656.26
633.95	651.61
634.29	646.78
634.64	642.15
634.98	637.33
635.32	632.79
635.67	628.72
636.01	624.46
636.36	620.02
636.70	615.99
637.05	611.61
637.39	607.54
637.73	603.19
638.08	599.21
638.42	594.91
638.77	590.50
639.11	586.01
639.45	581.74
639.80	577.26
640.14	573.24
640.49	569.32
640.83	565.40
641.17	561.69
641.52	557.80
641.86	554.35
642.20	551.07
642.55	547.41
642.89	543.56
643.23	540.16
643.58	536.88
643.92	533.14
644.26	529.81
644.61	526.40
644.95	522.84
645.29	519.35
645.64	516.20
645.98	513.05
646.32	510.24
646.66	507.05
647.01	504.02
647.35	501.13
647.69	498.12
648.04	495.23
648.38	492.43
648.72	489.49
649.06	486.34
649.41	483.15
649.75	480.02
650.09	477.07
650.43	474.18
650.78	471.28
651.12	468.47
651.46	465.68
651.80	462.93
652.14	460.39
652.49	457.84
652.83	455.10
653.17	452.56
653.51	449.76
653.85	447.44
654.20	445.01
654.54	442.32
654.88	439.81
655.22	437.53
655.56	434.98
655.90	432.70
656.25	430.51
656.59	428.36
656.93	426.30
657.27	424.29
657.61	421.77
657.95	419.59
658.29	417.39
658.64	415.25
658.98	412.89
659.32	410.52
659.66	408.20
660.00	406.11
660.34	403.95
660.68	401.84
661.02	399.70
661.36	397.75
661.70	395.80
662.05	393.80
662.39	391.86
662.73	390.02
663.07	388.31
663.41	386.47
663.75	384.48
664.09	382.61
664.43	380.68
664.77	379.02
665.11	377.24
665.45	375.52
665.79	373.84
666.13	372.21
666.47	370.65
666.81	369.08
667.15	367.42
667.49	366.04
667.83	364.80
668.17	363.29
668.51	361.81
668.85	360.42
669.19	359.31
669.53	357.69
669.87	356.19
670.21	354.71
670.55	353.30
670.89	352.24
671.23	350.89
671.57	349.41
671.91	348.15
672.25	346.80
672.58	345.60
672.92	344.11
673.26	342.86
673.60	341.65
673.94	340.46
674.28	339.35
674.62	338.05
674.96	336.76
675.30	335.62
675.64	334.44
675.97	333.16
676.31	331.75
676.65	330.55
676.99	329.60
677.33	328.40
677.67	327.34
678.01	325.97
678.34	324.91
678.68	324.17
679.02	323.09
679.36	322.06
679.70	321.04
680.04	320.13
680.37	319.15
680.71	318.12
681.05	317.22
681.39	316.24
681.73	315.31
682.06	314.36
682.40	313.53
682.74	312.63
683.08	311.89
683.42	310.97
683.75	310.15
684.09	309.18
684.43	308.49
684.77	307.50
685.10	306.79
685.44	305.94
685.78	304.96
686.12	304.19
686.45	303.45
686.79	302.65
687.13	301.98
687.46	301.16
687.80	300.53
688.14	299.78
688.48	299.09
688.81	298.35
689.15	297.75
689.49	296.97
689.82	296.19
690.16	295.25
690.50	294.54
690.83	293.84
691.17	293.02
691.51	292.31
691.84	291.79
692.18	291.10
692.52	290.45
692.85	289.85
693.19	289.44
693.52	288.75
693.86	288.05
694.20	287.39
694.53	286.85
694.87	286.18
695.21	285.45
695.54	284.80
695.88	284.15
696.21	283.36
696.55	282.78
696.88	282.20
697.22	281.68
697.56	281.18
697.89	280.53
698.23	280.05
698.56	279.46
698.90	278.88
699.23	278.43
699.57	277.89
699.90	277.34
700.24	276.63
700.58	276.16
700.91	275.77
701.25	275.64
701.58	275.46
701.92	275.06
702.25	274.65
702.59	274.19
702.92	273.75
703.26	273.38
703.59	272.90
703.93	272.83
704.26	272.51
704.60	272.12
704.93	271.72
705.26	271.32
705.60	270.97
705.93	270.47
706.27	270.09
706.60	269.90
706.94	269.65
707.27	269.19
707.61	268.84
707.94	268.41
708.27	267.65
708.61	266.94
708.94	266.48
709.28	266.07
709.61	265.67
709.94	265.41
710.28	265.01
710.61	264.71
710.95	263.99
711.28	263.95
711.61	263.55
711.95	263.27
712.28	262.81
712.61	262.40
712.95	262.33
713.28	262.09
713.61	261.55
713.95	261.02
714.28	260.73
714.61	260.35
714.95	259.98
715.28	259.64
715.61	259.24
715.95	258.95
716.28	258.56
716.61	258.28
716.95	257.80
717.28	257.46
717.61	257.13
717.94	256.84
718.28	256.09
718.61	255.82
718.94	255.49
719.27	255.24
719.61	255.02
719.94	254.70
720.27	254.25
720.60	254.02
720.94	253.79
721.27	253.58
721.60	253.40
721.93	253.19
722.27	253.08
722.60	252.88
722.93	252.62
723.26	252.42
723.59	252.11
723.93	252.01
724.26	251.87
724.59	251.57
724.92	251.40
725.25	251.41
725.59	251.19
725.92	251.15
726.25	250.99
726.58	250.81
726.91	250.48
727.24	250.35
727.57	250.15
727.91	249.86
728.24	249.68
728.57	249.41
728.90	249.27
729.23	248.89
729.56	248.97
729.89	248.76
730.22	248.68
730.55	248.57
730.89	248.39
731.22	248.24
731.55	248.07
731.88	247.88
732.21	247.59
732.54	247.42
732.87	247.23
733.20	247.04
733.53	246.89
733.86	246.78
734.19	246.54
734.52	246.49
734.85	246.73
735.18	246.50
735.51	246.53
735.84	246.37
736.17	246.46
736.50	246.04
736.83	246.44
737.16	246.26
737.49	246.13
737.82	245.90
738.15	245.74
738.48	245.70
738.81	245.59
739.14	245.37
739.47	245.15
739.80	245.03
740.13	244.89
740.46	244.70
740.79	244.47
741.12	244.30
741.45	244.06
741.78	243.68
742.11	243.67
742.44	243.32
742.77	243.24
743.10	243.02
743.43	242.85
743.75	242.26
744.08	242.76
744.41	242.51
744.74	242.41
745.07	242.20
745.40	242.06
745.73	242.06
746.06	241.96
746.39	241.85
746.71	241.65
747.04	241.50
747.37	241.32
747.70	241.33
748.03	241.20
748.36	241.18
748.68	241.00
749.01	240.77
749.34	240.67
749.67	240.57
750.00	240.46
750.33	240.76
750.65	240.64
750.98	239.91
751.31	239.87
751.64	239.80
751.97	239.98
752.29	239.82
752.62	239.55
752.95	239.37
753.28	239.24
753.60	238.99
753.93	238.97
754.26	238.92
754.59	238.65
754.91	238.53
755.24	238.32
755.57	238.23
755.90	238.08
756.22	238.05
756.55	237.87
756.88	237.65
757.20	237.19
757.53	236.93
757.86	236.81
758.19	236.75
758.51	236.63
758.84	236.28
759.17	236.12
759.49	236.00
759.82	236.18
760.15	236.20
760.47	236.13
760.80	235.98
761.13	235.93
761.45	235.82
761.78	235.77
762.11	235.71
762.43	235.54
762.76	235.45
763.08	235.38
763.41	235.33
763.74	235.37
764.06	235.26
764.39	235.20
764.71	235.09
765.04	234.90
765.37	234.73
765.69	234.61
766.02	234.55
766.34	234.43
766.67	234.18
767.00	234.13
767.32	234.39
767.65	234.60
767.97	234.50
768.30	234.50
768.62	234.38
768.95	234.26
769.27	234.24
769.60	234.27
769.92	234.15
770.25	233.97
770.57	233.74
770.90	233.66
771.22	233.54
771.55	233.51
771.87	233.48
772.20	233.40
772.52	233.79
772.85	234.25
773.17	234.31
773.50	234.24
773.82	234.10
774.15	233.83
774.47	233.46
774.80	233.30
775.12	233.19
775.45	233.15
775.77	233.13
776.09	233.04
776.42	232.99
776.74	233.05
777.07	233.02
777.39	233.06
777.72	232.92
778.04	233.03
778.36	232.90
778.69	232.89
779.01	232.95
779.33	232.52
779.66	232.03
779.98	231.90
780.31	231.88
780.63	231.99
780.95	231.90
781.28	231.85
781.60	231.80
781.92	231.76
782.25	231.77
782.57	231.77
782.89	231.75
783.22	231.67
783.54	231.54
783.86	231.47
784.19	231.31
784.51	231.48
784.83	231.30
785.16	231.30
785.48	231.24
785.80	231.15
786.12	231.09
786.45	231.02
786.77	231.04
787.09	230.95
787.42	230.74
787.74	230.81
788.06	230.80
788.38	230.79
788.71	230.80
789.03	230.75
789.35	230.75
789.67	230.71
789.99	230.69
790.32	230.67
790.64	230.67
790.96	231.07
791.28	230.87
791.61	230.87
791.93	230.85
792.25	230.87
792.57	231.18
792.89	231.07
793.21	231.09
793.54	231.03
793.86	230.98
794.18	230.98
794.50	230.82
794.82	230.77
795.14	230.73
795.47	230.77
795.79	230.77
796.11	230.61
796.43	230.53
796.75	230.57
797.07	230.51
797.39	230.51
797.71	230.07
798.04	230.08
798.36	230.08
798.68	230.06
799.00	229.99
799.32	229.73
799.64	229.84
799.96	229.81
800.28	229.89
800.60	229.85
800.92	229.86
801.24	229.85
801.56	229.94
801.89	229.91
802.21	229.91
802.53	229.69
802.85	229.86
803.17	230.04
803.49	229.85
803.81	229.82
804.13	229.83
804.45	229.89
804.77	229.88
805.09	229.87
805.41	229.79
805.73	229.66
806.05	229.54
806.37	229.42
806.69	229.34
807.01	229.16
807.33	229.20
807.65	229.09
807.97	229.28
808.28	229.20
808.60	229.17
808.92	229.02
809.24	229.33
809.56	229.25
809.88	229.04
810.20	229.08
810.52	229.16
810.84	229.07
811.16	228.99
811.48	228.96
811.80	229.10
812.12	229.12
812.43	229.28
812.75	229.30
813.07	229.29
813.39	229.28
813.71	229.25
814.03	229.13
814.35	229.12
814.67	228.88
814.98	228.81
815.30	228.79
815.62	228.75
815.94	228.47
816.26	228.67
816.58	228.59
816.89	228.60
817.21	228.46
817.53	228.49
817.85	228.46
818.17	228.40
818.48	228.27
818.80	228.32
819.12	228.22
819.44	228.14
819.76	228.13
820.07	228.16
820.39	228.23
820.71	228.29
821.03	228.28
821.34	228.20
821.66	228.23
821.98	228.33
822.30	228.28
822.61	228.59
822.93	228.33
823.25	228.28
823.57	228.20
823.88	228.29
824.20	228.26
824.52	228.33
824.83	228.34
825.15	228.23
825.47	228.17
825.79	228.22
826.10	228.22
826.42	228.13
826.74	228.06
827.05	227.95
827.37	227.97
827.69	227.93
828.00	227.96
828.32	227.99
828.64	227.87
828.95	228.14
829.27	227.98
829.58	227.97
829.90	228.10
830.22	228.21
830.53	228.09
830.85	228.01
831.17	227.91
831.48	227.90
831.80	227.91
832.11	227.86
832.43	227.77
832.75	227.75
833.06	228.09
833.38	228.07
833.69	228.09
834.01	228.06
834.32	228.03
834.64	228.05
834.96	228.07
835.27	228.10
835.59	227.96
835.90	227.95
836.22	227.94
836.53	227.86
836.85	227.80
837.16	228.25
837.48	228.28
837.79	228.41
838.11	228.47
838.42	228.50
838.74	228.58
839.05	228.60
839.37	228.59
839.68	228.26
840.00	228.18
840.31	228.32
840.63	228.23
840.94	228.29
841.26	228.17
841.57	228.14
841.88	228.18
842.20	228.06
842.51	228.01
842.83	227.93
843.14	228.37
843.46	228.37
843.77	228.14
844.08	228.09
844.40	227.98
844.71	227.97
845.03	227.90
845.34	227.85
845.65	227.81
845.97	227.86
846.28	227.97
846.60	228.01
846.91	227.88
847.22	227.94
847.54	227.98
847.85	228.08
848.16	228.06
848.48	227.94
848.79	228.19
849.10	228.21
849.42	228.30
849.73	227.85
850.04	227.83
850.36	227.66
850.67	227.70
850.98	227.71
851.30	227.70
851.61	227.70
851.92	227.77
852.23	227.88
852.55	227.84
852.86	227.80
853.17	227.81
853.49	227.91
853.80	228.01
854.11	228.05
854.42	228.05
854.74	228.04
855.05	228.04
855.36	227.75
855.67	227.72
855.99	227.72
856.30	228.27
856.61	228.25
856.92	228.24
857.23	228.26
857.55	228.27
857.86	228.28
858.17	228.37
858.48	228.26
858.79	228.16
859.11	228.26
859.42	228.20
859.73	228.18
860.04	228.13
860.35	228.00
860.66	227.86
860.98	227.91
861.29	227.95
861.60	227.96
861.91	228.11
862.22	228.00
862.53	227.93
862.84	227.31
863.16	227.40
863.47	227.30
863.78	227.28
864.09	227.26
864.40	227.25
864.71	227.19
865.02	227.26
865.33	227.24
865.64	227.12
865.95	227.17
866.27	227.40
866.58	227.35
866.89	227.36
867.20	227.37
867.51	227.28
867.82	227.18
868.13	227.33
868.44	227.26
868.75	227.40
869.06	227.46
869.37	227.62
869.68	227.49
869.99	227.55
870.30	227.59
870.61	227.64
870.92	227.59
871.23	227.64
871.54	227.71
871.85	227.78
872.16	227.85
872.47	227.78
872.78	227.58
873.09	227.66
873.40	227.71
873.71	227.75
874.02	227.75
874.33	227.80
874.64	227.70
874.95	227.75
875.26	227.65
875.56	227.61
875.87	227.52
876.18	227.47
876.49	228.02
876.80	227.96
877.11	227.90
877.42	227.96
877.73	227.92
878.04	227.77
878.35	227.76
878.66	227.72
878.96	227.75
879.27	227.75
879.58	227.75
879.89	227.70
880.20	227.81
880.51	227.79
880.82	227.80
881.12	227.77
881.43	227.66
881.74	227.67
882.05	227.66
882.36	227.73
882.67	227.80
882.97	227.25
883.28	227.17
883.59	227.11
883.90	227.10
884.21	227.20
884.51	227.19
884.82	227.13
885.13	227.21
885.44	227.24
885.74	227.17
886.05	227.08
886.36	227.10
886.67	226.95
886.98	227.23
887.28	227.26
887.59	227.26
887.90	227.25
888.20	227.20
888.51	227.25
888.82	227.15
889.13	227.15
889.43	227.53
889.74	227.58
890.05	227.56
890.35	227.46
890.66	227.25
890.97	227.23
891.28	227.18
891.58	227.10
891.89	227.08
892.20	227.05
892.50	226.99
892.81	226.89
893.12	226.91
893.42	226.62
893.73	226.59
894.04	226.61
894.34	226.66
894.65	226.64
894.95	226.60
895.26	226.58
895.57	226.83
895.87	226.34
896.18	226.38
896.48	226.38
896.79	226.43
897.10	226.54
897.40	226.54
897.71	226.62
898.01	226.59
898.32	226.54
898.63	226.52
898.93	226.51
899.24	226.57
899.54	226.44
899.85	226.43
900.15	226.41
900.46	226.40
900.76	226.41
901.07	226.37
901.38	226.33
901.68	226.36
901.99	226.06
902.29	226.19
902.60	226.18
902.90	226.20
903.21	226.18
903.51	226.15
903.82	226.33
904.12	226.28
904.43	226.34
904.73	226.38
905.03	226.44
905.34	226.95
905.64	226.94
905.95	227.01
906.25	227.02
906.56	226.98
906.86	226.96
907.17	226.91
907.47	226.97
907.77	226.97
908.08	226.93
908.38	226.99
908.69	227.01
908.99	227.12
909.30	227.11
909.60	227.18
909.90	227.29
910.21	227.10
910.51	227.12
910.81	227.11
911.12	227.22
911.42	227.21
911.73	226.71
912.03	226.74
912.33	226.82
912.64	226.84
912.94	226.87
913.24	226.83
913.55	226.88
913.85	226.86
914.15	226.97
914.46	227.05
914.76	227.03
915.06	227.00
915.37	226.85
915.67	226.86
915.97	226.84
916.27	226.70
916.58	226.71
916.88	226.60
917.18	226.61
917.49	226.88
917.79	226.87
918.09	226.91
918.39	227.06
918.70	227.10
919.00	227.11
919.30	227.30
919.60	227.33
919.91	227.21
920.21	227.27
920.51	227.21
920.81	227.17
921.12	227.26
921.42	227.28
921.72	227.36
922.02	227.42
922.32	227.47
922.63	227.53
922.93	227.77
923.23	227.87
923.53	227.78
923.83	227.36
924.13	227.40
924.44	227.43
924.74	227.50
925.04	227.53
925.34	227.50
925.64	227.35
925.94	227.31
926.24	227.63
926.55	227.57
926.85	227.62
927.15	227.57
927.45	227.49
927.75	227.49
928.05	227.52
928.35	227.45
928.65	227.50
928.95	227.49
929.26	227.26
929.56	227.31
929.86	227.38
930.16	227.42
930.46	227.32
930.76	227.31
931.06	226.96
931.36	226.86
931.66	226.96
931.96	227.01
932.26	226.99
932.56	226.77
932.86	226.78
933.16	226.72
933.46	226.73
933.76	226.65
934.06	226.74
934.36	226.81
934.66	226.85
934.96	226.76
935.26	226.78
935.56	226.88
935.86	226.77
936.16	226.74
936.46	226.71
936.76	226.80
937.06	226.78
937.36	226.92
937.66	226.92
937.96	226.79
938.26	226.68
938.56	226.67
938.86	226.68
939.16	226.80
939.46	226.87
939.76	226.90
940.06	226.92
940.35	226.77
940.65	226.58
940.95	226.56
941.25	226.47
941.55	226.44
941.85	226.43
942.15	226.58
942.45	226.66
942.75	226.65
943.04	226.66
943.34	226.78
943.64	226.63
943.94	226.57
944.24	226.69
944.54	226.76
944.84	226.74
945.13	226.66
945.43	226.52
945.73	226.46
946.03	226.40
946.33	226.36
946.62	226.32
946.92	226.23
947.22	226.26
947.52	226.30
947.82	226.38
948.11	226.30
948.41	226.15
948.71	226.08
949.01	226.05
949.31	225.98
949.60	225.90
949.90	226.04
950.20	226.04
950.50	225.98
950.79	225.90
951.09	226.05
951.39	226.05
951.69	226.10
951.98	226.17
952.28	226.27
952.58	226.27
952.87	226.33
953.17	226.51
953.47	226.47
953.76	226.52
954.06	226.41
954.36	226.35
954.66	226.32
954.95	226.42
955.25	226.44
955.55	226.47
955.84	226.43
956.14	226.48
956.44	226.48
956.73	226.43
957.03	226.45
957.32	226.41
957.62	226.45
957.92	226.53
958.21	226.48
958.51	226.96
958.81	227.06
959.10	227.16
959.40	227.24
959.69	227.30
959.99	227.24
960.29	227.25
960.58	227.27
960.88	227.56
961.17	227.45
961.47	227.50
961.76	227.49
962.06	227.54
962.36	227.48
962.65	227.55
962.95	227.54
963.24	227.53
963.54	227.52
963.83	227.50
964.13	227.45
964.42	227.39
964.72	226.95
965.01	226.86
965.31	226.71
965.60	226.58
965.90	226.82
966.19	226.79
966.49	226.80
966.78	226.80
967.08	226.68
967.37	226.76
967.67	226.65
967.96	226.80
968.26	226.74
968.55	226.76
968.85	226.75
969.14	226.72
969.43	226.68
969.73	226.67
970.02	226.67
970.32	226.65
970.61	226.57
970.91	226.44
971.20	226.39
971.49	226.38
971.79	226.43
972.08	226.12
972.38	226.15
972.67	226.15
972.96	226.25
973.26	226.10
973.55	226.22
973.85	226.20
974.14	226.12
974.43	226.18
974.73	226.14
975.02	226.09
975.31	226.16
975.61	226.21
975.90	226.10
976.19	226.00
976.49	225.99
976.78	226.03
977.07	226.06
977.37	226.20
977.66	226.24
977.95	226.17
978.24	226.21
978.54	226.31
978.83	226.27
979.12	226.20
979.42	226.24
979.71	226.14
980.00	226.16
980.29	226.07
980.59	225.90
980.88	226.01
981.17	225.98
981.46	225.95
981.76	225.94
982.05	226.10
982.34	226.21
982.63	226.20
982.93	226.20
983.22	226.39
983.51	226.39
983.80	226.51
984.09	226.56
984.39	226.53
984.68	226.47
984.97	226.49
985.26	226.41
985.55	226.48
985.85	226.38
986.14	226.50
986.43	226.65
986.72	226.75
987.01	226.60
987.30	226.63
987.59	226.54
987.89	226.58
988.18	226.50
988.47	226.48
988.76	226.46
989.05	226.55
989.34	226.36
989.63	226.50
989.92	226.38
990.22	226.27
990.51	226.22
990.80	226.18
991.09	226.27
991.38	226.35
991.67	226.32
991.96	226.28
992.25	226.31
992.54	226.21
992.83	226.18
993.12	226.20
993.41	226.23
993.70	226.45
993.99	226.55
994.28	226.59
994.58	226.69
994.87	226.68
995.16	226.61
995.45	226.62
995.74	226.40
996.03	226.48
996.32	226.66
996.61	226.86
996.90	226.83
997.19	226.77
997.48	226.76
997.77	226.71
998.06	226.76
998.34	226.67
998.63	226.72
998.92	226.73
999.21	226.78
999.50	226.84
999.79	226.72
1000.08	226.64
1000.37	226.66
1000.66	226.50
1000.95	226.57
1001.24	226.64
1001.53	226.76
1001.82	226.73
1002.11	226.59
1002.40	226.55
1002.68	226.54
1002.97	226.89
1003.26	226.84
1003.55	226.78
1003.84	226.79
1004.13	227.02
1004.42	227.02
1004.71	226.97
1004.99	227.03
1005.28	227.10
1005.57	226.92
1005.86	226.84
1006.15	226.80
1006.44	226.67
1006.72	226.84
1007.01	226.82
1007.30	226.79
1007.59	226.67
1007.88	226.66
1008.17	226.74
1008.45	226.69
1008.74	226.46
1009.03	226.24
1009.32	226.23
1009.60	226.23
1009.89	226.17
1010.18	225.91
1010.47	225.90
1010.76	225.85
1011.04	225.73
1011.33	225.76
1011.62	225.96
1011.91	225.99
1012.19	226.02
1012.48	226.04
1012.77	225.94
1013.05	226.04
1013.34	226.01
1013.63	226.00
1013.92	226.10
1014.20	226.10
1014.49	226.10
1014.78	226.15
1015.06	225.96
1015.35	225.95
1015.64	226.06
1015.92	226.16
1016.21	226.17
1016.50	226.17
1016.78	226.23
1017.07	226.33
1017.36	226.15
1017.64	226.02
1017.93	226.09
1018.22	226.04
1018.50	226.05
1018.79	226.03
1019.08	225.87
1019.36	225.89
1019.65	225.83
1019.93	225.99
1020.22	226.03
1020.51	226.25
1020.79	226.18
1021.08	225.00
1021.36	225.40
1021.65	226.05
1021.94	225.50
1022.22	226.15
1022.51	224.65
1022.79	229.30
1023.08	227.50
1023.36	231.70
1023.65	223.85
>>>>>End Processed Spectral Data<<<<<
