SpectraSuite Data File
++++++++++++++++++++++++++++++++++++
Date: Wed Sep 04 17:48:52 EDT 2013
User: lab3
Dark Spectrum Present: Yes
Reference Spectrum Present: No
Number of Sampled Component Spectra: 1
Spectrometers: USB2E7196
Integration Time (usec): 170000 (USB2E7196)
Spectra Averaged: 20 (USB2E7196)
Boxcar Smoothing: 10 (USB2E7196)
Correct for Electrical Dark: No (USB2E7196)
Strobe/Lamp Enabled: No (USB2E7196)
Correct for Detector Non-linearity: No (USB2E7196)
Correct for Stray Light: No (USB2E7196)
Number of Pixels in Processed Spectrum: 2048
>>>>>Begin Processed Spectral Data<<<<<
339.09	0.00
339.48	213.10
339.86	213.50
340.24	215.40
340.63	216.60
341.01	226.85
341.39	219.10
341.78	221.20
342.16	223.85
342.54	222.15
342.93	212.02
343.31	222.68
343.69	223.26
344.07	223.82
344.46	224.31
344.84	224.79
345.22	224.71
345.60	225.03
345.99	225.19
346.37	225.29
346.75	225.47
347.13	225.55
347.52	225.62
347.90	225.87
348.28	225.83
348.66	225.92
349.05	225.77
349.43	225.98
349.81	226.10
350.19	226.19
350.57	226.28
350.96	226.29
351.34	226.37
351.72	226.43
352.10	226.44
352.48	226.48
352.87	226.46
353.25	226.48
353.63	226.58
354.01	226.70
354.39	226.76
354.77	226.79
355.15	226.99
355.54	226.92
355.92	226.80
356.30	226.93
356.68	227.29
357.06	227.40
357.44	227.35
357.82	227.32
358.20	227.76
358.58	227.73
358.97	227.90
359.35	228.11
359.73	228.21
360.11	228.31
360.49	228.37
360.87	228.42
361.25	228.60
361.63	228.71
362.01	228.79
362.39	228.80
362.77	228.91
363.15	228.85
363.53	228.88
363.91	228.92
364.29	228.88
364.67	228.51
365.05	228.58
365.43	228.69
365.81	228.79
366.19	228.61
366.57	228.87
366.95	228.74
367.33	228.61
367.71	228.68
368.09	228.69
368.47	228.71
368.85	228.70
369.23	228.80
369.61	228.70
369.99	228.82
370.37	228.85
370.75	229.04
371.13	229.04
371.51	229.02
371.89	229.07
372.27	229.12
372.65	229.08
373.03	229.01
373.41	228.93
373.78	228.80
374.16	228.53
374.54	228.31
374.92	228.33
375.30	228.27
375.68	228.07
376.06	228.07
376.44	227.97
376.82	227.96
377.19	227.81
377.57	227.72
377.95	227.52
378.33	227.39
378.71	227.09
379.09	227.10
379.47	227.11
379.84	226.98
380.22	226.89
380.60	226.79
380.98	226.75
381.36	226.64
381.73	226.61
382.11	226.65
382.49	226.62
382.87	226.51
383.25	226.48
383.62	227.00
384.00	226.83
384.38	226.80
384.76	226.82
385.13	226.99
385.51	226.92
385.89	226.85
386.27	226.89
386.64	226.82
387.02	226.65
387.40	226.55
387.78	226.53
388.15	226.46
388.53	226.39
388.91	226.32
389.29	226.26
389.66	226.29
390.04	226.21
390.42	226.25
390.79	226.26
391.17	226.28
391.55	225.79
391.92	225.80
392.30	225.85
392.68	225.75
393.05	225.65
393.43	225.74
393.81	225.72
394.18	225.65
394.56	225.68
394.94	225.82
395.31	225.83
395.69	226.05
396.06	226.13
396.44	226.25
396.82	226.20
397.19	226.55
397.57	226.52
397.95	226.75
398.32	226.72
398.70	226.84
399.07	226.93
399.45	226.96
399.82	227.09
400.20	227.09
400.58	227.21
400.95	227.10
401.33	227.29
401.70	227.70
402.08	227.84
402.45	228.02
402.83	228.28
403.20	228.41
403.58	228.46
403.95	228.76
404.33	228.97
404.71	229.30
405.08	229.79
405.46	229.92
405.83	230.04
406.21	230.24
406.58	230.50
406.96	230.77
407.33	231.13
407.70	231.57
408.08	232.36
408.45	232.80
408.83	233.34
409.20	233.63
409.58	233.77
409.95	234.41
410.33	234.94
410.70	235.32
411.08	235.93
411.45	236.55
411.82	237.09
412.20	237.86
412.57	238.80
412.95	239.11
413.32	240.00
413.69	240.86
414.07	241.78
414.44	242.74
414.82	243.81
415.19	245.04
415.56	246.12
415.94	247.09
416.31	248.45
416.68	249.83
417.06	251.49
417.43	253.19
417.81	254.84
418.18	256.58
418.55	258.47
418.93	260.49
419.30	262.57
419.67	264.78
420.04	266.94
420.42	269.25
420.79	272.25
421.16	275.11
421.54	278.10
421.91	281.07
422.28	284.15
422.66	287.29
423.03	290.72
423.40	294.05
423.77	297.62
424.15	301.23
424.52	304.94
424.89	309.02
425.26	313.01
425.64	316.79
426.01	320.97
426.38	325.38
426.75	329.98
427.13	334.60
427.50	339.28
427.87	344.15
428.24	348.91
428.61	353.37
428.99	358.58
429.36	364.05
429.73	369.49
430.10	374.95
430.47	380.63
430.85	386.14
431.22	392.34
431.59	398.98
431.96	405.20
432.33	412.11
432.70	418.74
433.08	426.36
433.45	433.64
433.82	440.89
434.19	448.92
434.56	456.83
434.93	464.33
435.30	471.98
435.68	480.44
436.05	488.79
436.42	496.97
436.79	504.64
437.16	512.93
437.53	521.57
437.90	530.21
438.27	538.71
438.64	547.48
439.01	555.54
439.38	562.48
439.75	569.41
440.13	577.24
440.50	584.61
440.87	590.69
441.24	597.11
441.61	604.00
441.98	609.00
442.35	614.67
442.72	620.69
443.09	626.43
443.46	629.86
443.83	632.33
444.20	634.22
444.57	636.91
444.94	637.86
445.31	639.05
445.68	640.43
446.05	640.65
446.42	639.36
446.79	638.07
447.16	636.71
447.53	635.56
447.90	632.02
448.27	628.48
448.64	623.70
449.01	620.02
449.37	614.14
449.74	608.12
450.11	601.35
450.48	593.51
450.85	585.72
451.22	578.98
451.59	572.36
451.96	566.15
452.33	558.01
452.70	550.70
453.07	542.18
453.43	532.98
453.80	524.55
454.17	516.59
454.54	508.88
454.91	500.68
455.28	492.74
455.65	485.21
456.02	478.36
456.38	472.06
456.75	464.39
457.12	457.77
457.49	451.62
457.86	445.38
458.23	440.44
458.59	434.74
458.96	428.91
459.33	423.79
459.70	418.80
460.07	414.76
460.43	410.17
460.80	405.87
461.17	402.33
461.54	398.43
461.91	394.69
462.27	390.90
462.64	387.67
463.01	384.18
463.38	381.10
463.74	377.14
464.11	374.20
464.48	371.55
464.85	368.77
465.21	366.69
465.58	364.40
465.95	361.53
466.32	359.34
466.68	357.19
467.05	355.04
467.42	352.95
467.78	350.72
468.15	348.58
468.52	347.05
468.88	344.80
469.25	342.95
469.62	341.55
469.98	340.03
470.35	338.54
470.72	337.07
471.08	335.38
471.45	334.18
471.82	332.92
472.18	331.50
472.55	330.52
472.92	329.18
473.28	328.18
473.65	327.09
474.02	325.97
474.38	325.20
474.75	324.45
475.11	323.54
475.48	322.88
475.85	322.36
476.21	321.66
476.58	321.16
476.94	320.74
477.31	320.23
477.67	319.70
478.04	319.35
478.41	319.22
478.77	319.50
479.14	319.20
479.50	319.10
479.87	319.13
480.23	319.17
480.60	319.12
480.96	319.16
481.33	319.60
481.69	319.86
482.06	320.05
482.42	320.28
482.79	320.74
483.15	321.20
483.52	321.76
483.88	322.20
484.25	322.83
484.61	323.53
484.98	324.15
485.34	325.11
485.71	326.03
486.07	326.91
486.44	327.44
486.80	328.47
487.17	329.45
487.53	330.81
487.90	332.15
488.26	333.84
488.62	335.45
488.99	336.93
489.35	338.64
489.72	340.45
490.08	342.50
490.44	344.37
490.81	346.51
491.17	348.60
491.54	351.10
491.90	353.58
492.26	356.15
492.63	359.03
492.99	361.89
493.36	364.99
493.72	368.30
494.08	371.74
494.45	375.44
494.81	379.42
495.17	383.20
495.54	387.33
495.90	391.43
496.26	395.81
496.63	400.45
496.99	405.18
497.35	410.29
497.72	415.47
498.08	420.95
498.44	426.71
498.80	432.85
499.17	438.77
499.53	445.08
499.89	451.57
500.26	458.25
500.62	465.37
500.98	472.81
501.34	480.31
501.71	487.92
502.07	495.67
502.43	503.68
502.79	512.12
503.16	520.70
503.52	529.75
503.88	538.98
504.24	548.63
504.60	558.79
504.97	568.94
505.33	579.28
505.69	590.40
506.05	601.25
506.41	612.31
506.78	623.91
507.14	635.82
507.50	648.25
507.86	660.82
508.22	673.65
508.59	686.45
508.95	700.05
509.31	714.14
509.67	728.37
510.03	742.51
510.39	757.14
510.75	772.15
511.12	787.28
511.48	802.70
511.84	818.18
512.20	833.85
512.56	850.02
512.92	866.64
513.28	883.36
513.64	900.62
514.00	917.93
514.37	935.68
514.73	953.54
515.09	971.73
515.45	990.28
515.81	1008.67
516.17	1027.40
516.53	1045.95
516.89	1064.47
517.25	1083.57
517.61	1103.87
517.97	1123.96
518.33	1143.85
518.69	1163.82
519.05	1184.38
519.41	1205.06
519.77	1226.00
520.13	1246.47
520.49	1266.88
520.85	1289.13
521.21	1310.08
521.57	1331.45
521.93	1352.11
522.29	1373.40
522.65	1393.76
523.01	1414.26
523.37	1434.56
523.73	1455.56
524.09	1475.77
524.45	1496.25
524.81	1517.08
525.17	1537.64
525.53	1557.91
525.89	1578.47
526.25	1599.08
526.61	1619.03
526.97	1639.79
527.33	1660.71
527.68	1682.53
528.04	1703.98
528.40	1723.22
528.76	1743.58
529.12	1763.58
529.48	1784.15
529.84	1803.82
530.20	1824.79
530.56	1845.44
530.91	1866.27
531.27	1886.12
531.63	1906.15
531.99	1926.63
532.35	1946.10
532.71	1965.83
533.07	1986.61
533.42	2006.36
533.78	2026.10
534.14	2045.36
534.50	2064.33
534.86	2083.14
535.21	2099.98
535.57	2118.11
535.93	2135.32
536.29	2152.92
536.65	2170.99
537.00	2188.34
537.36	2205.61
537.72	2221.45
538.08	2238.18
538.44	2254.63
538.79	2270.74
539.15	2287.31
539.51	2302.72
539.87	2317.98
540.22	2331.53
540.58	2345.43
540.94	2358.16
541.29	2370.71
541.65	2383.50
542.01	2395.60
542.37	2405.85
542.72	2416.83
543.08	2426.69
543.44	2438.07
543.79	2447.89
544.15	2457.52
544.51	2467.35
544.87	2476.44
545.22	2485.09
545.58	2492.64
545.94	2499.29
546.29	2505.77
546.65	2511.81
547.01	2517.70
547.36	2522.78
547.72	2528.32
548.07	2531.60
548.43	2536.88
548.79	2541.07
549.14	2544.80
549.50	2548.38
549.86	2552.27
550.21	2555.91
550.57	2559.42
550.92	2560.59
551.28	2562.04
551.64	2564.07
551.99	2565.49
552.35	2567.07
552.70	2569.32
553.06	2570.65
553.41	2571.67
553.77	2573.12
554.13	2574.18
554.48	2575.26
554.84	2576.50
555.19	2577.27
555.55	2579.00
555.90	2578.10
556.26	2577.28
556.61	2575.78
556.97	2573.43
557.32	2572.72
557.68	2571.09
558.03	2569.60
558.39	2568.50
558.74	2567.44
559.10	2563.92
559.45	2560.30
559.81	2555.80
560.16	2550.10
560.52	2544.80
560.87	2540.72
561.23	2535.19
561.58	2529.41
561.94	2522.67
562.29	2515.37
562.64	2508.65
563.00	2500.27
563.35	2493.58
563.71	2486.89
564.06	2480.33
564.42	2474.00
564.77	2467.10
565.12	2459.72
565.48	2451.86
565.83	2443.69
566.19	2435.22
566.54	2427.54
566.89	2419.58
567.25	2411.90
567.60	2405.09
567.96	2397.69
568.31	2389.32
568.66	2380.65
569.02	2371.72
569.37	2363.42
569.72	2356.17
570.08	2346.68
570.43	2337.29
570.78	2328.42
571.14	2318.91
571.49	2308.76
571.84	2299.07
572.20	2288.30
572.55	2278.24
572.90	2267.37
573.26	2256.95
573.61	2246.38
573.96	2235.10
574.31	2223.03
574.67	2211.32
575.02	2198.48
575.37	2186.24
575.72	2173.46
576.08	2161.37
576.43	2149.03
576.78	2135.72
577.13	2121.81
577.49	2109.12
577.84	2097.24
578.19	2085.34
578.54	2072.81
578.90	2061.21
579.25	2048.99
579.60	2036.42
579.95	2023.64
580.30	2010.72
580.66	1997.63
581.01	1984.07
581.36	1970.23
581.71	1957.84
582.06	1945.07
582.42	1932.88
582.77	1920.22
583.12	1908.11
583.47	1896.35
583.82	1884.59
584.17	1872.96
584.53	1861.37
584.88	1848.91
585.23	1836.15
585.58	1822.01
585.93	1808.99
586.28	1795.93
586.63	1781.91
586.98	1768.04
587.34	1754.97
587.69	1741.88
588.04	1729.67
588.39	1717.95
588.74	1706.13
589.09	1694.13
589.44	1681.53
589.79	1669.40
590.14	1657.71
590.49	1645.96
590.84	1633.71
591.19	1621.93
591.54	1609.74
591.89	1597.59
592.25	1587.35
592.60	1576.00
592.95	1564.64
593.30	1552.97
593.65	1541.04
594.00	1529.47
594.35	1519.70
594.70	1508.03
595.05	1496.72
595.40	1484.58
595.75	1472.66
596.10	1461.62
596.45	1450.30
596.80	1439.83
597.15	1428.84
597.50	1417.28
597.85	1405.91
598.19	1394.38
598.54	1382.77
598.89	1371.81
599.24	1361.43
599.59	1350.05
599.94	1339.42
600.29	1329.54
600.64	1319.58
600.99	1309.06
601.34	1299.54
601.69	1288.61
602.04	1279.12
602.39	1269.74
602.74	1260.77
603.08	1251.50
603.43	1242.35
603.78	1233.02
604.13	1223.41
604.48	1213.75
604.83	1204.19
605.18	1194.54
605.53	1185.44
605.87	1176.47
606.22	1168.11
606.57	1158.91
606.92	1149.48
607.27	1140.78
607.62	1131.91
607.96	1123.39
608.31	1115.68
608.66	1107.55
609.01	1099.13
609.36	1090.75
609.70	1082.31
610.05	1073.68
610.40	1065.50
610.75	1057.00
611.10	1048.60
611.44	1040.02
611.79	1032.07
612.14	1024.20
612.49	1016.66
612.83	1009.46
613.18	1001.86
613.53	994.20
613.88	986.48
614.22	979.19
614.57	971.35
614.92	963.76
615.27	956.35
615.61	948.75
615.96	941.06
616.31	933.85
616.65	926.78
617.00	919.65
617.35	912.76
617.70	905.78
618.04	898.69
618.39	891.96
618.74	885.91
619.08	879.08
619.43	872.37
619.78	865.55
620.12	858.49
620.47	851.68
620.82	844.57
621.16	837.97
621.51	831.75
621.85	825.56
622.20	818.98
622.55	812.38
622.89	805.95
623.24	799.82
623.59	793.58
623.93	787.45
624.28	781.42
624.62	775.77
624.97	770.02
625.32	764.45
625.66	758.60
626.01	752.53
626.35	747.00
626.70	741.48
627.04	736.08
627.39	730.65
627.73	725.59
628.08	720.61
628.43	715.22
628.77	709.84
629.12	704.56
629.46	699.84
629.81	695.28
630.15	690.65
630.50	685.82
630.84	680.95
631.19	676.25
631.53	671.71
631.88	666.53
632.22	661.74
632.57	657.34
632.91	652.79
633.26	648.49
633.60	643.94
633.95	639.38
634.29	634.70
634.64	630.25
634.98	625.40
635.32	621.14
635.67	617.13
636.01	612.93
636.36	608.74
636.70	604.81
637.05	600.59
637.39	596.51
637.73	592.63
638.08	588.73
638.42	584.52
638.77	580.30
639.11	576.20
639.45	572.03
639.80	567.63
640.14	563.64
640.49	559.77
640.83	556.15
641.17	552.53
641.52	548.94
641.86	545.48
642.20	542.57
642.55	538.98
642.89	535.62
643.23	532.14
643.58	528.99
643.92	525.35
644.26	522.13
644.61	518.88
644.95	515.61
645.29	512.31
645.64	509.40
645.98	506.35
646.32	503.60
646.66	500.56
647.01	497.75
647.35	495.07
647.69	492.14
648.04	489.37
648.38	486.63
648.72	483.91
649.06	480.80
649.41	477.62
649.75	474.65
650.09	471.90
650.43	469.09
650.78	466.19
651.12	463.46
651.46	460.63
651.80	458.02
652.14	455.40
652.49	453.02
652.83	450.40
653.17	447.90
653.51	445.18
653.85	442.79
654.20	440.31
654.54	437.77
654.88	435.32
655.22	433.01
655.56	430.70
655.90	428.28
656.25	426.20
656.59	424.11
656.93	421.97
657.27	419.82
657.61	417.44
657.95	415.34
658.29	413.18
658.64	411.09
658.98	408.89
659.32	406.65
659.66	404.39
660.00	402.38
660.34	400.41
660.68	398.48
661.02	396.51
661.36	394.58
661.70	392.62
662.05	390.75
662.39	388.75
662.73	386.98
663.07	385.43
663.41	383.55
663.75	381.68
664.09	379.92
664.43	378.06
664.77	376.48
665.11	374.77
665.45	373.10
665.79	371.58
666.13	369.89
666.47	368.28
666.81	366.75
667.15	364.98
667.49	363.46
667.83	362.00
668.17	360.57
668.51	359.12
668.85	357.77
669.19	356.54
669.53	355.10
669.87	353.55
670.21	352.10
670.55	350.74
670.89	349.50
671.23	348.20
671.57	346.77
671.91	345.45
672.25	344.10
672.58	342.98
672.92	341.48
673.26	340.19
673.60	338.97
673.94	337.69
674.28	336.50
674.62	335.31
674.96	334.14
675.30	332.95
675.64	331.80
675.97	330.56
676.31	329.14
676.65	327.90
676.99	326.95
677.33	325.70
677.67	324.71
678.01	323.43
678.34	322.35
678.68	321.46
679.02	320.43
679.36	319.48
679.70	318.45
680.04	317.63
680.37	316.75
680.71	315.77
681.05	314.89
681.39	314.07
681.73	313.14
682.06	312.24
682.40	311.37
682.74	310.61
683.08	309.93
683.42	309.05
683.75	308.29
684.09	307.32
684.43	306.58
684.77	305.71
685.10	304.98
685.44	304.17
685.78	303.27
686.12	302.51
686.45	301.74
686.79	300.88
687.13	300.16
687.46	299.35
687.80	298.77
688.14	297.94
688.48	297.20
688.81	296.53
689.15	295.83
689.49	295.09
689.82	294.30
690.16	293.37
690.50	292.80
690.83	292.17
691.17	291.40
691.51	290.70
691.84	290.13
692.18	289.34
692.52	288.70
692.85	288.10
693.19	287.71
693.52	287.03
693.86	286.34
694.20	285.69
694.53	285.11
694.87	284.30
695.21	283.72
695.54	283.04
695.88	282.22
696.21	281.46
696.55	280.85
696.88	280.25
697.22	279.70
697.56	279.18
697.89	278.51
698.23	277.96
698.56	277.42
698.90	276.85
699.23	276.40
699.57	275.85
699.90	275.30
700.24	274.60
700.58	274.13
700.91	273.72
701.25	273.59
701.58	273.46
701.92	273.13
702.25	272.70
702.59	272.29
702.92	272.01
703.26	271.70
703.59	271.27
703.93	271.20
704.26	270.81
704.60	270.34
704.93	269.94
705.26	269.49
705.60	269.09
705.93	268.60
706.27	268.27
706.60	268.06
706.94	267.85
707.27	267.41
707.61	267.15
707.94	266.82
708.27	266.02
708.61	265.20
708.94	264.80
709.28	264.36
709.61	264.00
709.94	263.64
710.28	263.20
710.61	262.87
710.95	262.13
711.28	262.08
711.61	261.77
711.95	261.50
712.28	261.17
712.61	260.83
712.95	260.75
713.28	260.65
713.61	260.20
713.95	259.74
714.28	259.44
714.61	258.98
714.95	258.62
715.28	258.30
715.61	258.06
715.95	257.77
716.28	257.43
716.61	257.14
716.95	256.75
717.28	256.46
717.61	256.12
717.94	255.74
718.28	255.15
718.61	254.79
718.94	254.50
719.27	254.27
719.61	254.08
719.94	253.63
720.27	253.15
720.60	252.76
720.94	252.52
721.27	252.38
721.60	252.31
721.93	252.01
722.27	251.95
722.60	251.76
722.93	251.44
723.26	251.30
723.59	251.07
723.93	250.94
724.26	250.73
724.59	250.47
724.92	250.31
725.25	250.24
725.59	250.09
725.92	249.84
726.25	249.61
726.58	249.41
726.91	249.21
727.24	249.03
727.57	248.88
727.91	248.61
728.24	248.38
728.57	248.04
728.90	247.88
729.23	247.54
729.56	247.60
729.89	247.44
730.22	247.23
730.55	247.06
730.89	246.84
731.22	246.72
731.55	246.65
731.88	246.54
732.21	246.20
732.54	245.91
732.87	245.88
733.20	245.76
733.53	245.56
733.86	245.40
734.19	245.13
734.52	245.15
734.85	245.36
735.18	245.13
735.51	245.18
735.84	245.09
736.17	245.11
736.50	244.64
736.83	245.05
737.16	244.84
737.49	244.66
737.82	244.55
738.15	244.44
738.48	244.23
738.81	244.14
739.14	244.02
739.47	243.88
739.80	243.69
740.13	243.63
740.46	243.41
740.79	243.25
741.12	243.16
741.45	242.88
741.78	242.48
742.11	242.50
742.44	242.23
742.77	242.11
743.10	241.80
743.43	241.66
743.75	241.03
744.08	241.63
744.41	241.48
744.74	241.29
745.07	241.07
745.40	241.09
745.73	241.06
746.06	240.92
746.39	240.88
746.71	240.64
747.04	240.40
747.37	240.23
747.70	240.15
748.03	240.05
748.36	239.98
748.68	239.91
749.01	239.67
749.34	239.56
749.67	239.46
750.00	239.46
750.33	239.77
750.65	239.69
750.98	238.94
751.31	238.84
751.64	238.70
751.97	238.80
752.29	238.55
752.62	238.26
752.95	238.12
753.28	237.88
753.60	237.80
753.93	237.83
754.26	237.84
754.59	237.56
754.91	237.36
755.24	237.18
755.57	237.02
755.90	236.90
756.22	236.77
756.55	236.60
756.88	236.44
757.20	236.02
757.53	235.78
757.86	235.65
758.19	235.66
758.51	235.63
758.84	235.31
759.17	235.22
759.49	235.18
759.82	235.36
760.15	235.34
760.47	235.22
760.80	234.94
761.13	234.96
761.45	234.93
761.78	234.90
762.11	234.89
762.43	234.78
762.76	234.63
763.08	234.53
763.41	234.54
763.74	234.41
764.06	234.25
764.39	234.20
764.71	234.10
765.04	233.85
765.37	233.73
765.69	233.69
766.02	233.63
766.34	233.49
766.67	233.18
767.00	233.20
767.32	233.39
767.65	233.70
767.97	233.55
768.30	233.52
768.62	233.44
768.95	233.31
769.27	233.16
769.60	233.23
769.92	233.11
770.25	232.87
770.57	232.79
770.90	232.78
771.22	232.72
771.55	232.74
771.87	232.80
772.20	232.70
772.52	233.06
772.85	233.56
773.17	233.54
773.50	233.47
773.82	233.37
774.15	233.10
774.47	232.72
774.80	232.61
775.12	232.57
775.45	232.55
775.77	232.52
776.09	232.57
776.42	232.52
776.74	232.65
777.07	232.62
777.39	232.61
777.72	232.50
778.04	232.45
778.36	232.33
778.69	232.26
779.01	232.29
779.33	231.84
779.66	231.26
779.98	231.20
780.31	231.20
780.63	231.26
780.95	231.33
781.28	231.27
781.60	231.12
781.92	231.09
782.25	231.00
782.57	230.97
782.89	230.87
783.22	230.81
783.54	230.71
783.86	230.74
784.19	230.72
784.51	230.77
784.83	230.72
785.16	230.68
785.48	230.60
785.80	230.62
786.12	230.56
786.45	230.51
786.77	230.46
787.09	230.43
787.42	230.35
787.74	230.34
788.06	230.32
788.38	230.37
788.71	230.25
789.03	230.23
789.35	230.21
789.67	230.14
789.99	230.05
790.32	229.87
790.64	229.80
790.96	230.13
791.28	229.96
791.61	229.94
791.93	229.95
792.25	229.93
792.57	230.10
792.89	230.00
793.21	229.99
793.54	229.92
793.86	229.78
794.18	229.67
794.50	229.53
794.82	229.60
795.14	229.62
795.47	229.71
795.79	229.73
796.11	229.57
796.43	229.50
796.75	229.52
797.07	229.58
797.39	229.61
797.71	229.21
798.04	229.29
798.36	229.22
798.68	229.18
799.00	229.12
799.32	228.94
799.64	229.03
799.96	228.97
800.28	229.05
800.60	229.03
800.92	229.11
801.24	229.11
801.56	229.03
801.89	228.97
802.21	228.95
802.53	228.82
802.85	229.00
803.17	229.26
803.49	229.14
803.81	229.06
804.13	228.98
804.45	228.91
804.77	228.98
805.09	229.01
805.41	228.95
805.73	228.92
806.05	228.77
806.37	228.72
806.69	228.73
807.01	228.70
807.33	228.73
807.65	228.50
807.97	228.63
808.28	228.53
808.60	228.48
808.92	228.47
809.24	228.80
809.56	228.66
809.88	228.47
810.20	228.54
810.52	228.63
810.84	228.59
811.16	228.51
811.48	228.44
811.80	228.61
812.12	228.54
812.43	228.63
812.75	228.66
813.07	228.63
813.39	228.62
813.71	228.50
814.03	228.52
814.35	228.54
814.67	228.45
814.98	228.48
815.30	228.47
815.62	228.37
815.94	228.06
816.26	228.34
816.58	228.23
816.89	228.28
817.21	228.19
817.53	228.19
817.85	228.24
818.17	228.17
818.48	227.91
818.80	228.10
819.12	228.02
819.44	227.87
819.76	227.85
820.07	227.80
820.39	227.88
820.71	227.86
821.03	227.90
821.34	227.81
821.66	227.79
821.98	227.88
822.30	227.80
822.61	228.06
822.93	227.78
823.25	227.71
823.57	227.61
823.88	227.71
824.20	227.72
824.52	227.77
824.83	227.79
825.15	227.77
825.47	227.64
825.79	227.69
826.10	227.74
826.42	227.64
826.74	227.74
827.05	227.64
827.37	227.62
827.69	227.55
828.00	227.50
828.32	227.57
828.64	227.51
828.95	227.76
829.27	227.51
829.58	227.47
829.90	227.54
830.22	227.56
830.53	227.39
830.85	227.31
831.17	227.20
831.48	227.20
831.80	227.28
832.11	227.29
832.43	227.25
832.75	227.17
833.06	227.47
833.38	227.19
833.69	227.22
834.01	227.23
834.32	227.21
834.64	227.18
834.96	227.11
835.27	227.01
835.59	226.88
835.90	226.87
836.22	226.82
836.53	226.84
836.85	226.83
837.16	227.29
837.48	227.33
837.79	227.44
838.11	227.36
838.42	227.33
838.74	227.36
839.05	227.28
839.37	227.30
839.68	227.01
840.00	227.07
840.31	227.13
840.63	227.11
840.94	227.11
841.26	227.06
841.57	227.09
841.88	227.17
842.20	227.10
842.51	227.09
842.83	227.11
843.14	227.42
843.46	227.40
843.77	227.08
844.08	227.05
844.40	226.95
844.71	226.93
845.03	226.89
845.34	226.87
845.65	226.84
845.97	226.81
846.28	226.86
846.60	226.91
846.91	226.83
847.22	226.81
847.54	226.90
847.85	226.95
848.16	226.81
848.48	226.73
848.79	226.86
849.10	226.85
849.42	226.90
849.73	226.49
850.04	226.49
850.36	226.38
850.67	226.46
850.98	226.45
851.30	226.49
851.61	226.43
851.92	226.45
852.23	226.57
852.55	226.62
852.86	226.53
853.17	226.51
853.49	226.64
853.80	226.76
854.11	226.81
854.42	226.89
854.74	226.92
855.05	226.96
855.36	226.75
855.67	226.76
855.99	226.79
856.30	227.36
856.61	227.32
856.92	227.36
857.23	227.27
857.55	227.25
857.86	227.21
858.17	227.35
858.48	227.22
858.79	227.17
859.11	227.24
859.42	227.28
859.73	227.25
860.04	227.21
860.35	227.02
860.66	226.84
860.98	226.86
861.29	226.97
861.60	226.88
861.91	227.02
862.22	227.00
862.53	226.88
862.84	226.30
863.16	226.46
863.47	226.39
863.78	226.41
864.09	226.37
864.40	226.41
864.71	226.40
865.02	226.49
865.33	226.48
865.64	226.43
865.95	226.39
866.27	226.72
866.58	226.60
866.89	226.73
867.20	226.78
867.51	226.65
867.82	226.53
868.13	226.74
868.44	226.67
868.75	226.78
869.06	226.86
869.37	227.00
869.68	226.83
869.99	226.91
870.30	226.98
870.61	227.08
870.92	226.98
871.23	226.91
871.54	227.02
871.85	227.12
872.16	227.14
872.47	227.10
872.78	226.81
873.09	226.93
873.40	226.84
873.71	226.90
874.02	226.96
874.33	226.92
874.64	226.75
874.95	226.80
875.26	226.66
875.56	226.63
875.87	226.58
876.18	226.50
876.49	226.91
876.80	226.88
877.11	226.83
877.42	226.87
877.73	226.95
878.04	226.80
878.35	226.76
878.66	226.78
878.96	226.80
879.27	226.79
879.58	226.73
879.89	226.70
880.20	226.77
880.51	226.77
880.82	226.85
881.12	226.90
881.43	226.79
881.74	226.79
882.05	226.77
882.36	226.81
882.67	226.88
882.97	226.44
883.28	226.36
883.59	226.37
883.90	226.45
884.21	226.49
884.51	226.49
884.82	226.39
885.13	226.37
885.44	226.42
885.74	226.41
886.05	226.40
886.36	226.35
886.67	226.09
886.98	226.22
887.28	226.25
887.59	226.20
887.90	226.24
888.20	226.18
888.51	226.27
888.82	226.15
889.13	226.17
889.43	226.48
889.74	226.47
890.05	226.38
890.35	226.34
890.66	226.17
890.97	226.16
891.28	226.21
891.58	226.22
891.89	226.18
892.20	226.15
892.50	226.08
892.81	226.12
893.12	226.21
893.42	226.03
893.73	226.03
894.04	226.07
894.34	226.04
894.65	226.10
894.95	226.09
895.26	226.11
895.57	226.34
895.87	225.89
896.18	225.92
896.48	225.95
896.79	225.89
897.10	225.95
897.40	225.96
897.71	225.94
898.01	225.86
898.32	225.89
898.63	225.83
898.93	225.92
899.24	225.87
899.54	225.81
899.85	225.82
900.15	225.75
900.46	225.72
900.76	225.82
901.07	225.74
901.38	225.68
901.68	225.70
901.99	225.52
902.29	225.61
902.60	225.57
902.90	225.55
903.21	225.59
903.51	225.59
903.82	225.69
904.12	225.72
904.43	225.84
904.73	225.82
905.03	225.89
905.34	226.29
905.64	226.26
905.95	226.30
906.25	226.32
906.56	226.30
906.86	226.35
907.17	226.31
907.47	226.35
907.77	226.29
908.08	226.20
908.38	226.17
908.69	226.14
908.99	226.24
909.30	226.29
909.60	226.27
909.90	226.28
910.21	226.18
910.51	226.05
910.81	226.00
911.12	226.03
911.42	225.97
911.73	225.50
912.03	225.60
912.33	225.70
912.64	225.67
912.94	225.65
913.24	225.55
913.55	225.50
913.85	225.50
914.15	225.61
914.46	225.62
914.76	225.56
915.06	225.56
915.37	225.49
915.67	225.44
915.97	225.44
916.27	225.31
916.58	225.35
916.88	225.37
917.18	225.34
917.49	225.64
917.79	225.67
918.09	225.74
918.39	225.84
918.70	225.77
919.00	225.73
919.30	225.87
919.60	225.90
919.91	225.86
920.21	225.88
920.51	225.80
920.81	225.89
921.12	226.00
921.42	225.95
921.72	226.03
922.02	226.05
922.32	226.11
922.63	226.11
922.93	226.28
923.23	226.34
923.53	226.30
923.83	225.95
924.13	226.02
924.44	226.06
924.74	226.13
925.04	226.22
925.34	226.28
925.64	226.11
925.94	226.05
926.24	226.31
926.55	226.30
926.85	226.40
927.15	226.40
927.45	226.43
927.75	226.43
928.05	226.42
928.35	226.41
928.65	226.55
928.95	226.67
929.26	226.50
929.56	226.55
929.86	226.54
930.16	226.59
930.46	226.53
930.76	226.47
931.06	226.24
931.36	226.10
931.66	226.17
931.96	226.25
932.26	226.34
932.56	226.19
932.86	226.22
933.16	226.18
933.46	226.11
933.76	226.00
934.06	226.18
934.36	226.35
934.66	226.31
934.96	226.21
935.26	226.20
935.56	226.30
935.86	226.28
936.16	226.26
936.46	226.25
936.76	226.25
937.06	226.27
937.36	226.30
937.66	226.40
937.96	226.34
938.26	226.31
938.56	226.30
938.86	226.30
939.16	226.45
939.46	226.45
939.76	226.52
940.06	226.63
940.35	226.55
940.65	226.29
940.95	226.34
941.25	226.24
941.55	226.21
941.85	226.22
942.15	226.25
942.45	226.37
942.75	226.29
943.04	226.29
943.34	226.32
943.64	226.32
943.94	226.23
944.24	226.26
944.54	226.26
944.84	226.28
945.13	226.15
945.43	226.02
945.73	226.00
946.03	225.93
946.33	225.80
946.62	225.73
946.92	225.80
947.22	225.85
947.52	225.85
947.82	225.89
948.11	225.70
948.41	225.64
948.71	225.56
949.01	225.65
949.31	225.60
949.60	225.63
949.90	225.65
950.20	225.64
950.50	225.68
950.79	225.59
951.09	225.62
951.39	225.60
951.69	225.55
951.98	225.61
952.28	225.62
952.58	225.66
952.87	225.62
953.17	225.62
953.47	225.56
953.76	225.60
954.06	225.50
954.36	225.50
954.66	225.53
954.95	225.62
955.25	225.66
955.55	225.75
955.84	225.62
956.14	225.68
956.44	225.73
956.73	225.57
957.03	225.63
957.32	225.64
957.62	225.69
957.92	225.77
958.21	225.70
958.51	226.27
958.81	226.27
959.10	226.38
959.40	226.44
959.69	226.46
959.99	226.49
960.29	226.43
960.58	226.43
960.88	226.58
961.17	226.53
961.47	226.55
961.76	226.51
962.06	226.66
962.36	226.64
962.65	226.66
962.95	226.73
963.24	226.72
963.54	226.65
963.83	226.63
964.13	226.60
964.42	226.52
964.72	226.15
965.01	226.22
965.31	226.21
965.60	226.10
965.90	226.41
966.19	226.30
966.49	226.39
966.78	226.34
967.08	226.28
967.37	226.31
967.67	226.18
967.96	226.26
968.26	226.24
968.55	226.25
968.85	226.17
969.14	226.13
969.43	226.16
969.73	226.12
970.02	226.14
970.32	226.11
970.61	226.08
970.91	225.89
971.20	225.74
971.49	225.65
971.79	225.70
972.08	225.38
972.38	225.42
972.67	225.45
972.96	225.64
973.26	225.54
973.55	225.68
973.85	225.70
974.14	225.62
974.43	225.59
974.73	225.52
975.02	225.53
975.31	225.56
975.61	225.51
975.90	225.52
976.19	225.47
976.49	225.58
976.78	225.68
977.07	225.75
977.37	225.86
977.66	225.92
977.95	225.89
978.24	225.91
978.54	226.06
978.83	226.00
979.12	225.95
979.42	225.95
979.71	225.83
980.00	225.84
980.29	225.81
980.59	225.70
980.88	225.83
981.17	225.93
981.46	225.96
981.76	225.93
982.05	226.12
982.34	226.15
982.63	226.07
982.93	226.11
983.22	226.23
983.51	226.21
983.80	226.27
984.09	226.35
984.39	226.33
984.68	226.27
984.97	226.31
985.26	226.31
985.55	226.35
985.85	226.28
986.14	226.35
986.43	226.50
986.72	226.50
987.01	226.41
987.30	226.32
987.59	226.33
987.89	226.40
988.18	226.21
988.47	226.22
988.76	226.16
989.05	226.10
989.34	226.01
989.63	226.05
989.92	226.02
990.22	225.97
990.51	225.96
990.80	225.94
991.09	225.96
991.38	226.01
991.67	226.03
991.96	226.02
992.25	226.01
992.54	225.88
992.83	225.89
993.12	225.84
993.41	225.86
993.70	225.95
993.99	226.01
994.28	226.13
994.58	226.15
994.87	226.08
995.16	226.08
995.45	226.05
995.74	225.91
996.03	225.94
996.32	225.96
996.61	226.06
996.90	226.00
997.19	225.98
997.48	225.88
997.77	225.85
998.06	225.85
998.34	225.86
998.63	225.88
998.92	225.90
999.21	225.95
999.50	226.02
999.79	225.89
1000.08	225.90
1000.37	225.84
1000.66	225.78
1000.95	225.97
1001.24	225.95
1001.53	225.98
1001.82	226.01
1002.11	225.96
1002.40	225.95
1002.68	226.04
1002.97	226.38
1003.26	226.27
1003.55	226.20
1003.84	226.20
1004.13	226.37
1004.42	226.30
1004.71	226.25
1004.99	226.26
1005.28	226.39
1005.57	226.35
1005.86	226.30
1006.15	226.26
1006.44	226.26
1006.72	226.42
1007.01	226.28
1007.30	226.26
1007.59	226.20
1007.88	226.17
1008.17	226.12
1008.45	226.02
1008.74	225.89
1009.03	225.66
1009.32	225.71
1009.60	225.81
1009.89	225.70
1010.18	225.48
1010.47	225.40
1010.76	225.44
1011.04	225.42
1011.33	225.42
1011.62	225.44
1011.91	225.53
1012.19	225.53
1012.48	225.56
1012.77	225.51
1013.05	225.80
1013.34	225.81
1013.63	225.82
1013.92	225.87
1014.20	225.92
1014.49	226.05
1014.78	226.04
1015.06	225.88
1015.35	225.88
1015.64	225.85
1015.92	226.01
1016.21	226.07
1016.50	226.13
1016.78	226.20
1017.07	226.28
1017.36	226.15
1017.64	226.02
1017.93	226.02
1018.22	225.91
1018.50	225.87
1018.79	225.82
1019.08	225.56
1019.36	225.63
1019.65	225.59
1019.93	225.75
1020.22	225.77
1020.51	225.97
1020.79	225.94
1021.08	223.85
1021.36	225.20
1021.65	225.50
1021.94	225.25
1022.22	226.50
1022.51	225.15
1022.79	228.50
1023.08	226.30
1023.36	231.55
1023.65	225.00
>>>>>End Processed Spectral Data<<<<<
