SpectraSuite Data File
++++++++++++++++++++++++++++++++++++
Date: Wed Sep 04 17:43:59 EDT 2013
User: lab3
Dark Spectrum Present: Yes
Reference Spectrum Present: No
Number of Sampled Component Spectra: 1
Spectrometers: USB2E7196
Integration Time (usec): 170000 (USB2E7196)
Spectra Averaged: 20 (USB2E7196)
Boxcar Smoothing: 10 (USB2E7196)
Correct for Electrical Dark: No (USB2E7196)
Strobe/Lamp Enabled: No (USB2E7196)
Correct for Detector Non-linearity: No (USB2E7196)
Correct for Stray Light: No (USB2E7196)
Number of Pixels in Processed Spectrum: 2048
>>>>>Begin Processed Spectral Data<<<<<
339.09	0.00
339.48	212.25
339.86	213.75
340.24	215.50
340.63	216.70
341.01	225.90
341.39	218.85
341.78	221.85
342.16	222.80
342.54	221.95
342.93	211.77
343.31	222.42
343.69	223.03
344.07	223.59
344.46	224.10
344.84	224.50
345.22	224.49
345.60	224.80
345.99	225.04
346.37	225.25
346.75	225.42
347.13	225.51
347.52	225.57
347.90	225.84
348.28	225.90
348.66	226.03
349.05	225.89
349.43	225.90
349.81	226.01
350.19	226.11
350.57	226.20
350.96	226.35
351.34	226.51
351.72	226.56
352.10	226.61
352.48	226.55
352.87	226.58
353.25	226.64
353.63	226.70
354.01	226.70
354.39	226.73
354.77	226.81
355.15	226.97
355.54	226.98
355.92	226.85
356.30	226.97
356.68	227.39
357.06	227.47
357.44	227.48
357.82	227.49
358.20	227.90
358.58	227.95
358.97	227.94
359.35	228.07
359.73	228.26
360.11	228.27
360.49	228.40
360.87	228.49
361.25	228.55
361.63	228.74
362.01	228.73
362.39	228.76
362.77	228.82
363.15	228.81
363.53	228.83
363.91	228.91
364.29	228.88
364.67	228.41
365.05	228.45
365.43	228.56
365.81	228.62
366.19	228.45
366.57	228.56
366.95	228.57
367.33	228.50
367.71	228.48
368.09	228.59
368.47	228.57
368.85	228.53
369.23	228.65
369.61	228.51
369.99	228.70
370.37	228.67
370.75	228.86
371.13	228.80
371.51	228.75
371.89	228.76
372.27	228.77
372.65	228.77
373.03	228.75
373.41	228.63
373.78	228.50
374.16	228.21
374.54	228.05
374.92	227.96
375.30	227.90
375.68	227.77
376.06	227.73
376.44	227.69
376.82	227.64
377.19	227.54
377.57	227.47
377.95	227.19
378.33	227.10
378.71	226.78
379.09	226.76
379.47	226.80
379.84	226.72
380.22	226.56
380.60	226.41
380.98	226.31
381.36	226.29
381.73	226.21
382.11	226.26
382.49	226.24
382.87	226.16
383.25	226.11
383.62	226.55
384.00	226.42
384.38	226.37
384.76	226.38
385.13	226.53
385.51	226.47
385.89	226.45
386.27	226.49
386.64	226.47
387.02	226.42
387.40	226.36
387.78	226.34
388.15	226.42
388.53	226.35
388.91	226.37
389.29	226.33
389.66	226.42
390.04	226.32
390.42	226.35
390.79	226.39
391.17	226.40
391.55	225.89
391.92	225.86
392.30	225.90
392.68	225.95
393.05	225.87
393.43	225.87
393.81	226.02
394.18	225.95
394.56	226.00
394.94	226.17
395.31	226.15
395.69	226.33
396.06	226.44
396.44	226.61
396.82	226.62
397.19	226.94
397.57	226.96
397.95	227.13
398.32	227.08
398.70	227.20
399.07	227.32
399.45	227.40
399.82	227.55
400.20	227.57
400.58	227.55
400.95	227.54
401.33	227.73
401.70	228.13
402.08	228.20
402.45	228.33
402.83	228.49
403.20	228.69
403.58	228.68
403.95	228.87
404.33	229.07
404.71	229.28
405.08	229.68
405.46	229.90
405.83	230.14
406.21	230.42
406.58	230.73
406.96	230.92
407.33	231.28
407.70	231.65
408.08	232.36
408.45	232.82
408.83	233.21
409.20	233.58
409.58	233.71
409.95	234.23
410.33	234.74
410.70	235.12
411.08	235.74
411.45	236.33
411.82	236.90
412.20	237.55
412.57	238.56
412.95	238.82
413.32	239.67
413.69	240.44
414.07	241.35
414.44	242.26
414.82	243.29
415.19	244.42
415.56	245.43
415.94	246.38
416.31	247.79
416.68	249.15
417.06	250.69
417.43	252.22
417.81	253.96
418.18	255.69
418.55	257.50
418.93	259.41
419.30	261.47
419.67	263.56
420.04	265.77
420.42	267.93
420.79	270.92
421.16	273.58
421.54	276.50
421.91	279.32
422.28	282.23
422.66	285.42
423.03	288.76
423.40	292.04
423.77	295.42
424.15	298.77
424.52	302.45
424.89	306.52
425.26	310.31
425.64	314.02
426.01	317.97
426.38	322.27
426.75	326.66
427.13	331.07
427.50	335.61
427.87	340.30
428.24	345.09
428.61	349.35
428.99	354.54
429.36	359.79
429.73	365.13
430.10	370.49
430.47	376.03
430.85	381.45
431.22	387.48
431.59	394.08
431.96	400.17
432.33	406.85
432.70	413.26
433.08	420.81
433.45	427.84
433.82	435.09
434.19	442.97
434.56	450.77
434.93	458.21
435.30	465.71
435.68	474.07
436.05	482.17
436.42	490.23
436.79	497.50
437.16	505.56
437.53	514.04
437.90	522.45
438.27	530.60
438.64	539.05
439.01	546.93
439.38	553.87
439.75	560.74
440.13	568.48
440.50	575.68
440.87	581.60
441.24	587.83
441.61	594.64
441.98	599.53
442.35	604.98
442.72	610.81
443.09	616.57
443.46	619.94
443.83	622.18
444.20	624.16
444.57	626.90
444.94	627.91
445.31	629.00
445.68	630.34
446.05	630.76
446.42	629.76
446.79	628.50
447.16	627.04
447.53	625.81
447.90	622.34
448.27	618.67
448.64	613.99
449.01	610.53
449.37	604.46
449.74	598.72
450.11	592.29
450.48	584.87
450.85	577.04
451.22	570.41
451.59	564.10
451.96	558.09
452.33	550.32
452.70	543.36
453.07	535.09
453.43	526.29
453.80	518.10
454.17	510.25
454.54	502.82
454.91	494.92
455.28	487.29
455.65	480.11
456.02	473.71
456.38	467.65
456.75	460.11
457.12	453.85
457.49	447.69
457.86	441.59
458.23	436.53
458.59	431.12
458.96	425.53
459.33	420.57
459.70	415.58
460.07	411.48
460.43	406.94
460.80	402.80
461.17	399.29
461.54	395.38
461.91	391.69
462.27	387.95
462.64	384.75
463.01	381.34
463.38	378.20
463.74	374.31
464.11	371.24
464.48	368.68
464.85	365.97
465.21	363.96
465.58	361.65
465.95	358.96
466.32	356.75
466.68	354.60
467.05	352.40
467.42	350.25
467.78	348.12
468.15	346.04
468.52	344.38
468.88	342.20
469.25	340.26
469.62	338.86
469.98	337.34
470.35	335.84
470.72	334.44
471.08	332.67
471.45	331.53
471.82	330.46
472.18	329.04
472.55	328.00
472.92	326.69
473.28	325.61
473.65	324.50
474.02	323.47
474.38	322.56
474.75	321.86
475.11	321.06
475.48	320.44
475.85	319.81
476.21	319.25
476.58	318.81
476.94	318.54
477.31	318.02
477.67	317.55
478.04	317.23
478.41	317.04
478.77	317.37
479.14	317.02
479.50	316.96
479.87	317.00
480.23	317.01
480.60	317.05
480.96	317.13
481.33	317.57
481.69	317.78
482.06	318.05
482.42	318.30
482.79	318.66
483.15	319.10
483.52	319.75
483.88	320.16
484.25	320.70
484.61	321.31
484.98	322.05
485.34	323.14
485.71	324.11
486.07	325.15
486.44	325.80
486.80	326.92
487.17	328.04
487.53	329.52
487.90	330.93
488.26	332.51
488.62	334.15
488.99	335.69
489.35	337.45
489.72	339.29
490.08	341.30
490.44	343.34
490.81	345.51
491.17	347.71
491.54	350.25
491.90	352.76
492.26	355.45
492.63	358.21
492.99	360.89
493.36	363.94
493.72	367.10
494.08	370.43
494.45	374.12
494.81	378.04
495.17	381.78
495.54	385.92
495.90	390.15
496.26	394.56
496.63	399.17
496.99	403.86
497.35	408.85
497.72	414.01
498.08	419.52
498.44	425.18
498.80	431.13
499.17	436.92
499.53	443.08
499.89	449.61
500.26	456.34
500.62	463.23
500.98	470.50
501.34	477.85
501.71	485.61
502.07	493.26
502.43	501.09
502.79	509.32
503.16	517.93
503.52	526.60
503.88	535.75
504.24	545.03
504.60	554.86
504.97	565.02
505.33	575.06
505.69	585.91
506.05	596.55
506.41	607.38
506.78	618.93
507.14	630.66
507.50	642.68
507.86	654.92
508.22	667.52
508.59	680.20
508.95	693.56
509.31	707.20
509.67	721.19
510.03	735.11
510.39	749.44
510.75	764.06
511.12	779.10
511.48	794.32
511.84	809.95
512.20	825.44
512.56	841.19
512.92	857.56
513.28	873.77
513.64	890.65
514.00	907.77
514.37	924.99
514.73	942.60
515.09	960.25
515.45	978.29
515.81	996.26
516.17	1014.52
516.53	1032.33
516.89	1050.41
517.25	1069.29
517.61	1088.70
517.97	1108.42
518.33	1127.70
518.69	1147.37
519.05	1167.11
519.41	1186.82
519.77	1207.23
520.13	1227.57
520.49	1247.51
520.85	1267.73
521.21	1288.07
521.57	1308.60
521.93	1328.74
522.29	1349.16
522.65	1369.05
523.01	1389.17
523.37	1409.25
523.73	1429.43
524.09	1449.39
524.45	1469.35
524.81	1489.38
525.17	1509.30
525.53	1529.13
525.89	1549.38
526.25	1569.05
526.61	1588.42
526.97	1608.55
527.33	1628.96
527.68	1649.68
528.04	1670.05
528.40	1690.04
528.76	1710.33
529.12	1730.07
529.48	1750.09
529.84	1769.31
530.20	1789.50
530.56	1809.15
530.91	1829.01
531.27	1848.58
531.63	1868.47
531.99	1887.91
532.35	1906.80
532.71	1926.40
533.07	1946.09
533.42	1964.88
533.78	1983.98
534.14	2003.22
534.50	2021.32
534.86	2039.24
535.21	2055.70
535.57	2073.19
535.93	2089.78
536.29	2106.34
536.65	2123.49
537.00	2140.13
537.36	2156.81
537.72	2172.18
538.08	2188.40
538.44	2204.23
538.79	2219.46
539.15	2234.69
539.51	2249.96
539.87	2264.41
540.22	2277.04
540.58	2290.40
540.94	2302.71
541.29	2314.43
541.65	2326.06
542.01	2337.58
542.37	2347.25
542.72	2357.35
543.08	2366.99
543.44	2377.74
543.79	2386.80
544.15	2395.41
544.51	2404.36
544.87	2412.80
545.22	2420.49
545.58	2427.09
545.94	2432.85
546.29	2438.31
546.65	2443.32
547.01	2447.91
547.36	2452.19
547.72	2456.88
548.07	2459.89
548.43	2463.97
548.79	2467.89
549.14	2470.59
549.50	2473.50
549.86	2476.67
550.21	2479.80
550.57	2482.64
550.92	2483.35
551.28	2483.95
551.64	2485.52
551.99	2486.34
552.35	2487.14
552.70	2489.02
553.06	2490.15
553.41	2490.96
553.77	2492.18
554.13	2493.14
554.48	2493.86
554.84	2494.64
555.19	2495.45
555.55	2496.24
555.90	2495.27
556.26	2493.72
556.61	2491.99
556.97	2489.59
557.32	2488.32
557.68	2486.14
558.03	2484.07
558.39	2482.25
558.74	2480.86
559.10	2477.20
559.45	2473.17
559.81	2468.51
560.16	2462.23
560.52	2456.94
560.87	2452.29
561.23	2446.57
561.58	2440.60
561.94	2433.53
562.29	2425.85
562.64	2418.25
563.00	2409.78
563.35	2402.82
563.71	2396.04
564.06	2389.55
564.42	2382.89
564.77	2375.89
565.12	2368.55
565.48	2360.73
565.83	2352.84
566.19	2344.74
566.54	2336.84
566.89	2329.18
567.25	2321.82
567.60	2315.21
567.96	2307.75
568.31	2299.81
568.66	2291.38
569.02	2282.71
569.37	2274.82
569.72	2267.55
570.08	2258.86
570.43	2249.63
570.78	2240.88
571.14	2231.65
571.49	2221.77
571.84	2212.34
572.20	2201.93
572.55	2192.03
572.90	2181.53
573.26	2171.37
573.61	2160.73
573.96	2149.77
574.31	2138.02
574.67	2126.39
575.02	2113.96
575.37	2101.80
575.72	2088.96
576.08	2077.40
576.43	2065.17
576.78	2052.21
577.13	2039.07
577.49	2026.75
577.84	2015.60
578.19	2003.85
578.54	1991.75
578.90	1980.35
579.25	1968.44
579.60	1956.16
579.95	1943.94
580.30	1931.45
580.66	1918.72
581.01	1905.89
581.36	1892.84
581.71	1880.83
582.06	1868.46
582.42	1856.82
582.77	1844.71
583.12	1833.53
583.47	1821.77
583.82	1810.44
584.17	1799.44
584.53	1788.40
584.88	1776.05
585.23	1763.33
585.58	1750.12
585.93	1737.67
586.28	1724.99
586.63	1711.85
586.98	1698.77
587.34	1685.97
587.69	1673.42
588.04	1661.61
588.39	1650.30
588.74	1638.86
589.09	1627.25
589.44	1615.46
589.79	1603.87
590.14	1592.61
590.49	1580.96
590.84	1569.47
591.19	1558.35
591.54	1546.65
591.89	1534.90
592.25	1525.19
592.60	1514.51
592.95	1503.60
593.30	1492.25
593.65	1480.92
594.00	1469.86
594.35	1460.73
594.70	1449.80
595.05	1439.02
595.40	1427.69
595.75	1416.38
596.10	1405.79
596.45	1395.10
596.80	1384.65
597.15	1373.97
597.50	1362.85
597.85	1352.23
598.19	1341.41
598.54	1330.12
598.89	1319.45
599.24	1309.55
599.59	1298.75
599.94	1288.51
600.29	1278.89
600.64	1269.39
600.99	1259.48
601.34	1250.43
601.69	1239.65
602.04	1230.58
602.39	1221.46
602.74	1212.77
603.08	1203.66
603.43	1194.82
603.78	1185.81
604.13	1176.79
604.48	1167.67
604.83	1158.65
605.18	1149.37
605.53	1140.35
605.87	1131.83
606.22	1123.85
606.57	1115.24
606.92	1106.50
607.27	1098.27
607.62	1090.14
607.96	1082.04
608.31	1074.57
608.66	1066.48
609.01	1058.61
609.36	1050.54
609.70	1042.63
610.05	1034.50
610.40	1026.91
610.75	1018.74
611.10	1010.93
611.44	1002.80
611.79	995.28
612.14	987.96
612.49	980.58
612.83	973.54
613.18	966.29
613.53	959.03
613.88	951.58
614.22	944.23
614.57	936.72
614.92	929.20
615.27	922.15
615.61	914.92
615.96	907.94
616.31	900.87
616.65	894.20
617.00	887.26
617.35	880.49
617.70	873.75
618.04	867.15
618.39	860.58
618.74	854.62
619.08	848.20
619.43	841.65
619.78	835.20
620.12	828.50
620.47	822.24
620.82	815.40
621.16	808.93
621.51	803.03
621.85	797.12
622.20	791.06
622.55	784.92
622.89	778.88
623.24	772.99
623.59	767.05
623.93	761.13
624.28	755.53
624.62	750.39
624.97	744.92
625.32	739.60
625.66	734.05
626.01	728.36
626.35	723.08
626.70	717.90
627.04	713.03
627.39	707.90
627.73	702.84
628.08	698.36
628.43	693.30
628.77	688.17
629.12	683.35
629.46	678.95
629.81	674.61
630.15	670.19
630.50	665.47
630.84	661.00
631.19	656.61
631.53	652.27
631.88	647.31
632.22	642.75
632.57	638.65
632.91	634.38
633.26	630.42
633.60	626.05
633.95	621.65
634.29	617.22
634.64	613.20
634.98	608.98
635.32	604.66
635.67	601.03
636.01	597.28
636.36	593.24
636.70	589.35
637.05	585.17
637.39	581.14
637.73	577.41
638.08	573.74
638.42	569.79
638.77	565.90
639.11	561.88
639.45	557.79
639.80	553.60
640.14	549.85
640.49	545.90
640.83	542.39
641.17	539.05
641.52	535.58
641.86	532.21
642.20	529.19
642.55	526.00
642.89	522.77
643.23	519.22
643.58	516.20
643.92	512.67
644.26	509.50
644.61	506.65
644.95	503.50
645.29	500.35
645.64	497.50
645.98	494.55
646.32	491.86
646.66	489.14
647.01	486.45
647.35	483.85
647.69	481.17
648.04	478.53
648.38	475.89
648.72	473.16
649.06	470.15
649.41	467.26
649.75	464.38
650.09	461.62
650.43	459.09
650.78	456.24
651.12	453.74
651.46	451.23
651.80	448.54
652.14	446.15
652.49	443.83
652.83	441.25
653.17	438.75
653.51	436.27
653.85	434.08
654.20	431.68
654.54	429.17
654.88	426.68
655.22	424.59
655.56	422.31
655.90	420.21
656.25	418.19
656.59	416.05
656.93	414.05
657.27	412.08
657.61	409.78
657.95	407.83
658.29	405.65
658.64	403.78
658.98	401.72
659.32	399.51
659.66	397.37
660.00	395.50
660.34	393.65
660.68	391.73
661.02	389.71
661.36	387.95
661.70	386.05
662.05	384.43
662.39	382.44
662.73	380.76
663.07	379.21
663.41	377.57
663.75	375.66
664.09	373.90
664.43	372.00
664.77	370.57
665.11	369.00
665.45	367.50
665.79	365.77
666.13	364.16
666.47	362.68
666.81	361.11
667.15	359.45
667.49	357.93
667.83	356.61
668.17	355.16
668.51	353.76
668.85	352.55
669.19	351.39
669.53	350.03
669.87	348.53
670.21	347.02
670.55	345.67
670.89	344.76
671.23	343.45
671.57	342.20
671.91	340.93
672.25	339.61
672.58	338.52
672.92	337.25
673.26	336.09
673.60	334.90
673.94	333.79
674.28	332.80
674.62	331.80
674.96	330.54
675.30	329.49
675.64	328.39
675.97	327.19
676.31	325.86
676.65	324.66
676.99	323.79
677.33	322.71
677.67	321.71
678.01	320.36
678.34	319.38
678.68	318.52
679.02	317.47
679.36	316.48
679.70	315.34
680.04	314.45
680.37	313.57
680.71	312.63
681.05	311.73
681.39	310.81
681.73	309.88
682.06	309.02
682.40	308.25
682.74	307.43
683.08	306.76
683.42	305.90
683.75	305.20
684.09	304.21
684.43	303.41
684.77	302.55
685.10	301.87
685.44	301.18
685.78	300.35
686.12	299.65
686.45	298.93
686.79	298.22
687.13	297.57
687.46	296.88
687.80	296.25
688.14	295.52
688.48	294.80
688.81	294.03
689.15	293.56
689.49	292.82
689.82	292.17
690.16	291.41
690.50	290.87
690.83	290.21
691.17	289.53
691.51	288.88
691.84	288.32
692.18	287.65
692.52	286.97
692.85	286.40
693.19	286.05
693.52	285.43
693.86	284.90
694.20	284.19
694.53	283.65
694.87	283.03
695.21	282.42
695.54	281.85
695.88	281.22
696.21	280.43
696.55	279.89
696.88	279.29
697.22	278.66
697.56	278.19
697.89	277.59
698.23	277.24
698.56	276.69
698.90	276.20
699.23	275.73
699.57	275.21
699.90	274.69
700.24	273.93
700.58	273.61
700.91	273.22
701.25	273.22
701.58	273.09
701.92	272.81
702.25	272.47
702.59	271.98
702.92	271.72
703.26	271.43
703.59	271.06
703.93	271.07
704.26	270.77
704.60	270.26
704.93	269.86
705.26	269.26
705.60	269.03
705.93	268.57
706.27	268.34
706.60	268.13
706.94	267.95
707.27	267.61
707.61	267.25
707.94	266.83
708.27	266.08
708.61	265.30
708.94	264.84
709.28	264.40
709.61	264.01
709.94	263.60
710.28	263.18
710.61	262.77
710.95	261.97
711.28	261.92
711.61	261.62
711.95	261.37
712.28	261.07
712.61	260.72
712.95	260.61
713.28	260.43
713.61	259.97
713.95	259.50
714.28	259.19
714.61	258.76
714.95	258.49
715.28	258.11
715.61	257.78
715.95	257.53
716.28	257.21
716.61	257.02
716.95	256.65
717.28	256.34
717.61	256.02
717.94	255.77
718.28	255.15
718.61	254.89
718.94	254.55
719.27	254.29
719.61	254.03
719.94	253.67
720.27	253.10
720.60	252.85
720.94	252.56
721.27	252.34
721.60	252.15
721.93	251.86
722.27	251.77
722.60	251.61
722.93	251.29
723.26	251.08
723.59	250.77
723.93	250.66
724.26	250.54
724.59	250.23
724.92	250.07
725.25	250.01
725.59	249.74
725.92	249.63
726.25	249.47
726.58	249.31
726.91	249.12
727.24	249.05
727.57	248.84
727.91	248.59
728.24	248.45
728.57	248.22
728.90	248.11
729.23	247.79
729.56	247.85
729.89	247.68
730.22	247.50
730.55	247.32
730.89	247.13
731.22	246.90
731.55	246.76
731.88	246.57
732.21	246.27
732.54	246.06
732.87	245.86
733.20	245.69
733.53	245.50
733.86	245.31
734.19	245.03
734.52	245.03
734.85	245.25
735.18	244.99
735.51	245.00
735.84	244.86
736.17	244.93
736.50	244.51
736.83	244.95
737.16	244.83
737.49	244.74
737.82	244.55
738.15	244.52
738.48	244.49
738.81	244.29
739.14	244.15
739.47	244.02
739.80	243.87
740.13	243.81
740.46	243.61
740.79	243.42
741.12	243.25
741.45	242.92
741.78	242.45
742.11	242.40
742.44	242.11
742.77	241.98
743.10	241.75
743.43	241.58
743.75	240.93
744.08	241.35
744.41	241.15
744.74	241.02
745.07	240.70
745.40	240.61
745.73	240.72
746.06	240.53
746.39	240.46
746.71	240.33
747.04	240.07
747.37	239.95
747.70	239.91
748.03	239.95
748.36	239.95
748.68	239.86
749.01	239.65
749.34	239.49
749.67	239.41
750.00	239.35
750.33	239.62
750.65	239.59
750.98	238.91
751.31	238.90
751.64	238.81
751.97	239.03
752.29	238.85
752.62	238.56
752.95	238.43
753.28	238.30
753.60	238.14
753.93	238.16
754.26	238.09
754.59	237.92
754.91	237.65
755.24	237.55
755.57	237.50
755.90	237.40
756.22	237.34
756.55	237.14
756.88	236.86
757.20	236.49
757.53	236.19
757.86	236.10
758.19	235.97
758.51	235.85
758.84	235.46
759.17	235.30
759.49	235.17
759.82	235.34
760.15	235.20
760.47	235.12
760.80	234.92
761.13	234.89
761.45	234.76
761.78	234.70
762.11	234.54
762.43	234.33
762.76	234.27
763.08	234.21
763.41	234.22
763.74	234.23
764.06	234.17
764.39	234.13
764.71	234.08
765.04	233.98
765.37	233.79
765.69	233.71
766.02	233.69
766.34	233.56
766.67	233.36
767.00	233.36
767.32	233.55
767.65	233.81
767.97	233.72
768.30	233.71
768.62	233.68
768.95	233.62
769.27	233.62
769.60	233.56
769.92	233.42
770.25	233.27
770.57	233.12
770.90	232.97
771.22	232.87
771.55	232.73
771.87	232.70
772.20	232.68
772.52	233.05
772.85	233.57
773.17	233.57
773.50	233.40
773.82	233.38
774.15	233.07
774.47	232.68
774.80	232.58
775.12	232.45
775.45	232.40
775.77	232.36
776.09	232.35
776.42	232.32
776.74	232.42
777.07	232.31
777.39	232.29
777.72	232.17
778.04	232.21
778.36	232.16
778.69	232.10
779.01	232.12
779.33	231.71
779.66	231.17
779.98	231.12
780.31	231.18
780.63	231.24
780.95	231.26
781.28	231.22
781.60	231.14
781.92	231.12
782.25	231.08
782.57	231.08
782.89	230.93
783.22	230.91
783.54	230.75
783.86	230.77
784.19	230.73
784.51	230.95
784.83	230.80
785.16	230.75
785.48	230.73
785.80	230.74
786.12	230.79
786.45	230.69
786.77	230.72
787.09	230.65
787.42	230.47
787.74	230.48
788.06	230.49
788.38	230.37
788.71	230.31
789.03	230.29
789.35	230.32
789.67	230.28
789.99	230.29
790.32	230.20
790.64	230.27
790.96	230.64
791.28	230.44
791.61	230.35
791.93	230.40
792.25	230.37
792.57	230.66
792.89	230.46
793.21	230.51
793.54	230.36
793.86	230.25
794.18	230.26
794.50	230.19
794.82	230.16
795.14	230.26
795.47	230.39
795.79	230.42
796.11	230.27
796.43	230.28
796.75	230.19
797.07	230.28
797.39	230.17
797.71	229.82
798.04	229.83
798.36	229.91
798.68	229.80
799.00	229.75
799.32	229.45
799.64	229.58
799.96	229.60
800.28	229.75
800.60	229.74
800.92	229.70
801.24	229.62
801.56	229.68
801.89	229.60
802.21	229.54
802.53	229.44
802.85	229.55
803.17	229.80
803.49	229.64
803.81	229.55
804.13	229.52
804.45	229.47
804.77	229.46
805.09	229.40
805.41	229.36
805.73	229.28
806.05	229.14
806.37	229.07
806.69	228.88
807.01	228.74
807.33	228.79
807.65	228.64
807.97	228.83
808.28	228.74
808.60	228.75
808.92	228.65
809.24	228.86
809.56	228.76
809.88	228.46
810.20	228.54
810.52	228.61
810.84	228.51
811.16	228.42
811.48	228.35
811.80	228.48
812.12	228.44
812.43	228.53
812.75	228.56
813.07	228.43
813.39	228.45
813.71	228.40
814.03	228.36
814.35	228.40
814.67	228.16
814.98	228.07
815.30	228.01
815.62	227.98
815.94	227.65
816.26	227.81
816.58	227.77
816.89	227.79
817.21	227.61
817.53	227.68
817.85	227.72
818.17	227.71
818.48	227.58
818.80	227.75
819.12	227.64
819.44	227.67
819.76	227.66
820.07	227.66
820.39	227.67
820.71	227.69
821.03	227.65
821.34	227.69
821.66	227.71
821.98	227.81
822.30	227.74
822.61	228.00
822.93	227.76
823.25	227.71
823.57	227.70
823.88	227.84
824.20	227.78
824.52	227.83
824.83	227.80
825.15	227.81
825.47	227.72
825.79	227.84
826.10	227.76
826.42	227.74
826.74	227.80
827.05	227.73
827.37	227.76
827.69	227.80
828.00	227.79
828.32	227.85
828.64	227.70
828.95	227.98
829.27	227.85
829.58	227.91
829.90	228.00
830.22	228.04
830.53	227.89
830.85	227.85
831.17	227.77
831.48	227.75
831.80	227.72
832.11	227.69
832.43	227.59
832.75	227.53
833.06	227.84
833.38	227.71
833.69	227.74
834.01	227.69
834.32	227.64
834.64	227.60
834.96	227.63
835.27	227.65
835.59	227.51
835.90	227.50
836.22	227.47
836.53	227.39
836.85	227.33
837.16	227.90
837.48	227.89
837.79	227.91
838.11	227.97
838.42	227.95
838.74	228.03
839.05	228.04
839.37	228.06
839.68	227.74
840.00	227.70
840.31	227.74
840.63	227.68
840.94	227.63
841.26	227.58
841.57	227.60
841.88	227.64
842.20	227.58
842.51	227.46
842.83	227.46
843.14	227.86
843.46	227.84
843.77	227.50
844.08	227.57
844.40	227.42
844.71	227.30
845.03	227.25
845.34	227.17
845.65	227.10
845.97	227.13
846.28	227.16
846.60	227.20
846.91	227.09
847.22	227.08
847.54	227.19
847.85	227.20
848.16	227.08
848.48	226.95
848.79	227.14
849.10	227.20
849.42	227.19
849.73	226.77
850.04	226.70
850.36	226.46
850.67	226.49
850.98	226.59
851.30	226.69
851.61	226.62
851.92	226.61
852.23	226.81
852.55	226.76
852.86	226.73
853.17	226.78
853.49	226.92
853.80	226.99
854.11	227.03
854.42	227.16
854.74	227.09
855.05	227.12
855.36	226.81
855.67	226.80
855.99	226.81
856.30	227.41
856.61	227.39
856.92	227.46
857.23	227.41
857.55	227.31
857.86	227.19
858.17	227.37
858.48	227.30
858.79	227.15
859.11	227.27
859.42	227.22
859.73	227.09
860.04	227.09
860.35	226.98
860.66	226.73
860.98	226.66
861.29	226.77
861.60	226.77
861.91	226.88
862.22	226.79
862.53	226.63
862.84	226.03
863.16	226.18
863.47	226.08
863.78	225.97
864.09	226.04
864.40	226.21
864.71	226.14
865.02	226.23
865.33	226.19
865.64	226.10
865.95	226.15
866.27	226.51
866.58	226.43
866.89	226.56
867.20	226.59
867.51	226.51
867.82	226.43
868.13	226.62
868.44	226.50
868.75	226.65
869.06	226.74
869.37	226.80
869.68	226.66
869.99	226.75
870.30	226.87
870.61	226.91
870.92	226.74
871.23	226.71
871.54	226.74
871.85	226.80
872.16	226.78
872.47	226.72
872.78	226.42
873.09	226.39
873.40	226.25
873.71	226.29
874.02	226.30
874.33	226.29
874.64	226.12
874.95	226.28
875.26	226.19
875.56	226.15
875.87	226.09
876.18	226.08
876.49	226.54
876.80	226.50
877.11	226.44
877.42	226.48
877.73	226.49
878.04	226.45
878.35	226.50
878.66	226.56
878.96	226.56
879.27	226.62
879.58	226.65
879.89	226.66
880.20	226.83
880.51	226.79
880.82	226.83
881.12	226.84
881.43	226.71
881.74	226.62
882.05	226.66
882.36	226.71
882.67	226.73
882.97	226.23
883.28	226.20
883.59	226.15
883.90	226.15
884.21	226.18
884.51	226.12
884.82	226.02
885.13	225.98
885.44	225.97
885.74	225.92
886.05	225.95
886.36	225.92
886.67	225.75
886.98	226.04
887.28	226.06
887.59	226.03
887.90	226.08
888.20	226.09
888.51	226.06
888.82	226.01
889.13	226.03
889.43	226.48
889.74	226.48
890.05	226.46
890.35	226.40
890.66	226.34
890.97	226.27
891.28	226.18
891.58	226.25
891.89	226.33
892.20	226.23
892.50	226.10
892.81	226.15
893.12	226.18
893.42	225.93
893.73	225.95
894.04	226.03
894.34	226.05
894.65	226.05
894.95	226.07
895.26	226.07
895.57	226.31
895.87	225.81
896.18	225.86
896.48	225.91
896.79	225.99
897.10	226.00
897.40	226.14
897.71	226.21
898.01	226.08
898.32	226.10
898.63	226.13
898.93	226.17
899.24	226.13
899.54	226.11
899.85	226.07
900.15	226.02
900.46	226.01
900.76	226.05
901.07	226.06
901.38	226.11
901.68	226.19
901.99	225.92
902.29	225.95
902.60	225.91
902.90	225.83
903.21	225.81
903.51	225.82
903.82	225.84
904.12	225.85
904.43	225.95
904.73	225.93
905.03	225.95
905.34	226.49
905.64	226.44
905.95	226.40
906.25	226.43
906.56	226.45
906.86	226.50
907.17	226.44
907.47	226.50
907.77	226.36
908.08	226.29
908.38	226.30
908.69	226.38
908.99	226.51
909.30	226.63
909.60	226.66
909.90	226.65
910.21	226.54
910.51	226.51
910.81	226.49
911.12	226.54
911.42	226.59
911.73	226.06
912.03	226.21
912.33	226.31
912.64	226.27
912.94	226.24
913.24	226.03
913.55	225.98
913.85	225.84
914.15	226.00
914.46	226.07
914.76	226.03
915.06	225.98
915.37	225.76
915.67	225.69
915.97	225.74
916.27	225.63
916.58	225.67
916.88	225.67
917.18	225.62
917.49	225.93
917.79	225.91
918.09	226.04
918.39	226.08
918.70	226.06
919.00	226.08
919.30	226.29
919.60	226.38
919.91	226.38
920.21	226.50
920.51	226.32
920.81	226.26
921.12	226.36
921.42	226.36
921.72	226.46
922.02	226.50
922.32	226.48
922.63	226.63
922.93	226.85
923.23	226.89
923.53	226.86
923.83	226.49
924.13	226.48
924.44	226.44
924.74	226.50
925.04	226.61
925.34	226.57
925.64	226.35
925.94	226.36
926.24	226.59
926.55	226.52
926.85	226.68
927.15	226.66
927.45	226.65
927.75	226.62
928.05	226.64
928.35	226.65
928.65	226.73
928.95	226.67
929.26	226.46
929.56	226.49
929.86	226.54
930.16	226.59
930.46	226.60
930.76	226.59
931.06	226.39
931.36	226.23
931.66	226.31
931.96	226.37
932.26	226.38
932.56	226.21
932.86	226.22
933.16	226.13
933.46	226.14
933.76	226.07
934.06	226.17
934.36	226.28
934.66	226.23
934.96	226.18
935.26	226.21
935.56	226.28
935.86	226.27
936.16	226.19
936.46	226.06
936.76	226.02
937.06	225.98
937.36	226.09
937.66	226.11
937.96	226.16
938.26	226.07
938.56	225.96
938.86	226.03
939.16	226.17
939.46	226.22
939.76	226.26
940.06	226.35
940.35	226.27
940.65	226.09
940.95	226.15
941.25	226.04
941.55	225.98
941.85	225.95
942.15	225.95
942.45	226.14
942.75	226.16
943.04	226.22
943.34	226.28
943.64	226.14
943.94	226.09
944.24	226.05
944.54	226.11
944.84	226.21
945.13	226.11
945.43	225.95
945.73	225.97
946.03	225.89
946.33	225.72
946.62	225.67
946.92	225.71
947.22	225.75
947.52	225.79
947.82	225.86
948.11	225.83
948.41	225.63
948.71	225.46
949.01	225.56
949.31	225.47
949.60	225.44
949.90	225.54
950.20	225.58
950.50	225.61
950.79	225.55
951.09	225.57
951.39	225.62
951.69	225.65
951.98	225.73
952.28	225.81
952.58	225.80
952.87	225.83
953.17	225.80
953.47	225.70
953.76	225.71
954.06	225.68
954.36	225.60
954.66	225.77
954.95	225.92
955.25	225.94
955.55	225.98
955.84	225.92
956.14	225.95
956.44	225.93
956.73	225.84
957.03	225.91
957.32	225.94
957.62	225.85
957.92	225.98
958.21	225.85
958.51	226.28
958.81	226.34
959.10	226.35
959.40	226.47
959.69	226.48
959.99	226.53
960.29	226.49
960.58	226.44
960.88	226.61
961.17	226.54
961.47	226.55
961.76	226.50
962.06	226.59
962.36	226.54
962.65	226.58
962.95	226.63
963.24	226.57
963.54	226.49
963.83	226.50
964.13	226.40
964.42	226.39
964.72	226.02
965.01	226.10
965.31	226.11
965.60	225.97
965.90	226.28
966.19	226.15
966.49	226.15
966.78	226.21
967.08	226.04
967.37	226.08
967.67	225.97
967.96	226.05
968.26	226.02
968.55	226.10
968.85	226.04
969.14	226.04
969.43	226.11
969.73	226.10
970.02	226.08
970.32	226.02
970.61	226.05
970.91	225.95
971.20	225.88
971.49	225.83
971.79	225.95
972.08	225.63
972.38	225.72
972.67	225.82
972.96	225.89
973.26	225.83
973.55	225.99
973.85	226.03
974.14	225.96
974.43	226.01
974.73	225.89
975.02	225.83
975.31	225.80
975.61	225.74
975.90	225.76
976.19	225.74
976.49	225.85
976.78	225.88
977.07	225.88
977.37	225.96
977.66	226.01
977.95	225.95
978.24	226.02
978.54	226.06
978.83	226.01
979.12	225.97
979.42	225.98
979.71	225.80
980.00	225.74
980.29	225.73
980.59	225.66
980.88	225.80
981.17	225.81
981.46	225.76
981.76	225.82
982.05	225.96
982.34	226.00
982.63	226.01
982.93	225.99
983.22	226.12
983.51	226.02
983.80	226.11
984.09	226.13
984.39	226.01
984.68	225.97
984.97	225.92
985.26	225.95
985.55	225.98
985.85	225.91
986.14	225.99
986.43	226.04
986.72	226.01
987.01	225.83
987.30	225.82
987.59	225.78
987.89	225.73
988.18	225.54
988.47	225.47
988.76	225.34
989.05	225.27
989.34	225.16
989.63	225.29
989.92	225.16
990.22	225.13
990.51	225.16
990.80	225.06
991.09	225.10
991.38	225.04
991.67	224.99
991.96	224.96
992.25	224.89
992.54	224.80
992.83	224.78
993.12	224.78
993.41	224.90
993.70	225.12
993.99	225.13
994.28	225.20
994.58	225.33
994.87	225.33
995.16	225.34
995.45	225.36
995.74	225.23
996.03	225.33
996.32	225.39
996.61	225.45
996.90	225.44
997.19	225.44
997.48	225.46
997.77	225.41
998.06	225.47
998.34	225.47
998.63	225.51
998.92	225.55
999.21	225.58
999.50	225.56
999.79	225.33
1000.08	225.43
1000.37	225.43
1000.66	225.33
1000.95	225.42
1001.24	225.47
1001.53	225.46
1001.82	225.42
1002.11	225.28
1002.40	225.30
1002.68	225.45
1002.97	225.87
1003.26	225.82
1003.55	225.75
1003.84	225.81
1004.13	225.92
1004.42	225.95
1004.71	225.95
1004.99	225.84
1005.28	226.04
1005.57	225.98
1005.86	226.03
1006.15	225.96
1006.44	225.90
1006.72	226.04
1007.01	225.94
1007.30	225.94
1007.59	225.90
1007.88	225.92
1008.17	225.95
1008.45	225.89
1008.74	225.71
1009.03	225.45
1009.32	225.46
1009.60	225.47
1009.89	225.47
1010.18	225.35
1010.47	225.34
1010.76	225.38
1011.04	225.45
1011.33	225.43
1011.62	225.48
1011.91	225.55
1012.19	225.61
1012.48	225.63
1012.77	225.61
1013.05	225.87
1013.34	225.87
1013.63	225.88
1013.92	225.94
1014.20	225.99
1014.49	225.97
1014.78	226.01
1015.06	225.92
1015.35	225.93
1015.64	226.01
1015.92	226.09
1016.21	226.08
1016.50	226.10
1016.78	226.19
1017.07	226.23
1017.36	226.10
1017.64	226.06
1017.93	226.05
1018.22	225.92
1018.50	226.00
1018.79	225.91
1019.08	225.73
1019.36	225.73
1019.65	225.62
1019.93	225.73
1020.22	225.78
1020.51	226.06
1020.79	225.94
1021.08	224.05
1021.36	226.45
1021.65	225.30
1021.94	226.30
1022.22	225.90
1022.51	223.40
1022.79	227.80
1023.08	226.85
1023.36	231.95
1023.65	223.30
>>>>>End Processed Spectral Data<<<<<
