SpectraSuite Data File
++++++++++++++++++++++++++++++++++++
Date: Wed Sep 04 18:05:17 EDT 2013
User: lab3
Dark Spectrum Present: Yes
Reference Spectrum Present: No
Number of Sampled Component Spectra: 1
Spectrometers: USB2E7196
Integration Time (usec): 170000 (USB2E7196)
Spectra Averaged: 20 (USB2E7196)
Boxcar Smoothing: 10 (USB2E7196)
Correct for Electrical Dark: No (USB2E7196)
Strobe/Lamp Enabled: No (USB2E7196)
Correct for Detector Non-linearity: No (USB2E7196)
Correct for Stray Light: No (USB2E7196)
Number of Pixels in Processed Spectrum: 2048
>>>>>Begin Processed Spectral Data<<<<<
339.09	0.00
339.48	213.05
339.86	214.60
340.24	215.45
340.63	217.70
341.01	226.95
341.39	221.10
341.78	222.60
342.16	224.90
342.54	223.50
342.93	212.62
343.31	223.36
343.69	223.89
344.07	224.41
344.46	224.97
344.84	225.40
345.22	225.25
345.60	225.53
345.99	225.68
346.37	225.76
346.75	225.88
347.13	225.96
347.52	226.13
347.90	226.36
348.28	226.46
348.66	226.53
349.05	226.45
349.43	226.53
349.81	226.62
350.19	226.78
350.57	226.94
350.96	227.07
351.34	227.16
351.72	227.27
352.10	227.34
352.48	227.35
352.87	227.40
353.25	227.59
353.63	227.62
354.01	227.77
354.39	227.87
354.77	227.95
355.15	228.12
355.54	228.09
355.92	228.00
356.30	228.00
356.68	228.33
357.06	228.42
357.44	228.41
357.82	228.47
358.20	228.89
358.58	228.84
358.97	228.83
359.35	228.90
359.73	229.04
360.11	229.14
360.49	229.20
360.87	229.24
361.25	229.33
361.63	229.56
362.01	229.62
362.39	229.57
362.77	229.72
363.15	229.73
363.53	229.80
363.91	229.85
364.29	229.91
364.67	229.58
365.05	229.61
365.43	229.67
365.81	229.80
366.19	229.67
366.57	229.94
366.95	229.98
367.33	229.98
367.71	230.03
368.09	230.12
368.47	230.16
368.85	230.12
369.23	230.20
369.61	230.01
369.99	230.10
370.37	230.25
370.75	230.39
371.13	230.31
371.51	230.27
371.89	230.30
372.27	230.24
372.65	230.22
373.03	230.30
373.41	230.29
373.78	230.16
374.16	229.89
374.54	229.74
374.92	229.60
375.30	229.59
375.68	229.51
376.06	229.47
376.44	229.35
376.82	229.38
377.19	229.24
377.57	229.17
377.95	228.94
378.33	228.78
378.71	228.56
379.09	228.54
379.47	228.52
379.84	228.37
380.22	228.30
380.60	228.16
380.98	228.00
381.36	227.90
381.73	227.77
382.11	227.78
382.49	227.69
382.87	227.66
383.25	227.60
383.62	228.10
384.00	227.94
384.38	227.90
384.76	227.95
385.13	228.19
385.51	228.12
385.89	228.09
386.27	228.09
386.64	228.00
387.02	227.92
387.40	227.85
387.78	227.86
388.15	227.82
388.53	227.75
388.91	227.70
389.29	227.63
389.66	227.70
390.04	227.65
390.42	227.68
390.79	227.71
391.17	227.63
391.55	227.03
391.92	227.02
392.30	227.02
392.68	226.88
393.05	226.78
393.43	226.82
393.81	226.80
394.18	226.71
394.56	226.69
394.94	226.81
395.31	226.81
395.69	226.93
396.06	227.02
396.44	227.10
396.82	227.11
397.19	227.49
397.57	227.47
397.95	227.57
398.32	227.50
398.70	227.53
399.07	227.71
399.45	227.75
399.82	227.84
400.20	227.94
400.58	227.96
400.95	227.82
401.33	228.03
401.70	228.48
402.08	228.69
402.45	228.77
402.83	228.98
403.20	229.16
403.58	229.30
403.95	229.55
404.33	229.82
404.71	230.11
405.08	230.49
405.46	230.72
405.83	230.95
406.21	231.20
406.58	231.60
406.96	231.79
407.33	232.12
407.70	232.47
408.08	233.19
408.45	233.69
408.83	234.16
409.20	234.49
409.58	234.64
409.95	235.17
410.33	235.76
410.70	236.10
411.08	236.72
411.45	237.33
411.82	237.84
412.20	238.60
412.57	239.55
412.95	239.84
413.32	240.71
413.69	241.58
414.07	242.49
414.44	243.39
414.82	244.47
415.19	245.66
415.56	246.78
415.94	247.79
416.31	249.25
416.68	250.70
417.06	252.30
417.43	253.94
417.81	255.63
418.18	257.57
418.55	259.59
418.93	261.55
419.30	263.59
419.67	265.92
420.04	268.20
420.42	270.47
420.79	273.66
421.16	276.41
421.54	279.50
421.91	282.49
422.28	285.60
422.66	288.97
423.03	292.45
423.40	295.84
423.77	299.45
424.15	303.03
424.52	306.83
424.89	311.05
425.26	315.15
425.64	319.05
426.01	323.22
426.38	327.59
426.75	332.25
427.13	336.96
427.50	341.67
427.87	346.53
428.24	351.48
428.61	355.96
428.99	361.34
429.36	366.87
429.73	372.44
430.10	377.99
430.47	383.74
430.85	389.49
431.22	395.74
431.59	402.63
431.96	409.07
432.33	416.10
432.70	422.75
433.08	430.60
433.45	438.04
433.82	445.32
434.19	453.60
434.56	461.81
434.93	469.45
435.30	477.25
435.68	485.98
436.05	494.55
436.42	502.99
436.79	510.78
437.16	519.11
437.53	528.08
437.90	536.91
438.27	545.43
438.64	554.42
439.01	562.85
439.38	570.00
439.75	577.23
440.13	585.42
440.50	593.08
440.87	599.20
441.24	605.75
441.61	612.94
441.98	618.12
442.35	623.93
442.72	629.93
443.09	636.06
443.46	639.47
443.83	641.75
444.20	643.81
444.57	646.53
444.94	647.71
445.31	648.88
445.68	650.20
446.05	650.44
446.42	649.23
446.79	647.73
447.16	646.18
447.53	644.75
447.90	640.96
448.27	637.38
448.64	632.51
449.01	628.70
449.37	622.43
449.74	616.29
450.11	609.41
450.48	601.76
450.85	593.49
451.22	586.54
451.59	579.96
451.96	573.47
452.33	565.27
452.70	557.83
453.07	549.00
453.43	539.78
453.80	531.36
454.17	523.06
454.54	515.33
454.91	506.92
455.28	498.85
455.65	491.28
456.02	484.26
456.38	477.77
456.75	470.05
457.12	463.40
457.49	457.07
457.86	450.62
458.23	445.46
458.59	439.69
458.96	433.97
459.33	428.70
459.70	423.55
460.07	419.41
460.43	414.67
460.80	410.24
461.17	406.40
461.54	402.29
461.91	398.52
462.27	394.67
462.64	391.43
463.01	387.85
463.38	384.53
463.74	380.48
464.11	377.50
464.48	374.71
464.85	371.88
465.21	369.70
465.58	367.26
465.95	364.24
466.32	362.04
466.68	359.69
467.05	357.44
467.42	355.15
467.78	352.74
468.15	350.49
468.52	348.95
468.88	346.78
469.25	344.81
469.62	343.25
469.98	341.51
470.35	339.91
470.72	338.41
471.08	336.77
471.45	335.54
471.82	334.23
472.18	332.75
472.55	331.75
472.92	330.37
473.28	329.34
473.65	328.28
474.02	327.21
474.38	326.28
474.75	325.50
475.11	324.71
475.48	324.16
475.85	323.59
476.21	322.84
476.58	322.37
476.94	321.97
477.31	321.54
477.67	321.16
478.04	320.93
478.41	320.78
478.77	320.98
479.14	320.70
479.50	320.52
479.87	320.52
480.23	320.63
480.60	320.64
480.96	320.63
481.33	321.00
481.69	321.15
482.06	321.42
482.42	321.73
482.79	322.06
483.15	322.46
483.52	323.09
483.88	323.69
484.25	324.22
484.61	324.95
484.98	325.64
485.34	326.56
485.71	327.59
486.07	328.55
486.44	329.22
486.80	330.30
487.17	331.54
487.53	332.98
487.90	334.28
488.26	336.03
488.62	337.67
488.99	339.20
489.35	341.03
489.72	342.99
490.08	344.94
490.44	347.04
490.81	349.28
491.17	351.47
491.54	353.90
491.90	356.54
492.26	359.20
492.63	361.94
492.99	364.85
493.36	367.83
493.72	371.21
494.08	374.58
494.45	378.32
494.81	382.25
495.17	386.15
495.54	390.33
495.90	394.43
496.26	398.91
496.63	403.66
496.99	408.53
497.35	413.65
497.72	419.05
498.08	424.57
498.44	430.44
498.80	436.50
499.17	442.59
499.53	448.94
499.89	455.70
500.26	462.50
500.62	469.39
500.98	476.83
501.34	484.16
501.71	492.03
502.07	499.88
502.43	507.96
502.79	516.38
503.16	525.18
503.52	534.23
503.88	543.50
504.24	553.30
504.60	563.16
504.97	573.47
505.33	583.89
505.69	595.16
506.05	606.06
506.41	617.43
506.78	629.22
507.14	641.20
507.50	653.42
507.86	666.26
508.22	679.46
508.59	692.40
508.95	705.97
509.31	719.96
509.67	734.25
510.03	748.50
510.39	763.31
510.75	778.34
511.12	793.69
511.48	809.43
511.84	824.89
512.20	840.84
512.56	856.94
512.92	873.79
513.28	890.40
513.64	907.70
514.00	925.19
514.37	942.90
514.73	961.11
515.09	979.52
515.45	997.73
515.81	1016.17
516.17	1035.19
516.53	1054.04
516.89	1072.81
517.25	1092.22
517.61	1112.53
517.97	1132.66
518.33	1152.77
518.69	1172.99
519.05	1193.40
519.41	1214.14
519.77	1235.37
520.13	1256.24
520.49	1276.87
520.85	1299.40
521.21	1320.69
521.57	1342.05
521.93	1362.86
522.29	1384.16
522.65	1405.05
523.01	1426.26
523.37	1446.91
523.73	1467.92
524.09	1488.64
524.45	1509.54
524.81	1530.57
525.17	1551.35
525.53	1572.09
525.89	1592.90
526.25	1614.04
526.61	1634.86
526.97	1656.11
527.33	1677.50
527.68	1699.69
528.04	1721.18
528.40	1740.75
528.76	1761.52
529.12	1781.89
529.48	1802.96
529.84	1823.24
530.20	1844.20
530.56	1865.06
530.91	1886.14
531.27	1906.67
531.63	1927.60
531.99	1948.46
532.35	1968.79
532.71	1989.05
533.07	2009.95
533.42	2029.94
533.78	2049.74
534.14	2069.25
534.50	2088.42
534.86	2107.72
535.21	2125.42
535.57	2144.15
535.93	2162.07
536.29	2180.08
536.65	2198.59
537.00	2216.18
537.36	2233.93
537.72	2250.81
538.08	2268.01
538.44	2284.85
538.79	2301.53
539.15	2317.95
539.51	2333.87
539.87	2349.09
540.22	2363.50
540.58	2377.80
540.94	2391.33
541.29	2404.08
541.65	2417.24
542.01	2430.12
542.37	2440.89
542.72	2452.11
543.08	2463.18
543.44	2474.99
543.79	2485.47
544.15	2495.39
544.51	2505.67
544.87	2515.36
545.22	2524.21
545.58	2532.18
545.94	2539.55
546.29	2546.42
546.65	2553.01
547.01	2558.66
547.36	2564.30
547.72	2569.84
548.07	2573.95
548.43	2579.64
548.79	2584.54
549.14	2588.68
549.50	2592.49
549.86	2596.35
550.21	2600.23
550.57	2603.08
550.92	2604.58
551.28	2606.21
551.64	2608.53
551.99	2610.42
552.35	2612.09
552.70	2613.92
553.06	2615.71
553.41	2617.44
553.77	2619.07
554.13	2620.87
554.48	2622.41
554.84	2623.79
555.19	2625.22
555.55	2626.82
555.90	2625.85
556.26	2625.26
556.61	2623.74
556.97	2621.84
557.32	2621.71
557.68	2620.39
558.03	2619.34
558.39	2618.55
558.74	2617.80
559.10	2614.63
559.45	2611.40
559.81	2607.23
560.16	2602.33
560.52	2597.57
560.87	2592.88
561.23	2587.50
561.58	2581.18
561.94	2574.61
562.29	2567.73
562.64	2560.67
563.00	2552.87
563.35	2546.72
563.71	2540.24
564.06	2534.30
564.42	2527.43
564.77	2520.26
565.12	2512.88
565.48	2504.86
565.83	2496.68
566.19	2488.50
566.54	2481.15
566.89	2473.14
567.25	2465.50
567.60	2458.07
567.96	2450.25
568.31	2442.30
568.66	2433.97
569.02	2425.20
569.37	2417.13
569.72	2409.15
570.08	2399.76
570.43	2390.16
570.78	2380.94
571.14	2371.43
571.49	2360.94
571.84	2351.67
572.20	2340.67
572.55	2330.60
572.90	2320.00
573.26	2309.70
573.61	2298.55
573.96	2287.32
574.31	2275.11
574.67	2262.81
575.02	2250.42
575.37	2237.79
575.72	2224.22
576.08	2211.63
576.43	2199.40
576.78	2186.07
577.13	2172.30
577.49	2159.27
577.84	2147.05
578.19	2134.69
578.54	2121.94
578.90	2109.72
579.25	2097.36
579.60	2084.91
579.95	2071.59
580.30	2058.11
580.66	2044.35
581.01	2030.75
581.36	2016.40
581.71	2003.81
582.06	1990.99
582.42	1978.11
582.77	1965.46
583.12	1953.76
583.47	1941.31
583.82	1928.77
584.17	1916.72
584.53	1904.84
584.88	1892.15
585.23	1879.17
585.58	1865.06
585.93	1851.82
586.28	1838.52
586.63	1824.40
586.98	1810.06
587.34	1797.01
587.69	1783.85
588.04	1771.25
588.39	1758.88
588.74	1746.89
589.09	1734.71
589.44	1721.98
589.79	1710.13
590.14	1697.92
590.49	1685.67
590.84	1673.65
591.19	1661.61
591.54	1649.15
591.89	1637.00
592.25	1626.68
592.60	1615.30
592.95	1603.84
593.30	1591.78
593.65	1579.99
594.00	1567.68
594.35	1557.89
594.70	1545.71
595.05	1534.19
595.40	1522.01
595.75	1510.02
596.10	1498.46
596.45	1486.57
596.80	1475.43
597.15	1463.84
597.50	1452.19
597.85	1440.62
598.19	1428.71
598.54	1417.06
598.89	1405.75
599.24	1395.11
599.59	1383.34
599.94	1372.36
600.29	1361.82
600.64	1351.34
600.99	1340.37
601.34	1330.86
601.69	1319.38
602.04	1309.66
602.39	1300.03
602.74	1290.85
603.08	1281.45
603.43	1272.16
603.78	1262.44
604.13	1252.85
604.48	1242.90
604.83	1233.28
605.18	1223.52
605.53	1214.08
605.87	1204.62
606.22	1196.09
606.57	1186.45
606.92	1176.88
607.27	1167.48
607.62	1158.55
607.96	1149.90
608.31	1142.00
608.66	1133.62
609.01	1125.10
609.36	1116.11
609.70	1107.32
610.05	1098.48
610.40	1089.93
610.75	1081.04
611.10	1072.51
611.44	1063.95
611.79	1055.80
612.14	1047.69
612.49	1039.56
612.83	1032.14
613.18	1024.47
613.53	1016.64
613.88	1008.61
614.22	1000.95
614.57	993.25
614.92	985.35
615.27	977.93
615.61	970.02
615.96	962.13
616.31	954.62
616.65	947.78
617.00	940.39
617.35	932.99
617.70	925.78
618.04	918.55
618.39	911.75
618.74	904.97
619.08	898.05
619.43	890.92
619.78	883.86
620.12	876.51
620.47	869.41
620.82	862.13
621.16	855.40
621.51	849.09
621.85	842.69
622.20	836.07
622.55	829.16
622.89	822.66
623.24	816.34
623.59	809.94
623.93	803.51
624.28	797.41
624.62	791.69
624.97	785.77
625.32	780.06
625.66	773.92
626.01	767.95
626.35	762.28
626.70	756.54
627.04	751.45
627.39	746.01
627.73	740.69
628.08	735.43
628.43	729.89
628.77	724.15
629.12	718.76
629.46	713.78
629.81	709.11
630.15	704.11
630.50	699.01
630.84	694.06
631.19	689.07
631.53	684.39
631.88	679.12
632.22	674.11
632.57	669.46
632.91	664.85
633.26	660.18
633.60	655.63
633.95	650.97
634.29	645.97
634.64	641.23
634.98	636.42
635.32	632.06
635.67	628.03
636.01	623.76
636.36	619.35
636.70	615.18
637.05	610.72
637.39	606.66
637.73	602.58
638.08	598.59
638.42	594.39
638.77	590.05
639.11	585.77
639.45	581.55
639.80	577.01
640.14	572.74
640.49	568.83
640.83	564.76
641.17	561.15
641.52	557.51
641.86	553.98
642.20	550.77
642.55	546.94
642.89	543.35
643.23	539.76
643.58	536.66
643.92	532.96
644.26	529.60
644.61	526.29
644.95	522.95
645.29	519.54
645.64	516.51
645.98	513.40
646.32	510.46
646.66	507.19
647.01	504.32
647.35	501.75
647.69	498.79
648.04	496.08
648.38	493.17
648.72	490.19
649.06	487.03
649.41	483.86
649.75	480.97
650.09	478.00
650.43	475.20
650.78	472.17
651.12	469.49
651.46	466.64
651.80	463.83
652.14	461.14
652.49	458.56
652.83	455.87
653.17	453.18
653.51	450.43
653.85	448.14
654.20	445.67
654.54	442.92
654.88	440.21
655.22	437.94
655.56	435.42
655.90	433.00
656.25	430.75
656.59	428.55
656.93	426.35
657.27	424.29
657.61	421.74
657.95	419.50
658.29	417.26
658.64	415.12
658.98	412.86
659.32	410.58
659.66	408.26
660.00	406.23
660.34	404.16
660.68	402.11
661.02	399.99
661.36	397.96
661.70	395.85
662.05	393.98
662.39	391.95
662.73	390.20
663.07	388.63
663.41	386.83
663.75	384.86
664.09	383.05
664.43	381.03
664.77	379.42
665.11	377.50
665.45	375.80
665.79	374.20
666.13	372.59
666.47	370.92
666.81	369.24
667.15	367.30
667.49	365.80
667.83	364.37
668.17	362.77
668.51	361.39
668.85	360.15
669.19	358.92
669.53	357.29
669.87	355.67
670.21	354.01
670.55	352.66
670.89	351.56
671.23	350.08
671.57	348.74
671.91	347.47
672.25	346.21
672.58	344.99
672.92	343.46
673.26	342.07
673.60	340.77
673.94	339.55
674.28	338.53
674.62	337.34
674.96	336.08
675.30	334.96
675.64	333.64
675.97	332.40
676.31	331.08
676.65	329.81
676.99	329.01
677.33	327.84
677.67	326.74
678.01	325.47
678.34	324.48
678.68	323.55
679.02	322.39
679.36	321.42
679.70	320.45
680.04	319.62
680.37	318.69
680.71	317.80
681.05	316.97
681.39	315.97
681.73	314.98
682.06	314.04
682.40	313.15
682.74	312.32
683.08	311.57
683.42	310.68
683.75	309.92
684.09	308.86
684.43	308.05
684.77	307.16
685.10	306.42
685.44	305.61
685.78	304.73
686.12	303.98
686.45	303.13
686.79	302.15
687.13	301.39
687.46	300.61
687.80	299.99
688.14	299.13
688.48	298.35
688.81	297.56
689.15	296.97
689.49	296.16
689.82	295.49
690.16	294.49
690.50	293.78
690.83	293.08
691.17	292.25
691.51	291.59
691.84	291.00
692.18	290.24
692.52	289.45
692.85	288.83
693.19	288.44
693.52	287.83
693.86	287.20
694.20	286.57
694.53	286.00
694.87	285.29
695.21	284.70
695.54	284.18
695.88	283.56
696.21	282.79
696.55	282.32
696.88	281.74
697.22	281.20
697.56	280.71
697.89	280.13
698.23	279.79
698.56	279.21
698.90	278.71
699.23	278.17
699.57	277.77
699.90	277.18
700.24	276.49
700.58	276.05
700.91	275.74
701.25	275.55
701.58	275.39
701.92	275.01
702.25	274.60
702.59	274.14
702.92	273.80
703.26	273.43
703.59	272.97
703.93	272.93
704.26	272.58
704.60	272.09
704.93	271.70
705.26	271.16
705.60	270.83
705.93	270.35
706.27	270.09
706.60	269.76
706.94	269.56
707.27	269.14
707.61	268.81
707.94	268.40
708.27	267.70
708.61	266.98
708.94	266.59
709.28	266.28
709.61	265.84
709.94	265.40
710.28	265.03
710.61	264.66
710.95	263.84
711.28	263.88
711.61	263.53
711.95	263.19
712.28	262.82
712.61	262.43
712.95	262.30
713.28	262.07
713.61	261.68
713.95	261.17
714.28	260.85
714.61	260.46
714.95	260.03
715.28	259.67
715.61	259.38
715.95	259.05
716.28	258.56
716.61	258.36
716.95	258.04
717.28	257.70
717.61	257.42
717.94	257.16
718.28	256.45
718.61	256.13
718.94	255.76
719.27	255.45
719.61	255.17
719.94	254.77
720.27	254.31
720.60	254.04
720.94	253.90
721.27	253.69
721.60	253.45
721.93	253.21
722.27	253.12
722.60	252.94
722.93	252.67
723.26	252.49
723.59	252.16
723.93	252.00
724.26	251.83
724.59	251.57
724.92	251.38
725.25	251.36
725.59	251.29
725.92	251.22
726.25	251.00
726.58	250.92
726.91	250.68
727.24	250.65
727.57	250.43
727.91	250.15
728.24	250.06
728.57	249.88
728.90	249.74
729.23	249.42
729.56	249.33
729.89	249.19
730.22	249.05
730.55	248.93
730.89	248.75
731.22	248.56
731.55	248.30
731.88	248.18
732.21	247.81
732.54	247.51
732.87	247.33
733.20	247.23
733.53	247.04
733.86	246.96
734.19	246.66
734.52	246.52
734.85	246.59
735.18	246.32
735.51	246.25
735.84	246.11
736.17	246.06
736.50	245.72
736.83	246.03
737.16	245.87
737.49	245.75
737.82	245.61
738.15	245.54
738.48	245.50
738.81	245.28
739.14	245.17
739.47	244.99
739.80	244.75
740.13	244.63
740.46	244.46
740.79	244.25
741.12	244.01
741.45	243.75
741.78	243.39
742.11	243.34
742.44	243.09
742.77	243.01
743.10	242.89
743.43	242.81
743.75	242.20
744.08	242.63
744.41	242.40
744.74	242.18
745.07	241.96
745.40	241.91
745.73	241.89
746.06	241.79
746.39	241.81
746.71	241.68
747.04	241.50
747.37	241.35
747.70	241.27
748.03	241.28
748.36	241.29
748.68	241.21
749.01	240.96
749.34	240.83
749.67	240.81
750.00	240.68
750.33	240.82
750.65	240.75
750.98	240.10
751.31	240.10
751.64	239.97
751.97	240.03
752.29	239.82
752.62	239.59
752.95	239.46
753.28	239.18
753.60	239.02
753.93	239.07
754.26	239.02
754.59	238.76
754.91	238.55
755.24	238.40
755.57	238.28
755.90	238.20
756.22	238.10
756.55	237.78
756.88	237.64
757.20	237.20
757.53	236.94
757.86	236.78
758.19	236.67
758.51	236.61
758.84	236.35
759.17	236.19
759.49	236.06
759.82	236.22
760.15	236.20
760.47	236.14
760.80	235.85
761.13	235.70
761.45	235.65
761.78	235.63
762.11	235.57
762.43	235.36
762.76	235.26
763.08	235.26
763.41	235.26
763.74	235.18
764.06	235.12
764.39	235.03
764.71	234.88
765.04	234.70
765.37	234.65
765.69	234.55
766.02	234.46
766.34	234.40
766.67	233.99
767.00	234.01
767.32	234.21
767.65	234.44
767.97	234.38
768.30	234.29
768.62	234.15
768.95	234.05
769.27	234.05
769.60	234.00
769.92	233.83
770.25	233.66
770.57	233.53
770.90	233.45
771.22	233.41
771.55	233.46
771.87	233.42
772.20	233.37
772.52	233.64
772.85	234.16
773.17	234.15
773.50	234.13
773.82	233.97
774.15	233.62
774.47	233.28
774.80	233.24
775.12	233.20
775.45	233.14
775.77	233.12
776.09	233.07
776.42	233.05
776.74	233.10
777.07	233.06
777.39	232.99
777.72	232.94
778.04	232.93
778.36	232.81
778.69	232.84
779.01	232.74
779.33	232.31
779.66	231.75
779.98	231.70
780.31	231.67
780.63	231.86
780.95	231.92
781.28	231.86
781.60	231.79
781.92	231.68
782.25	231.69
782.57	231.64
782.89	231.57
783.22	231.54
783.54	231.41
783.86	231.33
784.19	231.32
784.51	231.44
784.83	231.39
785.16	231.38
785.48	231.34
785.80	231.36
786.12	231.45
786.45	231.42
786.77	231.39
787.09	231.39
787.42	231.15
787.74	231.12
788.06	231.14
788.38	231.07
788.71	231.10
789.03	231.09
789.35	231.13
789.67	231.05
789.99	231.05
790.32	231.02
790.64	231.13
790.96	231.48
791.28	231.30
791.61	231.27
791.93	231.34
792.25	231.30
792.57	231.63
792.89	231.52
793.21	231.46
793.54	231.37
793.86	231.35
794.18	231.35
794.50	231.23
794.82	231.19
795.14	231.18
795.47	231.26
795.79	231.20
796.11	231.05
796.43	231.04
796.75	231.03
797.07	230.99
797.39	230.88
797.71	230.59
798.04	230.54
798.36	230.52
798.68	230.41
799.00	230.40
799.32	230.01
799.64	230.10
799.96	230.11
800.28	230.19
800.60	230.06
800.92	230.04
801.24	230.05
801.56	230.09
801.89	230.12
802.21	230.05
802.53	229.92
802.85	229.99
803.17	230.16
803.49	230.03
803.81	230.00
804.13	229.95
804.45	229.83
804.77	229.88
805.09	229.88
805.41	229.77
805.73	229.64
806.05	229.60
806.37	229.51
806.69	229.45
807.01	229.35
807.33	229.39
807.65	229.11
807.97	229.30
808.28	229.20
808.60	229.06
808.92	228.99
809.24	229.32
809.56	229.25
809.88	229.06
810.20	229.08
810.52	229.19
810.84	229.18
811.16	229.08
811.48	229.07
811.80	229.21
812.12	229.24
812.43	229.31
812.75	229.32
813.07	229.24
813.39	229.32
813.71	229.27
814.03	229.22
814.35	229.32
814.67	229.13
814.98	229.04
815.30	229.05
815.62	228.91
815.94	228.55
816.26	228.67
816.58	228.61
816.89	228.59
817.21	228.38
817.53	228.33
817.85	228.34
818.17	228.32
818.48	228.06
818.80	228.15
819.12	228.04
819.44	227.91
819.76	227.85
820.07	227.74
820.39	227.70
820.71	227.73
821.03	227.80
821.34	227.74
821.66	227.82
821.98	227.86
822.30	227.88
822.61	228.11
822.93	227.87
823.25	227.88
823.57	227.82
823.88	227.92
824.20	227.94
824.52	228.01
824.83	227.97
825.15	227.98
825.47	227.96
825.79	228.08
826.10	228.09
826.42	228.05
826.74	228.09
827.05	228.14
827.37	228.17
827.69	228.15
828.00	228.16
828.32	228.20
828.64	228.15
828.95	228.48
829.27	228.43
829.58	228.46
829.90	228.58
830.22	228.69
830.53	228.60
830.85	228.48
831.17	228.37
831.48	228.32
831.80	228.31
832.11	228.24
832.43	228.15
832.75	228.14
833.06	228.47
833.38	228.41
833.69	228.43
834.01	228.43
834.32	228.37
834.64	228.30
834.96	228.28
835.27	228.27
835.59	228.06
835.90	227.97
836.22	228.05
836.53	227.93
836.85	227.88
837.16	228.35
837.48	228.42
837.79	228.56
838.11	228.63
838.42	228.65
838.74	228.73
839.05	228.69
839.37	228.71
839.68	228.38
840.00	228.29
840.31	228.27
840.63	228.17
840.94	228.19
841.26	228.20
841.57	228.15
841.88	228.22
842.20	228.17
842.51	228.12
842.83	228.10
843.14	228.49
843.46	228.47
843.77	228.24
844.08	228.19
844.40	228.05
844.71	227.97
845.03	227.84
845.34	227.78
845.65	227.79
845.97	227.72
846.28	227.78
846.60	227.78
846.91	227.71
847.22	227.77
847.54	227.80
847.85	227.77
848.16	227.76
848.48	227.65
848.79	227.81
849.10	227.86
849.42	227.77
849.73	227.31
850.04	227.25
850.36	227.05
850.67	227.11
850.98	227.10
851.30	227.11
851.61	227.10
851.92	227.09
852.23	227.17
852.55	227.26
852.86	227.20
853.17	227.31
853.49	227.50
853.80	227.54
854.11	227.59
854.42	227.71
854.74	227.67
855.05	227.69
855.36	227.42
855.67	227.41
855.99	227.53
856.30	228.11
856.61	228.12
856.92	228.11
857.23	228.15
857.55	228.09
857.86	228.15
858.17	228.29
858.48	228.24
858.79	228.12
859.11	228.14
859.42	228.15
859.73	228.08
860.04	228.02
860.35	227.95
860.66	227.81
860.98	227.74
861.29	227.82
861.60	227.85
861.91	228.00
862.22	227.93
862.53	227.79
862.84	227.26
863.16	227.36
863.47	227.40
863.78	227.30
864.09	227.39
864.40	227.33
864.71	227.36
865.02	227.46
865.33	227.44
865.64	227.39
865.95	227.40
866.27	227.71
866.58	227.63
866.89	227.64
867.20	227.64
867.51	227.58
867.82	227.58
868.13	227.71
868.44	227.63
868.75	227.76
869.06	227.84
869.37	227.87
869.68	227.78
869.99	227.77
870.30	227.86
870.61	227.84
870.92	227.83
871.23	227.78
871.54	227.81
871.85	227.98
872.16	227.98
872.47	227.94
872.78	227.57
873.09	227.61
873.40	227.58
873.71	227.60
874.02	227.65
874.33	227.56
874.64	227.50
874.95	227.54
875.26	227.43
875.56	227.40
875.87	227.34
876.18	227.34
876.49	227.80
876.80	227.78
877.11	227.72
877.42	227.76
877.73	227.78
878.04	227.67
878.35	227.61
878.66	227.66
878.96	227.67
879.27	227.70
879.58	227.76
879.89	227.78
880.20	227.90
880.51	227.85
880.82	227.93
881.12	227.90
881.43	227.79
881.74	227.72
882.05	227.70
882.36	227.75
882.67	227.76
882.97	227.30
883.28	227.20
883.59	227.22
883.90	227.35
884.21	227.40
884.51	227.38
884.82	227.30
885.13	227.32
885.44	227.31
885.74	227.37
886.05	227.31
886.36	227.30
886.67	227.18
886.98	227.35
887.28	227.37
887.59	227.36
887.90	227.40
888.20	227.45
888.51	227.59
888.82	227.52
889.13	227.58
889.43	227.93
889.74	227.92
890.05	227.95
890.35	227.88
890.66	227.80
890.97	227.74
891.28	227.71
891.58	227.69
891.89	227.64
892.20	227.54
892.50	227.50
892.81	227.45
893.12	227.45
893.42	227.24
893.73	227.20
894.04	227.12
894.34	227.15
894.65	227.05
894.95	226.85
895.26	226.83
895.57	226.97
895.87	226.47
896.18	226.56
896.48	226.55
896.79	226.37
897.10	226.43
897.40	226.46
897.71	226.55
898.01	226.42
898.32	226.49
898.63	226.53
898.93	226.50
899.24	226.48
899.54	226.40
899.85	226.48
900.15	226.46
900.46	226.48
900.76	226.49
901.07	226.53
901.38	226.58
901.68	226.65
901.99	226.45
902.29	226.52
902.60	226.44
902.90	226.44
903.21	226.53
903.51	226.49
903.82	226.59
904.12	226.56
904.43	226.63
904.73	226.69
905.03	226.67
905.34	227.14
905.64	227.10
905.95	227.22
906.25	227.17
906.56	227.06
906.86	227.11
907.17	227.07
907.47	227.06
907.77	227.00
908.08	226.88
908.38	226.95
908.69	227.05
908.99	227.25
909.30	227.16
909.60	227.18
909.90	227.15
910.21	227.04
910.51	227.00
910.81	226.96
911.12	226.91
911.42	226.93
911.73	226.48
912.03	226.56
912.33	226.51
912.64	226.47
912.94	226.50
913.24	226.44
913.55	226.42
913.85	226.36
914.15	226.50
914.46	226.63
914.76	226.54
915.06	226.45
915.37	226.30
915.67	226.38
915.97	226.38
916.27	226.30
916.58	226.36
916.88	226.34
917.18	226.34
917.49	226.65
917.79	226.58
918.09	226.61
918.39	226.74
918.70	226.76
919.00	226.81
919.30	227.04
919.60	226.97
919.91	226.95
920.21	227.00
920.51	226.82
920.81	226.78
921.12	226.85
921.42	226.90
921.72	226.95
922.02	226.95
922.32	227.02
922.63	227.07
922.93	227.21
923.23	227.24
923.53	227.21
923.83	226.92
924.13	226.96
924.44	227.03
924.74	227.11
925.04	227.23
925.34	227.20
925.64	227.03
925.94	227.04
926.24	227.30
926.55	227.29
926.85	227.40
927.15	227.35
927.45	227.31
927.75	227.27
928.05	227.24
928.35	227.13
928.65	227.16
928.95	227.19
929.26	227.04
929.56	227.12
929.86	227.20
930.16	227.16
930.46	227.13
930.76	227.02
931.06	226.75
931.36	226.56
931.66	226.65
931.96	226.71
932.26	226.80
932.56	226.67
932.86	226.70
933.16	226.73
933.46	226.68
933.76	226.62
934.06	226.73
934.36	226.90
934.66	226.95
934.96	226.90
935.26	226.83
935.56	226.93
935.86	226.76
936.16	226.71
936.46	226.61
936.76	226.67
937.06	226.66
937.36	226.75
937.66	226.82
937.96	226.77
938.26	226.63
938.56	226.51
938.86	226.51
939.16	226.56
939.46	226.57
939.76	226.66
940.06	226.61
940.35	226.52
940.65	226.25
940.95	226.21
941.25	226.08
941.55	226.14
941.85	226.05
942.15	226.18
942.45	226.31
942.75	226.40
943.04	226.33
943.34	226.38
943.64	226.35
943.94	226.27
944.24	226.27
944.54	226.32
944.84	226.39
945.13	226.35
945.43	226.31
945.73	226.38
946.03	226.32
946.33	226.40
946.62	226.38
946.92	226.38
947.22	226.48
947.52	226.61
947.82	226.65
948.11	226.58
948.41	226.53
948.71	226.36
949.01	226.35
949.31	226.36
949.60	226.33
949.90	226.30
950.20	226.29
950.50	226.30
950.79	226.27
951.09	226.29
951.39	226.23
951.69	226.16
951.98	226.19
952.28	226.19
952.58	226.14
952.87	226.11
953.17	226.22
953.47	226.16
953.76	226.00
954.06	225.90
954.36	225.90
954.66	225.87
954.95	226.05
955.25	226.09
955.55	226.15
955.84	226.09
956.14	226.15
956.44	226.24
956.73	226.11
957.03	226.15
957.32	226.17
957.62	226.16
957.92	226.30
958.21	226.27
958.51	226.81
958.81	226.90
959.10	226.96
959.40	227.07
959.69	227.11
959.99	227.21
960.29	227.28
960.58	227.27
960.88	227.50
961.17	227.36
961.47	227.43
961.76	227.40
962.06	227.53
962.36	227.54
962.65	227.59
962.95	227.67
963.24	227.69
963.54	227.69
963.83	227.74
964.13	227.71
964.42	227.62
964.72	227.33
965.01	227.29
965.31	227.27
965.60	227.16
965.90	227.44
966.19	227.43
966.49	227.43
966.78	227.38
967.08	227.32
967.37	227.33
967.67	227.24
967.96	227.33
968.26	227.32
968.55	227.41
968.85	227.32
969.14	227.36
969.43	227.34
969.73	227.30
970.02	227.28
970.32	227.28
970.61	227.26
970.91	227.11
971.20	227.01
971.49	226.95
971.79	227.02
972.08	226.70
972.38	226.71
972.67	226.67
972.96	226.84
973.26	226.75
973.55	226.92
973.85	226.86
974.14	226.76
974.43	226.84
974.73	226.70
975.02	226.67
975.31	226.69
975.61	226.73
975.90	226.66
976.19	226.61
976.49	226.61
976.78	226.62
977.07	226.57
977.37	226.64
977.66	226.72
977.95	226.63
978.24	226.70
978.54	226.81
978.83	226.83
979.12	226.76
979.42	226.81
979.71	226.74
980.00	226.76
980.29	226.87
980.59	226.70
980.88	226.86
981.17	226.93
981.46	226.89
981.76	226.84
982.05	227.02
982.34	227.05
982.63	227.03
982.93	227.02
983.22	227.20
983.51	227.32
983.80	227.37
984.09	227.46
984.39	227.37
984.68	227.24
984.97	227.26
985.26	227.29
985.55	227.25
985.85	227.15
986.14	227.25
986.43	227.29
986.72	227.30
987.01	227.08
987.30	227.06
987.59	227.01
987.89	227.04
988.18	226.95
988.47	226.87
988.76	226.91
989.05	226.90
989.34	226.72
989.63	226.76
989.92	226.64
990.22	226.59
990.51	226.64
990.80	226.68
991.09	226.70
991.38	226.65
991.67	226.61
991.96	226.56
992.25	226.55
992.54	226.45
992.83	226.45
993.12	226.44
993.41	226.49
993.70	226.70
993.99	226.82
994.28	226.81
994.58	226.93
994.87	226.88
995.16	226.88
995.45	226.88
995.74	226.67
996.03	226.74
996.32	226.78
996.61	226.84
996.90	226.79
997.19	226.73
997.48	226.71
997.77	226.61
998.06	226.64
998.34	226.54
998.63	226.48
998.92	226.52
999.21	226.64
999.50	226.60
999.79	226.42
1000.08	226.32
1000.37	226.34
1000.66	226.19
1000.95	226.25
1001.24	226.19
1001.53	226.25
1001.82	226.25
1002.11	226.17
1002.40	226.17
1002.68	226.30
1002.97	226.64
1003.26	226.62
1003.55	226.55
1003.84	226.59
1004.13	226.74
1004.42	226.72
1004.71	226.68
1004.99	226.58
1005.28	226.66
1005.57	226.69
1005.86	226.65
1006.15	226.63
1006.44	226.52
1006.72	226.70
1007.01	226.56
1007.30	226.66
1007.59	226.63
1007.88	226.65
1008.17	226.67
1008.45	226.61
1008.74	226.33
1009.03	226.10
1009.32	226.14
1009.60	226.24
1009.89	226.23
1010.18	226.04
1010.47	226.04
1010.76	226.15
1011.04	226.13
1011.33	226.19
1011.62	226.15
1011.91	226.22
1012.19	226.23
1012.48	226.30
1012.77	226.25
1013.05	226.55
1013.34	226.58
1013.63	226.56
1013.92	226.55
1014.20	226.51
1014.49	226.58
1014.78	226.70
1015.06	226.58
1015.35	226.55
1015.64	226.57
1015.92	226.68
1016.21	226.75
1016.50	226.75
1016.78	226.71
1017.07	226.85
1017.36	226.64
1017.64	226.60
1017.93	226.72
1018.22	226.66
1018.50	226.64
1018.79	226.66
1019.08	226.41
1019.36	226.36
1019.65	226.31
1019.93	226.49
1020.22	226.54
1020.51	226.75
1020.79	226.65
1021.08	225.75
1021.36	225.40
1021.65	226.80
1021.94	226.50
1022.22	226.15
1022.51	225.70
1022.79	228.65
1023.08	226.20
1023.36	232.45
1023.65	224.95
>>>>>End Processed Spectral Data<<<<<
