SpectraSuite Data File
++++++++++++++++++++++++++++++++++++
Date: Wed Sep 04 17:46:39 EDT 2013
User: lab3
Dark Spectrum Present: Yes
Reference Spectrum Present: No
Number of Sampled Component Spectra: 1
Spectrometers: USB2E7196
Integration Time (usec): 170000 (USB2E7196)
Spectra Averaged: 20 (USB2E7196)
Boxcar Smoothing: 10 (USB2E7196)
Correct for Electrical Dark: No (USB2E7196)
Strobe/Lamp Enabled: No (USB2E7196)
Correct for Detector Non-linearity: No (USB2E7196)
Correct for Stray Light: No (USB2E7196)
Number of Pixels in Processed Spectrum: 2048
>>>>>Begin Processed Spectral Data<<<<<
339.09	0.00
339.48	212.70
339.86	214.40
340.24	215.25
340.63	216.00
341.01	225.70
341.39	218.65
341.78	222.30
342.16	221.90
342.54	222.70
342.93	211.76
343.31	222.42
343.69	222.90
344.07	223.33
344.46	223.84
344.84	224.25
345.22	224.23
345.60	224.50
345.99	224.68
346.37	224.85
346.75	224.94
347.13	225.01
347.52	225.03
347.90	225.17
348.28	225.28
348.66	225.40
349.05	225.29
349.43	225.44
349.81	225.51
350.19	225.56
350.57	225.67
350.96	225.74
351.34	225.85
351.72	226.00
352.10	226.06
352.48	226.04
352.87	226.16
353.25	226.19
353.63	226.29
354.01	226.28
354.39	226.35
354.77	226.44
355.15	226.69
355.54	226.70
355.92	226.58
356.30	226.63
356.68	226.99
357.06	227.09
357.44	227.03
357.82	227.05
358.20	227.45
358.58	227.46
358.97	227.59
359.35	227.74
359.73	227.87
360.11	228.00
360.49	228.06
360.87	228.05
361.25	228.13
361.63	228.34
362.01	228.38
362.39	228.40
362.77	228.51
363.15	228.45
363.53	228.50
363.91	228.65
364.29	228.64
364.67	228.23
365.05	228.27
365.43	228.43
365.81	228.55
366.19	228.54
366.57	228.82
366.95	228.71
367.33	228.62
367.71	228.64
368.09	228.72
368.47	228.81
368.85	228.86
369.23	229.02
369.61	228.85
369.99	229.08
370.37	229.23
370.75	229.43
371.13	229.40
371.51	229.34
371.89	229.30
372.27	229.30
372.65	229.34
373.03	229.39
373.41	229.24
373.78	229.17
374.16	228.81
374.54	228.60
374.92	228.61
375.30	228.56
375.68	228.37
376.06	228.34
376.44	228.26
376.82	228.19
377.19	228.09
377.57	228.00
377.95	227.76
378.33	227.61
378.71	227.25
379.09	227.21
379.47	227.21
379.84	227.17
380.22	227.13
380.60	226.96
380.98	226.85
381.36	226.79
381.73	226.65
382.11	226.67
382.49	226.57
382.87	226.41
383.25	226.37
383.62	226.99
384.00	226.87
384.38	226.82
384.76	226.99
385.13	227.11
385.51	227.09
385.89	226.96
386.27	226.90
386.64	226.90
387.02	226.80
387.40	226.72
387.78	226.75
388.15	226.77
388.53	226.71
388.91	226.59
389.29	226.60
389.66	226.61
390.04	226.59
390.42	226.75
390.79	226.83
391.17	226.83
391.55	226.17
391.92	226.16
392.30	226.24
392.68	226.05
393.05	225.98
393.43	226.05
393.81	226.13
394.18	226.08
394.56	226.17
394.94	226.41
395.31	226.42
395.69	226.54
396.06	226.62
396.44	226.76
396.82	226.85
397.19	227.17
397.57	227.22
397.95	227.33
398.32	227.20
398.70	227.32
399.07	227.55
399.45	227.69
399.82	227.76
400.20	227.78
400.58	227.85
400.95	227.78
401.33	227.97
401.70	228.41
402.08	228.55
402.45	228.67
402.83	228.77
403.20	228.90
403.58	228.92
403.95	229.11
404.33	229.37
404.71	229.59
405.08	229.99
405.46	230.21
405.83	230.38
406.21	230.66
406.58	230.91
406.96	231.12
407.33	231.37
407.70	231.74
408.08	232.37
408.45	232.85
408.83	233.34
409.20	233.70
409.58	233.82
409.95	234.37
410.33	234.85
410.70	235.27
411.08	235.95
411.45	236.58
411.82	237.13
412.20	237.82
412.57	238.70
412.95	238.95
413.32	239.76
413.69	240.66
414.07	241.55
414.44	242.50
414.82	243.47
415.19	244.74
415.56	245.87
415.94	246.93
416.31	248.27
416.68	249.61
417.06	251.22
417.43	252.83
417.81	254.51
418.18	256.28
418.55	258.18
418.93	260.07
419.30	262.13
419.67	264.32
420.04	266.50
420.42	268.83
420.79	271.94
421.16	274.67
421.54	277.60
421.91	280.51
422.28	283.53
422.66	286.69
423.03	290.00
423.40	293.28
423.77	296.79
424.15	300.36
424.52	304.15
424.89	308.20
425.26	312.13
425.64	315.92
426.01	320.07
426.38	324.37
426.75	328.81
427.13	333.21
427.50	337.83
427.87	342.69
428.24	347.51
428.61	351.92
428.99	357.18
429.36	362.54
429.73	367.98
430.10	373.36
430.47	378.89
430.85	384.46
431.22	390.59
431.59	397.21
431.96	403.27
432.33	410.08
432.70	416.53
433.08	424.25
433.45	431.55
433.82	438.80
434.19	446.81
434.56	454.73
434.93	462.49
435.30	469.97
435.68	478.39
436.05	486.67
436.42	494.72
436.79	502.29
437.16	510.53
437.53	519.15
437.90	527.74
438.27	536.23
438.64	544.88
439.01	552.86
439.38	559.92
439.75	567.02
440.13	574.81
440.50	582.26
440.87	588.26
441.24	594.46
441.61	601.19
441.98	606.15
442.35	611.87
442.72	617.60
443.09	623.52
443.46	626.93
443.83	629.20
444.20	631.37
444.57	634.02
444.94	635.15
445.31	636.39
445.68	637.67
446.05	637.90
446.42	636.75
446.79	635.52
447.16	633.83
447.53	632.58
447.90	629.06
448.27	625.52
448.64	620.70
449.01	617.20
449.37	611.33
449.74	605.45
450.11	599.00
450.48	591.60
450.85	583.76
451.22	577.00
451.59	570.61
451.96	564.40
452.33	556.34
452.70	549.11
453.07	540.41
453.43	531.55
453.80	523.31
454.17	515.38
454.54	507.85
454.91	500.04
455.28	492.26
455.65	484.90
456.02	478.27
456.38	472.12
456.75	464.50
457.12	458.11
457.49	452.02
457.86	445.63
458.23	440.48
458.59	434.94
458.96	429.32
459.33	424.20
459.70	419.17
460.07	415.17
460.43	410.63
460.80	406.45
461.17	402.83
461.54	398.85
461.91	395.16
462.27	391.33
462.64	387.96
463.01	384.33
463.38	381.05
463.74	377.00
464.11	373.94
464.48	371.28
464.85	368.49
465.21	366.28
465.58	363.96
465.95	361.07
466.32	358.84
466.68	356.60
467.05	354.45
467.42	352.21
467.78	350.02
468.15	347.84
468.52	346.27
468.88	344.08
469.25	342.23
469.62	340.85
469.98	339.17
470.35	337.78
470.72	336.35
471.08	334.76
471.45	333.54
471.82	332.33
472.18	330.89
472.55	329.86
472.92	328.53
473.28	327.44
473.65	326.39
474.02	325.26
474.38	324.39
474.75	323.71
475.11	322.86
475.48	322.18
475.85	321.54
476.21	320.86
476.58	320.31
476.94	319.97
477.31	319.40
477.67	319.06
478.04	318.72
478.41	318.50
478.77	318.70
479.14	318.42
479.50	318.22
479.87	318.29
480.23	318.26
480.60	318.34
480.96	318.27
481.33	318.60
481.69	318.92
482.06	319.09
482.42	319.19
482.79	319.52
483.15	320.05
483.52	320.64
483.88	321.14
484.25	321.61
484.61	322.18
484.98	322.89
485.34	323.84
485.71	324.73
486.07	325.77
486.44	326.39
486.80	327.40
487.17	328.57
487.53	329.91
487.90	331.26
488.26	332.88
488.62	334.64
488.99	336.15
489.35	337.86
489.72	339.76
490.08	341.76
490.44	343.84
490.81	346.03
491.17	348.20
491.54	350.70
491.90	353.25
492.26	355.97
492.63	358.66
492.99	361.44
493.36	364.38
493.72	367.65
494.08	371.14
494.45	374.89
494.81	378.87
495.17	382.69
495.54	386.85
495.90	391.05
496.26	395.45
496.63	400.14
496.99	404.85
497.35	409.90
497.72	415.23
498.08	420.61
498.44	426.13
498.80	432.16
499.17	438.05
499.53	444.21
499.89	450.74
500.26	457.52
500.62	464.48
500.98	471.92
501.34	479.31
501.71	486.95
502.07	494.60
502.43	502.53
502.79	510.86
503.16	519.51
503.52	528.29
503.88	537.45
504.24	547.04
504.60	556.96
504.97	567.14
505.33	577.45
505.69	588.44
506.05	599.50
506.41	610.58
506.78	622.30
507.14	634.36
507.50	646.62
507.86	659.17
508.22	672.00
508.59	684.77
508.95	698.05
509.31	712.03
509.67	726.08
510.03	740.12
510.39	754.64
510.75	769.52
511.12	784.62
511.48	800.06
511.84	815.64
512.20	831.19
512.56	847.23
512.92	863.64
513.28	880.25
513.64	897.24
514.00	914.46
514.37	931.89
514.73	949.82
515.09	967.88
515.45	986.07
515.81	1004.32
516.17	1023.04
516.53	1041.75
516.89	1060.19
517.25	1079.40
517.61	1099.65
517.97	1119.75
518.33	1139.56
518.69	1159.53
519.05	1179.79
519.41	1200.09
519.77	1221.15
520.13	1241.61
520.49	1262.23
520.85	1284.28
521.21	1305.01
521.57	1326.32
521.93	1346.87
522.29	1367.53
522.65	1387.79
523.01	1408.70
523.37	1428.85
523.73	1449.53
524.09	1469.77
524.45	1489.97
524.81	1510.20
525.17	1530.24
525.53	1550.34
525.89	1570.73
526.25	1591.24
526.61	1611.21
526.97	1631.85
527.33	1652.65
527.68	1674.06
528.04	1694.68
528.40	1714.12
528.76	1734.69
529.12	1754.32
529.48	1774.57
529.84	1794.59
530.20	1815.30
530.56	1835.29
530.91	1855.89
531.27	1875.89
531.63	1895.87
531.99	1916.27
532.35	1935.84
532.71	1955.71
533.07	1975.80
533.42	1995.14
533.78	2014.76
534.14	2034.20
534.50	2052.72
534.86	2071.17
535.21	2088.27
535.57	2106.58
535.93	2123.67
536.29	2140.90
536.65	2158.30
537.00	2175.62
537.36	2192.80
537.72	2208.58
538.08	2225.32
538.44	2241.11
538.79	2256.62
539.15	2272.77
539.51	2288.02
539.87	2302.91
540.22	2316.28
540.58	2330.07
540.94	2343.16
541.29	2354.95
541.65	2367.16
542.01	2379.31
542.37	2389.43
542.72	2399.92
543.08	2409.91
543.44	2420.98
543.79	2430.45
544.15	2440.13
544.51	2449.48
544.87	2458.50
545.22	2466.78
545.58	2473.96
545.94	2481.10
546.29	2487.41
546.65	2492.98
547.01	2498.17
547.36	2503.55
547.72	2508.27
548.07	2511.94
548.43	2516.39
548.79	2520.57
549.14	2523.96
549.50	2527.24
549.86	2531.18
550.21	2534.54
550.57	2537.55
550.92	2538.62
551.28	2539.65
551.64	2541.69
551.99	2543.29
552.35	2544.33
552.70	2546.30
553.06	2547.58
553.41	2548.25
553.77	2549.91
554.13	2551.56
554.48	2552.88
554.84	2554.07
555.19	2555.11
555.55	2556.73
555.90	2556.03
556.26	2555.28
556.61	2554.03
556.97	2552.03
557.32	2550.64
557.68	2549.00
558.03	2547.17
558.39	2545.40
558.74	2544.35
559.10	2540.75
559.45	2537.14
559.81	2532.74
560.16	2527.25
560.52	2522.41
560.87	2517.86
561.23	2512.28
561.58	2505.99
561.94	2499.02
562.29	2491.48
562.64	2484.57
563.00	2476.31
563.35	2469.64
563.71	2462.69
564.06	2456.09
564.42	2449.26
564.77	2442.74
565.12	2435.16
565.48	2427.50
565.83	2419.59
566.19	2411.39
566.54	2403.60
566.89	2395.10
567.25	2387.24
567.60	2380.06
567.96	2372.34
568.31	2364.55
568.66	2355.77
569.02	2346.76
569.37	2338.68
569.72	2331.24
570.08	2322.08
570.43	2312.16
570.78	2302.79
571.14	2293.69
571.49	2283.38
571.84	2273.95
572.20	2262.99
572.55	2253.24
572.90	2242.26
573.26	2232.23
573.61	2221.45
573.96	2210.58
574.31	2199.37
574.67	2187.73
575.02	2175.37
575.37	2162.89
575.72	2150.16
576.08	2138.46
576.43	2126.25
576.78	2112.92
577.13	2099.11
577.49	2086.86
577.84	2075.44
578.19	2063.67
578.54	2051.28
578.90	2039.48
579.25	2027.12
579.60	2014.87
579.95	2002.04
580.30	1989.45
580.66	1976.24
581.01	1963.11
581.36	1949.17
581.71	1936.39
582.06	1923.74
582.42	1911.60
582.77	1899.26
583.12	1887.32
583.47	1875.07
583.82	1863.45
584.17	1852.00
584.53	1840.72
584.88	1827.96
585.23	1815.05
585.58	1801.12
585.93	1788.11
586.28	1775.37
586.63	1761.80
586.98	1747.92
587.34	1735.22
587.69	1722.18
588.04	1709.71
588.39	1697.85
588.74	1686.10
589.09	1674.50
589.44	1662.00
589.79	1650.19
590.14	1638.60
590.49	1626.68
590.84	1614.70
591.19	1602.92
591.54	1591.16
591.89	1579.08
592.25	1569.19
592.60	1558.12
592.95	1547.23
593.30	1535.91
593.65	1523.97
594.00	1512.51
594.35	1503.16
594.70	1491.57
595.05	1480.51
595.40	1469.12
595.75	1457.53
596.10	1446.70
596.45	1435.33
596.80	1425.11
597.15	1413.88
597.50	1402.31
597.85	1391.38
598.19	1380.51
598.54	1369.16
598.89	1358.06
599.24	1347.97
599.59	1336.47
599.94	1325.99
600.29	1316.15
600.64	1306.08
600.99	1295.83
601.34	1286.54
601.69	1275.66
602.04	1266.35
602.39	1256.96
602.74	1247.98
603.08	1238.65
603.43	1229.50
603.78	1220.27
604.13	1210.73
604.48	1201.24
604.83	1191.94
605.18	1182.49
605.53	1173.17
605.87	1164.34
606.22	1156.17
606.57	1147.00
606.92	1137.95
607.27	1129.02
607.62	1120.23
607.96	1111.87
608.31	1104.28
608.66	1095.99
609.01	1087.61
609.36	1079.09
609.70	1070.76
610.05	1062.32
610.40	1054.53
610.75	1046.31
611.10	1038.18
611.44	1029.83
611.79	1022.12
612.14	1014.53
612.49	1006.84
612.83	999.54
613.18	992.09
613.53	984.64
613.88	977.01
614.22	969.67
614.57	962.10
614.92	954.62
615.27	947.37
615.61	939.82
615.96	932.67
616.31	925.19
616.65	918.52
617.00	911.50
617.35	904.38
617.70	897.21
618.04	890.19
618.39	883.57
618.74	877.47
619.08	870.63
619.43	863.64
619.78	857.00
620.12	850.16
620.47	843.53
620.82	836.50
621.16	829.89
621.51	823.74
621.85	817.72
622.20	811.33
622.55	804.85
622.89	798.71
623.24	792.43
623.59	786.47
623.93	780.18
624.28	774.34
624.62	768.95
624.97	763.47
625.32	757.93
625.66	752.05
626.01	746.11
626.35	740.91
626.70	735.86
627.04	730.61
627.39	725.16
627.73	719.96
628.08	714.93
628.43	709.65
628.77	704.25
629.12	699.21
629.46	694.47
629.81	689.82
630.15	685.08
630.50	680.46
630.84	675.78
631.19	671.21
631.53	666.70
631.88	661.63
632.22	656.92
632.57	652.71
632.91	648.19
633.26	643.87
633.60	639.15
633.95	634.53
634.29	629.99
634.64	625.77
634.98	621.05
635.32	616.81
635.67	613.06
636.01	608.91
636.36	604.65
636.70	600.84
637.05	596.73
637.39	592.69
637.73	588.64
638.08	584.83
638.42	580.78
638.77	576.63
639.11	572.54
639.45	568.26
639.80	563.83
640.14	559.92
640.49	556.02
640.83	552.42
641.17	548.87
641.52	545.35
641.86	541.92
642.20	538.88
642.55	535.33
642.89	531.74
643.23	528.50
643.58	525.34
643.92	521.60
644.26	518.37
644.61	515.33
644.95	511.97
645.29	508.60
645.64	505.53
645.98	502.53
646.32	499.62
646.66	496.77
647.01	494.05
647.35	491.45
647.69	488.42
648.04	485.67
648.38	482.79
648.72	479.92
649.06	476.85
649.41	473.89
649.75	471.03
650.09	468.23
650.43	465.43
650.78	462.65
651.12	460.05
651.46	457.29
651.80	454.46
652.14	451.96
652.49	449.58
652.83	447.12
653.17	444.56
653.51	441.87
653.85	439.52
654.20	437.20
654.54	434.52
654.88	432.24
655.22	430.07
655.56	427.96
655.90	425.65
656.25	423.49
656.59	421.32
656.93	419.27
657.27	417.31
657.61	414.97
657.95	412.85
658.29	410.71
658.64	408.85
658.98	406.79
659.32	404.59
659.66	402.48
660.00	400.34
660.34	398.40
660.68	396.56
661.02	394.60
661.36	392.54
661.70	390.69
662.05	388.84
662.39	387.00
662.73	385.12
663.07	383.74
663.41	381.97
663.75	380.11
664.09	378.36
664.43	376.52
664.77	375.05
665.11	373.33
665.45	371.79
665.79	370.00
666.13	368.31
666.47	366.78
666.81	365.21
667.15	363.62
667.49	362.13
667.83	360.89
668.17	359.38
668.51	357.96
668.85	356.64
669.19	355.44
669.53	353.85
669.87	352.36
670.21	350.74
670.55	349.39
670.89	348.37
671.23	347.03
671.57	345.61
671.91	344.26
672.25	342.98
672.58	341.87
672.92	340.62
673.26	339.35
673.60	338.19
673.94	337.00
674.28	335.93
674.62	334.85
674.96	333.52
675.30	332.44
675.64	331.32
675.97	330.18
676.31	328.79
676.65	327.57
676.99	326.60
677.33	325.50
677.67	324.51
678.01	323.15
678.34	322.13
678.68	321.20
679.02	320.15
679.36	319.21
679.70	318.03
680.04	317.03
680.37	316.12
680.71	315.10
681.05	314.17
681.39	313.25
681.73	312.28
682.06	311.42
682.40	310.47
682.74	309.72
683.08	308.97
683.42	308.10
683.75	307.38
684.09	306.51
684.43	305.76
684.77	304.84
685.10	304.03
685.44	303.21
685.78	302.44
686.12	301.66
686.45	300.82
686.79	300.05
687.13	299.43
687.46	298.76
687.80	298.13
688.14	297.34
688.48	296.68
688.81	295.99
689.15	295.39
689.49	294.59
689.82	293.81
690.16	292.96
690.50	292.42
690.83	291.75
691.17	290.94
691.51	290.19
691.84	289.61
692.18	288.98
692.52	288.33
692.85	287.60
693.19	287.20
693.52	286.54
693.86	285.90
694.20	285.23
694.53	284.67
694.87	284.04
695.21	283.39
695.54	282.66
695.88	282.00
696.21	281.28
696.55	280.87
696.88	280.35
697.22	279.71
697.56	279.19
697.89	278.59
698.23	278.14
698.56	277.53
698.90	277.04
699.23	276.45
699.57	276.05
699.90	275.55
700.24	274.91
700.58	274.50
700.91	274.15
701.25	274.05
701.58	273.83
701.92	273.50
702.25	273.13
702.59	272.70
702.92	272.28
703.26	271.92
703.59	271.45
703.93	271.35
704.26	271.02
704.60	270.61
704.93	270.19
705.26	269.80
705.60	269.50
705.93	268.96
706.27	268.78
706.60	268.36
706.94	268.15
707.27	267.69
707.61	267.39
707.94	266.97
708.27	266.17
708.61	265.45
708.94	264.94
709.28	264.49
709.61	264.08
709.94	263.74
710.28	263.30
710.61	262.96
710.95	262.20
711.28	262.16
711.61	261.69
711.95	261.45
712.28	261.00
712.61	260.60
712.95	260.60
713.28	260.46
713.61	260.01
713.95	259.64
714.28	259.31
714.61	258.92
714.95	258.52
715.28	258.17
715.61	257.83
715.95	257.54
716.28	257.30
716.61	257.08
716.95	256.70
717.28	256.32
717.61	255.92
717.94	255.71
718.28	255.11
718.61	254.89
718.94	254.54
719.27	254.33
719.61	254.19
719.94	253.81
720.27	253.24
720.60	252.95
720.94	252.65
721.27	252.49
721.60	252.28
721.93	252.02
722.27	251.95
722.60	251.78
722.93	251.52
723.26	251.33
723.59	251.15
723.93	251.05
724.26	250.97
724.59	250.79
724.92	250.52
725.25	250.44
725.59	250.25
725.92	250.11
726.25	249.89
726.58	249.71
726.91	249.49
727.24	249.41
727.57	249.30
727.91	248.96
728.24	248.85
728.57	248.57
728.90	248.47
729.23	248.11
729.56	248.19
729.89	248.00
730.22	247.72
730.55	247.49
730.89	247.30
731.22	247.09
731.55	247.00
731.88	246.92
732.21	246.60
732.54	246.38
732.87	246.21
733.20	246.10
733.53	245.95
733.86	245.75
734.19	245.52
734.52	245.39
734.85	245.62
735.18	245.30
735.51	245.33
735.84	245.20
736.17	245.26
736.50	244.86
736.83	245.30
737.16	245.23
737.49	245.10
737.82	244.92
738.15	244.85
738.48	244.67
738.81	244.47
739.14	244.36
739.47	244.20
739.80	243.95
740.13	243.82
740.46	243.54
740.79	243.33
741.12	243.15
741.45	242.92
741.78	242.51
742.11	242.55
742.44	242.30
742.77	242.32
743.10	242.01
743.43	241.81
743.75	241.13
744.08	241.57
744.41	241.40
744.74	241.22
745.07	240.97
745.40	240.88
745.73	240.94
746.06	240.86
746.39	240.79
746.71	240.72
747.04	240.57
747.37	240.49
747.70	240.45
748.03	240.42
748.36	240.45
748.68	240.29
749.01	239.99
749.34	239.90
749.67	239.66
750.00	239.58
750.33	239.75
750.65	239.76
750.98	239.09
751.31	238.99
751.64	238.86
751.97	238.94
752.29	238.76
752.62	238.37
752.95	238.18
753.28	238.03
753.60	238.00
753.93	237.93
754.26	237.80
754.59	237.52
754.91	237.28
755.24	237.10
755.57	237.03
755.90	237.00
756.22	236.79
756.55	236.61
756.88	236.48
757.20	236.08
757.53	235.78
757.86	235.69
758.19	235.66
758.51	235.66
758.84	235.40
759.17	235.27
759.49	235.28
759.82	235.42
760.15	235.35
760.47	235.10
760.80	234.86
761.13	234.89
761.45	234.82
761.78	234.80
762.11	234.68
762.43	234.52
762.76	234.32
763.08	234.34
763.41	234.28
763.74	234.21
764.06	234.18
764.39	234.19
764.71	234.07
765.04	233.87
765.37	233.74
765.69	233.66
766.02	233.58
766.34	233.40
766.67	233.09
767.00	233.09
767.32	233.32
767.65	233.60
767.97	233.47
768.30	233.49
768.62	233.38
768.95	233.28
769.27	233.28
769.60	233.30
769.92	233.16
770.25	233.01
770.57	232.85
770.90	232.80
771.22	232.63
771.55	232.64
771.87	232.60
772.20	232.51
772.52	232.78
772.85	233.31
773.17	233.31
773.50	233.37
773.82	233.24
774.15	233.01
774.47	232.59
774.80	232.54
775.12	232.47
775.45	232.39
775.77	232.42
776.09	232.34
776.42	232.35
776.74	232.45
777.07	232.46
777.39	232.44
777.72	232.35
778.04	232.43
778.36	232.28
778.69	232.28
779.01	232.31
779.33	231.88
779.66	231.34
779.98	231.27
780.31	231.15
780.63	231.33
780.95	231.35
781.28	231.33
781.60	231.22
781.92	231.20
782.25	231.17
782.57	231.07
782.89	231.03
783.22	230.99
783.54	230.86
783.86	230.89
784.19	230.86
784.51	230.99
784.83	230.88
785.16	230.90
785.48	230.85
785.80	230.78
786.12	230.90
786.45	230.86
786.77	230.86
787.09	230.84
787.42	230.65
787.74	230.62
788.06	230.69
788.38	230.68
788.71	230.55
789.03	230.59
789.35	230.71
789.67	230.63
789.99	230.62
790.32	230.48
790.64	230.47
790.96	230.84
791.28	230.70
791.61	230.59
791.93	230.61
792.25	230.54
792.57	230.88
792.89	230.75
793.21	230.70
793.54	230.62
793.86	230.46
794.18	230.39
794.50	230.21
794.82	230.14
795.14	230.10
795.47	230.20
795.79	230.13
796.11	229.91
796.43	229.90
796.75	229.77
797.07	229.77
797.39	229.71
797.71	229.38
798.04	229.32
798.36	229.36
798.68	229.26
799.00	229.22
799.32	228.91
799.64	228.94
799.96	228.96
800.28	229.07
800.60	229.11
800.92	229.18
801.24	229.15
801.56	229.12
801.89	229.13
802.21	229.20
802.53	229.08
802.85	229.19
803.17	229.40
803.49	229.34
803.81	229.28
804.13	229.26
804.45	229.12
804.77	229.21
805.09	229.26
805.41	229.29
805.73	229.24
806.05	229.10
806.37	229.00
806.69	228.96
807.01	228.91
807.33	228.90
807.65	228.75
807.97	229.01
808.28	228.93
808.60	228.91
808.92	228.70
809.24	228.99
809.56	228.86
809.88	228.62
810.20	228.65
810.52	228.72
810.84	228.57
811.16	228.51
811.48	228.39
811.80	228.48
812.12	228.38
812.43	228.50
812.75	228.58
813.07	228.53
813.39	228.50
813.71	228.36
814.03	228.32
814.35	228.33
814.67	228.07
814.98	228.01
815.30	228.02
815.62	227.88
815.94	227.58
816.26	227.82
816.58	227.75
816.89	227.79
817.21	227.68
817.53	227.77
817.85	227.83
818.17	227.80
818.48	227.60
818.80	227.67
819.12	227.56
819.44	227.45
819.76	227.40
820.07	227.35
820.39	227.40
820.71	227.45
821.03	227.34
821.34	227.34
821.66	227.51
821.98	227.52
822.30	227.61
822.61	227.90
822.93	227.65
823.25	227.65
823.57	227.61
823.88	227.72
824.20	227.75
824.52	227.80
824.83	227.85
825.15	227.83
825.47	227.83
825.79	227.85
826.10	227.84
826.42	227.81
826.74	227.80
827.05	227.73
827.37	227.77
827.69	227.85
828.00	227.84
828.32	227.77
828.64	227.68
828.95	227.95
829.27	227.82
829.58	227.80
829.90	227.85
830.22	227.85
830.53	227.81
830.85	227.77
831.17	227.59
831.48	227.58
831.80	227.62
832.11	227.55
832.43	227.50
832.75	227.46
833.06	227.79
833.38	227.66
833.69	227.72
834.01	227.69
834.32	227.68
834.64	227.66
834.96	227.62
835.27	227.66
835.59	227.50
835.90	227.44
836.22	227.52
836.53	227.42
836.85	227.35
837.16	227.81
837.48	227.78
837.79	227.99
838.11	227.91
838.42	227.82
838.74	227.88
839.05	227.81
839.37	227.82
839.68	227.45
840.00	227.49
840.31	227.49
840.63	227.43
840.94	227.31
841.26	227.25
841.57	227.25
841.88	227.26
842.20	227.13
842.51	227.05
842.83	227.04
843.14	227.50
843.46	227.54
843.77	227.20
844.08	227.10
844.40	226.93
844.71	226.93
845.03	226.90
845.34	226.82
845.65	226.73
845.97	226.65
846.28	226.77
846.60	226.79
846.91	226.65
847.22	226.59
847.54	226.75
847.85	226.72
848.16	226.70
848.48	226.55
848.79	226.75
849.10	226.84
849.42	226.79
849.73	226.21
850.04	226.17
850.36	225.92
850.67	226.03
850.98	226.04
851.30	226.04
851.61	226.07
851.92	226.13
852.23	226.35
852.55	226.41
852.86	226.38
853.17	226.41
853.49	226.59
853.80	226.72
854.11	226.73
854.42	226.84
854.74	226.83
855.05	226.83
855.36	226.57
855.67	226.53
855.99	226.56
856.30	227.25
856.61	227.22
856.92	227.30
857.23	227.28
857.55	227.27
857.86	227.22
858.17	227.32
858.48	227.16
858.79	227.03
859.11	227.11
859.42	227.06
859.73	227.00
860.04	227.00
860.35	226.91
860.66	226.78
860.98	226.75
861.29	226.80
861.60	226.87
861.91	227.08
862.22	226.94
862.53	226.87
862.84	226.27
863.16	226.43
863.47	226.32
863.78	226.24
864.09	226.26
864.40	226.32
864.71	226.26
865.02	226.36
865.33	226.33
865.64	226.19
865.95	226.20
866.27	226.48
866.58	226.43
866.89	226.48
867.20	226.45
867.51	226.36
867.82	226.34
868.13	226.42
868.44	226.21
868.75	226.31
869.06	226.38
869.37	226.42
869.68	226.26
869.99	226.38
870.30	226.47
870.61	226.55
870.92	226.53
871.23	226.48
871.54	226.58
871.85	226.69
872.16	226.79
872.47	226.78
872.78	226.52
873.09	226.51
873.40	226.38
873.71	226.45
874.02	226.50
874.33	226.42
874.64	226.36
874.95	226.45
875.26	226.40
875.56	226.39
875.87	226.37
876.18	226.38
876.49	226.74
876.80	226.71
877.11	226.62
877.42	226.68
877.73	226.76
878.04	226.63
878.35	226.59
878.66	226.61
878.96	226.61
879.27	226.55
879.58	226.54
879.89	226.55
880.20	226.68
880.51	226.65
880.82	226.63
881.12	226.64
881.43	226.61
881.74	226.57
882.05	226.45
882.36	226.48
882.67	226.49
882.97	226.03
883.28	225.94
883.59	225.93
883.90	225.96
884.21	225.92
884.51	225.93
884.82	225.85
885.13	225.82
885.44	225.75
885.74	225.80
886.05	225.70
886.36	225.71
886.67	225.52
886.98	225.84
887.28	225.98
887.59	225.94
887.90	225.93
888.20	225.85
888.51	226.01
888.82	225.93
889.13	225.99
889.43	226.39
889.74	226.38
890.05	226.33
890.35	226.18
890.66	226.14
890.97	226.16
891.28	226.12
891.58	226.14
891.89	226.21
892.20	226.19
892.50	226.24
892.81	226.22
893.12	226.20
893.42	225.85
893.73	225.83
894.04	225.85
894.34	225.88
894.65	225.89
894.95	225.80
895.26	225.82
895.57	225.99
895.87	225.58
896.18	225.65
896.48	225.64
896.79	225.70
897.10	225.74
897.40	225.71
897.71	225.85
898.01	225.80
898.32	225.82
898.63	225.76
898.93	225.78
899.24	225.80
899.54	225.71
899.85	225.75
900.15	225.66
900.46	225.62
900.76	225.71
901.07	225.68
901.38	225.67
901.68	225.76
901.99	225.61
902.29	225.59
902.60	225.61
902.90	225.65
903.21	225.65
903.51	225.64
903.82	225.76
904.12	225.72
904.43	225.77
904.73	225.77
905.03	225.86
905.34	226.32
905.64	226.31
905.95	226.37
906.25	226.36
906.56	226.42
906.86	226.42
907.17	226.39
907.47	226.55
907.77	226.56
908.08	226.45
908.38	226.35
908.69	226.48
908.99	226.54
909.30	226.54
909.60	226.52
909.90	226.56
910.21	226.43
910.51	226.40
910.81	226.39
911.12	226.44
911.42	226.44
911.73	225.90
912.03	225.94
912.33	226.13
912.64	226.09
912.94	225.97
913.24	225.92
913.55	225.83
913.85	225.70
914.15	225.71
914.46	225.74
914.76	225.75
915.06	225.76
915.37	225.70
915.67	225.69
915.97	225.67
916.27	225.55
916.58	225.60
916.88	225.55
917.18	225.53
917.49	225.78
917.79	225.77
918.09	225.86
918.39	226.06
918.70	225.92
919.00	225.97
919.30	226.23
919.60	226.31
919.91	226.29
920.21	226.33
920.51	226.37
920.81	226.31
921.12	226.41
921.42	226.34
921.72	226.30
922.02	226.30
922.32	226.37
922.63	226.46
922.93	226.68
923.23	226.74
923.53	226.70
923.83	226.47
924.13	226.53
924.44	226.56
924.74	226.55
925.04	226.72
925.34	226.71
925.64	226.57
925.94	226.49
926.24	226.75
926.55	226.77
926.85	226.75
927.15	226.82
927.45	226.85
927.75	226.82
928.05	226.95
928.35	226.95
928.65	227.03
928.95	227.07
929.26	226.82
929.56	226.88
929.86	226.99
930.16	226.90
930.46	226.85
930.76	226.85
931.06	226.62
931.36	226.44
931.66	226.48
931.96	226.51
932.26	226.55
932.56	226.42
932.86	226.40
933.16	226.42
933.46	226.42
933.76	226.31
934.06	226.38
934.36	226.45
934.66	226.42
934.96	226.38
935.26	226.34
935.56	226.48
935.86	226.35
936.16	226.21
936.46	226.17
936.76	226.13
937.06	225.99
937.36	226.04
937.66	226.11
937.96	226.03
938.26	225.90
938.56	225.90
938.86	225.83
939.16	226.02
939.46	225.99
939.76	225.96
940.06	226.01
940.35	225.90
940.65	225.69
940.95	225.81
941.25	225.72
941.55	225.66
941.85	225.57
942.15	225.73
942.45	225.81
942.75	225.80
943.04	225.83
943.34	225.97
943.64	225.89
943.94	225.84
944.24	225.84
944.54	225.87
944.84	225.85
945.13	225.76
945.43	225.57
945.73	225.56
946.03	225.52
946.33	225.45
946.62	225.46
946.92	225.45
947.22	225.46
947.52	225.45
947.82	225.49
948.11	225.49
948.41	225.36
948.71	225.28
949.01	225.34
949.31	225.33
949.60	225.30
949.90	225.46
950.20	225.43
950.50	225.54
950.79	225.54
951.09	225.62
951.39	225.70
951.69	225.66
951.98	225.75
952.28	225.82
952.58	225.83
952.87	225.79
953.17	225.85
953.47	225.75
953.76	225.78
954.06	225.75
954.36	225.65
954.66	225.64
954.95	225.78
955.25	225.83
955.55	225.88
955.84	225.86
956.14	225.90
956.44	225.92
956.73	225.82
957.03	225.86
957.32	225.80
957.62	225.81
957.92	225.96
958.21	225.94
958.51	226.48
958.81	226.59
959.10	226.70
959.40	226.81
959.69	226.83
959.99	226.90
960.29	226.93
960.58	226.95
960.88	227.12
961.17	227.05
961.47	227.12
961.76	227.11
962.06	227.17
962.36	227.04
962.65	227.11
962.95	227.07
963.24	227.07
963.54	227.13
963.83	227.13
964.13	227.09
964.42	226.95
964.72	226.54
965.01	226.42
965.31	226.45
965.60	226.37
965.90	226.70
966.19	226.63
966.49	226.67
966.78	226.64
967.08	226.61
967.37	226.61
967.67	226.53
967.96	226.63
968.26	226.63
968.55	226.68
968.85	226.62
969.14	226.69
969.43	226.62
969.73	226.60
970.02	226.53
970.32	226.55
970.61	226.59
970.91	226.51
971.20	226.47
971.49	226.41
971.79	226.42
972.08	226.06
972.38	226.13
972.67	226.05
972.96	226.15
973.26	226.05
973.55	226.28
973.85	226.26
974.14	226.11
974.43	226.10
974.73	226.05
975.02	226.06
975.31	226.07
975.61	226.08
975.90	226.06
976.19	225.96
976.49	226.00
976.78	226.01
977.07	225.96
977.37	225.96
977.66	225.99
977.95	225.91
978.24	225.92
978.54	225.93
978.83	225.94
979.12	225.85
979.42	225.88
979.71	225.69
980.00	225.62
980.29	225.70
980.59	225.57
980.88	225.60
981.17	225.53
981.46	225.57
981.76	225.55
982.05	225.70
982.34	225.84
982.63	225.83
982.93	225.76
983.22	225.95
983.51	226.01
983.80	226.06
984.09	226.13
984.39	226.14
984.68	226.08
984.97	226.07
985.26	226.08
985.55	226.07
985.85	225.98
986.14	226.09
986.43	226.10
986.72	226.08
987.01	225.93
987.30	225.92
987.59	225.82
987.89	225.88
988.18	225.73
988.47	225.69
988.76	225.62
989.05	225.65
989.34	225.50
989.63	225.67
989.92	225.62
990.22	225.56
990.51	225.52
990.80	225.53
991.09	225.60
991.38	225.71
991.67	225.67
991.96	225.65
992.25	225.60
992.54	225.51
992.83	225.57
993.12	225.65
993.41	225.75
993.70	225.95
993.99	226.03
994.28	226.03
994.58	226.06
994.87	226.01
995.16	226.02
995.45	225.94
995.74	225.76
996.03	225.81
996.32	225.90
996.61	226.03
996.90	225.95
997.19	225.93
997.48	225.90
997.77	225.85
998.06	225.92
998.34	225.86
998.63	225.93
998.92	225.93
999.21	225.97
999.50	225.95
999.79	225.73
1000.08	225.68
1000.37	225.75
1000.66	225.68
1000.95	225.82
1001.24	225.85
1001.53	225.94
1001.82	225.89
1002.11	225.77
1002.40	225.81
1002.68	225.89
1002.97	226.18
1003.26	226.09
1003.55	226.01
1003.84	226.09
1004.13	226.19
1004.42	226.16
1004.71	226.14
1004.99	226.05
1005.28	226.15
1005.57	226.17
1005.86	226.10
1006.15	226.04
1006.44	225.96
1006.72	226.03
1007.01	225.90
1007.30	225.96
1007.59	225.91
1007.88	225.98
1008.17	226.06
1008.45	225.98
1008.74	225.74
1009.03	225.63
1009.32	225.66
1009.60	225.70
1009.89	225.64
1010.18	225.48
1010.47	225.50
1010.76	225.47
1011.04	225.54
1011.33	225.57
1011.62	225.58
1011.91	225.63
1012.19	225.68
1012.48	225.67
1012.77	225.70
1013.05	225.93
1013.34	225.86
1013.63	225.86
1013.92	225.84
1014.20	225.74
1014.49	225.73
1014.78	225.81
1015.06	225.62
1015.35	225.59
1015.64	225.63
1015.92	225.74
1016.21	225.70
1016.50	225.73
1016.78	225.76
1017.07	225.81
1017.36	225.66
1017.64	225.58
1017.93	225.64
1018.22	225.57
1018.50	225.53
1018.79	225.47
1019.08	225.23
1019.36	225.40
1019.65	225.35
1019.93	225.53
1020.22	225.58
1020.51	225.81
1020.79	225.69
1021.08	224.35
1021.36	224.25
1021.65	225.50
1021.94	224.70
1022.22	228.75
1022.51	225.15
1022.79	228.85
1023.08	225.45
1023.36	230.85
1023.65	223.25
>>>>>End Processed Spectral Data<<<<<
