SpectraSuite Data File
++++++++++++++++++++++++++++++++++++
Date: Wed Sep 04 18:02:09 EDT 2013
User: lab3
Dark Spectrum Present: Yes
Reference Spectrum Present: No
Number of Sampled Component Spectra: 1
Spectrometers: USB2E7196
Integration Time (usec): 170000 (USB2E7196)
Spectra Averaged: 20 (USB2E7196)
Boxcar Smoothing: 10 (USB2E7196)
Correct for Electrical Dark: No (USB2E7196)
Strobe/Lamp Enabled: No (USB2E7196)
Correct for Detector Non-linearity: No (USB2E7196)
Correct for Stray Light: No (USB2E7196)
Number of Pixels in Processed Spectrum: 2048
>>>>>Begin Processed Spectral Data<<<<<
339.09	0.00
339.48	213.95
339.86	214.80
340.24	217.30
340.63	218.10
341.01	226.00
341.39	221.00
341.78	223.10
342.16	223.50
342.54	224.10
342.93	212.85
343.31	223.53
343.69	224.07
344.07	224.53
344.46	224.99
344.84	225.37
345.22	225.34
345.60	225.61
345.99	225.83
346.37	225.94
346.75	226.02
347.13	226.14
347.52	226.22
347.90	226.42
348.28	226.42
348.66	226.60
349.05	226.51
349.43	226.60
349.81	226.72
350.19	226.75
350.57	226.75
350.96	226.87
351.34	227.03
351.72	227.08
352.10	227.22
352.48	227.26
352.87	227.36
353.25	227.42
353.63	227.48
354.01	227.46
354.39	227.52
354.77	227.61
355.15	227.82
355.54	227.77
355.92	227.62
356.30	227.74
356.68	227.96
357.06	228.01
357.44	227.98
357.82	228.04
358.20	228.52
358.58	228.65
358.97	228.70
359.35	228.88
359.73	229.02
360.11	229.13
360.49	229.14
360.87	229.12
361.25	229.23
361.63	229.39
362.01	229.46
362.39	229.55
362.77	229.56
363.15	229.49
363.53	229.54
363.91	229.60
364.29	229.62
364.67	229.26
365.05	229.31
365.43	229.46
365.81	229.55
366.19	229.41
366.57	229.56
366.95	229.51
367.33	229.38
367.71	229.44
368.09	229.46
368.47	229.49
368.85	229.45
369.23	229.54
369.61	229.35
369.99	229.55
370.37	229.57
370.75	229.84
371.13	229.77
371.51	229.66
371.89	229.84
372.27	229.85
372.65	229.89
373.03	229.83
373.41	229.79
373.78	229.66
374.16	229.40
374.54	229.27
374.92	229.21
375.30	229.25
375.68	229.14
376.06	229.12
376.44	229.02
376.82	229.04
377.19	229.04
377.57	229.02
377.95	228.80
378.33	228.69
378.71	228.37
379.09	228.41
379.47	228.48
379.84	228.26
380.22	228.17
380.60	227.98
380.98	227.91
381.36	227.77
381.73	227.71
382.11	227.74
382.49	227.72
382.87	227.61
383.25	227.49
383.62	227.95
384.00	227.83
384.38	227.82
384.76	227.93
385.13	228.03
385.51	228.01
385.89	227.96
386.27	228.00
386.64	227.99
387.02	227.86
387.40	227.78
387.78	227.76
388.15	227.76
388.53	227.74
388.91	227.70
389.29	227.67
389.66	227.70
390.04	227.64
390.42	227.66
390.79	227.71
391.17	227.72
391.55	227.18
391.92	227.10
392.30	227.17
392.68	226.98
393.05	226.91
393.43	226.90
393.81	226.85
394.18	226.71
394.56	226.71
394.94	226.84
395.31	226.81
395.69	226.93
396.06	226.99
396.44	227.13
396.82	227.20
397.19	227.48
397.57	227.41
397.95	227.49
398.32	227.39
398.70	227.40
399.07	227.53
399.45	227.60
399.82	227.72
400.20	227.71
400.58	227.86
400.95	227.75
401.33	227.90
401.70	228.33
402.08	228.49
402.45	228.62
402.83	228.90
403.20	229.09
403.58	229.11
403.95	229.34
404.33	229.59
404.71	229.74
405.08	230.14
405.46	230.47
405.83	230.68
406.21	230.94
406.58	231.32
406.96	231.62
407.33	231.92
407.70	232.22
408.08	233.02
408.45	233.40
408.83	233.95
409.20	234.32
409.58	234.48
409.95	235.05
410.33	235.54
410.70	235.85
411.08	236.51
411.45	237.21
411.82	237.74
412.20	238.50
412.57	239.58
412.95	239.95
413.32	240.80
413.69	241.70
414.07	242.67
414.44	243.63
414.82	244.60
415.19	245.82
415.56	247.10
415.94	248.11
416.31	249.63
416.68	250.95
417.06	252.60
417.43	254.23
417.81	256.04
418.18	257.94
418.55	259.90
418.93	261.86
419.30	264.00
419.67	266.22
420.04	268.42
420.42	270.76
420.79	273.88
421.16	276.70
421.54	279.75
421.91	282.75
422.28	285.90
422.66	289.26
423.03	292.75
423.40	296.15
423.77	299.74
424.15	303.31
424.52	307.25
424.89	311.52
425.26	315.48
425.64	319.16
426.01	323.42
426.38	327.95
426.75	332.53
427.13	337.13
427.50	341.96
427.87	346.96
428.24	351.81
428.61	356.36
428.99	361.69
429.36	367.23
429.73	372.75
430.10	378.23
430.47	384.03
430.85	389.54
431.22	395.81
431.59	402.57
431.96	408.93
432.33	415.86
432.70	422.48
433.08	430.50
433.45	438.01
433.82	445.28
434.19	453.53
434.56	461.60
434.93	469.37
435.30	477.18
435.68	485.85
436.05	494.34
436.42	502.74
436.79	510.44
437.16	518.85
437.53	527.68
437.90	536.46
438.27	545.09
438.64	554.21
439.01	562.55
439.38	569.75
439.75	576.87
440.13	585.04
440.50	592.60
440.87	598.64
441.24	605.24
441.61	612.34
441.98	617.47
442.35	623.41
442.72	629.36
443.09	635.26
443.46	638.66
443.83	640.94
444.20	642.80
444.57	645.56
444.94	646.53
445.31	647.67
445.68	649.03
446.05	649.06
446.42	647.73
446.79	646.19
447.16	644.57
447.53	643.24
447.90	639.33
448.27	635.68
448.64	630.66
449.01	626.88
449.37	620.75
449.74	614.67
450.11	607.78
450.48	600.06
450.85	591.95
451.22	584.98
451.59	578.31
451.96	571.95
452.33	563.72
452.70	556.24
453.07	547.50
453.43	538.32
453.80	529.83
454.17	521.79
454.54	514.08
454.91	505.84
455.28	497.73
455.65	490.33
456.02	483.37
456.38	477.09
456.75	469.10
457.12	462.37
457.49	455.95
457.86	449.50
458.23	444.28
458.59	438.52
458.96	432.68
459.33	427.58
459.70	422.39
460.07	418.27
460.43	413.69
460.80	409.33
461.17	405.49
461.54	401.51
461.91	397.65
462.27	393.73
462.64	390.41
463.01	386.85
463.38	383.46
463.74	379.54
464.11	376.49
464.48	373.91
464.85	371.05
465.21	368.79
465.58	366.44
465.95	363.55
466.32	361.31
466.68	359.06
467.05	356.91
467.42	354.76
467.78	352.47
468.15	350.31
468.52	348.77
468.88	346.64
469.25	344.68
469.62	343.15
469.98	341.51
470.35	339.93
470.72	338.48
471.08	336.80
471.45	335.44
471.82	334.20
472.18	332.82
472.55	331.86
472.92	330.61
473.28	329.53
473.65	328.47
474.02	327.41
474.38	326.52
474.75	325.64
475.11	324.84
475.48	324.10
475.85	323.44
476.21	322.72
476.58	322.24
476.94	321.87
477.31	321.36
477.67	320.90
478.04	320.67
478.41	320.53
478.77	320.86
479.14	320.62
479.50	320.49
479.87	320.50
480.23	320.56
480.60	320.55
480.96	320.65
481.33	320.99
481.69	321.25
482.06	321.46
482.42	321.78
482.79	322.06
483.15	322.53
483.52	323.25
483.88	323.83
484.25	324.38
484.61	325.08
484.98	325.80
485.34	326.81
485.71	327.69
486.07	328.66
486.44	329.22
486.80	330.25
487.17	331.34
487.53	332.67
487.90	334.08
488.26	335.67
488.62	337.30
488.99	338.79
489.35	340.42
489.72	342.35
490.08	344.40
490.44	346.41
490.81	348.70
491.17	350.78
491.54	353.26
491.90	355.79
492.26	358.39
492.63	361.15
492.99	363.90
493.36	366.96
493.72	370.21
494.08	373.72
494.45	377.45
494.81	381.40
495.17	385.33
495.54	389.48
495.90	393.78
496.26	398.24
496.63	402.94
496.99	407.89
497.35	413.02
497.72	418.37
498.08	423.92
498.44	429.53
498.80	435.62
499.17	441.60
499.53	447.89
499.89	454.54
500.26	461.55
500.62	468.79
500.98	476.32
501.34	483.87
501.71	491.60
502.07	499.56
502.43	507.77
502.79	516.23
503.16	524.96
503.52	533.99
503.88	543.16
504.24	552.89
504.60	562.92
504.97	573.28
505.33	583.60
505.69	594.84
506.05	605.91
506.41	617.16
506.78	628.94
507.14	641.09
507.50	653.54
507.86	666.09
508.22	678.85
508.59	691.86
508.95	705.42
509.31	719.49
509.67	733.72
510.03	747.87
510.39	762.50
510.75	777.45
511.12	792.77
511.48	808.48
511.84	824.28
512.20	840.17
512.56	856.44
512.92	873.26
513.28	890.00
513.64	907.43
514.00	924.98
514.37	942.90
514.73	961.11
515.09	979.18
515.45	997.90
515.81	1016.52
516.17	1035.35
516.53	1054.34
516.89	1073.06
517.25	1092.38
517.61	1112.79
517.97	1133.20
518.33	1153.42
518.69	1173.71
519.05	1194.24
519.41	1214.83
519.77	1235.89
520.13	1256.59
520.49	1277.17
520.85	1299.68
521.21	1320.83
521.57	1342.22
521.93	1362.95
522.29	1384.13
522.65	1405.18
523.01	1426.16
523.37	1446.85
523.73	1468.16
524.09	1488.56
524.45	1509.57
524.81	1530.59
525.17	1551.21
525.53	1571.76
525.89	1592.77
526.25	1613.54
526.61	1634.23
526.97	1655.40
527.33	1677.18
527.68	1699.40
528.04	1720.93
528.40	1740.44
528.76	1761.64
529.12	1782.00
529.48	1802.74
529.84	1823.05
530.20	1844.25
530.56	1864.58
530.91	1885.95
531.27	1906.52
531.63	1927.46
531.99	1947.87
532.35	1968.19
532.71	1988.60
533.07	2009.20
533.42	2029.11
533.78	2049.39
534.14	2069.32
534.50	2088.68
534.86	2107.59
535.21	2125.18
535.57	2143.88
535.93	2161.98
536.29	2179.58
536.65	2197.92
537.00	2215.86
537.36	2233.47
537.72	2250.19
538.08	2267.89
538.44	2284.34
538.79	2300.80
539.15	2317.32
539.51	2333.45
539.87	2348.55
540.22	2362.56
540.58	2377.33
540.94	2391.11
541.29	2403.85
541.65	2416.69
542.01	2429.37
542.37	2440.20
542.72	2451.13
543.08	2461.90
543.44	2473.32
543.79	2483.73
544.15	2493.82
544.51	2504.06
544.87	2513.70
545.22	2522.33
545.58	2529.75
545.94	2537.16
546.29	2543.84
546.65	2550.09
547.01	2555.90
547.36	2562.15
547.72	2567.82
548.07	2571.91
548.43	2576.79
548.79	2581.45
549.14	2585.69
549.50	2589.30
549.86	2593.41
550.21	2597.17
550.57	2600.46
550.92	2602.16
551.28	2603.49
551.64	2606.03
551.99	2607.86
552.35	2609.58
552.70	2612.02
553.06	2614.07
553.41	2615.25
553.77	2617.00
554.13	2618.69
554.48	2620.34
554.84	2621.77
555.19	2622.93
555.55	2624.56
555.90	2623.91
556.26	2623.09
556.61	2621.29
556.97	2619.24
557.32	2618.59
557.68	2617.71
558.03	2616.08
558.39	2614.78
558.74	2614.02
559.10	2610.80
559.45	2607.42
559.81	2603.04
560.16	2597.79
560.52	2593.23
560.87	2589.09
561.23	2583.80
561.58	2577.79
561.94	2570.98
562.29	2563.12
562.64	2556.54
563.00	2548.49
563.35	2542.31
563.71	2536.02
564.06	2530.03
564.42	2523.71
564.77	2516.87
565.12	2509.16
565.48	2501.65
565.83	2493.62
566.19	2485.45
566.54	2477.67
566.89	2469.44
567.25	2461.81
567.60	2454.46
567.96	2446.76
568.31	2438.83
568.66	2429.85
569.02	2421.09
569.37	2412.84
569.72	2405.44
570.08	2395.97
570.43	2386.40
570.78	2377.01
571.14	2367.56
571.49	2357.46
571.84	2347.89
572.20	2336.55
572.55	2326.74
572.90	2315.90
573.26	2305.84
573.61	2294.80
573.96	2283.55
574.31	2271.67
574.67	2260.00
575.02	2247.42
575.37	2234.58
575.72	2221.02
576.08	2209.03
576.43	2196.41
576.78	2183.19
577.13	2169.43
577.49	2156.75
577.84	2144.81
578.19	2132.60
578.54	2120.04
578.90	2107.76
579.25	2095.42
579.60	2083.29
579.95	2070.05
580.30	2056.73
580.66	2043.10
581.01	2029.85
581.36	2015.68
581.71	2002.89
582.06	1989.58
582.42	1976.93
582.77	1963.99
583.12	1952.16
583.47	1939.81
583.82	1927.73
584.17	1915.94
584.53	1904.05
584.88	1891.16
585.23	1877.93
585.58	1863.73
585.93	1850.12
586.28	1836.61
586.63	1822.35
586.98	1808.03
587.34	1794.67
587.69	1781.39
588.04	1768.71
588.39	1756.35
588.74	1744.25
589.09	1732.25
589.44	1719.39
589.79	1707.35
590.14	1695.60
590.49	1683.45
590.84	1671.47
591.19	1659.45
591.54	1646.81
591.89	1634.27
592.25	1623.99
592.60	1612.54
592.95	1601.45
593.30	1589.49
593.65	1577.76
594.00	1565.70
594.35	1555.73
594.70	1544.03
595.05	1532.91
595.40	1520.55
595.75	1508.31
596.10	1497.05
596.45	1485.33
596.80	1474.40
597.15	1462.82
597.50	1450.82
597.85	1439.20
598.19	1427.11
598.54	1415.25
598.89	1404.03
599.24	1393.73
599.59	1381.53
599.94	1370.41
600.29	1359.73
600.64	1349.25
600.99	1338.25
601.34	1328.94
601.69	1317.67
602.04	1307.59
602.39	1297.36
602.74	1288.37
603.08	1278.96
603.43	1269.56
603.78	1259.79
604.13	1250.17
604.48	1240.22
604.83	1230.50
605.18	1220.59
605.53	1211.14
605.87	1201.91
606.22	1193.35
606.57	1183.91
606.92	1174.50
607.27	1165.49
607.62	1156.54
607.96	1147.93
608.31	1139.89
608.66	1131.12
609.01	1122.62
609.36	1114.14
609.70	1105.66
610.05	1096.94
610.40	1088.52
610.75	1079.65
611.10	1071.08
611.44	1062.45
611.79	1054.23
612.14	1046.35
612.49	1038.53
612.83	1030.93
613.18	1023.31
613.53	1015.26
613.88	1007.11
614.22	999.54
614.57	991.67
614.92	983.84
615.27	976.40
615.61	968.51
615.96	960.73
616.31	953.15
616.65	945.92
617.00	938.76
617.35	931.51
617.70	924.20
618.04	917.00
618.39	910.14
618.74	903.81
619.08	896.77
619.43	889.46
619.78	882.35
620.12	875.30
620.47	868.15
620.82	860.83
621.16	854.08
621.51	847.53
621.85	841.19
622.20	834.43
622.55	827.55
622.89	821.13
623.24	814.86
623.59	808.46
623.93	801.92
624.28	795.56
624.62	789.78
624.97	783.88
625.32	778.10
625.66	772.08
626.01	765.81
626.35	760.37
626.70	754.99
627.04	749.82
627.39	744.23
627.73	738.86
628.08	734.02
628.43	728.45
628.77	723.02
629.12	717.64
629.46	712.89
629.81	708.09
630.15	703.33
630.50	698.52
630.84	693.63
631.19	688.88
631.53	684.39
631.88	679.04
632.22	674.11
632.57	669.50
632.91	664.73
633.26	660.25
633.60	655.56
633.95	650.66
634.29	645.74
634.64	641.12
634.98	636.58
635.32	632.14
635.67	628.14
636.01	623.88
636.36	619.55
636.70	615.39
637.05	611.20
637.39	607.05
637.73	602.73
638.08	598.76
638.42	594.61
638.77	590.15
639.11	585.81
639.45	581.47
639.80	577.10
640.14	573.08
640.49	569.10
640.83	565.26
641.17	561.67
641.52	557.94
641.86	554.35
642.20	550.91
642.55	547.11
642.89	543.39
643.23	539.86
643.58	536.63
643.92	532.81
644.26	529.27
644.61	525.90
644.95	522.53
645.29	519.02
645.64	515.87
645.98	512.70
646.32	509.82
646.66	506.68
647.01	503.72
647.35	501.09
647.69	497.93
648.04	495.12
648.38	492.46
648.72	489.61
649.06	486.58
649.41	483.57
649.75	480.54
650.09	477.67
650.43	474.82
650.78	471.81
651.12	468.99
651.46	466.26
651.80	463.34
652.14	460.61
652.49	458.14
652.83	455.48
653.17	452.89
653.51	450.07
653.85	447.74
654.20	445.29
654.54	442.52
654.88	440.04
655.22	437.70
655.56	435.15
655.90	432.76
656.25	430.50
656.59	428.20
656.93	426.00
657.27	423.91
657.61	421.50
657.95	419.36
658.29	417.23
658.64	415.18
658.98	413.03
659.32	410.79
659.66	408.41
660.00	406.18
660.34	404.14
660.68	402.17
661.02	400.06
661.36	398.02
661.70	395.94
662.05	393.95
662.39	391.90
662.73	389.96
663.07	388.27
663.41	386.45
663.75	384.49
664.09	382.62
664.43	380.66
664.77	378.96
665.11	377.06
665.45	375.32
665.79	373.52
666.13	371.76
666.47	370.08
666.81	368.36
667.15	366.64
667.49	365.10
667.83	363.73
668.17	362.28
668.51	360.82
668.85	359.60
669.19	358.53
669.53	357.03
669.87	355.54
670.21	354.02
670.55	352.53
670.89	351.43
671.23	350.10
671.57	348.69
671.91	347.35
672.25	346.04
672.58	344.94
672.92	343.62
673.26	342.43
673.60	341.23
673.94	340.11
674.28	338.97
674.62	337.80
674.96	336.50
675.30	335.35
675.64	334.11
675.97	332.78
676.31	331.31
676.65	330.05
676.99	329.09
677.33	327.85
677.67	326.80
678.01	325.35
678.34	324.27
678.68	323.24
679.02	322.16
679.36	321.04
679.70	319.99
680.04	319.01
680.37	318.02
680.71	317.01
681.05	316.13
681.39	315.33
681.73	314.42
682.06	313.53
682.40	312.63
682.74	311.78
683.08	311.10
683.42	310.28
683.75	309.55
684.09	308.51
684.43	307.66
684.77	306.75
685.10	306.10
685.44	305.33
685.78	304.66
686.12	303.96
686.45	303.23
686.79	302.28
687.13	301.64
687.46	300.90
687.80	300.35
688.14	299.50
688.48	298.68
688.81	297.88
689.15	297.33
689.49	296.53
689.82	295.80
690.16	294.87
690.50	294.11
690.83	293.35
691.17	292.57
691.51	291.92
691.84	291.34
692.18	290.64
692.52	289.91
692.85	289.21
693.19	288.77
693.52	288.22
693.86	287.58
694.20	286.96
694.53	286.36
694.87	285.67
695.21	285.04
695.54	284.42
695.88	283.75
696.21	282.86
696.55	282.29
696.88	281.70
697.22	281.10
697.56	280.59
697.89	279.99
698.23	279.53
698.56	279.01
698.90	278.52
699.23	278.00
699.57	277.53
699.90	276.97
700.24	276.27
700.58	275.84
700.91	275.46
701.25	275.27
701.58	275.09
701.92	274.66
702.25	274.30
702.59	273.90
702.92	273.58
703.26	273.23
703.59	272.82
703.93	272.78
704.26	272.40
704.60	271.94
704.93	271.49
705.26	271.06
705.60	270.65
705.93	270.13
706.27	269.85
706.60	269.62
706.94	269.41
707.27	268.97
707.61	268.51
707.94	268.15
708.27	267.32
708.61	266.68
708.94	266.23
709.28	265.79
709.61	265.37
709.94	265.00
710.28	264.63
710.61	264.20
710.95	263.44
711.28	263.46
711.61	263.08
711.95	262.93
712.28	262.51
712.61	262.26
712.95	262.21
713.28	262.04
713.61	261.57
713.95	261.09
714.28	260.80
714.61	260.42
714.95	260.02
715.28	259.64
715.61	259.19
715.95	258.92
716.28	258.51
716.61	258.23
716.95	257.85
717.28	257.52
717.61	257.25
717.94	256.92
718.28	256.14
718.61	255.87
718.94	255.44
719.27	255.21
719.61	254.91
719.94	254.52
720.27	253.98
720.60	253.62
720.94	253.43
721.27	253.30
721.60	253.13
721.93	252.92
722.27	252.98
722.60	252.87
722.93	252.60
723.26	252.49
723.59	252.16
723.93	252.05
724.26	251.88
724.59	251.58
724.92	251.48
725.25	251.38
725.59	251.24
725.92	251.12
726.25	250.90
726.58	250.65
726.91	250.41
727.24	250.25
727.57	250.07
727.91	249.80
728.24	249.55
728.57	249.26
728.90	249.06
729.23	248.61
729.56	248.68
729.89	248.44
730.22	248.20
730.55	248.06
730.89	247.81
731.22	247.60
731.55	247.40
731.88	247.15
732.21	246.96
732.54	246.61
732.87	246.36
733.20	246.27
733.53	246.12
733.86	246.05
734.19	245.81
734.52	245.75
734.85	245.85
735.18	245.65
735.51	245.75
735.84	245.65
736.17	245.65
736.50	245.16
736.83	245.65
737.16	245.59
737.49	245.41
737.82	245.19
738.15	245.11
738.48	245.03
738.81	244.86
739.14	244.67
739.47	244.51
739.80	244.44
740.13	244.26
740.46	244.00
740.79	243.70
741.12	243.57
741.45	243.31
741.78	242.91
742.11	242.98
742.44	242.71
742.77	242.62
743.10	242.43
743.43	242.28
743.75	241.60
744.08	242.03
744.41	241.96
744.74	241.90
745.07	241.65
745.40	241.60
745.73	241.76
746.06	241.65
746.39	241.70
746.71	241.46
747.04	241.27
747.37	241.19
747.70	241.18
748.03	241.14
748.36	241.11
748.68	240.95
749.01	240.61
749.34	240.42
749.67	240.27
750.00	240.25
750.33	240.54
750.65	240.54
750.98	239.86
751.31	239.76
751.64	239.66
751.97	239.80
752.29	239.59
752.62	239.21
752.95	239.11
753.28	238.88
753.60	238.78
753.93	238.82
754.26	238.77
754.59	238.53
754.91	238.34
755.24	238.22
755.57	238.15
755.90	238.05
756.22	237.92
756.55	237.74
756.88	237.54
757.20	237.09
757.53	236.80
757.86	236.64
758.19	236.59
758.51	236.52
758.84	236.19
759.17	236.13
759.49	236.05
759.82	236.16
760.15	236.08
760.47	235.96
760.80	235.75
761.13	235.73
761.45	235.60
761.78	235.54
762.11	235.40
762.43	235.30
762.76	235.23
763.08	235.25
763.41	235.12
763.74	235.06
764.06	235.00
764.39	234.89
764.71	234.79
765.04	234.65
765.37	234.48
765.69	234.37
766.02	234.28
766.34	234.14
766.67	233.91
767.00	233.93
767.32	234.08
767.65	234.21
767.97	234.02
768.30	233.99
768.62	233.87
768.95	233.76
769.27	233.57
769.60	233.49
769.92	233.25
770.25	233.17
770.57	232.96
770.90	232.88
771.22	232.86
771.55	232.86
771.87	232.76
772.20	232.70
772.52	233.03
772.85	233.57
773.17	233.47
773.50	233.32
773.82	233.16
774.15	232.91
774.47	232.65
774.80	232.60
775.12	232.55
775.45	232.56
775.77	232.56
776.09	232.67
776.42	232.67
776.74	232.77
777.07	232.66
777.39	232.70
777.72	232.62
778.04	232.50
778.36	232.37
778.69	232.32
779.01	232.31
779.33	231.84
779.66	231.21
779.98	231.27
780.31	231.32
780.63	231.55
780.95	231.56
781.28	231.48
781.60	231.36
781.92	231.32
782.25	231.24
782.57	231.25
782.89	231.15
783.22	231.10
783.54	231.01
783.86	231.07
784.19	230.98
784.51	231.11
784.83	231.13
785.16	231.14
785.48	231.19
785.80	231.17
786.12	231.29
786.45	231.30
786.77	231.29
787.09	231.22
787.42	231.02
787.74	231.08
788.06	231.12
788.38	231.12
788.71	231.01
789.03	231.02
789.35	231.00
789.67	230.93
789.99	230.90
790.32	230.77
790.64	230.79
790.96	231.14
791.28	230.91
791.61	230.81
791.93	230.77
792.25	230.70
792.57	231.02
792.89	230.82
793.21	230.86
793.54	230.79
793.86	230.76
794.18	230.81
794.50	230.64
794.82	230.55
795.14	230.59
795.47	230.69
795.79	230.63
796.11	230.50
796.43	230.51
796.75	230.43
797.07	230.50
797.39	230.46
797.71	230.12
798.04	230.11
798.36	230.14
798.68	230.14
799.00	230.21
799.32	229.88
799.64	229.90
799.96	229.80
800.28	229.83
800.60	229.77
800.92	229.69
801.24	229.72
801.56	229.76
801.89	229.77
802.21	229.83
802.53	229.72
802.85	229.83
803.17	230.03
803.49	229.94
803.81	229.79
804.13	229.80
804.45	229.68
804.77	229.74
805.09	229.65
805.41	229.63
805.73	229.43
806.05	229.35
806.37	229.42
806.69	229.37
807.01	229.32
807.33	229.31
807.65	229.14
807.97	229.25
808.28	229.17
808.60	229.05
808.92	228.93
809.24	229.22
809.56	229.14
809.88	228.91
810.20	228.97
810.52	229.09
810.84	228.92
811.16	228.87
811.48	228.77
811.80	228.98
812.12	228.88
812.43	228.97
812.75	228.92
813.07	228.78
813.39	228.74
813.71	228.66
814.03	228.58
814.35	228.55
814.67	228.42
814.98	228.32
815.30	228.35
815.62	228.24
815.94	227.92
816.26	228.07
816.58	227.99
816.89	228.04
817.21	227.94
817.53	227.97
817.85	228.03
818.17	228.06
818.48	227.90
818.80	228.06
819.12	227.99
819.44	227.88
819.76	227.87
820.07	227.86
820.39	227.85
820.71	227.95
821.03	227.98
821.34	227.93
821.66	228.04
821.98	228.08
822.30	228.21
822.61	228.50
822.93	228.30
823.25	228.32
823.57	228.26
823.88	228.36
824.20	228.44
824.52	228.48
824.83	228.45
825.15	228.35
825.47	228.26
825.79	228.24
826.10	228.28
826.42	228.28
826.74	228.40
827.05	228.39
827.37	228.37
827.69	228.43
828.00	228.43
828.32	228.44
828.64	228.37
828.95	228.56
829.27	228.36
829.58	228.38
829.90	228.48
830.22	228.51
830.53	228.39
830.85	228.31
831.17	228.20
831.48	228.23
831.80	228.30
832.11	228.24
832.43	228.21
832.75	228.14
833.06	228.38
833.38	228.25
833.69	228.29
834.01	228.27
834.32	228.18
834.64	228.13
834.96	228.06
835.27	228.07
835.59	227.82
835.90	227.86
836.22	227.85
836.53	227.71
836.85	227.64
837.16	228.13
837.48	228.07
837.79	228.29
838.11	228.36
838.42	228.33
838.74	228.44
839.05	228.39
839.37	228.45
839.68	228.21
840.00	228.16
840.31	228.20
840.63	228.14
840.94	228.14
841.26	228.07
841.57	228.13
841.88	228.19
842.20	228.16
842.51	228.10
842.83	228.03
843.14	228.49
843.46	228.54
843.77	228.25
844.08	228.28
844.40	228.10
844.71	227.96
845.03	227.96
845.34	227.90
845.65	227.95
845.97	227.93
846.28	227.95
846.60	227.91
846.91	227.85
847.22	227.86
847.54	227.94
847.85	227.99
848.16	227.90
848.48	227.81
848.79	227.99
849.10	228.03
849.42	228.04
849.73	227.57
850.04	227.51
850.36	227.36
850.67	227.47
850.98	227.46
851.30	227.53
851.61	227.48
851.92	227.49
852.23	227.55
852.55	227.62
852.86	227.52
853.17	227.63
853.49	227.74
853.80	227.81
854.11	227.77
854.42	227.88
854.74	227.94
855.05	227.97
855.36	227.70
855.67	227.73
855.99	227.75
856.30	228.31
856.61	228.31
856.92	228.34
857.23	228.24
857.55	228.16
857.86	228.11
858.17	228.11
858.48	228.04
858.79	228.02
859.11	228.04
859.42	228.10
859.73	228.07
860.04	227.95
860.35	227.84
860.66	227.75
860.98	227.71
861.29	227.75
861.60	227.64
861.91	227.78
862.22	227.68
862.53	227.57
862.84	227.05
863.16	227.13
863.47	227.00
863.78	226.98
864.09	227.00
864.40	227.05
864.71	227.12
865.02	227.14
865.33	226.98
865.64	226.94
865.95	226.91
866.27	227.15
866.58	227.09
866.89	227.17
867.20	227.19
867.51	227.07
867.82	226.90
868.13	227.01
868.44	226.89
868.75	226.97
869.06	226.99
869.37	226.97
869.68	226.86
869.99	226.95
870.30	226.96
870.61	227.03
870.92	226.93
871.23	226.89
871.54	226.96
871.85	227.12
872.16	227.10
872.47	227.07
872.78	226.81
873.09	226.87
873.40	226.77
873.71	226.83
874.02	226.87
874.33	226.90
874.64	226.78
874.95	226.84
875.26	226.70
875.56	226.69
875.87	226.66
876.18	226.55
876.49	227.04
876.80	227.01
877.11	226.85
877.42	226.81
877.73	226.75
878.04	226.70
878.35	226.67
878.66	226.77
878.96	226.74
879.27	226.80
879.58	226.82
879.89	226.79
880.20	226.85
880.51	226.84
880.82	226.82
881.12	226.89
881.43	226.74
881.74	226.65
882.05	226.63
882.36	226.60
882.67	226.69
882.97	226.18
883.28	226.16
883.59	226.18
883.90	226.31
884.21	226.42
884.51	226.36
884.82	226.28
885.13	226.25
885.44	226.31
885.74	226.23
886.05	226.23
886.36	226.30
886.67	226.19
886.98	226.49
887.28	226.57
887.59	226.57
887.90	226.64
888.20	226.71
888.51	226.83
888.82	226.86
889.13	226.93
889.43	227.32
889.74	227.32
890.05	227.44
890.35	227.34
890.66	227.27
890.97	227.31
891.28	227.33
891.58	227.33
891.89	227.38
892.20	227.40
892.50	227.30
892.81	227.29
893.12	227.31
893.42	227.00
893.73	227.07
894.04	227.12
894.34	227.29
894.65	227.25
894.95	227.16
895.26	227.19
895.57	227.37
895.87	226.93
896.18	227.04
896.48	227.01
896.79	227.08
897.10	227.16
897.40	227.17
897.71	227.26
898.01	227.19
898.32	227.18
898.63	227.15
898.93	227.21
899.24	227.22
899.54	227.19
899.85	227.23
900.15	227.12
900.46	227.10
900.76	227.03
901.07	227.12
901.38	227.11
901.68	227.13
901.99	226.93
902.29	226.97
902.60	226.93
902.90	226.87
903.21	226.82
903.51	226.80
903.82	226.89
904.12	226.80
904.43	226.84
904.73	226.79
905.03	226.85
905.34	227.27
905.64	227.22
905.95	227.23
906.25	227.21
906.56	227.24
906.86	227.19
907.17	227.20
907.47	227.16
907.77	227.12
908.08	227.08
908.38	227.04
908.69	227.11
908.99	227.14
909.30	227.11
909.60	227.16
909.90	227.13
910.21	226.93
910.51	226.87
910.81	226.89
911.12	226.97
911.42	226.90
911.73	226.41
912.03	226.42
912.33	226.49
912.64	226.49
912.94	226.45
913.24	226.38
913.55	226.29
913.85	226.26
914.15	226.39
914.46	226.37
914.76	226.35
915.06	226.32
915.37	226.21
915.67	226.19
915.97	226.15
916.27	226.05
916.58	226.15
916.88	226.19
917.18	226.09
917.49	226.34
917.79	226.38
918.09	226.55
918.39	226.70
918.70	226.70
919.00	226.75
919.30	226.91
919.60	226.94
919.91	226.90
920.21	226.92
920.51	226.82
920.81	226.81
921.12	226.87
921.42	226.86
921.72	226.95
922.02	227.01
922.32	227.02
922.63	227.07
922.93	227.29
923.23	227.28
923.53	227.25
923.83	226.95
924.13	227.01
924.44	226.94
924.74	227.00
925.04	227.07
925.34	227.05
925.64	226.84
925.94	226.89
926.24	227.21
926.55	227.19
926.85	227.25
927.15	227.29
927.45	227.41
927.75	227.42
928.05	227.39
928.35	227.34
928.65	227.51
928.95	227.51
929.26	227.25
929.56	227.37
929.86	227.47
930.16	227.48
930.46	227.40
930.76	227.44
931.06	227.19
931.36	227.00
931.66	227.04
931.96	227.18
932.26	227.20
932.56	227.01
932.86	227.04
933.16	227.01
933.46	226.93
933.76	226.80
934.06	226.92
934.36	227.07
934.66	227.12
934.96	227.04
935.26	227.09
935.56	227.23
935.86	227.07
936.16	227.01
936.46	226.93
936.76	226.88
937.06	226.76
937.36	226.87
937.66	227.00
937.96	227.00
938.26	226.85
938.56	226.77
938.86	226.77
939.16	226.84
939.46	226.88
939.76	226.95
940.06	226.96
940.35	226.80
940.65	226.61
940.95	226.59
941.25	226.44
941.55	226.38
941.85	226.35
942.15	226.49
942.45	226.61
942.75	226.66
943.04	226.74
943.34	226.85
943.64	226.81
943.94	226.63
944.24	226.62
944.54	226.64
944.84	226.63
945.13	226.61
945.43	226.53
945.73	226.59
946.03	226.59
946.33	226.48
946.62	226.42
946.92	226.46
947.22	226.51
947.52	226.56
947.82	226.59
948.11	226.51
948.41	226.38
948.71	226.21
949.01	226.21
949.31	226.17
949.60	226.08
949.90	226.12
950.20	226.20
950.50	226.11
950.79	226.16
951.09	226.26
951.39	226.20
951.69	226.19
951.98	226.25
952.28	226.19
952.58	226.24
952.87	226.25
953.17	226.27
953.47	226.22
953.76	226.31
954.06	226.25
954.36	226.18
954.66	226.21
954.95	226.39
955.25	226.41
955.55	226.42
955.84	226.32
956.14	226.35
956.44	226.36
956.73	226.35
957.03	226.30
957.32	226.25
957.62	226.20
957.92	226.29
958.21	226.18
958.51	226.80
958.81	226.83
959.10	226.85
959.40	226.92
959.69	226.98
959.99	227.03
960.29	227.08
960.58	227.10
960.88	227.30
961.17	227.21
961.47	227.23
961.76	227.17
962.06	227.34
962.36	227.26
962.65	227.25
962.95	227.29
963.24	227.29
963.54	227.35
963.83	227.45
964.13	227.37
964.42	227.28
964.72	226.84
965.01	226.89
965.31	226.83
965.60	226.76
965.90	226.98
966.19	226.77
966.49	226.78
966.78	226.75
967.08	226.68
967.37	226.62
967.67	226.58
967.96	226.70
968.26	226.69
968.55	226.81
968.85	226.79
969.14	226.75
969.43	226.73
969.73	226.71
970.02	226.64
970.32	226.64
970.61	226.66
970.91	226.50
971.20	226.42
971.49	226.39
971.79	226.42
972.08	226.09
972.38	226.26
972.67	226.22
972.96	226.34
973.26	226.27
973.55	226.45
973.85	226.43
974.14	226.33
974.43	226.31
974.73	226.20
975.02	226.18
975.31	226.20
975.61	226.17
975.90	226.08
976.19	226.07
976.49	226.09
976.78	226.04
977.07	226.06
977.37	226.06
977.66	226.19
977.95	226.13
978.24	226.29
978.54	226.32
978.83	226.30
979.12	226.22
979.42	226.21
979.71	226.10
980.00	226.07
980.29	226.05
980.59	225.95
980.88	226.06
981.17	226.05
981.46	226.10
981.76	226.22
982.05	226.32
982.34	226.31
982.63	226.37
982.93	226.47
983.22	226.60
983.51	226.62
983.80	226.69
984.09	226.81
984.39	226.74
984.68	226.63
984.97	226.67
985.26	226.65
985.55	226.73
985.85	226.63
986.14	226.74
986.43	226.88
986.72	226.84
987.01	226.72
987.30	226.69
987.59	226.62
987.89	226.51
988.18	226.47
988.47	226.46
988.76	226.40
989.05	226.33
989.34	226.25
989.63	226.32
989.92	226.24
990.22	226.03
990.51	225.97
990.80	226.00
991.09	226.02
991.38	226.12
991.67	226.08
991.96	226.12
992.25	226.08
992.54	225.95
992.83	226.04
993.12	226.05
993.41	226.23
993.70	226.41
993.99	226.59
994.28	226.62
994.58	226.72
994.87	226.70
995.16	226.74
995.45	226.72
995.74	226.60
996.03	226.66
996.32	226.76
996.61	226.88
996.90	226.80
997.19	226.80
997.48	226.70
997.77	226.59
998.06	226.57
998.34	226.51
998.63	226.54
998.92	226.49
999.21	226.53
999.50	226.49
999.79	226.36
1000.08	226.27
1000.37	226.22
1000.66	226.10
1000.95	226.19
1001.24	226.11
1001.53	226.15
1001.82	226.14
1002.11	226.04
1002.40	226.09
1002.68	226.22
1002.97	226.60
1003.26	226.51
1003.55	226.50
1003.84	226.48
1004.13	226.65
1004.42	226.69
1004.71	226.64
1004.99	226.61
1005.28	226.67
1005.57	226.67
1005.86	226.58
1006.15	226.53
1006.44	226.53
1006.72	226.60
1007.01	226.49
1007.30	226.53
1007.59	226.49
1007.88	226.50
1008.17	226.52
1008.45	226.45
1008.74	226.21
1009.03	226.02
1009.32	226.02
1009.60	226.02
1009.89	226.05
1010.18	225.84
1010.47	225.87
1010.76	225.96
1011.04	226.00
1011.33	226.00
1011.62	226.01
1011.91	225.99
1012.19	225.98
1012.48	226.00
1012.77	226.03
1013.05	226.26
1013.34	226.29
1013.63	226.31
1013.92	226.32
1014.20	226.28
1014.49	226.32
1014.78	226.34
1015.06	226.12
1015.35	226.14
1015.64	226.19
1015.92	226.28
1016.21	226.31
1016.50	226.25
1016.78	226.24
1017.07	226.31
1017.36	226.15
1017.64	226.06
1017.93	226.18
1018.22	226.24
1018.50	226.28
1018.79	226.25
1019.08	226.03
1019.36	226.05
1019.65	225.97
1019.93	226.09
1020.22	226.23
1020.51	226.46
1020.79	226.42
1021.08	226.50
1021.36	227.10
1021.65	226.60
1021.94	225.65
1022.22	226.15
1022.51	225.20
1022.79	228.45
1023.08	227.85
1023.36	232.10
1023.65	224.80
>>>>>End Processed Spectral Data<<<<<
