SpectraSuite Data File
++++++++++++++++++++++++++++++++++++
Date: Wed Sep 04 18:01:23 EDT 2013
User: lab3
Dark Spectrum Present: Yes
Reference Spectrum Present: No
Number of Sampled Component Spectra: 1
Spectrometers: USB2E7196
Integration Time (usec): 170000 (USB2E7196)
Spectra Averaged: 20 (USB2E7196)
Boxcar Smoothing: 10 (USB2E7196)
Correct for Electrical Dark: No (USB2E7196)
Strobe/Lamp Enabled: No (USB2E7196)
Correct for Detector Non-linearity: No (USB2E7196)
Correct for Stray Light: No (USB2E7196)
Number of Pixels in Processed Spectrum: 2048
>>>>>Begin Processed Spectral Data<<<<<
339.09	0.00
339.48	213.60
339.86	215.40
340.24	215.65
340.63	216.40
341.01	226.70
341.39	221.80
341.78	221.75
342.16	224.55
342.54	223.20
342.93	212.61
343.31	223.31
343.69	223.83
344.07	224.26
344.46	224.87
344.84	225.33
345.22	225.34
345.60	225.55
345.99	225.75
346.37	225.84
346.75	226.00
347.13	226.05
347.52	226.21
347.90	226.47
348.28	226.60
348.66	226.73
349.05	226.61
349.43	226.53
349.81	226.67
350.19	226.75
350.57	226.79
350.96	226.90
351.34	227.01
351.72	227.15
352.10	227.29
352.48	227.20
352.87	227.23
353.25	227.29
353.63	227.35
354.01	227.44
354.39	227.54
354.77	227.64
355.15	227.81
355.54	227.84
355.92	227.69
356.30	227.75
356.68	228.05
357.06	228.16
357.44	228.20
357.82	228.22
358.20	228.64
358.58	228.71
358.97	228.80
359.35	228.99
359.73	229.16
360.11	229.18
360.49	229.24
360.87	229.28
361.25	229.36
361.63	229.55
362.01	229.65
362.39	229.65
362.77	229.68
363.15	229.68
363.53	229.70
363.91	229.79
364.29	229.77
364.67	229.35
365.05	229.33
365.43	229.45
365.81	229.55
366.19	229.35
366.57	229.58
366.95	229.49
367.33	229.38
367.71	229.35
368.09	229.41
368.47	229.48
368.85	229.48
369.23	229.52
369.61	229.35
369.99	229.52
370.37	229.51
370.75	229.74
371.13	229.67
371.51	229.60
371.89	229.60
372.27	229.59
372.65	229.64
373.03	229.61
373.41	229.50
373.78	229.39
374.16	229.16
374.54	228.88
374.92	228.86
375.30	228.85
375.68	228.68
376.06	228.67
376.44	228.55
376.82	228.48
377.19	228.36
377.57	228.32
377.95	228.00
378.33	227.94
378.71	227.54
379.09	227.50
379.47	227.46
379.84	227.35
380.22	227.26
380.60	227.09
380.98	227.02
381.36	226.96
381.73	226.88
382.11	226.86
382.49	226.84
382.87	226.73
383.25	226.55
383.62	227.09
384.00	226.91
384.38	226.90
384.76	226.90
385.13	227.01
385.51	226.90
385.89	226.81
386.27	226.71
386.64	226.77
387.02	226.72
387.40	226.67
387.78	226.69
388.15	226.67
388.53	226.61
388.91	226.60
389.29	226.53
389.66	226.55
390.04	226.51
390.42	226.58
390.79	226.62
391.17	226.60
391.55	226.03
391.92	226.03
392.30	226.07
392.68	226.03
393.05	226.00
393.43	226.03
393.81	226.10
394.18	226.12
394.56	226.10
394.94	226.23
395.31	226.19
395.69	226.35
396.06	226.42
396.44	226.47
396.82	226.45
397.19	226.74
397.57	226.74
397.95	226.82
398.32	226.80
398.70	226.86
399.07	227.08
399.45	227.09
399.82	227.23
400.20	227.35
400.58	227.44
400.95	227.41
401.33	227.65
401.70	228.12
402.08	228.25
402.45	228.42
402.83	228.62
403.20	228.86
403.58	228.95
403.95	229.23
404.33	229.52
404.71	229.77
405.08	230.28
405.46	230.52
405.83	230.80
406.21	231.04
406.58	231.41
406.96	231.72
407.33	232.16
407.70	232.56
408.08	233.21
408.45	233.68
408.83	234.17
409.20	234.52
409.58	234.67
409.95	235.25
410.33	235.80
410.70	236.17
411.08	236.84
411.45	237.44
411.82	238.04
412.20	238.83
412.57	239.79
412.95	240.12
413.32	241.03
413.69	241.79
414.07	242.74
414.44	243.69
414.82	244.62
415.19	245.78
415.56	246.96
415.94	248.03
416.31	249.45
416.68	250.88
417.06	252.58
417.43	254.23
417.81	255.96
418.18	257.80
418.55	259.84
418.93	261.81
419.30	263.89
419.67	266.07
420.04	268.31
420.42	270.70
420.79	273.82
421.16	276.60
421.54	279.76
421.91	282.82
422.28	285.96
422.66	289.29
423.03	292.76
423.40	296.07
423.77	299.62
424.15	303.24
424.52	307.09
424.89	311.13
425.26	315.10
425.64	318.88
426.01	323.04
426.38	327.31
426.75	331.94
427.13	336.50
427.50	341.40
427.87	346.37
428.24	351.24
428.61	355.65
428.99	361.02
429.36	366.53
429.73	371.97
430.10	377.49
430.47	383.25
430.85	388.87
431.22	395.24
431.59	402.07
431.96	408.28
432.33	415.27
432.70	421.98
433.08	429.85
433.45	437.42
433.82	444.89
434.19	453.25
434.56	461.40
434.93	469.29
435.30	476.96
435.68	485.59
436.05	494.09
436.42	502.63
436.79	510.32
437.16	518.64
437.53	527.48
437.90	536.21
438.27	544.85
438.64	553.91
439.01	562.16
439.38	569.47
439.75	576.73
440.13	584.71
440.50	592.39
440.87	598.54
441.24	604.93
441.61	612.01
441.98	617.05
442.35	622.86
442.72	628.84
443.09	634.74
443.46	638.22
443.83	640.60
444.20	642.59
444.57	645.37
444.94	646.44
445.31	647.54
445.68	648.93
446.05	649.01
446.42	647.58
446.79	646.06
447.16	644.34
447.53	643.03
447.90	639.28
448.27	635.53
448.64	630.68
449.01	626.90
449.37	620.68
449.74	614.61
450.11	607.68
450.48	599.73
450.85	591.55
451.22	584.62
451.59	577.87
451.96	571.40
452.33	563.26
452.70	555.83
453.07	547.09
453.43	537.87
453.80	529.49
454.17	521.43
454.54	513.74
454.91	505.37
455.28	497.39
455.65	489.91
456.02	483.19
456.38	476.74
456.75	468.98
457.12	462.29
457.49	456.04
457.86	449.58
458.23	444.54
458.59	438.90
458.96	433.07
459.33	428.01
459.70	422.93
460.07	418.69
460.43	414.10
460.80	409.91
461.17	406.24
461.54	402.14
461.91	398.42
462.27	394.60
462.64	391.50
463.01	387.93
463.38	384.62
463.74	380.39
464.11	377.42
464.48	374.78
464.85	372.00
465.21	369.77
465.58	367.46
465.95	364.61
466.32	362.39
466.68	360.17
467.05	357.84
467.42	355.61
467.78	353.30
468.15	351.05
468.52	349.43
468.88	347.15
469.25	345.29
469.62	343.77
469.98	341.97
470.35	340.33
470.72	338.85
471.08	337.14
471.45	335.97
471.82	334.61
472.18	333.11
472.55	332.08
472.92	330.77
473.28	329.65
473.65	328.58
474.02	327.60
474.38	326.69
474.75	326.04
475.11	325.20
475.48	324.64
475.85	324.12
476.21	323.43
476.58	322.93
476.94	322.65
477.31	322.15
477.67	321.83
478.04	321.52
478.41	321.30
478.77	321.62
479.14	321.25
479.50	321.16
479.87	321.23
480.23	321.22
480.60	321.17
480.96	321.18
481.33	321.51
481.69	321.66
482.06	321.89
482.42	322.08
482.79	322.44
483.15	322.84
483.52	323.36
483.88	323.79
484.25	324.41
484.61	324.87
484.98	325.53
485.34	326.49
485.71	327.39
486.07	328.37
486.44	328.89
486.80	330.00
487.17	331.10
487.53	332.41
487.90	333.85
488.26	335.59
488.62	337.26
488.99	338.82
489.35	340.54
489.72	342.38
490.08	344.36
490.44	346.24
490.81	348.43
491.17	350.61
491.54	353.11
491.90	355.65
492.26	358.39
492.63	361.16
492.99	363.98
493.36	367.20
493.72	370.51
494.08	373.94
494.45	377.73
494.81	381.65
495.17	385.54
495.54	389.68
495.90	393.75
496.26	398.23
496.63	402.92
496.99	407.73
497.35	412.98
497.72	418.35
498.08	423.94
498.44	429.57
498.80	435.71
499.17	441.77
499.53	448.11
499.89	454.79
500.26	461.62
500.62	468.72
500.98	476.09
501.34	483.45
501.71	491.28
502.07	499.02
502.43	507.08
502.79	515.47
503.16	524.15
503.52	533.40
503.88	542.69
504.24	552.38
504.60	562.48
504.97	572.63
505.33	583.14
505.69	594.32
506.05	605.39
506.41	616.70
506.78	628.41
507.14	640.49
507.50	652.89
507.86	665.64
508.22	678.65
508.59	691.67
508.95	705.61
509.31	719.80
509.67	734.27
510.03	748.77
510.39	763.58
510.75	778.71
511.12	793.78
511.48	809.40
511.84	825.25
512.20	841.24
512.56	857.76
512.92	874.64
513.28	891.43
513.64	908.74
514.00	926.34
514.37	944.30
514.73	962.39
515.09	980.63
515.45	999.05
515.81	1017.48
516.17	1036.27
516.53	1054.96
516.89	1073.76
517.25	1093.04
517.61	1113.29
517.97	1133.63
518.33	1153.66
518.69	1174.31
519.05	1194.91
519.41	1215.49
519.77	1236.55
520.13	1257.25
520.49	1277.83
520.85	1300.24
521.21	1321.71
521.57	1343.05
521.93	1363.60
522.29	1384.93
522.65	1405.69
523.01	1426.53
523.37	1447.26
523.73	1468.44
524.09	1489.14
524.45	1510.05
524.81	1531.15
525.17	1551.81
525.53	1572.50
525.89	1593.35
526.25	1614.09
526.61	1634.60
526.97	1655.83
527.33	1677.32
527.68	1699.23
528.04	1720.60
528.40	1740.20
528.76	1761.12
529.12	1781.61
529.48	1802.67
529.84	1822.92
530.20	1844.14
530.56	1865.10
530.91	1886.52
531.27	1906.90
531.63	1927.59
531.99	1948.19
532.35	1968.44
532.71	1988.87
533.07	2009.50
533.42	2029.60
533.78	2049.80
534.14	2069.73
534.50	2089.02
534.86	2108.25
535.21	2125.80
535.57	2144.63
535.93	2162.50
536.29	2180.25
536.65	2198.33
537.00	2216.06
537.36	2233.80
537.72	2250.76
538.08	2268.30
538.44	2284.86
538.79	2301.73
539.15	2318.41
539.51	2334.55
539.87	2349.55
540.22	2363.67
540.58	2378.15
540.94	2391.60
541.29	2403.98
541.65	2416.56
542.01	2429.01
542.37	2439.63
542.72	2450.89
543.08	2461.57
543.44	2473.45
543.79	2483.88
544.15	2494.12
544.51	2504.35
544.87	2513.85
545.22	2522.39
545.58	2530.18
545.94	2537.64
546.29	2544.29
546.65	2550.48
547.01	2556.23
547.36	2561.96
547.72	2567.47
548.07	2571.87
548.43	2577.30
548.79	2582.37
549.14	2586.96
549.50	2590.81
549.86	2595.08
550.21	2599.13
550.57	2602.68
550.92	2604.49
551.28	2605.75
551.64	2608.09
551.99	2610.24
552.35	2612.36
552.70	2614.57
553.06	2616.21
553.41	2617.23
553.77	2619.06
554.13	2620.75
554.48	2622.29
554.84	2623.94
555.19	2625.13
555.55	2626.49
555.90	2625.80
556.26	2624.79
556.61	2622.93
556.97	2620.87
557.32	2620.06
557.68	2618.66
558.03	2617.05
558.39	2615.46
558.74	2615.08
559.10	2611.95
559.45	2608.19
559.81	2603.50
560.16	2598.37
560.52	2593.49
560.87	2589.30
561.23	2583.80
561.58	2578.11
561.94	2571.31
562.29	2563.95
562.64	2556.98
563.00	2548.75
563.35	2542.67
563.71	2536.19
564.06	2530.12
564.42	2523.52
564.77	2516.32
565.12	2508.68
565.48	2500.80
565.83	2493.13
566.19	2484.65
566.54	2476.70
566.89	2468.60
567.25	2461.07
567.60	2453.90
567.96	2446.34
568.31	2438.26
568.66	2429.44
569.02	2420.36
569.37	2412.08
569.72	2404.49
570.08	2395.34
570.43	2386.07
570.78	2376.73
571.14	2367.38
571.49	2357.28
571.84	2347.62
572.20	2336.92
572.55	2326.88
572.90	2315.85
573.26	2305.18
573.61	2294.13
573.96	2282.96
574.31	2270.95
574.67	2259.12
575.02	2246.32
575.37	2233.61
575.72	2220.41
576.08	2208.50
576.43	2195.81
576.78	2182.70
577.13	2168.68
577.49	2155.96
577.84	2144.04
578.19	2131.96
578.54	2119.05
578.90	2106.77
579.25	2094.54
579.60	2081.98
579.95	2069.14
580.30	2056.12
580.66	2042.86
581.01	2029.46
581.36	2015.49
581.71	2002.78
582.06	1989.58
582.42	1976.99
582.77	1964.38
583.12	1952.39
583.47	1939.98
583.82	1928.04
584.17	1915.90
584.53	1904.18
584.88	1891.12
585.23	1877.78
585.58	1863.15
585.93	1850.16
586.28	1836.69
586.63	1822.70
586.98	1808.31
587.34	1794.93
587.69	1781.78
588.04	1769.15
588.39	1756.83
588.74	1744.71
589.09	1732.66
589.44	1720.05
589.79	1708.03
590.14	1695.81
590.49	1683.50
590.84	1671.16
591.19	1658.85
591.54	1646.47
591.89	1634.20
592.25	1624.03
592.60	1612.50
592.95	1601.11
593.30	1588.83
593.65	1577.19
594.00	1564.92
594.35	1555.24
594.70	1543.55
595.05	1532.10
595.40	1519.53
595.75	1507.44
596.10	1496.03
596.45	1484.41
596.80	1473.27
597.15	1461.56
597.50	1449.97
597.85	1438.49
598.19	1426.91
598.54	1415.22
598.89	1403.99
599.24	1393.45
599.59	1381.45
599.94	1370.50
600.29	1359.99
600.64	1349.76
600.99	1338.88
601.34	1329.31
601.69	1318.04
602.04	1307.95
602.39	1298.13
602.74	1289.14
603.08	1279.96
603.43	1270.46
603.78	1260.46
604.13	1250.80
604.48	1240.90
604.83	1230.93
605.18	1221.26
605.53	1211.70
605.87	1202.58
606.22	1193.82
606.57	1184.26
606.92	1174.72
607.27	1165.87
607.62	1157.16
607.96	1148.50
608.31	1140.40
608.66	1132.20
609.01	1123.58
609.36	1114.73
609.70	1106.14
610.05	1097.29
610.40	1088.57
610.75	1079.95
611.10	1071.76
611.44	1062.98
611.79	1054.81
612.14	1047.13
612.49	1038.96
612.83	1031.21
613.18	1023.21
613.53	1015.29
613.88	1007.20
614.22	999.49
614.57	991.30
614.92	983.28
615.27	975.63
615.61	967.99
615.96	960.05
616.31	952.52
616.65	945.65
617.00	938.21
617.35	931.02
617.70	923.82
618.04	916.44
618.39	909.53
618.74	903.14
619.08	896.32
619.43	889.09
619.78	882.00
620.12	874.91
620.47	868.08
620.82	861.10
621.16	854.25
621.51	847.89
621.85	841.61
622.20	834.90
622.55	828.20
622.89	821.63
623.24	815.37
623.59	808.97
623.93	802.54
624.28	796.40
624.62	790.65
624.97	784.66
625.32	779.03
625.66	772.80
626.01	766.59
626.35	760.96
626.70	755.40
627.04	750.14
627.39	744.44
627.73	739.00
628.08	733.81
628.43	728.59
628.77	723.10
629.12	717.73
629.46	712.99
629.81	708.17
630.15	703.29
630.50	698.13
630.84	693.21
631.19	688.23
631.53	683.51
631.88	678.18
632.22	673.31
632.57	668.60
632.91	664.14
633.26	659.78
633.60	654.98
633.95	650.15
634.29	645.39
634.64	640.94
634.98	636.28
635.32	631.73
635.67	627.61
636.01	623.42
636.36	619.06
636.70	614.80
637.05	610.57
637.39	606.44
637.73	602.48
638.08	598.49
638.42	594.44
638.77	590.03
639.11	585.73
639.45	581.45
639.80	577.17
640.14	572.77
640.49	568.63
640.83	564.87
641.17	561.24
641.52	557.45
641.86	553.93
642.20	550.67
642.55	547.01
642.89	543.25
643.23	539.83
643.58	536.76
643.92	533.15
644.26	529.73
644.61	526.41
644.95	523.09
645.29	519.61
645.64	516.38
645.98	513.30
646.32	510.36
646.66	507.20
647.01	504.17
647.35	501.46
647.69	498.61
648.04	495.66
648.38	492.75
648.72	489.81
649.06	486.70
649.41	483.63
649.75	480.66
650.09	477.79
650.43	474.88
650.78	471.76
651.12	468.95
651.46	466.01
651.80	463.16
652.14	460.36
652.49	457.90
652.83	455.27
653.17	452.68
653.51	449.92
653.85	447.52
654.20	444.92
654.54	442.37
654.88	439.74
655.22	437.58
655.56	435.18
655.90	432.85
656.25	430.58
656.59	428.23
656.93	426.09
657.27	424.13
657.61	421.67
657.95	419.39
658.29	417.23
658.64	415.11
658.98	412.90
659.32	410.61
659.66	408.25
660.00	406.13
660.34	404.01
660.68	402.08
661.02	399.99
661.36	398.03
661.70	395.94
662.05	393.96
662.39	391.87
662.73	389.99
663.07	388.38
663.41	386.52
663.75	384.51
664.09	382.57
664.43	380.49
664.77	378.75
665.11	376.98
665.45	375.24
665.79	373.60
666.13	371.81
666.47	370.16
666.81	368.60
667.15	366.83
667.49	365.26
667.83	363.83
668.17	362.32
668.51	360.81
668.85	359.50
669.19	358.40
669.53	356.86
669.87	355.41
670.21	353.75
670.55	352.46
670.89	351.42
671.23	350.10
671.57	348.64
671.91	347.41
672.25	346.08
672.58	344.95
672.92	343.56
673.26	342.37
673.60	341.16
673.94	340.08
674.28	338.97
674.62	337.81
674.96	336.46
675.30	335.28
675.64	334.21
675.97	332.96
676.31	331.49
676.65	330.20
676.99	329.14
677.33	328.00
677.67	326.81
678.01	325.53
678.34	324.51
678.68	323.62
679.02	322.50
679.36	321.58
679.70	320.37
680.04	319.45
680.37	318.45
680.71	317.41
681.05	316.36
681.39	315.49
681.73	314.61
682.06	313.76
682.40	312.84
682.74	312.02
683.08	311.29
683.42	310.38
683.75	309.65
684.09	308.70
684.43	307.84
684.77	306.96
685.10	306.10
685.44	305.18
685.78	304.24
686.12	303.50
686.45	302.62
686.79	301.86
687.13	301.15
687.46	300.45
687.80	299.86
688.14	299.07
688.48	298.29
688.81	297.48
689.15	296.85
689.49	296.16
689.82	295.37
690.16	294.44
690.50	293.80
690.83	293.05
691.17	292.27
691.51	291.67
691.84	291.08
692.18	290.42
692.52	289.75
692.85	289.15
693.19	288.64
693.52	288.01
693.86	287.43
694.20	286.81
694.53	286.21
694.87	285.57
695.21	284.91
695.54	284.27
695.88	283.64
696.21	282.84
696.55	282.17
696.88	281.52
697.22	281.01
697.56	280.44
697.89	279.85
698.23	279.41
698.56	278.79
698.90	278.35
699.23	277.80
699.57	277.35
699.90	276.85
700.24	276.18
700.58	275.76
700.91	275.32
701.25	275.20
701.58	275.00
701.92	274.63
702.25	274.20
702.59	273.75
702.92	273.36
703.26	273.01
703.59	272.68
703.93	272.72
704.26	272.26
704.60	271.90
704.93	271.44
705.26	270.93
705.60	270.61
705.93	270.04
706.27	269.81
706.60	269.55
706.94	269.35
707.27	268.88
707.61	268.52
707.94	268.17
708.27	267.43
708.61	266.66
708.94	266.22
709.28	265.80
709.61	265.38
709.94	265.05
710.28	264.71
710.61	264.31
710.95	263.43
711.28	263.49
711.61	263.04
711.95	262.78
712.28	262.47
712.61	262.05
712.95	261.92
713.28	261.68
713.61	261.14
713.95	260.66
714.28	260.43
714.61	260.01
714.95	259.57
715.28	259.14
715.61	258.78
715.95	258.42
716.28	258.01
716.61	257.75
716.95	257.35
717.28	256.93
717.61	256.57
717.94	256.22
718.28	255.51
718.61	255.20
718.94	254.87
719.27	254.53
719.61	254.26
719.94	253.90
720.27	253.42
720.60	253.23
720.94	252.96
721.27	252.80
721.60	252.68
721.93	252.45
722.27	252.40
722.60	252.30
722.93	252.04
723.26	251.97
723.59	251.70
723.93	251.49
724.26	251.44
724.59	251.21
724.92	251.15
725.25	251.12
725.59	250.96
725.92	250.81
726.25	250.66
726.58	250.53
726.91	250.34
727.24	250.19
727.57	249.91
727.91	249.61
728.24	249.43
728.57	249.14
728.90	249.03
729.23	248.70
729.56	248.75
729.89	248.64
730.22	248.36
730.55	248.25
730.89	248.19
731.22	247.98
731.55	247.89
731.88	247.71
732.21	247.40
732.54	247.22
732.87	247.03
733.20	246.91
733.53	246.69
733.86	246.57
734.19	246.35
734.52	246.40
734.85	246.60
735.18	246.36
735.51	246.45
735.84	246.26
736.17	246.22
736.50	245.80
736.83	246.15
737.16	246.01
737.49	245.87
737.82	245.62
738.15	245.51
738.48	245.37
738.81	245.29
739.14	245.12
739.47	244.94
739.80	244.78
740.13	244.65
740.46	244.51
740.79	244.22
741.12	244.08
741.45	243.80
741.78	243.43
742.11	243.43
742.44	243.10
742.77	243.06
743.10	242.84
743.43	242.61
743.75	241.97
744.08	242.48
744.41	242.30
744.74	242.15
745.07	241.89
745.40	241.73
745.73	241.70
746.06	241.61
746.39	241.56
746.71	241.36
747.04	241.15
747.37	240.96
747.70	240.92
748.03	240.75
748.36	240.62
748.68	240.47
749.01	240.12
749.34	239.96
749.67	239.80
750.00	239.72
750.33	240.03
750.65	239.94
750.98	239.21
751.31	239.08
751.64	238.99
751.97	239.05
752.29	238.96
752.62	238.69
752.95	238.53
753.28	238.32
753.60	238.25
753.93	238.28
754.26	238.24
754.59	238.06
754.91	237.96
755.24	237.86
755.57	237.75
755.90	237.70
756.22	237.56
756.55	237.36
756.88	237.16
757.20	236.66
757.53	236.37
757.86	236.30
758.19	236.23
758.51	236.12
758.84	235.84
759.17	235.60
759.49	235.46
759.82	235.63
760.15	235.55
760.47	235.51
760.80	235.31
761.13	235.29
761.45	235.14
761.78	235.00
762.11	234.86
762.43	234.70
762.76	234.56
763.08	234.60
763.41	234.55
763.74	234.48
764.06	234.42
764.39	234.39
764.71	234.30
765.04	234.19
765.37	234.02
765.69	233.94
766.02	233.94
766.34	233.83
766.67	233.63
767.00	233.70
767.32	233.91
767.65	234.14
767.97	233.98
768.30	234.03
768.62	234.01
768.95	233.92
769.27	233.89
769.60	233.92
769.92	233.74
770.25	233.64
770.57	233.57
770.90	233.53
771.22	233.37
771.55	233.28
771.87	233.17
772.20	233.08
772.52	233.45
772.85	233.91
773.17	233.88
773.50	233.69
773.82	233.59
774.15	233.20
774.47	232.84
774.80	232.74
775.12	232.65
775.45	232.63
775.77	232.65
776.09	232.62
776.42	232.61
776.74	232.74
777.07	232.60
777.39	232.58
777.72	232.46
778.04	232.55
778.36	232.50
778.69	232.56
779.01	232.67
779.33	232.20
779.66	231.65
779.98	231.61
780.31	231.62
780.63	231.68
780.95	231.76
781.28	231.75
781.60	231.75
781.92	231.70
782.25	231.63
782.57	231.53
782.89	231.46
783.22	231.44
783.54	231.25
783.86	231.32
784.19	231.27
784.51	231.43
784.83	231.34
785.16	231.34
785.48	231.32
785.80	231.24
786.12	231.35
786.45	231.31
786.77	231.31
787.09	231.23
787.42	231.07
787.74	231.01
788.06	230.95
788.38	230.83
788.71	230.71
789.03	230.72
789.35	230.86
789.67	230.75
789.99	230.67
790.32	230.56
790.64	230.52
790.96	230.87
791.28	230.63
791.61	230.55
791.93	230.50
792.25	230.36
792.57	230.57
792.89	230.30
793.21	230.30
793.54	230.21
793.86	230.16
794.18	230.18
794.50	229.99
794.82	229.92
795.14	229.98
795.47	230.13
795.79	230.04
796.11	229.81
796.43	229.79
796.75	229.80
797.07	229.85
797.39	229.82
797.71	229.41
798.04	229.42
798.36	229.49
798.68	229.44
799.00	229.50
799.32	229.27
799.64	229.45
799.96	229.37
800.28	229.44
800.60	229.40
800.92	229.36
801.24	229.38
801.56	229.48
801.89	229.44
802.21	229.41
802.53	229.35
802.85	229.48
803.17	229.71
803.49	229.58
803.81	229.49
804.13	229.44
804.45	229.45
804.77	229.46
805.09	229.39
805.41	229.42
805.73	229.31
806.05	229.26
806.37	229.22
806.69	229.21
807.01	229.16
807.33	229.22
807.65	229.06
807.97	229.30
808.28	229.20
808.60	229.18
808.92	229.06
809.24	229.36
809.56	229.27
809.88	229.07
810.20	229.10
810.52	229.21
810.84	229.15
811.16	229.04
811.48	229.03
811.80	229.31
812.12	229.23
812.43	229.28
812.75	229.25
813.07	229.22
813.39	229.30
813.71	229.22
814.03	229.11
814.35	229.25
814.67	229.05
814.98	228.95
815.30	228.96
815.62	228.92
815.94	228.60
816.26	228.85
816.58	228.75
816.89	228.77
817.21	228.67
817.53	228.73
817.85	228.76
818.17	228.76
818.48	228.51
818.80	228.59
819.12	228.60
819.44	228.59
819.76	228.46
820.07	228.47
820.39	228.47
820.71	228.52
821.03	228.44
821.34	228.43
821.66	228.55
821.98	228.50
822.30	228.53
822.61	228.78
822.93	228.46
823.25	228.46
823.57	228.42
823.88	228.48
824.20	228.40
824.52	228.50
824.83	228.46
825.15	228.35
825.47	228.28
825.79	228.32
826.10	228.23
826.42	228.26
826.74	228.18
827.05	228.11
827.37	228.16
827.69	228.12
828.00	228.12
828.32	228.09
828.64	228.11
828.95	228.36
829.27	228.26
829.58	228.27
829.90	228.32
830.22	228.28
830.53	228.17
830.85	228.11
831.17	227.93
831.48	227.90
831.80	227.98
832.11	228.04
832.43	227.89
832.75	227.84
833.06	228.07
833.38	227.93
833.69	227.97
834.01	227.93
834.32	227.86
834.64	227.82
834.96	227.78
835.27	227.71
835.59	227.45
835.90	227.40
836.22	227.39
836.53	227.35
836.85	227.36
837.16	227.82
837.48	227.86
837.79	228.07
838.11	228.11
838.42	228.13
838.74	228.12
839.05	228.14
839.37	228.19
839.68	227.91
840.00	228.00
840.31	228.03
840.63	227.99
840.94	227.94
841.26	227.88
841.57	227.87
841.88	227.93
842.20	227.89
842.51	227.80
842.83	227.84
843.14	228.21
843.46	228.23
843.77	227.91
844.08	227.89
844.40	227.69
844.71	227.67
845.03	227.60
845.34	227.51
845.65	227.48
845.97	227.48
846.28	227.50
846.60	227.51
846.91	227.47
847.22	227.51
847.54	227.70
847.85	227.74
848.16	227.71
848.48	227.59
848.79	227.81
849.10	227.85
849.42	227.83
849.73	227.39
850.04	227.39
850.36	227.30
850.67	227.45
850.98	227.48
851.30	227.48
851.61	227.45
851.92	227.52
852.23	227.67
852.55	227.72
852.86	227.76
853.17	227.83
853.49	227.93
853.80	228.05
854.11	228.01
854.42	228.10
854.74	228.11
855.05	228.14
855.36	227.87
855.67	227.88
855.99	227.92
856.30	228.49
856.61	228.45
856.92	228.39
857.23	228.33
857.55	228.30
857.86	228.29
858.17	228.35
858.48	228.24
858.79	228.10
859.11	228.14
859.42	228.05
859.73	227.92
860.04	227.93
860.35	227.68
860.66	227.50
860.98	227.43
861.29	227.52
861.60	227.52
861.91	227.61
862.22	227.57
862.53	227.44
862.84	226.93
863.16	227.03
863.47	226.96
863.78	226.91
864.09	226.92
864.40	226.98
864.71	226.98
865.02	227.03
865.33	226.96
865.64	226.86
865.95	226.91
866.27	227.20
866.58	227.09
866.89	227.16
867.20	227.15
867.51	227.09
867.82	226.90
868.13	227.05
868.44	226.97
868.75	227.00
869.06	227.04
869.37	227.03
869.68	226.86
869.99	226.95
870.30	226.97
870.61	227.04
870.92	226.87
871.23	226.80
871.54	226.84
871.85	227.01
872.16	227.04
872.47	226.96
872.78	226.70
873.09	226.75
873.40	226.79
873.71	226.89
874.02	226.88
874.33	226.96
874.64	226.80
874.95	226.88
875.26	226.77
875.56	226.80
875.87	226.80
876.18	226.84
876.49	227.30
876.80	227.31
877.11	227.20
877.42	227.29
877.73	227.33
878.04	227.24
878.35	227.17
878.66	227.15
878.96	227.18
879.27	227.17
879.58	227.15
879.89	227.08
880.20	227.25
880.51	227.28
880.82	227.25
881.12	227.33
881.43	227.26
881.74	227.25
882.05	227.23
882.36	227.23
882.67	227.24
882.97	226.68
883.28	226.66
883.59	226.61
883.90	226.65
884.21	226.74
884.51	226.73
884.82	226.70
885.13	226.70
885.44	226.71
885.74	226.71
886.05	226.71
886.36	226.76
886.67	226.59
886.98	226.86
887.28	226.96
887.59	226.97
887.90	226.99
888.20	226.98
888.51	227.10
888.82	227.09
889.13	227.20
889.43	227.61
889.74	227.62
890.05	227.63
890.35	227.60
890.66	227.50
890.97	227.52
891.28	227.49
891.58	227.50
891.89	227.49
892.20	227.40
892.50	227.37
892.81	227.30
893.12	227.26
893.42	226.97
893.73	226.93
894.04	226.92
894.34	226.93
894.65	226.88
894.95	226.77
895.26	226.74
895.57	226.89
895.87	226.45
896.18	226.42
896.48	226.48
896.79	226.48
897.10	226.58
897.40	226.58
897.71	226.64
898.01	226.67
898.32	226.73
898.63	226.75
898.93	226.78
899.24	226.83
899.54	226.79
899.85	226.85
900.15	226.81
900.46	226.77
900.76	226.85
901.07	226.94
901.38	226.95
901.68	227.04
901.99	226.85
902.29	226.90
902.60	226.97
902.90	226.95
903.21	226.87
903.51	226.80
903.82	226.86
904.12	226.83
904.43	226.77
904.73	226.69
905.03	226.75
905.34	227.11
905.64	227.09
905.95	227.09
906.25	227.07
906.56	227.10
906.86	227.08
907.17	227.00
907.47	226.98
907.77	226.94
908.08	226.81
908.38	226.79
908.69	226.82
908.99	226.87
909.30	226.88
909.60	226.93
909.90	226.99
910.21	226.85
910.51	226.79
910.81	226.76
911.12	226.83
911.42	226.83
911.73	226.44
912.03	226.45
912.33	226.64
912.64	226.59
912.94	226.50
913.24	226.43
913.55	226.42
913.85	226.36
914.15	226.47
914.46	226.50
914.76	226.41
915.06	226.44
915.37	226.32
915.67	226.33
915.97	226.33
916.27	226.22
916.58	226.29
916.88	226.33
917.18	226.35
917.49	226.68
917.79	226.64
918.09	226.71
918.39	226.82
918.70	226.73
919.00	226.72
919.30	226.95
919.60	226.95
919.91	226.90
920.21	226.97
920.51	226.85
920.81	226.89
921.12	227.06
921.42	227.02
921.72	227.06
922.02	227.10
922.32	227.17
922.63	227.27
922.93	227.45
923.23	227.40
923.53	227.39
923.83	227.06
924.13	227.15
924.44	227.05
924.74	227.15
925.04	227.22
925.34	227.23
925.64	227.12
925.94	227.15
926.24	227.45
926.55	227.41
926.85	227.49
927.15	227.46
927.45	227.42
927.75	227.41
928.05	227.40
928.35	227.29
928.65	227.43
928.95	227.43
929.26	227.27
929.56	227.41
929.86	227.46
930.16	227.49
930.46	227.37
930.76	227.47
931.06	227.17
931.36	227.08
931.66	227.17
931.96	227.23
932.26	227.28
932.56	227.14
932.86	227.18
933.16	227.16
933.46	227.17
933.76	227.07
934.06	227.20
934.36	227.37
934.66	227.42
934.96	227.29
935.26	227.30
935.56	227.40
935.86	227.25
936.16	227.21
936.46	227.10
936.76	227.11
937.06	227.07
937.36	227.10
937.66	227.09
937.96	227.03
938.26	226.83
938.56	226.81
938.86	226.77
939.16	226.82
939.46	226.88
939.76	226.87
940.06	226.82
940.35	226.72
940.65	226.54
940.95	226.58
941.25	226.42
941.55	226.33
941.85	226.23
942.15	226.32
942.45	226.47
942.75	226.46
943.04	226.43
943.34	226.48
943.64	226.49
943.94	226.48
944.24	226.46
944.54	226.52
944.84	226.46
945.13	226.32
945.43	226.30
945.73	226.25
946.03	226.19
946.33	226.15
946.62	226.10
946.92	226.01
947.22	225.97
947.52	226.04
947.82	226.03
948.11	226.01
948.41	225.88
948.71	225.68
949.01	225.66
949.31	225.63
949.60	225.52
949.90	225.60
950.20	225.51
950.50	225.51
950.79	225.43
951.09	225.49
951.39	225.50
951.69	225.41
951.98	225.45
952.28	225.48
952.58	225.48
952.87	225.45
953.17	225.53
953.47	225.49
953.76	225.51
954.06	225.52
954.36	225.43
954.66	225.42
954.95	225.56
955.25	225.63
955.55	225.76
955.84	225.73
956.14	225.76
956.44	225.84
956.73	225.77
957.03	225.79
957.32	225.77
957.62	225.71
957.92	225.83
958.21	225.80
958.51	226.35
958.81	226.43
959.10	226.50
959.40	226.63
959.69	226.62
959.99	226.67
960.29	226.69
960.58	226.77
960.88	227.07
961.17	226.95
961.47	227.00
961.76	226.91
962.06	227.09
962.36	226.97
962.65	227.00
962.95	227.07
963.24	227.10
963.54	227.20
963.83	227.32
964.13	227.24
964.42	227.15
964.72	226.83
965.01	226.82
965.31	226.80
965.60	226.70
965.90	227.02
966.19	226.95
966.49	226.98
966.78	226.95
967.08	226.84
967.37	226.91
967.67	226.85
967.96	226.99
968.26	226.94
968.55	227.05
968.85	227.07
969.14	227.10
969.43	227.10
969.73	226.98
970.02	226.97
970.32	227.10
970.61	227.14
970.91	226.95
971.20	226.91
971.49	226.89
971.79	226.95
972.08	226.69
972.38	226.67
972.67	226.65
972.96	226.73
973.26	226.65
973.55	226.79
973.85	226.79
974.14	226.72
974.43	226.71
974.73	226.62
975.02	226.60
975.31	226.63
975.61	226.63
975.90	226.56
976.19	226.57
976.49	226.50
976.78	226.50
977.07	226.50
977.37	226.51
977.66	226.54
977.95	226.45
978.24	226.43
978.54	226.57
978.83	226.46
979.12	226.39
979.42	226.40
979.71	226.38
980.00	226.36
980.29	226.35
980.59	226.17
980.88	226.29
981.17	226.20
981.46	226.06
981.76	226.08
982.05	226.29
982.34	226.29
982.63	226.25
982.93	226.27
983.22	226.37
983.51	226.40
983.80	226.44
984.09	226.50
984.39	226.47
984.68	226.38
984.97	226.48
985.26	226.38
985.55	226.41
985.85	226.28
986.14	226.26
986.43	226.30
986.72	226.33
987.01	226.09
987.30	226.10
987.59	226.16
987.89	226.21
988.18	226.00
988.47	225.93
988.76	225.91
989.05	225.80
989.34	225.73
989.63	225.76
989.92	225.74
990.22	225.67
990.51	225.66
990.80	225.56
991.09	225.60
991.38	225.74
991.67	225.65
991.96	225.57
992.25	225.59
992.54	225.54
992.83	225.59
993.12	225.70
993.41	225.76
993.70	225.90
993.99	226.00
994.28	226.09
994.58	226.18
994.87	226.14
995.16	226.18
995.45	226.13
995.74	226.10
996.03	226.13
996.32	226.19
996.61	226.30
996.90	226.39
997.19	226.30
997.48	226.28
997.77	226.30
998.06	226.28
998.34	226.23
998.63	226.22
998.92	226.20
999.21	226.22
999.50	226.27
999.79	226.09
1000.08	225.96
1000.37	225.97
1000.66	225.84
1000.95	225.94
1001.24	225.85
1001.53	225.92
1001.82	225.86
1002.11	225.76
1002.40	225.81
1002.68	225.96
1002.97	226.32
1003.26	226.27
1003.55	226.20
1003.84	226.24
1004.13	226.50
1004.42	226.44
1004.71	226.48
1004.99	226.51
1005.28	226.75
1005.57	226.75
1005.86	226.82
1006.15	226.81
1006.44	226.73
1006.72	226.88
1007.01	226.81
1007.30	226.96
1007.59	226.96
1007.88	226.96
1008.17	227.00
1008.45	226.94
1008.74	226.64
1009.03	226.35
1009.32	226.37
1009.60	226.46
1009.89	226.40
1010.18	226.09
1010.47	226.17
1010.76	226.15
1011.04	226.14
1011.33	226.04
1011.62	225.97
1011.91	225.95
1012.19	225.94
1012.48	225.98
1012.77	225.93
1013.05	226.14
1013.34	226.06
1013.63	225.97
1013.92	225.98
1014.20	225.90
1014.49	225.91
1014.78	225.95
1015.06	225.81
1015.35	225.81
1015.64	225.88
1015.92	225.95
1016.21	226.04
1016.50	226.04
1016.78	226.10
1017.07	226.14
1017.36	226.03
1017.64	226.07
1017.93	226.11
1018.22	226.11
1018.50	226.12
1018.79	226.08
1019.08	225.85
1019.36	225.93
1019.65	225.94
1019.93	226.10
1020.22	226.16
1020.51	226.41
1020.79	226.36
1021.08	225.50
1021.36	225.50
1021.65	226.00
1021.94	225.30
1022.22	226.50
1022.51	225.60
1022.79	228.45
1023.08	225.85
1023.36	231.95
1023.65	224.15
>>>>>End Processed Spectral Data<<<<<
