SpectraSuite Data File
++++++++++++++++++++++++++++++++++++
Date: Wed Sep 04 17:53:23 EDT 2013
User: lab3
Dark Spectrum Present: Yes
Reference Spectrum Present: No
Number of Sampled Component Spectra: 1
Spectrometers: USB2E7196
Integration Time (usec): 170000 (USB2E7196)
Spectra Averaged: 20 (USB2E7196)
Boxcar Smoothing: 10 (USB2E7196)
Correct for Electrical Dark: No (USB2E7196)
Strobe/Lamp Enabled: No (USB2E7196)
Correct for Detector Non-linearity: No (USB2E7196)
Correct for Stray Light: No (USB2E7196)
Number of Pixels in Processed Spectrum: 2048
>>>>>Begin Processed Spectral Data<<<<<
339.09	0.00
339.48	212.55
339.86	215.85
340.24	215.50
340.63	217.40
341.01	225.30
341.39	219.95
341.78	222.10
342.16	224.35
342.54	223.70
342.93	212.41
343.31	223.08
343.69	223.61
344.07	224.04
344.46	224.62
344.84	225.03
345.22	225.01
345.60	225.36
345.99	225.51
346.37	225.66
346.75	225.84
347.13	225.84
347.52	225.95
347.90	226.12
348.28	226.22
348.66	226.31
349.05	226.08
349.43	226.15
349.81	226.27
350.19	226.25
350.57	226.34
350.96	226.49
351.34	226.64
351.72	226.80
352.10	226.87
352.48	226.77
352.87	226.78
353.25	226.86
353.63	226.82
354.01	226.91
354.39	226.95
354.77	226.91
355.15	227.12
355.54	227.11
355.92	227.11
356.30	227.16
356.68	227.55
357.06	227.71
357.44	227.71
357.82	227.72
358.20	228.22
358.58	228.22
358.97	228.31
359.35	228.47
359.73	228.54
360.11	228.61
360.49	228.73
360.87	228.79
361.25	228.89
361.63	229.21
362.01	229.26
362.39	229.25
362.77	229.30
363.15	229.32
363.53	229.34
363.91	229.32
364.29	229.35
364.67	228.92
365.05	229.02
365.43	229.13
365.81	229.20
366.19	229.03
366.57	229.27
366.95	229.22
367.33	229.07
367.71	229.10
368.09	229.25
368.47	229.26
368.85	229.30
369.23	229.35
369.61	229.05
369.99	229.18
370.37	229.25
370.75	229.57
371.13	229.50
371.51	229.47
371.89	229.53
372.27	229.52
372.65	229.52
373.03	229.43
373.41	229.36
373.78	229.33
374.16	229.10
374.54	228.95
374.92	228.96
375.30	228.94
375.68	228.80
376.06	228.74
376.44	228.65
376.82	228.63
377.19	228.64
377.57	228.62
377.95	228.46
378.33	228.36
378.71	227.95
379.09	227.91
379.47	227.92
379.84	227.78
380.22	227.60
380.60	227.51
380.98	227.36
381.36	227.30
381.73	227.20
382.11	227.18
382.49	227.03
382.87	226.84
383.25	226.77
383.62	227.25
384.00	227.04
384.38	226.99
384.76	227.02
385.13	227.12
385.51	227.01
385.89	226.81
386.27	226.72
386.64	226.74
387.02	226.67
387.40	226.51
387.78	226.52
388.15	226.57
388.53	226.43
388.91	226.46
389.29	226.30
389.66	226.25
390.04	226.20
390.42	226.35
390.79	226.37
391.17	226.34
391.55	225.84
391.92	225.86
392.30	225.90
392.68	225.79
393.05	225.70
393.43	225.66
393.81	225.77
394.18	225.76
394.56	225.79
394.94	225.85
395.31	225.87
395.69	226.03
396.06	226.14
396.44	226.30
396.82	226.25
397.19	226.63
397.57	226.62
397.95	226.65
398.32	226.57
398.70	226.67
399.07	226.84
399.45	226.86
399.82	226.95
400.20	227.03
400.58	227.05
400.95	227.00
401.33	227.23
401.70	227.65
402.08	227.74
402.45	227.84
402.83	228.02
403.20	228.23
403.58	228.30
403.95	228.53
404.33	228.68
404.71	228.96
405.08	229.31
405.46	229.65
405.83	229.92
406.21	230.22
406.58	230.55
406.96	230.84
407.33	231.24
407.70	231.70
408.08	232.45
408.45	232.99
408.83	233.43
409.20	233.83
409.58	233.98
409.95	234.58
410.33	235.12
410.70	235.57
411.08	236.18
411.45	236.87
411.82	237.37
412.20	238.15
412.57	239.19
412.95	239.54
413.32	240.39
413.69	241.29
414.07	242.18
414.44	243.18
414.82	244.17
415.19	245.32
415.56	246.45
415.94	247.42
416.31	248.80
416.68	250.25
417.06	251.89
417.43	253.55
417.81	255.29
418.18	257.20
418.55	259.07
418.93	261.15
419.30	263.18
419.67	265.44
420.04	267.75
420.42	270.00
420.79	273.08
421.16	275.90
421.54	278.90
421.91	281.90
422.28	284.88
422.66	288.22
423.03	291.78
423.40	295.10
423.77	298.71
424.15	302.33
424.52	306.04
424.89	310.27
425.26	314.25
425.64	318.00
426.01	322.02
426.38	326.48
426.75	330.84
427.13	335.36
427.50	340.12
427.87	344.91
428.24	349.72
428.61	354.24
428.99	359.62
429.36	365.05
429.73	370.58
430.10	376.15
430.47	381.73
430.85	387.19
431.22	393.38
431.59	400.08
431.96	406.20
432.33	413.20
432.70	419.71
433.08	427.64
433.45	435.09
433.82	442.53
434.19	450.65
434.56	458.89
434.93	466.65
435.30	474.53
435.68	483.06
436.05	491.55
436.42	499.85
436.79	507.37
437.16	515.74
437.53	524.55
437.90	533.15
438.27	541.75
438.64	550.77
439.01	558.92
439.38	566.04
439.75	573.26
440.13	581.28
440.50	588.88
440.87	594.68
441.24	600.91
441.61	607.97
441.98	613.14
442.35	618.84
442.72	624.70
443.09	630.40
443.46	633.88
443.83	636.05
444.20	638.11
444.57	640.84
444.94	641.98
445.31	642.87
445.68	644.12
446.05	644.22
446.42	642.69
446.79	641.21
447.16	639.65
447.53	638.45
447.90	634.66
448.27	630.93
448.64	626.15
449.01	622.54
449.37	616.24
449.74	610.06
450.11	603.19
450.48	595.47
450.85	587.39
451.22	580.58
451.59	574.10
451.96	567.75
452.33	559.62
452.70	552.17
453.07	543.66
453.43	534.72
453.80	526.31
454.17	518.44
454.54	510.79
454.91	502.55
455.28	494.49
455.65	487.10
456.02	480.29
456.38	474.01
456.75	466.27
457.12	459.87
457.49	453.71
457.86	447.28
458.23	442.20
458.59	436.59
458.96	430.88
459.33	425.81
459.70	420.63
460.07	416.51
460.43	411.89
460.80	407.54
461.17	403.94
461.54	400.08
461.91	396.21
462.27	392.54
462.64	389.33
463.01	385.65
463.38	382.37
463.74	378.42
464.11	375.50
464.48	372.91
464.85	370.05
465.21	367.90
465.58	365.75
465.95	362.93
466.32	360.62
466.68	358.37
467.05	356.09
467.42	353.98
467.78	351.70
468.15	349.63
468.52	348.06
468.88	345.71
469.25	343.78
469.62	342.45
469.98	340.85
470.35	339.39
470.72	338.08
471.08	336.32
471.45	335.03
471.82	333.74
472.18	332.39
472.55	331.36
472.92	330.05
473.28	328.94
473.65	327.85
474.02	326.83
474.38	326.02
474.75	325.40
475.11	324.55
475.48	323.92
475.85	323.23
476.21	322.60
476.58	322.20
476.94	321.84
477.31	321.36
477.67	320.87
478.04	320.54
478.41	320.32
478.77	320.61
479.14	320.38
479.50	320.31
479.87	320.21
480.23	320.19
480.60	320.12
480.96	320.12
481.33	320.54
481.69	320.77
482.06	320.95
482.42	321.14
482.79	321.45
483.15	321.92
483.52	322.52
483.88	323.11
484.25	323.64
484.61	324.33
484.98	324.90
485.34	325.97
485.71	326.83
486.07	327.73
486.44	328.31
486.80	329.36
487.17	330.33
487.53	331.66
487.90	333.08
488.26	334.74
488.62	336.44
488.99	337.86
489.35	339.62
489.72	341.40
490.08	343.37
490.44	345.37
490.81	347.60
491.17	349.74
491.54	352.18
491.90	354.63
492.26	357.25
492.63	360.02
492.99	362.60
493.36	365.72
493.72	369.15
494.08	372.78
494.45	376.47
494.81	380.38
495.17	384.29
495.54	388.40
495.90	392.63
496.26	397.03
496.63	401.68
496.99	406.45
497.35	411.63
497.72	416.88
498.08	422.32
498.44	427.93
498.80	434.07
499.17	440.06
499.53	446.36
499.89	452.95
500.26	459.83
500.62	466.92
500.98	474.33
501.34	481.73
501.71	489.33
502.07	497.23
502.43	505.40
502.79	513.87
503.16	522.63
503.52	531.76
503.88	541.13
504.24	550.90
504.60	560.84
504.97	571.13
505.33	581.55
505.69	592.65
506.05	603.64
506.41	614.85
506.78	626.46
507.14	638.59
507.50	650.96
507.86	663.39
508.22	676.27
508.59	689.29
508.95	702.99
509.31	717.04
509.67	731.25
510.03	745.40
510.39	760.10
510.75	775.00
511.12	790.01
511.48	805.56
511.84	821.08
512.20	837.05
512.56	853.08
512.92	869.90
513.28	886.73
513.64	903.92
514.00	921.29
514.37	938.97
514.73	956.99
515.09	975.13
515.45	993.61
515.81	1012.12
516.17	1030.68
516.53	1049.25
516.89	1067.85
517.25	1087.31
517.61	1107.45
517.97	1127.63
518.33	1147.65
518.69	1167.97
519.05	1188.15
519.41	1208.95
519.77	1230.18
520.13	1250.95
520.49	1271.18
520.85	1293.26
521.21	1314.45
521.57	1335.63
521.93	1356.53
522.29	1377.65
522.65	1398.08
523.01	1418.85
523.37	1439.46
523.73	1460.67
524.09	1481.22
524.45	1502.01
524.81	1522.65
525.17	1542.99
525.53	1563.53
525.89	1584.41
526.25	1605.00
526.61	1625.52
526.97	1646.50
527.33	1667.60
527.68	1689.40
528.04	1710.98
528.40	1730.64
528.76	1751.71
529.12	1772.31
529.48	1793.04
529.84	1813.10
530.20	1834.35
530.56	1855.01
530.91	1876.01
531.27	1896.39
531.63	1916.92
531.99	1937.42
532.35	1957.10
532.71	1977.49
533.07	1998.14
533.42	2018.00
533.78	2037.91
534.14	2057.67
534.50	2076.88
534.86	2095.62
535.21	2113.02
535.57	2131.29
535.93	2149.01
536.29	2166.48
536.65	2184.18
537.00	2201.50
537.36	2219.16
537.72	2235.54
538.08	2252.74
538.44	2269.20
538.79	2285.57
539.15	2301.96
539.51	2317.95
539.87	2332.98
540.22	2347.23
540.58	2361.41
540.94	2374.63
541.29	2387.20
541.65	2399.74
542.01	2411.91
542.37	2422.27
542.72	2433.32
543.08	2443.98
543.44	2455.61
543.79	2465.59
544.15	2475.66
544.51	2485.72
544.87	2495.32
545.22	2504.02
545.58	2511.63
545.94	2518.49
546.29	2524.95
546.65	2530.93
547.01	2536.33
547.36	2542.11
547.72	2547.19
548.07	2550.78
548.43	2556.04
548.79	2560.92
549.14	2564.86
549.50	2568.79
549.86	2572.91
550.21	2576.59
550.57	2580.09
550.92	2581.12
551.28	2582.21
551.64	2584.13
551.99	2585.99
552.35	2587.23
552.70	2589.44
553.06	2591.15
553.41	2592.73
553.77	2594.50
554.13	2596.16
554.48	2597.69
554.84	2599.05
555.19	2600.35
555.55	2602.13
555.90	2601.33
556.26	2600.32
556.61	2598.97
556.97	2596.71
557.32	2595.83
557.68	2594.39
558.03	2592.45
558.39	2591.42
558.74	2590.64
559.10	2587.86
559.45	2584.17
559.81	2579.73
560.16	2574.43
560.52	2569.58
560.87	2565.16
561.23	2559.51
561.58	2553.65
561.94	2546.55
562.29	2539.29
562.64	2532.30
563.00	2524.00
563.35	2516.98
563.71	2509.98
564.06	2503.51
564.42	2496.66
564.77	2489.93
565.12	2482.72
565.48	2475.10
565.83	2466.71
566.19	2458.61
566.54	2450.38
566.89	2442.28
567.25	2434.46
567.60	2427.21
567.96	2419.59
568.31	2411.46
568.66	2402.76
569.02	2393.62
569.37	2385.89
569.72	2378.05
570.08	2368.71
570.43	2359.31
570.78	2350.40
571.14	2341.04
571.49	2330.89
571.84	2321.36
572.20	2310.56
572.55	2300.43
572.90	2289.62
573.26	2279.80
573.61	2269.05
573.96	2258.03
574.31	2246.05
574.67	2234.32
575.02	2221.71
575.37	2209.13
575.72	2195.96
576.08	2184.06
576.43	2171.93
576.78	2158.53
577.13	2145.13
577.49	2132.47
577.84	2120.65
578.19	2108.65
578.54	2096.48
578.90	2084.62
579.25	2072.24
579.60	2059.90
579.95	2046.91
580.30	2033.69
580.66	2019.82
581.01	2006.05
581.36	1992.16
581.71	1979.53
582.06	1966.65
582.42	1954.18
582.77	1941.48
583.12	1929.35
583.47	1916.93
583.82	1904.89
584.17	1893.05
584.53	1881.19
584.88	1868.22
585.23	1855.09
585.58	1840.93
585.93	1827.60
586.28	1814.47
586.63	1800.70
586.98	1786.51
587.34	1773.22
587.69	1760.19
588.04	1747.87
588.39	1736.12
588.74	1724.15
589.09	1712.27
589.44	1699.79
589.79	1687.84
590.14	1676.05
590.49	1664.17
590.84	1651.99
591.19	1640.09
591.54	1627.84
591.89	1615.76
592.25	1605.55
592.60	1594.13
592.95	1582.85
593.30	1570.90
593.65	1558.82
594.00	1547.04
594.35	1537.47
594.70	1525.66
595.05	1514.33
595.40	1502.29
595.75	1490.06
596.10	1478.82
596.45	1467.10
596.80	1456.10
597.15	1444.57
597.50	1432.77
597.85	1421.25
598.19	1409.67
598.54	1397.82
598.89	1386.62
599.24	1376.01
599.59	1364.52
599.94	1353.74
600.29	1343.55
600.64	1333.43
600.99	1322.75
601.34	1313.18
601.69	1301.80
602.04	1292.28
602.39	1282.70
602.74	1273.84
603.08	1264.69
603.43	1255.33
603.78	1245.96
604.13	1236.39
604.48	1226.63
604.83	1216.80
605.18	1207.12
605.53	1197.77
605.87	1188.48
606.22	1180.01
606.57	1170.79
606.92	1161.39
607.27	1152.47
607.62	1143.58
607.96	1135.04
608.31	1127.26
608.66	1118.75
609.01	1110.30
609.36	1101.72
609.70	1093.18
610.05	1084.30
610.40	1076.01
610.75	1067.36
611.10	1059.01
611.44	1050.51
611.79	1042.63
612.14	1035.09
612.49	1027.35
612.83	1019.92
613.18	1012.38
613.53	1004.63
613.88	996.49
614.22	988.91
614.57	981.14
614.92	973.49
615.27	965.98
615.61	958.19
615.96	950.67
616.31	943.15
616.65	936.10
617.00	928.57
617.35	921.50
617.70	914.36
618.04	907.31
618.39	900.50
618.74	894.15
619.08	887.12
619.43	880.04
619.78	873.11
620.12	865.92
620.47	859.04
620.82	851.76
621.16	845.22
621.51	839.00
621.85	832.55
622.20	825.86
622.55	819.08
622.89	812.52
623.24	806.16
623.59	799.90
623.93	793.66
624.28	787.80
624.62	782.29
624.97	776.51
625.32	770.79
625.66	764.64
626.01	758.48
626.35	753.03
626.70	747.47
627.04	742.25
627.39	736.87
627.73	731.61
628.08	726.64
628.43	721.13
628.77	715.57
629.12	710.42
629.46	705.68
629.81	701.17
630.15	696.58
630.50	691.77
630.84	687.02
631.19	682.18
631.53	677.58
631.88	672.31
632.22	667.45
632.57	662.93
632.91	658.64
633.26	654.27
633.60	649.60
633.95	645.08
634.29	640.29
634.64	635.79
634.98	631.15
635.32	626.83
635.67	622.94
636.01	618.75
636.36	614.45
636.70	610.33
637.05	606.01
637.39	601.94
637.73	597.81
638.08	593.77
638.42	589.66
638.77	585.33
639.11	581.10
639.45	576.92
639.80	572.63
640.14	568.35
640.49	564.30
640.83	560.52
641.17	556.89
641.52	553.19
641.86	549.63
642.20	546.51
642.55	542.80
642.89	539.21
643.23	535.79
643.58	532.71
643.92	529.19
644.26	525.81
644.61	522.59
644.95	519.43
645.29	515.94
645.64	512.75
645.98	509.64
646.32	506.66
646.66	503.44
647.01	500.50
647.35	497.75
647.69	494.95
648.04	492.21
648.38	489.27
648.72	486.43
649.06	483.49
649.41	480.27
649.75	477.31
650.09	474.45
650.43	471.70
650.78	468.76
651.12	465.89
651.46	463.08
651.80	460.28
652.14	457.43
652.49	455.17
652.83	452.54
653.17	450.08
653.51	447.41
653.85	445.09
654.20	442.56
654.54	439.93
654.88	437.37
655.22	435.04
655.56	432.58
655.90	430.24
656.25	427.91
656.59	425.75
656.93	423.58
657.27	421.61
657.61	419.15
657.95	416.95
658.29	414.80
658.64	412.74
658.98	410.54
659.32	408.30
659.66	405.98
660.00	403.91
660.34	401.80
660.68	399.79
661.02	397.61
661.36	395.65
661.70	393.66
662.05	391.80
662.39	389.83
662.73	388.17
663.07	386.58
663.41	384.78
663.75	382.87
664.09	381.06
664.43	379.05
664.77	377.44
665.11	375.68
665.45	374.04
665.79	372.43
666.13	370.75
666.47	369.12
666.81	367.47
667.15	365.74
667.49	364.31
667.83	363.08
668.17	361.62
668.51	360.26
668.85	359.07
669.19	357.81
669.53	356.34
669.87	354.86
670.21	353.30
670.55	351.99
670.89	350.92
671.23	349.55
671.57	348.17
671.91	346.82
672.25	345.44
672.58	344.30
672.92	342.82
673.26	341.47
673.60	340.31
673.94	339.16
674.28	338.09
674.62	336.84
674.96	335.42
675.30	334.28
675.64	333.05
675.97	331.71
676.31	330.31
676.65	329.09
676.99	328.10
677.33	326.95
677.67	325.81
678.01	324.51
678.34	323.46
678.68	322.48
679.02	321.33
679.36	320.32
679.70	319.18
680.04	318.26
680.37	317.41
680.71	316.42
681.05	315.56
681.39	314.69
681.73	313.70
682.06	312.76
682.40	311.89
682.74	311.04
683.08	310.41
683.42	309.47
683.75	308.69
684.09	307.65
684.43	306.85
684.77	306.05
685.10	305.19
685.44	304.38
685.78	303.55
686.12	302.80
686.45	302.06
686.79	301.16
687.13	300.50
687.46	299.70
687.80	299.00
688.14	298.09
688.48	297.30
688.81	296.58
689.15	296.01
689.49	295.24
689.82	294.57
690.16	293.65
690.50	293.04
690.83	292.24
691.17	291.43
691.51	290.70
691.84	290.10
692.18	289.46
692.52	288.76
692.85	288.22
693.19	287.78
693.52	287.13
693.86	286.55
694.20	285.80
694.53	285.20
694.87	284.53
695.21	283.95
695.54	283.40
695.88	282.76
696.21	281.98
696.55	281.50
696.88	280.89
697.22	280.24
697.56	279.81
697.89	279.27
698.23	278.81
698.56	278.27
698.90	277.67
699.23	277.08
699.57	276.59
699.90	276.02
700.24	275.38
700.58	274.90
700.91	274.57
701.25	274.56
701.58	274.50
701.92	274.26
702.25	273.86
702.59	273.33
702.92	272.96
703.26	272.62
703.59	272.13
703.93	272.12
704.26	271.87
704.60	271.48
704.93	270.95
705.26	270.54
705.60	270.21
705.93	269.72
706.27	269.46
706.60	269.21
706.94	269.03
707.27	268.52
707.61	268.24
707.94	267.80
708.27	267.00
708.61	266.18
708.94	265.77
709.28	265.37
709.61	265.00
709.94	264.63
710.28	264.27
710.61	263.95
710.95	263.10
711.28	263.00
711.61	262.55
711.95	262.41
712.28	262.02
712.61	261.70
712.95	261.63
713.28	261.53
713.61	261.14
713.95	260.59
714.28	260.38
714.61	259.94
714.95	259.49
715.28	259.20
715.61	258.89
715.95	258.52
716.28	258.10
716.61	257.83
716.95	257.45
717.28	256.98
717.61	256.59
717.94	256.28
718.28	255.59
718.61	255.31
718.94	254.93
719.27	254.70
719.61	254.41
719.94	254.02
720.27	253.37
720.60	253.00
720.94	252.75
721.27	252.51
721.60	252.36
721.93	252.11
722.27	251.98
722.60	251.82
722.93	251.51
723.26	251.39
723.59	251.06
723.93	250.95
724.26	250.85
724.59	250.64
724.92	250.41
725.25	250.36
725.59	250.13
725.92	249.94
726.25	249.67
726.58	249.46
726.91	249.24
727.24	249.17
727.57	248.93
727.91	248.67
728.24	248.52
728.57	248.23
728.90	248.11
729.23	247.77
729.56	247.81
729.89	247.67
730.22	247.43
730.55	247.19
730.89	246.95
731.22	246.75
731.55	246.60
731.88	246.44
732.21	246.16
732.54	245.89
732.87	245.75
733.20	245.56
733.53	245.45
733.86	245.33
734.19	245.03
734.52	244.99
734.85	245.20
735.18	244.93
735.51	245.01
735.84	244.90
736.17	244.82
736.50	244.46
736.83	244.90
737.16	244.81
737.49	244.75
737.82	244.58
738.15	244.53
738.48	244.36
738.81	244.27
739.14	244.07
739.47	243.99
739.80	243.89
740.13	243.89
740.46	243.73
740.79	243.56
741.12	243.48
741.45	243.33
741.78	242.86
742.11	242.91
742.44	242.62
742.77	242.52
743.10	242.40
743.43	242.11
743.75	241.51
744.08	242.07
744.41	241.87
744.74	241.74
745.07	241.48
745.40	241.45
745.73	241.50
746.06	241.45
746.39	241.39
746.71	241.18
747.04	240.96
747.37	240.75
747.70	240.72
748.03	240.63
748.36	240.62
748.68	240.49
749.01	240.25
749.34	240.11
749.67	240.00
750.00	239.94
750.33	240.24
750.65	240.10
750.98	239.29
751.31	239.21
751.64	239.12
751.97	239.33
752.29	239.18
752.62	238.84
752.95	238.67
753.28	238.45
753.60	238.34
753.93	238.32
754.26	238.28
754.59	238.04
754.91	237.86
755.24	237.67
755.57	237.65
755.90	237.55
756.22	237.44
756.55	237.23
756.88	237.00
757.20	236.53
757.53	236.26
757.86	236.16
758.19	236.05
758.51	235.93
758.84	235.52
759.17	235.42
759.49	235.40
759.82	235.55
760.15	235.51
760.47	235.41
760.80	235.23
761.13	235.08
761.45	234.89
761.78	234.80
762.11	234.71
762.43	234.53
762.76	234.49
763.08	234.42
763.41	234.34
763.74	234.26
764.06	234.20
764.39	234.18
764.71	234.05
765.04	234.01
765.37	233.89
765.69	233.89
766.02	233.80
766.34	233.59
766.67	233.28
767.00	233.30
767.32	233.43
767.65	233.63
767.97	233.56
768.30	233.57
768.62	233.48
768.95	233.33
769.27	233.25
769.60	233.20
769.92	233.06
770.25	232.91
770.57	232.76
770.90	232.68
771.22	232.52
771.55	232.51
771.87	232.41
772.20	232.33
772.52	232.57
772.85	233.07
773.17	233.07
773.50	233.07
773.82	232.91
774.15	232.60
774.47	232.30
774.80	232.22
775.12	232.24
775.45	232.26
775.77	232.25
776.09	232.24
776.42	232.25
776.74	232.34
777.07	232.35
777.39	232.37
777.72	232.43
778.04	232.50
778.36	232.40
778.69	232.42
779.01	232.50
779.33	232.10
779.66	231.46
779.98	231.38
780.31	231.32
780.63	231.48
780.95	231.60
781.28	231.56
781.60	231.48
781.92	231.34
782.25	231.30
782.57	231.25
782.89	231.19
783.22	231.10
783.54	230.91
783.86	230.99
784.19	230.95
784.51	230.95
784.83	230.89
785.16	230.86
785.48	230.76
785.80	230.70
786.12	230.72
786.45	230.70
786.77	230.73
787.09	230.66
787.42	230.45
787.74	230.44
788.06	230.40
788.38	230.43
788.71	230.39
789.03	230.37
789.35	230.37
789.67	230.26
789.99	230.22
790.32	230.18
790.64	230.12
790.96	230.45
791.28	230.30
791.61	230.25
791.93	230.24
792.25	230.29
792.57	230.60
792.89	230.46
793.21	230.52
793.54	230.44
793.86	230.40
794.18	230.44
794.50	230.31
794.82	230.28
795.14	230.27
795.47	230.36
795.79	230.30
796.11	230.31
796.43	230.21
796.75	230.16
797.07	230.20
797.39	230.13
797.71	229.74
798.04	229.68
798.36	229.64
798.68	229.61
799.00	229.58
799.32	229.29
799.64	229.38
799.96	229.31
800.28	229.44
800.60	229.37
800.92	229.37
801.24	229.32
801.56	229.36
801.89	229.30
802.21	229.28
802.53	229.22
802.85	229.30
803.17	229.58
803.49	229.51
803.81	229.46
804.13	229.49
804.45	229.45
804.77	229.55
805.09	229.53
805.41	229.46
805.73	229.30
806.05	229.20
806.37	229.11
806.69	229.12
807.01	229.05
807.33	229.12
807.65	228.95
807.97	229.18
808.28	229.13
808.60	229.17
808.92	229.10
809.24	229.35
809.56	229.20
809.88	229.09
810.20	229.09
810.52	229.22
810.84	229.12
811.16	229.08
811.48	229.00
811.80	229.18
812.12	229.23
812.43	229.45
812.75	229.43
813.07	229.33
813.39	229.28
813.71	229.18
814.03	229.15
814.35	229.20
814.67	228.94
814.98	228.83
815.30	228.75
815.62	228.63
815.94	228.25
816.26	228.42
816.58	228.29
816.89	228.30
817.21	228.10
817.53	228.14
817.85	228.14
818.17	228.14
818.48	227.95
818.80	228.01
819.12	227.89
819.44	227.83
819.76	227.89
820.07	227.90
820.39	227.91
820.71	227.90
821.03	227.89
821.34	227.85
821.66	227.86
821.98	227.93
822.30	227.97
822.61	228.29
822.93	228.01
823.25	227.96
823.57	227.93
823.88	228.06
824.20	228.02
824.52	228.05
824.83	227.96
825.15	227.94
825.47	227.84
825.79	227.91
826.10	227.91
826.42	227.85
826.74	227.85
827.05	227.84
827.37	227.88
827.69	227.80
828.00	227.81
828.32	227.80
828.64	227.68
828.95	227.94
829.27	227.86
829.58	227.87
829.90	227.95
830.22	227.95
830.53	227.79
830.85	227.70
831.17	227.59
831.48	227.58
831.80	227.53
832.11	227.43
832.43	227.27
832.75	227.21
833.06	227.53
833.38	227.44
833.69	227.45
834.01	227.42
834.32	227.41
834.64	227.40
834.96	227.41
835.27	227.49
835.59	227.27
835.90	227.13
836.22	227.15
836.53	227.06
836.85	227.05
837.16	227.48
837.48	227.53
837.79	227.73
838.11	227.74
838.42	227.72
838.74	227.86
839.05	227.85
839.37	227.85
839.68	227.50
840.00	227.51
840.31	227.52
840.63	227.43
840.94	227.40
841.26	227.31
841.57	227.26
841.88	227.25
842.20	227.18
842.51	227.15
842.83	227.13
843.14	227.60
843.46	227.56
843.77	227.38
844.08	227.32
844.40	227.11
844.71	227.12
845.03	227.14
845.34	227.06
845.65	227.00
845.97	227.07
846.28	227.10
846.60	227.12
846.91	227.03
847.22	227.05
847.54	227.13
847.85	227.17
848.16	227.17
848.48	227.02
848.79	227.23
849.10	227.27
849.42	227.36
849.73	226.84
850.04	226.82
850.36	226.61
850.67	226.70
850.98	226.77
851.30	226.83
851.61	226.83
851.92	226.88
852.23	227.08
852.55	227.03
852.86	227.04
853.17	227.06
853.49	227.19
853.80	227.30
854.11	227.37
854.42	227.47
854.74	227.41
855.05	227.57
855.36	227.30
855.67	227.27
855.99	227.21
856.30	227.78
856.61	227.74
856.92	227.80
857.23	227.81
857.55	227.71
857.86	227.63
858.17	227.69
858.48	227.58
858.79	227.53
859.11	227.62
859.42	227.58
859.73	227.52
860.04	227.56
860.35	227.42
860.66	227.27
860.98	227.25
861.29	227.35
861.60	227.34
861.91	227.55
862.22	227.50
862.53	227.41
862.84	226.98
863.16	227.11
863.47	226.98
863.78	226.92
864.09	227.02
864.40	227.13
864.71	227.10
865.02	227.15
865.33	227.07
865.64	227.00
865.95	227.08
866.27	227.45
866.58	227.31
866.89	227.40
867.20	227.42
867.51	227.34
867.82	227.29
868.13	227.34
868.44	227.12
868.75	227.24
869.06	227.32
869.37	227.28
869.68	227.17
869.99	227.31
870.30	227.30
870.61	227.31
870.92	227.16
871.23	227.15
871.54	227.18
871.85	227.25
872.16	227.26
872.47	227.19
872.78	226.91
873.09	226.98
873.40	226.91
873.71	226.93
874.02	226.97
874.33	226.95
874.64	226.90
874.95	227.04
875.26	226.94
875.56	226.92
875.87	226.81
876.18	226.77
876.49	227.21
876.80	227.21
877.11	227.17
877.42	227.23
877.73	227.24
878.04	227.22
878.35	227.18
878.66	227.20
878.96	227.16
879.27	227.05
879.58	227.00
879.89	226.93
880.20	227.04
880.51	226.98
880.82	226.95
881.12	226.90
881.43	226.80
881.74	226.73
882.05	226.71
882.36	226.83
882.67	226.81
882.97	226.27
883.28	226.19
883.59	226.19
883.90	226.24
884.21	226.23
884.51	226.16
884.82	226.15
885.13	226.10
885.44	226.12
885.74	226.03
886.05	226.02
886.36	226.08
886.67	225.88
886.98	226.15
887.28	226.20
887.59	226.22
887.90	226.26
888.20	226.22
888.51	226.32
888.82	226.24
889.13	226.40
889.43	226.75
889.74	226.78
890.05	226.74
890.35	226.67
890.66	226.68
890.97	226.65
891.28	226.66
891.58	226.69
891.89	226.69
892.20	226.74
892.50	226.70
892.81	226.65
893.12	226.72
893.42	226.37
893.73	226.37
894.04	226.39
894.34	226.45
894.65	226.50
894.95	226.42
895.26	226.50
895.57	226.62
895.87	226.25
896.18	226.37
896.48	226.41
896.79	226.48
897.10	226.57
897.40	226.64
897.71	226.68
898.01	226.65
898.32	226.77
898.63	226.77
898.93	226.79
899.24	226.88
899.54	226.83
899.85	226.92
900.15	226.94
900.46	226.95
900.76	226.97
901.07	226.96
901.38	226.93
901.68	227.00
901.99	226.77
902.29	226.82
902.60	226.79
902.90	226.74
903.21	226.73
903.51	226.66
903.82	226.71
904.12	226.70
904.43	226.69
904.73	226.63
905.03	226.69
905.34	227.21
905.64	227.11
905.95	227.15
906.25	227.21
906.56	227.11
906.86	227.06
907.17	227.02
907.47	227.08
907.77	227.02
908.08	226.83
908.38	226.91
908.69	226.94
908.99	227.02
909.30	227.06
909.60	227.09
909.90	227.11
910.21	227.05
910.51	226.95
910.81	227.02
911.12	227.05
911.42	227.10
911.73	226.56
912.03	226.68
912.33	226.70
912.64	226.69
912.94	226.74
913.24	226.69
913.55	226.65
913.85	226.62
914.15	226.79
914.46	226.90
914.76	226.83
915.06	226.84
915.37	226.77
915.67	226.71
915.97	226.71
916.27	226.56
916.58	226.61
916.88	226.64
917.18	226.58
917.49	226.87
917.79	226.82
918.09	226.88
918.39	226.88
918.70	226.87
919.00	226.86
919.30	227.07
919.60	227.02
919.91	226.92
920.21	226.95
920.51	226.81
920.81	226.82
921.12	226.91
921.42	226.85
921.72	226.86
922.02	226.94
922.32	227.00
922.63	227.10
922.93	227.31
923.23	227.29
923.53	227.18
923.83	226.86
924.13	226.85
924.44	226.82
924.74	226.94
925.04	227.10
925.34	227.01
925.64	226.81
925.94	226.86
926.24	227.15
926.55	227.08
926.85	227.18
927.15	227.10
927.45	227.07
927.75	227.02
928.05	227.02
928.35	226.99
928.65	227.02
928.95	227.05
929.26	226.83
929.56	226.96
929.86	227.14
930.16	227.10
930.46	227.15
930.76	227.24
931.06	226.97
931.36	226.87
931.66	226.98
931.96	227.02
932.26	227.11
932.56	226.92
932.86	226.99
933.16	226.97
933.46	226.94
933.76	226.88
934.06	226.96
934.36	227.11
934.66	227.03
934.96	226.94
935.26	226.89
935.56	227.02
935.86	226.93
936.16	226.81
936.46	226.83
936.76	226.73
937.06	226.63
937.36	226.67
937.66	226.70
937.96	226.62
938.26	226.51
938.56	226.41
938.86	226.50
939.16	226.56
939.46	226.58
939.76	226.60
940.06	226.58
940.35	226.52
940.65	226.28
940.95	226.35
941.25	226.24
941.55	226.21
941.85	226.12
942.15	226.19
942.45	226.34
942.75	226.30
943.04	226.34
943.34	226.46
943.64	226.50
943.94	226.39
944.24	226.40
944.54	226.40
944.84	226.37
945.13	226.27
945.43	226.23
945.73	226.24
946.03	226.18
946.33	226.11
946.62	226.14
946.92	226.18
947.22	226.32
947.52	226.40
947.82	226.50
948.11	226.41
948.41	226.31
948.71	226.15
949.01	226.21
949.31	226.22
949.60	226.11
949.90	226.15
950.20	226.12
950.50	226.08
950.79	226.07
951.09	226.15
951.39	226.11
951.69	226.05
951.98	226.10
952.28	226.22
952.58	226.27
952.87	226.21
953.17	226.20
953.47	226.12
953.76	226.07
954.06	225.92
954.36	225.89
954.66	225.83
954.95	226.01
955.25	226.01
955.55	225.96
955.84	225.93
956.14	225.95
956.44	225.99
956.73	225.99
957.03	226.05
957.32	226.10
957.62	226.04
957.92	226.13
958.21	226.05
958.51	226.56
958.81	226.61
959.10	226.65
959.40	226.82
959.69	226.79
959.99	226.85
960.29	226.88
960.58	226.83
960.88	227.04
961.17	226.88
961.47	226.87
961.76	226.88
962.06	227.05
962.36	226.95
962.65	226.95
962.95	226.95
963.24	226.88
963.54	226.91
963.83	226.94
964.13	226.91
964.42	226.83
964.72	226.43
965.01	226.44
965.31	226.41
965.60	226.21
965.90	226.49
966.19	226.38
966.49	226.42
966.78	226.41
967.08	226.40
967.37	226.44
967.67	226.35
967.96	226.40
968.26	226.20
968.55	226.29
968.85	226.26
969.14	226.31
969.43	226.34
969.73	226.24
970.02	226.31
970.32	226.29
970.61	226.28
970.91	226.13
971.20	226.00
971.49	226.04
971.79	226.14
972.08	225.83
972.38	225.88
972.67	225.78
972.96	225.88
973.26	225.76
973.55	225.96
973.85	225.97
974.14	225.94
974.43	226.11
974.73	226.03
975.02	226.00
975.31	225.91
975.61	225.95
975.90	225.95
976.19	225.86
976.49	225.99
976.78	226.07
977.07	226.12
977.37	226.18
977.66	226.23
977.95	226.13
978.24	226.16
978.54	226.21
978.83	226.29
979.12	226.31
979.42	226.29
979.71	226.14
980.00	226.21
980.29	226.23
980.59	226.10
980.88	226.30
981.17	226.30
981.46	226.32
981.76	226.32
982.05	226.41
982.34	226.47
982.63	226.37
982.93	226.30
983.22	226.39
983.51	226.45
983.80	226.47
984.09	226.56
984.39	226.51
984.68	226.50
984.97	226.45
985.26	226.45
985.55	226.52
985.85	226.35
986.14	226.36
986.43	226.40
986.72	226.46
987.01	226.32
987.30	226.38
987.59	226.34
987.89	226.37
988.18	226.22
988.47	226.15
988.76	226.05
989.05	226.03
989.34	225.98
989.63	225.99
989.92	225.93
990.22	225.81
990.51	225.80
990.80	225.70
991.09	225.81
991.38	225.76
991.67	225.71
991.96	225.75
992.25	225.78
992.54	225.69
992.83	225.60
993.12	225.56
993.41	225.61
993.70	225.84
993.99	225.89
994.28	226.00
994.58	226.08
994.87	226.06
995.16	226.05
995.45	225.97
995.74	225.86
996.03	225.91
996.32	226.03
996.61	226.09
996.90	226.13
997.19	226.08
997.48	226.14
997.77	226.06
998.06	226.11
998.34	226.05
998.63	226.07
998.92	226.14
999.21	226.12
999.50	226.15
999.79	226.03
1000.08	226.00
1000.37	226.00
1000.66	225.96
1000.95	226.14
1001.24	226.13
1001.53	226.19
1001.82	226.18
1002.11	226.11
1002.40	226.19
1002.68	226.38
1002.97	226.73
1003.26	226.72
1003.55	226.66
1003.84	226.78
1004.13	226.92
1004.42	226.89
1004.71	226.93
1004.99	226.90
1005.28	227.04
1005.57	226.99
1005.86	226.89
1006.15	226.87
1006.44	226.77
1006.72	226.80
1007.01	226.73
1007.30	226.80
1007.59	226.75
1007.88	226.81
1008.17	226.84
1008.45	226.75
1008.74	226.44
1009.03	226.26
1009.32	226.27
1009.60	226.21
1009.89	226.16
1010.18	225.97
1010.47	226.00
1010.76	225.99
1011.04	225.97
1011.33	225.99
1011.62	226.00
1011.91	226.05
1012.19	226.09
1012.48	226.11
1012.77	226.12
1013.05	226.29
1013.34	226.32
1013.63	226.32
1013.92	226.28
1014.20	226.23
1014.49	226.25
1014.78	226.33
1015.06	226.14
1015.35	226.13
1015.64	226.23
1015.92	226.22
1016.21	226.20
1016.50	226.19
1016.78	226.18
1017.07	226.22
1017.36	226.11
1017.64	226.04
1017.93	226.07
1018.22	226.03
1018.50	226.04
1018.79	226.00
1019.08	225.77
1019.36	225.77
1019.65	225.69
1019.93	225.83
1020.22	225.90
1020.51	226.13
1020.79	226.15
1021.08	225.90
1021.36	225.15
1021.65	225.80
1021.94	225.15
1022.22	226.90
1022.51	224.30
1022.79	228.25
1023.08	226.55
1023.36	231.90
1023.65	225.95
>>>>>End Processed Spectral Data<<<<<
