SpectraSuite Data File
++++++++++++++++++++++++++++++++++++
Date: Wed Sep 04 17:54:12 EDT 2013
User: lab3
Dark Spectrum Present: Yes
Reference Spectrum Present: No
Number of Sampled Component Spectra: 1
Spectrometers: USB2E7196
Integration Time (usec): 170000 (USB2E7196)
Spectra Averaged: 20 (USB2E7196)
Boxcar Smoothing: 10 (USB2E7196)
Correct for Electrical Dark: No (USB2E7196)
Strobe/Lamp Enabled: No (USB2E7196)
Correct for Detector Non-linearity: No (USB2E7196)
Correct for Stray Light: No (USB2E7196)
Number of Pixels in Processed Spectrum: 2048
>>>>>Begin Processed Spectral Data<<<<<
339.09	0.00
339.48	212.55
339.86	214.60
340.24	213.80
340.63	216.60
341.01	226.45
341.39	220.00
341.78	222.70
342.16	225.10
342.54	223.10
342.93	212.34
343.31	223.05
343.69	223.67
344.07	224.10
344.46	224.72
344.84	225.19
345.22	225.18
345.60	225.45
345.99	225.63
346.37	225.68
346.75	225.76
347.13	225.80
347.52	225.96
347.90	226.20
348.28	226.20
348.66	226.33
349.05	226.22
349.43	226.30
349.81	226.36
350.19	226.45
350.57	226.44
350.96	226.44
351.34	226.52
351.72	226.54
352.10	226.62
352.48	226.63
352.87	226.66
353.25	226.68
353.63	226.71
354.01	226.69
354.39	226.80
354.77	226.88
355.15	227.02
355.54	227.03
355.92	226.90
356.30	227.02
356.68	227.39
357.06	227.45
357.44	227.55
357.82	227.59
358.20	227.94
358.58	228.01
358.97	228.13
359.35	228.28
359.73	228.47
360.11	228.62
360.49	228.69
360.87	228.74
361.25	228.84
361.63	229.08
362.01	229.18
362.39	229.18
362.77	229.25
363.15	229.33
363.53	229.30
363.91	229.38
364.29	229.42
364.67	228.93
365.05	228.93
365.43	229.00
365.81	229.05
366.19	228.99
366.57	229.27
366.95	229.25
367.33	229.18
367.71	229.20
368.09	229.23
368.47	229.27
368.85	229.23
369.23	229.34
369.61	229.17
369.99	229.34
370.37	229.41
370.75	229.60
371.13	229.50
371.51	229.49
371.89	229.53
372.27	229.51
372.65	229.60
373.03	229.63
373.41	229.57
373.78	229.52
374.16	229.25
374.54	229.07
374.92	229.06
375.30	229.01
375.68	228.74
376.06	228.71
376.44	228.60
376.82	228.62
377.19	228.54
377.57	228.49
377.95	228.25
378.33	228.18
378.71	227.85
379.09	227.87
379.47	227.85
379.84	227.69
380.22	227.62
380.60	227.46
380.98	227.37
381.36	227.33
381.73	227.25
382.11	227.27
382.49	227.21
382.87	227.04
383.25	227.01
383.62	227.65
384.00	227.53
384.38	227.51
384.76	227.58
385.13	227.69
385.51	227.59
385.89	227.50
386.27	227.39
386.64	227.44
387.02	227.25
387.40	227.12
387.78	227.09
388.15	227.08
388.53	226.99
388.91	226.91
389.29	226.76
389.66	226.75
390.04	226.64
390.42	226.62
390.79	226.64
391.17	226.60
391.55	226.04
391.92	226.01
392.30	226.00
392.68	225.82
393.05	225.71
393.43	225.75
393.81	225.75
394.18	225.69
394.56	225.73
394.94	225.93
395.31	225.95
395.69	226.19
396.06	226.28
396.44	226.40
396.82	226.46
397.19	226.75
397.57	226.74
397.95	226.84
398.32	226.76
398.70	226.84
399.07	227.02
399.45	227.06
399.82	227.11
400.20	227.19
400.58	227.24
400.95	227.20
401.33	227.35
401.70	227.87
402.08	228.06
402.45	228.10
402.83	228.30
403.20	228.50
403.58	228.54
403.95	228.75
404.33	228.97
404.71	229.16
405.08	229.60
405.46	229.87
405.83	230.15
406.21	230.42
406.58	230.76
406.96	230.95
407.33	231.27
407.70	231.65
408.08	232.34
408.45	232.82
408.83	233.34
409.20	233.71
409.58	233.83
409.95	234.37
410.33	235.05
410.70	235.44
411.08	236.07
411.45	236.70
411.82	237.19
412.20	238.02
412.57	239.07
412.95	239.44
413.32	240.37
413.69	241.20
414.07	242.13
414.44	243.07
414.82	244.19
415.19	245.34
415.56	246.48
415.94	247.60
416.31	249.02
416.68	250.38
417.06	252.12
417.43	253.77
417.81	255.53
418.18	257.31
418.55	259.30
418.93	261.37
419.30	263.50
419.67	265.90
420.04	268.09
420.42	270.36
420.79	273.40
421.16	276.08
421.54	279.18
421.91	282.19
422.28	285.25
422.66	288.49
423.03	292.01
423.40	295.48
423.77	298.88
424.15	302.50
424.52	306.34
424.89	310.40
425.26	314.32
425.64	318.11
426.01	322.27
426.38	326.62
426.75	331.15
427.13	335.70
427.50	340.37
427.87	345.26
428.24	350.12
428.61	354.56
428.99	359.92
429.36	365.32
429.73	370.76
430.10	376.22
430.47	381.87
430.85	387.38
431.22	393.52
431.59	400.39
431.96	406.61
432.33	413.43
432.70	420.18
433.08	427.93
433.45	435.25
433.82	442.65
434.19	450.77
434.56	458.73
434.93	466.39
435.30	474.15
435.68	482.84
436.05	491.30
436.42	499.69
436.79	507.35
437.16	515.62
437.53	524.45
437.90	533.14
438.27	541.70
438.64	550.60
439.01	558.96
439.38	565.99
439.75	573.07
440.13	581.08
440.50	588.50
440.87	594.63
441.24	601.13
441.61	607.94
441.98	613.02
442.35	618.78
442.72	624.73
443.09	630.54
443.46	633.90
443.83	636.15
444.20	638.10
444.57	640.90
444.94	642.04
445.31	643.32
445.68	644.62
446.05	644.78
446.42	643.49
446.79	641.84
447.16	640.21
447.53	638.98
447.90	635.38
448.27	631.79
448.64	626.87
449.01	623.15
449.37	617.06
449.74	611.18
450.11	604.40
450.48	596.72
450.85	588.63
451.22	581.61
451.59	575.18
451.96	568.90
452.33	560.73
452.70	553.36
453.07	544.59
453.43	535.63
453.80	527.38
454.17	519.47
454.54	511.81
454.91	503.63
455.28	495.67
455.65	488.30
456.02	481.35
456.38	475.12
456.75	467.36
457.12	460.89
457.49	454.58
457.86	448.26
458.23	443.04
458.59	437.40
458.96	431.78
459.33	426.50
459.70	421.48
460.07	417.44
460.43	412.93
460.80	408.66
461.17	404.97
461.54	400.78
461.91	396.93
462.27	393.23
462.64	390.05
463.01	386.54
463.38	383.21
463.74	379.32
464.11	376.36
464.48	373.70
464.85	370.88
465.21	368.65
465.58	366.29
465.95	363.56
466.32	361.30
466.68	359.02
467.05	356.84
467.42	354.62
467.78	352.23
468.15	349.89
468.52	348.20
468.88	345.90
469.25	344.04
469.62	342.66
469.98	341.05
470.35	339.50
470.72	338.03
471.08	336.26
471.45	334.98
471.82	333.64
472.18	332.13
472.55	331.08
472.92	329.78
473.28	328.70
473.65	327.53
474.02	326.50
474.38	325.64
474.75	324.99
475.11	324.13
475.48	323.45
475.85	322.90
476.21	322.25
476.58	321.76
476.94	321.47
477.31	320.90
477.67	320.38
478.04	320.08
478.41	319.88
478.77	320.13
479.14	319.80
479.50	319.70
479.87	319.81
480.23	319.78
480.60	319.83
480.96	319.85
481.33	320.23
481.69	320.50
482.06	320.70
482.42	320.84
482.79	321.16
483.15	321.67
483.52	322.30
483.88	322.74
484.25	323.36
484.61	323.95
484.98	324.57
485.34	325.57
485.71	326.57
486.07	327.49
486.44	328.12
486.80	329.21
487.17	330.24
487.53	331.58
487.90	333.12
488.26	334.66
488.62	336.40
488.99	337.97
489.35	339.67
489.72	341.51
490.08	343.44
490.44	345.47
490.81	347.66
491.17	349.84
491.54	352.37
491.90	354.87
492.26	357.49
492.63	360.31
492.99	363.04
493.36	366.07
493.72	369.30
494.08	372.71
494.45	376.41
494.81	380.28
495.17	384.11
495.54	388.22
495.90	392.48
496.26	396.99
496.63	401.73
496.99	406.52
497.35	411.53
497.72	416.81
498.08	422.15
498.44	427.73
498.80	433.73
499.17	439.95
499.53	446.29
499.89	452.99
500.26	459.67
500.62	466.78
500.98	474.19
501.34	481.70
501.71	489.49
502.07	497.29
502.43	505.63
502.79	514.01
503.16	522.68
503.52	531.75
503.88	540.95
504.24	550.56
504.60	560.58
504.97	571.05
505.33	581.46
505.69	592.68
506.05	603.84
506.41	614.96
506.78	626.43
507.14	638.44
507.50	650.73
507.86	663.40
508.22	676.43
508.59	689.24
508.95	702.68
509.31	716.77
509.67	731.16
510.03	745.25
510.39	760.16
510.75	774.88
511.12	790.05
511.48	805.56
511.84	821.13
512.20	836.93
512.56	853.24
512.92	869.81
513.28	886.54
513.64	903.73
514.00	921.31
514.37	938.99
514.73	957.05
515.09	975.35
515.45	994.13
515.81	1012.59
516.17	1031.41
516.53	1050.31
516.89	1068.92
517.25	1088.30
517.61	1108.50
517.97	1128.60
518.33	1148.77
518.69	1169.03
519.05	1189.59
519.41	1210.28
519.77	1231.38
520.13	1251.94
520.49	1272.78
520.85	1294.95
521.21	1315.89
521.57	1337.20
521.93	1358.24
522.29	1379.27
522.65	1399.65
523.01	1420.02
523.37	1440.48
523.73	1461.59
524.09	1481.96
524.45	1502.57
524.81	1523.34
525.17	1544.14
525.53	1564.76
525.89	1585.72
526.25	1606.32
526.61	1626.48
526.97	1647.44
527.33	1668.41
527.68	1690.10
528.04	1711.35
528.40	1730.92
528.76	1752.00
529.12	1772.52
529.48	1793.26
529.84	1813.47
530.20	1834.50
530.56	1855.41
530.91	1876.13
531.27	1896.34
531.63	1917.10
531.99	1937.88
532.35	1957.49
532.71	1977.30
533.07	1997.94
533.42	2017.79
533.78	2037.77
534.14	2057.66
534.50	2076.70
534.86	2096.02
535.21	2113.38
535.57	2131.65
535.93	2149.51
536.29	2167.06
536.65	2185.08
537.00	2202.55
537.36	2220.19
537.72	2236.70
538.08	2253.83
538.44	2270.61
538.79	2287.19
539.15	2303.88
539.51	2319.48
539.87	2334.87
540.22	2348.70
540.58	2362.97
540.94	2376.09
541.29	2388.85
541.65	2401.09
542.01	2413.46
542.37	2423.73
542.72	2434.91
543.08	2445.42
543.44	2456.68
543.79	2466.65
544.15	2476.55
544.51	2486.26
544.87	2495.51
545.22	2504.37
545.58	2512.10
545.94	2519.27
546.29	2525.48
546.65	2531.13
547.01	2536.91
547.36	2542.62
547.72	2548.31
548.07	2551.70
548.43	2557.25
548.79	2561.75
549.14	2566.21
549.50	2569.64
549.86	2574.02
550.21	2577.61
550.57	2581.03
550.92	2582.58
551.28	2584.02
551.64	2586.12
551.99	2588.20
552.35	2589.66
552.70	2591.86
553.06	2593.55
553.41	2594.63
553.77	2596.62
554.13	2598.32
554.48	2599.82
554.84	2600.73
555.19	2601.98
555.55	2603.98
555.90	2603.00
556.26	2602.20
556.61	2600.23
556.97	2598.46
557.32	2597.48
557.68	2596.22
558.03	2594.81
558.39	2593.52
558.74	2592.65
559.10	2589.33
559.45	2585.44
559.81	2581.52
560.16	2575.88
560.52	2570.89
560.87	2567.01
561.23	2561.57
561.58	2555.75
561.94	2548.69
562.29	2541.36
562.64	2534.16
563.00	2526.06
563.35	2519.38
563.71	2512.68
564.06	2506.72
564.42	2500.15
564.77	2493.43
565.12	2486.24
565.48	2478.72
565.83	2470.94
566.19	2462.94
566.54	2455.17
566.89	2447.46
567.25	2439.55
567.60	2432.54
567.96	2424.93
568.31	2416.46
568.66	2408.03
569.02	2399.10
569.37	2391.31
569.72	2384.10
570.08	2374.75
570.43	2365.06
570.78	2355.98
571.14	2346.40
571.49	2336.25
571.84	2326.55
572.20	2315.72
572.55	2305.51
572.90	2294.20
573.26	2283.66
573.61	2272.63
573.96	2261.40
574.31	2249.36
574.67	2237.76
575.02	2224.98
575.37	2212.23
575.72	2199.13
576.08	2186.76
576.43	2174.13
576.78	2160.68
577.13	2146.97
577.49	2134.27
577.84	2122.73
578.19	2110.57
578.54	2098.22
578.90	2086.42
579.25	2074.47
579.60	2061.60
579.95	2048.43
580.30	2035.68
580.66	2022.13
581.01	2009.00
581.36	1995.29
581.71	1982.60
582.06	1969.55
582.42	1957.36
582.77	1944.72
583.12	1932.89
583.47	1920.74
583.82	1908.65
584.17	1896.66
584.53	1884.82
584.88	1872.15
585.23	1858.88
585.58	1845.00
585.93	1831.71
586.28	1818.55
586.63	1804.72
586.98	1790.95
587.34	1778.12
587.69	1764.87
588.04	1752.63
588.39	1740.37
588.74	1728.14
589.09	1716.25
589.44	1703.49
589.79	1691.25
590.14	1679.60
590.49	1667.36
590.84	1655.29
591.19	1643.43
591.54	1631.55
591.89	1619.31
592.25	1609.18
592.60	1597.58
592.95	1586.19
593.30	1574.24
593.65	1562.01
594.00	1549.88
594.35	1539.89
594.70	1527.73
595.05	1516.44
595.40	1504.37
595.75	1492.14
596.10	1480.82
596.45	1469.12
596.80	1458.33
597.15	1446.91
597.50	1435.05
597.85	1423.67
598.19	1411.95
598.54	1400.25
598.89	1388.77
599.24	1378.22
599.59	1366.72
599.94	1356.00
600.29	1345.53
600.64	1335.40
600.99	1324.76
601.34	1315.16
601.69	1304.18
602.04	1294.66
602.39	1284.78
602.74	1275.74
603.08	1266.60
603.43	1257.50
603.78	1247.89
604.13	1238.29
604.48	1228.79
604.83	1219.25
605.18	1209.62
605.53	1200.30
605.87	1191.49
606.22	1183.00
606.57	1173.77
606.92	1164.34
607.27	1155.22
607.62	1146.55
607.96	1138.13
608.31	1130.32
608.66	1121.92
609.01	1113.43
609.36	1104.94
609.70	1096.59
610.05	1087.94
610.40	1079.30
610.75	1070.29
611.10	1061.95
611.44	1053.08
611.79	1044.76
612.14	1036.84
612.49	1028.88
612.83	1021.29
613.18	1013.36
613.53	1005.55
613.88	997.67
614.22	989.90
614.57	982.30
614.92	974.55
615.27	966.95
615.61	958.98
615.96	951.38
616.31	943.86
616.65	936.75
617.00	929.51
617.35	922.08
617.70	915.12
618.04	908.25
618.39	901.23
618.74	895.15
619.08	888.49
619.43	881.44
619.78	874.45
620.12	867.14
620.47	860.28
620.82	853.08
621.16	846.19
621.51	839.91
621.85	833.59
622.20	827.08
622.55	820.28
622.89	813.96
623.24	807.61
623.59	801.36
623.93	794.92
624.28	788.97
624.62	783.42
624.97	777.63
625.32	771.97
625.66	765.99
626.01	759.73
626.35	754.07
626.70	748.75
627.04	743.44
627.39	738.18
627.73	732.89
628.08	728.05
628.43	722.72
628.77	717.36
629.12	712.13
629.46	707.25
629.81	702.59
630.15	697.94
630.50	693.14
630.84	688.16
631.19	683.55
631.53	678.76
631.88	673.44
632.22	668.45
632.57	663.73
632.91	659.35
633.26	655.05
633.60	650.40
633.95	645.54
634.29	640.89
634.64	636.42
634.98	631.59
635.32	627.13
635.67	623.36
636.01	619.28
636.36	614.82
636.70	610.69
637.05	606.61
637.39	602.48
637.73	598.46
638.08	594.47
638.42	590.17
638.77	585.89
639.11	581.72
639.45	577.59
639.80	573.54
640.14	569.43
640.49	565.38
640.83	561.70
641.17	558.05
641.52	554.38
641.86	550.76
642.20	547.67
642.55	544.00
642.89	540.18
643.23	536.46
643.58	533.43
643.92	529.81
644.26	526.35
644.61	523.11
644.95	519.66
645.29	516.37
645.64	513.31
645.98	510.24
646.32	507.29
646.66	504.15
647.01	500.98
647.35	498.26
647.69	495.49
648.04	492.61
648.38	489.75
648.72	486.93
649.06	483.90
649.41	480.78
649.75	477.75
650.09	474.98
650.43	472.07
650.78	469.13
651.12	466.35
651.46	463.43
651.80	460.54
652.14	457.85
652.49	455.35
652.83	452.74
653.17	450.19
653.51	447.52
653.85	445.20
654.20	442.77
654.54	440.15
654.88	437.45
655.22	435.17
655.56	432.81
655.90	430.33
656.25	428.20
656.59	426.09
656.93	424.11
657.27	421.94
657.61	419.61
657.95	417.29
658.29	415.14
658.64	413.21
658.98	411.09
659.32	408.83
659.66	406.59
660.00	404.51
660.34	402.45
660.68	400.45
661.02	398.31
661.36	396.43
661.70	394.39
662.05	392.53
662.39	390.56
662.73	388.76
663.07	387.23
663.41	385.32
663.75	383.27
664.09	381.24
664.43	379.22
664.77	377.66
665.11	375.94
665.45	374.25
665.79	372.53
666.13	370.79
666.47	369.15
666.81	367.49
667.15	365.78
667.49	364.28
667.83	362.94
668.17	361.49
668.51	360.01
668.85	358.72
669.19	357.59
669.53	356.08
669.87	354.50
670.21	352.94
670.55	351.60
670.89	350.51
671.23	349.20
671.57	348.00
671.91	346.70
672.25	345.32
672.58	344.06
672.92	342.58
673.26	341.34
673.60	340.18
673.94	339.02
674.28	337.88
674.62	336.67
674.96	335.40
675.30	334.20
675.64	332.98
675.97	331.68
676.31	330.19
676.65	329.00
676.99	328.13
677.33	326.96
677.67	325.83
678.01	324.54
678.34	323.57
678.68	322.57
679.02	321.49
679.36	320.54
679.70	319.53
680.04	318.62
680.37	317.67
680.71	316.76
681.05	315.88
681.39	315.00
681.73	314.09
682.06	313.21
682.40	312.39
682.74	311.57
683.08	310.92
683.42	310.05
683.75	309.28
684.09	308.28
684.43	307.51
684.77	306.68
685.10	305.95
685.44	305.09
685.78	304.26
686.12	303.51
686.45	302.78
686.79	301.85
687.13	301.19
687.46	300.42
687.80	299.71
688.14	298.88
688.48	298.09
688.81	297.35
689.15	296.70
689.49	295.90
689.82	295.16
690.16	294.25
690.50	293.65
690.83	292.96
691.17	292.20
691.51	291.51
691.84	290.94
692.18	290.21
692.52	289.55
692.85	288.92
693.19	288.44
693.52	287.81
693.86	287.18
694.20	286.53
694.53	285.91
694.87	285.24
695.21	284.62
695.54	284.00
695.88	283.31
696.21	282.47
696.55	281.84
696.88	281.25
697.22	280.80
697.56	280.25
697.89	279.59
698.23	279.10
698.56	278.52
698.90	278.01
699.23	277.47
699.57	277.02
699.90	276.40
700.24	275.70
700.58	275.15
700.91	274.83
701.25	274.71
701.58	274.64
701.92	274.28
702.25	273.85
702.59	273.39
702.92	273.03
703.26	272.74
703.59	272.41
703.93	272.34
704.26	271.81
704.60	271.43
704.93	270.98
705.26	270.53
705.60	270.15
705.93	269.55
706.27	269.27
706.60	268.91
706.94	268.74
707.27	268.32
707.61	267.99
707.94	267.51
708.27	266.72
708.61	265.91
708.94	265.47
709.28	265.07
709.61	264.70
709.94	264.31
710.28	263.93
710.61	263.46
710.95	262.68
711.28	262.59
711.61	262.14
711.95	261.85
712.28	261.44
712.61	261.02
712.95	260.97
713.28	260.77
713.61	260.35
713.95	259.82
714.28	259.52
714.61	259.15
714.95	258.77
715.28	258.36
715.61	257.98
715.95	257.61
716.28	257.23
716.61	256.94
716.95	256.47
717.28	256.12
717.61	255.86
717.94	255.58
718.28	254.98
718.61	254.69
718.94	254.35
719.27	254.12
719.61	253.93
719.94	253.49
720.27	252.97
720.60	252.73
720.94	252.55
721.27	252.33
721.60	252.18
721.93	251.95
722.27	251.94
722.60	251.79
722.93	251.60
723.26	251.46
723.59	251.28
723.93	251.23
724.26	251.03
724.59	250.77
724.92	250.65
725.25	250.61
725.59	250.39
725.92	250.22
726.25	250.11
726.58	249.94
726.91	249.69
727.24	249.55
727.57	249.38
727.91	249.09
728.24	248.97
728.57	248.66
728.90	248.61
729.23	248.20
729.56	248.33
729.89	248.20
730.22	247.98
730.55	247.69
730.89	247.53
731.22	247.39
731.55	247.23
731.88	247.06
732.21	246.73
732.54	246.50
732.87	246.40
733.20	246.17
733.53	246.05
733.86	245.98
734.19	245.80
734.52	245.64
734.85	245.79
735.18	245.50
735.51	245.52
735.84	245.35
736.17	245.33
736.50	244.90
736.83	245.26
737.16	245.12
737.49	244.97
737.82	244.75
738.15	244.66
738.48	244.43
738.81	244.27
739.14	244.01
739.47	243.90
739.80	243.77
740.13	243.74
740.46	243.47
740.79	243.28
741.12	243.05
741.45	242.88
741.78	242.48
742.11	242.52
742.44	242.25
742.77	242.16
743.10	241.98
743.43	241.80
743.75	241.17
744.08	241.63
744.41	241.48
744.74	241.29
745.07	241.10
745.40	241.13
745.73	241.13
746.06	241.13
746.39	241.08
746.71	240.83
747.04	240.51
747.37	240.37
747.70	240.29
748.03	240.25
748.36	240.14
748.68	240.00
749.01	239.68
749.34	239.57
749.67	239.43
750.00	239.45
750.33	239.70
750.65	239.54
750.98	238.76
751.31	238.72
751.64	238.68
751.97	238.76
752.29	238.54
752.62	238.23
752.95	238.03
753.28	237.81
753.60	237.73
753.93	237.88
754.26	237.91
754.59	237.71
754.91	237.55
755.24	237.41
755.57	237.36
755.90	237.31
756.22	237.14
756.55	236.89
756.88	236.61
757.20	236.15
757.53	235.91
757.86	235.86
758.19	235.71
758.51	235.60
758.84	235.25
759.17	235.17
759.49	235.04
759.82	235.19
760.15	235.18
760.47	235.08
760.80	234.80
761.13	234.68
761.45	234.52
761.78	234.47
762.11	234.47
762.43	234.28
762.76	234.14
763.08	234.19
763.41	234.25
763.74	234.28
764.06	234.24
764.39	234.25
764.71	234.17
765.04	234.10
765.37	233.94
765.69	233.92
766.02	233.92
766.34	233.96
766.67	233.79
767.00	233.78
767.32	233.99
767.65	234.13
767.97	234.04
768.30	234.06
768.62	233.98
768.95	233.90
769.27	233.86
769.60	233.93
769.92	233.77
770.25	233.58
770.57	233.38
770.90	233.27
771.22	233.19
771.55	233.14
771.87	233.14
772.20	233.09
772.52	233.44
772.85	233.85
773.17	233.81
773.50	233.68
773.82	233.55
774.15	233.28
774.47	233.08
774.80	233.03
775.12	233.03
775.45	232.98
775.77	232.87
776.09	232.94
776.42	232.89
776.74	233.01
777.07	233.03
777.39	233.06
777.72	232.99
778.04	233.02
778.36	233.02
778.69	232.99
779.01	233.01
779.33	232.55
779.66	232.04
779.98	231.87
780.31	231.83
780.63	232.04
780.95	232.10
781.28	232.06
781.60	232.00
781.92	231.91
782.25	231.85
782.57	231.90
782.89	231.77
783.22	231.75
783.54	231.62
783.86	231.63
784.19	231.50
784.51	231.65
784.83	231.45
785.16	231.37
785.48	231.27
785.80	231.29
786.12	231.35
786.45	231.31
786.77	231.35
787.09	231.33
787.42	231.06
787.74	231.00
788.06	230.89
788.38	230.81
788.71	230.73
789.03	230.72
789.35	230.68
789.67	230.58
789.99	230.55
790.32	230.40
790.64	230.42
790.96	230.88
791.28	230.68
791.61	230.68
791.93	230.74
792.25	230.79
792.57	231.07
792.89	230.87
793.21	230.84
793.54	230.76
793.86	230.76
794.18	230.80
794.50	230.69
794.82	230.64
795.14	230.71
795.47	230.74
795.79	230.78
796.11	230.66
796.43	230.69
796.75	230.61
797.07	230.64
797.39	230.60
797.71	230.18
798.04	230.22
798.36	230.27
798.68	230.15
799.00	230.08
799.32	229.76
799.64	229.81
799.96	229.76
800.28	229.77
800.60	229.71
800.92	229.70
801.24	229.67
801.56	229.77
801.89	229.63
802.21	229.66
802.53	229.49
802.85	229.63
803.17	229.82
803.49	229.69
803.81	229.63
804.13	229.60
804.45	229.50
804.77	229.50
805.09	229.50
805.41	229.50
805.73	229.37
806.05	229.27
806.37	229.22
806.69	229.22
807.01	229.14
807.33	229.12
807.65	228.96
807.97	229.18
808.28	229.02
808.60	228.98
808.92	228.91
809.24	229.19
809.56	229.06
809.88	228.90
810.20	228.91
810.52	229.07
810.84	228.88
811.16	228.85
811.48	228.86
811.80	228.98
812.12	228.94
812.43	229.04
812.75	229.09
813.07	229.10
813.39	229.13
813.71	229.08
814.03	229.04
814.35	229.01
814.67	228.78
814.98	228.73
815.30	228.83
815.62	228.71
815.94	228.43
816.26	228.58
816.58	228.44
816.89	228.51
817.21	228.32
817.53	228.45
817.85	228.51
818.17	228.41
818.48	228.17
818.80	228.30
819.12	228.19
819.44	228.08
819.76	227.97
820.07	227.95
820.39	227.97
820.71	227.98
821.03	228.09
821.34	228.06
821.66	228.16
821.98	228.17
822.30	228.18
822.61	228.51
822.93	228.27
823.25	228.30
823.57	228.14
823.88	228.25
824.20	228.27
824.52	228.32
824.83	228.32
825.15	228.29
825.47	228.17
825.79	228.27
826.10	228.23
826.42	228.25
826.74	228.29
827.05	228.32
827.37	228.37
827.69	228.29
828.00	228.23
828.32	228.23
828.64	228.10
828.95	228.40
829.27	228.22
829.58	228.26
829.90	228.37
830.22	228.46
830.53	228.36
830.85	228.23
831.17	228.09
831.48	228.08
831.80	228.18
832.11	228.20
832.43	228.12
832.75	228.15
833.06	228.43
833.38	228.27
833.69	228.20
834.01	228.21
834.32	228.20
834.64	228.18
834.96	228.17
835.27	228.20
835.59	227.96
835.90	227.85
836.22	227.80
836.53	227.68
836.85	227.66
837.16	228.10
837.48	228.16
837.79	228.30
838.11	228.26
838.42	228.23
838.74	228.36
839.05	228.30
839.37	228.28
839.68	227.97
840.00	227.96
840.31	228.00
840.63	227.90
840.94	227.88
841.26	227.89
841.57	227.85
841.88	227.83
842.20	227.83
842.51	227.77
842.83	227.83
843.14	228.24
843.46	228.23
843.77	227.98
844.08	227.94
844.40	227.81
844.71	227.80
845.03	227.70
845.34	227.59
845.65	227.63
845.97	227.68
846.28	227.67
846.60	227.69
846.91	227.68
847.22	227.71
847.54	227.80
847.85	227.85
848.16	227.80
848.48	227.74
848.79	227.90
849.10	227.86
849.42	227.90
849.73	227.41
850.04	227.40
850.36	227.19
850.67	227.26
850.98	227.25
851.30	227.30
851.61	227.29
851.92	227.24
852.23	227.35
852.55	227.29
852.86	227.28
853.17	227.37
853.49	227.44
853.80	227.54
854.11	227.52
854.42	227.51
854.74	227.50
855.05	227.51
855.36	227.23
855.67	227.31
855.99	227.23
856.30	227.89
856.61	227.90
856.92	227.89
857.23	227.84
857.55	227.77
857.86	227.67
858.17	227.78
858.48	227.70
858.79	227.58
859.11	227.63
859.42	227.65
859.73	227.53
860.04	227.51
860.35	227.32
860.66	227.20
860.98	227.18
861.29	227.17
861.60	227.18
861.91	227.34
862.22	227.27
862.53	227.25
862.84	226.62
863.16	226.69
863.47	226.59
863.78	226.54
864.09	226.62
864.40	226.69
864.71	226.61
865.02	226.62
865.33	226.59
865.64	226.50
865.95	226.44
866.27	226.72
866.58	226.69
866.89	226.79
867.20	226.75
867.51	226.67
867.82	226.76
868.13	226.86
868.44	226.69
868.75	226.80
869.06	226.73
869.37	226.78
869.68	226.61
869.99	226.77
870.30	226.83
870.61	226.91
870.92	226.79
871.23	226.77
871.54	226.87
871.85	226.92
872.16	227.00
872.47	227.03
872.78	226.83
873.09	226.80
873.40	226.75
873.71	226.79
874.02	226.87
874.33	226.76
874.64	226.64
874.95	226.74
875.26	226.67
875.56	226.65
875.87	226.65
876.18	226.68
876.49	227.05
876.80	226.99
877.11	226.87
877.42	227.03
877.73	227.03
878.04	226.96
878.35	227.04
878.66	227.09
878.96	227.05
879.27	227.02
879.58	227.05
879.89	227.05
880.20	227.27
880.51	227.25
880.82	227.28
881.12	227.37
881.43	227.35
881.74	227.26
882.05	227.26
882.36	227.31
882.67	227.35
882.97	226.90
883.28	226.88
883.59	226.86
883.90	226.83
884.21	226.84
884.51	226.78
884.82	226.65
885.13	226.60
885.44	226.59
885.74	226.46
886.05	226.37
886.36	226.33
886.67	226.10
886.98	226.34
887.28	226.40
887.59	226.38
887.90	226.35
888.20	226.34
888.51	226.42
888.82	226.37
889.13	226.39
889.43	226.72
889.74	226.67
890.05	226.67
890.35	226.52
890.66	226.44
890.97	226.49
891.28	226.48
891.58	226.40
891.89	226.43
892.20	226.48
892.50	226.45
892.81	226.43
893.12	226.41
893.42	226.09
893.73	226.06
894.04	226.01
894.34	226.03
894.65	226.02
894.95	225.98
895.26	225.96
895.57	226.16
895.87	225.71
896.18	225.81
896.48	225.85
896.79	225.90
897.10	226.01
897.40	225.97
897.71	226.01
898.01	226.06
898.32	226.12
898.63	226.14
898.93	226.16
899.24	226.19
899.54	226.15
899.85	226.18
900.15	226.17
900.46	226.21
900.76	226.27
901.07	226.29
901.38	226.28
901.68	226.31
901.99	226.07
902.29	226.15
902.60	226.10
902.90	226.05
903.21	226.03
903.51	226.03
903.82	226.16
904.12	226.16
904.43	226.17
904.73	226.08
905.03	226.10
905.34	226.58
905.64	226.53
905.95	226.59
906.25	226.62
906.56	226.63
906.86	226.53
907.17	226.52
907.47	226.55
907.77	226.50
908.08	226.43
908.38	226.47
908.69	226.59
908.99	226.67
909.30	226.76
909.60	226.83
909.90	226.92
910.21	226.76
910.51	226.68
910.81	226.66
911.12	226.77
911.42	226.75
911.73	226.27
912.03	226.29
912.33	226.34
912.64	226.28
912.94	226.22
913.24	226.25
913.55	226.18
913.85	226.20
914.15	226.38
914.46	226.46
914.76	226.42
915.06	226.28
915.37	226.21
915.67	226.10
915.97	226.06
916.27	225.94
916.58	226.01
916.88	226.05
917.18	226.02
917.49	226.38
917.79	226.45
918.09	226.47
918.39	226.65
918.70	226.65
919.00	226.70
919.30	226.98
919.60	226.86
919.91	226.79
920.21	226.80
920.51	226.59
920.81	226.56
921.12	226.65
921.42	226.70
921.72	226.68
922.02	226.82
922.32	226.93
922.63	226.95
922.93	227.21
923.23	227.24
923.53	227.17
923.83	226.79
924.13	226.78
924.44	226.79
924.74	226.85
925.04	226.91
925.34	226.95
925.64	226.72
925.94	226.80
926.24	227.14
926.55	227.08
926.85	227.22
927.15	227.23
927.45	227.22
927.75	227.22
928.05	227.29
928.35	227.15
928.65	227.16
928.95	227.15
929.26	226.90
929.56	227.01
929.86	227.06
930.16	227.01
930.46	226.91
930.76	226.96
931.06	226.75
931.36	226.68
931.66	226.72
931.96	226.77
932.26	226.79
932.56	226.52
932.86	226.58
933.16	226.53
933.46	226.50
933.76	226.36
934.06	226.47
934.36	226.62
934.66	226.67
934.96	226.62
935.26	226.62
935.56	226.68
935.86	226.52
936.16	226.53
936.46	226.48
936.76	226.50
937.06	226.39
937.36	226.42
937.66	226.44
937.96	226.36
938.26	226.22
938.56	226.24
938.86	226.29
939.16	226.39
939.46	226.42
939.76	226.43
940.06	226.48
940.35	226.36
940.65	226.07
940.95	226.06
941.25	225.95
941.55	225.87
941.85	225.86
942.15	225.98
942.45	226.07
942.75	226.10
943.04	226.12
943.34	226.23
943.64	226.10
943.94	226.04
944.24	226.01
944.54	226.05
944.84	225.99
945.13	225.92
945.43	225.82
945.73	225.81
946.03	225.77
946.33	225.71
946.62	225.68
946.92	225.64
947.22	225.70
947.52	225.79
947.82	225.91
948.11	225.84
948.41	225.77
948.71	225.71
949.01	225.78
949.31	225.74
949.60	225.74
949.90	225.86
950.20	225.83
950.50	225.91
950.79	225.93
951.09	226.01
951.39	226.04
951.69	225.95
951.98	226.07
952.28	226.09
952.58	226.06
952.87	226.02
953.17	226.12
953.47	226.12
953.76	226.14
954.06	226.09
954.36	226.04
954.66	226.03
954.95	226.10
955.25	226.11
955.55	226.14
955.84	226.02
956.14	226.08
956.44	226.09
956.73	225.99
957.03	225.95
957.32	225.95
957.62	225.96
957.92	226.07
958.21	225.95
958.51	226.49
958.81	226.58
959.10	226.71
959.40	226.84
959.69	226.75
959.99	226.82
960.29	226.83
960.58	226.81
960.88	226.94
961.17	226.81
961.47	226.80
961.76	226.74
962.06	226.84
962.36	226.74
962.65	226.77
962.95	226.74
963.24	226.76
963.54	226.80
963.83	226.75
964.13	226.75
964.42	226.70
964.72	226.32
965.01	226.37
965.31	226.26
965.60	226.11
965.90	226.50
966.19	226.36
966.49	226.35
966.78	226.34
967.08	226.24
967.37	226.37
967.67	226.28
967.96	226.41
968.26	226.37
968.55	226.46
968.85	226.39
969.14	226.49
969.43	226.43
969.73	226.39
970.02	226.49
970.32	226.44
970.61	226.43
970.91	226.23
971.20	226.07
971.49	226.02
971.79	226.09
972.08	225.69
972.38	225.69
972.67	225.67
972.96	225.76
973.26	225.67
973.55	225.80
973.85	225.81
974.14	225.79
974.43	225.89
974.73	225.77
975.02	225.74
975.31	225.67
975.61	225.69
975.90	225.63
976.19	225.46
976.49	225.52
976.78	225.54
977.07	225.63
977.37	225.72
977.66	225.83
977.95	225.73
978.24	225.76
978.54	225.93
978.83	225.90
979.12	225.85
979.42	225.95
979.71	225.80
980.00	225.80
980.29	225.82
980.59	225.68
980.88	225.85
981.17	225.85
981.46	225.82
981.76	225.87
982.05	226.01
982.34	226.11
982.63	226.07
982.93	226.05
983.22	226.09
983.51	226.06
983.80	226.08
984.09	226.13
984.39	226.15
984.68	225.97
984.97	225.97
985.26	225.94
985.55	225.90
985.85	225.79
986.14	225.86
986.43	225.82
986.72	225.80
987.01	225.73
987.30	225.75
987.59	225.75
987.89	225.71
988.18	225.58
988.47	225.57
988.76	225.55
989.05	225.51
989.34	225.55
989.63	225.66
989.92	225.68
990.22	225.61
990.51	225.66
990.80	225.74
991.09	225.79
991.38	225.91
991.67	225.89
991.96	225.93
992.25	226.03
992.54	226.00
992.83	225.99
993.12	225.93
993.41	225.97
993.70	226.26
993.99	226.42
994.28	226.49
994.58	226.51
994.87	226.44
995.16	226.41
995.45	226.31
995.74	226.18
996.03	226.15
996.32	226.29
996.61	226.32
996.90	226.28
997.19	226.25
997.48	226.25
997.77	226.23
998.06	226.19
998.34	226.08
998.63	226.09
998.92	226.19
999.21	226.24
999.50	226.25
999.79	226.06
1000.08	225.99
1000.37	226.01
1000.66	225.95
1000.95	226.15
1001.24	226.27
1001.53	226.38
1001.82	226.33
1002.11	226.25
1002.40	226.27
1002.68	226.38
1002.97	226.69
1003.26	226.57
1003.55	226.46
1003.84	226.44
1004.13	226.59
1004.42	226.55
1004.71	226.52
1004.99	226.42
1005.28	226.50
1005.57	226.51
1005.86	226.43
1006.15	226.39
1006.44	226.27
1006.72	226.35
1007.01	226.27
1007.30	226.23
1007.59	226.09
1007.88	226.16
1008.17	226.20
1008.45	226.15
1008.74	225.95
1009.03	225.70
1009.32	225.83
1009.60	225.81
1009.89	225.84
1010.18	225.70
1010.47	225.64
1010.76	225.64
1011.04	225.61
1011.33	225.62
1011.62	225.65
1011.91	225.68
1012.19	225.71
1012.48	225.79
1012.77	225.72
1013.05	225.94
1013.34	225.90
1013.63	225.94
1013.92	225.94
1014.20	225.93
1014.49	225.91
1014.78	225.98
1015.06	225.79
1015.35	225.72
1015.64	225.78
1015.92	225.79
1016.21	225.80
1016.50	225.83
1016.78	225.91
1017.07	225.93
1017.36	225.85
1017.64	225.76
1017.93	225.79
1018.22	225.75
1018.50	225.66
1018.79	225.67
1019.08	225.45
1019.36	225.52
1019.65	225.40
1019.93	225.52
1020.22	225.58
1020.51	225.80
1020.79	225.71
1021.08	225.25
1021.36	224.55
1021.65	225.60
1021.94	226.35
1022.22	226.65
1022.51	223.45
1022.79	228.45
1023.08	225.95
1023.36	231.15
1023.65	224.80
>>>>>End Processed Spectral Data<<<<<
