SpectraSuite Data File
++++++++++++++++++++++++++++++++++++
Date: Wed Sep 04 17:55:42 EDT 2013
User: lab3
Dark Spectrum Present: Yes
Reference Spectrum Present: No
Number of Sampled Component Spectra: 1
Spectrometers: USB2E7196
Integration Time (usec): 170000 (USB2E7196)
Spectra Averaged: 20 (USB2E7196)
Boxcar Smoothing: 10 (USB2E7196)
Correct for Electrical Dark: No (USB2E7196)
Strobe/Lamp Enabled: No (USB2E7196)
Correct for Detector Non-linearity: No (USB2E7196)
Correct for Stray Light: No (USB2E7196)
Number of Pixels in Processed Spectrum: 2048
>>>>>Begin Processed Spectral Data<<<<<
339.09	0.00
339.48	213.65
339.86	215.85
340.24	215.65
340.63	217.75
341.01	225.85
341.39	220.40
341.78	222.40
342.16	224.35
342.54	224.20
342.93	212.74
343.31	223.39
343.69	223.94
344.07	224.32
344.46	224.86
344.84	225.27
345.22	225.24
345.60	225.50
345.99	225.71
346.37	225.79
346.75	225.89
347.13	225.98
347.52	226.03
347.90	226.24
348.28	226.20
348.66	226.31
349.05	226.14
349.43	226.22
349.81	226.29
350.19	226.37
350.57	226.45
350.96	226.56
351.34	226.72
351.72	226.82
352.10	226.98
352.48	226.94
352.87	226.93
353.25	227.01
353.63	227.05
354.01	227.07
354.39	227.23
354.77	227.30
355.15	227.42
355.54	227.43
355.92	227.28
356.30	227.36
356.68	227.78
357.06	227.91
357.44	227.86
357.82	227.88
358.20	228.34
358.58	228.34
358.97	228.48
359.35	228.61
359.73	228.72
360.11	228.66
360.49	228.76
360.87	228.77
361.25	228.89
361.63	229.10
362.01	229.19
362.39	229.13
362.77	229.19
363.15	229.22
363.53	229.28
363.91	229.43
364.29	229.47
364.67	229.05
365.05	229.13
365.43	229.25
365.81	229.34
366.19	229.24
366.57	229.45
366.95	229.40
367.33	229.35
367.71	229.39
368.09	229.54
368.47	229.45
368.85	229.55
369.23	229.65
369.61	229.53
369.99	229.73
370.37	229.76
370.75	229.92
371.13	229.80
371.51	229.78
371.89	229.75
372.27	229.75
372.65	229.80
373.03	229.73
373.41	229.67
373.78	229.66
374.16	229.32
374.54	229.13
374.92	228.99
375.30	228.96
375.68	228.80
376.06	228.80
376.44	228.80
376.82	228.66
377.19	228.51
377.57	228.31
377.95	228.05
378.33	227.98
378.71	227.66
379.09	227.68
379.47	227.57
379.84	227.44
380.22	227.39
380.60	227.25
380.98	227.17
381.36	227.08
381.73	226.93
382.11	226.93
382.49	226.86
382.87	226.80
383.25	226.72
383.62	227.20
384.00	227.04
384.38	227.02
384.76	227.15
385.13	227.35
385.51	227.38
385.89	227.20
386.27	227.21
386.64	227.31
387.02	227.16
387.40	227.10
387.78	227.06
388.15	227.00
388.53	226.90
388.91	226.83
389.29	226.73
389.66	226.80
390.04	226.60
390.42	226.67
390.79	226.71
391.17	226.70
391.55	226.15
391.92	226.19
392.30	226.19
392.68	226.09
393.05	226.01
393.43	226.09
393.81	226.16
394.18	226.07
394.56	226.05
394.94	226.20
395.31	226.18
395.69	226.32
396.06	226.36
396.44	226.56
396.82	226.60
397.19	226.95
397.57	226.88
397.95	227.23
398.32	227.13
398.70	227.19
399.07	227.30
399.45	227.41
399.82	227.45
400.20	227.56
400.58	227.65
400.95	227.54
401.33	227.72
401.70	228.17
402.08	228.31
402.45	228.39
402.83	228.63
403.20	228.91
403.58	229.03
403.95	229.33
404.33	229.51
404.71	229.82
405.08	230.25
405.46	230.53
405.83	230.66
406.21	231.00
406.58	231.29
406.96	231.59
407.33	231.91
407.70	232.30
408.08	233.09
408.45	233.53
408.83	234.09
409.20	234.39
409.58	234.59
409.95	235.14
410.33	235.78
410.70	236.16
411.08	236.79
411.45	237.51
411.82	237.98
412.20	238.68
412.57	239.62
412.95	239.92
413.32	240.81
413.69	241.71
414.07	242.60
414.44	243.66
414.82	244.72
415.19	245.92
415.56	247.10
415.94	247.96
416.31	249.36
416.68	250.74
417.06	252.36
417.43	253.97
417.81	255.70
418.18	257.40
418.55	259.33
418.93	261.29
419.30	263.28
419.67	265.51
420.04	267.75
420.42	270.06
420.79	273.13
421.16	275.89
421.54	278.94
421.91	281.95
422.28	284.97
422.66	288.28
423.03	291.75
423.40	295.15
423.77	298.69
424.15	302.36
424.52	306.06
424.89	310.30
425.26	314.31
425.64	318.09
426.01	322.32
426.38	326.76
426.75	331.37
427.13	335.96
427.50	340.74
427.87	345.66
428.24	350.62
428.61	355.16
428.99	360.55
429.36	365.92
429.73	371.45
430.10	377.02
430.47	382.61
430.85	388.25
431.22	394.37
431.59	401.13
431.96	407.33
432.33	414.30
432.70	420.87
433.08	428.63
433.45	436.11
433.82	443.58
434.19	451.81
434.56	459.76
434.93	467.40
435.30	475.19
435.68	483.88
436.05	492.05
436.42	500.40
436.79	507.94
437.16	516.45
437.53	525.13
437.90	533.82
438.27	542.35
438.64	551.26
439.01	559.55
439.38	566.80
439.75	573.87
440.13	582.01
440.50	589.54
440.87	595.74
441.24	602.24
441.61	609.21
441.98	614.26
442.35	620.10
442.72	626.17
443.09	631.98
443.46	635.22
443.83	637.78
444.20	639.67
444.57	642.51
444.94	643.30
445.31	644.52
445.68	645.81
446.05	646.01
446.42	644.74
446.79	643.43
447.16	641.88
447.53	640.74
447.90	636.81
448.27	633.23
448.64	628.37
449.01	624.57
449.37	618.24
449.74	612.11
450.11	605.37
450.48	597.50
450.85	589.52
451.22	582.79
451.59	576.04
451.96	569.74
452.33	561.50
452.70	554.17
453.07	545.48
453.43	536.31
453.80	527.94
454.17	519.92
454.54	512.19
454.91	503.98
455.28	495.95
455.65	488.67
456.02	481.72
456.38	475.24
456.75	467.52
457.12	461.09
457.49	454.79
457.86	448.30
458.23	443.25
458.59	437.50
458.96	431.78
459.33	426.75
459.70	421.75
460.07	417.65
460.43	413.16
460.80	408.74
461.17	405.02
461.54	401.06
461.91	397.15
462.27	393.22
462.64	389.99
463.01	386.40
463.38	383.11
463.74	379.18
464.11	376.17
464.48	373.44
464.85	370.52
465.21	368.38
465.58	366.15
465.95	363.27
466.32	361.05
466.68	358.69
467.05	356.45
467.42	354.19
467.78	351.92
468.15	349.77
468.52	348.27
468.88	346.09
469.25	344.15
469.62	342.70
469.98	341.09
470.35	339.55
470.72	338.08
471.08	336.33
471.45	335.04
471.82	333.82
472.18	332.47
472.55	331.59
472.92	330.29
473.28	329.15
473.65	328.19
474.02	327.10
474.38	326.21
474.75	325.48
475.11	324.68
475.48	324.09
475.85	323.43
476.21	322.80
476.58	322.32
476.94	321.89
477.31	321.32
477.67	320.88
478.04	320.47
478.41	320.24
478.77	320.56
479.14	320.31
479.50	320.17
479.87	320.18
480.23	320.16
480.60	320.15
480.96	320.13
481.33	320.42
481.69	320.65
482.06	320.95
482.42	321.18
482.79	321.46
483.15	321.87
483.52	322.46
483.88	323.02
484.25	323.60
484.61	324.23
484.98	324.94
485.34	325.88
485.71	326.93
486.07	327.83
486.44	328.41
486.80	329.46
487.17	330.54
487.53	331.88
487.90	333.28
488.26	334.90
488.62	336.65
488.99	338.14
489.35	339.90
489.72	341.78
490.08	343.83
490.44	345.87
490.81	348.10
491.17	350.28
491.54	352.69
491.90	355.30
492.26	357.98
492.63	360.87
492.99	363.62
493.36	366.65
493.72	370.09
494.08	373.56
494.45	377.19
494.81	381.06
495.17	384.88
495.54	389.13
495.90	393.29
496.26	397.67
496.63	402.39
496.99	407.30
497.35	412.33
497.72	417.50
498.08	423.04
498.44	428.65
498.80	434.80
499.17	440.74
499.53	446.87
499.89	453.58
500.26	460.32
500.62	467.36
500.98	474.60
501.34	481.96
501.71	489.59
502.07	497.42
502.43	505.62
502.79	514.05
503.16	522.56
503.52	531.60
503.88	540.90
504.24	550.49
504.60	560.55
504.97	570.91
505.33	581.39
505.69	592.39
506.05	603.44
506.41	614.65
506.78	626.45
507.14	638.55
507.50	650.85
507.86	663.34
508.22	676.18
508.59	689.31
508.95	702.99
509.31	717.10
509.67	731.35
510.03	745.71
510.39	760.43
510.75	775.53
511.12	790.86
511.48	806.51
511.84	822.36
512.20	838.09
512.56	854.16
512.92	871.04
513.28	887.75
513.64	905.05
514.00	922.53
514.37	940.15
514.73	958.16
515.09	976.56
515.45	995.12
515.81	1013.84
516.17	1032.54
516.53	1051.22
516.89	1069.97
517.25	1089.55
517.61	1109.68
517.97	1129.99
518.33	1149.87
518.69	1170.13
519.05	1190.49
519.41	1211.04
519.77	1232.21
520.13	1252.98
520.49	1273.52
520.85	1295.86
521.21	1316.99
521.57	1338.21
521.93	1359.15
522.29	1380.51
522.65	1400.84
523.01	1421.54
523.37	1442.28
523.73	1463.57
524.09	1484.26
524.45	1504.69
524.81	1525.50
525.17	1546.14
525.53	1566.55
525.89	1587.76
526.25	1608.49
526.61	1629.05
526.97	1650.34
527.33	1671.35
527.68	1693.21
528.04	1714.47
528.40	1734.14
528.76	1755.29
529.12	1775.50
529.48	1796.41
529.84	1816.26
530.20	1837.48
530.56	1858.37
530.91	1879.26
531.27	1899.68
531.63	1920.06
531.99	1940.88
532.35	1961.05
532.71	1981.13
533.07	2001.99
533.42	2021.45
533.78	2041.45
534.14	2061.16
534.50	2080.02
534.86	2099.20
535.21	2116.83
535.57	2135.60
535.93	2153.16
536.29	2170.78
536.65	2189.37
537.00	2206.93
537.36	2224.52
537.72	2241.30
538.08	2258.64
538.44	2275.04
538.79	2291.35
539.15	2308.12
539.51	2324.21
539.87	2339.26
540.22	2353.31
540.58	2367.39
540.94	2380.80
541.29	2393.31
541.65	2406.07
542.01	2418.71
542.37	2429.44
542.72	2440.66
543.08	2450.92
543.44	2462.95
543.79	2472.86
544.15	2482.24
544.51	2492.29
544.87	2502.12
545.22	2510.48
545.58	2518.18
545.94	2525.89
546.29	2532.19
546.65	2538.49
547.01	2544.21
547.36	2550.00
547.72	2555.68
548.07	2559.81
548.43	2565.19
548.79	2569.85
549.14	2573.86
549.50	2577.65
549.86	2581.40
550.21	2585.15
550.57	2588.62
550.92	2589.77
551.28	2590.91
551.64	2593.16
551.99	2595.06
552.35	2596.75
552.70	2598.74
553.06	2600.33
553.41	2601.11
553.77	2603.29
554.13	2604.86
554.48	2606.29
554.84	2607.60
555.19	2608.63
555.55	2610.27
555.90	2609.57
556.26	2608.95
556.61	2607.33
556.97	2605.24
557.32	2604.75
557.68	2603.26
558.03	2601.51
558.39	2600.30
558.74	2599.70
559.10	2596.56
559.45	2592.86
559.81	2588.24
560.16	2583.18
560.52	2578.58
560.87	2574.30
561.23	2568.67
561.58	2562.53
561.94	2555.66
562.29	2548.28
562.64	2541.34
563.00	2532.92
563.35	2526.59
563.71	2519.78
564.06	2513.58
564.42	2507.04
564.77	2500.23
565.12	2492.78
565.48	2485.35
565.83	2477.46
566.19	2469.55
566.54	2462.02
566.89	2453.80
567.25	2446.09
567.60	2439.19
567.96	2431.21
568.31	2423.23
568.66	2414.64
569.02	2405.80
569.37	2397.69
569.72	2389.86
570.08	2380.33
570.43	2370.93
570.78	2361.59
571.14	2352.30
571.49	2342.03
571.84	2332.22
572.20	2321.26
572.55	2311.14
572.90	2300.19
573.26	2289.83
573.61	2278.68
573.96	2267.53
574.31	2255.91
574.67	2244.09
575.02	2231.13
575.37	2218.72
575.72	2205.65
576.08	2193.73
576.43	2181.28
576.78	2167.84
577.13	2154.01
577.49	2141.63
577.84	2129.77
578.19	2117.64
578.54	2104.96
578.90	2093.18
579.25	2081.30
579.60	2068.65
579.95	2055.66
580.30	2042.65
580.66	2029.55
581.01	2016.14
581.36	2002.14
581.71	1989.17
582.06	1976.19
582.42	1963.74
582.77	1951.12
583.12	1939.14
583.47	1926.54
583.82	1914.39
584.17	1902.82
584.53	1891.27
584.88	1878.52
585.23	1865.42
585.58	1851.32
585.93	1838.19
586.28	1824.84
586.63	1810.32
586.98	1796.40
587.34	1783.28
587.69	1769.94
588.04	1756.91
588.39	1744.63
588.74	1732.52
589.09	1720.56
589.44	1708.06
589.79	1696.05
590.14	1684.12
590.49	1671.96
590.84	1659.85
591.19	1647.84
591.54	1635.19
591.89	1622.87
592.25	1612.49
592.60	1601.25
592.95	1589.87
593.30	1577.89
593.65	1565.96
594.00	1554.15
594.35	1544.20
594.70	1532.51
595.05	1521.36
595.40	1509.21
595.75	1497.27
596.10	1486.06
596.45	1474.76
596.80	1463.82
597.15	1452.37
597.50	1440.55
597.85	1429.02
598.19	1417.49
598.54	1405.98
598.89	1395.09
599.24	1384.54
599.59	1372.82
599.94	1361.93
600.29	1351.60
600.64	1341.35
600.99	1330.74
601.34	1321.22
601.69	1310.14
602.04	1300.08
602.39	1290.20
602.74	1281.13
603.08	1271.72
603.43	1262.54
603.78	1252.60
604.13	1242.98
604.48	1233.30
604.83	1223.49
605.18	1213.58
605.53	1203.97
605.87	1194.62
606.22	1185.78
606.57	1176.56
606.92	1167.29
607.27	1158.30
607.62	1149.50
607.96	1140.73
608.31	1132.67
608.66	1124.26
609.01	1115.71
609.36	1107.33
609.70	1098.69
610.05	1090.10
610.40	1081.49
610.75	1072.47
611.10	1064.02
611.44	1055.45
611.79	1047.04
612.14	1039.19
612.49	1031.54
612.83	1024.12
613.18	1016.70
613.53	1009.10
613.88	1001.21
614.22	993.50
614.57	985.54
614.92	977.74
615.27	970.43
615.61	962.63
615.96	954.87
616.31	947.44
616.65	940.38
617.00	933.17
617.35	925.94
617.70	919.00
618.04	912.09
618.39	905.11
618.74	898.78
619.08	892.18
619.43	885.18
619.78	878.21
620.12	871.06
620.47	863.81
620.82	856.53
621.16	849.63
621.51	843.13
621.85	836.78
622.20	830.10
622.55	823.25
622.89	817.01
623.24	810.73
623.59	804.40
623.93	797.98
624.28	792.10
624.62	786.46
624.97	780.68
625.32	774.83
625.66	768.97
626.01	762.76
626.35	757.24
626.70	751.60
627.04	746.36
627.39	740.85
627.73	735.50
628.08	730.39
628.43	724.94
628.77	719.47
629.12	714.15
629.46	709.24
629.81	704.55
630.15	699.53
630.50	694.73
630.84	689.80
631.19	684.99
631.53	680.24
631.88	674.82
632.22	669.92
632.57	665.30
632.91	660.76
633.26	656.33
633.60	651.61
633.95	647.05
634.29	642.19
634.64	637.69
634.98	633.01
635.32	628.51
635.67	624.61
636.01	620.45
636.36	616.14
636.70	612.10
637.05	607.88
637.39	603.93
637.73	599.80
638.08	595.79
638.42	591.64
638.77	587.19
639.11	582.86
639.45	578.53
639.80	574.24
640.14	570.13
640.49	566.09
640.83	562.20
641.17	558.47
641.52	554.74
641.86	551.23
642.20	548.09
642.55	544.54
642.89	540.77
643.23	537.32
643.58	534.23
643.92	530.53
644.26	527.11
644.61	523.84
644.95	520.38
645.29	516.95
645.64	513.68
645.98	510.59
646.32	507.83
646.66	504.80
647.01	501.85
647.35	499.17
647.69	496.14
648.04	493.38
648.38	490.62
648.72	487.79
649.06	484.70
649.41	481.53
649.75	478.45
650.09	475.73
650.43	472.84
650.78	469.73
651.12	466.92
651.46	464.14
651.80	461.19
652.14	458.60
652.49	456.11
652.83	453.67
653.17	451.09
653.51	448.36
653.85	445.95
654.20	443.40
654.54	440.71
654.88	438.30
655.22	435.97
655.56	433.48
655.90	431.05
656.25	428.84
656.59	426.63
656.93	424.71
657.27	422.50
657.61	420.09
657.95	418.01
658.29	415.83
658.64	413.77
658.98	411.64
659.32	409.24
659.66	407.00
660.00	404.85
660.34	402.86
660.68	400.80
661.02	398.65
661.36	396.75
661.70	394.76
662.05	392.87
662.39	390.92
662.73	389.17
663.07	387.59
663.41	385.69
663.75	383.75
664.09	381.78
664.43	379.83
664.77	378.20
665.11	376.40
665.45	374.75
665.79	373.19
666.13	371.46
666.47	369.92
666.81	368.40
667.15	366.61
667.49	365.03
667.83	363.73
668.17	362.25
668.51	360.70
668.85	359.34
669.19	358.05
669.53	356.52
669.87	355.00
670.21	353.40
670.55	351.97
670.89	350.79
671.23	349.45
671.57	348.16
671.91	346.75
672.25	345.36
672.58	344.16
672.92	342.60
673.26	341.35
673.60	340.03
673.94	338.74
674.28	337.63
674.62	336.50
674.96	335.23
675.30	334.17
675.64	333.05
675.97	331.76
676.31	330.36
676.65	329.12
676.99	328.10
677.33	326.93
677.67	325.94
678.01	324.73
678.34	323.69
678.68	322.77
679.02	321.72
679.36	320.72
679.70	319.62
680.04	318.67
680.37	317.68
680.71	316.83
681.05	315.99
681.39	315.17
681.73	314.17
682.06	313.20
682.40	312.35
682.74	311.58
683.08	310.89
683.42	310.04
683.75	309.24
684.09	308.20
684.43	307.41
684.77	306.49
685.10	305.70
685.44	304.82
685.78	303.84
686.12	303.07
686.45	302.26
686.79	301.47
687.13	300.80
687.46	300.09
687.80	299.41
688.14	298.47
688.48	297.78
688.81	297.00
689.15	296.47
689.49	295.73
689.82	295.00
690.16	294.10
690.50	293.43
690.83	292.76
691.17	292.06
691.51	291.45
691.84	290.86
692.18	290.15
692.52	289.55
692.85	288.97
693.19	288.55
693.52	287.92
693.86	287.21
694.20	286.58
694.53	285.92
694.87	285.24
695.21	284.67
695.54	283.98
695.88	283.31
696.21	282.50
696.55	281.85
696.88	281.13
697.22	280.56
697.56	280.16
697.89	279.51
698.23	279.11
698.56	278.46
698.90	277.97
699.23	277.43
699.57	276.84
699.90	276.27
700.24	275.65
700.58	275.25
700.91	274.94
701.25	274.82
701.58	274.64
701.92	274.24
702.25	273.76
702.59	273.22
702.92	272.88
703.26	272.46
703.59	272.01
703.93	272.02
704.26	271.68
704.60	271.12
704.93	270.65
705.26	270.09
705.60	269.72
705.93	269.17
706.27	268.87
706.60	268.61
706.94	268.44
707.27	268.01
707.61	267.62
707.94	267.17
708.27	266.39
708.61	265.65
708.94	265.25
709.28	264.91
709.61	264.55
709.94	264.25
710.28	263.84
710.61	263.50
710.95	262.65
711.28	262.60
711.61	262.20
711.95	262.00
712.28	261.64
712.61	261.31
712.95	261.23
713.28	261.12
713.61	260.72
713.95	260.22
714.28	259.89
714.61	259.52
714.95	259.13
715.28	258.78
715.61	258.50
715.95	258.18
716.28	257.81
716.61	257.49
716.95	257.11
717.28	256.87
717.61	256.55
717.94	256.25
718.28	255.62
718.61	255.36
718.94	255.05
719.27	254.83
719.61	254.55
719.94	254.17
720.27	253.61
720.60	253.36
720.94	253.13
721.27	252.90
721.60	252.75
721.93	252.59
722.27	252.58
722.60	252.40
722.93	252.11
723.26	251.92
723.59	251.75
723.93	251.59
724.26	251.41
724.59	251.20
724.92	251.05
725.25	250.94
725.59	250.76
725.92	250.58
726.25	250.38
726.58	250.24
726.91	250.02
727.24	249.97
727.57	249.76
727.91	249.51
728.24	249.40
728.57	249.09
728.90	248.91
729.23	248.56
729.56	248.62
729.89	248.49
730.22	248.28
730.55	248.08
730.89	247.92
731.22	247.67
731.55	247.45
731.88	247.31
732.21	247.07
732.54	246.87
732.87	246.62
733.20	246.52
733.53	246.30
733.86	246.17
734.19	245.87
734.52	245.82
734.85	246.03
735.18	245.75
735.51	245.85
735.84	245.71
736.17	245.68
736.50	245.23
736.83	245.63
737.16	245.52
737.49	245.35
737.82	245.21
738.15	245.17
738.48	245.07
738.81	244.94
739.14	244.77
739.47	244.64
739.80	244.57
740.13	244.41
740.46	244.22
740.79	244.02
741.12	243.92
741.45	243.58
741.78	243.08
742.11	243.13
742.44	242.79
742.77	242.71
743.10	242.50
743.43	242.47
743.75	241.73
744.08	242.23
744.41	242.11
744.74	241.90
745.07	241.68
745.40	241.65
745.73	241.65
746.06	241.49
746.39	241.32
746.71	241.08
747.04	240.92
747.37	240.83
747.70	240.86
748.03	240.71
748.36	240.65
748.68	240.54
749.01	240.30
749.34	240.18
749.67	240.10
750.00	240.06
750.33	240.22
750.65	240.23
750.98	239.47
751.31	239.31
751.64	239.16
751.97	239.32
752.29	239.20
752.62	238.90
752.95	238.79
753.28	238.59
753.60	238.46
753.93	238.48
754.26	238.33
754.59	238.04
754.91	237.85
755.24	237.78
755.57	237.70
755.90	237.50
756.22	237.42
756.55	237.21
756.88	236.96
757.20	236.60
757.53	236.25
757.86	236.18
758.19	236.15
758.51	236.12
758.84	235.77
759.17	235.59
759.49	235.52
759.82	235.67
760.15	235.75
760.47	235.65
760.80	235.40
761.13	235.40
761.45	235.20
761.78	235.15
762.11	235.07
762.43	234.90
762.76	234.87
763.08	234.84
763.41	234.76
763.74	234.71
764.06	234.57
764.39	234.64
764.71	234.56
765.04	234.49
765.37	234.35
765.69	234.29
766.02	234.15
766.34	233.98
766.67	233.72
767.00	233.69
767.32	233.90
767.65	234.14
767.97	234.01
768.30	234.00
768.62	234.03
768.95	233.88
769.27	233.85
769.60	233.80
769.92	233.64
770.25	233.48
770.57	233.32
770.90	233.30
771.22	233.18
771.55	233.06
771.87	232.96
772.20	232.88
772.52	233.23
772.85	233.80
773.17	233.75
773.50	233.68
773.82	233.49
774.15	233.17
774.47	232.84
774.80	232.77
775.12	232.72
775.45	232.66
775.77	232.64
776.09	232.58
776.42	232.55
776.74	232.60
777.07	232.52
777.39	232.50
777.72	232.40
778.04	232.39
778.36	232.39
778.69	232.41
779.01	232.36
779.33	231.87
779.66	231.20
779.98	231.20
780.31	231.16
780.63	231.37
780.95	231.49
781.28	231.38
781.60	231.28
781.92	231.27
782.25	231.16
782.57	231.12
782.89	231.11
783.22	231.03
783.54	230.89
783.86	230.91
784.19	230.84
784.51	230.91
784.83	230.84
785.16	230.72
785.48	230.68
785.80	230.65
786.12	230.59
786.45	230.59
786.77	230.65
787.09	230.64
787.42	230.40
787.74	230.34
788.06	230.31
788.38	230.29
788.71	230.18
789.03	230.15
789.35	230.14
789.67	230.04
789.99	230.01
790.32	229.94
790.64	230.00
790.96	230.40
791.28	230.22
791.61	230.14
791.93	230.17
792.25	230.12
792.57	230.48
792.89	230.40
793.21	230.43
793.54	230.25
793.86	230.13
794.18	230.14
794.50	230.01
794.82	230.00
795.14	230.05
795.47	230.10
795.79	230.10
796.11	230.05
796.43	230.00
796.75	230.01
797.07	230.01
797.39	229.96
797.71	229.57
798.04	229.63
798.36	229.66
798.68	229.59
799.00	229.59
799.32	229.36
799.64	229.44
799.96	229.40
800.28	229.47
800.60	229.43
800.92	229.50
801.24	229.44
801.56	229.48
801.89	229.35
802.21	229.41
802.53	229.39
802.85	229.48
803.17	229.70
803.49	229.55
803.81	229.48
804.13	229.41
804.45	229.33
804.77	229.32
805.09	229.29
805.41	229.23
805.73	229.14
806.05	228.98
806.37	228.99
806.69	228.86
807.01	228.82
807.33	228.85
807.65	228.61
807.97	228.86
808.28	228.86
808.60	228.86
808.92	228.74
809.24	228.93
809.56	228.76
809.88	228.59
810.20	228.62
810.52	228.81
810.84	228.80
811.16	228.78
811.48	228.66
811.80	228.80
812.12	228.86
812.43	228.96
812.75	228.95
813.07	228.84
813.39	228.99
813.71	228.95
814.03	228.88
814.35	228.93
814.67	228.70
814.98	228.58
815.30	228.53
815.62	228.48
815.94	228.20
816.26	228.49
816.58	228.39
816.89	228.44
817.21	228.25
817.53	228.20
817.85	228.17
818.17	228.20
818.48	228.00
818.80	228.01
819.12	227.92
819.44	227.79
819.76	227.71
820.07	227.66
820.39	227.65
820.71	227.71
821.03	227.76
821.34	227.74
821.66	227.82
821.98	227.95
822.30	227.90
822.61	228.18
822.93	227.84
823.25	227.85
823.57	227.82
823.88	227.91
824.20	227.95
824.52	228.06
824.83	228.10
825.15	228.03
825.47	227.99
825.79	227.96
826.10	227.98
826.42	227.96
826.74	227.96
827.05	227.88
827.37	227.86
827.69	227.76
828.00	227.74
828.32	227.71
828.64	227.58
828.95	227.87
829.27	227.64
829.58	227.70
829.90	227.79
830.22	227.76
830.53	227.64
830.85	227.55
831.17	227.43
831.48	227.41
831.80	227.45
832.11	227.46
832.43	227.38
832.75	227.35
833.06	227.65
833.38	227.49
833.69	227.50
834.01	227.55
834.32	227.56
834.64	227.51
834.96	227.55
835.27	227.58
835.59	227.43
835.90	227.49
836.22	227.47
836.53	227.33
836.85	227.31
837.16	227.74
837.48	227.75
837.79	227.87
838.11	227.88
838.42	227.89
838.74	227.90
839.05	227.89
839.37	227.90
839.68	227.60
840.00	227.60
840.31	227.64
840.63	227.50
840.94	227.45
841.26	227.45
841.57	227.42
841.88	227.47
842.20	227.34
842.51	227.19
842.83	227.16
843.14	227.60
843.46	227.64
843.77	227.49
844.08	227.56
844.40	227.42
844.71	227.36
845.03	227.34
845.34	227.32
845.65	227.29
845.97	227.38
846.28	227.42
846.60	227.49
846.91	227.49
847.22	227.57
847.54	227.64
847.85	227.66
848.16	227.62
848.48	227.47
848.79	227.75
849.10	227.85
849.42	227.89
849.73	227.44
850.04	227.43
850.36	227.25
850.67	227.22
850.98	227.22
851.30	227.25
851.61	227.21
851.92	227.26
852.23	227.39
852.55	227.35
852.86	227.34
853.17	227.44
853.49	227.50
853.80	227.58
854.11	227.62
854.42	227.69
854.74	227.65
855.05	227.67
855.36	227.36
855.67	227.32
855.99	227.26
856.30	227.86
856.61	227.80
856.92	227.72
857.23	227.68
857.55	227.66
857.86	227.59
858.17	227.72
858.48	227.64
858.79	227.56
859.11	227.60
859.42	227.59
859.73	227.48
860.04	227.40
860.35	227.29
860.66	227.15
860.98	227.16
861.29	227.24
861.60	227.24
861.91	227.38
862.22	227.34
862.53	227.35
862.84	226.75
863.16	226.87
863.47	226.82
863.78	226.85
864.09	226.85
864.40	226.90
864.71	226.91
865.02	226.97
865.33	226.89
865.64	226.83
865.95	226.85
866.27	227.09
866.58	227.10
866.89	227.13
867.20	227.09
867.51	227.04
867.82	226.95
868.13	227.08
868.44	227.00
868.75	227.07
869.06	227.02
869.37	227.09
869.68	226.95
869.99	227.01
870.30	227.05
870.61	227.07
870.92	226.98
871.23	226.88
871.54	226.92
871.85	227.06
872.16	227.07
872.47	226.99
872.78	226.77
873.09	226.84
873.40	226.78
873.71	226.88
874.02	226.86
874.33	226.79
874.64	226.67
874.95	226.74
875.26	226.61
875.56	226.59
875.87	226.54
876.18	226.50
876.49	227.04
876.80	226.91
877.11	226.86
877.42	226.93
877.73	226.93
878.04	226.83
878.35	226.78
878.66	226.85
878.96	226.88
879.27	226.83
879.58	226.75
879.89	226.72
880.20	226.81
880.51	226.74
880.82	226.82
881.12	226.85
881.43	226.72
881.74	226.66
882.05	226.70
882.36	226.80
882.67	226.92
882.97	226.35
883.28	226.40
883.59	226.41
883.90	226.45
884.21	226.58
884.51	226.57
884.82	226.54
885.13	226.51
885.44	226.50
885.74	226.53
886.05	226.53
886.36	226.52
886.67	226.42
886.98	226.67
887.28	226.75
887.59	226.78
887.90	226.83
888.20	226.89
888.51	227.00
888.82	226.92
889.13	226.93
889.43	227.40
889.74	227.31
890.05	227.26
890.35	227.18
890.66	227.08
890.97	227.08
891.28	227.01
891.58	227.00
891.89	227.03
892.20	227.04
892.50	226.97
892.81	226.96
893.12	226.93
893.42	226.72
893.73	226.69
894.04	226.67
894.34	226.74
894.65	226.74
894.95	226.64
895.26	226.67
895.57	226.86
895.87	226.38
896.18	226.55
896.48	226.58
896.79	226.58
897.10	226.60
897.40	226.66
897.71	226.73
898.01	226.67
898.32	226.76
898.63	226.76
898.93	226.87
899.24	226.90
899.54	226.90
899.85	226.92
900.15	226.90
900.46	226.94
900.76	227.00
901.07	226.95
901.38	226.94
901.68	226.98
901.99	226.74
902.29	226.76
902.60	226.71
902.90	226.70
903.21	226.75
903.51	226.75
903.82	226.79
904.12	226.77
904.43	226.81
904.73	226.77
905.03	226.70
905.34	227.14
905.64	227.12
905.95	227.14
906.25	227.04
906.56	227.01
906.86	226.95
907.17	226.88
907.47	226.93
907.77	226.85
908.08	226.70
908.38	226.77
908.69	226.80
908.99	226.78
909.30	226.78
909.60	226.77
909.90	226.85
910.21	226.66
910.51	226.62
910.81	226.65
911.12	226.64
911.42	226.73
911.73	226.21
912.03	226.21
912.33	226.24
912.64	226.24
912.94	226.17
913.24	226.07
913.55	225.99
913.85	225.93
914.15	226.09
914.46	226.15
914.76	225.98
915.06	225.89
915.37	225.81
915.67	225.77
915.97	225.75
916.27	225.61
916.58	225.67
916.88	225.70
917.18	225.60
917.49	225.87
917.79	225.80
918.09	225.87
918.39	225.95
918.70	225.90
919.00	225.94
919.30	226.16
919.60	226.15
919.91	226.13
920.21	226.22
920.51	226.11
920.81	226.08
921.12	226.24
921.42	226.22
921.72	226.30
922.02	226.37
922.32	226.44
922.63	226.45
922.93	226.66
923.23	226.70
923.53	226.69
923.83	226.40
924.13	226.45
924.44	226.44
924.74	226.52
925.04	226.65
925.34	226.66
925.64	226.50
925.94	226.58
926.24	226.89
926.55	226.80
926.85	226.88
927.15	226.89
927.45	226.90
927.75	226.97
928.05	227.00
928.35	226.94
928.65	227.03
928.95	227.04
929.26	226.91
929.56	226.99
929.86	227.08
930.16	227.07
930.46	227.06
930.76	227.09
931.06	226.89
931.36	226.83
931.66	226.90
931.96	226.95
932.26	226.91
932.56	226.67
932.86	226.65
933.16	226.61
933.46	226.59
933.76	226.51
934.06	226.64
934.36	226.70
934.66	226.70
934.96	226.60
935.26	226.65
935.56	226.65
935.86	226.51
936.16	226.43
936.46	226.37
936.76	226.34
937.06	226.24
937.36	226.35
937.66	226.35
937.96	226.29
938.26	226.18
938.56	226.18
938.86	226.27
939.16	226.40
939.46	226.46
939.76	226.49
940.06	226.52
940.35	226.40
940.65	226.25
940.95	226.28
941.25	226.19
941.55	226.09
941.85	226.09
942.15	226.18
942.45	226.31
942.75	226.30
943.04	226.33
943.34	226.44
943.64	226.35
943.94	226.28
944.24	226.29
944.54	226.33
944.84	226.30
945.13	226.21
945.43	226.15
945.73	226.11
946.03	226.08
946.33	226.01
946.62	225.99
946.92	225.97
947.22	225.95
947.52	225.98
947.82	226.08
948.11	226.05
948.41	225.94
948.71	225.85
949.01	225.96
949.31	225.87
949.60	225.76
949.90	225.80
950.20	225.75
950.50	225.73
950.79	225.66
951.09	225.74
951.39	225.65
951.69	225.58
951.98	225.63
952.28	225.62
952.58	225.63
952.87	225.65
953.17	225.76
953.47	225.74
953.76	225.65
954.06	225.50
954.36	225.39
954.66	225.38
954.95	225.48
955.25	225.52
955.55	225.65
955.84	225.60
956.14	225.73
956.44	225.76
956.73	225.75
957.03	225.77
957.32	225.85
957.62	225.86
957.92	226.03
958.21	226.01
958.51	226.55
958.81	226.60
959.10	226.67
959.40	226.73
959.69	226.80
959.99	226.92
960.29	227.00
960.58	227.00
960.88	227.25
961.17	227.19
961.47	227.15
961.76	227.08
962.06	227.20
962.36	227.06
962.65	227.13
962.95	227.10
963.24	227.10
963.54	227.05
963.83	227.12
964.13	227.05
964.42	226.96
964.72	226.57
965.01	226.59
965.31	226.49
965.60	226.38
965.90	226.69
966.19	226.62
966.49	226.60
966.78	226.67
967.08	226.55
967.37	226.53
967.67	226.49
967.96	226.60
968.26	226.54
968.55	226.61
968.85	226.58
969.14	226.57
969.43	226.66
969.73	226.57
970.02	226.47
970.32	226.44
970.61	226.37
970.91	226.30
971.20	226.14
971.49	226.10
971.79	226.18
972.08	225.75
972.38	225.80
972.67	225.81
972.96	225.82
973.26	225.72
973.55	225.84
973.85	225.74
974.14	225.64
974.43	225.73
974.73	225.68
975.02	225.60
975.31	225.68
975.61	225.71
975.90	225.67
976.19	225.72
976.49	225.74
976.78	225.81
977.07	225.74
977.37	225.84
977.66	225.90
977.95	225.81
978.24	225.93
978.54	226.05
978.83	226.01
979.12	226.00
979.42	226.05
979.71	226.01
980.00	226.11
980.29	226.13
980.59	225.99
980.88	226.08
981.17	226.09
981.46	226.05
981.76	225.90
982.05	226.03
982.34	226.08
982.63	226.10
982.93	226.11
983.22	226.26
983.51	226.26
983.80	226.35
984.09	226.39
984.39	226.36
984.68	226.24
984.97	226.26
985.26	226.28
985.55	226.30
985.85	226.26
986.14	226.28
986.43	226.38
986.72	226.41
987.01	226.27
987.30	226.31
987.59	226.36
987.89	226.48
988.18	226.38
988.47	226.31
988.76	226.29
989.05	226.28
989.34	226.27
989.63	226.40
989.92	226.37
990.22	226.36
990.51	226.38
990.80	226.38
991.09	226.45
991.38	226.46
991.67	226.40
991.96	226.30
992.25	226.32
992.54	226.22
992.83	226.18
993.12	226.21
993.41	226.29
993.70	226.43
993.99	226.55
994.28	226.60
994.58	226.66
994.87	226.64
995.16	226.64
995.45	226.57
995.74	226.45
996.03	226.41
996.32	226.42
996.61	226.47
996.90	226.49
997.19	226.40
997.48	226.43
997.77	226.42
998.06	226.53
998.34	226.49
998.63	226.49
998.92	226.56
999.21	226.61
999.50	226.54
999.79	226.40
1000.08	226.30
1000.37	226.35
1000.66	226.30
1000.95	226.42
1001.24	226.46
1001.53	226.43
1001.82	226.38
1002.11	226.33
1002.40	226.40
1002.68	226.55
1002.97	226.90
1003.26	226.85
1003.55	226.80
1003.84	226.83
1004.13	226.92
1004.42	226.93
1004.71	226.93
1004.99	226.88
1005.28	227.01
1005.57	227.02
1005.86	227.01
1006.15	227.05
1006.44	226.94
1006.72	227.07
1007.01	226.98
1007.30	226.99
1007.59	226.98
1007.88	227.00
1008.17	227.08
1008.45	227.01
1008.74	226.80
1009.03	226.58
1009.32	226.64
1009.60	226.56
1009.89	226.51
1010.18	226.32
1010.47	226.25
1010.76	226.25
1011.04	226.27
1011.33	226.29
1011.62	226.32
1011.91	226.35
1012.19	226.31
1012.48	226.28
1012.77	226.26
1013.05	226.43
1013.34	226.43
1013.63	226.44
1013.92	226.44
1014.20	226.32
1014.49	226.31
1014.78	226.34
1015.06	226.10
1015.35	226.12
1015.64	226.23
1015.92	226.29
1016.21	226.33
1016.50	226.35
1016.78	226.43
1017.07	226.40
1017.36	226.27
1017.64	226.13
1017.93	226.16
1018.22	226.08
1018.50	226.06
1018.79	225.95
1019.08	225.71
1019.36	225.70
1019.65	225.64
1019.93	225.80
1020.22	225.92
1020.51	226.14
1020.79	226.07
1021.08	225.10
1021.36	223.90
1021.65	225.50
1021.94	224.85
1022.22	225.95
1022.51	225.25
1022.79	228.60
1023.08	227.40
1023.36	231.00
1023.65	224.95
>>>>>End Processed Spectral Data<<<<<
