SpectraSuite Data File
++++++++++++++++++++++++++++++++++++
Date: Wed Sep 04 17:55:35 EDT 2013
User: lab3
Dark Spectrum Present: Yes
Reference Spectrum Present: No
Number of Sampled Component Spectra: 1
Spectrometers: USB2E7196
Integration Time (usec): 170000 (USB2E7196)
Spectra Averaged: 20 (USB2E7196)
Boxcar Smoothing: 10 (USB2E7196)
Correct for Electrical Dark: No (USB2E7196)
Strobe/Lamp Enabled: No (USB2E7196)
Correct for Detector Non-linearity: No (USB2E7196)
Correct for Stray Light: No (USB2E7196)
Number of Pixels in Processed Spectrum: 2048
>>>>>Begin Processed Spectral Data<<<<<
339.09	0.00
339.48	213.20
339.86	213.20
340.24	215.20
340.63	219.05
341.01	226.05
341.39	219.50
341.78	222.50
342.16	223.60
342.54	221.75
342.93	212.40
343.31	223.10
343.69	223.60
344.07	224.21
344.46	224.73
344.84	225.10
345.22	225.12
345.60	225.36
345.99	225.53
346.37	225.61
346.75	225.78
347.13	225.93
347.52	226.11
347.90	226.38
348.28	226.37
348.66	226.40
349.05	226.31
349.43	226.46
349.81	226.47
350.19	226.47
350.57	226.57
350.96	226.68
351.34	226.79
351.72	226.91
352.10	226.97
352.48	226.99
352.87	226.97
353.25	227.00
353.63	227.12
354.01	227.17
354.39	227.29
354.77	227.35
355.15	227.53
355.54	227.52
355.92	227.38
356.30	227.43
356.68	227.78
357.06	227.85
357.44	227.85
357.82	227.88
358.20	228.31
358.58	228.27
358.97	228.33
359.35	228.45
359.73	228.59
360.11	228.59
360.49	228.67
360.87	228.77
361.25	228.91
361.63	229.09
362.01	229.20
362.39	229.19
362.77	229.35
363.15	229.27
363.53	229.30
363.91	229.38
364.29	229.45
364.67	229.08
365.05	229.11
365.43	229.16
365.81	229.26
366.19	229.15
366.57	229.41
366.95	229.35
367.33	229.28
367.71	229.31
368.09	229.44
368.47	229.45
368.85	229.38
369.23	229.40
369.61	229.28
369.99	229.46
370.37	229.55
370.75	229.73
371.13	229.70
371.51	229.60
371.89	229.57
372.27	229.63
372.65	229.67
373.03	229.72
373.41	229.64
373.78	229.55
374.16	229.30
374.54	229.06
374.92	229.02
375.30	228.97
375.68	228.83
376.06	228.73
376.44	228.68
376.82	228.70
377.19	228.72
377.57	228.60
377.95	228.30
378.33	228.21
378.71	227.80
379.09	227.71
379.47	227.61
379.84	227.50
380.22	227.30
380.60	227.07
380.98	226.96
381.36	226.92
381.73	226.77
382.11	226.79
382.49	226.76
382.87	226.65
383.25	226.56
383.62	227.05
384.00	226.87
384.38	226.70
384.76	226.74
385.13	226.72
385.51	226.65
385.89	226.54
386.27	226.47
386.64	226.51
387.02	226.42
387.40	226.44
387.78	226.42
388.15	226.44
388.53	226.37
388.91	226.26
389.29	226.20
389.66	226.24
390.04	226.12
390.42	226.12
390.79	226.11
391.17	226.11
391.55	225.52
391.92	225.53
392.30	225.59
392.68	225.49
393.05	225.51
393.43	225.53
393.81	225.51
394.18	225.42
394.56	225.39
394.94	225.49
395.31	225.41
395.69	225.63
396.06	225.69
396.44	225.81
396.82	225.84
397.19	226.11
397.57	226.13
397.95	226.21
398.32	226.20
398.70	226.34
399.07	226.50
399.45	226.63
399.82	226.72
400.20	226.84
400.58	226.92
400.95	226.84
401.33	227.07
401.70	227.55
402.08	227.67
402.45	227.89
402.83	228.18
403.20	228.34
403.58	228.45
403.95	228.69
404.33	228.94
404.71	229.20
405.08	229.63
405.46	229.87
405.83	230.22
406.21	230.49
406.58	230.79
406.96	231.04
407.33	231.35
407.70	231.83
408.08	232.52
408.45	232.93
408.83	233.36
409.20	233.71
409.58	233.83
409.95	234.48
410.33	235.03
410.70	235.36
411.08	236.03
411.45	236.57
411.82	237.13
412.20	237.92
412.57	238.91
412.95	239.27
413.32	240.16
413.69	240.95
414.07	241.80
414.44	242.79
414.82	243.82
415.19	245.10
415.56	246.21
415.94	247.23
416.31	248.69
416.68	250.16
417.06	251.80
417.43	253.51
417.81	255.31
418.18	257.09
418.55	259.08
418.93	261.06
419.30	263.19
419.67	265.51
420.04	267.68
420.42	269.98
420.79	273.01
421.16	275.88
421.54	278.91
421.91	282.04
422.28	285.06
422.66	288.40
423.03	291.80
423.40	295.20
423.77	298.80
424.15	302.42
424.52	306.21
424.89	310.48
425.26	314.43
425.64	318.16
426.01	322.25
426.38	326.72
426.75	331.29
427.13	335.82
427.50	340.54
427.87	345.60
428.24	350.51
428.61	354.99
428.99	360.20
429.36	365.66
429.73	371.11
430.10	376.62
430.47	382.33
430.85	387.91
431.22	394.08
431.59	400.80
431.96	407.03
432.33	413.84
432.70	420.39
433.08	428.33
433.45	435.82
433.82	443.28
434.19	451.52
434.56	459.60
434.93	467.42
435.30	475.16
435.68	483.79
436.05	492.08
436.42	500.62
436.79	508.29
437.16	516.77
437.53	525.52
437.90	534.44
438.27	542.94
438.64	551.98
439.01	560.33
439.38	567.58
439.75	574.60
440.13	582.78
440.50	590.42
440.87	596.35
441.24	602.73
441.61	609.63
441.98	614.72
442.35	620.61
442.72	626.49
443.09	632.33
443.46	635.68
443.83	638.23
444.20	640.03
444.57	642.81
444.94	643.84
445.31	644.97
445.68	646.14
446.05	646.30
446.42	645.00
446.79	643.56
447.16	642.02
447.53	640.88
447.90	637.17
448.27	633.38
448.64	628.62
449.01	624.86
449.37	618.85
449.74	612.67
450.11	605.78
450.48	598.03
450.85	590.06
451.22	583.03
451.59	576.42
451.96	570.12
452.33	562.01
452.70	554.70
453.07	546.05
453.43	537.00
453.80	528.55
454.17	520.45
454.54	512.70
454.91	504.41
455.28	496.40
455.65	488.96
456.02	482.17
456.38	475.80
456.75	467.98
457.12	461.42
457.49	455.18
457.86	448.85
458.23	443.76
458.59	438.02
458.96	432.34
459.33	427.17
459.70	422.05
460.07	417.85
460.43	413.04
460.80	408.77
461.17	404.97
461.54	401.10
461.91	397.31
462.27	393.41
462.64	390.12
463.01	386.55
463.38	383.13
463.74	379.07
464.11	375.98
464.48	373.42
464.85	370.46
465.21	368.28
465.58	365.87
465.95	363.01
466.32	360.77
466.68	358.46
467.05	356.28
467.42	354.08
467.78	351.72
468.15	349.65
468.52	348.06
468.88	345.89
469.25	343.95
469.62	342.51
469.98	340.87
470.35	339.38
470.72	337.90
471.08	336.22
471.45	334.96
471.82	333.71
472.18	332.25
472.55	331.33
472.92	330.05
473.28	328.92
473.65	327.77
474.02	326.65
474.38	325.86
474.75	325.09
475.11	324.25
475.48	323.66
475.85	322.95
476.21	322.25
476.58	321.78
476.94	321.32
477.31	320.75
477.67	320.37
478.04	320.11
478.41	319.96
478.77	320.21
479.14	319.94
479.50	319.93
479.87	319.92
480.23	319.91
480.60	319.84
480.96	319.92
481.33	320.37
481.69	320.55
482.06	320.79
482.42	321.09
482.79	321.43
483.15	321.84
483.52	322.54
483.88	323.10
484.25	323.69
484.61	324.39
484.98	325.07
485.34	326.02
485.71	326.85
486.07	327.83
486.44	328.51
486.80	329.62
487.17	330.68
487.53	332.09
487.90	333.55
488.26	335.28
488.62	336.97
488.99	338.44
489.35	340.29
489.72	342.23
490.08	344.08
490.44	346.07
490.81	348.37
491.17	350.59
491.54	353.00
491.90	355.45
492.26	358.10
492.63	360.95
492.99	363.88
493.36	367.04
493.72	370.42
494.08	373.86
494.45	377.56
494.81	381.63
495.17	385.60
495.54	389.76
495.90	394.01
496.26	398.37
496.63	403.14
496.99	407.88
497.35	412.84
497.72	418.24
498.08	423.88
498.44	429.57
498.80	435.58
499.17	441.60
499.53	447.92
499.89	454.53
500.26	461.45
500.62	468.38
500.98	475.72
501.34	483.09
501.71	490.79
502.07	498.53
502.43	506.55
502.79	514.80
503.16	523.40
503.52	532.33
503.88	541.66
504.24	551.43
504.60	561.50
504.97	571.80
505.33	582.06
505.69	592.95
506.05	603.99
506.41	615.30
506.78	627.05
507.14	639.08
507.50	651.35
507.86	663.75
508.22	676.90
508.59	689.94
508.95	703.43
509.31	717.73
509.67	732.23
510.03	746.25
510.39	761.06
510.75	775.96
511.12	791.27
511.48	807.03
511.84	822.70
512.20	838.75
512.56	855.15
512.92	872.03
513.28	888.92
513.64	906.28
514.00	923.75
514.37	941.44
514.73	959.61
515.09	977.83
515.45	996.35
515.81	1014.55
516.17	1033.62
516.53	1052.48
516.89	1071.01
517.25	1090.21
517.61	1110.63
517.97	1131.08
518.33	1151.30
518.69	1171.41
519.05	1192.09
519.41	1212.65
519.77	1233.55
520.13	1254.35
520.49	1275.06
520.85	1297.50
521.21	1318.51
521.57	1339.80
521.93	1360.51
522.29	1381.69
522.65	1402.40
523.01	1423.27
523.37	1444.17
523.73	1464.85
524.09	1485.35
524.45	1506.23
524.81	1527.35
525.17	1548.07
525.53	1568.30
525.89	1589.05
526.25	1610.10
526.61	1630.17
526.97	1651.11
527.33	1672.45
527.68	1694.07
528.04	1715.41
528.40	1734.77
528.76	1755.82
529.12	1776.21
529.48	1797.13
529.84	1817.18
530.20	1838.25
530.56	1858.83
530.91	1879.86
531.27	1900.64
531.63	1921.17
531.99	1941.56
532.35	1961.75
532.71	1981.75
533.07	2002.57
533.42	2022.60
533.78	2042.62
534.14	2062.47
534.50	2081.64
534.86	2100.81
535.21	2118.45
535.57	2136.85
535.93	2154.92
536.29	2172.47
536.65	2190.40
537.00	2207.92
537.36	2225.47
537.72	2242.15
538.08	2259.51
538.44	2275.86
538.79	2292.02
539.15	2308.81
539.51	2324.84
539.87	2339.54
540.22	2353.65
540.58	2367.94
540.94	2381.13
541.29	2393.53
541.65	2406.13
542.01	2418.52
542.37	2428.81
542.72	2439.88
543.08	2450.53
543.44	2461.95
543.79	2472.30
544.15	2482.28
544.51	2492.30
544.87	2501.80
545.22	2510.55
545.58	2518.35
545.94	2525.03
546.29	2531.49
546.65	2537.48
547.01	2543.14
547.36	2548.61
547.72	2554.12
548.07	2558.28
548.43	2563.54
548.79	2568.26
549.14	2572.46
549.50	2576.35
549.86	2580.70
550.21	2584.06
550.57	2587.03
550.92	2588.36
551.28	2589.27
551.64	2591.75
551.99	2593.62
552.35	2595.46
552.70	2597.64
553.06	2599.20
553.41	2601.10
553.77	2602.81
554.13	2604.38
554.48	2605.82
554.84	2607.29
555.19	2608.45
555.55	2610.06
555.90	2609.47
556.26	2608.78
556.61	2607.08
556.97	2604.69
557.32	2603.91
557.68	2603.10
558.03	2601.75
558.39	2600.37
558.74	2599.99
559.10	2596.89
559.45	2593.20
559.81	2588.38
560.16	2582.82
560.52	2578.13
560.87	2573.67
561.23	2568.25
561.58	2562.55
561.94	2555.72
562.29	2548.36
562.64	2541.34
563.00	2532.96
563.35	2526.30
563.71	2519.35
564.06	2513.32
564.42	2507.14
564.77	2500.02
565.12	2492.44
565.48	2485.02
565.83	2477.23
566.19	2469.12
566.54	2461.18
566.89	2453.29
567.25	2445.76
567.60	2438.71
567.96	2430.93
568.31	2422.85
568.66	2414.35
569.02	2405.13
569.37	2396.90
569.72	2389.43
570.08	2379.97
570.43	2370.37
570.78	2361.50
571.14	2352.16
571.49	2341.69
571.84	2331.98
572.20	2321.17
572.55	2311.40
572.90	2300.49
573.26	2289.98
573.61	2278.93
573.96	2267.46
574.31	2255.46
574.67	2243.74
575.02	2231.11
575.37	2218.48
575.72	2205.45
576.08	2193.31
576.43	2180.80
576.78	2167.62
577.13	2153.63
577.49	2141.20
577.84	2129.58
578.19	2117.24
578.54	2104.46
578.90	2092.53
579.25	2080.12
579.60	2067.73
579.95	2054.35
580.30	2041.29
580.66	2028.00
581.01	2014.38
581.36	2000.63
581.71	1988.08
582.06	1975.12
582.42	1962.74
582.77	1950.10
583.12	1938.24
583.47	1925.68
583.82	1913.75
584.17	1901.80
584.53	1890.20
584.88	1877.26
585.23	1864.20
585.58	1850.05
585.93	1837.16
586.28	1823.91
586.63	1809.85
586.98	1795.62
587.34	1782.43
587.69	1769.07
588.04	1756.57
588.39	1744.34
588.74	1732.31
589.09	1720.19
589.44	1707.62
589.79	1695.18
590.14	1683.07
590.49	1670.69
590.84	1659.03
591.19	1646.95
591.54	1634.60
591.89	1622.35
592.25	1612.40
592.60	1600.55
592.95	1589.32
593.30	1577.11
593.65	1565.00
594.00	1553.38
594.35	1543.43
594.70	1531.60
595.05	1520.16
595.40	1507.97
595.75	1495.96
596.10	1484.77
596.45	1473.26
596.80	1462.35
597.15	1451.07
597.50	1439.40
597.85	1428.05
598.19	1416.16
598.54	1404.63
598.89	1393.48
599.24	1382.85
599.59	1370.80
599.94	1360.15
600.29	1349.59
600.64	1339.37
600.99	1328.93
601.34	1319.41
601.69	1308.33
602.04	1298.49
602.39	1288.91
602.74	1279.80
603.08	1270.53
603.43	1261.15
603.78	1251.39
604.13	1241.54
604.48	1231.86
604.83	1222.25
605.18	1212.42
605.53	1203.08
605.87	1194.08
606.22	1185.69
606.57	1176.57
606.92	1167.10
607.27	1158.21
607.62	1149.60
607.96	1141.12
608.31	1133.13
608.66	1124.51
609.01	1116.08
609.36	1107.52
609.70	1098.90
610.05	1090.16
610.40	1081.68
610.75	1072.78
611.10	1064.54
611.44	1056.20
611.79	1047.97
612.14	1040.18
612.49	1032.25
612.83	1024.59
613.18	1016.60
613.53	1008.76
613.88	1000.75
614.22	993.23
614.57	985.11
614.92	977.15
615.27	969.65
615.61	961.82
615.96	954.28
616.31	946.57
616.65	939.55
617.00	932.35
617.35	925.18
617.70	918.00
618.04	910.94
618.39	904.04
618.74	897.53
619.08	890.70
619.43	883.49
619.78	876.72
620.12	869.52
620.47	862.89
620.82	855.60
621.16	848.90
621.51	842.55
621.85	836.35
622.20	829.83
622.55	823.13
622.89	816.86
623.24	810.42
623.59	804.25
623.93	797.78
624.28	791.60
624.62	786.00
624.97	780.24
625.32	774.56
625.66	768.37
626.01	762.16
626.35	756.64
626.70	751.33
627.04	745.99
627.39	740.57
627.73	735.02
628.08	729.88
628.43	724.47
628.77	719.05
629.12	713.78
629.46	708.88
629.81	704.10
630.15	699.18
630.50	694.43
630.84	689.70
631.19	684.98
631.53	680.33
631.88	675.21
632.22	670.41
632.57	665.83
632.91	661.34
633.26	657.07
633.60	652.60
633.95	647.87
634.29	642.96
634.64	638.50
634.98	633.80
635.32	629.54
635.67	625.61
636.01	621.32
636.36	616.96
636.70	612.81
637.05	608.71
637.39	604.53
637.73	600.30
638.08	596.08
638.42	592.00
638.77	587.66
639.11	583.18
639.45	578.74
639.80	574.47
640.14	570.43
640.49	566.36
640.83	562.35
641.17	558.63
641.52	554.99
641.86	551.48
642.20	548.35
642.55	544.68
642.89	540.89
643.23	537.52
643.58	534.39
643.92	530.77
644.26	527.27
644.61	524.05
644.95	520.67
645.29	517.40
645.64	514.17
645.98	511.15
646.32	508.26
646.66	505.21
647.01	502.14
647.35	499.30
647.69	496.33
648.04	493.57
648.38	490.72
648.72	487.81
649.06	484.74
649.41	481.62
649.75	478.55
650.09	475.60
650.43	472.64
650.78	469.60
651.12	466.81
651.46	464.05
651.80	461.17
652.14	458.49
652.49	455.94
652.83	453.32
653.17	450.60
653.51	447.92
653.85	445.64
654.20	443.16
654.54	440.53
654.88	438.09
655.22	435.75
655.56	433.37
655.90	431.00
656.25	428.66
656.59	426.39
656.93	424.22
657.27	422.28
657.61	419.90
657.95	417.58
658.29	415.34
658.64	413.25
658.98	411.09
659.32	408.85
659.66	406.63
660.00	404.53
660.34	402.54
660.68	400.58
661.02	398.44
661.36	396.42
661.70	394.46
662.05	392.44
662.39	390.53
662.73	388.69
663.07	387.05
663.41	385.23
663.75	383.31
664.09	381.54
664.43	379.52
664.77	377.80
665.11	376.21
665.45	374.48
665.79	372.82
666.13	371.16
666.47	369.47
666.81	367.78
667.15	366.15
667.49	364.60
667.83	363.26
668.17	361.69
668.51	360.32
668.85	359.00
669.19	357.85
669.53	356.24
669.87	354.65
670.21	353.17
670.55	351.75
670.89	350.62
671.23	349.14
671.57	347.73
671.91	346.53
672.25	345.08
672.58	343.99
672.92	342.60
673.26	341.36
673.60	340.24
673.94	339.07
674.28	337.91
674.62	336.74
674.96	335.36
675.30	334.31
675.64	332.97
675.97	331.70
676.31	330.38
676.65	329.13
676.99	328.29
677.33	327.15
677.67	326.23
678.01	324.92
678.34	323.95
678.68	323.14
679.02	322.05
679.36	321.09
679.70	319.95
680.04	318.95
680.37	317.99
680.71	316.95
681.05	316.15
681.39	315.32
681.73	314.33
682.06	313.46
682.40	312.60
682.74	311.90
683.08	311.18
683.42	310.31
683.75	309.65
684.09	308.67
684.43	307.76
684.77	306.83
685.10	306.05
685.44	305.29
685.78	304.45
686.12	303.69
686.45	302.92
686.79	302.13
687.13	301.47
687.46	300.79
687.80	300.20
688.14	299.29
688.48	298.43
688.81	297.72
689.15	297.03
689.49	296.19
689.82	295.44
690.16	294.57
690.50	293.86
690.83	293.03
691.17	292.23
691.51	291.68
691.84	290.94
692.18	290.21
692.52	289.47
692.85	288.87
693.19	288.39
693.52	287.76
693.86	287.06
694.20	286.38
694.53	285.73
694.87	284.98
695.21	284.38
695.54	283.79
695.88	283.19
696.21	282.37
696.55	281.82
696.88	281.24
697.22	280.61
697.56	280.02
697.89	279.43
698.23	278.94
698.56	278.27
698.90	277.84
699.23	277.32
699.57	276.83
699.90	276.27
700.24	275.54
700.58	275.10
700.91	274.86
701.25	274.67
701.58	274.47
701.92	274.19
702.25	273.80
702.59	273.32
702.92	272.85
703.26	272.59
703.59	272.14
703.93	272.08
704.26	271.72
704.60	271.30
704.93	270.85
705.26	270.29
705.60	269.96
705.93	269.50
706.27	269.20
706.60	268.89
706.94	268.60
707.27	268.33
707.61	268.03
707.94	267.51
708.27	266.83
708.61	266.15
708.94	265.72
709.28	265.29
709.61	264.86
709.94	264.55
710.28	264.15
710.61	263.80
710.95	262.99
711.28	262.97
711.61	262.60
711.95	262.39
712.28	262.12
712.61	261.76
712.95	261.65
713.28	261.47
713.61	261.09
713.95	260.59
714.28	260.28
714.61	259.77
714.95	259.42
715.28	259.00
715.61	258.60
715.95	258.25
716.28	257.94
716.61	257.69
716.95	257.24
717.28	256.92
717.61	256.58
717.94	256.35
718.28	255.64
718.61	255.33
718.94	254.95
719.27	254.67
719.61	254.47
719.94	254.10
720.27	253.64
720.60	253.29
720.94	253.15
721.27	252.90
721.60	252.81
721.93	252.51
722.27	252.47
722.60	252.29
722.93	252.05
723.26	251.89
723.59	251.65
723.93	251.60
724.26	251.45
724.59	251.26
724.92	251.11
725.25	251.02
725.59	250.77
725.92	250.66
726.25	250.40
726.58	250.20
726.91	249.89
727.24	249.73
727.57	249.55
727.91	249.20
728.24	249.00
728.57	248.68
728.90	248.66
729.23	248.32
729.56	248.39
729.89	248.21
730.22	247.97
730.55	247.77
730.89	247.57
731.22	247.44
731.55	247.25
731.88	247.08
732.21	246.92
732.54	246.75
732.87	246.58
733.20	246.50
733.53	246.31
733.86	246.29
734.19	246.05
734.52	245.99
734.85	246.09
735.18	245.84
735.51	245.87
735.84	245.72
736.17	245.68
736.50	245.26
736.83	245.62
737.16	245.38
737.49	245.24
737.82	245.07
738.15	244.95
738.48	244.82
738.81	244.64
739.14	244.42
739.47	244.25
739.80	244.14
740.13	244.00
740.46	243.80
740.79	243.53
741.12	243.43
741.45	243.19
741.78	242.87
742.11	242.86
742.44	242.66
742.77	242.53
743.10	242.38
743.43	242.25
743.75	241.68
744.08	242.27
744.41	242.13
744.74	241.99
745.07	241.75
745.40	241.71
745.73	241.77
746.06	241.70
746.39	241.66
746.71	241.46
747.04	241.21
747.37	241.08
747.70	241.05
748.03	241.03
748.36	241.01
748.68	240.86
749.01	240.58
749.34	240.47
749.67	240.33
750.00	240.26
750.33	240.56
750.65	240.45
750.98	239.67
751.31	239.49
751.64	239.35
751.97	239.48
752.29	239.21
752.62	238.88
752.95	238.73
753.28	238.54
753.60	238.44
753.93	238.50
754.26	238.38
754.59	238.16
754.91	237.95
755.24	237.76
755.57	237.76
755.90	237.70
756.22	237.48
756.55	237.34
756.88	237.15
757.20	236.66
757.53	236.41
757.86	236.33
758.19	236.34
758.51	236.25
758.84	235.96
759.17	235.92
759.49	235.87
759.82	236.03
760.15	236.01
760.47	235.95
760.80	235.75
761.13	235.75
761.45	235.67
761.78	235.61
762.11	235.52
762.43	235.30
762.76	235.19
763.08	235.25
763.41	235.17
763.74	235.07
764.06	234.97
764.39	234.91
764.71	234.88
765.04	234.77
765.37	234.62
765.69	234.52
766.02	234.40
766.34	234.30
766.67	234.00
767.00	233.95
767.32	234.04
767.65	234.30
767.97	234.21
768.30	234.13
768.62	234.06
768.95	233.93
769.27	233.87
769.60	233.90
769.92	233.72
770.25	233.60
770.57	233.47
770.90	233.35
771.22	233.25
771.55	233.08
771.87	233.05
772.20	233.00
772.52	233.35
772.85	233.84
773.17	233.78
773.50	233.73
773.82	233.65
774.15	233.35
774.47	232.90
774.80	232.78
775.12	232.71
775.45	232.64
775.77	232.72
776.09	232.66
776.42	232.61
776.74	232.63
777.07	232.58
777.39	232.56
777.72	232.53
778.04	232.56
778.36	232.49
778.69	232.38
779.01	232.33
779.33	231.84
779.66	231.22
779.98	231.06
780.31	230.99
780.63	231.12
780.95	231.22
781.28	231.23
781.60	231.16
781.92	231.12
782.25	231.02
782.57	230.92
782.89	230.89
783.22	230.75
783.54	230.72
783.86	230.75
784.19	230.66
784.51	230.72
784.83	230.64
785.16	230.65
785.48	230.66
785.80	230.73
786.12	230.80
786.45	230.79
786.77	230.93
787.09	230.91
787.42	230.70
787.74	230.67
788.06	230.63
788.38	230.62
788.71	230.65
789.03	230.60
789.35	230.62
789.67	230.52
789.99	230.58
790.32	230.47
790.64	230.47
790.96	230.88
791.28	230.70
791.61	230.65
791.93	230.65
792.25	230.60
792.57	230.84
792.89	230.66
793.21	230.77
793.54	230.60
793.86	230.50
794.18	230.52
794.50	230.42
794.82	230.45
795.14	230.48
795.47	230.49
795.79	230.55
796.11	230.42
796.43	230.39
796.75	230.37
797.07	230.35
797.39	230.30
797.71	229.90
798.04	230.02
798.36	230.07
798.68	230.05
799.00	230.03
799.32	229.81
799.64	229.86
799.96	229.77
800.28	229.83
800.60	229.79
800.92	229.83
801.24	229.75
801.56	229.70
801.89	229.62
802.21	229.57
802.53	229.46
802.85	229.62
803.17	229.84
803.49	229.70
803.81	229.59
804.13	229.54
804.45	229.52
804.77	229.49
805.09	229.36
805.41	229.26
805.73	229.18
806.05	228.97
806.37	228.96
806.69	228.81
807.01	228.76
807.33	228.80
807.65	228.58
807.97	228.80
808.28	228.76
808.60	228.75
808.92	228.67
809.24	228.93
809.56	228.76
809.88	228.60
810.20	228.62
810.52	228.76
810.84	228.65
811.16	228.53
811.48	228.43
811.80	228.58
812.12	228.54
812.43	228.57
812.75	228.65
813.07	228.53
813.39	228.61
813.71	228.55
814.03	228.40
814.35	228.40
814.67	228.16
814.98	228.02
815.30	227.99
815.62	227.90
815.94	227.56
816.26	227.74
816.58	227.57
816.89	227.56
817.21	227.42
817.53	227.46
817.85	227.57
818.17	227.61
818.48	227.48
818.80	227.59
819.12	227.54
819.44	227.46
819.76	227.41
820.07	227.40
820.39	227.39
820.71	227.48
821.03	227.44
821.34	227.42
821.66	227.55
821.98	227.55
822.30	227.56
822.61	227.88
822.93	227.64
823.25	227.66
823.57	227.62
823.88	227.67
824.20	227.64
824.52	227.57
824.83	227.56
825.15	227.44
825.47	227.46
825.79	227.53
826.10	227.47
826.42	227.45
826.74	227.48
827.05	227.52
827.37	227.56
827.69	227.58
828.00	227.64
828.32	227.66
828.64	227.65
828.95	227.89
829.27	227.81
829.58	227.80
829.90	227.87
830.22	227.92
830.53	227.90
830.85	227.92
831.17	227.88
831.48	227.81
831.80	227.90
832.11	227.82
832.43	227.71
832.75	227.77
833.06	228.12
833.38	228.07
833.69	228.05
834.01	228.00
834.32	227.97
834.64	227.94
834.96	227.86
835.27	227.85
835.59	227.69
835.90	227.52
836.22	227.54
836.53	227.51
836.85	227.45
837.16	227.89
837.48	227.86
837.79	228.03
838.11	228.08
838.42	228.09
838.74	228.19
839.05	228.26
839.37	228.26
839.68	227.98
840.00	227.93
840.31	227.90
840.63	227.92
840.94	227.93
841.26	227.81
841.57	227.89
841.88	228.03
842.20	227.96
842.51	227.90
842.83	227.86
843.14	228.22
843.46	228.30
843.77	228.02
844.08	227.97
844.40	227.90
844.71	227.85
845.03	227.80
845.34	227.70
845.65	227.66
845.97	227.62
846.28	227.63
846.60	227.60
846.91	227.58
847.22	227.55
847.54	227.63
847.85	227.70
848.16	227.58
848.48	227.45
848.79	227.69
849.10	227.72
849.42	227.82
849.73	227.43
850.04	227.43
850.36	227.26
850.67	227.42
850.98	227.38
851.30	227.43
851.61	227.47
851.92	227.40
852.23	227.54
852.55	227.55
852.86	227.58
853.17	227.59
853.49	227.67
853.80	227.75
854.11	227.81
854.42	227.91
854.74	227.90
855.05	227.87
855.36	227.55
855.67	227.60
855.99	227.57
856.30	228.09
856.61	227.96
856.92	227.97
857.23	227.86
857.55	227.81
857.86	227.86
858.17	227.86
858.48	227.83
858.79	227.68
859.11	227.79
859.42	227.75
859.73	227.77
860.04	227.85
860.35	227.72
860.66	227.52
860.98	227.45
861.29	227.53
861.60	227.53
861.91	227.63
862.22	227.56
862.53	227.44
862.84	226.93
863.16	227.07
863.47	226.98
863.78	226.99
864.09	227.00
864.40	226.90
864.71	226.90
865.02	226.92
865.33	226.86
865.64	226.75
865.95	226.70
866.27	227.03
866.58	226.93
866.89	227.07
867.20	227.13
867.51	227.07
867.82	227.04
868.13	227.09
868.44	227.05
868.75	227.20
869.06	227.30
869.37	227.33
869.68	227.19
869.99	227.27
870.30	227.31
870.61	227.32
870.92	227.30
871.23	227.21
871.54	227.32
871.85	227.46
872.16	227.49
872.47	227.49
872.78	227.14
873.09	227.13
873.40	226.99
873.71	227.00
874.02	227.07
874.33	227.03
874.64	227.02
874.95	227.10
875.26	227.00
875.56	226.85
875.87	226.80
876.18	226.79
876.49	227.22
876.80	227.16
877.11	227.07
877.42	227.11
877.73	227.13
878.04	227.00
878.35	226.99
878.66	226.99
878.96	226.91
879.27	226.90
879.58	226.85
879.89	226.84
880.20	226.95
880.51	226.89
880.82	226.92
881.12	226.90
881.43	226.76
881.74	226.61
882.05	226.66
882.36	226.71
882.67	226.74
882.97	226.24
883.28	226.17
883.59	226.15
883.90	226.17
884.21	226.22
884.51	226.26
884.82	226.14
885.13	226.10
885.44	226.16
885.74	226.20
886.05	226.21
886.36	226.24
886.67	226.10
886.98	226.28
887.28	226.28
887.59	226.28
887.90	226.35
888.20	226.38
888.51	226.45
888.82	226.37
889.13	226.38
889.43	226.79
889.74	226.71
890.05	226.70
890.35	226.60
890.66	226.59
890.97	226.52
891.28	226.45
891.58	226.48
891.89	226.49
892.20	226.42
892.50	226.44
892.81	226.36
893.12	226.30
893.42	226.10
893.73	226.20
894.04	226.20
894.34	226.28
894.65	226.26
894.95	226.24
895.26	226.26
895.57	226.44
895.87	226.01
896.18	226.23
896.48	226.25
896.79	226.27
897.10	226.33
897.40	226.40
897.71	226.56
898.01	226.55
898.32	226.57
898.63	226.64
898.93	226.66
899.24	226.72
899.54	226.79
899.85	226.83
900.15	226.78
900.46	226.76
900.76	226.73
901.07	226.78
901.38	226.76
901.68	226.86
901.99	226.63
902.29	226.75
902.60	226.69
902.90	226.69
903.21	226.70
903.51	226.68
903.82	226.79
904.12	226.78
904.43	226.78
904.73	226.79
905.03	226.78
905.34	227.23
905.64	227.25
905.95	227.20
906.25	227.11
906.56	227.06
906.86	227.05
907.17	227.08
907.47	227.06
907.77	227.10
908.08	227.09
908.38	227.13
908.69	227.08
908.99	227.20
909.30	227.23
909.60	227.22
909.90	227.19
910.21	227.00
910.51	226.88
910.81	226.86
911.12	226.92
911.42	226.91
911.73	226.37
912.03	226.36
912.33	226.47
912.64	226.49
912.94	226.41
913.24	226.34
913.55	226.28
913.85	226.32
914.15	226.35
914.46	226.37
914.76	226.36
915.06	226.34
915.37	226.26
915.67	226.20
915.97	226.20
916.27	226.13
916.58	226.19
916.88	226.20
917.18	226.16
917.49	226.43
917.79	226.42
918.09	226.52
918.39	226.63
918.70	226.61
919.00	226.59
919.30	226.90
919.60	226.87
919.91	226.73
920.21	226.73
920.51	226.67
920.81	226.56
921.12	226.61
921.42	226.57
921.72	226.54
922.02	226.61
922.32	226.70
922.63	226.69
922.93	226.87
923.23	226.90
923.53	226.90
923.83	226.64
924.13	226.66
924.44	226.64
924.74	226.70
925.04	226.81
925.34	226.84
925.64	226.62
925.94	226.56
926.24	226.87
926.55	226.81
926.85	226.81
927.15	226.79
927.45	226.75
927.75	226.79
928.05	226.79
928.35	226.76
928.65	226.81
928.95	226.91
929.26	226.74
929.56	226.79
929.86	226.83
930.16	226.82
930.46	226.80
930.76	226.80
931.06	226.58
931.36	226.38
931.66	226.51
931.96	226.55
932.26	226.70
932.56	226.53
932.86	226.64
933.16	226.71
933.46	226.68
933.76	226.65
934.06	226.73
934.36	226.98
934.66	226.94
934.96	226.93
935.26	226.89
935.56	226.97
935.86	226.89
936.16	226.85
936.46	226.74
936.76	226.73
937.06	226.70
937.36	226.73
937.66	226.78
937.96	226.72
938.26	226.67
938.56	226.60
938.86	226.61
939.16	226.67
939.46	226.65
939.76	226.72
940.06	226.76
940.35	226.66
940.65	226.32
940.95	226.38
941.25	226.18
941.55	226.17
941.85	226.18
942.15	226.28
942.45	226.40
942.75	226.47
943.04	226.54
943.34	226.66
943.64	226.64
943.94	226.59
944.24	226.57
944.54	226.63
944.84	226.63
945.13	226.54
945.43	226.44
945.73	226.41
946.03	226.39
946.33	226.33
946.62	226.33
946.92	226.38
947.22	226.44
947.52	226.55
947.82	226.60
948.11	226.49
948.41	226.44
948.71	226.31
949.01	226.29
949.31	226.16
949.60	226.06
949.90	226.11
950.20	226.06
950.50	226.05
950.79	225.98
951.09	226.07
951.39	226.10
951.69	226.01
951.98	226.09
952.28	226.14
952.58	226.11
952.87	226.10
953.17	226.18
953.47	226.02
953.76	225.94
954.06	225.88
954.36	225.90
954.66	225.85
954.95	226.00
955.25	225.96
955.55	225.99
955.84	225.97
956.14	226.05
956.44	226.08
956.73	226.03
957.03	226.05
957.32	226.04
957.62	225.96
957.92	226.11
958.21	226.11
958.51	226.60
958.81	226.66
959.10	226.67
959.40	226.78
959.69	226.89
959.99	226.98
960.29	226.95
960.58	226.85
960.88	227.09
961.17	226.92
961.47	226.93
961.76	226.91
962.06	226.92
962.36	226.80
962.65	226.88
962.95	226.87
963.24	226.87
963.54	226.86
963.83	226.88
964.13	226.81
964.42	226.68
964.72	226.18
965.01	226.20
965.31	226.20
965.60	226.06
965.90	226.38
966.19	226.29
966.49	226.33
966.78	226.31
967.08	226.25
967.37	226.34
967.67	226.32
967.96	226.43
968.26	226.45
968.55	226.56
968.85	226.48
969.14	226.49
969.43	226.44
969.73	226.44
970.02	226.47
970.32	226.44
970.61	226.43
970.91	226.34
971.20	226.28
971.49	226.22
971.79	226.23
972.08	225.83
972.38	225.90
972.67	225.90
972.96	225.97
973.26	225.93
973.55	226.04
973.85	225.97
974.14	225.91
974.43	226.00
974.73	225.93
975.02	225.90
975.31	225.95
975.61	225.97
975.90	225.93
976.19	225.90
976.49	225.98
976.78	226.03
977.07	226.07
977.37	226.11
977.66	226.22
977.95	226.13
978.24	226.20
978.54	226.27
978.83	226.21
979.12	226.26
979.42	226.17
979.71	226.11
980.00	226.19
980.29	226.28
980.59	226.14
980.88	226.34
981.17	226.41
981.46	226.36
981.76	226.37
982.05	226.55
982.34	226.55
982.63	226.50
982.93	226.53
983.22	226.65
983.51	226.67
983.80	226.72
984.09	226.85
984.39	226.81
984.68	226.73
984.97	226.84
985.26	226.80
985.55	226.90
985.85	226.78
986.14	226.80
986.43	226.80
986.72	226.72
987.01	226.48
987.30	226.43
987.59	226.46
987.89	226.41
988.18	226.24
988.47	226.23
988.76	226.21
989.05	226.14
989.34	226.19
989.63	226.31
989.92	226.20
990.22	226.09
990.51	226.10
990.80	226.09
991.09	226.05
991.38	226.03
991.67	225.97
991.96	225.95
992.25	226.02
992.54	225.90
992.83	225.96
993.12	225.93
993.41	225.98
993.70	226.12
993.99	226.25
994.28	226.31
994.58	226.45
994.87	226.34
995.16	226.33
995.45	226.20
995.74	226.00
996.03	226.09
996.32	226.18
996.61	226.25
996.90	226.23
997.19	226.20
997.48	226.25
997.77	226.14
998.06	226.16
998.34	226.13
998.63	226.11
998.92	226.12
999.21	226.16
999.50	226.17
999.79	226.02
1000.08	225.98
1000.37	225.90
1000.66	225.72
1000.95	225.84
1001.24	225.87
1001.53	225.88
1001.82	225.84
1002.11	225.68
1002.40	225.65
1002.68	225.75
1002.97	226.08
1003.26	226.04
1003.55	225.93
1003.84	225.99
1004.13	226.11
1004.42	226.05
1004.71	226.06
1004.99	225.99
1005.28	226.14
1005.57	226.10
1005.86	226.10
1006.15	226.02
1006.44	226.02
1006.72	226.14
1007.01	226.08
1007.30	226.08
1007.59	226.09
1007.88	226.06
1008.17	226.10
1008.45	226.05
1008.74	225.88
1009.03	225.68
1009.32	225.65
1009.60	225.66
1009.89	225.61
1010.18	225.45
1010.47	225.46
1010.76	225.55
1011.04	225.64
1011.33	225.62
1011.62	225.60
1011.91	225.60
1012.19	225.69
1012.48	225.67
1012.77	225.62
1013.05	225.90
1013.34	225.92
1013.63	225.95
1013.92	226.13
1014.20	226.07
1014.49	226.15
1014.78	226.13
1015.06	226.02
1015.35	226.10
1015.64	226.20
1015.92	226.32
1016.21	226.33
1016.50	226.34
1016.78	226.39
1017.07	226.35
1017.36	226.31
1017.64	226.40
1017.93	226.46
1018.22	226.45
1018.50	226.44
1018.79	226.39
1019.08	226.22
1019.36	226.24
1019.65	226.16
1019.93	226.20
1020.22	226.38
1020.51	226.63
1020.79	226.63
1021.08	226.45
1021.36	224.55
1021.65	224.90
1021.94	227.05
1022.22	226.65
1022.51	225.65
1022.79	228.30
1023.08	227.05
1023.36	232.45
1023.65	225.15
>>>>>End Processed Spectral Data<<<<<
