SpectraSuite Data File
++++++++++++++++++++++++++++++++++++
Date: Wed Sep 04 17:49:47 EDT 2013
User: lab3
Dark Spectrum Present: Yes
Reference Spectrum Present: No
Number of Sampled Component Spectra: 1
Spectrometers: USB2E7196
Integration Time (usec): 170000 (USB2E7196)
Spectra Averaged: 20 (USB2E7196)
Boxcar Smoothing: 10 (USB2E7196)
Correct for Electrical Dark: No (USB2E7196)
Strobe/Lamp Enabled: No (USB2E7196)
Correct for Detector Non-linearity: No (USB2E7196)
Correct for Stray Light: No (USB2E7196)
Number of Pixels in Processed Spectrum: 2048
>>>>>Begin Processed Spectral Data<<<<<
339.09	0.00
339.48	214.25
339.86	214.30
340.24	215.10
340.63	216.90
341.01	224.75
341.39	219.80
341.78	221.40
342.16	224.70
342.54	223.20
342.93	212.05
343.31	222.76
343.69	223.24
344.07	223.71
344.46	224.21
344.84	224.62
345.22	224.62
345.60	224.90
345.99	225.14
346.37	225.15
346.75	225.29
347.13	225.33
347.52	225.45
347.90	225.63
348.28	225.64
348.66	225.77
349.05	225.65
349.43	225.75
349.81	225.82
350.19	225.92
350.57	225.95
350.96	226.02
351.34	226.05
351.72	226.14
352.10	226.22
352.48	226.24
352.87	226.21
353.25	226.30
353.63	226.32
354.01	226.30
354.39	226.38
354.77	226.41
355.15	226.66
355.54	226.59
355.92	226.51
356.30	226.55
356.68	226.90
357.06	227.00
357.44	226.98
357.82	226.98
358.20	227.48
358.58	227.57
358.97	227.71
359.35	227.87
359.73	228.03
360.11	228.13
360.49	228.21
360.87	228.33
361.25	228.42
361.63	228.67
362.01	228.78
362.39	228.81
362.77	228.89
363.15	228.86
363.53	228.97
363.91	229.08
364.29	229.12
364.67	228.74
365.05	228.78
365.43	228.90
365.81	229.05
366.19	228.89
366.57	229.13
366.95	229.15
367.33	229.01
367.71	229.05
368.09	229.10
368.47	229.11
368.85	229.18
369.23	229.32
369.61	229.14
369.99	229.34
370.37	229.39
370.75	229.62
371.13	229.48
371.51	229.35
371.89	229.37
372.27	229.35
372.65	229.38
373.03	229.34
373.41	229.24
373.78	229.19
374.16	228.89
374.54	228.68
374.92	228.64
375.30	228.68
375.68	228.46
376.06	228.47
376.44	228.36
376.82	228.28
377.19	228.09
377.57	228.00
377.95	227.75
378.33	227.62
378.71	227.29
379.09	227.30
379.47	227.26
379.84	227.12
380.22	227.00
380.60	226.73
380.98	226.64
381.36	226.53
381.73	226.41
382.11	226.51
382.49	226.46
382.87	226.25
383.25	226.10
383.62	226.57
384.00	226.40
384.38	226.38
384.76	226.38
385.13	226.49
385.51	226.39
385.89	226.27
386.27	226.24
386.64	226.13
387.02	226.08
387.40	225.98
387.78	225.96
388.15	225.90
388.53	225.89
388.91	225.82
389.29	225.75
389.66	225.70
390.04	225.55
390.42	225.51
390.79	225.55
391.17	225.59
391.55	225.02
391.92	225.01
392.30	225.04
392.68	224.94
393.05	224.90
393.43	224.96
393.81	224.94
394.18	224.84
394.56	224.95
394.94	224.95
395.31	224.99
395.69	225.17
396.06	225.28
396.44	225.39
396.82	225.39
397.19	225.69
397.57	225.70
397.95	225.79
398.32	225.76
398.70	225.88
399.07	226.07
399.45	226.20
399.82	226.19
400.20	226.22
400.58	226.26
400.95	226.16
401.33	226.42
401.70	226.94
402.08	227.17
402.45	227.29
402.83	227.58
403.20	227.70
403.58	227.75
403.95	228.05
404.33	228.32
404.71	228.56
405.08	229.03
405.46	229.34
405.83	229.63
406.21	229.87
406.58	230.14
406.96	230.35
407.33	230.75
407.70	231.19
408.08	231.95
408.45	232.42
408.83	232.99
409.20	233.30
409.58	233.42
409.95	233.95
410.33	234.51
410.70	234.92
411.08	235.63
411.45	236.27
411.82	236.78
412.20	237.55
412.57	238.54
412.95	238.93
413.32	239.70
413.69	240.61
414.07	241.60
414.44	242.62
414.82	243.68
415.19	244.84
415.56	246.01
415.94	247.02
416.31	248.40
416.68	249.80
417.06	251.49
417.43	253.16
417.81	254.96
418.18	256.78
418.55	258.77
418.93	260.80
419.30	262.89
419.67	265.09
420.04	267.31
420.42	269.63
420.79	272.66
421.16	275.54
421.54	278.55
421.91	281.52
422.28	284.58
422.66	287.87
423.03	291.38
423.40	294.75
423.77	298.34
424.15	301.89
424.52	305.65
424.89	309.77
425.26	313.66
425.64	317.35
426.01	321.58
426.38	325.85
426.75	330.24
427.13	334.86
427.50	339.60
427.87	344.48
428.24	349.29
428.61	353.67
428.99	358.88
429.36	364.21
429.73	369.60
430.10	375.05
430.47	380.71
430.85	386.25
431.22	392.39
431.59	399.10
431.96	405.47
432.33	412.42
432.70	419.10
433.08	427.05
433.45	434.44
433.82	441.69
434.19	449.89
434.56	458.00
434.93	465.58
435.30	473.30
435.68	481.79
436.05	490.30
436.42	498.70
436.79	506.30
437.16	514.74
437.53	523.63
437.90	532.26
438.27	540.63
438.64	549.47
439.01	557.74
439.38	564.65
439.75	571.63
440.13	579.42
440.50	586.71
440.87	592.63
441.24	598.92
441.61	605.69
441.98	610.80
442.35	616.43
442.72	622.43
443.09	628.16
443.46	631.66
443.83	633.80
444.20	635.64
444.57	638.36
444.94	639.33
445.31	640.29
445.68	641.69
446.05	641.88
446.42	640.58
446.79	639.12
447.16	637.62
447.53	636.30
447.90	632.72
448.27	629.11
448.64	624.24
449.01	620.56
449.37	614.47
449.74	608.38
450.11	601.71
450.48	593.93
450.85	585.99
451.22	579.13
451.59	572.67
451.96	566.50
452.33	558.34
452.70	550.90
453.07	542.34
453.43	533.24
453.80	524.83
454.17	516.83
454.54	509.20
454.91	501.25
455.28	493.43
455.65	485.99
456.02	479.24
456.38	472.98
456.75	465.31
457.12	458.91
457.49	452.63
457.86	446.28
458.23	441.19
458.59	435.61
458.96	429.86
459.33	424.76
459.70	419.66
460.07	415.70
460.43	411.10
460.80	406.92
461.17	403.36
461.54	399.52
461.91	395.82
462.27	391.93
462.64	388.55
463.01	384.93
463.38	381.65
463.74	377.73
464.11	374.73
464.48	372.12
464.85	369.43
465.21	367.34
465.58	365.05
465.95	362.24
466.32	360.00
466.68	357.75
467.05	355.51
467.42	353.39
467.78	351.08
468.15	349.06
468.52	347.38
468.88	345.10
469.25	343.18
469.62	341.71
469.98	340.11
470.35	338.63
470.72	337.29
471.08	335.63
471.45	334.34
471.82	333.08
472.18	331.71
472.55	330.65
472.92	329.30
473.28	328.27
473.65	327.25
474.02	326.14
474.38	325.28
474.75	324.55
475.11	323.72
475.48	323.16
475.85	322.57
476.21	321.93
476.58	321.40
476.94	321.03
477.31	320.49
477.67	320.07
478.04	319.75
478.41	319.53
478.77	319.84
479.14	319.64
479.50	319.54
479.87	319.59
480.23	319.54
480.60	319.60
480.96	319.59
481.33	319.88
481.69	320.22
482.06	320.49
482.42	320.70
482.79	321.06
483.15	321.40
483.52	321.81
483.88	322.37
484.25	323.00
484.61	323.65
484.98	324.32
485.34	325.38
485.71	326.39
486.07	327.37
486.44	328.00
486.80	329.05
487.17	330.17
487.53	331.46
487.90	332.96
488.26	334.62
488.62	336.34
488.99	337.91
489.35	339.62
489.72	341.50
490.08	343.59
490.44	345.56
490.81	347.78
491.17	350.03
491.54	352.43
491.90	354.99
492.26	357.59
492.63	360.44
492.99	363.16
493.36	366.25
493.72	369.54
494.08	372.96
494.45	376.67
494.81	380.67
495.17	384.56
495.54	388.64
495.90	392.82
496.26	397.32
496.63	401.93
496.99	406.65
497.35	411.74
497.72	416.99
498.08	422.39
498.44	427.97
498.80	434.16
499.17	440.25
499.53	446.51
499.89	453.30
500.26	460.07
500.62	467.09
500.98	474.45
501.34	481.89
501.71	489.60
502.07	497.41
502.43	505.31
502.79	513.65
503.16	522.21
503.52	531.20
503.88	540.22
504.24	549.73
504.60	559.79
504.97	569.84
505.33	579.99
505.69	591.14
506.05	602.24
506.41	613.42
506.78	625.01
507.14	636.98
507.50	649.19
507.86	661.67
508.22	674.56
508.59	687.38
508.95	700.90
509.31	714.89
509.67	729.15
510.03	743.55
510.39	758.10
510.75	772.96
511.12	788.08
511.48	803.63
511.84	819.35
512.20	834.99
512.56	851.31
512.92	868.32
513.28	885.01
513.64	901.94
514.00	919.13
514.37	936.88
514.73	954.76
515.09	972.76
515.45	991.17
515.81	1009.55
516.17	1028.33
516.53	1047.03
516.89	1065.53
517.25	1084.83
517.61	1104.58
517.97	1124.82
518.33	1144.86
518.69	1164.83
519.05	1185.22
519.41	1205.84
519.77	1226.91
520.13	1247.46
520.49	1267.73
520.85	1289.90
521.21	1310.89
521.57	1332.22
521.93	1352.80
522.29	1373.96
522.65	1394.46
523.01	1415.22
523.37	1435.67
523.73	1456.46
524.09	1476.81
524.45	1497.40
524.81	1517.76
525.17	1538.54
525.53	1558.93
525.89	1579.65
526.25	1600.21
526.61	1620.21
526.97	1640.96
527.33	1661.80
527.68	1683.20
528.04	1704.37
528.40	1723.88
528.76	1745.02
529.12	1765.30
529.48	1785.90
529.84	1805.86
530.20	1826.98
530.56	1847.57
530.91	1868.16
531.27	1888.33
531.63	1908.65
531.99	1928.97
532.35	1949.13
532.71	1969.00
533.07	1989.46
533.42	2009.10
533.78	2028.78
534.14	2048.75
534.50	2067.70
534.86	2086.73
535.21	2104.21
535.57	2122.46
535.93	2139.64
536.29	2156.92
536.65	2174.86
537.00	2192.32
537.36	2209.50
537.72	2225.71
538.08	2242.57
538.44	2259.32
538.79	2275.56
539.15	2291.51
539.51	2307.19
539.87	2321.87
540.22	2335.63
540.58	2349.65
540.94	2362.99
541.29	2375.70
541.65	2388.10
542.01	2400.28
542.37	2410.54
542.72	2421.45
543.08	2431.70
543.44	2443.36
543.79	2453.46
544.15	2463.02
544.51	2472.98
544.87	2482.42
545.22	2491.02
545.58	2498.79
545.94	2505.44
546.29	2511.84
546.65	2518.10
547.01	2523.43
547.36	2528.75
547.72	2534.24
548.07	2537.63
548.43	2542.94
548.79	2547.23
549.14	2550.85
549.50	2554.63
549.86	2558.72
550.21	2562.38
550.57	2565.65
550.92	2566.64
551.28	2567.78
551.64	2570.04
551.99	2571.33
552.35	2572.82
552.70	2574.72
553.06	2576.25
553.41	2577.48
553.77	2579.00
554.13	2580.68
554.48	2582.34
554.84	2583.82
555.19	2584.72
555.55	2586.70
555.90	2585.45
556.26	2584.78
556.61	2583.29
556.97	2580.95
557.32	2580.10
557.68	2578.79
558.03	2577.28
558.39	2575.99
558.74	2575.19
559.10	2571.59
559.45	2568.07
559.81	2563.43
560.16	2557.81
560.52	2552.54
560.87	2548.25
561.23	2542.60
561.58	2536.43
561.94	2529.51
562.29	2522.04
562.64	2515.05
563.00	2506.47
563.35	2499.70
563.71	2492.89
564.06	2486.73
564.42	2480.39
564.77	2473.16
565.12	2465.44
565.48	2457.82
565.83	2450.01
566.19	2441.52
566.54	2433.55
566.89	2425.69
567.25	2418.30
567.60	2411.38
567.96	2403.78
568.31	2395.83
568.66	2387.61
569.02	2378.65
569.37	2370.53
569.72	2362.89
570.08	2353.69
570.43	2344.51
570.78	2335.50
571.14	2326.10
571.49	2315.49
571.84	2305.82
572.20	2295.27
572.55	2285.25
572.90	2274.35
573.26	2263.90
573.61	2253.04
573.96	2241.86
574.31	2229.61
574.67	2217.48
575.02	2204.81
575.37	2192.31
575.72	2179.02
576.08	2166.64
576.43	2154.10
576.78	2141.02
577.13	2127.57
577.49	2114.71
577.84	2102.83
578.19	2091.11
578.54	2078.67
578.90	2067.15
579.25	2054.79
579.60	2042.29
579.95	2029.47
580.30	2016.50
580.66	2003.20
581.01	1989.58
581.36	1975.91
581.71	1963.40
582.06	1950.66
582.42	1938.27
582.77	1925.54
583.12	1913.68
583.47	1901.63
583.82	1890.16
584.17	1878.19
584.53	1866.54
584.88	1853.75
585.23	1840.72
585.58	1826.45
585.93	1813.12
586.28	1800.03
586.63	1786.18
586.98	1772.20
587.34	1758.89
587.69	1745.93
588.04	1733.57
588.39	1721.86
588.74	1710.04
589.09	1698.20
589.44	1685.75
589.79	1673.68
590.14	1662.16
590.49	1650.18
590.84	1638.18
591.19	1626.08
591.54	1613.94
591.89	1601.86
592.25	1591.93
592.60	1580.63
592.95	1569.41
593.30	1558.18
593.65	1546.21
594.00	1534.40
594.35	1524.69
594.70	1513.11
595.05	1501.69
595.40	1489.54
595.75	1477.64
596.10	1466.48
596.45	1455.19
596.80	1444.70
597.15	1433.50
597.50	1421.89
597.85	1410.95
598.19	1399.34
598.54	1388.03
598.89	1377.05
599.24	1366.38
599.59	1354.86
599.94	1344.16
600.29	1334.01
600.64	1323.56
600.99	1313.00
601.34	1303.81
601.69	1292.83
602.04	1283.48
602.39	1273.71
602.74	1265.05
603.08	1255.75
603.43	1246.51
603.78	1237.07
604.13	1227.32
604.48	1217.94
604.83	1208.06
605.18	1198.02
605.53	1188.85
605.87	1179.52
606.22	1171.17
606.57	1161.91
606.92	1152.58
607.27	1143.75
607.62	1135.01
607.96	1126.66
608.31	1118.95
608.66	1110.32
609.01	1101.70
609.36	1093.07
609.70	1084.86
610.05	1076.06
610.40	1067.71
610.75	1059.19
611.10	1050.85
611.44	1042.39
611.79	1034.22
612.14	1026.74
612.49	1019.17
612.83	1011.57
613.18	1004.10
613.53	996.20
613.88	988.50
614.22	980.89
614.57	973.15
614.92	965.39
615.27	957.93
615.61	950.28
615.96	942.83
616.31	935.48
616.65	928.63
617.00	921.44
617.35	914.39
617.70	907.53
618.04	900.51
618.39	893.44
618.74	887.24
619.08	880.54
619.43	873.58
619.78	866.63
620.12	859.78
620.47	852.95
620.82	846.08
621.16	839.61
621.51	833.38
621.85	827.15
622.20	820.73
622.55	814.05
622.89	807.79
623.24	801.53
623.59	795.39
623.93	789.00
624.28	783.08
624.62	777.73
624.97	772.03
625.32	766.42
625.66	760.70
626.01	754.52
626.35	748.82
626.70	743.33
627.04	737.99
627.39	732.42
627.73	727.12
628.08	721.90
628.43	716.42
628.77	711.09
629.12	705.90
629.46	701.20
629.81	696.74
630.15	692.00
630.50	687.21
630.84	682.36
631.19	677.71
631.53	673.18
631.88	667.83
632.22	663.04
632.57	658.73
632.91	654.07
633.26	649.82
633.60	645.38
633.95	640.95
634.29	636.45
634.64	632.05
634.98	627.52
635.32	623.31
635.67	619.46
636.01	615.47
636.36	611.27
636.70	607.29
637.05	602.88
637.39	598.78
637.73	594.86
638.08	590.98
638.42	586.89
638.77	582.55
639.11	578.47
639.45	574.21
639.80	569.78
640.14	565.89
640.49	561.88
640.83	558.25
641.17	554.61
641.52	550.93
641.86	547.61
642.20	544.56
642.55	541.01
642.89	537.43
643.23	533.91
643.58	530.86
643.92	527.08
644.26	523.84
644.61	520.61
644.95	517.19
645.29	513.97
645.64	510.90
645.98	507.93
646.32	504.91
646.66	501.90
647.01	498.97
647.35	496.33
647.69	493.48
648.04	490.58
648.38	487.76
648.72	484.91
649.06	481.81
649.41	478.61
649.75	475.66
650.09	472.71
650.43	469.91
650.78	466.99
651.12	464.22
651.46	461.39
651.80	458.68
652.14	456.12
652.49	453.63
652.83	450.97
653.17	448.40
653.51	445.76
653.85	443.39
654.20	440.90
654.54	438.27
654.88	435.73
655.22	433.55
655.56	431.05
655.90	428.75
656.25	426.57
656.59	424.34
656.93	422.25
657.27	420.24
657.61	417.86
657.95	415.53
658.29	413.43
658.64	411.36
658.98	409.11
659.32	406.87
659.66	404.54
660.00	402.49
660.34	400.36
660.68	398.31
661.02	396.27
661.36	394.43
661.70	392.44
662.05	390.66
662.39	388.66
662.73	386.96
663.07	385.41
663.41	383.58
663.75	381.69
664.09	379.81
664.43	377.89
664.77	376.26
665.11	374.52
665.45	372.90
665.79	371.28
666.13	369.61
666.47	367.90
666.81	366.37
667.15	364.71
667.49	363.23
667.83	361.92
668.17	360.37
668.51	358.77
668.85	357.46
669.19	356.18
669.53	354.71
669.87	353.08
670.21	351.36
670.55	349.94
670.89	348.87
671.23	347.58
671.57	346.25
671.91	344.87
672.25	343.69
672.58	342.46
672.92	341.05
673.26	339.87
673.60	338.73
673.94	337.63
674.28	336.56
674.62	335.40
674.96	334.15
675.30	333.09
675.64	332.00
675.97	330.67
676.31	329.36
676.65	328.10
676.99	327.21
677.33	326.15
677.67	325.09
678.01	323.79
678.34	322.74
678.68	321.80
679.02	320.81
679.36	319.83
679.70	318.80
680.04	317.92
680.37	316.93
680.71	316.01
681.05	315.11
681.39	314.19
681.73	313.26
682.06	312.38
682.40	311.52
682.74	310.78
683.08	310.18
683.42	309.28
683.75	308.57
684.09	307.63
684.43	306.82
684.77	306.05
685.10	305.32
685.44	304.51
685.78	303.64
686.12	302.93
686.45	302.00
686.79	301.21
687.13	300.45
687.46	299.74
687.80	299.08
688.14	298.20
688.48	297.48
688.81	296.76
689.15	296.16
689.49	295.41
689.82	294.65
690.16	293.73
690.50	293.11
690.83	292.40
691.17	291.57
691.51	290.93
691.84	290.27
692.18	289.49
692.52	288.73
692.85	288.17
693.19	287.65
693.52	287.06
693.86	286.32
694.20	285.76
694.53	285.18
694.87	284.43
695.21	283.77
695.54	283.12
695.88	282.45
696.21	281.67
696.55	280.96
696.88	280.34
697.22	279.75
697.56	279.16
697.89	278.52
698.23	278.15
698.56	277.54
698.90	277.07
699.23	276.55
699.57	276.16
699.90	275.46
700.24	274.89
700.58	274.47
700.91	274.16
701.25	274.00
701.58	273.84
701.92	273.58
702.25	273.24
702.59	272.74
702.92	272.31
703.26	271.90
703.59	271.54
703.93	271.57
704.26	271.26
704.60	270.85
704.93	270.45
705.26	269.95
705.60	269.56
705.93	269.08
706.27	268.84
706.60	268.50
706.94	268.46
707.27	268.00
707.61	267.66
707.94	267.21
708.27	266.40
708.61	265.60
708.94	265.14
709.28	264.82
709.61	264.39
709.94	264.15
710.28	263.82
710.61	263.50
710.95	262.61
711.28	262.48
711.61	262.05
711.95	261.77
712.28	261.43
712.61	261.14
712.95	261.06
713.28	260.85
713.61	260.47
713.95	259.95
714.28	259.61
714.61	259.21
714.95	258.86
715.28	258.55
715.61	258.25
715.95	257.85
716.28	257.45
716.61	257.22
716.95	256.84
717.28	256.51
717.61	256.20
717.94	255.99
718.28	255.40
718.61	255.12
718.94	254.81
719.27	254.52
719.61	254.26
719.94	253.79
720.27	253.35
720.60	253.03
720.94	252.78
721.27	252.55
721.60	252.39
721.93	252.14
722.27	252.09
722.60	251.87
722.93	251.68
723.26	251.42
723.59	251.15
723.93	250.96
724.26	250.84
724.59	250.64
724.92	250.45
725.25	250.36
725.59	250.17
725.92	249.93
726.25	249.76
726.58	249.63
726.91	249.49
727.24	249.36
727.57	249.20
727.91	248.90
728.24	248.86
728.57	248.68
728.90	248.55
729.23	248.25
729.56	248.32
729.89	248.16
730.22	247.99
730.55	247.82
730.89	247.70
731.22	247.44
731.55	247.27
731.88	247.08
732.21	246.92
732.54	246.69
732.87	246.57
733.20	246.47
733.53	246.29
733.86	246.11
734.19	245.85
734.52	245.77
734.85	245.95
735.18	245.65
735.51	245.65
735.84	245.54
736.17	245.47
736.50	245.14
736.83	245.55
737.16	245.40
737.49	245.29
737.82	245.03
738.15	244.95
738.48	244.79
738.81	244.67
739.14	244.39
739.47	244.22
739.80	243.99
740.13	243.93
740.46	243.70
740.79	243.54
741.12	243.34
741.45	243.13
741.78	242.71
742.11	242.67
742.44	242.37
742.77	242.31
743.10	242.18
743.43	241.98
743.75	241.40
744.08	241.89
744.41	241.66
744.74	241.48
745.07	241.24
745.40	241.15
745.73	241.16
746.06	241.12
746.39	241.06
746.71	240.97
747.04	240.69
747.37	240.52
747.70	240.43
748.03	240.40
748.36	240.30
748.68	240.13
749.01	239.94
749.34	239.81
749.67	239.68
750.00	239.55
750.33	239.77
750.65	239.61
750.98	238.92
751.31	238.92
751.64	238.84
751.97	238.93
752.29	238.77
752.62	238.48
752.95	238.29
753.28	238.02
753.60	237.92
753.93	237.96
754.26	237.95
754.59	237.76
754.91	237.59
755.24	237.48
755.57	237.41
755.90	237.19
756.22	237.05
756.55	236.80
756.88	236.64
757.20	236.24
757.53	236.02
757.86	235.91
758.19	235.84
758.51	235.77
758.84	235.46
759.17	235.35
759.49	235.24
759.82	235.41
760.15	235.45
760.47	235.42
760.80	235.11
761.13	235.10
761.45	235.03
761.78	234.97
762.11	234.85
762.43	234.75
762.76	234.70
763.08	234.60
763.41	234.59
763.74	234.48
764.06	234.34
764.39	234.30
764.71	234.17
765.04	234.00
765.37	233.91
765.69	233.84
766.02	233.73
766.34	233.59
766.67	233.25
767.00	233.30
767.32	233.41
767.65	233.66
767.97	233.50
768.30	233.43
768.62	233.32
768.95	233.20
769.27	233.14
769.60	233.19
769.92	233.09
770.25	232.91
770.57	232.81
770.90	232.81
771.22	232.67
771.55	232.62
771.87	232.65
772.20	232.55
772.52	232.90
772.85	233.44
773.17	233.43
773.50	233.40
773.82	233.20
774.15	232.90
774.47	232.56
774.80	232.50
775.12	232.41
775.45	232.30
775.77	232.32
776.09	232.28
776.42	232.27
776.74	232.32
777.07	232.33
777.39	232.30
777.72	232.18
778.04	232.23
778.36	232.16
778.69	232.07
779.01	232.06
779.33	231.65
779.66	231.06
779.98	230.99
780.31	230.98
780.63	231.20
780.95	231.26
781.28	231.21
781.60	231.11
781.92	231.01
782.25	231.09
782.57	231.01
782.89	230.90
783.22	230.78
783.54	230.72
783.86	230.74
784.19	230.65
784.51	230.74
784.83	230.65
785.16	230.66
785.48	230.61
785.80	230.49
786.12	230.46
786.45	230.39
786.77	230.46
787.09	230.37
787.42	230.18
787.74	230.15
788.06	230.13
788.38	230.14
788.71	230.13
789.03	230.03
789.35	230.12
789.67	230.09
789.99	230.02
790.32	229.92
790.64	229.86
790.96	230.24
791.28	230.06
791.61	230.08
791.93	230.04
792.25	230.04
792.57	230.39
792.89	230.26
793.21	230.33
793.54	230.15
793.86	230.11
794.18	230.07
794.50	229.88
794.82	229.89
795.14	229.88
795.47	229.96
795.79	229.96
796.11	229.80
796.43	229.75
796.75	229.77
797.07	229.75
797.39	229.71
797.71	229.33
798.04	229.32
798.36	229.27
798.68	229.25
799.00	229.13
799.32	228.89
799.64	229.04
799.96	228.98
800.28	229.10
800.60	229.05
800.92	229.09
801.24	229.11
801.56	229.12
801.89	229.08
802.21	229.06
802.53	228.94
802.85	228.99
803.17	229.31
803.49	229.20
803.81	229.12
804.13	229.06
804.45	229.01
804.77	229.04
805.09	229.07
805.41	228.97
805.73	229.04
806.05	228.88
806.37	228.80
806.69	228.77
807.01	228.75
807.33	228.80
807.65	228.60
807.97	228.80
808.28	228.77
808.60	228.74
808.92	228.73
809.24	229.06
809.56	228.98
809.88	228.70
810.20	228.77
810.52	228.92
810.84	228.85
811.16	228.75
811.48	228.75
811.80	228.79
812.12	228.89
812.43	228.91
812.75	228.97
813.07	228.85
813.39	228.80
813.71	228.67
814.03	228.58
814.35	228.61
814.67	228.43
814.98	228.35
815.30	228.31
815.62	228.15
815.94	227.81
816.26	228.02
816.58	227.89
816.89	227.85
817.21	227.66
817.53	227.70
817.85	227.79
818.17	227.70
818.48	227.54
818.80	227.48
819.12	227.35
819.44	227.24
819.76	227.25
820.07	227.26
820.39	227.27
820.71	227.34
821.03	227.34
821.34	227.24
821.66	227.30
821.98	227.40
822.30	227.40
822.61	227.66
822.93	227.40
823.25	227.41
823.57	227.40
823.88	227.56
824.20	227.48
824.52	227.55
824.83	227.53
825.15	227.48
825.47	227.53
825.79	227.56
826.10	227.43
826.42	227.35
826.74	227.33
827.05	227.27
827.37	227.22
827.69	227.18
828.00	227.23
828.32	227.21
828.64	227.08
828.95	227.40
829.27	227.29
829.58	227.32
829.90	227.43
830.22	227.49
830.53	227.36
830.85	227.31
831.17	227.16
831.48	227.17
831.80	227.17
832.11	227.09
832.43	227.05
832.75	227.15
833.06	227.42
833.38	227.32
833.69	227.37
834.01	227.37
834.32	227.40
834.64	227.28
834.96	227.26
835.27	227.21
835.59	226.94
835.90	226.83
836.22	226.75
836.53	226.63
836.85	226.54
837.16	227.01
837.48	227.05
837.79	227.21
838.11	227.22
838.42	227.28
838.74	227.38
839.05	227.27
839.37	227.34
839.68	227.09
840.00	227.13
840.31	227.11
840.63	227.09
840.94	227.00
841.26	227.09
841.57	227.06
841.88	227.16
842.20	227.15
842.51	227.14
842.83	227.18
843.14	227.60
843.46	227.59
843.77	227.29
844.08	227.29
844.40	227.18
844.71	227.17
845.03	227.10
845.34	227.00
845.65	227.08
845.97	227.11
846.28	227.16
846.60	227.17
846.91	227.15
847.22	227.11
847.54	227.20
847.85	227.17
848.16	227.18
848.48	227.09
848.79	227.26
849.10	227.30
849.42	227.36
849.73	226.98
850.04	226.95
850.36	226.82
850.67	226.94
850.98	226.91
851.30	227.01
851.61	227.02
851.92	227.01
852.23	227.18
852.55	227.17
852.86	227.23
853.17	227.32
853.49	227.42
853.80	227.52
854.11	227.57
854.42	227.64
854.74	227.58
855.05	227.64
855.36	227.44
855.67	227.40
855.99	227.40
856.30	227.92
856.61	227.96
856.92	227.99
857.23	227.95
857.55	227.96
857.86	227.85
858.17	227.90
858.48	227.93
858.79	227.85
859.11	227.87
859.42	227.78
859.73	227.66
860.04	227.62
860.35	227.53
860.66	227.42
860.98	227.43
861.29	227.50
861.60	227.42
861.91	227.53
862.22	227.44
862.53	227.37
862.84	226.83
863.16	226.97
863.47	226.87
863.78	226.77
864.09	226.77
864.40	226.82
864.71	226.71
865.02	226.68
865.33	226.63
865.64	226.51
865.95	226.48
866.27	226.81
866.58	226.76
866.89	226.77
867.20	226.76
867.51	226.62
867.82	226.59
868.13	226.68
868.44	226.51
868.75	226.65
869.06	226.68
869.37	226.70
869.68	226.47
869.99	226.53
870.30	226.58
870.61	226.60
870.92	226.52
871.23	226.59
871.54	226.69
871.85	226.72
872.16	226.77
872.47	226.83
872.78	226.55
873.09	226.64
873.40	226.64
873.71	226.61
874.02	226.68
874.33	226.63
874.64	226.57
874.95	226.65
875.26	226.57
875.56	226.52
875.87	226.50
876.18	226.57
876.49	227.06
876.80	226.97
877.11	226.90
877.42	226.93
877.73	226.86
878.04	226.78
878.35	226.79
878.66	226.87
878.96	226.83
879.27	226.78
879.58	226.70
879.89	226.59
880.20	226.73
880.51	226.74
880.82	226.70
881.12	226.72
881.43	226.60
881.74	226.60
882.05	226.54
882.36	226.57
882.67	226.62
882.97	226.09
883.28	226.11
883.59	226.08
883.90	226.10
884.21	226.21
884.51	226.16
884.82	226.04
885.13	226.00
885.44	225.99
885.74	225.93
886.05	225.94
886.36	226.02
886.67	225.88
886.98	226.10
887.28	226.14
887.59	226.18
887.90	226.21
888.20	226.17
888.51	226.25
888.82	226.16
889.13	226.16
889.43	226.60
889.74	226.55
890.05	226.57
890.35	226.48
890.66	226.43
890.97	226.40
891.28	226.37
891.58	226.34
891.89	226.29
892.20	226.31
892.50	226.24
892.81	226.21
893.12	226.22
893.42	225.98
893.73	226.07
894.04	226.08
894.34	226.11
894.65	226.04
894.95	226.10
895.26	226.18
895.57	226.31
895.87	225.78
896.18	225.80
896.48	225.83
896.79	225.90
897.10	225.96
897.40	226.03
897.71	226.14
898.01	226.11
898.32	226.15
898.63	226.12
898.93	226.20
899.24	226.22
899.54	226.23
899.85	226.17
900.15	226.06
900.46	226.03
900.76	226.10
901.07	226.15
901.38	226.04
901.68	226.06
901.99	225.86
902.29	225.90
902.60	225.92
902.90	225.84
903.21	225.78
903.51	225.75
903.82	225.77
904.12	225.75
904.43	225.74
904.73	225.76
905.03	225.75
905.34	226.17
905.64	226.13
905.95	226.09
906.25	226.08
906.56	226.05
906.86	226.04
907.17	226.02
907.47	226.02
907.77	225.98
908.08	225.92
908.38	225.94
908.69	226.03
908.99	226.10
909.30	226.16
909.60	226.18
909.90	226.18
910.21	226.06
910.51	226.00
910.81	225.99
911.12	225.96
911.42	226.03
911.73	225.57
912.03	225.59
912.33	225.74
912.64	225.80
912.94	225.75
913.24	225.64
913.55	225.51
913.85	225.58
914.15	225.69
914.46	225.67
914.76	225.60
915.06	225.54
915.37	225.45
915.67	225.41
915.97	225.46
916.27	225.39
916.58	225.42
916.88	225.40
917.18	225.40
917.49	225.73
917.79	225.69
918.09	225.75
918.39	225.87
918.70	225.76
919.00	225.73
919.30	226.00
919.60	226.03
919.91	226.03
920.21	225.94
920.51	225.85
920.81	225.83
921.12	225.95
921.42	225.91
921.72	226.03
922.02	226.11
922.32	226.13
922.63	226.15
922.93	226.40
923.23	226.46
923.53	226.43
923.83	226.12
924.13	226.11
924.44	226.06
924.74	226.14
925.04	226.32
925.34	226.34
925.64	226.15
925.94	226.10
926.24	226.40
926.55	226.38
926.85	226.48
927.15	226.55
927.45	226.52
927.75	226.56
928.05	226.51
928.35	226.45
928.65	226.54
928.95	226.56
929.26	226.38
929.56	226.45
929.86	226.60
930.16	226.57
930.46	226.59
930.76	226.62
931.06	226.36
931.36	226.17
931.66	226.25
931.96	226.30
932.26	226.39
932.56	226.21
932.86	226.29
933.16	226.28
933.46	226.24
933.76	226.18
934.06	226.32
934.36	226.46
934.66	226.45
934.96	226.39
935.26	226.47
935.56	226.49
935.86	226.39
936.16	226.25
936.46	226.22
936.76	226.25
937.06	226.21
937.36	226.25
937.66	226.34
937.96	226.33
938.26	226.24
938.56	226.19
938.86	226.20
939.16	226.26
939.46	226.27
939.76	226.30
940.06	226.25
940.35	226.13
940.65	225.87
940.95	225.94
941.25	225.80
941.55	225.69
941.85	225.70
942.15	225.80
942.45	225.97
942.75	225.95
943.04	226.01
943.34	226.15
943.64	226.14
943.94	226.02
944.24	225.99
944.54	226.00
944.84	225.92
945.13	225.78
945.43	225.63
945.73	225.63
946.03	225.60
946.33	225.59
946.62	225.58
946.92	225.67
947.22	225.60
947.52	225.66
947.82	225.70
948.11	225.62
948.41	225.48
948.71	225.29
949.01	225.30
949.31	225.16
949.60	225.11
949.90	225.25
950.20	225.17
950.50	225.24
950.79	225.25
951.09	225.41
951.39	225.46
951.69	225.56
951.98	225.68
952.28	225.69
952.58	225.62
952.87	225.63
953.17	225.70
953.47	225.68
953.76	225.70
954.06	225.64
954.36	225.61
954.66	225.57
954.95	225.64
955.25	225.70
955.55	225.75
955.84	225.68
956.14	225.67
956.44	225.75
956.73	225.54
957.03	225.51
957.32	225.49
957.62	225.47
957.92	225.53
958.21	225.45
958.51	225.96
958.81	226.07
959.10	226.07
959.40	226.11
959.69	226.16
959.99	226.17
960.29	226.19
960.58	226.14
960.88	226.31
961.17	226.32
961.47	226.34
961.76	226.27
962.06	226.33
962.36	226.25
962.65	226.25
962.95	226.39
963.24	226.41
963.54	226.43
963.83	226.45
964.13	226.44
964.42	226.31
964.72	225.88
965.01	225.91
965.31	225.87
965.60	225.74
965.90	226.00
966.19	225.97
966.49	225.99
966.78	226.02
967.08	226.02
967.37	226.00
967.67	225.92
967.96	226.00
968.26	225.99
968.55	226.06
968.85	226.06
969.14	226.01
969.43	226.04
969.73	225.98
970.02	225.99
970.32	225.93
970.61	225.86
970.91	225.77
971.20	225.67
971.49	225.66
971.79	225.74
972.08	225.47
972.38	225.47
972.67	225.48
972.96	225.58
973.26	225.51
973.55	225.71
973.85	225.73
974.14	225.69
974.43	225.71
974.73	225.63
975.02	225.58
975.31	225.58
975.61	225.52
975.90	225.49
976.19	225.41
976.49	225.51
976.78	225.61
977.07	225.56
977.37	225.60
977.66	225.70
977.95	225.54
978.24	225.61
978.54	225.77
978.83	225.71
979.12	225.65
979.42	225.71
979.71	225.60
980.00	225.55
980.29	225.63
980.59	225.53
980.88	225.67
981.17	225.75
981.46	225.77
981.76	225.75
982.05	225.92
982.34	226.01
982.63	225.94
982.93	225.92
983.22	226.12
983.51	226.12
983.80	226.10
984.09	226.31
984.39	226.33
984.68	226.28
984.97	226.32
985.26	226.28
985.55	226.26
985.85	226.20
986.14	226.25
986.43	226.29
986.72	226.23
987.01	226.07
987.30	226.04
987.59	225.99
987.89	226.04
988.18	225.87
988.47	225.82
988.76	225.79
989.05	225.73
989.34	225.55
989.63	225.69
989.92	225.66
990.22	225.58
990.51	225.46
990.80	225.38
991.09	225.42
991.38	225.46
991.67	225.42
991.96	225.31
992.25	225.41
992.54	225.29
992.83	225.28
993.12	225.29
993.41	225.28
993.70	225.44
993.99	225.52
994.28	225.61
994.58	225.66
994.87	225.65
995.16	225.65
995.45	225.67
995.74	225.44
996.03	225.44
996.32	225.49
996.61	225.61
996.90	225.55
997.19	225.50
997.48	225.51
997.77	225.43
998.06	225.52
998.34	225.40
998.63	225.40
998.92	225.42
999.21	225.51
999.50	225.53
999.79	225.38
1000.08	225.35
1000.37	225.33
1000.66	225.24
1000.95	225.27
1001.24	225.34
1001.53	225.42
1001.82	225.50
1002.11	225.49
1002.40	225.51
1002.68	225.55
1002.97	225.93
1003.26	225.86
1003.55	225.79
1003.84	225.90
1004.13	226.07
1004.42	226.09
1004.71	226.11
1004.99	226.14
1005.28	226.24
1005.57	226.24
1005.86	226.21
1006.15	226.14
1006.44	226.06
1006.72	226.16
1007.01	226.14
1007.30	226.15
1007.59	226.06
1007.88	226.04
1008.17	226.03
1008.45	225.95
1008.74	225.73
1009.03	225.43
1009.32	225.46
1009.60	225.49
1009.89	225.36
1010.18	225.08
1010.47	225.03
1010.76	225.04
1011.04	225.02
1011.33	225.00
1011.62	225.09
1011.91	225.09
1012.19	225.17
1012.48	225.24
1012.77	225.31
1013.05	225.55
1013.34	225.54
1013.63	225.51
1013.92	225.57
1014.20	225.50
1014.49	225.58
1014.78	225.64
1015.06	225.53
1015.35	225.50
1015.64	225.49
1015.92	225.58
1016.21	225.70
1016.50	225.78
1016.78	225.84
1017.07	225.92
1017.36	225.77
1017.64	225.65
1017.93	225.73
1018.22	225.62
1018.50	225.64
1018.79	225.52
1019.08	225.25
1019.36	225.26
1019.65	225.29
1019.93	225.36
1020.22	225.54
1020.51	225.74
1020.79	225.69
1021.08	224.20
1021.36	226.05
1021.65	224.70
1021.94	224.70
1022.22	225.60
1022.51	225.40
1022.79	227.35
1023.08	227.45
1023.36	231.45
1023.65	223.95
>>>>>End Processed Spectral Data<<<<<
