SpectraSuite Data File
++++++++++++++++++++++++++++++++++++
Date: Wed Sep 04 17:52:38 EDT 2013
User: lab3
Dark Spectrum Present: Yes
Reference Spectrum Present: No
Number of Sampled Component Spectra: 1
Spectrometers: USB2E7196
Integration Time (usec): 170000 (USB2E7196)
Spectra Averaged: 20 (USB2E7196)
Boxcar Smoothing: 10 (USB2E7196)
Correct for Electrical Dark: No (USB2E7196)
Strobe/Lamp Enabled: No (USB2E7196)
Correct for Detector Non-linearity: No (USB2E7196)
Correct for Stray Light: No (USB2E7196)
Number of Pixels in Processed Spectrum: 2048
>>>>>Begin Processed Spectral Data<<<<<
339.09	0.00
339.48	213.40
339.86	214.50
340.24	216.25
340.63	217.95
341.01	226.75
341.39	220.10
341.78	221.85
342.16	224.55
342.54	223.70
342.93	212.65
343.31	223.40
343.69	223.94
344.07	224.44
344.46	224.97
344.84	225.36
345.22	225.29
345.60	225.62
345.99	225.79
346.37	225.83
346.75	225.94
347.13	225.97
347.52	226.11
347.90	226.28
348.28	226.36
348.66	226.39
349.05	226.27
349.43	226.37
349.81	226.42
350.19	226.55
350.57	226.53
350.96	226.61
351.34	226.66
351.72	226.73
352.10	226.79
352.48	226.70
352.87	226.75
353.25	226.86
353.63	226.81
354.01	226.91
354.39	227.01
354.77	227.06
355.15	227.29
355.54	227.26
355.92	227.11
356.30	227.13
356.68	227.57
357.06	227.58
357.44	227.54
357.82	227.59
358.20	228.03
358.58	228.10
358.97	228.09
359.35	228.25
359.73	228.41
360.11	228.45
360.49	228.54
360.87	228.53
361.25	228.64
361.63	228.89
362.01	228.88
362.39	228.93
362.77	229.03
363.15	229.02
363.53	229.13
363.91	229.25
364.29	229.35
364.67	228.89
365.05	228.94
365.43	229.08
365.81	229.14
366.19	228.98
366.57	229.27
366.95	229.35
367.33	229.20
367.71	229.23
368.09	229.35
368.47	229.44
368.85	229.46
369.23	229.51
369.61	229.35
369.99	229.56
370.37	229.65
370.75	229.90
371.13	229.78
371.51	229.67
371.89	229.65
372.27	229.61
372.65	229.68
373.03	229.65
373.41	229.61
373.78	229.60
374.16	229.32
374.54	229.03
374.92	228.88
375.30	228.89
375.68	228.67
376.06	228.59
376.44	228.41
376.82	228.41
377.19	228.30
377.57	228.26
377.95	227.95
378.33	227.77
378.71	227.39
379.09	227.39
379.47	227.38
379.84	227.24
380.22	227.13
380.60	226.92
380.98	226.83
381.36	226.71
381.73	226.58
382.11	226.60
382.49	226.57
382.87	226.46
383.25	226.39
383.62	226.89
384.00	226.78
384.38	226.76
384.76	226.79
385.13	226.92
385.51	226.80
385.89	226.77
386.27	226.75
386.64	226.71
387.02	226.66
387.40	226.55
387.78	226.51
388.15	226.51
388.53	226.53
388.91	226.51
389.29	226.43
389.66	226.48
390.04	226.40
390.42	226.48
390.79	226.53
391.17	226.58
391.55	226.07
391.92	226.11
392.30	226.19
392.68	226.05
393.05	225.99
393.43	226.03
393.81	226.03
394.18	225.96
394.56	226.00
394.94	226.06
395.31	226.00
395.69	226.23
396.06	226.31
396.44	226.40
396.82	226.38
397.19	226.71
397.57	226.76
397.95	226.84
398.32	226.78
398.70	226.86
399.07	226.96
399.45	227.04
399.82	227.06
400.20	227.03
400.58	227.20
400.95	227.12
401.33	227.37
401.70	227.87
402.08	228.05
402.45	228.18
402.83	228.40
403.20	228.59
403.58	228.71
403.95	228.94
404.33	229.18
404.71	229.47
405.08	229.86
405.46	230.10
405.83	230.39
406.21	230.59
406.58	230.92
406.96	231.19
407.33	231.54
407.70	231.97
408.08	232.78
408.45	233.20
408.83	233.63
409.20	233.99
409.58	234.13
409.95	234.70
410.33	235.23
410.70	235.68
411.08	236.43
411.45	236.94
411.82	237.57
412.20	238.24
412.57	239.16
412.95	239.55
413.32	240.40
413.69	241.24
414.07	242.20
414.44	243.11
414.82	244.17
415.19	245.34
415.56	246.50
415.94	247.44
416.31	248.86
416.68	250.38
417.06	251.86
417.43	253.48
417.81	255.12
418.18	256.99
418.55	258.96
418.93	260.91
419.30	262.96
419.67	265.07
420.04	267.35
420.42	269.57
420.79	272.59
421.16	275.27
421.54	278.31
421.91	281.26
422.28	284.35
422.66	287.58
423.03	291.04
423.40	294.39
423.77	298.00
424.15	301.54
424.52	305.29
424.89	309.51
425.26	313.55
425.64	317.40
426.01	321.51
426.38	325.79
426.75	330.31
427.13	334.96
427.50	339.65
427.87	344.60
428.24	349.54
428.61	353.98
428.99	359.34
429.36	364.75
429.73	370.31
430.10	375.85
430.47	381.44
430.85	386.92
431.22	393.14
431.59	399.92
431.96	406.16
432.33	413.03
432.70	419.63
433.08	427.30
433.45	434.66
433.82	442.04
434.19	450.33
434.56	458.40
434.93	466.10
435.30	473.92
435.68	482.42
436.05	490.86
436.42	499.21
436.79	506.82
437.16	515.14
437.53	523.82
437.90	532.50
438.27	541.26
438.64	550.39
439.01	558.46
439.38	565.60
439.75	572.77
440.13	580.79
440.50	588.37
440.87	594.52
441.24	600.91
441.61	607.89
441.98	612.82
442.35	618.48
442.72	624.40
443.09	630.29
443.46	633.67
443.83	636.06
444.20	638.10
444.57	640.97
444.94	642.03
445.31	643.22
445.68	644.45
446.05	644.46
446.42	643.03
446.79	641.86
447.16	640.19
447.53	638.78
447.90	635.11
448.27	631.39
448.64	626.52
449.01	622.76
449.37	616.57
449.74	610.67
450.11	603.93
450.48	596.24
450.85	588.19
451.22	581.51
451.59	574.78
451.96	568.45
452.33	560.07
452.70	552.71
453.07	544.02
453.43	535.06
453.80	526.71
454.17	518.68
454.54	510.91
454.91	502.80
455.28	494.92
455.65	487.36
456.02	480.63
456.38	474.30
456.75	466.57
457.12	460.03
457.49	453.84
457.86	447.50
458.23	442.44
458.59	436.79
458.96	430.98
459.33	425.87
459.70	420.86
460.07	417.01
460.43	412.37
460.80	408.08
461.17	404.33
461.54	400.32
461.91	396.51
462.27	392.56
462.64	389.20
463.01	385.65
463.38	382.45
463.74	378.40
464.11	375.38
464.48	372.86
464.85	370.07
465.21	367.81
465.58	365.55
465.95	362.62
466.32	360.41
466.68	358.10
467.05	355.99
467.42	353.82
467.78	351.42
468.15	349.31
468.52	347.79
468.88	345.54
469.25	343.67
469.62	342.23
469.98	340.71
470.35	339.33
470.72	337.90
471.08	336.21
471.45	335.02
471.82	333.87
472.18	332.35
472.55	331.40
472.92	329.99
473.28	328.83
473.65	327.68
474.02	326.52
474.38	325.64
474.75	324.83
475.11	323.94
475.48	323.30
475.85	322.69
476.21	322.04
476.58	321.61
476.94	321.08
477.31	320.49
477.67	319.99
478.04	319.60
478.41	319.39
478.77	319.61
479.14	319.28
479.50	319.05
479.87	319.16
480.23	319.14
480.60	319.18
480.96	319.36
481.33	319.87
481.69	320.08
482.06	320.30
482.42	320.52
482.79	320.86
483.15	321.31
483.52	321.96
483.88	322.40
484.25	322.97
484.61	323.69
484.98	324.45
485.34	325.44
485.71	326.36
486.07	327.37
486.44	328.11
486.80	329.29
487.17	330.49
487.53	331.84
487.90	333.20
488.26	334.87
488.62	336.42
488.99	337.82
489.35	339.66
489.72	341.54
490.08	343.64
490.44	345.54
490.81	347.78
491.17	349.97
491.54	352.53
491.90	355.11
492.26	357.83
492.63	360.59
492.99	363.40
493.36	366.48
493.72	369.79
494.08	373.11
494.45	376.80
494.81	380.70
495.17	384.53
495.54	388.77
495.90	393.04
496.26	397.51
496.63	402.20
496.99	407.00
497.35	412.13
497.72	417.38
498.08	422.90
498.44	428.41
498.80	434.54
499.17	440.40
499.53	446.56
499.89	453.22
500.26	460.05
500.62	467.07
500.98	474.63
501.34	481.98
501.71	489.83
502.07	497.60
502.43	505.61
502.79	513.96
503.16	522.67
503.52	531.58
503.88	540.78
504.24	550.41
504.60	560.41
504.97	570.71
505.33	581.08
505.69	592.25
506.05	603.26
506.41	614.28
506.78	625.92
507.14	638.00
507.50	650.22
507.86	662.90
508.22	675.97
508.59	688.86
508.95	702.47
509.31	716.50
509.67	730.67
510.03	744.83
510.39	759.49
510.75	774.41
511.12	789.64
511.48	805.17
511.84	820.81
512.20	836.58
512.56	852.71
512.92	869.45
513.28	886.09
513.64	903.38
514.00	920.67
514.37	938.39
514.73	956.43
515.09	974.52
515.45	992.81
515.81	1011.03
516.17	1029.96
516.53	1048.62
516.89	1067.25
517.25	1086.63
517.61	1107.14
517.97	1127.34
518.33	1147.12
518.69	1167.17
519.05	1187.52
519.41	1208.07
519.77	1229.04
520.13	1249.67
520.49	1270.06
520.85	1292.26
521.21	1313.49
521.57	1335.08
521.93	1356.06
522.29	1377.14
522.65	1397.82
523.01	1418.95
523.37	1439.53
523.73	1460.23
524.09	1481.00
524.45	1501.53
524.81	1522.13
525.17	1542.43
525.53	1562.97
525.89	1584.09
526.25	1604.84
526.61	1625.27
526.97	1646.32
527.33	1667.34
527.68	1688.95
528.04	1710.24
528.40	1729.86
528.76	1750.61
529.12	1770.99
529.48	1791.89
529.84	1811.88
530.20	1832.94
530.56	1853.49
530.91	1874.46
531.27	1894.94
531.63	1915.07
531.99	1935.50
532.35	1955.64
532.71	1975.61
533.07	1996.23
533.42	2015.69
533.78	2035.59
534.14	2055.34
534.50	2074.24
534.86	2093.30
535.21	2110.88
535.57	2129.35
535.93	2147.09
536.29	2164.74
536.65	2182.38
537.00	2199.43
537.36	2217.24
537.72	2233.64
538.08	2250.51
538.44	2266.98
538.79	2283.25
539.15	2299.58
539.51	2315.56
539.87	2330.31
540.22	2344.17
540.58	2358.48
540.94	2371.73
541.29	2384.30
541.65	2396.64
542.01	2409.03
542.37	2419.55
542.72	2430.40
543.08	2440.65
543.44	2452.15
543.79	2462.02
544.15	2472.02
544.51	2482.14
544.87	2491.50
545.22	2500.20
545.58	2508.06
545.94	2515.10
546.29	2521.50
546.65	2527.85
547.01	2533.57
547.36	2539.40
547.72	2545.17
548.07	2548.66
548.43	2554.16
548.79	2558.80
549.14	2562.78
549.50	2566.25
549.86	2570.60
550.21	2574.36
550.57	2577.84
550.92	2578.83
551.28	2580.16
551.64	2582.38
551.99	2584.10
552.35	2585.64
552.70	2587.81
553.06	2589.29
553.41	2590.67
553.77	2592.42
554.13	2593.73
554.48	2594.88
554.84	2595.77
555.19	2596.75
555.55	2598.82
555.90	2598.16
556.26	2597.10
556.61	2595.31
556.97	2593.23
557.32	2592.06
557.68	2590.86
558.03	2589.16
558.39	2587.80
558.74	2587.20
559.10	2583.88
559.45	2580.14
559.81	2575.50
560.16	2570.41
560.52	2565.24
560.87	2560.63
561.23	2555.00
561.58	2549.47
561.94	2542.51
562.29	2535.59
562.64	2528.61
563.00	2520.26
563.35	2513.20
563.71	2506.84
564.06	2500.63
564.42	2494.78
564.77	2487.56
565.12	2480.15
565.48	2472.76
565.83	2464.80
566.19	2456.22
566.54	2448.23
566.89	2440.09
567.25	2432.50
567.60	2425.09
567.96	2417.81
568.31	2409.78
568.66	2401.15
569.02	2392.10
569.37	2384.19
569.72	2376.65
570.08	2367.38
570.43	2357.70
570.78	2348.93
571.14	2338.99
571.49	2328.99
571.84	2319.11
572.20	2308.69
572.55	2298.51
572.90	2287.44
573.26	2277.27
573.61	2266.46
573.96	2255.55
574.31	2243.68
574.67	2232.07
575.02	2219.40
575.37	2206.60
575.72	2193.32
576.08	2181.32
576.43	2168.75
576.78	2155.57
577.13	2141.90
577.49	2129.30
577.84	2117.54
578.19	2105.09
578.54	2092.75
578.90	2081.25
579.25	2068.78
579.60	2056.38
579.95	2043.33
580.30	2030.39
580.66	2016.78
581.01	2003.46
581.36	1989.69
581.71	1977.27
582.06	1964.23
582.42	1951.81
582.77	1939.04
583.12	1927.28
583.47	1914.88
583.82	1902.77
584.17	1890.99
584.53	1879.09
584.88	1865.96
585.23	1852.60
585.58	1838.68
585.93	1825.67
586.28	1812.46
586.63	1798.70
586.98	1784.58
587.34	1771.37
587.69	1758.11
588.04	1745.79
588.39	1733.70
588.74	1721.56
589.09	1709.65
589.44	1696.75
589.79	1684.49
590.14	1672.60
590.49	1660.59
590.84	1648.73
591.19	1637.09
591.54	1624.71
591.89	1612.43
592.25	1602.46
592.60	1591.40
592.95	1580.18
593.30	1568.40
593.65	1556.15
594.00	1544.18
594.35	1534.19
594.70	1522.67
595.05	1511.57
595.40	1499.53
595.75	1487.62
596.10	1476.39
596.45	1464.75
596.80	1454.01
597.15	1442.63
597.50	1430.99
597.85	1419.77
598.19	1408.08
598.54	1396.18
598.89	1385.06
599.24	1374.84
599.59	1363.29
599.94	1352.53
600.29	1342.17
600.64	1332.01
600.99	1321.59
601.34	1312.12
601.69	1301.38
602.04	1291.60
602.39	1281.99
602.74	1273.08
603.08	1263.71
603.43	1254.33
603.78	1244.85
604.13	1235.35
604.48	1225.97
604.83	1216.48
605.18	1206.77
605.53	1197.52
605.87	1188.58
606.22	1180.06
606.57	1170.49
606.92	1161.05
607.27	1152.20
607.62	1143.47
607.96	1134.86
608.31	1127.03
608.66	1118.62
609.01	1109.92
609.36	1101.40
609.70	1092.65
610.05	1083.86
610.40	1075.58
610.75	1067.00
611.10	1058.44
611.44	1050.01
611.79	1041.68
612.14	1033.76
612.49	1025.82
612.83	1018.43
613.18	1010.65
613.53	1002.92
613.88	995.33
614.22	987.78
614.57	979.82
614.92	971.91
615.27	964.30
615.61	956.27
615.96	948.59
616.31	941.23
616.65	934.23
617.00	927.08
617.35	919.93
617.70	912.77
618.04	905.72
618.39	898.93
618.74	892.41
619.08	885.56
619.43	878.79
619.78	871.60
620.12	864.27
620.47	857.42
620.82	850.32
621.16	843.39
621.51	837.20
621.85	830.94
622.20	824.38
622.55	817.83
622.89	811.57
623.24	805.27
623.59	798.94
623.93	792.70
624.28	786.74
624.62	781.22
624.97	775.36
625.32	769.71
625.66	763.94
626.01	757.88
626.35	752.50
626.70	746.98
627.04	741.94
627.39	736.45
627.73	731.15
628.08	726.08
628.43	720.76
628.77	715.35
629.12	710.08
629.46	705.52
629.81	700.83
630.15	696.05
630.50	691.35
630.84	686.53
631.19	681.76
631.53	677.21
631.88	672.03
632.22	667.28
632.57	662.82
632.91	658.10
633.26	653.81
633.60	649.22
633.95	644.73
634.29	639.93
634.64	635.62
634.98	630.99
635.32	626.60
635.67	622.64
636.01	618.37
636.36	614.03
636.70	609.71
637.05	605.55
637.39	601.53
637.73	597.44
638.08	593.45
638.42	589.17
638.77	584.96
639.11	580.74
639.45	576.38
639.80	571.76
640.14	567.77
640.49	563.74
640.83	559.94
641.17	556.17
641.52	552.72
641.86	549.17
642.20	546.02
642.55	542.50
642.89	538.93
643.23	535.54
643.58	532.47
643.92	529.00
644.26	525.58
644.61	522.32
644.95	518.97
645.29	515.64
645.64	512.51
645.98	509.45
646.32	506.55
646.66	503.55
647.01	500.84
647.35	498.05
647.69	495.13
648.04	492.25
648.38	489.37
648.72	486.43
649.06	483.31
649.41	480.30
649.75	477.18
650.09	474.24
650.43	471.35
650.78	468.42
651.12	465.58
651.46	462.77
651.80	459.96
652.14	457.22
652.49	454.69
652.83	452.01
653.17	449.21
653.51	446.51
653.85	444.17
654.20	441.65
654.54	439.12
654.88	436.53
655.22	434.29
655.56	431.94
655.90	429.63
656.25	427.56
656.59	425.18
656.93	423.09
657.27	421.05
657.61	418.57
657.95	416.21
658.29	414.04
658.64	412.02
658.98	409.80
659.32	407.61
659.66	405.39
660.00	403.36
660.34	401.46
660.68	399.46
661.02	397.35
661.36	395.45
661.70	393.50
662.05	391.70
662.39	389.81
662.73	388.00
663.07	386.37
663.41	384.42
663.75	382.52
664.09	380.65
664.43	378.75
664.77	377.24
665.11	375.57
665.45	374.00
665.79	372.26
666.13	370.68
666.47	369.10
666.81	367.42
667.15	365.70
667.49	364.15
667.83	362.88
668.17	361.46
668.51	360.03
668.85	358.60
669.19	357.37
669.53	355.71
669.87	354.07
670.21	352.55
670.55	351.23
670.89	350.22
671.23	348.90
671.57	347.50
671.91	346.10
672.25	344.84
672.58	343.62
672.92	342.27
673.26	341.01
673.60	339.85
673.94	338.91
674.28	337.92
674.62	336.78
674.96	335.39
675.30	334.16
675.64	332.90
675.97	331.68
676.31	330.39
676.65	329.17
676.99	328.35
677.33	327.23
677.67	326.23
678.01	324.90
678.34	323.93
678.68	323.08
679.02	322.09
679.36	320.98
679.70	319.91
680.04	319.03
680.37	318.06
680.71	317.09
681.05	316.07
681.39	315.11
681.73	314.11
682.06	313.27
682.40	312.49
682.74	311.76
683.08	311.07
683.42	310.15
683.75	309.40
684.09	308.35
684.43	307.51
684.77	306.57
685.10	305.78
685.44	305.00
685.78	304.16
686.12	303.38
686.45	302.64
686.79	301.79
687.13	301.04
687.46	300.25
687.80	299.48
688.14	298.63
688.48	297.92
688.81	297.20
689.15	296.59
689.49	295.69
689.82	294.99
690.16	294.14
690.50	293.46
690.83	292.75
691.17	292.05
691.51	291.33
691.84	290.69
692.18	290.05
692.52	289.30
692.85	288.67
693.19	288.16
693.52	287.60
693.86	286.96
694.20	286.35
694.53	285.79
694.87	285.09
695.21	284.48
695.54	283.83
695.88	283.14
696.21	282.30
696.55	281.79
696.88	281.09
697.22	280.48
697.56	279.91
697.89	279.34
698.23	278.90
698.56	278.31
698.90	277.83
699.23	277.21
699.57	276.78
699.90	276.16
700.24	275.47
700.58	274.94
700.91	274.51
701.25	274.41
701.58	274.26
701.92	273.86
702.25	273.40
702.59	272.89
702.92	272.48
703.26	272.13
703.59	271.71
703.93	271.70
704.26	271.27
704.60	270.92
704.93	270.50
705.26	269.94
705.60	269.62
705.93	269.00
706.27	268.73
706.60	268.40
706.94	268.20
707.27	267.85
707.61	267.46
707.94	267.07
708.27	266.27
708.61	265.44
708.94	265.09
709.28	264.70
709.61	264.32
709.94	263.94
710.28	263.54
710.61	263.10
710.95	262.30
711.28	262.29
711.61	261.84
711.95	261.52
712.28	261.22
712.61	260.91
712.95	260.91
713.28	260.74
713.61	260.27
713.95	259.83
714.28	259.54
714.61	259.19
714.95	258.84
715.28	258.51
715.61	258.29
715.95	257.94
716.28	257.54
716.61	257.26
716.95	256.91
717.28	256.65
717.61	256.35
717.94	256.07
718.28	255.36
718.61	255.10
718.94	254.77
719.27	254.46
719.61	254.10
719.94	253.65
720.27	253.13
720.60	252.87
720.94	252.62
721.27	252.45
721.60	252.23
721.93	252.00
722.27	251.89
722.60	251.71
722.93	251.43
723.26	251.30
723.59	251.03
723.93	250.93
724.26	250.75
724.59	250.60
724.92	250.45
725.25	250.44
725.59	250.27
725.92	250.13
726.25	250.00
726.58	249.84
726.91	249.67
727.24	249.61
727.57	249.39
727.91	249.14
728.24	248.95
728.57	248.76
728.90	248.59
729.23	248.23
729.56	248.29
729.89	248.15
730.22	247.96
730.55	247.91
730.89	247.69
731.22	247.50
731.55	247.26
731.88	247.06
732.21	246.86
732.54	246.59
732.87	246.45
733.20	246.28
733.53	246.16
733.86	246.09
734.19	245.82
734.52	245.75
734.85	245.98
735.18	245.73
735.51	245.76
735.84	245.67
736.17	245.63
736.50	245.17
736.83	245.61
737.16	245.51
737.49	245.29
737.82	245.06
738.15	244.98
738.48	244.80
738.81	244.65
739.14	244.38
739.47	244.27
739.80	244.09
740.13	244.00
740.46	243.75
740.79	243.49
741.12	243.39
741.45	243.14
741.78	242.56
742.11	242.55
742.44	242.26
742.77	242.19
743.10	242.02
743.43	241.88
743.75	241.16
744.08	241.58
744.41	241.33
744.74	241.26
745.07	240.96
745.40	240.94
745.73	241.01
746.06	240.87
746.39	240.79
746.71	240.56
747.04	240.33
747.37	240.16
747.70	240.15
748.03	240.01
748.36	239.99
748.68	239.94
749.01	239.65
749.34	239.45
749.67	239.30
750.00	239.16
750.33	239.41
750.65	239.40
750.98	238.78
751.31	238.76
751.64	238.62
751.97	238.80
752.29	238.64
752.62	238.24
752.95	238.16
753.28	237.99
753.60	238.00
753.93	238.03
754.26	238.02
754.59	237.66
754.91	237.53
755.24	237.40
755.57	237.36
755.90	237.27
756.22	237.24
756.55	237.02
756.88	236.88
757.20	236.50
757.53	236.21
757.86	235.98
758.19	235.89
758.51	235.76
758.84	235.48
759.17	235.36
759.49	235.34
759.82	235.43
760.15	235.33
760.47	235.25
760.80	235.04
761.13	235.00
761.45	235.03
761.78	234.91
762.11	234.86
762.43	234.70
762.76	234.68
763.08	234.61
763.41	234.64
763.74	234.54
764.06	234.46
764.39	234.50
764.71	234.54
765.04	234.41
765.37	234.39
765.69	234.27
766.02	234.18
766.34	234.04
766.67	233.79
767.00	233.85
767.32	233.97
767.65	234.22
767.97	234.15
768.30	234.10
768.62	234.07
768.95	233.97
769.27	233.88
769.60	233.77
769.92	233.67
770.25	233.53
770.57	233.41
770.90	233.26
771.22	233.12
771.55	233.02
771.87	233.06
772.20	233.03
772.52	233.36
772.85	233.96
773.17	234.00
773.50	233.96
773.82	233.81
774.15	233.58
774.47	233.21
774.80	233.17
775.12	233.13
775.45	233.05
775.77	233.03
776.09	233.02
776.42	233.05
776.74	233.14
777.07	233.11
777.39	233.13
777.72	233.13
778.04	233.11
778.36	233.00
778.69	232.95
779.01	232.94
779.33	232.48
779.66	231.84
779.98	231.75
780.31	231.73
780.63	231.94
780.95	231.96
781.28	231.92
781.60	231.74
781.92	231.70
782.25	231.67
782.57	231.66
782.89	231.61
783.22	231.49
783.54	231.35
783.86	231.32
784.19	231.33
784.51	231.39
784.83	231.33
785.16	231.27
785.48	231.27
785.80	231.16
786.12	231.26
786.45	231.26
786.77	231.28
787.09	231.25
787.42	231.00
787.74	230.91
788.06	230.91
788.38	230.96
788.71	230.83
789.03	230.86
789.35	230.80
789.67	230.67
789.99	230.72
790.32	230.63
790.64	230.69
790.96	230.96
791.28	230.77
791.61	230.71
791.93	230.72
792.25	230.56
792.57	230.90
792.89	230.70
793.21	230.68
793.54	230.50
793.86	230.39
794.18	230.37
794.50	230.29
794.82	230.29
795.14	230.20
795.47	230.28
795.79	230.29
796.11	230.12
796.43	230.17
796.75	230.21
797.07	230.21
797.39	230.17
797.71	229.75
798.04	229.78
798.36	229.83
798.68	229.83
799.00	229.85
799.32	229.52
799.64	229.62
799.96	229.57
800.28	229.69
800.60	229.61
800.92	229.60
801.24	229.55
801.56	229.51
801.89	229.55
802.21	229.60
802.53	229.46
802.85	229.63
803.17	229.76
803.49	229.58
803.81	229.51
804.13	229.42
804.45	229.32
804.77	229.32
805.09	229.33
805.41	229.22
805.73	229.17
806.05	229.05
806.37	229.00
806.69	228.98
807.01	228.95
807.33	229.03
807.65	228.85
807.97	229.06
808.28	229.00
808.60	228.90
808.92	228.83
809.24	229.12
809.56	229.05
809.88	228.97
810.20	228.97
810.52	229.06
810.84	229.03
811.16	229.06
811.48	229.05
811.80	229.21
812.12	229.23
812.43	229.31
812.75	229.39
813.07	229.29
813.39	229.32
813.71	229.25
814.03	229.23
814.35	229.22
814.67	228.97
814.98	228.95
815.30	228.97
815.62	228.87
815.94	228.52
816.26	228.70
816.58	228.53
816.89	228.53
817.21	228.45
817.53	228.35
817.85	228.43
818.17	228.37
818.48	228.09
818.80	228.17
819.12	228.05
819.44	227.99
819.76	228.00
820.07	227.97
820.39	227.93
820.71	227.90
821.03	228.01
821.34	228.04
821.66	228.10
821.98	228.13
822.30	228.18
822.61	228.51
822.93	228.34
823.25	228.35
823.57	228.37
823.88	228.40
824.20	228.43
824.52	228.42
824.83	228.45
825.15	228.41
825.47	228.43
825.79	228.46
826.10	228.38
826.42	228.33
826.74	228.32
827.05	228.35
827.37	228.35
827.69	228.26
828.00	228.23
828.32	228.24
828.64	228.09
828.95	228.31
829.27	228.12
829.58	228.01
829.90	228.11
830.22	228.08
830.53	227.94
830.85	227.87
831.17	227.79
831.48	227.78
831.80	227.82
832.11	227.71
832.43	227.60
832.75	227.58
833.06	227.82
833.38	227.64
833.69	227.58
834.01	227.58
834.32	227.61
834.64	227.54
834.96	227.52
835.27	227.55
835.59	227.28
835.90	227.23
836.22	227.17
836.53	227.04
836.85	226.94
837.16	227.46
837.48	227.53
837.79	227.69
838.11	227.78
838.42	227.74
838.74	227.76
839.05	227.74
839.37	227.68
839.68	227.44
840.00	227.50
840.31	227.50
840.63	227.49
840.94	227.40
841.26	227.40
841.57	227.36
841.88	227.35
842.20	227.33
842.51	227.21
842.83	227.28
843.14	227.74
843.46	227.82
843.77	227.48
844.08	227.42
844.40	227.23
844.71	227.10
845.03	227.11
845.34	227.07
845.65	227.09
845.97	227.19
846.28	227.22
846.60	227.22
846.91	227.17
847.22	227.19
847.54	227.32
847.85	227.36
848.16	227.33
848.48	227.33
848.79	227.51
849.10	227.56
849.42	227.56
849.73	227.10
850.04	227.02
850.36	226.90
850.67	227.01
850.98	227.06
851.30	227.10
851.61	227.07
851.92	227.13
852.23	227.31
852.55	227.32
852.86	227.32
853.17	227.37
853.49	227.49
853.80	227.57
854.11	227.54
854.42	227.51
854.74	227.51
855.05	227.50
855.36	227.32
855.67	227.39
855.99	227.35
856.30	227.94
856.61	227.98
856.92	228.02
857.23	228.00
857.55	227.97
857.86	227.91
858.17	228.00
858.48	227.85
858.79	227.71
859.11	227.76
859.42	227.75
859.73	227.65
860.04	227.65
860.35	227.48
860.66	227.34
860.98	227.39
861.29	227.45
861.60	227.39
861.91	227.43
862.22	227.32
862.53	227.22
862.84	226.62
863.16	226.67
863.47	226.57
863.78	226.53
864.09	226.52
864.40	226.52
864.71	226.54
865.02	226.60
865.33	226.50
865.64	226.43
865.95	226.43
866.27	226.76
866.58	226.76
866.89	226.81
867.20	226.81
867.51	226.73
867.82	226.62
868.13	226.81
868.44	226.65
868.75	226.72
869.06	226.76
869.37	226.77
869.68	226.66
869.99	226.80
870.30	226.79
870.61	226.80
870.92	226.74
871.23	226.66
871.54	226.71
871.85	226.90
872.16	226.95
872.47	226.86
872.78	226.55
873.09	226.55
873.40	226.51
873.71	226.62
874.02	226.67
874.33	226.68
874.64	226.58
874.95	226.73
875.26	226.68
875.56	226.69
875.87	226.66
876.18	226.64
876.49	227.08
876.80	227.03
877.11	226.94
877.42	226.94
877.73	226.96
878.04	226.92
878.35	226.90
878.66	226.87
878.96	226.88
879.27	226.90
879.58	226.88
879.89	226.75
880.20	226.86
880.51	226.81
880.82	226.82
881.12	226.80
881.43	226.63
881.74	226.58
882.05	226.50
882.36	226.58
882.67	226.64
882.97	226.07
883.28	226.02
883.59	226.07
883.90	226.19
884.21	226.23
884.51	226.19
884.82	226.08
885.13	226.06
885.44	226.12
885.74	226.10
886.05	226.12
886.36	226.23
886.67	226.10
886.98	226.34
887.28	226.28
887.59	226.35
887.90	226.42
888.20	226.39
888.51	226.51
888.82	226.38
889.13	226.36
889.43	226.78
889.74	226.78
890.05	226.74
890.35	226.76
890.66	226.75
890.97	226.64
891.28	226.61
891.58	226.57
891.89	226.56
892.20	226.55
892.50	226.46
892.81	226.42
893.12	226.35
893.42	226.20
893.73	226.26
894.04	226.19
894.34	226.21
894.65	226.25
894.95	226.21
895.26	226.32
895.57	226.55
895.87	226.12
896.18	226.23
896.48	226.31
896.79	226.19
897.10	226.20
897.40	226.30
897.71	226.47
898.01	226.50
898.32	226.53
898.63	226.49
898.93	226.50
899.24	226.55
899.54	226.56
899.85	226.49
900.15	226.52
900.46	226.51
900.76	226.50
901.07	226.46
901.38	226.47
901.68	226.51
901.99	226.25
902.29	226.25
902.60	226.23
902.90	226.10
903.21	226.11
903.51	226.13
903.82	226.24
904.12	226.18
904.43	226.24
904.73	226.20
905.03	226.24
905.34	226.70
905.64	226.63
905.95	226.60
906.25	226.57
906.56	226.55
906.86	226.53
907.17	226.55
907.47	226.61
907.77	226.53
908.08	226.36
908.38	226.43
908.69	226.47
908.99	226.51
909.30	226.53
909.60	226.57
909.90	226.54
910.21	226.35
910.51	226.24
910.81	226.20
911.12	226.25
911.42	226.25
911.73	225.76
912.03	225.84
912.33	225.93
912.64	225.91
912.94	225.88
913.24	225.83
913.55	225.78
913.85	225.73
914.15	225.82
914.46	225.90
914.76	225.91
915.06	225.88
915.37	225.78
915.67	225.76
915.97	225.69
916.27	225.59
916.58	225.67
916.88	225.64
917.18	225.61
917.49	225.84
917.79	225.83
918.09	225.89
918.39	225.97
918.70	225.92
919.00	226.00
919.30	226.13
919.60	226.11
919.91	226.12
920.21	226.16
920.51	226.11
920.81	226.07
921.12	226.09
921.42	226.05
921.72	226.11
922.02	226.18
922.32	226.29
922.63	226.30
922.93	226.48
923.23	226.46
923.53	226.47
923.83	226.20
924.13	226.19
924.44	226.20
924.74	226.25
925.04	226.44
925.34	226.40
925.64	226.19
925.94	226.18
926.24	226.54
926.55	226.51
926.85	226.59
927.15	226.68
927.45	226.71
927.75	226.76
928.05	226.81
928.35	226.81
928.65	226.88
928.95	226.98
929.26	226.76
929.56	226.92
929.86	226.96
930.16	226.96
930.46	227.00
930.76	227.07
931.06	226.85
931.36	226.66
931.66	226.73
931.96	226.92
932.26	226.98
932.56	226.74
932.86	226.79
933.16	226.79
933.46	226.74
933.76	226.68
934.06	226.85
934.36	226.99
934.66	226.97
934.96	226.90
935.26	226.90
935.56	227.01
935.86	226.85
936.16	226.78
936.46	226.77
936.76	226.78
937.06	226.69
937.36	226.71
937.66	226.86
937.96	226.80
938.26	226.65
938.56	226.63
938.86	226.62
939.16	226.70
939.46	226.75
939.76	226.70
940.06	226.68
940.35	226.47
940.65	226.20
940.95	226.18
941.25	226.08
941.55	226.03
941.85	226.03
942.15	226.21
942.45	226.34
942.75	226.25
943.04	226.25
943.34	226.34
943.64	226.34
943.94	226.13
944.24	226.15
944.54	226.21
944.84	226.20
945.13	226.11
945.43	226.09
945.73	226.01
946.03	225.95
946.33	225.92
946.62	225.94
946.92	226.01
947.22	226.07
947.52	226.00
947.82	225.99
948.11	225.91
948.41	225.83
948.71	225.70
949.01	225.80
949.31	225.74
949.60	225.69
949.90	225.79
950.20	225.81
950.50	225.82
950.79	225.76
951.09	225.85
951.39	225.89
951.69	225.80
951.98	225.92
952.28	226.01
952.58	225.96
952.87	225.93
953.17	225.97
953.47	225.96
953.76	226.06
954.06	226.07
954.36	226.03
954.66	225.99
954.95	226.11
955.25	226.17
955.55	226.19
955.84	226.14
956.14	226.17
956.44	226.27
956.73	226.16
957.03	226.26
957.32	226.21
957.62	226.15
957.92	226.24
958.21	226.19
958.51	226.67
958.81	226.80
959.10	226.88
959.40	227.00
959.69	226.95
959.99	226.96
960.29	226.94
960.58	226.92
960.88	227.14
961.17	227.01
961.47	227.04
961.76	227.02
962.06	227.03
962.36	226.94
962.65	226.98
962.95	227.08
963.24	227.00
963.54	227.03
963.83	227.12
964.13	227.06
964.42	226.95
964.72	226.63
965.01	226.58
965.31	226.55
965.60	226.41
965.90	226.84
966.19	226.79
966.49	226.80
966.78	226.82
967.08	226.80
967.37	226.88
967.67	226.76
967.96	226.85
968.26	226.90
968.55	226.94
968.85	226.90
969.14	226.89
969.43	226.86
969.73	226.82
970.02	226.80
970.32	226.80
970.61	226.72
970.91	226.61
971.20	226.53
971.49	226.51
971.79	226.58
972.08	226.15
972.38	226.16
972.67	226.18
972.96	226.22
973.26	226.02
973.55	226.12
973.85	226.05
974.14	226.07
974.43	226.04
974.73	225.99
975.02	225.88
975.31	225.87
975.61	225.85
975.90	225.84
976.19	225.82
976.49	225.85
976.78	225.94
977.07	225.89
977.37	225.94
977.66	225.97
977.95	225.90
978.24	225.91
978.54	226.04
978.83	225.94
979.12	225.96
979.42	225.99
979.71	225.92
980.00	225.98
980.29	225.93
980.59	225.83
980.88	225.96
981.17	226.06
981.46	226.03
981.76	226.04
982.05	226.15
982.34	226.10
982.63	226.03
982.93	226.06
983.22	226.27
983.51	226.28
983.80	226.35
984.09	226.28
984.39	226.28
984.68	226.18
984.97	226.24
985.26	226.16
985.55	226.15
985.85	226.14
986.14	226.30
986.43	226.33
986.72	226.31
987.01	226.10
987.30	226.01
987.59	226.00
987.89	226.00
988.18	225.82
988.47	225.80
988.76	225.77
989.05	225.69
989.34	225.47
989.63	225.63
989.92	225.53
990.22	225.56
990.51	225.52
990.80	225.47
991.09	225.54
991.38	225.60
991.67	225.62
991.96	225.49
992.25	225.32
992.54	225.23
992.83	225.34
993.12	225.41
993.41	225.43
993.70	225.59
993.99	225.75
994.28	225.87
994.58	226.00
994.87	225.89
995.16	225.89
995.45	225.91
995.74	225.75
996.03	225.82
996.32	225.89
996.61	226.01
996.90	226.03
997.19	225.96
997.48	225.98
997.77	225.91
998.06	225.95
998.34	225.97
998.63	225.96
998.92	225.98
999.21	226.00
999.50	226.07
999.79	225.85
1000.08	225.80
1000.37	225.85
1000.66	225.74
1000.95	225.93
1001.24	225.94
1001.53	226.09
1001.82	226.09
1002.11	226.02
1002.40	226.09
1002.68	226.22
1002.97	226.56
1003.26	226.51
1003.55	226.44
1003.84	226.48
1004.13	226.67
1004.42	226.68
1004.71	226.71
1004.99	226.66
1005.28	226.79
1005.57	226.80
1005.86	226.85
1006.15	226.80
1006.44	226.65
1006.72	226.73
1007.01	226.67
1007.30	226.72
1007.59	226.62
1007.88	226.64
1008.17	226.62
1008.45	226.56
1008.74	226.39
1009.03	226.12
1009.32	226.17
1009.60	226.17
1009.89	226.09
1010.18	225.89
1010.47	225.86
1010.76	225.91
1011.04	225.93
1011.33	226.01
1011.62	225.97
1011.91	225.99
1012.19	226.02
1012.48	226.09
1012.77	226.11
1013.05	226.36
1013.34	226.37
1013.63	226.32
1013.92	226.25
1014.20	226.22
1014.49	226.27
1014.78	226.29
1015.06	226.19
1015.35	226.13
1015.64	226.20
1015.92	226.32
1016.21	226.35
1016.50	226.35
1016.78	226.40
1017.07	226.43
1017.36	226.30
1017.64	226.25
1017.93	226.30
1018.22	226.16
1018.50	226.15
1018.79	226.10
1019.08	225.80
1019.36	225.81
1019.65	225.73
1019.93	225.94
1020.22	226.05
1020.51	226.20
1020.79	226.14
1021.08	224.05
1021.36	225.55
1021.65	226.00
1021.94	224.55
1022.22	226.30
1022.51	224.35
1022.79	228.70
1023.08	227.35
1023.36	231.30
1023.65	224.90
>>>>>End Processed Spectral Data<<<<<
