SpectraSuite Data File
++++++++++++++++++++++++++++++++++++
Date: Wed Sep 04 17:58:57 EDT 2013
User: lab3
Dark Spectrum Present: Yes
Reference Spectrum Present: No
Number of Sampled Component Spectra: 1
Spectrometers: USB2E7196
Integration Time (usec): 170000 (USB2E7196)
Spectra Averaged: 20 (USB2E7196)
Boxcar Smoothing: 10 (USB2E7196)
Correct for Electrical Dark: No (USB2E7196)
Strobe/Lamp Enabled: No (USB2E7196)
Correct for Detector Non-linearity: No (USB2E7196)
Correct for Stray Light: No (USB2E7196)
Number of Pixels in Processed Spectrum: 2048
>>>>>Begin Processed Spectral Data<<<<<
339.09	0.00
339.48	212.00
339.86	215.15
340.24	215.85
340.63	217.10
341.01	227.20
341.39	220.55
341.78	222.15
342.16	224.35
342.54	223.95
342.93	212.74
343.31	223.38
343.69	224.01
344.07	224.43
344.46	224.83
344.84	225.25
345.22	225.20
345.60	225.45
345.99	225.63
346.37	225.73
346.75	225.81
347.13	225.86
347.52	225.89
347.90	226.12
348.28	226.10
348.66	226.18
349.05	226.15
349.43	226.20
349.81	226.24
350.19	226.33
350.57	226.36
350.96	226.46
351.34	226.69
351.72	226.75
352.10	226.85
352.48	226.90
352.87	226.88
353.25	226.92
353.63	226.93
354.01	226.93
354.39	227.01
354.77	227.16
355.15	227.29
355.54	227.25
355.92	227.16
356.30	227.33
356.68	227.76
357.06	227.78
357.44	227.82
357.82	227.84
358.20	228.24
358.58	228.28
358.97	228.39
359.35	228.45
359.73	228.58
360.11	228.68
360.49	228.76
360.87	228.86
361.25	228.96
361.63	229.22
362.01	229.39
362.39	229.39
362.77	229.37
363.15	229.43
363.53	229.49
363.91	229.47
364.29	229.41
364.67	228.98
365.05	229.00
365.43	229.10
365.81	229.27
366.19	229.14
366.57	229.33
366.95	229.29
367.33	229.18
367.71	229.17
368.09	229.28
368.47	229.33
368.85	229.27
369.23	229.38
369.61	229.22
369.99	229.34
370.37	229.39
370.75	229.65
371.13	229.55
371.51	229.49
371.89	229.55
372.27	229.56
372.65	229.61
373.03	229.69
373.41	229.57
373.78	229.43
374.16	229.17
374.54	228.96
374.92	228.86
375.30	228.86
375.68	228.72
376.06	228.69
376.44	228.56
376.82	228.58
377.19	228.45
377.57	228.43
377.95	228.23
378.33	228.11
378.71	227.76
379.09	227.73
379.47	227.76
379.84	227.65
380.22	227.54
380.60	227.35
380.98	227.16
381.36	227.20
381.73	227.13
382.11	227.17
382.49	227.10
382.87	227.01
383.25	226.92
383.62	227.50
384.00	227.30
384.38	227.27
384.76	227.37
385.13	227.51
385.51	227.38
385.89	227.25
386.27	227.27
386.64	227.20
387.02	227.12
387.40	227.07
387.78	226.95
388.15	226.92
388.53	226.92
388.91	226.94
389.29	226.77
389.66	226.74
390.04	226.61
390.42	226.68
390.79	226.68
391.17	226.69
391.55	226.13
391.92	226.13
392.30	226.20
392.68	226.05
393.05	226.04
393.43	226.07
393.81	226.06
394.18	226.00
394.56	226.07
394.94	226.21
395.31	226.14
395.69	226.43
396.06	226.50
396.44	226.56
396.82	226.54
397.19	226.85
397.57	226.89
397.95	227.04
398.32	226.97
398.70	227.12
399.07	227.33
399.45	227.30
399.82	227.40
400.20	227.41
400.58	227.58
400.95	227.46
401.33	227.68
401.70	228.25
402.08	228.32
402.45	228.42
402.83	228.60
403.20	228.81
403.58	228.87
403.95	229.12
404.33	229.37
404.71	229.62
405.08	230.05
405.46	230.34
405.83	230.61
406.21	230.86
406.58	231.11
406.96	231.40
407.33	231.80
407.70	232.16
408.08	232.90
408.45	233.29
408.83	233.81
409.20	234.15
409.58	234.22
409.95	234.85
410.33	235.52
410.70	235.88
411.08	236.50
411.45	237.10
411.82	237.69
412.20	238.40
412.57	239.39
412.95	239.71
413.32	240.52
413.69	241.33
414.07	242.34
414.44	243.34
414.82	244.35
415.19	245.57
415.56	246.83
415.94	247.90
416.31	249.37
416.68	250.75
417.06	252.41
417.43	254.06
417.81	255.79
418.18	257.61
418.55	259.62
418.93	261.65
419.30	263.78
419.67	265.98
420.04	268.32
420.42	270.65
420.79	273.73
421.16	276.52
421.54	279.52
421.91	282.51
422.28	285.56
422.66	288.91
423.03	292.20
423.40	295.54
423.77	299.09
424.15	302.74
424.52	306.60
424.89	310.80
425.26	314.76
425.64	318.57
426.01	322.70
426.38	327.01
426.75	331.50
427.13	336.12
427.50	340.94
427.87	345.82
428.24	350.87
428.61	355.46
428.99	360.81
429.36	366.36
429.73	371.84
430.10	377.40
430.47	383.04
430.85	388.86
431.22	395.08
431.59	401.89
431.96	408.13
432.33	415.11
432.70	421.77
433.08	429.72
433.45	437.24
433.82	444.68
434.19	452.92
434.56	461.02
434.93	468.74
435.30	476.58
435.68	485.27
436.05	493.70
436.42	502.09
436.79	509.93
437.16	518.31
437.53	527.35
437.90	536.20
438.27	544.80
438.64	553.82
439.01	562.16
439.38	569.45
439.75	576.54
440.13	584.65
440.50	592.37
440.87	598.64
441.24	605.16
441.61	612.03
441.98	617.11
442.35	623.01
442.72	629.08
443.09	634.86
443.46	638.07
443.83	640.41
444.20	642.32
444.57	644.99
444.94	645.97
445.31	646.90
445.68	648.17
446.05	648.44
446.42	646.96
446.79	645.70
447.16	644.20
447.53	643.04
447.90	639.21
448.27	635.30
448.64	630.21
449.01	626.27
449.37	620.39
449.74	614.48
450.11	607.62
450.48	599.74
450.85	591.74
451.22	585.07
451.59	578.36
451.96	572.04
452.33	563.82
452.70	556.50
453.07	547.85
453.43	538.68
453.80	530.17
454.17	522.23
454.54	514.33
454.91	506.05
455.28	497.89
455.65	490.47
456.02	483.68
456.38	477.36
456.75	469.63
457.12	462.92
457.49	456.55
457.86	450.19
458.23	444.97
458.59	439.25
458.96	433.41
459.33	428.19
459.70	423.00
460.07	418.91
460.43	414.25
460.80	409.87
461.17	406.13
461.54	402.20
461.91	398.32
462.27	394.38
462.64	391.04
463.01	387.49
463.38	384.13
463.74	380.04
464.11	377.01
464.48	374.43
464.85	371.53
465.21	369.36
465.58	367.08
465.95	364.24
466.32	361.96
466.68	359.63
467.05	357.44
467.42	355.26
467.78	352.89
468.15	350.74
468.52	349.12
468.88	346.80
469.25	344.76
469.62	343.30
469.98	341.69
470.35	340.04
470.72	338.57
471.08	336.86
471.45	335.56
471.82	334.25
472.18	332.70
472.55	331.73
472.92	330.42
473.28	329.25
473.65	328.19
474.02	327.06
474.38	326.31
474.75	325.58
475.11	324.65
475.48	324.00
475.85	323.44
476.21	322.83
476.58	322.40
476.94	321.98
477.31	321.45
477.67	321.04
478.04	320.77
478.41	320.60
478.77	320.88
479.14	320.56
479.50	320.51
479.87	320.47
480.23	320.42
480.60	320.37
480.96	320.29
481.33	320.64
481.69	320.96
482.06	321.16
482.42	321.38
482.79	321.80
483.15	322.14
483.52	322.61
483.88	323.04
484.25	323.63
484.61	324.28
484.98	324.92
485.34	325.79
485.71	326.74
486.07	327.78
486.44	328.37
486.80	329.60
487.17	330.72
487.53	332.14
487.90	333.48
488.26	335.11
488.62	336.78
488.99	338.39
489.35	340.15
489.72	342.09
490.08	344.16
490.44	346.28
490.81	348.58
491.17	350.84
491.54	353.37
491.90	356.02
492.26	358.75
492.63	361.66
492.99	364.54
493.36	367.49
493.72	370.72
494.08	374.20
494.45	377.78
494.81	381.58
495.17	385.50
495.54	389.71
495.90	393.94
496.26	398.41
496.63	403.04
496.99	407.77
497.35	412.76
497.72	417.92
498.08	423.40
498.44	429.14
498.80	435.31
499.17	441.29
499.53	447.58
499.89	454.27
500.26	460.97
500.62	468.05
500.98	475.68
501.34	483.20
501.71	490.96
502.07	498.80
502.43	507.01
502.79	515.46
503.16	524.21
503.52	533.35
503.88	542.66
504.24	552.25
504.60	562.19
504.97	572.53
505.33	583.01
505.69	594.00
506.05	605.07
506.41	616.05
506.78	627.84
507.14	639.85
507.50	652.04
507.86	664.63
508.22	677.60
508.59	690.40
508.95	704.11
509.31	718.18
509.67	732.58
510.03	746.93
510.39	761.47
510.75	776.48
511.12	791.67
511.48	807.40
511.84	823.21
512.20	839.42
512.56	855.62
512.92	872.35
513.28	889.20
513.64	906.48
514.00	924.15
514.37	942.01
514.73	960.24
515.09	978.74
515.45	997.36
515.81	1015.76
516.17	1034.70
516.53	1053.43
516.89	1072.14
517.25	1091.56
517.61	1111.96
517.97	1132.50
518.33	1152.73
518.69	1173.15
519.05	1193.71
519.41	1214.65
519.77	1235.81
520.13	1256.89
520.49	1277.79
520.85	1300.25
521.21	1321.66
521.57	1343.05
521.93	1363.90
522.29	1385.02
522.65	1405.64
523.01	1426.77
523.37	1447.64
523.73	1468.78
524.09	1489.37
524.45	1510.47
524.81	1531.65
525.17	1552.29
525.53	1572.81
525.89	1593.70
526.25	1614.63
526.61	1635.25
526.97	1656.31
527.33	1677.47
527.68	1699.35
528.04	1720.75
528.40	1740.36
528.76	1761.47
529.12	1781.89
529.48	1802.84
529.84	1823.12
530.20	1844.55
530.56	1865.16
530.91	1886.03
531.27	1906.85
531.63	1927.86
531.99	1948.20
532.35	1968.10
532.71	1988.38
533.07	2009.16
533.42	2029.36
533.78	2049.45
534.14	2069.17
534.50	2088.55
534.86	2107.85
535.21	2125.43
535.57	2144.06
535.93	2161.87
536.29	2179.50
536.65	2197.63
537.00	2215.35
537.36	2232.68
537.72	2249.41
538.08	2266.61
538.44	2283.68
538.79	2299.89
539.15	2316.11
539.51	2332.58
539.87	2348.19
540.22	2362.74
540.58	2377.05
540.94	2390.09
541.29	2402.64
541.65	2415.52
542.01	2427.95
542.37	2438.63
542.72	2449.55
543.08	2460.28
543.44	2472.22
543.79	2482.55
544.15	2492.85
544.51	2502.95
544.87	2513.06
545.22	2521.64
545.58	2529.57
545.94	2536.75
546.29	2543.40
546.65	2549.68
547.01	2555.22
547.36	2560.43
547.72	2565.53
548.07	2569.77
548.43	2575.13
548.79	2580.27
549.14	2584.54
549.50	2588.30
549.86	2592.19
550.21	2596.28
550.57	2599.75
550.92	2601.04
551.28	2602.42
551.64	2604.56
551.99	2606.38
552.35	2607.85
552.70	2609.85
553.06	2611.55
553.41	2613.09
553.77	2614.91
554.13	2616.91
554.48	2618.42
554.84	2620.00
555.19	2621.37
555.55	2622.71
555.90	2622.13
556.26	2620.87
556.61	2619.15
556.97	2617.11
557.32	2616.55
557.68	2615.29
558.03	2613.79
558.39	2612.52
558.74	2611.68
559.10	2608.86
559.45	2605.30
559.81	2600.85
560.16	2595.88
560.52	2591.09
560.87	2586.69
561.23	2581.39
561.58	2575.42
561.94	2568.31
562.29	2560.96
562.64	2554.19
563.00	2546.34
563.35	2539.76
563.71	2533.28
564.06	2527.13
564.42	2520.55
564.77	2513.68
565.12	2506.35
565.48	2498.33
565.83	2490.34
566.19	2482.06
566.54	2473.94
566.89	2466.04
567.25	2458.61
567.60	2451.43
567.96	2443.72
568.31	2435.44
568.66	2426.81
569.02	2417.46
569.37	2409.66
569.72	2402.29
570.08	2392.85
570.43	2383.29
570.78	2374.36
571.14	2365.29
571.49	2355.11
571.84	2345.50
572.20	2334.43
572.55	2324.16
572.90	2313.36
573.26	2303.09
573.61	2292.40
573.96	2281.10
574.31	2268.97
574.67	2257.01
575.02	2244.27
575.37	2231.59
575.72	2218.34
576.08	2205.84
576.43	2193.48
576.78	2180.17
577.13	2166.12
577.49	2153.30
577.84	2141.44
578.19	2129.37
578.54	2116.10
578.90	2104.01
579.25	2091.67
579.60	2079.17
579.95	2066.10
580.30	2053.10
580.66	2039.70
581.01	2025.86
581.36	2012.05
581.71	1999.38
582.06	1986.13
582.42	1973.49
582.77	1960.86
583.12	1948.71
583.47	1936.41
583.82	1924.47
584.17	1912.49
584.53	1900.40
584.88	1887.52
585.23	1874.14
585.58	1859.71
585.93	1846.45
586.28	1833.16
586.63	1819.06
586.98	1804.97
587.34	1791.70
587.69	1778.48
588.04	1765.65
588.39	1753.48
588.74	1741.14
589.09	1729.04
589.44	1716.26
589.79	1704.02
590.14	1691.93
590.49	1679.86
590.84	1667.86
591.19	1655.57
591.54	1643.09
591.89	1631.13
592.25	1620.74
592.60	1609.19
592.95	1597.78
593.30	1585.95
593.65	1573.78
594.00	1561.81
594.35	1551.89
594.70	1539.87
595.05	1528.20
595.40	1516.15
595.75	1504.03
596.10	1492.77
596.45	1481.16
596.80	1470.29
597.15	1458.84
597.50	1446.84
597.85	1435.43
598.19	1423.50
598.54	1411.81
598.89	1400.68
599.24	1389.91
599.59	1378.05
599.94	1367.29
600.29	1356.73
600.64	1346.54
600.99	1335.80
601.34	1326.33
601.69	1314.92
602.04	1304.86
602.39	1295.20
602.74	1286.00
603.08	1276.62
603.43	1267.22
603.78	1257.33
604.13	1247.78
604.48	1238.06
604.83	1228.55
605.18	1218.73
605.53	1209.38
605.87	1200.21
606.22	1191.63
606.57	1182.35
606.92	1172.82
607.27	1163.65
607.62	1154.88
607.96	1146.18
608.31	1138.04
608.66	1129.34
609.01	1120.80
609.36	1112.44
609.70	1103.94
610.05	1095.28
610.40	1086.72
610.75	1077.88
611.10	1069.58
611.44	1060.96
611.79	1052.79
612.14	1044.89
612.49	1036.90
612.83	1029.44
613.18	1021.51
613.53	1013.52
613.88	1005.51
614.22	997.71
614.57	989.95
614.92	982.01
615.27	974.15
615.61	966.67
615.96	958.97
616.31	951.44
616.65	944.24
617.00	937.03
617.35	929.59
617.70	922.35
618.04	915.31
618.39	908.37
618.74	901.94
619.08	895.02
619.43	887.95
619.78	880.86
620.12	873.56
620.47	866.68
620.82	859.44
621.16	852.69
621.51	846.54
621.85	840.15
622.20	833.45
622.55	826.91
622.89	820.32
623.24	813.95
623.59	807.81
623.93	801.56
624.28	795.11
624.62	789.60
624.97	783.79
625.32	778.03
625.66	771.95
626.01	765.84
626.35	760.11
626.70	754.54
627.04	749.35
627.39	743.74
627.73	738.44
628.08	733.34
628.43	727.77
628.77	722.21
629.12	716.75
629.46	712.11
629.81	707.43
630.15	702.52
630.50	697.44
630.84	692.41
631.19	687.48
631.53	682.89
631.88	677.43
632.22	672.60
632.57	668.11
632.91	663.54
633.26	658.98
633.60	654.27
633.95	649.64
634.29	644.76
634.64	640.24
634.98	635.56
635.32	631.08
635.67	627.05
636.01	622.81
636.36	618.40
636.70	614.12
637.05	609.78
637.39	605.66
637.73	601.68
638.08	597.57
638.42	593.27
638.77	588.90
639.11	584.57
639.45	580.09
639.80	575.49
640.14	571.36
640.49	567.29
640.83	563.41
641.17	559.69
641.52	555.90
641.86	552.40
642.20	549.05
642.55	545.39
642.89	541.63
643.23	538.20
643.58	535.20
643.92	531.45
644.26	528.14
644.61	524.84
644.95	521.41
645.29	518.18
645.64	515.08
645.98	511.95
646.32	509.03
646.66	506.04
647.01	503.15
647.35	500.32
647.69	497.29
648.04	494.58
648.38	491.83
648.72	488.95
649.06	485.88
649.41	482.74
649.75	479.82
650.09	477.05
650.43	474.08
650.78	471.12
651.12	468.44
651.46	465.53
651.80	462.67
652.14	459.94
652.49	457.39
652.83	454.82
653.17	452.30
653.51	449.62
653.85	447.10
654.20	444.71
654.54	442.07
654.88	439.52
655.22	437.20
655.56	434.69
655.90	432.39
656.25	430.03
656.59	427.89
656.93	425.73
657.27	423.72
657.61	421.30
657.95	419.04
658.29	416.82
658.64	414.78
658.98	412.54
659.32	410.33
659.66	407.97
660.00	405.86
660.34	403.77
660.68	401.80
661.02	399.84
661.36	397.70
661.70	395.76
662.05	393.90
662.39	391.93
662.73	390.08
663.07	388.55
663.41	386.70
663.75	384.66
664.09	382.79
664.43	380.66
664.77	378.98
665.11	377.22
665.45	375.57
665.79	373.86
666.13	372.20
666.47	370.69
666.81	369.09
667.15	367.29
667.49	365.72
667.83	364.37
668.17	362.87
668.51	361.40
668.85	360.02
669.19	358.88
669.53	357.29
669.87	355.70
670.21	353.97
670.55	352.60
670.89	351.51
671.23	350.12
671.57	348.83
671.91	347.45
672.25	346.16
672.58	344.91
672.92	343.46
673.26	342.13
673.60	340.85
673.94	339.65
674.28	338.55
674.62	337.40
674.96	336.12
675.30	334.95
675.64	333.82
675.97	332.48
676.31	331.09
676.65	329.96
676.99	329.06
677.33	327.85
677.67	326.74
678.01	325.41
678.34	324.33
678.68	323.38
679.02	322.35
679.36	321.33
679.70	320.24
680.04	319.26
680.37	318.35
680.71	317.31
681.05	316.42
681.39	315.49
681.73	314.52
682.06	313.50
682.40	312.52
682.74	311.59
683.08	310.95
683.42	310.05
683.75	309.18
684.09	308.15
684.43	307.42
684.77	306.55
685.10	305.80
685.44	305.07
685.78	304.12
686.12	303.30
686.45	302.38
686.79	301.57
687.13	300.94
687.46	300.16
687.80	299.55
688.14	298.67
688.48	297.93
688.81	297.14
689.15	296.51
689.49	295.77
689.82	295.16
690.16	294.24
690.50	293.54
690.83	292.84
691.17	291.98
691.51	291.24
691.84	290.70
692.18	290.03
692.52	289.32
692.85	288.79
693.19	288.38
693.52	287.82
693.86	287.15
694.20	286.52
694.53	285.98
694.87	285.21
695.21	284.61
695.54	283.98
695.88	283.34
696.21	282.60
696.55	282.03
696.88	281.40
697.22	280.87
697.56	280.34
697.89	279.72
698.23	279.35
698.56	278.80
698.90	278.23
699.23	277.63
699.57	277.10
699.90	276.46
700.24	275.82
700.58	275.40
700.91	275.00
701.25	274.93
701.58	274.73
701.92	274.49
702.25	274.10
702.59	273.73
702.92	273.34
703.26	272.99
703.59	272.57
703.93	272.58
704.26	272.16
704.60	271.75
704.93	271.35
705.26	270.90
705.60	270.57
705.93	270.10
706.27	269.83
706.60	269.55
706.94	269.39
707.27	269.00
707.61	268.65
707.94	268.31
708.27	267.48
708.61	266.77
708.94	266.32
709.28	265.94
709.61	265.44
709.94	265.13
710.28	264.73
710.61	264.49
710.95	263.64
711.28	263.51
711.61	263.13
711.95	262.83
712.28	262.43
712.61	262.05
712.95	262.00
713.28	261.85
713.61	261.38
713.95	260.95
714.28	260.66
714.61	260.19
714.95	259.81
715.28	259.44
715.61	259.04
715.95	258.70
716.28	258.37
716.61	258.15
716.95	257.69
717.28	257.40
717.61	256.95
717.94	256.71
718.28	256.16
718.61	255.88
718.94	255.60
719.27	255.30
719.61	255.09
719.94	254.67
720.27	254.17
720.60	253.90
720.94	253.59
721.27	253.30
721.60	253.19
721.93	252.93
722.27	252.85
722.60	252.72
722.93	252.39
723.26	252.24
723.59	251.92
723.93	251.81
724.26	251.60
724.59	251.42
724.92	251.18
725.25	251.08
725.59	250.86
725.92	250.73
726.25	250.47
726.58	250.30
726.91	250.10
727.24	249.94
727.57	249.78
727.91	249.53
728.24	249.30
728.57	249.02
728.90	248.88
729.23	248.52
729.56	248.57
729.89	248.46
730.22	248.17
730.55	247.99
730.89	247.89
731.22	247.70
731.55	247.60
731.88	247.46
732.21	247.25
732.54	247.08
732.87	246.83
733.20	246.74
733.53	246.57
733.86	246.46
734.19	246.29
734.52	246.20
734.85	246.39
735.18	246.19
735.51	246.17
735.84	245.98
736.17	245.87
736.50	245.43
736.83	245.87
737.16	245.77
737.49	245.71
737.82	245.36
738.15	245.37
738.48	245.16
738.81	245.00
739.14	244.77
739.47	244.58
739.80	244.49
740.13	244.43
740.46	244.23
740.79	244.04
741.12	243.82
741.45	243.63
741.78	243.19
742.11	243.21
742.44	242.88
742.77	242.81
743.10	242.64
743.43	242.45
743.75	241.81
744.08	242.28
744.41	242.09
744.74	242.05
745.07	241.72
745.40	241.61
745.73	241.60
746.06	241.44
746.39	241.37
746.71	241.11
747.04	240.98
747.37	240.79
747.70	240.71
748.03	240.62
748.36	240.51
748.68	240.46
749.01	240.24
749.34	240.22
749.67	240.13
750.00	240.17
750.33	240.41
750.65	240.27
750.98	239.51
751.31	239.42
751.64	239.27
751.97	239.41
752.29	239.27
752.62	239.00
752.95	238.88
753.28	238.66
753.60	238.58
753.93	238.53
754.26	238.53
754.59	238.30
754.91	238.14
755.24	237.98
755.57	237.80
755.90	237.65
756.22	237.46
756.55	237.19
756.88	236.93
757.20	236.53
757.53	236.31
757.86	236.17
758.19	236.15
758.51	236.09
758.84	235.73
759.17	235.62
759.49	235.62
759.82	235.79
760.15	235.76
760.47	235.72
760.80	235.52
761.13	235.42
761.45	235.33
761.78	235.32
762.11	235.24
762.43	235.19
762.76	235.11
763.08	235.10
763.41	235.17
763.74	235.22
764.06	235.15
764.39	235.15
764.71	235.10
765.04	234.96
765.37	234.80
765.69	234.78
766.02	234.74
766.34	234.61
766.67	234.30
767.00	234.31
767.32	234.52
767.65	234.68
767.97	234.66
768.30	234.62
768.62	234.52
768.95	234.46
769.27	234.35
769.60	234.41
769.92	234.36
770.25	234.24
770.57	233.99
770.90	233.96
771.22	233.84
771.55	233.79
771.87	233.70
772.20	233.64
772.52	234.01
772.85	234.46
773.17	234.39
773.50	234.35
773.82	234.22
774.15	233.88
774.47	233.53
774.80	233.35
775.12	233.24
775.45	233.18
775.77	233.14
776.09	233.04
776.42	232.87
776.74	232.91
777.07	232.84
777.39	232.81
777.72	232.75
778.04	232.74
778.36	232.73
778.69	232.73
779.01	232.72
779.33	232.25
779.66	231.62
779.98	231.55
780.31	231.57
780.63	231.67
780.95	231.73
781.28	231.68
781.60	231.61
781.92	231.58
782.25	231.49
782.57	231.46
782.89	231.39
783.22	231.35
783.54	231.14
783.86	231.12
784.19	231.13
784.51	231.17
784.83	231.04
785.16	230.91
785.48	230.88
785.80	230.83
786.12	230.80
786.45	230.85
786.77	230.83
787.09	230.75
787.42	230.64
787.74	230.57
788.06	230.58
788.38	230.56
788.71	230.49
789.03	230.55
789.35	230.58
789.67	230.58
789.99	230.57
790.32	230.52
790.64	230.44
790.96	230.81
791.28	230.60
791.61	230.62
791.93	230.58
792.25	230.52
792.57	230.86
792.89	230.75
793.21	230.70
793.54	230.69
793.86	230.64
794.18	230.57
794.50	230.50
794.82	230.52
795.14	230.53
795.47	230.58
795.79	230.56
796.11	230.48
796.43	230.40
796.75	230.42
797.07	230.48
797.39	230.46
797.71	230.06
798.04	230.10
798.36	230.02
798.68	230.04
799.00	230.08
799.32	229.82
799.64	229.93
799.96	229.96
800.28	230.04
800.60	229.97
800.92	230.04
801.24	229.97
801.56	229.95
801.89	229.90
802.21	229.94
802.53	229.81
802.85	229.89
803.17	230.08
803.49	229.99
803.81	229.94
804.13	229.96
804.45	229.90
804.77	229.91
805.09	229.91
805.41	229.94
805.73	229.88
806.05	229.74
806.37	229.65
806.69	229.54
807.01	229.43
807.33	229.51
807.65	229.37
807.97	229.59
808.28	229.58
808.60	229.54
808.92	229.50
809.24	229.85
809.56	229.67
809.88	229.47
810.20	229.49
810.52	229.48
810.84	229.35
811.16	229.23
811.48	229.20
811.80	229.34
812.12	229.27
812.43	229.28
812.75	229.34
813.07	229.29
813.39	229.23
813.71	229.12
814.03	228.95
814.35	228.93
814.67	228.67
814.98	228.59
815.30	228.51
815.62	228.40
815.94	227.97
816.26	228.20
816.58	228.18
816.89	228.17
817.21	228.11
817.53	228.13
817.85	228.19
818.17	228.17
818.48	227.95
818.80	228.00
819.12	227.91
819.44	227.80
819.76	227.67
820.07	227.74
820.39	227.78
820.71	227.85
821.03	227.82
821.34	227.76
821.66	227.77
821.98	227.84
822.30	227.81
822.61	228.09
822.93	227.82
823.25	227.81
823.57	227.68
823.88	227.80
824.20	227.74
824.52	227.85
824.83	227.74
825.15	227.68
825.47	227.65
825.79	227.61
826.10	227.59
826.42	227.65
826.74	227.68
827.05	227.58
827.37	227.55
827.69	227.51
828.00	227.54
828.32	227.57
828.64	227.51
828.95	227.79
829.27	227.69
829.58	227.69
829.90	227.71
830.22	227.76
830.53	227.53
830.85	227.51
831.17	227.39
831.48	227.41
831.80	227.48
832.11	227.43
832.43	227.47
832.75	227.45
833.06	227.66
833.38	227.48
833.69	227.48
834.01	227.52
834.32	227.49
834.64	227.55
834.96	227.49
835.27	227.44
835.59	227.23
835.90	227.19
836.22	227.23
836.53	227.12
836.85	227.14
837.16	227.70
837.48	227.74
837.79	227.89
838.11	228.00
838.42	228.01
838.74	228.09
839.05	228.00
839.37	228.06
839.68	227.80
840.00	227.85
840.31	227.98
840.63	227.96
840.94	227.96
841.26	227.86
841.57	227.84
841.88	227.92
842.20	227.83
842.51	227.73
842.83	227.67
843.14	228.20
843.46	228.18
843.77	227.88
844.08	227.80
844.40	227.65
844.71	227.55
845.03	227.50
845.34	227.44
845.65	227.47
845.97	227.43
846.28	227.48
846.60	227.55
846.91	227.44
847.22	227.44
847.54	227.53
847.85	227.56
848.16	227.58
848.48	227.50
848.79	227.74
849.10	227.77
849.42	227.83
849.73	227.32
850.04	227.31
850.36	227.15
850.67	227.35
850.98	227.40
851.30	227.46
851.61	227.49
851.92	227.48
852.23	227.72
852.55	227.73
852.86	227.73
853.17	227.68
853.49	227.80
853.80	227.87
854.11	227.91
854.42	227.97
854.74	227.85
855.05	227.91
855.36	227.58
855.67	227.64
855.99	227.66
856.30	228.25
856.61	228.24
856.92	228.25
857.23	228.15
857.55	228.05
857.86	228.01
858.17	228.09
858.48	228.01
858.79	227.79
859.11	227.81
859.42	227.83
859.73	227.74
860.04	227.62
860.35	227.44
860.66	227.23
860.98	227.18
861.29	227.27
861.60	227.23
861.91	227.37
862.22	227.19
862.53	227.07
862.84	226.48
863.16	226.63
863.47	226.60
863.78	226.57
864.09	226.59
864.40	226.58
864.71	226.49
865.02	226.50
865.33	226.42
865.64	226.33
865.95	226.28
866.27	226.62
866.58	226.63
866.89	226.72
867.20	226.78
867.51	226.69
867.82	226.63
868.13	226.76
868.44	226.66
868.75	226.83
869.06	226.84
869.37	226.87
869.68	226.69
869.99	226.72
870.30	226.69
870.61	226.78
870.92	226.74
871.23	226.75
871.54	226.89
871.85	227.08
872.16	227.14
872.47	227.09
872.78	226.84
873.09	226.92
873.40	226.93
873.71	226.97
874.02	227.01
874.33	227.03
874.64	226.99
874.95	227.15
875.26	227.06
875.56	227.13
875.87	227.15
876.18	227.17
876.49	227.62
876.80	227.64
877.11	227.53
877.42	227.57
877.73	227.55
878.04	227.45
878.35	227.43
878.66	227.51
878.96	227.55
879.27	227.49
879.58	227.45
879.89	227.41
880.20	227.58
880.51	227.62
880.82	227.66
881.12	227.63
881.43	227.52
881.74	227.50
882.05	227.41
882.36	227.41
882.67	227.37
882.97	226.90
883.28	226.87
883.59	226.88
883.90	226.96
884.21	227.07
884.51	227.07
884.82	226.94
885.13	226.88
885.44	226.79
885.74	226.91
886.05	226.92
886.36	226.92
886.67	226.75
886.98	226.95
887.28	226.96
887.59	227.01
887.90	227.02
888.20	227.00
888.51	227.16
888.82	227.09
889.13	227.18
889.43	227.52
889.74	227.58
890.05	227.56
890.35	227.44
890.66	227.38
890.97	227.30
891.28	227.34
891.58	227.40
891.89	227.48
892.20	227.36
892.50	227.34
892.81	227.28
893.12	227.25
893.42	227.09
893.73	227.10
894.04	227.10
894.34	227.10
894.65	227.07
894.95	226.96
895.26	226.92
895.57	227.13
895.87	226.73
896.18	226.74
896.48	226.73
896.79	226.77
897.10	226.77
897.40	226.82
897.71	226.79
898.01	226.82
898.32	226.85
898.63	226.90
898.93	226.91
899.24	226.88
899.54	226.90
899.85	226.83
900.15	226.81
900.46	226.79
900.76	226.87
901.07	226.91
901.38	226.87
901.68	227.04
901.99	226.82
902.29	226.79
902.60	226.75
902.90	226.80
903.21	226.77
903.51	226.87
903.82	226.99
904.12	227.05
904.43	226.98
904.73	226.96
905.03	226.91
905.34	227.35
905.64	227.42
905.95	227.41
906.25	227.43
906.56	227.42
906.86	227.40
907.17	227.35
907.47	227.34
907.77	227.25
908.08	227.12
908.38	227.15
908.69	227.28
908.99	227.30
909.30	227.25
909.60	227.25
909.90	227.14
910.21	226.94
910.51	226.83
910.81	226.81
911.12	226.79
911.42	226.81
911.73	226.35
912.03	226.34
912.33	226.41
912.64	226.36
912.94	226.35
913.24	226.25
913.55	226.20
913.85	226.21
914.15	226.42
914.46	226.49
914.76	226.41
915.06	226.32
915.37	226.21
915.67	226.20
915.97	226.22
916.27	226.15
916.58	226.17
916.88	226.18
917.18	226.11
917.49	226.48
917.79	226.45
918.09	226.52
918.39	226.62
918.70	226.61
919.00	226.64
919.30	226.76
919.60	226.76
919.91	226.70
920.21	226.69
920.51	226.57
920.81	226.54
921.12	226.63
921.42	226.73
921.72	226.81
922.02	226.81
922.32	226.86
922.63	226.92
922.93	227.18
923.23	227.27
923.53	227.31
923.83	226.95
924.13	227.00
924.44	227.03
924.74	227.15
925.04	227.25
925.34	227.21
925.64	227.00
925.94	227.03
926.24	227.30
926.55	227.30
926.85	227.40
927.15	227.43
927.45	227.38
927.75	227.35
928.05	227.37
928.35	227.40
928.65	227.42
928.95	227.40
929.26	227.21
929.56	227.32
929.86	227.29
930.16	227.26
930.46	227.17
930.76	227.11
931.06	226.92
931.36	226.73
931.66	226.80
931.96	226.93
932.26	226.94
932.56	226.73
932.86	226.75
933.16	226.79
933.46	226.70
933.76	226.71
934.06	226.81
934.36	226.97
934.66	226.97
934.96	226.95
935.26	226.95
935.56	227.06
935.86	226.89
936.16	226.80
936.46	226.80
936.76	226.84
937.06	226.80
937.36	226.81
937.66	226.86
937.96	226.80
938.26	226.66
938.56	226.64
938.86	226.69
939.16	226.74
939.46	226.72
939.76	226.74
940.06	226.69
940.35	226.55
940.65	226.30
940.95	226.30
941.25	226.24
941.55	226.22
941.85	226.16
942.15	226.25
942.45	226.46
942.75	226.49
943.04	226.42
943.34	226.53
943.64	226.47
943.94	226.36
944.24	226.38
944.54	226.43
944.84	226.40
945.13	226.35
945.43	226.30
945.73	226.19
946.03	226.16
946.33	226.13
946.62	226.08
946.92	226.07
947.22	226.13
947.52	226.13
947.82	226.16
948.11	226.08
948.41	225.95
948.71	225.80
949.01	225.76
949.31	225.84
949.60	225.79
949.90	225.90
950.20	225.94
950.50	225.92
950.79	225.88
951.09	225.93
951.39	225.85
951.69	225.80
951.98	225.94
952.28	225.98
952.58	225.98
952.87	225.98
953.17	225.99
953.47	225.95
953.76	225.94
954.06	225.79
954.36	225.73
954.66	225.79
954.95	225.89
955.25	225.94
955.55	225.99
955.84	225.85
956.14	225.79
956.44	225.87
956.73	225.85
957.03	225.90
957.32	225.88
957.62	225.87
957.92	225.95
958.21	225.88
958.51	226.43
958.81	226.53
959.10	226.63
959.40	226.78
959.69	226.86
959.99	226.90
960.29	227.01
960.58	226.99
960.88	227.18
961.17	227.16
961.47	227.23
961.76	227.16
962.06	227.31
962.36	227.31
962.65	227.33
962.95	227.36
963.24	227.30
963.54	227.35
963.83	227.42
964.13	227.47
964.42	227.35
964.72	226.92
965.01	226.86
965.31	226.80
965.60	226.67
965.90	226.94
966.19	226.89
966.49	226.91
966.78	226.94
967.08	226.92
967.37	226.90
967.67	226.79
967.96	226.93
968.26	226.88
968.55	226.94
968.85	226.91
969.14	226.91
969.43	226.95
969.73	226.96
970.02	226.97
970.32	226.88
970.61	226.84
970.91	226.76
971.20	226.73
971.49	226.72
971.79	226.83
972.08	226.42
972.38	226.44
972.67	226.45
972.96	226.58
973.26	226.44
973.55	226.65
973.85	226.61
974.14	226.54
974.43	226.62
974.73	226.50
975.02	226.43
975.31	226.45
975.61	226.43
975.90	226.34
976.19	226.25
976.49	226.28
976.78	226.34
977.07	226.32
977.37	226.35
977.66	226.31
977.95	226.22
978.24	226.25
978.54	226.40
978.83	226.34
979.12	226.24
979.42	226.21
979.71	226.02
980.00	225.99
980.29	225.98
980.59	225.87
980.88	226.03
981.17	226.06
981.46	226.04
981.76	226.08
982.05	226.20
982.34	226.27
982.63	226.25
982.93	226.32
983.22	226.46
983.51	226.47
983.80	226.55
984.09	226.57
984.39	226.57
984.68	226.45
984.97	226.49
985.26	226.43
985.55	226.48
985.85	226.42
986.14	226.54
986.43	226.60
986.72	226.51
987.01	226.31
987.30	226.24
987.59	226.18
987.89	226.13
988.18	226.05
988.47	225.98
988.76	225.93
989.05	225.85
989.34	225.80
989.63	225.85
989.92	225.82
990.22	225.76
990.51	225.67
990.80	225.65
991.09	225.71
991.38	225.75
991.67	225.63
991.96	225.61
992.25	225.57
992.54	225.41
992.83	225.45
993.12	225.49
993.41	225.59
993.70	225.87
993.99	225.95
994.28	226.00
994.58	226.11
994.87	226.12
995.16	226.12
995.45	226.01
995.74	225.95
996.03	225.95
996.32	226.06
996.61	226.20
996.90	226.15
997.19	226.08
997.48	226.14
997.77	226.16
998.06	226.17
998.34	226.22
998.63	226.32
998.92	226.36
999.21	226.43
999.50	226.51
999.79	226.32
1000.08	226.31
1000.37	226.35
1000.66	226.29
1000.95	226.38
1001.24	226.41
1001.53	226.46
1001.82	226.40
1002.11	226.37
1002.40	226.41
1002.68	226.57
1002.97	226.96
1003.26	226.93
1003.55	226.90
1003.84	226.96
1004.13	227.10
1004.42	227.10
1004.71	227.06
1004.99	227.11
1005.28	227.20
1005.57	227.12
1005.86	227.06
1006.15	227.01
1006.44	226.94
1006.72	227.00
1007.01	226.94
1007.30	226.94
1007.59	226.91
1007.88	226.99
1008.17	227.02
1008.45	226.91
1008.74	226.70
1009.03	226.42
1009.32	226.40
1009.60	226.39
1009.89	226.34
1010.18	226.22
1010.47	226.20
1010.76	226.17
1011.04	226.11
1011.33	226.15
1011.62	226.15
1011.91	226.21
1012.19	226.19
1012.48	226.15
1012.77	226.20
1013.05	226.50
1013.34	226.52
1013.63	226.51
1013.92	226.47
1014.20	226.40
1014.49	226.46
1014.78	226.49
1015.06	226.41
1015.35	226.43
1015.64	226.50
1015.92	226.59
1016.21	226.65
1016.50	226.63
1016.78	226.69
1017.07	226.74
1017.36	226.60
1017.64	226.54
1017.93	226.56
1018.22	226.55
1018.50	226.54
1018.79	226.48
1019.08	226.14
1019.36	226.15
1019.65	226.10
1019.93	226.27
1020.22	226.34
1020.51	226.52
1020.79	226.49
1021.08	225.15
1021.36	225.20
1021.65	226.60
1021.94	224.85
1022.22	226.35
1022.51	225.40
1022.79	228.55
1023.08	226.55
1023.36	231.00
1023.65	225.95
>>>>>End Processed Spectral Data<<<<<
