SpectraSuite Data File
++++++++++++++++++++++++++++++++++++
Date: Wed Sep 04 17:45:23 EDT 2013
User: lab3
Dark Spectrum Present: Yes
Reference Spectrum Present: No
Number of Sampled Component Spectra: 1
Spectrometers: USB2E7196
Integration Time (usec): 170000 (USB2E7196)
Spectra Averaged: 20 (USB2E7196)
Boxcar Smoothing: 10 (USB2E7196)
Correct for Electrical Dark: No (USB2E7196)
Strobe/Lamp Enabled: No (USB2E7196)
Correct for Detector Non-linearity: No (USB2E7196)
Correct for Stray Light: No (USB2E7196)
Number of Pixels in Processed Spectrum: 2048
>>>>>Begin Processed Spectral Data<<<<<
339.09	0.00
339.48	212.00
339.86	215.05
340.24	215.80
340.63	218.50
341.01	225.50
341.39	220.45
341.78	221.45
342.16	222.60
342.54	221.90
342.93	211.98
343.31	222.66
343.69	223.30
344.07	223.74
344.46	224.25
344.84	224.55
345.22	224.48
345.60	224.81
345.99	225.02
346.37	225.18
346.75	225.31
347.13	225.34
347.52	225.41
347.90	225.63
348.28	225.71
348.66	225.86
349.05	225.76
349.43	225.84
349.81	225.92
350.19	226.02
350.57	226.09
350.96	226.20
351.34	226.31
351.72	226.36
352.10	226.45
352.48	226.44
352.87	226.50
353.25	226.59
353.63	226.52
354.01	226.60
354.39	226.69
354.77	226.80
355.15	227.07
355.54	227.01
355.92	226.88
356.30	226.85
356.68	227.15
357.06	227.29
357.44	227.22
357.82	227.28
358.20	227.79
358.58	227.86
358.97	227.87
359.35	227.97
359.73	228.09
360.11	228.08
360.49	228.21
360.87	228.25
361.25	228.40
361.63	228.62
362.01	228.65
362.39	228.59
362.77	228.68
363.15	228.64
363.53	228.75
363.91	228.80
364.29	228.87
364.67	228.44
365.05	228.40
365.43	228.53
365.81	228.60
366.19	228.42
366.57	228.59
366.95	228.63
367.33	228.56
367.71	228.57
368.09	228.72
368.47	228.64
368.85	228.67
369.23	228.70
369.61	228.54
369.99	228.64
370.37	228.75
370.75	228.89
371.13	228.87
371.51	228.80
371.89	228.85
372.27	228.88
372.65	228.94
373.03	228.91
373.41	228.91
373.78	228.80
374.16	228.57
374.54	228.43
374.92	228.30
375.30	228.32
375.68	228.15
376.06	228.16
376.44	228.06
376.82	228.06
377.19	227.98
377.57	227.90
377.95	227.72
378.33	227.62
378.71	227.35
379.09	227.32
379.47	227.31
379.84	227.15
380.22	227.01
380.60	226.86
380.98	226.81
381.36	226.70
381.73	226.57
382.11	226.61
382.49	226.51
382.87	226.49
383.25	226.38
383.62	226.88
384.00	226.68
384.38	226.69
384.76	226.70
385.13	226.83
385.51	226.83
385.89	226.75
386.27	226.72
386.64	226.73
387.02	226.66
387.40	226.65
387.78	226.73
388.15	226.76
388.53	226.72
388.91	226.63
389.29	226.53
389.66	226.61
390.04	226.43
390.42	226.53
390.79	226.49
391.17	226.48
391.55	225.92
391.92	225.93
392.30	225.93
392.68	225.83
393.05	225.82
393.43	225.88
393.81	225.93
394.18	225.95
394.56	225.99
394.94	226.14
395.31	226.06
395.69	226.24
396.06	226.31
396.44	226.40
396.82	226.46
397.19	226.79
397.57	226.76
397.95	227.03
398.32	226.87
398.70	227.02
399.07	227.25
399.45	227.36
399.82	227.47
400.20	227.53
400.58	227.64
400.95	227.55
401.33	227.66
401.70	228.10
402.08	228.17
402.45	228.22
402.83	228.38
403.20	228.62
403.58	228.63
403.95	228.84
404.33	229.05
404.71	229.22
405.08	229.63
405.46	229.86
405.83	230.04
406.21	230.39
406.58	230.67
406.96	230.85
407.33	231.20
407.70	231.55
408.08	232.29
408.45	232.70
408.83	233.16
409.20	233.60
409.58	233.77
409.95	234.33
410.33	234.91
410.70	235.23
411.08	235.80
411.45	236.36
411.82	236.91
412.20	237.62
412.57	238.58
412.95	238.90
413.32	239.81
413.69	240.60
414.07	241.49
414.44	242.38
414.82	243.39
415.19	244.51
415.56	245.67
415.94	246.67
416.31	248.04
416.68	249.42
417.06	251.00
417.43	252.53
417.81	254.23
418.18	255.97
418.55	257.97
418.93	259.95
419.30	262.05
419.67	264.26
420.04	266.51
420.42	268.72
420.79	271.71
421.16	274.32
421.54	277.34
421.91	280.23
422.28	283.24
422.66	286.51
423.03	289.87
423.40	293.10
423.77	296.51
424.15	300.08
424.52	303.67
424.89	307.68
425.26	311.60
425.64	315.25
426.01	319.31
426.38	323.55
426.75	328.02
427.13	332.46
427.50	337.12
427.87	341.93
428.24	346.76
428.61	351.20
428.99	356.46
429.36	361.78
429.73	367.22
430.10	372.74
430.47	378.23
430.85	383.73
431.22	389.81
431.59	396.51
431.96	402.54
432.33	409.45
432.70	415.93
433.08	423.55
433.45	430.83
433.82	437.95
434.19	445.87
434.56	453.61
434.93	461.15
435.30	468.69
435.68	477.11
436.05	485.24
436.42	493.28
436.79	500.79
437.16	508.89
437.53	517.39
437.90	525.85
438.27	534.25
438.64	542.93
439.01	550.98
439.38	558.03
439.75	565.02
440.13	572.83
440.50	580.30
440.87	586.20
441.24	592.48
441.61	599.40
441.98	604.50
442.35	610.21
442.72	615.90
443.09	621.67
443.46	624.93
443.83	627.25
444.20	629.35
444.57	632.03
444.94	633.09
445.31	634.23
445.68	635.71
446.05	635.89
446.42	634.64
446.79	633.33
447.16	631.55
447.53	630.46
447.90	626.82
448.27	623.10
448.64	618.28
449.01	614.66
449.37	608.67
449.74	602.86
450.11	596.30
450.48	588.95
450.85	581.10
451.22	574.47
451.59	568.07
451.96	561.84
452.33	553.90
452.70	546.76
453.07	538.36
453.43	529.22
453.80	520.93
454.17	513.17
454.54	505.57
454.91	497.75
455.28	489.76
455.65	482.42
456.02	475.76
456.38	469.60
456.75	462.06
457.12	455.68
457.49	449.37
457.86	443.10
458.23	437.94
458.59	432.28
458.96	426.70
459.33	421.70
459.70	416.71
460.07	412.73
460.43	408.16
460.80	403.90
461.17	400.32
461.54	396.40
461.91	392.68
462.27	388.96
462.64	385.74
463.01	382.36
463.38	379.26
463.74	375.30
464.11	372.47
464.48	369.89
464.85	367.00
465.21	364.90
465.58	362.64
465.95	359.92
466.32	357.80
466.68	355.47
467.05	353.31
467.42	351.15
467.78	348.76
468.15	346.60
468.52	345.05
468.88	342.91
469.25	341.06
469.62	339.60
469.98	337.97
470.35	336.45
470.72	334.98
471.08	333.25
471.45	332.09
471.82	330.89
472.18	329.35
472.55	328.47
472.92	327.21
473.28	325.99
473.65	324.90
474.02	323.77
474.38	323.00
474.75	322.23
475.11	321.36
475.48	320.78
475.85	320.23
476.21	319.56
476.58	318.95
476.94	318.63
477.31	318.16
477.67	317.77
478.04	317.53
478.41	317.39
478.77	317.69
479.14	317.47
479.50	317.33
479.87	317.50
480.23	317.45
480.60	317.44
480.96	317.62
481.33	318.07
481.69	318.43
482.06	318.65
482.42	319.01
482.79	319.48
483.15	320.06
483.52	320.71
483.88	321.22
484.25	321.97
484.61	322.63
484.98	323.28
485.34	324.25
485.71	325.11
486.07	326.06
486.44	326.64
486.80	327.76
487.17	328.87
487.53	330.29
487.90	331.68
488.26	333.28
488.62	334.89
488.99	336.25
489.35	337.98
489.72	339.88
490.08	341.81
490.44	343.75
490.81	345.78
491.17	348.06
491.54	350.56
491.90	353.02
492.26	355.65
492.63	358.43
492.99	361.28
493.36	364.32
493.72	367.67
494.08	371.08
494.45	374.67
494.81	378.52
495.17	382.21
495.54	386.39
495.90	390.64
496.26	395.02
496.63	399.69
496.99	404.37
497.35	409.32
497.72	414.50
498.08	419.86
498.44	425.53
498.80	431.36
499.17	437.35
499.53	443.50
499.89	450.13
500.26	456.94
500.62	463.84
500.98	471.21
501.34	478.49
501.71	486.27
502.07	494.05
502.43	501.94
502.79	510.37
503.16	519.07
503.52	527.98
503.88	536.98
504.24	546.41
504.60	556.36
504.97	566.59
505.33	576.94
505.69	588.02
506.05	598.84
506.41	609.88
506.78	621.45
507.14	633.46
507.50	645.59
507.86	658.04
508.22	670.79
508.59	683.79
508.95	697.40
509.31	711.39
509.67	725.36
510.03	739.41
510.39	753.87
510.75	768.62
511.12	783.59
511.48	799.10
511.84	814.82
512.20	830.47
512.56	846.55
512.92	863.18
513.28	879.81
513.64	896.87
514.00	914.03
514.37	931.58
514.73	949.16
515.09	967.07
515.45	984.94
515.81	1003.00
516.17	1021.35
516.53	1039.59
516.89	1057.77
517.25	1076.90
517.61	1096.98
517.97	1116.68
518.33	1136.35
518.69	1156.40
519.05	1176.67
519.41	1196.80
519.77	1217.45
520.13	1237.65
520.49	1257.69
520.85	1277.81
521.21	1298.71
521.57	1319.72
521.93	1339.65
522.29	1360.58
522.65	1380.81
523.01	1401.37
523.37	1421.68
523.73	1442.23
524.09	1462.23
524.45	1482.40
524.81	1502.75
525.17	1522.63
525.53	1542.62
525.89	1562.87
526.25	1582.98
526.61	1602.54
526.97	1623.24
527.33	1643.69
527.68	1664.75
528.04	1685.52
528.40	1706.17
528.76	1726.31
529.12	1746.26
529.48	1766.86
529.84	1786.27
530.20	1806.95
530.56	1827.17
530.91	1847.37
531.27	1867.03
531.63	1887.26
531.99	1906.97
532.35	1926.30
532.71	1945.98
533.07	1965.95
533.42	1985.17
533.78	2004.25
534.14	2023.80
534.50	2042.01
534.86	2060.71
535.21	2077.67
535.57	2095.58
535.93	2112.34
536.29	2129.42
536.65	2146.95
537.00	2163.86
537.36	2180.89
537.72	2196.43
538.08	2212.70
538.44	2228.77
538.79	2244.47
539.15	2260.01
539.51	2275.89
539.87	2290.45
540.22	2303.95
540.58	2318.00
540.94	2330.60
541.29	2342.89
541.65	2354.62
542.01	2366.80
542.37	2376.53
542.72	2386.89
543.08	2396.57
543.44	2407.79
543.79	2417.44
544.15	2426.64
544.51	2436.14
544.87	2445.03
545.22	2453.19
545.58	2460.51
545.94	2467.00
546.29	2473.31
546.65	2478.89
547.01	2483.81
547.36	2488.67
547.72	2493.65
548.07	2496.70
548.43	2501.66
548.79	2505.80
549.14	2509.35
549.50	2512.57
549.86	2516.18
550.21	2519.57
550.57	2522.49
550.92	2523.37
551.28	2523.94
551.64	2525.70
551.99	2526.65
552.35	2527.85
552.70	2529.72
553.06	2530.96
553.41	2531.93
553.77	2532.97
554.13	2534.23
554.48	2535.23
554.84	2536.35
555.19	2537.13
555.55	2538.76
555.90	2537.76
556.26	2536.76
556.61	2535.12
556.97	2532.51
557.32	2531.45
557.68	2529.84
558.03	2528.17
558.39	2526.50
558.74	2525.40
559.10	2521.95
559.45	2518.29
559.81	2513.42
560.16	2507.90
560.52	2502.74
560.87	2498.15
561.23	2492.53
561.58	2486.55
561.94	2479.63
562.29	2472.06
562.64	2464.68
563.00	2455.95
563.35	2448.92
563.71	2441.86
564.06	2435.67
564.42	2429.09
564.77	2422.05
565.12	2414.58
565.48	2407.05
565.83	2399.25
566.19	2391.21
566.54	2383.03
566.89	2375.07
567.25	2367.60
567.60	2360.63
567.96	2353.22
568.31	2344.95
568.66	2336.54
569.02	2327.80
569.37	2319.43
569.72	2312.08
570.08	2303.04
570.43	2293.78
570.78	2285.00
571.14	2275.59
571.49	2265.43
571.84	2255.90
572.20	2245.31
572.55	2235.10
572.90	2224.10
573.26	2213.85
573.61	2203.19
573.96	2192.55
574.31	2180.72
574.67	2168.95
575.02	2156.23
575.37	2143.66
575.72	2130.88
576.08	2118.89
576.43	2106.20
576.78	2093.53
577.13	2080.11
577.49	2067.63
577.84	2056.06
578.19	2044.02
578.54	2032.16
578.90	2020.30
579.25	2008.28
579.60	1996.26
579.95	1983.92
580.30	1971.02
580.66	1958.07
581.01	1944.81
581.36	1930.85
581.71	1918.74
582.06	1906.24
582.42	1894.10
582.77	1881.93
583.12	1870.57
583.47	1858.89
583.82	1847.67
584.17	1835.91
584.53	1824.46
584.88	1812.08
585.23	1799.50
585.58	1786.01
585.93	1772.80
586.28	1759.96
586.63	1746.62
586.98	1732.98
587.34	1719.89
587.69	1707.27
588.04	1695.14
588.39	1683.50
588.74	1672.15
589.09	1660.50
589.44	1648.17
589.79	1636.34
590.14	1624.76
590.49	1612.99
590.84	1601.05
591.19	1589.27
591.54	1577.66
591.89	1565.90
592.25	1556.08
592.60	1544.83
592.95	1533.66
593.30	1522.47
593.65	1510.74
594.00	1499.15
594.35	1489.71
594.70	1478.55
595.05	1467.67
595.40	1456.05
595.75	1444.46
596.10	1433.56
596.45	1422.50
596.80	1411.98
597.15	1401.15
597.50	1389.96
597.85	1379.06
598.19	1367.74
598.54	1356.51
598.89	1345.48
599.24	1335.41
599.59	1324.30
599.94	1314.07
600.29	1304.29
600.64	1294.34
600.99	1284.40
601.34	1275.25
601.69	1264.46
602.04	1255.28
602.39	1245.95
602.74	1237.36
603.08	1228.46
603.43	1219.47
603.78	1210.07
604.13	1201.03
604.48	1191.70
604.83	1182.04
605.18	1172.58
605.53	1163.70
605.87	1154.97
606.22	1146.99
606.57	1137.79
606.92	1128.69
607.27	1120.05
607.62	1111.56
607.96	1103.29
608.31	1095.61
608.66	1087.39
609.01	1079.16
609.36	1070.87
609.70	1062.87
610.05	1054.30
610.40	1046.10
610.75	1037.75
611.10	1029.82
611.44	1021.60
611.79	1013.75
612.14	1006.47
612.49	998.90
612.83	991.61
613.18	984.20
613.53	976.55
613.88	969.17
614.22	961.60
614.57	953.94
614.92	946.25
615.27	939.19
615.61	931.68
615.96	924.44
616.31	917.26
616.65	910.52
617.00	903.29
617.35	896.41
617.70	889.57
618.04	882.94
618.39	876.25
618.74	870.14
619.08	863.57
619.43	857.07
619.78	850.39
620.12	843.58
620.47	836.94
620.82	830.20
621.16	823.73
621.51	817.80
621.85	811.83
622.20	805.58
622.55	799.04
622.89	792.70
623.24	786.56
623.59	780.44
623.93	774.30
624.28	768.54
624.62	763.22
624.97	757.72
625.32	751.98
625.66	746.01
626.01	740.05
626.35	734.74
626.70	729.33
627.04	724.21
627.39	718.91
627.73	713.99
628.08	709.09
628.43	703.83
628.77	698.59
629.12	693.67
629.46	689.15
629.81	684.75
630.15	680.33
630.50	675.65
630.84	671.17
631.19	666.60
631.53	662.25
631.88	657.21
632.22	652.48
632.57	648.36
632.91	644.03
633.26	639.82
633.60	635.49
633.95	630.98
634.29	626.47
634.64	622.17
634.98	617.45
635.32	613.27
635.67	609.46
636.01	605.45
636.36	601.25
636.70	597.29
637.05	593.19
637.39	589.34
637.73	585.29
638.08	581.23
638.42	577.11
638.77	572.88
639.11	568.69
639.45	564.56
639.80	560.15
640.14	556.40
640.49	552.64
640.83	548.95
641.17	545.47
641.52	541.97
641.86	538.54
642.20	535.57
642.55	532.03
642.89	528.37
643.23	525.05
643.58	521.97
643.92	518.51
644.26	515.18
644.61	512.07
644.95	509.02
645.29	505.89
645.64	502.99
645.98	500.01
646.32	497.29
646.66	494.31
647.01	491.61
647.35	488.97
647.69	486.22
648.04	483.54
648.38	480.71
648.72	478.02
649.06	475.19
649.41	472.11
649.75	469.27
650.09	466.77
650.43	463.94
650.78	461.08
651.12	458.31
651.46	455.52
651.80	452.82
652.14	450.30
652.49	447.82
652.83	445.32
653.17	442.92
653.51	440.24
653.85	438.01
654.20	435.57
654.54	433.00
654.88	430.48
655.22	428.32
655.56	425.95
655.90	423.62
656.25	421.43
656.59	419.39
656.93	417.29
657.27	415.23
657.61	412.93
657.95	410.85
658.29	408.88
658.64	407.04
658.98	404.86
659.32	402.69
659.66	400.63
660.00	398.60
660.34	396.53
660.68	394.70
661.02	392.81
661.36	391.06
661.70	389.20
662.05	387.33
662.39	385.34
662.73	383.70
663.07	382.17
663.41	380.44
663.75	378.52
664.09	376.70
664.43	374.79
664.77	373.35
665.11	371.72
665.45	370.05
665.79	368.44
666.13	366.81
666.47	365.18
666.81	363.62
667.15	361.85
667.49	360.49
667.83	359.15
668.17	357.61
668.51	356.10
668.85	354.81
669.19	353.74
669.53	352.24
669.87	350.74
670.21	349.17
670.55	347.81
670.89	346.72
671.23	345.47
671.57	344.16
671.91	342.86
672.25	341.57
672.58	340.45
672.92	339.05
673.26	337.80
673.60	336.60
673.94	335.46
674.28	334.55
674.62	333.38
674.96	332.04
675.30	330.91
675.64	329.74
675.97	328.48
676.31	327.05
676.65	325.97
676.99	325.01
677.33	323.98
677.67	322.95
678.01	321.69
678.34	320.67
678.68	319.79
679.02	318.81
679.36	317.79
679.70	316.79
680.04	315.93
680.37	315.06
680.71	314.12
681.05	313.27
681.39	312.26
681.73	311.36
682.06	310.56
682.40	309.80
682.74	309.05
683.08	308.44
683.42	307.58
683.75	306.81
684.09	305.91
684.43	305.06
684.77	304.23
685.10	303.55
685.44	302.80
685.78	301.87
686.12	300.93
686.45	300.11
686.79	299.29
687.13	298.68
687.46	297.95
687.80	297.38
688.14	296.50
688.48	295.75
688.81	294.98
689.15	294.28
689.49	293.50
689.82	292.82
690.16	291.97
690.50	291.33
690.83	290.65
691.17	289.93
691.51	289.31
691.84	288.74
692.18	288.05
692.52	287.34
692.85	286.77
693.19	286.44
693.52	285.92
693.86	285.30
694.20	284.65
694.53	284.08
694.87	283.43
695.21	282.85
695.54	282.34
695.88	281.66
696.21	281.04
696.55	280.46
696.88	279.84
697.22	279.20
697.56	278.70
697.89	278.13
698.23	277.58
698.56	277.00
698.90	276.48
699.23	275.95
699.57	275.45
699.90	274.85
700.24	274.15
700.58	273.73
700.91	273.35
701.25	273.16
701.58	272.99
701.92	272.56
702.25	272.20
702.59	271.72
702.92	271.42
703.26	270.95
703.59	270.51
703.93	270.53
704.26	270.14
704.60	269.76
704.93	269.27
705.26	268.84
705.60	268.46
705.93	267.96
706.27	267.69
706.60	267.37
706.94	267.35
707.27	266.99
707.61	266.59
707.94	266.13
708.27	265.39
708.61	264.61
708.94	264.27
709.28	263.85
709.61	263.43
709.94	263.05
710.28	262.78
710.61	262.47
710.95	261.60
711.28	261.61
711.61	261.27
711.95	261.08
712.28	260.76
712.61	260.41
712.95	260.35
713.28	260.21
713.61	259.84
713.95	259.31
714.28	259.00
714.61	258.59
714.95	258.21
715.28	257.87
715.61	257.52
715.95	257.16
716.28	256.73
716.61	256.47
716.95	256.05
717.28	255.77
717.61	255.39
717.94	255.09
718.28	254.40
718.61	254.10
718.94	253.75
719.27	253.49
719.61	253.33
719.94	252.95
720.27	252.50
720.60	252.24
720.94	251.96
721.27	251.76
721.60	251.61
721.93	251.45
722.27	251.47
722.60	251.32
722.93	251.04
723.26	250.97
723.59	250.73
723.93	250.63
724.26	250.44
724.59	250.23
724.92	250.07
725.25	250.04
725.59	249.75
725.92	249.57
726.25	249.35
726.58	249.17
726.91	248.94
727.24	248.72
727.57	248.54
727.91	248.31
728.24	248.18
728.57	247.96
728.90	247.86
729.23	247.45
729.56	247.52
729.89	247.38
730.22	247.17
730.55	247.01
730.89	246.85
731.22	246.55
731.55	246.44
731.88	246.35
732.21	246.07
732.54	245.90
732.87	245.79
733.20	245.64
733.53	245.38
733.86	245.29
734.19	245.05
734.52	244.98
734.85	245.12
735.18	244.76
735.51	244.78
735.84	244.60
736.17	244.56
736.50	244.17
736.83	244.53
737.16	244.33
737.49	244.22
737.82	244.01
738.15	244.05
738.48	243.84
738.81	243.56
739.14	243.43
739.47	243.28
739.80	243.08
740.13	242.96
740.46	242.79
740.79	242.52
741.12	242.43
741.45	242.12
741.78	241.75
742.11	241.83
742.44	241.45
742.77	241.30
743.10	241.11
743.43	241.03
743.75	240.45
744.08	240.93
744.41	240.73
744.74	240.63
745.07	240.38
745.40	240.34
745.73	240.53
746.06	240.35
746.39	240.29
746.71	240.11
747.04	239.96
747.37	239.85
747.70	239.85
748.03	239.72
748.36	239.71
748.68	239.55
749.01	239.37
749.34	239.30
749.67	239.25
750.00	239.22
750.33	239.42
750.65	239.32
750.98	238.72
751.31	238.65
751.64	238.56
751.97	238.67
752.29	238.55
752.62	238.20
752.95	238.16
753.28	238.01
753.60	237.95
753.93	237.95
754.26	237.94
754.59	237.66
754.91	237.54
755.24	237.37
755.57	237.29
755.90	237.18
756.22	237.10
756.55	236.89
756.88	236.67
757.20	236.33
757.53	236.12
757.86	235.97
758.19	235.88
758.51	235.81
758.84	235.44
759.17	235.38
759.49	235.39
759.82	235.45
760.15	235.43
760.47	235.28
760.80	235.07
761.13	234.98
761.45	234.95
761.78	234.86
762.11	234.90
762.43	234.79
762.76	234.68
763.08	234.62
763.41	234.60
763.74	234.55
764.06	234.41
764.39	234.35
764.71	234.27
765.04	234.12
765.37	233.99
765.69	233.96
766.02	233.84
766.34	233.73
766.67	233.45
767.00	233.49
767.32	233.66
767.65	233.87
767.97	233.82
768.30	233.73
768.62	233.69
768.95	233.51
769.27	233.34
769.60	233.33
769.92	233.26
770.25	233.14
770.57	233.01
770.90	232.91
771.22	232.78
771.55	232.76
771.87	232.78
772.20	232.66
772.52	233.05
772.85	233.60
773.17	233.45
773.50	233.42
773.82	233.19
774.15	232.99
774.47	232.67
774.80	232.51
775.12	232.50
775.45	232.46
775.77	232.44
776.09	232.55
776.42	232.52
776.74	232.50
777.07	232.40
777.39	232.37
777.72	232.25
778.04	232.33
778.36	232.17
778.69	232.10
779.01	232.16
779.33	231.65
779.66	230.99
779.98	230.99
780.31	230.90
780.63	231.12
780.95	231.14
781.28	231.08
781.60	231.00
781.92	230.93
782.25	230.89
782.57	230.71
782.89	230.64
783.22	230.55
783.54	230.43
783.86	230.41
784.19	230.35
784.51	230.50
784.83	230.35
785.16	230.36
785.48	230.33
785.80	230.21
786.12	230.21
786.45	230.29
786.77	230.23
787.09	230.20
787.42	230.05
787.74	230.00
788.06	230.02
788.38	229.98
788.71	229.92
789.03	229.88
789.35	230.02
789.67	229.88
789.99	229.85
790.32	229.86
790.64	230.00
790.96	230.35
791.28	230.14
791.61	230.10
791.93	230.12
792.25	230.11
792.57	230.49
792.89	230.33
793.21	230.29
793.54	230.26
793.86	230.17
794.18	230.15
794.50	230.03
794.82	229.99
795.14	230.02
795.47	230.07
795.79	230.04
796.11	229.90
796.43	229.88
796.75	229.97
797.07	229.91
797.39	229.82
797.71	229.47
798.04	229.49
798.36	229.50
798.68	229.45
799.00	229.50
799.32	229.17
799.64	229.36
799.96	229.30
800.28	229.38
800.60	229.43
800.92	229.39
801.24	229.31
801.56	229.27
801.89	229.31
802.21	229.30
802.53	229.20
802.85	229.37
803.17	229.54
803.49	229.35
803.81	229.35
804.13	229.27
804.45	229.17
804.77	229.17
805.09	229.19
805.41	229.14
805.73	228.98
806.05	228.83
806.37	228.70
806.69	228.60
807.01	228.53
807.33	228.51
807.65	228.36
807.97	228.63
808.28	228.55
808.60	228.47
808.92	228.41
809.24	228.73
809.56	228.56
809.88	228.42
810.20	228.40
810.52	228.45
810.84	228.37
811.16	228.39
811.48	228.35
811.80	228.39
812.12	228.39
812.43	228.49
812.75	228.54
813.07	228.54
813.39	228.46
813.71	228.36
814.03	228.23
814.35	228.20
814.67	227.96
814.98	227.99
815.30	228.04
815.62	227.94
815.94	227.61
816.26	227.76
816.58	227.68
816.89	227.67
817.21	227.57
817.53	227.61
817.85	227.72
818.17	227.70
818.48	227.59
818.80	227.68
819.12	227.52
819.44	227.51
819.76	227.39
820.07	227.50
820.39	227.53
820.71	227.62
821.03	227.64
821.34	227.60
821.66	227.62
821.98	227.60
822.30	227.57
822.61	227.80
822.93	227.62
823.25	227.61
823.57	227.56
823.88	227.61
824.20	227.60
824.52	227.54
824.83	227.57
825.15	227.46
825.47	227.29
825.79	227.36
826.10	227.28
826.42	227.29
826.74	227.28
827.05	227.22
827.37	227.20
827.69	227.20
828.00	227.23
828.32	227.25
828.64	227.13
828.95	227.44
829.27	227.34
829.58	227.36
829.90	227.45
830.22	227.51
830.53	227.41
830.85	227.26
831.17	227.18
831.48	227.16
831.80	227.22
832.11	227.18
832.43	227.14
832.75	227.12
833.06	227.43
833.38	227.33
833.69	227.40
834.01	227.40
834.32	227.42
834.64	227.36
834.96	227.32
835.27	227.33
835.59	227.12
835.90	227.00
836.22	226.95
836.53	226.81
836.85	226.74
837.16	227.17
837.48	227.34
837.79	227.45
838.11	227.44
838.42	227.47
838.74	227.63
839.05	227.57
839.37	227.63
839.68	227.30
840.00	227.28
840.31	227.29
840.63	227.27
840.94	227.18
841.26	227.11
841.57	227.11
841.88	227.12
842.20	227.06
842.51	226.96
842.83	226.87
843.14	227.29
843.46	227.31
843.77	227.06
844.08	226.94
844.40	226.79
844.71	226.74
845.03	226.68
845.34	226.54
845.65	226.49
845.97	226.46
846.28	226.53
846.60	226.51
846.91	226.45
847.22	226.45
847.54	226.56
847.85	226.58
848.16	226.47
848.48	226.42
848.79	226.62
849.10	226.73
849.42	226.83
849.73	226.35
850.04	226.32
850.36	226.20
850.67	226.29
850.98	226.23
851.30	226.30
851.61	226.21
851.92	226.27
852.23	226.48
852.55	226.46
852.86	226.39
853.17	226.45
853.49	226.49
853.80	226.56
854.11	226.59
854.42	226.71
854.74	226.77
855.05	226.75
855.36	226.47
855.67	226.47
855.99	226.50
856.30	227.14
856.61	227.10
856.92	227.13
857.23	227.12
857.55	227.09
857.86	227.00
858.17	227.15
858.48	227.06
858.79	226.95
859.11	227.02
859.42	227.04
859.73	227.09
860.04	227.06
860.35	226.90
860.66	226.73
860.98	226.74
861.29	226.78
861.60	226.77
861.91	226.88
862.22	226.80
862.53	226.70
862.84	226.14
863.16	226.31
863.47	226.14
863.78	226.09
864.09	226.20
864.40	226.29
864.71	226.25
865.02	226.32
865.33	226.34
865.64	226.21
865.95	226.21
866.27	226.49
866.58	226.44
866.89	226.55
867.20	226.56
867.51	226.46
867.82	226.41
868.13	226.50
868.44	226.42
868.75	226.53
869.06	226.62
869.37	226.68
869.68	226.54
869.99	226.68
870.30	226.72
870.61	226.81
870.92	226.74
871.23	226.68
871.54	226.74
871.85	226.79
872.16	226.90
872.47	226.86
872.78	226.54
873.09	226.66
873.40	226.64
873.71	226.68
874.02	226.67
874.33	226.66
874.64	226.63
874.95	226.77
875.26	226.68
875.56	226.63
875.87	226.55
876.18	226.50
876.49	226.91
876.80	226.85
877.11	226.70
877.42	226.73
877.73	226.78
878.04	226.62
878.35	226.65
878.66	226.60
878.96	226.62
879.27	226.59
879.58	226.47
879.89	226.43
880.20	226.54
880.51	226.58
880.82	226.59
881.12	226.61
881.43	226.47
881.74	226.43
882.05	226.40
882.36	226.52
882.67	226.62
882.97	226.11
883.28	226.09
883.59	226.10
883.90	226.14
884.21	226.24
884.51	226.28
884.82	226.21
885.13	226.25
885.44	226.22
885.74	226.18
886.05	226.22
886.36	226.22
886.67	226.09
886.98	226.37
887.28	226.39
887.59	226.41
887.90	226.48
888.20	226.50
888.51	226.61
888.82	226.50
889.13	226.48
889.43	226.89
889.74	226.89
890.05	226.80
890.35	226.73
890.66	226.66
890.97	226.62
891.28	226.59
891.58	226.57
891.89	226.57
892.20	226.54
892.50	226.51
892.81	226.50
893.12	226.48
893.42	226.18
893.73	226.20
894.04	226.16
894.34	226.16
894.65	226.15
894.95	226.01
895.26	226.01
895.57	226.23
895.87	225.76
896.18	225.81
896.48	225.92
896.79	225.92
897.10	225.95
897.40	225.98
897.71	226.01
898.01	225.90
898.32	225.99
898.63	226.04
898.93	226.09
899.24	226.07
899.54	226.04
899.85	226.07
900.15	226.02
900.46	226.05
900.76	226.05
901.07	226.05
901.38	226.11
901.68	226.21
901.99	225.98
902.29	226.00
902.60	226.01
902.90	225.93
903.21	225.92
903.51	225.85
903.82	225.96
904.12	225.97
904.43	226.03
904.73	225.97
905.03	226.02
905.34	226.43
905.64	226.39
905.95	226.40
906.25	226.38
906.56	226.31
906.86	226.29
907.17	226.25
907.47	226.28
907.77	226.23
908.08	226.03
908.38	226.07
908.69	226.14
908.99	226.23
909.30	226.25
909.60	226.29
909.90	226.26
910.21	226.12
910.51	226.04
910.81	226.04
911.12	226.10
911.42	226.11
911.73	225.64
912.03	225.69
912.33	225.82
912.64	225.78
912.94	225.80
913.24	225.70
913.55	225.65
913.85	225.63
914.15	225.74
914.46	225.88
914.76	225.78
915.06	225.83
915.37	225.66
915.67	225.60
915.97	225.55
916.27	225.55
916.58	225.59
916.88	225.60
917.18	225.59
917.49	225.88
917.79	225.74
918.09	225.75
918.39	225.84
918.70	225.78
919.00	225.80
919.30	226.03
919.60	226.02
919.91	226.03
920.21	226.06
920.51	225.95
920.81	225.81
921.12	225.89
921.42	225.86
921.72	225.94
922.02	225.99
922.32	226.04
922.63	226.03
922.93	226.21
923.23	226.24
923.53	226.22
923.83	225.95
924.13	226.05
924.44	226.07
924.74	226.10
925.04	226.24
925.34	226.19
925.64	225.94
925.94	225.96
926.24	226.20
926.55	226.12
926.85	226.13
927.15	226.16
927.45	226.19
927.75	226.11
928.05	226.13
928.35	226.07
928.65	226.15
928.95	226.20
929.26	226.03
929.56	226.08
929.86	226.18
930.16	226.08
930.46	226.05
930.76	226.10
931.06	225.89
931.36	225.69
931.66	225.74
931.96	225.90
932.26	225.92
932.56	225.76
932.86	225.88
933.16	225.89
933.46	225.94
933.76	225.89
934.06	226.05
934.36	226.21
934.66	226.19
934.96	226.19
935.26	226.15
935.56	226.21
935.86	226.10
936.16	225.97
936.46	225.94
936.76	225.90
937.06	225.84
937.36	225.90
937.66	226.00
937.96	225.98
938.26	225.78
938.56	225.78
938.86	225.72
939.16	225.78
939.46	225.87
939.76	225.90
940.06	225.84
940.35	225.66
940.65	225.40
940.95	225.51
941.25	225.42
941.55	225.37
941.85	225.35
942.15	225.39
942.45	225.51
942.75	225.54
943.04	225.63
943.34	225.70
943.64	225.72
943.94	225.55
944.24	225.60
944.54	225.73
944.84	225.70
945.13	225.70
945.43	225.58
945.73	225.52
946.03	225.42
946.33	225.40
946.62	225.36
946.92	225.38
947.22	225.34
947.52	225.36
947.82	225.46
948.11	225.41
948.41	225.37
948.71	225.30
949.01	225.36
949.31	225.28
949.60	225.21
949.90	225.20
950.20	225.27
950.50	225.28
950.79	225.23
951.09	225.27
951.39	225.21
951.69	225.18
951.98	225.32
952.28	225.34
952.58	225.33
952.87	225.36
953.17	225.47
953.47	225.43
953.76	225.43
954.06	225.35
954.36	225.30
954.66	225.29
954.95	225.32
955.25	225.34
955.55	225.43
955.84	225.40
956.14	225.46
956.44	225.48
956.73	225.40
957.03	225.37
957.32	225.37
957.62	225.40
957.92	225.50
958.21	225.40
958.51	225.95
958.81	226.01
959.10	226.10
959.40	226.18
959.69	226.22
959.99	226.22
960.29	226.23
960.58	226.20
960.88	226.42
961.17	226.38
961.47	226.36
961.76	226.27
962.06	226.40
962.36	226.35
962.65	226.36
962.95	226.35
963.24	226.35
963.54	226.38
963.83	226.40
964.13	226.35
964.42	226.23
964.72	225.85
965.01	225.87
965.31	225.84
965.60	225.69
965.90	226.02
966.19	226.02
966.49	226.08
966.78	226.07
967.08	225.96
967.37	226.03
967.67	225.93
967.96	226.07
968.26	226.00
968.55	226.07
968.85	226.07
969.14	226.14
969.43	226.17
969.73	226.15
970.02	226.17
970.32	226.16
970.61	226.17
970.91	226.05
971.20	225.98
971.49	225.93
971.79	225.98
972.08	225.64
972.38	225.58
972.67	225.55
972.96	225.64
973.26	225.58
973.55	225.67
973.85	225.70
974.14	225.66
974.43	225.66
974.73	225.60
975.02	225.56
975.31	225.54
975.61	225.55
975.90	225.49
976.19	225.49
976.49	225.59
976.78	225.70
977.07	225.68
977.37	225.79
977.66	225.89
977.95	225.85
978.24	225.92
978.54	226.10
978.83	226.05
979.12	226.05
979.42	226.05
979.71	226.00
980.00	225.98
980.29	226.01
980.59	225.92
980.88	226.14
981.17	226.17
981.46	226.18
981.76	226.15
982.05	226.29
982.34	226.31
982.63	226.27
982.93	226.19
983.22	226.32
983.51	226.25
983.80	226.31
984.09	226.35
984.39	226.25
984.68	226.17
984.97	226.22
985.26	226.12
985.55	226.23
985.85	226.09
986.14	226.22
986.43	226.28
986.72	226.27
987.01	225.98
987.30	225.95
987.59	225.89
987.89	225.96
988.18	225.77
988.47	225.67
988.76	225.64
989.05	225.58
989.34	225.53
989.63	225.67
989.92	225.49
990.22	225.44
990.51	225.46
990.80	225.38
991.09	225.41
991.38	225.43
991.67	225.35
991.96	225.35
992.25	225.24
992.54	225.08
992.83	225.06
993.12	225.06
993.41	225.15
993.70	225.30
993.99	225.34
994.28	225.41
994.58	225.49
994.87	225.42
995.16	225.44
995.45	225.46
995.74	225.30
996.03	225.47
996.32	225.50
996.61	225.60
996.90	225.60
997.19	225.51
997.48	225.58
997.77	225.47
998.06	225.52
998.34	225.60
998.63	225.61
998.92	225.68
999.21	225.76
999.50	225.75
999.79	225.63
1000.08	225.56
1000.37	225.65
1000.66	225.64
1000.95	225.78
1001.24	225.83
1001.53	225.76
1001.82	225.70
1002.11	225.55
1002.40	225.55
1002.68	225.65
1002.97	226.03
1003.26	226.03
1003.55	225.91
1003.84	225.98
1004.13	226.16
1004.42	226.14
1004.71	226.16
1004.99	226.04
1005.28	226.16
1005.57	226.14
1005.86	226.05
1006.15	226.04
1006.44	225.92
1006.72	225.90
1007.01	225.78
1007.30	225.79
1007.59	225.80
1007.88	225.80
1008.17	225.80
1008.45	225.81
1008.74	225.61
1009.03	225.41
1009.32	225.42
1009.60	225.38
1009.89	225.30
1010.18	225.05
1010.47	224.95
1010.76	224.90
1011.04	224.97
1011.33	224.98
1011.62	224.99
1011.91	225.10
1012.19	225.13
1012.48	225.14
1012.77	225.19
1013.05	225.44
1013.34	225.41
1013.63	225.40
1013.92	225.52
1014.20	225.47
1014.49	225.45
1014.78	225.52
1015.06	225.37
1015.35	225.35
1015.64	225.52
1015.92	225.64
1016.21	225.68
1016.50	225.65
1016.78	225.67
1017.07	225.73
1017.36	225.59
1017.64	225.49
1017.93	225.49
1018.22	225.46
1018.50	225.45
1018.79	225.46
1019.08	225.26
1019.36	225.34
1019.65	225.29
1019.93	225.38
1020.22	225.47
1020.51	225.75
1020.79	225.68
1021.08	225.20
1021.36	224.55
1021.65	226.30
1021.94	225.85
1022.22	226.85
1022.51	224.70
1022.79	227.75
1023.08	225.75
1023.36	232.00
1023.65	224.30
>>>>>End Processed Spectral Data<<<<<
