SpectraSuite Data File
++++++++++++++++++++++++++++++++++++
Date: Wed Sep 04 18:00:42 EDT 2013
User: lab3
Dark Spectrum Present: Yes
Reference Spectrum Present: No
Number of Sampled Component Spectra: 1
Spectrometers: USB2E7196
Integration Time (usec): 170000 (USB2E7196)
Spectra Averaged: 20 (USB2E7196)
Boxcar Smoothing: 10 (USB2E7196)
Correct for Electrical Dark: No (USB2E7196)
Strobe/Lamp Enabled: No (USB2E7196)
Correct for Detector Non-linearity: No (USB2E7196)
Correct for Stray Light: No (USB2E7196)
Number of Pixels in Processed Spectrum: 2048
>>>>>Begin Processed Spectral Data<<<<<
339.09	0.00
339.48	213.75
339.86	214.65
340.24	215.25
340.63	217.95
341.01	224.95
341.39	221.15
341.78	224.15
342.16	223.15
342.54	221.75
342.93	212.75
343.31	223.45
343.69	224.01
344.07	224.43
344.46	225.00
344.84	225.40
345.22	225.47
345.60	225.73
345.99	225.79
346.37	225.99
346.75	226.16
347.13	226.26
347.52	226.30
347.90	226.50
348.28	226.47
348.66	226.59
349.05	226.36
349.43	226.42
349.81	226.45
350.19	226.45
350.57	226.50
350.96	226.60
351.34	226.75
351.72	226.82
352.10	226.94
352.48	226.98
352.87	227.03
353.25	227.00
353.63	226.98
354.01	227.10
354.39	227.12
354.77	227.21
355.15	227.38
355.54	227.37
355.92	227.30
356.30	227.38
356.68	227.69
357.06	227.85
357.44	227.91
357.82	227.95
358.20	228.40
358.58	228.46
358.97	228.51
359.35	228.62
359.73	228.76
360.11	228.78
360.49	228.84
360.87	228.86
361.25	229.06
361.63	229.23
362.01	229.32
362.39	229.29
362.77	229.30
363.15	229.35
363.53	229.37
363.91	229.40
364.29	229.45
364.67	229.06
365.05	229.08
365.43	229.16
365.81	229.28
366.19	229.14
366.57	229.32
366.95	229.34
367.33	229.26
367.71	229.29
368.09	229.52
368.47	229.47
368.85	229.47
369.23	229.55
369.61	229.44
369.99	229.55
370.37	229.68
370.75	229.91
371.13	229.76
371.51	229.69
371.89	229.75
372.27	229.79
372.65	229.78
373.03	229.75
373.41	229.67
373.78	229.65
374.16	229.33
374.54	229.15
374.92	229.09
375.30	229.04
375.68	228.87
376.06	228.75
376.44	228.67
376.82	228.60
377.19	228.48
377.57	228.39
377.95	228.17
378.33	228.08
378.71	227.83
379.09	227.89
379.47	227.93
379.84	227.81
380.22	227.71
380.60	227.60
380.98	227.49
381.36	227.38
381.73	227.22
382.11	227.34
382.49	227.33
382.87	227.23
383.25	227.13
383.62	227.65
384.00	227.50
384.38	227.51
384.76	227.57
385.13	227.70
385.51	227.67
385.89	227.52
386.27	227.49
386.64	227.49
387.02	227.36
387.40	227.29
387.78	227.30
388.15	227.26
388.53	227.20
388.91	227.19
389.29	227.11
389.66	227.13
390.04	226.98
390.42	227.01
390.79	227.00
391.17	226.98
391.55	226.46
391.92	226.48
392.30	226.58
392.68	226.50
393.05	226.50
393.43	226.52
393.81	226.58
394.18	226.55
394.56	226.53
394.94	226.64
395.31	226.61
395.69	226.75
396.06	226.80
396.44	226.88
396.82	226.90
397.19	227.23
397.57	227.24
397.95	227.38
398.32	227.24
398.70	227.36
399.07	227.50
399.45	227.47
399.82	227.54
400.20	227.46
400.58	227.56
400.95	227.45
401.33	227.61
401.70	228.10
402.08	228.19
402.45	228.39
402.83	228.59
403.20	228.76
403.58	228.87
403.95	229.12
404.33	229.32
404.71	229.56
405.08	229.97
405.46	230.20
405.83	230.44
406.21	230.79
406.58	231.07
406.96	231.38
407.33	231.72
407.70	232.16
408.08	232.90
408.45	233.34
408.83	233.84
409.20	234.32
409.58	234.47
409.95	235.06
410.33	235.53
410.70	235.99
411.08	236.65
411.45	237.27
411.82	237.83
412.20	238.61
412.57	239.63
412.95	240.02
413.32	240.90
413.69	241.77
414.07	242.69
414.44	243.71
414.82	244.75
415.19	246.05
415.56	247.18
415.94	248.24
416.31	249.70
416.68	251.10
417.06	252.67
417.43	254.23
417.81	255.97
418.18	257.84
418.55	259.85
418.93	261.88
419.30	263.94
419.67	266.20
420.04	268.44
420.42	270.68
420.79	273.79
421.16	276.57
421.54	279.66
421.91	282.66
422.28	285.75
422.66	289.05
423.03	292.45
423.40	295.81
423.77	299.38
424.15	303.07
424.52	306.94
424.89	311.21
425.26	315.18
425.64	318.93
426.01	323.12
426.38	327.51
426.75	331.98
427.13	336.67
427.50	341.46
427.87	346.43
428.24	351.27
428.61	355.75
428.99	361.10
429.36	366.53
429.73	372.10
430.10	377.67
430.47	383.33
430.85	389.07
431.22	395.29
431.59	402.12
431.96	408.24
432.33	415.14
432.70	421.74
433.08	429.78
433.45	437.39
433.82	444.76
434.19	452.83
434.56	460.97
434.93	468.56
435.30	476.27
435.68	485.02
436.05	493.66
436.42	502.11
436.79	509.83
437.16	518.32
437.53	527.32
437.90	536.12
438.27	544.71
438.64	553.64
439.01	561.94
439.38	569.25
439.75	576.49
440.13	584.58
440.50	592.22
440.87	598.25
441.24	604.53
441.61	611.66
441.98	616.99
442.35	622.75
442.72	628.85
443.09	634.79
443.46	638.15
443.83	640.48
444.20	642.42
444.57	644.96
444.94	645.92
445.31	646.80
445.68	648.11
446.05	648.24
446.42	646.85
446.79	645.49
447.16	643.71
447.53	642.44
447.90	638.67
448.27	635.01
448.64	630.12
449.01	626.40
449.37	620.18
449.74	614.03
450.11	607.24
450.48	599.39
450.85	591.25
451.22	584.28
451.59	577.55
451.96	571.09
452.33	563.04
452.70	555.69
453.07	547.13
453.43	537.93
453.80	529.62
454.17	521.54
454.54	513.75
454.91	505.51
455.28	497.39
455.65	489.80
456.02	482.79
456.38	476.41
456.75	468.55
457.12	462.03
457.49	455.66
457.86	449.24
458.23	444.07
458.59	438.41
458.96	432.62
459.33	427.65
459.70	422.66
460.07	418.59
460.43	413.88
460.80	409.49
461.17	405.77
461.54	401.70
461.91	398.02
462.27	394.06
462.64	390.86
463.01	387.36
463.38	384.15
463.74	380.11
464.11	377.14
464.48	374.63
464.85	371.74
465.21	369.61
465.58	367.34
465.95	364.53
466.32	362.22
466.68	359.98
467.05	357.55
467.42	355.21
467.78	352.85
468.15	350.64
468.52	349.01
468.88	346.71
469.25	344.72
469.62	343.08
469.98	341.53
470.35	339.93
470.72	338.56
471.08	336.90
471.45	335.61
471.82	334.27
472.18	332.82
472.55	331.79
472.92	330.43
473.28	329.30
473.65	328.23
474.02	327.24
474.38	326.41
474.75	325.81
475.11	325.03
475.48	324.39
475.85	323.79
476.21	323.09
476.58	322.68
476.94	322.40
477.31	321.87
477.67	321.40
478.04	321.16
478.41	320.90
478.77	321.18
479.14	320.93
479.50	320.92
479.87	320.91
480.23	320.93
480.60	320.98
480.96	321.03
481.33	321.34
481.69	321.61
482.06	321.85
482.42	322.09
482.79	322.43
483.15	322.89
483.52	323.52
483.88	324.10
484.25	324.66
484.61	325.22
484.98	325.97
485.34	327.03
485.71	327.95
486.07	328.77
486.44	329.26
486.80	330.31
487.17	331.34
487.53	332.65
487.90	333.99
488.26	335.59
488.62	337.28
488.99	338.80
489.35	340.53
489.72	342.35
490.08	344.26
490.44	346.33
490.81	348.58
491.17	350.82
491.54	353.34
491.90	355.81
492.26	358.51
492.63	361.37
492.99	364.14
493.36	367.15
493.72	370.53
494.08	374.13
494.45	377.98
494.81	382.10
495.17	385.90
495.54	390.12
495.90	394.32
496.26	398.69
496.63	403.48
496.99	408.25
497.35	413.40
497.72	418.68
498.08	424.15
498.44	429.79
498.80	435.81
499.17	441.74
499.53	448.17
499.89	454.89
500.26	461.71
500.62	468.74
500.98	476.17
501.34	483.74
501.71	491.50
502.07	499.27
502.43	507.24
502.79	515.82
503.16	524.54
503.52	533.55
503.88	543.03
504.24	552.66
504.60	562.67
504.97	572.92
505.33	583.49
505.69	594.64
506.05	605.72
506.41	616.97
506.78	628.90
507.14	640.90
507.50	653.23
507.86	665.95
508.22	679.02
508.59	692.13
508.95	705.77
509.31	719.73
509.67	734.29
510.03	748.64
510.39	763.36
510.75	778.51
511.12	793.75
511.48	809.15
511.84	825.03
512.20	841.01
512.56	857.46
512.92	874.29
513.28	890.99
513.64	908.46
514.00	925.95
514.37	943.75
514.73	962.00
515.09	980.38
515.45	998.78
515.81	1017.11
516.17	1036.03
516.53	1054.88
516.89	1073.64
517.25	1092.92
517.61	1113.07
517.97	1133.48
518.33	1153.61
518.69	1174.20
519.05	1194.98
519.41	1215.63
519.77	1236.80
520.13	1257.57
520.49	1278.17
520.85	1300.50
521.21	1321.67
521.57	1343.16
521.93	1363.79
522.29	1385.05
522.65	1405.93
523.01	1427.02
523.37	1447.89
523.73	1468.95
524.09	1489.31
524.45	1510.45
524.81	1531.32
525.17	1552.00
525.53	1572.58
525.89	1593.56
526.25	1614.47
526.61	1634.81
526.97	1656.02
527.33	1677.54
527.68	1699.49
528.04	1721.00
528.40	1740.90
528.76	1761.97
529.12	1782.22
529.48	1803.35
529.84	1823.48
530.20	1844.47
530.56	1865.23
530.91	1886.32
531.27	1907.07
531.63	1928.19
531.99	1949.08
532.35	1969.47
532.71	1990.05
533.07	2010.61
533.42	2030.41
533.78	2050.26
534.14	2070.00
534.50	2089.20
534.86	2108.09
535.21	2125.66
535.57	2144.13
535.93	2161.98
536.29	2179.85
536.65	2198.30
537.00	2215.77
537.36	2233.67
537.72	2250.48
538.08	2267.93
538.44	2284.71
538.79	2301.02
539.15	2317.64
539.51	2333.06
539.87	2348.39
540.22	2362.57
540.58	2377.31
540.94	2390.71
541.29	2403.64
541.65	2416.39
542.01	2428.89
542.37	2439.73
542.72	2450.77
543.08	2461.59
543.44	2473.36
543.79	2483.28
544.15	2493.32
544.51	2503.65
544.87	2513.20
545.22	2521.88
545.58	2529.35
545.94	2536.60
546.29	2543.63
546.65	2550.02
547.01	2555.99
547.36	2561.65
547.72	2567.21
548.07	2571.01
548.43	2576.49
548.79	2581.03
549.14	2585.32
549.50	2589.48
549.86	2593.47
550.21	2597.85
550.57	2600.92
550.92	2602.45
551.28	2604.10
551.64	2606.39
551.99	2608.18
552.35	2609.95
552.70	2611.79
553.06	2613.92
553.41	2615.37
553.77	2616.88
554.13	2618.32
554.48	2620.22
554.84	2621.65
555.19	2622.86
555.55	2624.81
555.90	2624.54
556.26	2624.09
556.61	2622.76
556.97	2620.59
557.32	2620.03
557.68	2618.40
558.03	2617.55
558.39	2616.45
558.74	2615.60
559.10	2612.58
559.45	2609.31
559.81	2605.08
560.16	2600.35
560.52	2595.28
560.87	2590.92
561.23	2585.25
561.58	2579.05
561.94	2571.85
562.29	2564.16
562.64	2557.12
563.00	2548.68
563.35	2542.19
563.71	2535.55
564.06	2529.28
564.42	2522.52
564.77	2515.73
565.12	2508.46
565.48	2500.42
565.83	2492.38
566.19	2484.45
566.54	2476.68
566.89	2468.29
567.25	2460.25
567.60	2452.89
567.96	2445.67
568.31	2437.67
568.66	2429.31
569.02	2420.64
569.37	2412.86
569.72	2405.27
570.08	2396.08
570.43	2386.51
570.78	2377.13
571.14	2367.36
571.49	2357.43
571.84	2348.04
572.20	2336.81
572.55	2326.48
572.90	2315.60
573.26	2305.38
573.61	2294.05
573.96	2282.71
574.31	2271.10
574.67	2259.32
575.02	2246.41
575.37	2233.23
575.72	2219.73
576.08	2207.20
576.43	2194.50
576.78	2180.77
577.13	2167.38
577.49	2154.71
577.84	2142.81
578.19	2130.29
578.54	2117.90
578.90	2105.52
579.25	2092.95
579.60	2080.75
579.95	2067.54
580.30	2054.52
580.66	2040.87
581.01	2027.42
581.36	2013.53
581.71	2000.70
582.06	1987.54
582.42	1975.36
582.77	1962.85
583.12	1950.97
583.47	1938.74
583.82	1927.03
584.17	1915.31
584.53	1903.35
584.88	1890.14
585.23	1877.17
585.58	1863.22
585.93	1849.74
586.28	1836.40
586.63	1822.35
586.98	1807.96
587.34	1794.75
587.69	1781.31
588.04	1768.84
588.39	1756.64
588.74	1744.35
589.09	1731.85
589.44	1719.04
589.79	1706.52
590.14	1694.58
590.49	1682.32
590.84	1670.15
591.19	1657.58
591.54	1645.14
591.89	1632.71
592.25	1622.53
592.60	1611.07
592.95	1599.63
593.30	1587.60
593.65	1575.76
594.00	1563.85
594.35	1554.19
594.70	1542.55
595.05	1531.18
595.40	1518.78
595.75	1506.77
596.10	1495.32
596.45	1483.91
596.80	1473.17
597.15	1461.90
597.50	1450.00
597.85	1438.44
598.19	1426.91
598.54	1415.43
598.89	1404.02
599.24	1393.35
599.59	1381.52
599.94	1370.44
600.29	1359.76
600.64	1349.27
600.99	1338.24
601.34	1328.73
601.69	1317.28
602.04	1307.14
602.39	1297.36
602.74	1288.15
603.08	1278.79
603.43	1269.68
603.78	1259.90
604.13	1250.25
604.48	1240.53
604.83	1230.83
605.18	1221.03
605.53	1211.34
605.87	1202.15
606.22	1193.62
606.57	1184.30
606.92	1174.80
607.27	1165.88
607.62	1156.98
607.96	1148.30
608.31	1140.56
608.66	1131.89
609.01	1123.40
609.36	1114.89
609.70	1106.23
610.05	1097.30
610.40	1088.50
610.75	1079.52
611.10	1070.98
611.44	1062.13
611.79	1053.85
612.14	1045.84
612.49	1037.90
612.83	1030.32
613.18	1022.39
613.53	1014.33
613.88	1006.12
614.22	998.45
614.57	990.38
614.92	982.57
615.27	974.88
615.61	966.65
615.96	958.81
616.31	951.20
616.65	944.14
617.00	936.77
617.35	929.45
617.70	922.37
618.04	915.03
618.39	908.15
618.74	901.71
619.08	894.58
619.43	887.51
619.78	880.45
620.12	873.36
620.47	866.39
620.82	859.45
621.16	852.88
621.51	846.45
621.85	840.07
622.20	833.38
622.55	826.94
622.89	820.67
623.24	814.35
623.59	807.92
623.93	801.42
624.28	795.31
624.62	789.90
624.97	783.95
625.32	778.38
625.66	772.37
626.01	766.06
626.35	760.57
626.70	754.94
627.04	749.80
627.39	744.04
627.73	738.65
628.08	733.46
628.43	727.71
628.77	722.17
629.12	716.95
629.46	712.03
629.81	707.16
630.15	702.33
630.50	697.48
630.84	692.56
631.19	687.63
631.53	682.94
631.88	677.50
632.22	672.59
632.57	667.91
632.91	663.29
633.26	659.05
633.60	654.43
633.95	649.64
634.29	644.64
634.64	640.25
634.98	635.51
635.32	631.03
635.67	627.20
636.01	622.95
636.36	618.47
636.70	614.41
637.05	610.19
637.39	606.06
637.73	601.99
638.08	598.02
638.42	593.85
638.77	589.47
639.11	585.11
639.45	580.87
639.80	576.49
640.14	572.52
640.49	568.42
640.83	564.48
641.17	560.76
641.52	557.16
641.86	553.51
642.20	550.20
642.55	546.47
642.89	542.68
643.23	539.24
643.58	536.12
643.92	532.42
644.26	529.01
644.61	525.72
644.95	522.29
645.29	518.73
645.64	515.54
645.98	512.60
646.32	509.72
646.66	506.57
647.01	503.65
647.35	500.84
647.69	497.84
648.04	494.95
648.38	492.15
648.72	489.18
649.06	486.20
649.41	483.11
649.75	480.28
650.09	477.42
650.43	474.44
650.78	471.47
651.12	468.66
651.46	465.80
651.80	463.07
652.14	460.39
652.49	457.95
652.83	455.42
653.17	452.59
653.51	449.83
653.85	447.37
654.20	444.84
654.54	442.05
654.88	439.52
655.22	437.28
655.56	434.81
655.90	432.34
656.25	430.09
656.59	427.91
656.93	425.53
657.27	423.39
657.61	421.00
657.95	418.69
658.29	416.50
658.64	414.43
658.98	412.04
659.32	409.72
659.66	407.46
660.00	405.25
660.34	403.23
660.68	401.25
661.02	399.22
661.36	397.22
661.70	395.26
662.05	393.31
662.39	391.21
662.73	389.43
663.07	387.89
663.41	386.03
663.75	384.08
664.09	382.34
664.43	380.59
664.77	378.82
665.11	377.00
665.45	375.35
665.79	373.77
666.13	372.14
666.47	370.45
666.81	368.82
667.15	367.09
667.49	365.45
667.83	364.07
668.17	362.49
668.51	361.02
668.85	359.65
669.19	358.47
669.53	356.98
669.87	355.39
670.21	353.90
670.55	352.43
670.89	351.33
671.23	349.90
671.57	348.42
671.91	347.25
672.25	346.00
672.58	344.74
672.92	343.15
673.26	341.87
673.60	340.58
673.94	339.38
674.28	338.34
674.62	337.22
674.96	335.93
675.30	334.82
675.64	333.70
675.97	332.42
676.31	330.98
676.65	329.84
676.99	328.90
677.33	327.63
677.67	326.58
678.01	325.23
678.34	324.12
678.68	323.18
679.02	322.10
679.36	321.12
679.70	320.11
680.04	319.30
680.37	318.38
680.71	317.52
681.05	316.61
681.39	315.71
681.73	314.72
682.06	313.80
682.40	312.92
682.74	312.04
683.08	311.36
683.42	310.59
683.75	309.86
684.09	308.89
684.43	308.13
684.77	307.31
685.10	306.59
685.44	305.79
685.78	304.80
686.12	304.01
686.45	303.19
686.79	302.36
687.13	301.78
687.46	301.06
687.80	300.43
688.14	299.58
688.48	298.72
688.81	297.97
689.15	297.38
689.49	296.66
689.82	295.99
690.16	295.12
690.50	294.41
690.83	293.62
691.17	292.86
691.51	292.13
691.84	291.52
692.18	290.81
692.52	290.17
692.85	289.65
693.19	289.15
693.52	288.52
693.86	287.88
694.20	287.14
694.53	286.45
694.87	285.66
695.21	285.03
695.54	284.48
695.88	283.81
696.21	283.05
696.55	282.40
696.88	281.71
697.22	281.08
697.56	280.55
697.89	280.00
698.23	279.51
698.56	279.00
698.90	278.45
699.23	277.88
699.57	277.37
699.90	276.78
700.24	276.16
700.58	275.72
700.91	275.21
701.25	274.97
701.58	274.90
701.92	274.61
702.25	274.18
702.59	273.74
702.92	273.34
703.26	272.99
703.59	272.60
703.93	272.67
704.26	272.31
704.60	271.88
704.93	271.38
705.26	270.91
705.60	270.52
705.93	269.99
706.27	269.68
706.60	269.35
706.94	269.16
707.27	268.75
707.61	268.34
707.94	268.00
708.27	267.27
708.61	266.46
708.94	266.06
709.28	265.74
709.61	265.32
709.94	264.95
710.28	264.55
710.61	264.25
710.95	263.31
711.28	263.27
711.61	262.85
711.95	262.64
712.28	262.28
712.61	261.96
712.95	261.96
713.28	261.80
713.61	261.38
713.95	260.89
714.28	260.54
714.61	260.15
714.95	259.78
715.28	259.40
715.61	259.12
715.95	258.76
716.28	258.35
716.61	258.16
716.95	257.82
717.28	257.42
717.61	257.09
717.94	256.90
718.28	256.21
718.61	255.94
718.94	255.57
719.27	255.35
719.61	255.09
719.94	254.62
720.27	254.06
720.60	253.75
720.94	253.59
721.27	253.41
721.60	253.24
721.93	253.00
722.27	252.96
722.60	252.83
722.93	252.55
723.26	252.36
723.59	252.02
723.93	251.95
724.26	251.84
724.59	251.58
724.92	251.38
725.25	251.37
725.59	251.17
725.92	251.02
726.25	250.85
726.58	250.62
726.91	250.41
727.24	250.35
727.57	250.25
727.91	249.84
728.24	249.63
728.57	249.35
728.90	249.15
729.23	248.80
729.56	248.73
729.89	248.58
730.22	248.34
730.55	248.14
730.89	247.92
731.22	247.67
731.55	247.55
731.88	247.32
732.21	247.03
732.54	246.83
732.87	246.54
733.20	246.34
733.53	246.20
733.86	246.07
734.19	245.86
734.52	245.66
734.85	245.93
735.18	245.68
735.51	245.74
735.84	245.72
736.17	245.67
736.50	245.28
736.83	245.70
737.16	245.66
737.49	245.57
737.82	245.34
738.15	245.28
738.48	245.08
738.81	244.94
739.14	244.74
739.47	244.60
739.80	244.56
740.13	244.47
740.46	244.24
740.79	244.05
741.12	243.80
741.45	243.65
741.78	243.22
742.11	243.26
742.44	242.95
742.77	242.85
743.10	242.69
743.43	242.61
743.75	241.93
744.08	242.34
744.41	242.14
744.74	242.04
745.07	241.82
745.40	241.77
745.73	241.83
746.06	241.72
746.39	241.60
746.71	241.46
747.04	241.24
747.37	241.12
747.70	241.03
748.03	241.00
748.36	240.99
748.68	240.90
749.01	240.68
749.34	240.57
749.67	240.38
750.00	240.29
750.33	240.50
750.65	240.46
750.98	239.73
751.31	239.64
751.64	239.55
751.97	239.67
752.29	239.54
752.62	239.21
752.95	239.08
753.28	238.97
753.60	238.88
753.93	238.94
754.26	238.95
754.59	238.74
754.91	238.66
755.24	238.48
755.57	238.38
755.90	238.20
756.22	238.06
756.55	237.99
756.88	237.79
757.20	237.32
757.53	236.97
757.86	236.90
758.19	236.83
758.51	236.67
758.84	236.40
759.17	236.20
759.49	236.15
759.82	236.29
760.15	236.15
760.47	236.00
760.80	235.79
761.13	235.68
761.45	235.65
761.78	235.50
762.11	235.39
762.43	235.24
762.76	235.20
763.08	235.15
763.41	235.00
763.74	234.99
764.06	234.94
764.39	234.92
764.71	234.87
765.04	234.67
765.37	234.54
765.69	234.38
766.02	234.36
766.34	234.23
766.67	233.95
767.00	233.98
767.32	234.17
767.65	234.34
767.97	234.20
768.30	234.05
768.62	233.96
768.95	233.83
769.27	233.71
769.60	233.73
769.92	233.62
770.25	233.47
770.57	233.33
770.90	233.24
771.22	233.20
771.55	233.14
771.87	233.22
772.20	233.16
772.52	233.55
772.85	234.10
773.17	234.13
773.50	234.16
773.82	234.06
774.15	233.78
774.47	233.50
774.80	233.43
775.12	233.41
775.45	233.32
775.77	233.36
776.09	233.43
776.42	233.38
776.74	233.49
777.07	233.50
777.39	233.46
777.72	233.40
778.04	233.32
778.36	233.27
778.69	233.16
779.01	233.16
779.33	232.63
779.66	232.02
779.98	231.86
780.31	231.81
780.63	231.96
780.95	231.98
781.28	231.90
781.60	231.78
781.92	231.80
782.25	231.84
782.57	231.81
782.89	231.73
783.22	231.62
783.54	231.51
783.86	231.42
784.19	231.39
784.51	231.52
784.83	231.45
785.16	231.31
785.48	231.28
785.80	231.31
786.12	231.35
786.45	231.30
786.77	231.29
787.09	231.14
787.42	230.90
787.74	230.86
788.06	230.84
788.38	230.81
788.71	230.65
789.03	230.59
789.35	230.51
789.67	230.40
789.99	230.40
790.32	230.26
790.64	230.30
790.96	230.56
791.28	230.31
791.61	230.30
791.93	230.35
792.25	230.24
792.57	230.51
792.89	230.41
793.21	230.38
793.54	230.33
793.86	230.25
794.18	230.29
794.50	230.16
794.82	230.14
795.14	230.16
795.47	230.23
795.79	230.25
796.11	230.23
796.43	230.18
796.75	230.15
797.07	230.14
797.39	230.08
797.71	229.83
798.04	229.86
798.36	229.84
798.68	229.75
799.00	229.78
799.32	229.50
799.64	229.55
799.96	229.51
800.28	229.53
800.60	229.50
800.92	229.46
801.24	229.44
801.56	229.41
801.89	229.36
802.21	229.39
802.53	229.23
802.85	229.26
803.17	229.49
803.49	229.37
803.81	229.34
804.13	229.30
804.45	229.21
804.77	229.24
805.09	229.18
805.41	229.22
805.73	229.11
806.05	228.99
806.37	229.01
806.69	228.90
807.01	228.86
807.33	228.90
807.65	228.68
807.97	228.91
808.28	228.92
808.60	228.95
808.92	228.79
809.24	229.09
809.56	229.01
809.88	228.80
810.20	228.80
810.52	228.88
810.84	228.78
811.16	228.74
811.48	228.71
811.80	228.91
812.12	228.90
812.43	229.05
812.75	229.08
813.07	228.96
813.39	229.08
813.71	229.05
814.03	229.05
814.35	229.15
814.67	228.95
814.98	228.89
815.30	228.81
815.62	228.80
815.94	228.45
816.26	228.62
816.58	228.56
816.89	228.59
817.21	228.50
817.53	228.60
817.85	228.59
818.17	228.50
818.48	228.34
818.80	228.40
819.12	228.27
819.44	228.16
819.76	228.13
820.07	228.03
820.39	228.08
820.71	228.08
821.03	228.02
821.34	228.00
821.66	228.04
821.98	228.12
822.30	228.12
822.61	228.47
822.93	228.28
823.25	228.23
823.57	228.20
823.88	228.28
824.20	228.20
824.52	228.23
824.83	228.25
825.15	228.23
825.47	228.13
825.79	228.20
826.10	228.18
826.42	228.21
826.74	228.32
827.05	228.27
827.37	228.33
827.69	228.30
828.00	228.30
828.32	228.28
828.64	228.18
828.95	228.39
829.27	228.21
829.58	228.23
829.90	228.25
830.22	228.25
830.53	228.09
830.85	228.09
831.17	227.98
831.48	227.94
831.80	227.90
832.11	227.88
832.43	227.80
832.75	227.84
833.06	228.16
833.38	228.00
833.69	227.95
834.01	227.93
834.32	228.00
834.64	227.98
834.96	227.98
835.27	227.95
835.59	227.81
835.90	227.79
836.22	227.71
836.53	227.65
836.85	227.66
837.16	228.08
837.48	228.08
837.79	228.22
838.11	228.23
838.42	228.23
838.74	228.29
839.05	228.20
839.37	228.13
839.68	227.74
840.00	227.72
840.31	227.73
840.63	227.64
840.94	227.50
841.26	227.40
841.57	227.36
841.88	227.45
842.20	227.36
842.51	227.20
842.83	227.26
843.14	227.70
843.46	227.67
843.77	227.40
844.08	227.33
844.40	227.17
844.71	227.10
845.03	227.02
845.34	226.92
845.65	226.95
845.97	226.93
846.28	226.90
846.60	226.90
846.91	226.85
847.22	226.86
847.54	227.00
847.85	226.94
848.16	226.90
848.48	226.74
848.79	226.94
849.10	226.93
849.42	226.86
849.73	226.46
850.04	226.41
850.36	226.24
850.67	226.34
850.98	226.44
851.30	226.56
851.61	226.54
851.92	226.60
852.23	226.78
852.55	226.85
852.86	226.91
853.17	226.96
853.49	227.04
853.80	227.10
854.11	227.06
854.42	227.25
854.74	227.22
855.05	227.28
855.36	227.08
855.67	227.23
855.99	227.23
856.30	227.72
856.61	227.72
856.92	227.80
857.23	227.81
857.55	227.71
857.86	227.64
858.17	227.75
858.48	227.64
858.79	227.51
859.11	227.47
859.42	227.49
859.73	227.43
860.04	227.40
860.35	227.30
860.66	227.21
860.98	227.17
861.29	227.22
861.60	227.21
861.91	227.31
862.22	227.15
862.53	227.09
862.84	226.60
863.16	226.73
863.47	226.61
863.78	226.57
864.09	226.56
864.40	226.62
864.71	226.55
865.02	226.64
865.33	226.61
865.64	226.64
865.95	226.64
866.27	226.99
866.58	226.92
866.89	226.98
867.20	226.99
867.51	226.90
867.82	226.87
868.13	227.00
868.44	226.84
868.75	226.94
869.06	227.02
869.37	227.03
869.68	226.84
869.99	227.01
870.30	226.98
870.61	227.07
870.92	227.00
871.23	227.05
871.54	227.13
871.85	227.27
872.16	227.27
872.47	227.23
872.78	226.92
873.09	226.98
873.40	226.88
873.71	226.92
874.02	226.97
874.33	226.93
874.64	226.83
874.95	226.94
875.26	226.83
875.56	226.90
875.87	226.89
876.18	226.91
876.49	227.35
876.80	227.36
877.11	227.30
877.42	227.31
877.73	227.32
878.04	227.17
878.35	227.12
878.66	227.18
878.96	227.20
879.27	227.17
879.58	227.20
879.89	227.21
880.20	227.34
880.51	227.36
880.82	227.47
881.12	227.45
881.43	227.39
881.74	227.38
882.05	227.24
882.36	227.29
882.67	227.36
882.97	226.83
883.28	226.73
883.59	226.72
883.90	226.79
884.21	226.86
884.51	226.87
884.82	226.80
885.13	226.81
885.44	226.77
885.74	226.76
886.05	226.73
886.36	226.70
886.67	226.55
886.98	226.72
887.28	226.64
887.59	226.70
887.90	226.72
888.20	226.77
888.51	226.88
888.82	226.73
889.13	226.80
889.43	227.20
889.74	227.25
890.05	227.26
890.35	227.22
890.66	227.13
890.97	227.09
891.28	227.01
891.58	226.98
891.89	227.03
892.20	227.00
892.50	226.95
892.81	226.95
893.12	226.94
893.42	226.75
893.73	226.81
894.04	226.84
894.34	226.86
894.65	226.79
894.95	226.74
895.26	226.75
895.57	226.92
895.87	226.45
896.18	226.56
896.48	226.57
896.79	226.53
897.10	226.56
897.40	226.63
897.71	226.71
898.01	226.65
898.32	226.64
898.63	226.65
898.93	226.69
899.24	226.69
899.54	226.61
899.85	226.62
900.15	226.62
900.46	226.53
900.76	226.57
901.07	226.60
901.38	226.54
901.68	226.65
901.99	226.39
902.29	226.42
902.60	226.36
902.90	226.35
903.21	226.34
903.51	226.36
903.82	226.41
904.12	226.40
904.43	226.39
904.73	226.37
905.03	226.38
905.34	226.83
905.64	226.80
905.95	226.90
906.25	226.87
906.56	226.80
906.86	226.83
907.17	226.80
907.47	226.79
907.77	226.83
908.08	226.73
908.38	226.75
908.69	226.77
908.99	226.79
909.30	226.80
909.60	226.83
909.90	226.80
910.21	226.71
910.51	226.64
910.81	226.77
911.12	226.77
911.42	226.77
911.73	226.32
912.03	226.45
912.33	226.48
912.64	226.50
912.94	226.48
913.24	226.45
913.55	226.44
913.85	226.39
914.15	226.50
914.46	226.56
914.76	226.59
915.06	226.57
915.37	226.46
915.67	226.44
915.97	226.50
916.27	226.46
916.58	226.48
916.88	226.51
917.18	226.38
917.49	226.74
917.79	226.75
918.09	226.80
918.39	226.82
918.70	226.80
919.00	226.78
919.30	226.98
919.60	226.94
919.91	226.87
920.21	226.93
920.51	226.76
920.81	226.72
921.12	226.80
921.42	226.79
921.72	226.84
922.02	226.86
922.32	226.87
922.63	226.89
922.93	227.06
923.23	227.08
923.53	227.02
923.83	226.73
924.13	226.76
924.44	226.78
924.74	226.89
925.04	227.05
925.34	227.01
925.64	226.81
925.94	226.85
926.24	227.12
926.55	227.05
926.85	227.14
927.15	227.14
927.45	227.10
927.75	227.12
928.05	227.17
928.35	227.20
928.65	227.28
928.95	227.30
929.26	227.16
929.56	227.31
929.86	227.46
930.16	227.35
930.46	227.35
930.76	227.35
931.06	227.14
931.36	226.96
931.66	227.10
931.96	227.18
932.26	227.20
932.56	227.06
932.86	227.20
933.16	227.24
933.46	227.31
933.76	227.26
934.06	227.42
934.36	227.63
934.66	227.57
934.96	227.53
935.26	227.55
935.56	227.60
935.86	227.50
936.16	227.42
936.46	227.47
936.76	227.46
937.06	227.40
937.36	227.46
937.66	227.43
937.96	227.39
938.26	227.33
938.56	227.32
938.86	227.31
939.16	227.42
939.46	227.47
939.76	227.40
940.06	227.38
940.35	227.26
940.65	226.94
940.95	227.05
941.25	226.90
941.55	226.80
941.85	226.78
942.15	226.90
942.45	226.99
942.75	226.95
943.04	226.89
943.34	227.01
943.64	226.95
943.94	227.02
944.24	227.07
944.54	227.05
944.84	226.93
945.13	226.85
945.43	226.73
945.73	226.66
946.03	226.60
946.33	226.61
946.62	226.55
946.92	226.59
947.22	226.59
947.52	226.69
947.82	226.78
948.11	226.70
948.41	226.56
948.71	226.49
949.01	226.54
949.31	226.56
949.60	226.53
949.90	226.58
950.20	226.50
950.50	226.46
950.79	226.41
951.09	226.65
951.39	226.61
951.69	226.52
951.98	226.59
952.28	226.70
952.58	226.58
952.87	226.59
953.17	226.65
953.47	226.59
953.76	226.45
954.06	226.30
954.36	226.26
954.66	226.24
954.95	226.28
955.25	226.25
955.55	226.24
955.84	226.16
956.14	226.18
956.44	226.20
956.73	226.10
957.03	226.14
957.32	226.05
957.62	226.08
957.92	226.14
958.21	226.07
958.51	226.52
958.81	226.60
959.10	226.65
959.40	226.74
959.69	226.73
959.99	226.86
960.29	226.96
960.58	226.96
960.88	227.16
961.17	227.11
961.47	227.15
961.76	227.20
962.06	227.22
962.36	227.13
962.65	227.19
962.95	227.19
963.24	227.19
963.54	227.15
963.83	227.20
964.13	227.20
964.42	227.09
964.72	226.70
965.01	226.70
965.31	226.73
965.60	226.61
965.90	226.86
966.19	226.82
966.49	226.85
966.78	226.81
967.08	226.77
967.37	226.78
967.67	226.72
967.96	226.69
968.26	226.66
968.55	226.73
968.85	226.62
969.14	226.66
969.43	226.62
969.73	226.65
970.02	226.64
970.32	226.55
970.61	226.54
970.91	226.42
971.20	226.36
971.49	226.32
971.79	226.40
972.08	226.02
972.38	226.02
972.67	225.96
972.96	226.08
973.26	225.97
973.55	226.10
973.85	226.08
974.14	226.09
974.43	226.15
974.73	226.14
975.02	226.18
975.31	226.21
975.61	226.27
975.90	226.25
976.19	226.15
976.49	226.31
976.78	226.40
977.07	226.43
977.37	226.55
977.66	226.53
977.95	226.45
978.24	226.61
978.54	226.75
978.83	226.74
979.12	226.70
979.42	226.72
979.71	226.64
980.00	226.69
980.29	226.74
980.59	226.68
980.88	226.80
981.17	226.80
981.46	226.75
981.76	226.75
982.05	226.86
982.34	226.96
982.63	226.95
982.93	226.97
983.22	227.16
983.51	227.19
983.80	227.29
984.09	227.35
984.39	227.29
984.68	227.22
984.97	227.26
985.26	227.17
985.55	227.21
985.85	227.12
986.14	227.15
986.43	227.20
986.72	227.19
987.01	227.02
987.30	227.11
987.59	227.10
987.89	227.13
988.18	227.04
988.47	226.99
988.76	226.91
989.05	226.89
989.34	226.75
989.63	226.74
989.92	226.65
990.22	226.61
990.51	226.59
990.80	226.54
991.09	226.57
991.38	226.68
991.67	226.60
991.96	226.55
992.25	226.56
992.54	226.40
992.83	226.40
993.12	226.42
993.41	226.36
993.70	226.59
993.99	226.64
994.28	226.61
994.58	226.66
994.87	226.63
995.16	226.60
995.45	226.51
995.74	226.39
996.03	226.52
996.32	226.58
996.61	226.72
996.90	226.72
997.19	226.68
997.48	226.58
997.77	226.55
998.06	226.59
998.34	226.57
998.63	226.53
998.92	226.50
999.21	226.56
999.50	226.61
999.79	226.40
1000.08	226.33
1000.37	226.33
1000.66	226.26
1000.95	226.42
1001.24	226.46
1001.53	226.60
1001.82	226.62
1002.11	226.46
1002.40	226.45
1002.68	226.55
1002.97	226.88
1003.26	226.87
1003.55	226.92
1003.84	226.96
1004.13	227.11
1004.42	227.05
1004.71	227.13
1004.99	227.19
1005.28	227.32
1005.57	227.31
1005.86	227.30
1006.15	227.34
1006.44	227.29
1006.72	227.38
1007.01	227.24
1007.30	227.18
1007.59	227.12
1007.88	227.15
1008.17	227.17
1008.45	227.13
1008.74	226.87
1009.03	226.61
1009.32	226.62
1009.60	226.63
1009.89	226.55
1010.18	226.44
1010.47	226.43
1010.76	226.45
1011.04	226.40
1011.33	226.37
1011.62	226.40
1011.91	226.42
1012.19	226.39
1012.48	226.40
1012.77	226.48
1013.05	226.71
1013.34	226.72
1013.63	226.73
1013.92	226.70
1014.20	226.65
1014.49	226.66
1014.78	226.73
1015.06	226.60
1015.35	226.66
1015.64	226.71
1015.92	226.75
1016.21	226.71
1016.50	226.76
1016.78	226.76
1017.07	226.83
1017.36	226.66
1017.64	226.58
1017.93	226.64
1018.22	226.61
1018.50	226.61
1018.79	226.51
1019.08	226.29
1019.36	226.40
1019.65	226.31
1019.93	226.43
1020.22	226.53
1020.51	226.75
1020.79	226.63
1021.08	225.75
1021.36	225.75
1021.65	226.65
1021.94	226.40
1022.22	227.75
1022.51	225.90
1022.79	228.00
1023.08	227.05
1023.36	231.90
1023.65	224.20
>>>>>End Processed Spectral Data<<<<<
