SpectraSuite Data File
++++++++++++++++++++++++++++++++++++
Date: Wed Sep 04 17:46:18 EDT 2013
User: lab3
Dark Spectrum Present: Yes
Reference Spectrum Present: No
Number of Sampled Component Spectra: 1
Spectrometers: USB2E7196
Integration Time (usec): 170000 (USB2E7196)
Spectra Averaged: 20 (USB2E7196)
Boxcar Smoothing: 10 (USB2E7196)
Correct for Electrical Dark: No (USB2E7196)
Strobe/Lamp Enabled: No (USB2E7196)
Correct for Detector Non-linearity: No (USB2E7196)
Correct for Stray Light: No (USB2E7196)
Number of Pixels in Processed Spectrum: 2048
>>>>>Begin Processed Spectral Data<<<<<
339.09	0.00
339.48	212.75
339.86	214.05
340.24	216.30
340.63	215.70
341.01	226.45
341.39	219.80
341.78	221.80
342.16	224.60
342.54	222.95
342.93	212.18
343.31	222.91
343.69	223.47
344.07	223.94
344.46	224.38
344.84	224.80
345.22	224.75
345.60	225.03
345.99	225.18
346.37	225.21
346.75	225.34
347.13	225.40
347.52	225.47
347.90	225.68
348.28	225.80
348.66	225.90
349.05	225.77
349.43	225.89
349.81	225.98
350.19	226.04
350.57	226.08
350.96	226.07
351.34	226.17
351.72	226.25
352.10	226.33
352.48	226.43
352.87	226.52
353.25	226.57
353.63	226.55
354.01	226.61
354.39	226.67
354.77	226.70
355.15	226.87
355.54	226.87
355.92	226.80
356.30	226.79
356.68	227.17
357.06	227.26
357.44	227.15
357.82	227.12
358.20	227.51
358.58	227.66
358.97	227.75
359.35	227.89
359.73	228.04
360.11	228.07
360.49	228.06
360.87	228.13
361.25	228.31
361.63	228.57
362.01	228.64
362.39	228.68
362.77	228.78
363.15	228.79
363.53	228.82
363.91	228.86
364.29	228.91
364.67	228.43
365.05	228.45
365.43	228.57
365.81	228.75
366.19	228.56
366.57	228.67
366.95	228.71
367.33	228.58
367.71	228.56
368.09	228.66
368.47	228.67
368.85	228.64
369.23	228.65
369.61	228.47
369.99	228.68
370.37	228.77
370.75	229.00
371.13	228.95
371.51	228.89
371.89	228.97
372.27	228.97
372.65	229.03
373.03	229.11
373.41	229.06
373.78	229.00
374.16	228.83
374.54	228.66
374.92	228.59
375.30	228.63
375.68	228.51
376.06	228.53
376.44	228.45
376.82	228.45
377.19	228.29
377.57	228.19
377.95	228.03
378.33	227.89
378.71	227.45
379.09	227.43
379.47	227.44
379.84	227.32
380.22	227.16
380.60	227.10
380.98	226.96
381.36	226.91
381.73	226.78
382.11	226.74
382.49	226.72
382.87	226.56
383.25	226.38
383.62	226.87
384.00	226.65
384.38	226.60
384.76	226.70
385.13	226.86
385.51	226.90
385.89	226.64
386.27	226.67
386.64	226.75
387.02	226.63
387.40	226.58
387.78	226.55
388.15	226.56
388.53	226.46
388.91	226.40
389.29	226.36
389.66	226.39
390.04	226.33
390.42	226.33
390.79	226.44
391.17	226.43
391.55	225.91
391.92	225.96
392.30	226.03
392.68	225.85
393.05	225.74
393.43	225.73
393.81	225.79
394.18	225.63
394.56	225.62
394.94	225.74
395.31	225.71
395.69	225.90
396.06	225.99
396.44	226.07
396.82	226.05
397.19	226.31
397.57	226.30
397.95	226.43
398.32	226.37
398.70	226.46
399.07	226.69
399.45	226.67
399.82	226.73
400.20	226.77
400.58	226.84
400.95	226.76
401.33	226.93
401.70	227.37
402.08	227.57
402.45	227.75
402.83	227.95
403.20	228.11
403.58	228.16
403.95	228.46
404.33	228.69
404.71	228.96
405.08	229.42
405.46	229.62
405.83	229.82
406.21	230.08
406.58	230.33
406.96	230.55
407.33	230.93
407.70	231.36
408.08	232.11
408.45	232.61
408.83	233.19
409.20	233.55
409.58	233.76
409.95	234.25
410.33	234.83
410.70	235.24
411.08	235.87
411.45	236.50
411.82	236.98
412.20	237.74
412.57	238.70
412.95	238.98
413.32	239.96
413.69	240.75
414.07	241.72
414.44	242.69
414.82	243.70
415.19	244.90
415.56	246.05
415.94	247.02
416.31	248.41
416.68	249.73
417.06	251.42
417.43	252.98
417.81	254.73
418.18	256.46
418.55	258.41
418.93	260.39
419.30	262.47
419.67	264.71
420.04	266.92
420.42	269.15
420.79	272.17
421.16	274.76
421.54	277.92
421.91	280.87
422.28	283.90
422.66	287.16
423.03	290.58
423.40	293.81
423.77	297.28
424.15	300.77
424.52	304.58
424.89	308.53
425.26	312.45
425.64	316.06
426.01	320.19
426.38	324.45
426.75	328.85
427.13	333.35
427.50	337.98
427.87	342.81
428.24	347.65
428.61	352.01
428.99	357.20
429.36	362.36
429.73	367.57
430.10	373.04
430.47	378.57
430.85	383.99
431.22	389.92
431.59	396.58
431.96	402.56
432.33	409.19
432.70	415.74
433.08	423.36
433.45	430.75
433.82	437.80
434.19	445.81
434.56	453.71
434.93	461.10
435.30	468.63
435.68	476.89
436.05	485.10
436.42	493.40
436.79	500.95
437.16	509.27
437.53	518.04
437.90	526.48
438.27	534.75
438.64	543.49
439.01	551.79
439.38	558.79
439.75	565.75
440.13	573.68
440.50	581.10
440.87	587.13
441.24	593.45
441.61	600.44
441.98	605.28
442.35	610.92
442.72	616.88
443.09	622.52
443.46	626.00
443.83	628.35
444.20	630.23
444.57	632.79
444.94	633.68
445.31	634.64
445.68	636.05
446.05	636.40
446.42	635.15
446.79	633.77
447.16	632.26
447.53	631.26
447.90	627.58
448.27	624.03
448.64	619.19
449.01	615.50
449.37	609.45
449.74	603.71
450.11	597.19
450.48	589.67
450.85	581.91
451.22	575.28
451.59	568.78
451.96	562.59
452.33	554.83
452.70	547.74
453.07	539.40
453.43	530.45
453.80	522.18
454.17	514.38
454.54	506.73
454.91	498.65
455.28	490.75
455.65	483.58
456.02	476.90
456.38	470.75
456.75	463.29
457.12	456.90
457.49	450.75
457.86	444.45
458.23	439.38
458.59	433.92
458.96	428.21
459.33	423.26
459.70	418.24
460.07	414.21
460.43	409.58
460.80	405.36
461.17	401.65
461.54	397.80
461.91	394.07
462.27	390.38
462.64	387.19
463.01	383.73
463.38	380.47
463.74	376.50
464.11	373.51
464.48	370.78
464.85	368.06
465.21	365.97
465.58	363.77
465.95	360.92
466.32	358.70
466.68	356.52
467.05	354.29
467.42	352.15
467.78	349.75
468.15	347.69
468.52	346.18
468.88	343.97
469.25	342.11
469.62	340.59
469.98	338.94
470.35	337.40
470.72	335.94
471.08	334.25
471.45	332.96
471.82	331.76
472.18	330.35
472.55	329.30
472.92	327.99
473.28	326.85
473.65	325.77
474.02	324.73
474.38	323.84
474.75	323.11
475.11	322.26
475.48	321.73
475.85	321.12
476.21	320.42
476.58	320.00
476.94	319.51
477.31	319.15
477.67	318.81
478.04	318.49
478.41	318.34
478.77	318.73
479.14	318.47
479.50	318.43
479.87	318.47
480.23	318.50
480.60	318.50
480.96	318.39
481.33	318.89
481.69	319.12
482.06	319.40
482.42	319.67
482.79	320.02
483.15	320.47
483.52	321.07
483.88	321.55
484.25	322.18
484.61	322.94
484.98	323.60
485.34	324.57
485.71	325.52
486.07	326.47
486.44	326.98
486.80	328.15
487.17	329.26
487.53	330.71
487.90	332.10
488.26	333.71
488.62	335.40
488.99	336.81
489.35	338.50
489.72	340.37
490.08	342.34
490.44	344.35
490.81	346.58
491.17	348.79
491.54	351.26
491.90	353.90
492.26	356.55
492.63	359.36
492.99	362.03
493.36	365.10
493.72	368.51
494.08	371.88
494.45	375.50
494.81	379.34
495.17	383.18
495.54	387.33
495.90	391.52
496.26	395.98
496.63	400.64
496.99	405.34
497.35	410.28
497.72	415.45
498.08	420.91
498.44	426.44
498.80	432.43
499.17	438.35
499.53	444.52
499.89	451.10
500.26	457.77
500.62	464.75
500.98	472.14
501.34	479.44
501.71	487.03
502.07	494.79
502.43	502.76
502.79	510.97
503.16	519.54
503.52	528.44
503.88	537.65
504.24	547.11
504.60	557.10
504.97	567.35
505.33	577.69
505.69	588.71
506.05	599.52
506.41	610.70
506.78	622.19
507.14	634.05
507.50	646.13
507.86	658.54
508.22	671.44
508.59	684.38
508.95	697.89
509.31	711.89
509.67	726.19
510.03	740.30
510.39	754.85
510.75	769.71
511.12	784.60
511.48	799.94
511.84	815.52
512.20	831.12
512.56	847.17
512.92	863.81
513.28	880.14
513.64	897.08
514.00	914.23
514.37	931.59
514.73	949.23
515.09	967.26
515.45	985.51
515.81	1003.67
516.17	1022.11
516.53	1040.47
516.89	1058.74
517.25	1077.57
517.61	1097.32
517.97	1117.41
518.33	1137.12
518.69	1157.22
519.05	1177.54
519.41	1198.01
519.77	1218.89
520.13	1239.33
520.49	1259.63
520.85	1281.54
521.21	1302.57
521.57	1323.46
521.93	1344.26
522.29	1365.31
522.65	1385.71
523.01	1406.68
523.37	1426.97
523.73	1447.40
524.09	1467.57
524.45	1488.09
524.81	1508.47
525.17	1528.86
525.53	1548.76
525.89	1569.36
526.25	1589.68
526.61	1609.43
526.97	1630.12
527.33	1650.83
527.68	1672.17
528.04	1693.05
528.40	1712.57
528.76	1733.30
529.12	1753.31
529.48	1773.33
529.84	1792.86
530.20	1813.37
530.56	1833.17
530.91	1853.75
531.27	1873.60
531.63	1893.64
531.99	1913.84
532.35	1933.41
532.71	1953.23
533.07	1973.50
533.42	1992.62
533.78	2011.94
534.14	2031.32
534.50	2049.28
534.86	2067.98
535.21	2084.96
535.57	2102.74
535.93	2119.74
536.29	2136.62
536.65	2154.30
537.00	2171.74
537.36	2188.71
537.72	2204.58
538.08	2221.36
538.44	2237.35
538.79	2253.80
539.15	2269.66
539.51	2284.73
539.87	2299.76
540.22	2313.38
540.58	2326.89
540.94	2339.59
541.29	2352.02
541.65	2364.23
542.01	2376.55
542.37	2386.48
542.72	2397.10
543.08	2407.32
543.44	2418.71
543.79	2428.33
544.15	2437.65
544.51	2447.07
544.87	2456.11
545.22	2464.37
545.58	2471.47
545.94	2478.07
546.29	2484.03
546.65	2490.05
547.01	2495.62
547.36	2500.32
547.72	2505.18
548.07	2508.90
548.43	2514.00
548.79	2518.01
549.14	2521.57
549.50	2524.96
549.86	2528.65
550.21	2532.09
550.57	2534.70
550.92	2535.45
551.28	2536.31
551.64	2537.90
551.99	2538.95
552.35	2540.31
552.70	2542.08
553.06	2543.63
553.41	2544.51
553.77	2545.87
554.13	2547.06
554.48	2547.95
554.84	2549.06
555.19	2549.62
555.55	2551.02
555.90	2549.75
556.26	2548.75
556.61	2547.06
556.97	2544.78
557.32	2543.87
557.68	2542.22
558.03	2540.78
558.39	2539.15
558.74	2537.97
559.10	2534.65
559.45	2531.24
559.81	2526.74
560.16	2521.26
560.52	2515.94
560.87	2511.93
561.23	2506.09
561.58	2499.72
561.94	2493.09
562.29	2485.65
562.64	2478.90
563.00	2470.67
563.35	2464.06
563.71	2457.46
564.06	2450.99
564.42	2444.03
564.77	2437.13
565.12	2429.66
565.48	2421.88
565.83	2414.14
566.19	2406.34
566.54	2398.55
566.89	2390.26
567.25	2382.71
567.60	2375.51
567.96	2367.87
568.31	2359.48
568.66	2351.01
569.02	2342.40
569.37	2333.94
569.72	2326.75
570.08	2317.45
570.43	2307.83
570.78	2298.61
571.14	2289.14
571.49	2279.05
571.84	2269.95
572.20	2258.93
572.55	2248.67
572.90	2238.02
573.26	2227.66
573.61	2216.51
573.96	2205.60
574.31	2194.08
574.67	2182.21
575.02	2169.62
575.37	2156.98
575.72	2143.98
576.08	2132.28
576.43	2120.07
576.78	2107.22
577.13	2093.47
577.49	2080.92
577.84	2069.10
578.19	2057.72
578.54	2045.41
578.90	2033.70
579.25	2021.54
579.60	2009.53
579.95	1997.00
580.30	1984.03
580.66	1970.90
581.01	1958.06
581.36	1944.51
581.71	1932.27
582.06	1919.50
582.42	1907.63
582.77	1895.27
583.12	1883.87
583.47	1871.57
583.82	1859.87
584.17	1848.35
584.53	1836.82
584.88	1824.33
585.23	1811.97
585.58	1797.79
585.93	1784.70
586.28	1771.89
586.63	1758.23
586.98	1744.21
587.34	1731.35
587.69	1718.85
588.04	1706.64
588.39	1694.81
588.74	1682.76
589.09	1670.85
589.44	1658.68
589.79	1646.86
590.14	1635.43
590.49	1623.35
590.84	1611.58
591.19	1599.80
591.54	1587.87
591.89	1576.14
592.25	1566.18
592.60	1554.90
592.95	1544.10
593.30	1532.96
593.65	1521.27
594.00	1509.76
594.35	1500.56
594.70	1489.22
595.05	1478.03
595.40	1466.43
595.75	1454.61
596.10	1444.02
596.45	1432.86
596.80	1422.30
597.15	1411.08
597.50	1399.80
597.85	1388.94
598.19	1377.67
598.54	1366.38
598.89	1355.56
599.24	1345.24
599.59	1334.06
599.94	1323.66
600.29	1313.41
600.64	1303.32
600.99	1292.97
601.34	1283.77
601.69	1272.85
602.04	1263.22
602.39	1253.80
602.74	1244.99
603.08	1236.00
603.43	1226.92
603.78	1217.73
604.13	1208.36
604.48	1199.02
604.83	1189.73
605.18	1180.10
605.53	1170.83
605.87	1161.82
606.22	1153.40
606.57	1144.22
606.92	1135.05
607.27	1126.53
607.62	1118.07
607.96	1109.70
608.31	1102.05
608.66	1094.00
609.01	1085.71
609.36	1077.53
609.70	1069.21
610.05	1060.66
610.40	1052.48
610.75	1044.17
611.10	1035.87
611.44	1027.61
611.79	1019.77
612.14	1012.13
612.49	1004.51
612.83	997.45
613.18	990.09
613.53	982.69
613.88	975.12
614.22	967.70
614.57	960.01
614.92	952.62
615.27	945.37
615.61	937.80
615.96	930.30
616.31	923.06
616.65	916.42
617.00	909.27
617.35	902.42
617.70	895.45
618.04	888.55
618.39	881.78
618.74	875.53
619.08	868.93
619.43	862.34
619.78	855.61
620.12	848.47
620.47	841.85
620.82	834.90
621.16	828.49
621.51	822.37
621.85	816.28
622.20	809.86
622.55	803.48
622.89	797.34
623.24	791.26
623.59	785.02
623.93	778.57
624.28	772.73
624.62	767.20
624.97	761.73
625.32	756.03
625.66	750.51
626.01	744.68
626.35	739.34
626.70	733.75
627.04	728.59
627.39	723.29
627.73	718.35
628.08	713.18
628.43	707.91
628.77	702.67
629.12	697.38
629.46	692.73
629.81	687.94
630.15	683.40
630.50	678.66
630.84	674.00
631.19	669.42
631.53	665.04
631.88	660.04
632.22	655.20
632.57	650.95
632.91	646.32
633.26	642.05
633.60	637.56
633.95	633.07
634.29	628.50
634.64	624.28
634.98	619.64
635.32	615.50
635.67	611.45
636.01	607.40
636.36	603.20
636.70	599.30
637.05	595.42
637.39	591.30
637.73	587.19
638.08	583.41
638.42	579.37
638.77	575.12
639.11	570.93
639.45	566.93
639.80	562.71
640.14	558.96
640.49	555.09
640.83	551.44
641.17	547.97
641.52	544.59
641.86	541.28
642.20	538.18
642.55	534.66
642.89	531.28
643.23	527.81
643.58	524.96
643.92	521.40
644.26	518.14
644.61	514.98
644.95	511.86
645.29	508.56
645.64	505.59
645.98	502.63
646.32	499.80
646.66	496.70
647.01	493.85
647.35	491.01
647.69	488.23
648.04	485.49
648.38	482.74
648.72	479.84
649.06	476.81
649.41	473.75
649.75	470.96
650.09	468.14
650.43	465.47
650.78	462.54
651.12	459.73
651.46	456.82
651.80	454.14
652.14	451.52
652.49	449.15
652.83	446.73
653.17	444.25
653.51	441.68
653.85	439.54
654.20	437.09
654.54	434.68
654.88	432.22
655.22	430.10
655.56	427.73
655.90	425.44
656.25	423.26
656.59	421.03
656.93	418.94
657.27	417.00
657.61	414.75
657.95	412.59
658.29	410.55
658.64	408.71
658.98	406.67
659.32	404.52
659.66	402.31
660.00	400.14
660.34	398.08
660.68	396.15
661.02	394.06
661.36	392.07
661.70	390.10
662.05	388.21
662.39	386.22
662.73	384.49
663.07	383.04
663.41	381.29
663.75	379.48
664.09	377.71
664.43	375.79
664.77	374.07
665.11	372.32
665.45	370.80
665.79	369.14
666.13	367.43
666.47	365.87
666.81	364.30
667.15	362.64
667.49	361.30
667.83	360.04
668.17	358.53
668.51	357.18
668.85	355.91
669.19	354.80
669.53	353.23
669.87	351.70
670.21	350.18
670.55	348.84
670.89	347.85
671.23	346.61
671.57	345.38
671.91	344.05
672.25	342.84
672.58	341.62
672.92	340.27
673.26	339.08
673.60	337.90
673.94	336.76
674.28	335.64
674.62	334.48
674.96	333.14
675.30	332.01
675.64	330.91
675.97	329.66
676.31	328.31
676.65	327.15
676.99	326.30
677.33	325.09
677.67	324.01
678.01	322.70
678.34	321.56
678.68	320.65
679.02	319.69
679.36	318.71
679.70	317.64
680.04	316.80
680.37	315.86
680.71	314.94
681.05	314.07
681.39	313.27
681.73	312.28
682.06	311.42
682.40	310.63
682.74	309.80
683.08	309.12
683.42	308.24
683.75	307.53
684.09	306.52
684.43	305.78
684.77	304.94
685.10	304.18
685.44	303.45
685.78	302.60
686.12	301.89
686.45	301.12
686.79	300.30
687.13	299.56
687.46	298.82
687.80	298.13
688.14	297.33
688.48	296.59
688.81	295.91
689.15	295.29
689.49	294.58
689.82	293.88
690.16	293.02
690.50	292.30
690.83	291.58
691.17	290.93
691.51	290.27
691.84	289.71
692.18	289.00
692.52	288.34
692.85	287.70
693.19	287.30
693.52	286.68
693.86	286.09
694.20	285.43
694.53	284.92
694.87	284.22
695.21	283.59
695.54	282.99
695.88	282.29
696.21	281.55
696.55	280.92
696.88	280.29
697.22	279.63
697.56	279.12
697.89	278.44
698.23	277.99
698.56	277.38
698.90	276.86
699.23	276.32
699.57	275.80
699.90	275.22
700.24	274.49
700.58	273.99
700.91	273.53
701.25	273.43
701.58	273.18
701.92	272.84
702.25	272.36
702.59	271.93
702.92	271.48
703.26	271.11
703.59	270.75
703.93	270.75
704.26	270.46
704.60	270.15
704.93	269.78
705.26	269.23
705.60	268.93
705.93	268.40
706.27	268.14
706.60	267.80
706.94	267.63
707.27	267.20
707.61	266.90
707.94	266.50
708.27	265.71
708.61	264.96
708.94	264.58
709.28	264.32
709.61	263.90
709.94	263.63
710.28	263.29
710.61	262.90
710.95	262.08
711.28	262.03
711.61	261.63
711.95	261.43
712.28	261.09
712.61	260.66
712.95	260.66
713.28	260.45
713.61	260.12
713.95	259.63
714.28	259.42
714.61	258.99
714.95	258.65
715.28	258.25
715.61	257.85
715.95	257.54
716.28	257.10
716.61	256.79
716.95	256.46
717.28	256.08
717.61	255.81
717.94	255.53
718.28	254.90
718.61	254.60
718.94	254.26
719.27	253.96
719.61	253.79
719.94	253.38
720.27	252.91
720.60	252.51
720.94	252.30
721.27	252.00
721.60	251.85
721.93	251.71
722.27	251.70
722.60	251.65
722.93	251.35
723.26	251.24
723.59	251.09
723.93	250.95
724.26	250.76
724.59	250.53
724.92	250.38
725.25	250.31
725.59	250.15
725.92	249.92
726.25	249.80
726.58	249.60
726.91	249.36
727.24	249.31
727.57	249.14
727.91	248.87
728.24	248.73
728.57	248.49
728.90	248.23
729.23	247.85
729.56	247.92
729.89	247.76
730.22	247.48
730.55	247.13
730.89	246.92
731.22	246.75
731.55	246.59
731.88	246.49
732.21	246.16
732.54	245.91
732.87	245.79
733.20	245.60
733.53	245.43
733.86	245.26
734.19	244.96
734.52	244.89
734.85	245.05
735.18	244.79
735.51	244.76
735.84	244.65
736.17	244.74
736.50	244.34
736.83	244.73
737.16	244.69
737.49	244.73
737.82	244.60
738.15	244.50
738.48	244.33
738.81	244.15
739.14	244.01
739.47	243.87
739.80	243.65
740.13	243.51
740.46	243.32
740.79	243.17
741.12	243.04
741.45	242.79
741.78	242.40
742.11	242.40
742.44	242.13
742.77	242.02
743.10	241.81
743.43	241.58
743.75	240.97
744.08	241.41
744.41	241.16
744.74	240.92
745.07	240.72
745.40	240.60
745.73	240.64
746.06	240.50
746.39	240.44
746.71	240.25
747.04	240.06
747.37	239.93
747.70	239.85
748.03	239.72
748.36	239.72
748.68	239.50
749.01	239.29
749.34	239.26
749.67	239.22
750.00	239.14
750.33	239.35
750.65	239.26
750.98	238.54
751.31	238.48
751.64	238.43
751.97	238.53
752.29	238.38
752.62	238.09
752.95	237.99
753.28	237.85
753.60	237.79
753.93	237.85
754.26	237.80
754.59	237.50
754.91	237.42
755.24	237.33
755.57	237.29
755.90	237.16
756.22	236.96
756.55	236.76
756.88	236.53
757.20	236.18
757.53	235.89
757.86	235.75
758.19	235.66
758.51	235.57
758.84	235.25
759.17	235.13
759.49	235.06
759.82	235.18
760.15	235.04
760.47	234.95
760.80	234.75
761.13	234.70
761.45	234.67
761.78	234.52
762.11	234.37
762.43	234.26
762.76	234.18
763.08	234.11
763.41	234.09
763.74	234.06
764.06	233.95
764.39	234.04
764.71	234.02
765.04	233.90
765.37	233.77
765.69	233.68
766.02	233.70
766.34	233.55
766.67	233.37
767.00	233.40
767.32	233.61
767.65	233.85
767.97	233.70
768.30	233.65
768.62	233.65
768.95	233.61
769.27	233.59
769.60	233.61
769.92	233.53
770.25	233.34
770.57	233.18
770.90	233.11
771.22	232.98
771.55	232.87
771.87	232.91
772.20	232.87
772.52	233.24
772.85	233.74
773.17	233.73
773.50	233.64
773.82	233.59
774.15	233.31
774.47	232.89
774.80	232.77
775.12	232.79
775.45	232.70
775.77	232.65
776.09	232.60
776.42	232.55
776.74	232.63
777.07	232.61
777.39	232.64
777.72	232.66
778.04	232.64
778.36	232.52
778.69	232.46
779.01	232.43
779.33	231.95
779.66	231.38
779.98	231.27
780.31	231.16
780.63	231.29
780.95	231.38
781.28	231.34
781.60	231.31
781.92	231.24
782.25	231.25
782.57	231.13
782.89	231.01
783.22	230.93
783.54	230.77
783.86	230.78
784.19	230.68
784.51	230.71
784.83	230.65
785.16	230.67
785.48	230.50
785.80	230.43
786.12	230.50
786.45	230.46
786.77	230.49
787.09	230.41
787.42	230.18
787.74	230.04
788.06	230.08
788.38	230.05
788.71	229.94
789.03	229.90
789.35	230.00
789.67	229.90
789.99	229.91
790.32	229.84
790.64	229.85
790.96	230.17
791.28	230.02
791.61	229.90
791.93	229.91
792.25	229.95
792.57	230.27
792.89	230.15
793.21	230.13
793.54	230.05
793.86	230.04
794.18	229.95
794.50	229.92
794.82	229.86
795.14	229.92
795.47	230.00
795.79	229.98
796.11	229.85
796.43	229.86
796.75	229.83
797.07	229.85
797.39	229.76
797.71	229.40
798.04	229.46
798.36	229.55
798.68	229.52
799.00	229.61
799.32	229.32
799.64	229.35
799.96	229.33
800.28	229.34
800.60	229.29
800.92	229.37
801.24	229.19
801.56	229.24
801.89	229.14
802.21	229.13
802.53	229.00
802.85	229.13
803.17	229.37
803.49	229.26
803.81	229.18
804.13	229.19
804.45	229.16
804.77	229.10
805.09	229.03
805.41	228.99
805.73	228.81
806.05	228.65
806.37	228.62
806.69	228.49
807.01	228.46
807.33	228.50
807.65	228.29
807.97	228.63
808.28	228.56
808.60	228.54
808.92	228.46
809.24	228.85
809.56	228.64
809.88	228.35
810.20	228.32
810.52	228.46
810.84	228.35
811.16	228.24
811.48	228.18
811.80	228.31
812.12	228.20
812.43	228.29
812.75	228.32
813.07	228.22
813.39	228.28
813.71	228.22
814.03	228.12
814.35	228.17
814.67	227.91
814.98	227.82
815.30	227.78
815.62	227.70
815.94	227.29
816.26	227.52
816.58	227.48
816.89	227.55
817.21	227.38
817.53	227.39
817.85	227.44
818.17	227.46
818.48	227.28
818.80	227.43
819.12	227.34
819.44	227.33
819.76	227.37
820.07	227.29
820.39	227.31
820.71	227.37
821.03	227.36
821.34	227.28
821.66	227.38
821.98	227.36
822.30	227.31
822.61	227.60
822.93	227.35
823.25	227.34
823.57	227.26
823.88	227.38
824.20	227.38
824.52	227.49
824.83	227.50
825.15	227.44
825.47	227.37
825.79	227.42
826.10	227.40
826.42	227.33
826.74	227.43
827.05	227.39
827.37	227.46
827.69	227.45
828.00	227.58
828.32	227.63
828.64	227.60
828.95	227.82
829.27	227.68
829.58	227.72
829.90	227.81
830.22	227.86
830.53	227.70
830.85	227.61
831.17	227.43
831.48	227.35
831.80	227.40
832.11	227.37
832.43	227.28
832.75	227.26
833.06	227.59
833.38	227.39
833.69	227.33
834.01	227.27
834.32	227.23
834.64	227.13
834.96	227.10
835.27	227.13
835.59	227.03
835.90	226.88
836.22	226.84
836.53	226.71
836.85	226.62
837.16	227.16
837.48	227.17
837.79	227.35
838.11	227.39
838.42	227.36
838.74	227.44
839.05	227.41
839.37	227.36
839.68	227.09
840.00	227.16
840.31	227.24
840.63	227.20
840.94	227.18
841.26	227.17
841.57	227.14
841.88	227.13
842.20	227.01
842.51	226.95
842.83	226.92
843.14	227.38
843.46	227.40
843.77	227.12
844.08	227.12
844.40	227.04
844.71	226.96
845.03	226.89
845.34	226.83
845.65	226.78
845.97	226.75
846.28	226.70
846.60	226.73
846.91	226.69
847.22	226.67
847.54	226.86
847.85	226.88
848.16	226.83
848.48	226.75
848.79	227.04
849.10	227.19
849.42	227.25
849.73	226.75
850.04	226.75
850.36	226.57
850.67	226.69
850.98	226.56
851.30	226.58
851.61	226.58
851.92	226.52
852.23	226.69
852.55	226.80
852.86	226.86
853.17	226.88
853.49	227.03
853.80	227.13
854.11	227.08
854.42	227.05
854.74	226.99
855.05	227.09
855.36	226.80
855.67	226.79
855.99	226.74
856.30	227.33
856.61	227.34
856.92	227.31
857.23	227.27
857.55	227.35
857.86	227.36
858.17	227.54
858.48	227.57
858.79	227.52
859.11	227.54
859.42	227.52
859.73	227.45
860.04	227.37
860.35	227.25
860.66	227.12
860.98	227.16
861.29	227.21
861.60	227.18
861.91	227.27
862.22	227.26
862.53	227.24
862.84	226.67
863.16	226.80
863.47	226.74
863.78	226.72
864.09	226.73
864.40	226.70
864.71	226.62
865.02	226.59
865.33	226.45
865.64	226.39
865.95	226.39
866.27	226.67
866.58	226.55
866.89	226.59
867.20	226.59
867.51	226.56
867.82	226.51
868.13	226.58
868.44	226.44
868.75	226.45
869.06	226.46
869.37	226.52
869.68	226.33
869.99	226.48
870.30	226.42
870.61	226.48
870.92	226.42
871.23	226.36
871.54	226.44
871.85	226.61
872.16	226.68
872.47	226.57
872.78	226.32
873.09	226.36
873.40	226.29
873.71	226.28
874.02	226.30
874.33	226.22
874.64	226.14
874.95	226.21
875.26	226.05
875.56	226.05
875.87	226.02
876.18	225.95
876.49	226.32
876.80	226.29
877.11	226.16
877.42	226.18
877.73	226.23
878.04	226.17
878.35	226.11
878.66	226.06
878.96	226.09
879.27	226.04
879.58	226.02
879.89	225.99
880.20	226.14
880.51	226.10
880.82	226.11
881.12	226.13
881.43	226.10
881.74	226.08
882.05	226.02
882.36	226.04
882.67	226.11
882.97	225.56
883.28	225.51
883.59	225.52
883.90	225.62
884.21	225.62
884.51	225.60
884.82	225.57
885.13	225.55
885.44	225.50
885.74	225.48
886.05	225.49
886.36	225.52
886.67	225.28
886.98	225.50
887.28	225.59
887.59	225.65
887.90	225.64
888.20	225.67
888.51	225.82
888.82	225.82
889.13	225.85
889.43	226.31
889.74	226.31
890.05	226.36
890.35	226.28
890.66	226.21
890.97	226.17
891.28	226.13
891.58	226.15
891.89	226.21
892.20	226.23
892.50	226.24
892.81	226.25
893.12	226.29
893.42	226.10
893.73	226.14
894.04	226.08
894.34	226.14
894.65	226.12
894.95	226.07
895.26	226.05
895.57	226.33
895.87	225.88
896.18	226.03
896.48	226.02
896.79	226.04
897.10	226.14
897.40	226.16
897.71	226.21
898.01	226.15
898.32	226.21
898.63	226.25
898.93	226.24
899.24	226.26
899.54	226.29
899.85	226.31
900.15	226.24
900.46	226.26
900.76	226.34
901.07	226.40
901.38	226.41
901.68	226.52
901.99	226.24
902.29	226.25
902.60	226.20
902.90	226.17
903.21	226.10
903.51	226.07
903.82	226.19
904.12	226.16
904.43	226.28
904.73	226.28
905.03	226.27
905.34	226.77
905.64	226.75
905.95	226.73
906.25	226.69
906.56	226.75
906.86	226.76
907.17	226.66
907.47	226.60
907.77	226.60
908.08	226.48
908.38	226.55
908.69	226.63
908.99	226.70
909.30	226.74
909.60	226.81
909.90	226.85
910.21	226.69
910.51	226.62
910.81	226.63
911.12	226.66
911.42	226.66
911.73	226.17
912.03	226.15
912.33	226.25
912.64	226.28
912.94	226.20
913.24	226.05
913.55	226.04
913.85	226.11
914.15	226.18
914.46	226.25
914.76	226.17
915.06	226.16
915.37	226.12
915.67	226.11
915.97	226.13
916.27	226.01
916.58	226.04
916.88	226.04
917.18	225.93
917.49	226.20
917.79	226.18
918.09	226.27
918.39	226.40
918.70	226.37
919.00	226.35
919.30	226.58
919.60	226.63
919.91	226.63
920.21	226.65
920.51	226.50
920.81	226.43
921.12	226.51
921.42	226.47
921.72	226.46
922.02	226.46
922.32	226.45
922.63	226.50
922.93	226.70
923.23	226.74
923.53	226.70
923.83	226.41
924.13	226.46
924.44	226.42
924.74	226.54
925.04	226.65
925.34	226.65
925.64	226.41
925.94	226.42
926.24	226.64
926.55	226.54
926.85	226.63
927.15	226.63
927.45	226.60
927.75	226.59
928.05	226.61
928.35	226.55
928.65	226.62
928.95	226.63
929.26	226.51
929.56	226.68
929.86	226.77
930.16	226.71
930.46	226.66
930.76	226.64
931.06	226.37
931.36	226.23
931.66	226.37
931.96	226.49
932.26	226.54
932.56	226.33
932.86	226.36
933.16	226.35
933.46	226.32
933.76	226.30
934.06	226.47
934.36	226.62
934.66	226.63
934.96	226.63
935.26	226.68
935.56	226.73
935.86	226.56
936.16	226.47
936.46	226.45
936.76	226.39
937.06	226.37
937.36	226.44
937.66	226.39
937.96	226.28
938.26	226.21
938.56	226.21
938.86	226.25
939.16	226.37
939.46	226.46
939.76	226.51
940.06	226.58
940.35	226.42
940.65	226.21
940.95	226.24
941.25	226.12
941.55	226.03
941.85	225.98
942.15	226.10
942.45	226.29
942.75	226.30
943.04	226.34
943.34	226.47
943.64	226.41
943.94	226.43
944.24	226.45
944.54	226.49
944.84	226.47
945.13	226.40
945.43	226.33
945.73	226.22
946.03	226.18
946.33	226.05
946.62	226.05
946.92	226.05
947.22	226.08
947.52	226.13
947.82	226.19
948.11	226.07
948.41	225.97
948.71	225.78
949.01	225.80
949.31	225.82
949.60	225.72
949.90	225.85
950.20	225.79
950.50	225.78
950.79	225.69
951.09	225.70
951.39	225.70
951.69	225.65
951.98	225.76
952.28	225.84
952.58	225.81
952.87	225.81
953.17	225.83
953.47	225.74
953.76	225.69
954.06	225.66
954.36	225.69
954.66	225.63
954.95	225.76
955.25	225.77
955.55	225.77
955.84	225.69
956.14	225.72
956.44	225.75
956.73	225.66
957.03	225.68
957.32	225.64
957.62	225.61
957.92	225.74
958.21	225.61
958.51	226.12
958.81	226.21
959.10	226.27
959.40	226.40
959.69	226.49
959.99	226.57
960.29	226.56
960.58	226.45
960.88	226.72
961.17	226.70
961.47	226.69
961.76	226.68
962.06	226.75
962.36	226.59
962.65	226.58
962.95	226.65
963.24	226.58
963.54	226.64
963.83	226.60
964.13	226.53
964.42	226.49
964.72	226.13
965.01	226.13
965.31	226.04
965.60	225.88
965.90	226.14
966.19	225.97
966.49	225.95
966.78	226.07
967.08	225.97
967.37	225.97
967.67	225.88
967.96	225.92
968.26	225.93
968.55	226.03
968.85	226.03
969.14	226.04
969.43	226.10
969.73	226.00
970.02	226.05
970.32	226.00
970.61	226.01
970.91	225.83
971.20	225.70
971.49	225.67
971.79	225.75
972.08	225.42
972.38	225.57
972.67	225.59
972.96	225.60
973.26	225.51
973.55	225.58
973.85	225.60
974.14	225.54
974.43	225.53
974.73	225.51
975.02	225.47
975.31	225.42
975.61	225.42
975.90	225.45
976.19	225.49
976.49	225.54
976.78	225.54
977.07	225.55
977.37	225.69
977.66	225.79
977.95	225.64
978.24	225.70
978.54	225.72
978.83	225.69
979.12	225.63
979.42	225.53
979.71	225.43
980.00	225.43
980.29	225.49
980.59	225.43
980.88	225.47
981.17	225.47
981.46	225.47
981.76	225.45
982.05	225.56
982.34	225.53
982.63	225.54
982.93	225.55
983.22	225.67
983.51	225.62
983.80	225.64
984.09	225.79
984.39	225.73
984.68	225.69
984.97	225.67
985.26	225.72
985.55	225.83
985.85	225.80
986.14	225.90
986.43	225.91
986.72	225.88
987.01	225.72
987.30	225.79
987.59	225.78
987.89	225.81
988.18	225.73
988.47	225.74
988.76	225.66
989.05	225.60
989.34	225.58
989.63	225.71
989.92	225.66
990.22	225.64
990.51	225.63
990.80	225.57
991.09	225.61
991.38	225.58
991.67	225.59
991.96	225.54
992.25	225.54
992.54	225.46
992.83	225.51
993.12	225.55
993.41	225.60
993.70	225.77
993.99	225.82
994.28	225.86
994.58	225.92
994.87	225.95
995.16	225.97
995.45	225.85
995.74	225.69
996.03	225.72
996.32	225.73
996.61	225.85
996.90	225.81
997.19	225.76
997.48	225.81
997.77	225.72
998.06	225.74
998.34	225.71
998.63	225.71
998.92	225.73
999.21	225.80
999.50	225.74
999.79	225.57
1000.08	225.60
1000.37	225.59
1000.66	225.53
1000.95	225.65
1001.24	225.70
1001.53	225.73
1001.82	225.71
1002.11	225.56
1002.40	225.69
1002.68	225.90
1002.97	226.23
1003.26	226.23
1003.55	226.12
1003.84	226.20
1004.13	226.41
1004.42	226.42
1004.71	226.45
1004.99	226.42
1005.28	226.53
1005.57	226.51
1005.86	226.56
1006.15	226.48
1006.44	226.36
1006.72	226.44
1007.01	226.34
1007.30	226.31
1007.59	226.31
1007.88	226.32
1008.17	226.43
1008.45	226.25
1008.74	225.92
1009.03	225.77
1009.32	225.78
1009.60	225.83
1009.89	225.82
1010.18	225.63
1010.47	225.57
1010.76	225.56
1011.04	225.58
1011.33	225.58
1011.62	225.65
1011.91	225.62
1012.19	225.70
1012.48	225.74
1012.77	225.69
1013.05	225.91
1013.34	225.98
1013.63	226.00
1013.92	226.02
1014.20	225.90
1014.49	225.96
1014.78	226.02
1015.06	225.91
1015.35	225.95
1015.64	225.95
1015.92	226.01
1016.21	226.01
1016.50	225.93
1016.78	225.98
1017.07	226.02
1017.36	225.89
1017.64	225.85
1017.93	225.92
1018.22	225.82
1018.50	225.80
1018.79	225.77
1019.08	225.50
1019.36	225.43
1019.65	225.36
1019.93	225.46
1020.22	225.62
1020.51	225.83
1020.79	225.80
1021.08	224.55
1021.36	224.35
1021.65	225.25
1021.94	224.95
1022.22	224.95
1022.51	224.70
1022.79	227.50
1023.08	226.75
1023.36	231.20
1023.65	224.85
>>>>>End Processed Spectral Data<<<<<
