SpectraSuite Data File
++++++++++++++++++++++++++++++++++++
Date: Wed Sep 04 17:53:47 EDT 2013
User: lab3
Dark Spectrum Present: Yes
Reference Spectrum Present: No
Number of Sampled Component Spectra: 1
Spectrometers: USB2E7196
Integration Time (usec): 170000 (USB2E7196)
Spectra Averaged: 20 (USB2E7196)
Boxcar Smoothing: 10 (USB2E7196)
Correct for Electrical Dark: No (USB2E7196)
Strobe/Lamp Enabled: No (USB2E7196)
Correct for Detector Non-linearity: No (USB2E7196)
Correct for Stray Light: No (USB2E7196)
Number of Pixels in Processed Spectrum: 2048
>>>>>Begin Processed Spectral Data<<<<<
339.09	0.00
339.48	213.60
339.86	215.55
340.24	216.10
340.63	217.55
341.01	226.20
341.39	219.85
341.78	222.55
342.16	223.90
342.54	223.15
342.93	212.55
343.31	223.22
343.69	223.76
344.07	224.20
344.46	224.67
344.84	225.15
345.22	225.14
345.60	225.45
345.99	225.64
346.37	225.67
346.75	225.80
347.13	225.84
347.52	225.88
347.90	226.05
348.28	226.05
348.66	226.15
349.05	225.96
349.43	226.08
349.81	226.23
350.19	226.30
350.57	226.33
350.96	226.37
351.34	226.55
351.72	226.61
352.10	226.69
352.48	226.74
352.87	226.73
353.25	226.71
353.63	226.71
354.01	226.74
354.39	226.86
354.77	226.95
355.15	227.13
355.54	227.20
355.92	227.13
356.30	227.25
356.68	227.66
357.06	227.75
357.44	227.72
357.82	227.71
358.20	228.20
358.58	228.37
358.97	228.53
359.35	228.64
359.73	228.74
360.11	228.82
360.49	228.94
360.87	229.00
361.25	229.16
361.63	229.41
362.01	229.50
362.39	229.51
362.77	229.57
363.15	229.65
363.53	229.58
363.91	229.61
364.29	229.59
364.67	229.12
365.05	229.24
365.43	229.27
365.81	229.39
366.19	229.24
366.57	229.35
366.95	229.30
367.33	229.18
367.71	229.24
368.09	229.31
368.47	229.26
368.85	229.17
369.23	229.32
369.61	229.19
369.99	229.35
370.37	229.40
370.75	229.58
371.13	229.41
371.51	229.40
371.89	229.49
372.27	229.47
372.65	229.45
373.03	229.44
373.41	229.46
373.78	229.36
374.16	229.05
374.54	228.85
374.92	228.79
375.30	228.77
375.68	228.62
376.06	228.55
376.44	228.44
376.82	228.56
377.19	228.35
377.57	228.24
377.95	227.98
378.33	227.90
378.71	227.52
379.09	227.54
379.47	227.55
379.84	227.37
380.22	227.26
380.60	227.17
380.98	227.02
381.36	226.84
381.73	226.67
382.11	226.66
382.49	226.54
382.87	226.36
383.25	226.26
383.62	226.78
384.00	226.64
384.38	226.60
384.76	226.50
385.13	226.70
385.51	226.67
385.89	226.55
386.27	226.59
386.64	226.66
387.02	226.56
387.40	226.44
387.78	226.42
388.15	226.47
388.53	226.39
388.91	226.37
389.29	226.32
389.66	226.38
390.04	226.35
390.42	226.44
390.79	226.48
391.17	226.50
391.55	225.92
391.92	225.91
392.30	225.98
392.68	225.93
393.05	225.84
393.43	225.83
393.81	225.90
394.18	225.75
394.56	225.76
394.94	225.88
395.31	225.86
395.69	225.98
396.06	226.00
396.44	226.09
396.82	226.12
397.19	226.45
397.57	226.43
397.95	226.51
398.32	226.41
398.70	226.56
399.07	226.77
399.45	226.82
399.82	226.91
400.20	226.87
400.58	226.95
400.95	226.83
401.33	227.07
401.70	227.45
402.08	227.66
402.45	227.79
402.83	227.98
403.20	228.18
403.58	228.36
403.95	228.67
404.33	228.90
404.71	229.12
405.08	229.62
405.46	229.85
405.83	230.15
406.21	230.51
406.58	230.72
406.96	231.00
407.33	231.32
407.70	231.75
408.08	232.57
408.45	233.04
408.83	233.63
409.20	233.93
409.58	234.11
409.95	234.66
410.33	235.24
410.70	235.62
411.08	236.20
411.45	236.81
411.82	237.37
412.20	238.11
412.57	239.06
412.95	239.31
413.32	240.26
413.69	241.12
414.07	241.97
414.44	242.99
414.82	243.97
415.19	245.21
415.56	246.40
415.94	247.37
416.31	248.80
416.68	250.13
417.06	251.79
417.43	253.47
417.81	255.24
418.18	257.00
418.55	258.98
418.93	261.04
419.30	263.10
419.67	265.26
420.04	267.53
420.42	269.91
420.79	273.04
421.16	275.76
421.54	278.72
421.91	281.68
422.28	284.80
422.66	288.12
423.03	291.51
423.40	294.80
423.77	298.42
424.15	301.94
424.52	305.73
424.89	309.90
425.26	313.77
425.64	317.51
426.01	321.75
426.38	326.13
426.75	330.65
427.13	335.26
427.50	340.16
427.87	345.07
428.24	349.84
428.61	354.33
428.99	359.64
429.36	364.97
429.73	370.49
430.10	375.95
430.47	381.53
430.85	387.17
431.22	393.36
431.59	400.00
431.96	406.22
432.33	413.20
432.70	419.75
433.08	427.68
433.45	435.10
433.82	442.38
434.19	450.46
434.56	458.60
434.93	466.22
435.30	473.75
435.68	482.28
436.05	490.77
436.42	499.04
436.79	506.77
437.16	515.19
437.53	524.03
437.90	532.87
438.27	541.45
438.64	550.47
439.01	558.71
439.38	565.80
439.75	573.00
440.13	580.97
440.50	588.44
440.87	594.45
441.24	600.77
441.61	607.85
441.98	612.95
442.35	618.73
442.72	624.58
443.09	630.57
443.46	633.91
443.83	636.26
444.20	638.25
444.57	640.95
444.94	642.16
445.31	643.22
445.68	644.33
446.05	644.37
446.42	642.92
446.79	641.61
447.16	640.03
447.53	638.61
447.90	634.81
448.27	631.18
448.64	626.30
449.01	622.59
449.37	616.30
449.74	610.36
450.11	603.50
450.48	595.94
450.85	587.89
451.22	581.10
451.59	574.55
451.96	568.27
452.33	560.07
452.70	552.65
453.07	544.06
453.43	535.16
453.80	526.90
454.17	518.92
454.54	511.23
454.91	503.13
455.28	495.33
455.65	488.02
456.02	481.31
456.38	475.04
456.75	467.26
457.12	460.87
457.49	454.55
457.86	448.20
458.23	443.10
458.59	437.48
458.96	431.85
459.33	426.71
459.70	421.62
460.07	417.56
460.43	412.85
460.80	408.56
461.17	404.75
461.54	400.72
461.91	396.96
462.27	392.98
462.64	389.72
463.01	386.17
463.38	382.94
463.74	378.90
464.11	375.78
464.48	373.29
464.85	370.41
465.21	368.22
465.58	365.90
465.95	362.97
466.32	360.69
466.68	358.39
467.05	356.13
467.42	353.94
467.78	351.75
468.15	349.69
468.52	348.11
468.88	345.86
469.25	343.97
469.62	342.52
469.98	340.92
470.35	339.50
470.72	338.00
471.08	336.23
471.45	334.98
471.82	333.75
472.18	332.24
472.55	331.22
472.92	329.94
473.28	328.88
473.65	327.86
474.02	326.74
474.38	325.90
474.75	325.13
475.11	324.33
475.48	323.62
475.85	322.99
476.21	322.33
476.58	321.82
476.94	321.42
477.31	320.93
477.67	320.54
478.04	320.18
478.41	319.97
478.77	320.24
479.14	319.90
479.50	319.92
479.87	320.01
480.23	319.97
480.60	319.94
480.96	319.93
481.33	320.27
481.69	320.55
482.06	320.75
482.42	321.02
482.79	321.36
483.15	321.77
483.52	322.36
483.88	322.78
484.25	323.45
484.61	324.06
484.98	324.70
485.34	325.69
485.71	326.55
486.07	327.55
486.44	328.10
486.80	329.28
487.17	330.25
487.53	331.50
487.90	332.94
488.26	334.60
488.62	336.29
488.99	337.81
489.35	339.50
489.72	341.47
490.08	343.44
490.44	345.38
490.81	347.55
491.17	349.77
491.54	352.32
491.90	354.83
492.26	357.56
492.63	360.42
492.99	363.25
493.36	366.39
493.72	369.67
494.08	373.20
494.45	376.86
494.81	380.82
495.17	384.69
495.54	388.89
495.90	393.07
496.26	397.45
496.63	402.05
496.99	406.88
497.35	411.85
497.72	417.13
498.08	422.52
498.44	428.20
498.80	434.15
499.17	440.10
499.53	446.35
499.89	452.97
500.26	459.79
500.62	466.72
500.98	474.11
501.34	481.42
501.71	489.08
502.07	496.83
502.43	504.91
502.79	513.36
503.16	522.02
503.52	531.07
503.88	540.35
504.24	549.91
504.60	559.95
504.97	570.10
505.33	580.34
505.69	591.48
506.05	602.38
506.41	613.58
506.78	625.21
507.14	637.25
507.50	649.64
507.86	662.19
508.22	675.17
508.59	688.01
508.95	701.84
509.31	715.96
509.67	730.28
510.03	744.50
510.39	759.16
510.75	774.08
511.12	789.10
511.48	804.76
511.84	820.56
512.20	836.31
512.56	852.85
512.92	869.87
513.28	886.60
513.64	903.93
514.00	921.48
514.37	939.26
514.73	957.42
515.09	975.55
515.45	993.92
515.81	1012.40
516.17	1031.20
516.53	1049.66
516.89	1068.21
517.25	1087.53
517.61	1107.70
517.97	1127.98
518.33	1148.19
518.69	1168.50
519.05	1188.88
519.41	1209.49
519.77	1230.49
520.13	1251.11
520.49	1271.50
520.85	1293.83
521.21	1314.92
521.57	1336.25
521.93	1357.14
522.29	1378.18
522.65	1398.77
523.01	1419.57
523.37	1440.34
523.73	1461.32
524.09	1481.92
524.45	1502.74
524.81	1523.60
525.17	1544.39
525.53	1564.87
525.89	1585.68
526.25	1606.42
526.61	1626.69
526.97	1647.82
527.33	1669.23
527.68	1691.04
528.04	1712.35
528.40	1731.82
528.76	1752.84
529.12	1773.24
529.48	1794.12
529.84	1814.12
530.20	1835.36
530.56	1856.10
530.91	1876.62
531.27	1896.92
531.63	1917.56
531.99	1937.88
532.35	1957.77
532.71	1977.67
533.07	1998.41
533.42	2018.02
533.78	2037.92
534.14	2057.88
534.50	2076.69
534.86	2095.71
535.21	2113.04
535.57	2131.45
535.93	2149.26
536.29	2166.82
536.65	2184.91
537.00	2202.25
537.36	2219.78
537.72	2236.03
538.08	2252.90
538.44	2269.75
538.79	2286.25
539.15	2302.83
539.51	2318.95
539.87	2334.18
540.22	2348.12
540.58	2362.57
540.94	2375.67
541.29	2388.41
541.65	2400.88
542.01	2413.47
542.37	2423.88
542.72	2435.06
543.08	2445.44
543.44	2457.00
543.79	2466.90
544.15	2476.28
544.51	2486.33
544.87	2495.83
545.22	2504.65
545.58	2512.75
545.94	2519.74
546.29	2526.28
546.65	2532.23
547.01	2537.76
547.36	2543.30
547.72	2549.04
548.07	2552.66
548.43	2558.19
548.79	2562.75
549.14	2566.93
549.50	2570.33
549.86	2574.42
550.21	2578.11
550.57	2581.85
550.92	2583.30
551.28	2584.70
551.64	2587.23
551.99	2589.05
552.35	2590.43
552.70	2592.55
553.06	2593.91
553.41	2594.83
553.77	2596.60
554.13	2598.07
554.48	2599.53
554.84	2600.64
555.19	2601.83
555.55	2603.48
555.90	2602.46
556.26	2601.38
556.61	2599.45
556.97	2597.27
557.32	2596.24
557.68	2594.77
558.03	2592.99
558.39	2591.25
558.74	2590.59
559.10	2587.48
559.45	2583.45
559.81	2579.13
560.16	2573.35
560.52	2568.43
560.87	2564.56
561.23	2558.97
561.58	2553.01
561.94	2546.11
562.29	2539.20
562.64	2532.26
563.00	2523.74
563.35	2517.14
563.71	2510.65
564.06	2504.50
564.42	2498.46
564.77	2491.77
565.12	2484.54
565.48	2477.04
565.83	2469.17
566.19	2460.94
566.54	2452.83
566.89	2445.08
567.25	2437.75
567.60	2431.25
567.96	2423.88
568.31	2415.68
568.66	2407.30
569.02	2398.49
569.37	2390.41
569.72	2382.25
570.08	2372.71
570.43	2363.46
570.78	2354.49
571.14	2345.23
571.49	2335.00
571.84	2325.28
572.20	2314.49
572.55	2304.14
572.90	2292.96
573.26	2282.60
573.61	2271.51
573.96	2260.49
574.31	2248.60
574.67	2236.67
575.02	2223.69
575.37	2211.05
575.72	2197.65
576.08	2185.40
576.43	2172.91
576.78	2159.86
577.13	2146.30
577.49	2133.71
577.84	2121.90
578.19	2109.99
578.54	2097.14
578.90	2085.31
579.25	2073.12
579.60	2060.48
579.95	2047.70
580.30	2034.88
580.66	2021.56
581.01	2008.34
581.36	1994.53
581.71	1981.90
582.06	1968.84
582.42	1956.39
582.77	1943.67
583.12	1932.01
583.47	1919.80
583.82	1907.83
584.17	1895.57
584.53	1883.94
584.88	1870.97
585.23	1857.72
585.58	1843.41
585.93	1830.41
586.28	1817.28
586.63	1803.20
586.98	1789.12
587.34	1775.76
587.69	1762.40
588.04	1750.14
588.39	1737.66
588.74	1725.22
589.09	1713.23
589.44	1700.48
589.79	1688.39
590.14	1676.51
590.49	1664.06
590.84	1651.87
591.19	1640.02
591.54	1628.07
591.89	1616.02
592.25	1605.89
592.60	1594.45
592.95	1583.25
593.30	1571.34
593.65	1559.07
594.00	1547.05
594.35	1537.28
594.70	1525.66
595.05	1514.43
595.40	1502.24
595.75	1490.37
596.10	1479.37
596.45	1467.91
596.80	1457.07
597.15	1445.56
597.50	1433.77
597.85	1422.66
598.19	1411.16
598.54	1399.32
598.89	1388.10
599.24	1377.44
599.59	1365.80
599.94	1355.12
600.29	1344.85
600.64	1334.76
600.99	1324.25
601.34	1314.89
601.69	1303.64
602.04	1293.69
602.39	1283.97
602.74	1274.79
603.08	1265.59
603.43	1256.20
603.78	1246.37
604.13	1236.75
604.48	1227.20
604.83	1217.43
605.18	1207.58
605.53	1198.09
605.87	1189.00
606.22	1180.52
606.57	1171.28
606.92	1161.97
607.27	1153.10
607.62	1144.31
607.96	1135.64
608.31	1127.81
608.66	1119.11
609.01	1110.64
609.36	1102.17
609.70	1093.70
610.05	1085.23
610.40	1076.84
610.75	1068.23
611.10	1060.28
611.44	1051.97
611.79	1043.90
612.14	1036.27
612.49	1028.72
612.83	1021.24
613.18	1013.60
613.53	1005.79
613.88	997.96
614.22	990.39
614.57	982.52
614.92	974.74
615.27	967.10
615.61	959.33
615.96	951.94
616.31	944.51
616.65	937.51
617.00	930.38
617.35	923.16
617.70	916.08
618.04	909.17
618.39	901.90
618.74	895.52
619.08	888.66
619.43	881.58
619.78	874.39
620.12	867.10
620.47	860.11
620.82	852.93
621.16	846.13
621.51	839.64
621.85	833.35
622.20	826.75
622.55	820.29
622.89	814.05
623.24	807.86
623.59	801.59
623.93	795.14
624.28	788.88
624.62	783.32
624.97	777.61
625.32	771.78
625.66	765.68
626.01	759.57
626.35	754.06
626.70	748.58
627.04	743.33
627.39	737.87
627.73	732.68
628.08	727.49
628.43	722.10
628.77	716.70
629.12	711.39
629.46	706.65
629.81	701.95
630.15	697.10
630.50	692.07
630.84	687.23
631.19	682.52
631.53	677.91
631.88	672.52
632.22	667.55
632.57	662.98
632.91	658.47
633.26	654.02
633.60	649.35
633.95	644.73
634.29	640.14
634.64	635.86
634.98	631.19
635.32	626.86
635.67	622.90
636.01	618.67
636.36	614.40
636.70	610.07
637.05	605.72
637.39	601.53
637.73	597.54
638.08	593.51
638.42	589.34
638.77	585.16
639.11	581.02
639.45	576.58
639.80	572.30
640.14	568.26
640.49	564.08
640.83	560.23
641.17	556.58
641.52	552.77
641.86	549.20
642.20	545.97
642.55	542.29
642.89	538.67
643.23	535.20
643.58	531.94
643.92	528.32
644.26	525.07
644.61	521.82
644.95	518.54
645.29	515.27
645.64	512.14
645.98	508.94
646.32	505.99
646.66	503.09
647.01	500.20
647.35	497.53
647.69	494.80
648.04	492.11
648.38	489.28
648.72	486.42
649.06	483.40
649.41	480.32
649.75	477.22
650.09	474.23
650.43	471.23
650.78	468.41
651.12	465.69
651.46	462.94
651.80	460.22
652.14	457.53
652.49	454.99
652.83	452.44
653.17	449.88
653.51	447.12
653.85	444.76
654.20	442.21
654.54	439.57
654.88	437.06
655.22	434.66
655.56	432.21
655.90	429.86
656.25	427.54
656.59	425.34
656.93	423.40
657.27	421.39
657.61	419.18
657.95	416.91
658.29	414.73
658.64	412.56
658.98	410.27
659.32	408.03
659.66	405.92
660.00	403.77
660.34	401.64
660.68	399.81
661.02	397.67
661.36	395.84
661.70	394.00
662.05	392.02
662.39	390.17
662.73	388.43
663.07	386.95
663.41	385.04
663.75	383.13
664.09	381.30
664.43	379.40
664.77	377.76
665.11	376.00
665.45	374.42
665.79	372.81
666.13	371.26
666.47	369.60
666.81	367.95
667.15	366.34
667.49	364.97
667.83	363.54
668.17	362.20
668.51	360.71
668.85	359.38
669.19	358.24
669.53	356.65
669.87	355.12
670.21	353.54
670.55	352.26
670.89	351.19
671.23	349.79
671.57	348.37
671.91	346.95
672.25	345.67
672.58	344.47
672.92	342.97
673.26	341.64
673.60	340.39
673.94	339.18
674.28	338.05
674.62	336.78
674.96	335.49
675.30	334.24
675.64	332.96
675.97	331.69
676.31	330.27
676.65	329.03
676.99	328.03
677.33	326.82
677.67	325.74
678.01	324.40
678.34	323.32
678.68	322.42
679.02	321.38
679.36	320.32
679.70	319.19
680.04	318.33
680.37	317.36
680.71	316.46
681.05	315.58
681.39	314.67
681.73	313.68
682.06	312.85
682.40	312.01
682.74	311.19
683.08	310.39
683.42	309.53
683.75	308.79
684.09	307.85
684.43	307.09
684.77	306.16
685.10	305.31
685.44	304.57
685.78	303.63
686.12	302.86
686.45	302.10
686.79	301.29
687.13	300.62
687.46	299.87
687.80	299.23
688.14	298.37
688.48	297.58
688.81	296.89
689.15	296.16
689.49	295.37
689.82	294.64
690.16	293.76
690.50	293.11
690.83	292.32
691.17	291.55
691.51	290.76
691.84	290.20
692.18	289.48
692.52	288.70
692.85	288.18
693.19	287.82
693.52	287.12
693.86	286.50
694.20	285.74
694.53	285.21
694.87	284.49
695.21	283.79
695.54	283.19
695.88	282.52
696.21	281.74
696.55	281.21
696.88	280.55
697.22	279.93
697.56	279.42
697.89	278.89
698.23	278.42
698.56	277.90
698.90	277.42
699.23	276.95
699.57	276.56
699.90	275.97
700.24	275.20
700.58	274.77
700.91	274.31
701.25	274.28
701.58	274.05
701.92	273.67
702.25	273.28
702.59	272.88
702.92	272.52
703.26	272.17
703.59	271.73
703.93	271.75
704.26	271.51
704.60	271.05
704.93	270.59
705.26	270.14
705.60	269.82
705.93	269.37
706.27	269.20
706.60	268.92
706.94	268.82
707.27	268.45
707.61	268.14
707.94	267.80
708.27	267.05
708.61	266.40
708.94	266.04
709.28	265.64
709.61	265.14
709.94	264.76
710.28	264.44
710.61	264.02
710.95	263.28
711.28	263.17
711.61	262.81
711.95	262.61
712.28	262.23
712.61	261.85
712.95	261.77
713.28	261.49
713.61	261.11
713.95	260.57
714.28	260.28
714.61	259.87
714.95	259.42
715.28	259.03
715.61	258.67
715.95	258.31
716.28	257.99
716.61	257.77
716.95	257.40
717.28	257.03
717.61	256.75
717.94	256.42
718.28	255.72
718.61	255.36
718.94	255.00
719.27	254.78
719.61	254.48
719.94	254.06
720.27	253.50
720.60	253.08
720.94	252.81
721.27	252.61
721.60	252.45
721.93	252.26
722.27	252.21
722.60	252.02
722.93	251.79
723.26	251.64
723.59	251.26
723.93	251.14
724.26	250.93
724.59	250.70
724.92	250.56
725.25	250.60
725.59	250.41
725.92	250.24
726.25	249.96
726.58	249.82
726.91	249.55
727.24	249.44
727.57	249.24
727.91	248.94
728.24	248.74
728.57	248.43
728.90	248.25
729.23	247.86
729.56	247.83
729.89	247.60
730.22	247.36
730.55	247.25
730.89	247.09
731.22	246.86
731.55	246.64
731.88	246.46
732.21	246.06
732.54	245.87
732.87	245.70
733.20	245.60
733.53	245.42
733.86	245.32
734.19	245.12
734.52	245.09
734.85	245.22
735.18	244.95
735.51	244.96
735.84	244.85
736.17	244.83
736.50	244.44
736.83	244.85
737.16	244.69
737.49	244.51
737.82	244.26
738.15	244.26
738.48	244.15
738.81	243.92
739.14	243.80
739.47	243.72
739.80	243.56
740.13	243.46
740.46	243.25
740.79	242.98
741.12	242.80
741.45	242.55
741.78	242.18
742.11	242.21
742.44	241.99
742.77	241.93
743.10	241.76
743.43	241.67
743.75	241.09
744.08	241.61
744.41	241.55
744.74	241.37
745.07	241.14
745.40	241.16
745.73	241.21
746.06	241.14
746.39	241.02
746.71	240.85
747.04	240.69
747.37	240.58
747.70	240.59
748.03	240.54
748.36	240.61
748.68	240.52
749.01	240.24
749.34	240.13
749.67	239.97
750.00	239.97
750.33	240.21
750.65	240.14
750.98	239.49
751.31	239.43
751.64	239.41
751.97	239.54
752.29	239.32
752.62	239.14
752.95	239.09
753.28	238.91
753.60	238.83
753.93	238.84
754.26	238.82
754.59	238.58
754.91	238.43
755.24	238.21
755.57	238.17
755.90	238.11
756.22	238.05
756.55	237.89
756.88	237.63
757.20	237.18
757.53	236.91
757.86	236.81
758.19	236.67
758.51	236.60
758.84	236.31
759.17	236.17
759.49	236.12
759.82	236.20
760.15	236.16
760.47	236.02
760.80	235.82
761.13	235.76
761.45	235.60
761.78	235.47
762.11	235.42
762.43	235.18
762.76	235.05
763.08	234.97
763.41	235.04
763.74	234.99
764.06	234.92
764.39	234.85
764.71	234.73
765.04	234.59
765.37	234.42
765.69	234.33
766.02	234.27
766.34	234.07
766.67	233.77
767.00	233.73
767.32	233.97
767.65	234.06
767.97	233.95
768.30	234.02
768.62	233.98
768.95	233.75
769.27	233.69
769.60	233.75
769.92	233.67
770.25	233.39
770.57	233.20
770.90	233.12
771.22	232.96
771.55	232.85
771.87	232.77
772.20	232.70
772.52	233.01
772.85	233.51
773.17	233.49
773.50	233.33
773.82	233.24
774.15	232.90
774.47	232.57
774.80	232.48
775.12	232.42
775.45	232.35
775.77	232.46
776.09	232.45
776.42	232.37
776.74	232.49
777.07	232.40
777.39	232.50
777.72	232.43
778.04	232.44
778.36	232.41
778.69	232.40
779.01	232.48
779.33	232.06
779.66	231.42
779.98	231.33
780.31	231.42
780.63	231.62
780.95	231.71
781.28	231.69
781.60	231.61
781.92	231.50
782.25	231.50
782.57	231.39
782.89	231.39
783.22	231.35
783.54	231.14
783.86	231.20
784.19	231.07
784.51	231.20
784.83	231.16
785.16	231.04
785.48	231.03
785.80	230.96
786.12	230.98
786.45	231.05
786.77	231.11
787.09	231.05
787.42	230.85
787.74	230.77
788.06	230.84
788.38	230.80
788.71	230.71
789.03	230.69
789.35	230.74
789.67	230.63
789.99	230.62
790.32	230.50
790.64	230.54
790.96	230.92
791.28	230.67
791.61	230.68
791.93	230.71
792.25	230.71
792.57	231.05
792.89	230.91
793.21	230.87
793.54	230.76
793.86	230.73
794.18	230.68
794.50	230.58
794.82	230.56
795.14	230.69
795.47	230.87
795.79	230.87
796.11	230.78
796.43	230.73
796.75	230.71
797.07	230.75
797.39	230.65
797.71	230.33
798.04	230.36
798.36	230.30
798.68	230.30
799.00	230.28
799.32	229.96
799.64	230.03
799.96	230.02
800.28	230.10
800.60	230.06
800.92	230.06
801.24	229.99
801.56	229.95
801.89	229.77
802.21	229.70
802.53	229.67
802.85	229.67
803.17	229.90
803.49	229.78
803.81	229.77
804.13	229.73
804.45	229.55
804.77	229.53
805.09	229.60
805.41	229.57
805.73	229.47
806.05	229.39
806.37	229.34
806.69	229.24
807.01	229.16
807.33	229.15
807.65	228.97
807.97	229.14
808.28	229.02
808.60	229.05
808.92	228.99
809.24	229.22
809.56	229.18
809.88	228.99
810.20	229.03
810.52	229.03
810.84	228.99
811.16	228.95
811.48	228.91
811.80	228.98
812.12	228.87
812.43	228.95
812.75	228.95
813.07	228.85
813.39	228.88
813.71	228.79
814.03	228.64
814.35	228.73
814.67	228.54
814.98	228.55
815.30	228.51
815.62	228.46
815.94	228.12
816.26	228.29
816.58	228.18
816.89	228.16
817.21	228.08
817.53	228.11
817.85	228.22
818.17	228.21
818.48	228.04
818.80	228.15
819.12	228.03
819.44	227.94
819.76	227.91
820.07	227.89
820.39	227.91
820.71	227.99
821.03	227.93
821.34	227.84
821.66	227.90
821.98	227.96
822.30	227.92
822.61	228.21
822.93	227.97
823.25	227.98
823.57	227.86
823.88	227.96
824.20	227.94
824.52	227.93
824.83	227.91
825.15	227.94
825.47	227.95
825.79	228.06
826.10	228.05
826.42	228.10
826.74	228.13
827.05	228.13
827.37	228.12
827.69	228.10
828.00	228.19
828.32	228.20
828.64	228.10
828.95	228.38
829.27	228.26
829.58	228.29
829.90	228.34
830.22	228.49
830.53	228.36
830.85	228.41
831.17	228.32
831.48	228.33
831.80	228.28
832.11	228.21
832.43	228.10
832.75	228.04
833.06	228.29
833.38	228.19
833.69	228.11
834.01	228.15
834.32	228.05
834.64	228.04
834.96	228.06
835.27	228.04
835.59	227.82
835.90	227.63
836.22	227.64
836.53	227.57
836.85	227.46
837.16	227.93
837.48	227.87
837.79	228.04
838.11	228.06
838.42	228.07
838.74	228.08
839.05	228.03
839.37	228.01
839.68	227.68
840.00	227.63
840.31	227.71
840.63	227.68
840.94	227.74
841.26	227.65
841.57	227.57
841.88	227.60
842.20	227.61
842.51	227.62
842.83	227.59
843.14	228.03
843.46	228.05
843.77	227.82
844.08	227.79
844.40	227.61
844.71	227.53
845.03	227.43
845.34	227.45
845.65	227.44
845.97	227.44
846.28	227.50
846.60	227.51
846.91	227.45
847.22	227.38
847.54	227.50
847.85	227.57
848.16	227.55
848.48	227.47
848.79	227.58
849.10	227.69
849.42	227.69
849.73	227.15
850.04	227.11
850.36	226.85
850.67	226.87
850.98	226.84
851.30	226.86
851.61	226.85
851.92	226.82
852.23	227.00
852.55	227.10
852.86	227.11
853.17	227.12
853.49	227.22
853.80	227.25
854.11	227.25
854.42	227.26
854.74	227.21
855.05	227.26
855.36	227.01
855.67	226.96
855.99	227.00
856.30	227.72
856.61	227.71
856.92	227.71
857.23	227.72
857.55	227.70
857.86	227.67
858.17	227.83
858.48	227.76
858.79	227.62
859.11	227.62
859.42	227.62
859.73	227.62
860.04	227.56
860.35	227.48
860.66	227.24
860.98	227.22
861.29	227.25
861.60	227.20
861.91	227.31
862.22	227.17
862.53	227.10
862.84	226.47
863.16	226.55
863.47	226.47
863.78	226.42
864.09	226.56
864.40	226.66
864.71	226.56
865.02	226.67
865.33	226.66
865.64	226.56
865.95	226.54
866.27	226.80
866.58	226.79
866.89	226.91
867.20	226.94
867.51	226.85
867.82	226.82
868.13	226.95
868.44	226.89
868.75	227.06
869.06	227.07
869.37	227.09
869.68	227.02
869.99	227.19
870.30	227.20
870.61	227.19
870.92	227.06
871.23	227.01
871.54	227.03
871.85	227.11
872.16	227.16
872.47	227.14
872.78	226.87
873.09	226.90
873.40	226.85
873.71	226.99
874.02	227.01
874.33	226.96
874.64	226.88
874.95	226.94
875.26	226.83
875.56	226.81
875.87	226.79
876.18	226.68
876.49	227.11
876.80	227.08
877.11	227.01
877.42	227.10
877.73	227.15
878.04	227.09
878.35	227.15
878.66	227.15
878.96	227.15
879.27	227.16
879.58	227.18
879.89	227.12
880.20	227.18
880.51	227.22
880.82	227.30
881.12	227.35
881.43	227.24
881.74	227.21
882.05	227.12
882.36	227.18
882.67	227.28
882.97	226.82
883.28	226.83
883.59	226.80
883.90	226.79
884.21	226.93
884.51	226.88
884.82	226.82
885.13	226.82
885.44	226.78
885.74	226.78
886.05	226.69
886.36	226.73
886.67	226.57
886.98	226.76
887.28	226.76
887.59	226.72
887.90	226.77
888.20	226.67
888.51	226.86
888.82	226.79
889.13	226.82
889.43	227.14
889.74	227.13
890.05	227.14
890.35	227.01
890.66	226.87
890.97	226.86
891.28	226.65
891.58	226.68
891.89	226.67
892.20	226.61
892.50	226.61
892.81	226.56
893.12	226.60
893.42	226.37
893.73	226.39
894.04	226.36
894.34	226.38
894.65	226.45
894.95	226.27
895.26	226.24
895.57	226.41
895.87	226.01
896.18	226.10
896.48	226.13
896.79	226.21
897.10	226.32
897.40	226.28
897.71	226.38
898.01	226.29
898.32	226.38
898.63	226.48
898.93	226.49
899.24	226.48
899.54	226.43
899.85	226.39
900.15	226.35
900.46	226.43
900.76	226.51
901.07	226.53
901.38	226.60
901.68	226.66
901.99	226.48
902.29	226.53
902.60	226.47
902.90	226.40
903.21	226.39
903.51	226.31
903.82	226.49
904.12	226.55
904.43	226.63
904.73	226.57
905.03	226.51
905.34	227.02
905.64	226.95
905.95	227.00
906.25	227.07
906.56	227.16
906.86	227.19
907.17	227.10
907.47	227.16
907.77	227.15
908.08	227.07
908.38	227.13
908.69	227.12
908.99	227.24
909.30	227.28
909.60	227.34
909.90	227.41
910.21	227.23
910.51	227.13
910.81	227.16
911.12	227.18
911.42	227.14
911.73	226.58
912.03	226.65
912.33	226.74
912.64	226.71
912.94	226.59
913.24	226.47
913.55	226.42
913.85	226.31
914.15	226.44
914.46	226.50
914.76	226.47
915.06	226.52
915.37	226.36
915.67	226.31
915.97	226.31
916.27	226.19
916.58	226.25
916.88	226.20
917.18	226.16
917.49	226.47
917.79	226.49
918.09	226.59
918.39	226.76
918.70	226.70
919.00	226.74
919.30	226.95
919.60	226.94
919.91	226.96
920.21	227.03
920.51	226.89
920.81	226.83
921.12	226.80
921.42	226.72
921.72	226.73
922.02	226.75
922.32	226.77
922.63	226.82
922.93	227.03
923.23	227.16
923.53	227.03
923.83	226.65
924.13	226.68
924.44	226.67
924.74	226.72
925.04	226.79
925.34	226.66
925.64	226.48
925.94	226.50
926.24	226.75
926.55	226.69
926.85	226.75
927.15	226.85
927.45	226.87
927.75	226.85
928.05	226.93
928.35	226.86
928.65	226.93
928.95	226.92
929.26	226.70
929.56	226.71
929.86	226.80
930.16	226.84
930.46	226.78
930.76	226.74
931.06	226.54
931.36	226.40
931.66	226.55
931.96	226.62
932.26	226.56
932.56	226.34
932.86	226.33
933.16	226.27
933.46	226.13
933.76	226.05
934.06	226.17
934.36	226.30
934.66	226.33
934.96	226.25
935.26	226.27
935.56	226.34
935.86	226.22
936.16	226.18
936.46	226.15
936.76	226.12
937.06	226.18
937.36	226.10
937.66	226.12
937.96	226.10
938.26	225.97
938.56	226.03
938.86	226.03
939.16	226.16
939.46	226.26
939.76	226.34
940.06	226.31
940.35	226.16
940.65	225.92
940.95	225.98
941.25	225.89
941.55	225.80
941.85	225.68
942.15	225.80
942.45	226.00
942.75	226.01
943.04	226.13
943.34	226.13
943.64	226.15
943.94	226.17
944.24	226.13
944.54	226.19
944.84	226.19
945.13	226.13
945.43	226.08
945.73	226.08
946.03	225.98
946.33	226.03
946.62	226.14
946.92	226.21
947.22	226.24
947.52	226.26
947.82	226.33
948.11	226.39
948.41	226.33
948.71	226.13
949.01	226.12
949.31	226.05
949.60	226.00
949.90	226.10
950.20	226.06
950.50	226.08
950.79	226.10
951.09	226.12
951.39	226.16
951.69	226.07
951.98	226.17
952.28	226.25
952.58	226.25
952.87	226.23
953.17	226.23
953.47	226.16
953.76	226.12
954.06	226.11
954.36	225.96
954.66	225.97
954.95	226.07
955.25	226.14
955.55	226.19
955.84	226.16
956.14	226.17
956.44	226.21
956.73	226.10
957.03	226.08
957.32	226.11
957.62	226.08
957.92	226.24
958.21	226.10
958.51	226.60
958.81	226.66
959.10	226.72
959.40	226.80
959.69	226.84
959.99	226.94
960.29	226.91
960.58	226.91
960.88	227.13
961.17	227.11
961.47	227.10
961.76	227.01
962.06	227.12
962.36	227.03
962.65	227.03
962.95	227.10
963.24	227.03
963.54	227.00
963.83	227.05
964.13	226.93
964.42	226.79
964.72	226.45
965.01	226.41
965.31	226.30
965.60	226.20
965.90	226.46
966.19	226.37
966.49	226.36
966.78	226.38
967.08	226.27
967.37	226.30
967.67	226.23
967.96	226.35
968.26	226.32
968.55	226.36
968.85	226.37
969.14	226.38
969.43	226.41
969.73	226.42
970.02	226.31
970.32	226.39
970.61	226.41
970.91	226.22
971.20	226.15
971.49	226.15
971.79	226.17
972.08	225.88
972.38	225.92
972.67	225.91
972.96	226.05
973.26	225.91
973.55	225.99
973.85	225.93
974.14	225.88
974.43	225.88
974.73	225.77
975.02	225.68
975.31	225.67
975.61	225.56
975.90	225.44
976.19	225.45
976.49	225.45
976.78	225.48
977.07	225.53
977.37	225.57
977.66	225.61
977.95	225.53
978.24	225.57
978.54	225.69
978.83	225.70
979.12	225.66
979.42	225.69
979.71	225.70
980.00	225.74
980.29	225.77
980.59	225.68
980.88	225.90
981.17	225.89
981.46	225.95
981.76	226.07
982.05	226.28
982.34	226.33
982.63	226.36
982.93	226.39
983.22	226.50
983.51	226.56
983.80	226.63
984.09	226.79
984.39	226.74
984.68	226.61
984.97	226.65
985.26	226.60
985.55	226.63
985.85	226.47
986.14	226.50
986.43	226.55
986.72	226.60
987.01	226.40
987.30	226.49
987.59	226.40
987.89	226.44
988.18	226.30
988.47	226.30
988.76	226.27
989.05	226.30
989.34	226.20
989.63	226.29
989.92	226.22
990.22	226.12
990.51	226.13
990.80	226.20
991.09	226.25
991.38	226.33
991.67	226.35
991.96	226.30
992.25	226.33
992.54	226.27
992.83	226.25
993.12	226.32
993.41	226.33
993.70	226.50
993.99	226.56
994.28	226.68
994.58	226.76
994.87	226.67
995.16	226.65
995.45	226.66
995.74	226.47
996.03	226.55
996.32	226.63
996.61	226.80
996.90	226.75
997.19	226.66
997.48	226.67
997.77	226.63
998.06	226.73
998.34	226.73
998.63	226.71
998.92	226.72
999.21	226.72
999.50	226.79
999.79	226.68
1000.08	226.65
1000.37	226.54
1000.66	226.39
1000.95	226.52
1001.24	226.50
1001.53	226.52
1001.82	226.52
1002.11	226.42
1002.40	226.41
1002.68	226.43
1002.97	226.73
1003.26	226.69
1003.55	226.54
1003.84	226.50
1004.13	226.61
1004.42	226.60
1004.71	226.57
1004.99	226.54
1005.28	226.69
1005.57	226.63
1005.86	226.59
1006.15	226.50
1006.44	226.50
1006.72	226.56
1007.01	226.45
1007.30	226.44
1007.59	226.46
1007.88	226.44
1008.17	226.42
1008.45	226.33
1008.74	226.12
1009.03	225.89
1009.32	225.95
1009.60	226.08
1009.89	226.07
1010.18	225.90
1010.47	225.80
1010.76	225.84
1011.04	225.81
1011.33	225.79
1011.62	225.78
1011.91	225.81
1012.19	225.86
1012.48	225.85
1012.77	225.82
1013.05	226.09
1013.34	226.10
1013.63	226.03
1013.92	226.08
1014.20	226.01
1014.49	226.03
1014.78	226.06
1015.06	225.89
1015.35	225.83
1015.64	225.73
1015.92	225.77
1016.21	225.73
1016.50	225.80
1016.78	225.86
1017.07	225.88
1017.36	225.77
1017.64	225.73
1017.93	225.76
1018.22	225.69
1018.50	225.65
1018.79	225.67
1019.08	225.42
1019.36	225.43
1019.65	225.38
1019.93	225.53
1020.22	225.61
1020.51	225.88
1020.79	225.83
1021.08	224.30
1021.36	225.10
1021.65	225.30
1021.94	225.80
1022.22	226.35
1022.51	224.65
1022.79	228.45
1023.08	226.00
1023.36	231.65
1023.65	224.45
>>>>>End Processed Spectral Data<<<<<
