SpectraSuite Data File
++++++++++++++++++++++++++++++++++++
Date: Wed Sep 04 18:02:47 EDT 2013
User: lab3
Dark Spectrum Present: Yes
Reference Spectrum Present: No
Number of Sampled Component Spectra: 1
Spectrometers: USB2E7196
Integration Time (usec): 170000 (USB2E7196)
Spectra Averaged: 20 (USB2E7196)
Boxcar Smoothing: 10 (USB2E7196)
Correct for Electrical Dark: No (USB2E7196)
Strobe/Lamp Enabled: No (USB2E7196)
Correct for Detector Non-linearity: No (USB2E7196)
Correct for Stray Light: No (USB2E7196)
Number of Pixels in Processed Spectrum: 2048
>>>>>Begin Processed Spectral Data<<<<<
339.09	0.00
339.48	213.65
339.86	215.05
340.24	216.65
340.63	218.20
341.01	225.75
341.39	221.10
341.78	223.85
342.16	224.05
342.54	223.15
342.93	213.07
343.31	223.78
343.69	224.32
344.07	224.76
344.46	225.29
344.84	225.73
345.22	225.68
345.60	225.97
345.99	226.10
346.37	226.25
346.75	226.36
347.13	226.33
347.52	226.33
347.90	226.59
348.28	226.64
348.66	226.78
349.05	226.60
349.43	226.74
349.81	226.80
350.19	226.80
350.57	226.82
350.96	227.01
351.34	227.12
351.72	227.21
352.10	227.29
352.48	227.21
352.87	227.19
353.25	227.27
353.63	227.34
354.01	227.33
354.39	227.45
354.77	227.55
355.15	227.74
355.54	227.85
355.92	227.73
356.30	227.69
356.68	228.07
357.06	228.12
357.44	228.09
357.82	228.10
358.20	228.57
358.58	228.59
358.97	228.65
359.35	228.80
359.73	228.97
360.11	229.04
360.49	229.14
360.87	229.20
361.25	229.34
361.63	229.47
362.01	229.59
362.39	229.53
362.77	229.59
363.15	229.63
363.53	229.60
363.91	229.60
364.29	229.67
364.67	229.19
365.05	229.26
365.43	229.35
365.81	229.44
366.19	229.24
366.57	229.42
366.95	229.42
367.33	229.36
367.71	229.30
368.09	229.35
368.47	229.48
368.85	229.51
369.23	229.60
369.61	229.42
369.99	229.59
370.37	229.67
370.75	229.87
371.13	229.76
371.51	229.70
371.89	229.69
372.27	229.67
372.65	229.71
373.03	229.68
373.41	229.52
373.78	229.46
374.16	229.21
374.54	229.10
374.92	228.99
375.30	228.93
375.68	228.77
376.06	228.75
376.44	228.57
376.82	228.52
377.19	228.41
377.57	228.32
377.95	228.05
378.33	227.89
378.71	227.53
379.09	227.54
379.47	227.49
379.84	227.44
380.22	227.35
380.60	227.21
380.98	227.09
381.36	227.05
381.73	226.92
382.11	226.98
382.49	226.80
382.87	226.75
383.25	226.66
383.62	227.20
384.00	227.10
384.38	227.04
384.76	227.05
385.13	227.17
385.51	227.15
385.89	227.11
386.27	227.11
386.64	227.13
387.02	227.11
387.40	227.06
387.78	227.03
388.15	227.05
388.53	226.97
388.91	226.98
389.29	226.89
389.66	226.96
390.04	226.85
390.42	227.00
390.79	226.86
391.17	226.84
391.55	226.26
391.92	226.25
392.30	226.31
392.68	226.20
393.05	226.12
393.43	226.19
393.81	226.24
394.18	226.20
394.56	226.26
394.94	226.32
395.31	226.29
395.69	226.47
396.06	226.50
396.44	226.60
396.82	226.67
397.19	227.02
397.57	227.06
397.95	227.21
398.32	227.10
398.70	227.31
399.07	227.55
399.45	227.68
399.82	227.71
400.20	227.78
400.58	227.85
400.95	227.83
401.33	228.02
401.70	228.42
402.08	228.59
402.45	228.75
402.83	229.00
403.20	229.28
403.58	229.35
403.95	229.64
404.33	229.88
404.71	230.04
405.08	230.55
405.46	230.73
405.83	230.96
406.21	231.19
406.58	231.48
406.96	231.69
407.33	232.03
407.70	232.49
408.08	233.17
408.45	233.71
408.83	234.24
409.20	234.60
409.58	234.68
409.95	235.30
410.33	235.79
410.70	236.27
411.08	236.83
411.45	237.46
411.82	238.02
412.20	238.79
412.57	239.80
412.95	240.04
413.32	240.89
413.69	241.74
414.07	242.77
414.44	243.75
414.82	244.78
415.19	245.98
415.56	247.18
415.94	248.17
416.31	249.54
416.68	250.96
417.06	252.57
417.43	254.33
417.81	256.06
418.18	257.85
418.55	259.75
418.93	261.79
419.30	263.87
419.67	266.18
420.04	268.54
420.42	270.89
420.79	274.03
421.16	276.84
421.54	279.97
421.91	282.88
422.28	286.02
422.66	289.25
423.03	292.74
423.40	296.05
423.77	299.65
424.15	303.31
424.52	307.12
424.89	311.28
425.26	315.30
425.64	319.02
426.01	323.30
426.38	327.61
426.75	332.12
427.13	336.78
427.50	341.62
427.87	346.56
428.24	351.50
428.61	356.06
428.99	361.38
429.36	366.86
429.73	372.57
430.10	378.13
430.47	383.93
430.85	389.59
431.22	395.80
431.59	402.77
431.96	408.95
432.33	415.99
432.70	422.76
433.08	430.61
433.45	438.09
433.82	445.45
434.19	453.67
434.56	461.88
434.93	469.52
435.30	477.16
435.68	485.80
436.05	494.31
436.42	502.67
436.79	510.56
437.16	518.85
437.53	527.66
437.90	536.44
438.27	545.13
438.64	554.10
439.01	562.52
439.38	569.54
439.75	576.77
440.13	584.75
440.50	592.25
440.87	598.42
441.24	604.75
441.61	611.96
441.98	617.16
442.35	622.94
442.72	629.16
443.09	635.10
443.46	638.35
443.83	640.75
444.20	642.72
444.57	645.30
444.94	646.28
445.31	647.23
445.68	648.54
446.05	648.80
446.42	647.50
446.79	646.06
447.16	644.56
447.53	643.38
447.90	639.64
448.27	636.03
448.64	631.07
449.01	627.41
449.37	621.10
449.74	615.05
450.11	608.20
450.48	600.33
450.85	592.33
451.22	585.50
451.59	578.78
451.96	572.48
452.33	564.35
452.70	557.13
453.07	548.54
453.43	539.30
453.80	530.62
454.17	522.54
454.54	514.71
454.91	506.42
455.28	498.28
455.65	490.79
456.02	483.82
456.38	477.53
456.75	469.78
457.12	463.16
457.49	456.76
457.86	450.25
458.23	445.04
458.59	439.29
458.96	433.50
459.33	428.33
459.70	423.11
460.07	418.94
460.43	414.17
460.80	409.76
461.17	406.15
461.54	402.14
461.91	398.29
462.27	394.44
462.64	391.16
463.01	387.63
463.38	384.31
463.74	380.31
464.11	377.06
464.48	374.34
464.85	371.52
465.21	369.45
465.58	367.20
465.95	364.30
466.32	361.92
466.68	359.70
467.05	357.47
467.42	355.33
467.78	353.03
468.15	350.90
468.52	349.27
468.88	346.95
469.25	345.03
469.62	343.62
469.98	341.91
470.35	340.37
470.72	338.84
471.08	337.14
471.45	335.86
471.82	334.73
472.18	333.35
472.55	332.33
472.92	330.93
473.28	329.74
473.65	328.65
474.02	327.63
474.38	326.84
474.75	326.06
475.11	325.19
475.48	324.49
475.85	323.78
476.21	323.16
476.58	322.65
476.94	322.26
477.31	321.70
477.67	321.34
478.04	321.01
478.41	320.84
478.77	321.05
479.14	320.75
479.50	320.53
479.87	320.53
480.23	320.35
480.60	320.22
480.96	320.25
481.33	320.61
481.69	320.71
482.06	320.73
482.42	320.87
482.79	321.14
483.15	321.58
483.52	322.24
483.88	322.72
484.25	323.30
484.61	323.94
484.98	324.52
485.34	325.49
485.71	326.28
486.07	327.20
486.44	327.89
486.80	329.09
487.17	330.31
487.53	331.67
487.90	333.24
488.26	335.01
488.62	336.68
488.99	338.26
489.35	340.19
489.72	342.16
490.08	344.17
490.44	346.20
490.81	348.49
491.17	350.72
491.54	353.25
491.90	355.83
492.26	358.57
492.63	361.34
492.99	364.17
493.36	367.39
493.72	370.87
494.08	374.28
494.45	377.90
494.81	381.79
495.17	385.67
495.54	389.90
495.90	394.00
496.26	398.52
496.63	403.17
496.99	407.92
497.35	413.01
497.72	418.31
498.08	423.75
498.44	429.47
498.80	435.53
499.17	441.56
499.53	447.87
499.89	454.50
500.26	461.40
500.62	468.38
500.98	475.80
501.34	483.18
501.71	490.96
502.07	498.87
502.43	506.99
502.79	515.43
503.16	524.07
503.52	533.22
503.88	542.64
504.24	552.33
504.60	562.31
504.97	572.56
505.33	583.19
505.69	594.37
506.05	605.27
506.41	616.60
506.78	628.41
507.14	640.59
507.50	652.96
507.86	665.83
508.22	678.96
508.59	692.02
508.95	705.60
509.31	719.75
509.67	733.89
510.03	748.42
510.39	763.23
510.75	778.50
511.12	793.75
511.48	809.23
511.84	824.98
512.20	841.04
512.56	857.21
512.92	874.01
513.28	890.89
513.64	908.16
514.00	925.80
514.37	943.53
514.73	961.55
515.09	979.93
515.45	998.33
515.81	1016.77
516.17	1035.66
516.53	1054.47
516.89	1073.29
517.25	1093.09
517.61	1113.23
517.97	1133.53
518.33	1153.66
518.69	1174.15
519.05	1194.73
519.41	1215.56
519.77	1236.91
520.13	1257.89
520.49	1278.64
520.85	1301.00
521.21	1322.25
521.57	1343.40
521.93	1364.37
522.29	1385.79
522.65	1406.41
523.01	1427.54
523.37	1448.36
523.73	1469.57
524.09	1490.29
524.45	1511.07
524.81	1531.89
525.17	1552.52
525.53	1573.26
525.89	1593.98
526.25	1614.88
526.61	1635.35
526.97	1656.46
527.33	1677.59
527.68	1699.59
528.04	1720.85
528.40	1740.65
528.76	1762.05
529.12	1782.59
529.48	1803.20
529.84	1823.13
530.20	1844.32
530.56	1864.76
530.91	1885.57
531.27	1905.88
531.63	1926.53
531.99	1947.29
532.35	1967.40
532.71	1987.59
533.07	2008.10
533.42	2027.96
533.78	2047.92
534.14	2067.94
534.50	2086.80
534.86	2106.03
535.21	2123.53
535.57	2142.12
535.93	2159.90
536.29	2177.52
536.65	2195.54
537.00	2213.66
537.36	2231.63
537.72	2248.44
538.08	2266.21
538.44	2283.26
538.79	2300.08
539.15	2317.16
539.51	2333.21
539.87	2348.62
540.22	2363.21
540.58	2377.55
540.94	2391.31
541.29	2404.19
541.65	2416.91
542.01	2429.99
542.37	2440.68
542.72	2452.10
543.08	2463.15
543.44	2474.88
543.79	2485.03
544.15	2495.11
544.51	2504.93
544.87	2514.64
545.22	2523.25
545.58	2530.81
545.94	2538.05
546.29	2544.54
546.65	2550.66
547.01	2555.86
547.36	2561.47
547.72	2567.13
548.07	2571.32
548.43	2576.67
548.79	2581.50
549.14	2586.02
549.50	2589.75
549.86	2594.05
550.21	2597.77
550.57	2600.90
550.92	2602.70
551.28	2604.43
551.64	2607.47
551.99	2609.62
552.35	2611.55
552.70	2613.96
553.06	2615.92
553.41	2617.28
553.77	2619.41
554.13	2621.02
554.48	2623.17
554.84	2624.86
555.19	2625.73
555.55	2627.66
555.90	2627.09
556.26	2626.05
556.61	2624.35
556.97	2622.21
557.32	2621.62
557.68	2620.49
558.03	2619.23
558.39	2618.07
558.74	2617.35
559.10	2613.68
559.45	2610.38
559.81	2605.77
560.16	2600.57
560.52	2595.71
560.87	2591.35
561.23	2585.55
561.58	2579.43
561.94	2572.41
562.29	2564.64
562.64	2558.01
563.00	2549.79
563.35	2543.31
563.71	2536.75
564.06	2530.69
564.42	2524.38
564.77	2517.32
565.12	2510.00
565.48	2502.01
565.83	2493.92
566.19	2485.55
566.54	2478.03
566.89	2469.67
567.25	2462.20
567.60	2454.97
567.96	2447.38
568.31	2439.35
568.66	2430.77
569.02	2421.61
569.37	2413.75
569.72	2406.46
570.08	2397.32
570.43	2387.70
570.78	2378.44
571.14	2369.16
571.49	2358.98
571.84	2349.43
572.20	2338.65
572.55	2328.46
572.90	2317.88
573.26	2307.39
573.61	2296.29
573.96	2284.90
574.31	2273.04
574.67	2260.93
575.02	2248.27
575.37	2235.51
575.72	2222.32
576.08	2210.26
576.43	2198.38
576.78	2185.06
577.13	2171.34
577.49	2158.17
577.84	2146.12
578.19	2133.76
578.54	2121.39
578.90	2109.16
579.25	2096.64
579.60	2083.87
579.95	2070.60
580.30	2057.22
580.66	2043.76
581.01	2030.41
581.36	2016.66
581.71	2003.89
582.06	1990.83
582.42	1978.35
582.77	1965.60
583.12	1953.62
583.47	1941.15
583.82	1928.74
584.17	1916.70
584.53	1904.65
584.88	1891.88
585.23	1878.97
585.58	1864.85
585.93	1851.17
586.28	1837.62
586.63	1823.33
586.98	1809.20
587.34	1796.20
587.69	1782.94
588.04	1770.31
588.39	1757.94
588.74	1745.38
589.09	1733.04
589.44	1720.15
589.79	1707.98
590.14	1695.82
590.49	1683.47
590.84	1670.98
591.19	1658.81
591.54	1646.47
591.89	1634.09
592.25	1623.70
592.60	1611.99
592.95	1600.84
593.30	1588.96
593.65	1577.11
594.00	1565.44
594.35	1555.55
594.70	1543.57
595.05	1532.27
595.40	1520.26
595.75	1508.17
596.10	1497.03
596.45	1485.62
596.80	1474.90
597.15	1463.12
597.50	1451.35
597.85	1439.99
598.19	1428.56
598.54	1416.65
598.89	1405.27
599.24	1394.81
599.59	1383.05
599.94	1372.06
600.29	1361.29
600.64	1350.71
600.99	1339.86
601.34	1330.11
601.69	1318.88
602.04	1308.93
602.39	1299.35
602.74	1290.10
603.08	1280.65
603.43	1271.25
603.78	1261.40
604.13	1251.68
604.48	1242.02
604.83	1232.34
605.18	1222.46
605.53	1213.10
605.87	1203.99
606.22	1195.33
606.57	1185.81
606.92	1176.32
607.27	1167.29
607.62	1158.29
607.96	1149.58
608.31	1141.31
608.66	1132.90
609.01	1124.30
609.36	1115.54
609.70	1106.64
610.05	1097.56
610.40	1089.00
610.75	1080.07
611.10	1071.79
611.44	1062.99
611.79	1054.71
612.14	1046.82
612.49	1038.82
612.83	1031.16
613.18	1023.55
613.53	1015.77
613.88	1007.66
614.22	999.85
614.57	992.00
614.92	984.26
615.27	976.76
615.61	969.23
615.96	961.46
616.31	953.88
616.65	946.89
617.00	939.37
617.35	932.19
617.70	925.01
618.04	917.83
618.39	910.73
618.74	904.29
619.08	897.33
619.43	890.01
619.78	882.94
620.12	875.73
620.47	868.57
620.82	861.42
621.16	854.74
621.51	848.41
621.85	842.15
622.20	835.21
622.55	828.54
622.89	821.97
623.24	815.56
623.59	809.18
623.93	802.72
624.28	796.64
624.62	790.90
624.97	785.06
625.32	779.31
625.66	773.15
626.01	767.02
626.35	761.49
626.70	756.06
627.04	750.89
627.39	745.18
627.73	740.00
628.08	734.54
628.43	728.89
628.77	723.34
629.12	717.88
629.46	713.27
629.81	708.42
630.15	703.60
630.50	698.64
630.84	693.70
631.19	688.96
631.53	684.28
631.88	679.00
632.22	674.06
632.57	669.66
632.91	665.15
633.26	660.55
633.60	655.77
633.95	650.80
634.29	645.82
634.64	641.38
634.98	636.55
635.32	632.32
635.67	628.20
636.01	623.93
636.36	619.65
636.70	615.61
637.05	611.31
637.39	607.22
637.73	603.05
638.08	599.01
638.42	594.70
638.77	590.48
639.11	585.99
639.45	581.63
639.80	577.06
640.14	572.88
640.49	568.86
640.83	565.11
641.17	561.66
641.52	557.81
641.86	554.25
642.20	550.94
642.55	547.09
642.89	543.58
643.23	539.97
643.58	536.66
643.92	532.85
644.26	529.45
644.61	526.06
644.95	522.65
645.29	519.13
645.64	515.90
645.98	512.69
646.32	509.91
646.66	506.85
647.01	503.97
647.35	501.22
647.69	498.28
648.04	495.42
648.38	492.52
648.72	489.67
649.06	486.53
649.41	483.44
649.75	480.48
650.09	477.54
650.43	474.66
650.78	471.71
651.12	468.96
651.46	466.20
651.80	463.41
652.14	460.75
652.49	458.36
652.83	455.73
653.17	453.07
653.51	450.40
653.85	447.95
654.20	445.35
654.54	442.73
654.88	440.25
655.22	438.01
655.56	435.54
655.90	433.29
656.25	431.03
656.59	428.65
656.93	426.49
657.27	424.41
657.61	422.09
657.95	419.90
658.29	417.63
658.64	415.52
658.98	413.30
659.32	410.99
659.66	408.64
660.00	406.58
660.34	404.50
660.68	402.41
661.02	400.42
661.36	398.46
661.70	396.40
662.05	394.38
662.39	392.26
662.73	390.52
663.07	388.88
663.41	387.08
663.75	385.25
664.09	383.46
664.43	381.50
664.77	379.87
665.11	378.07
665.45	376.37
665.79	374.65
666.13	372.90
666.47	371.26
666.81	369.63
667.15	367.88
667.49	366.44
667.83	365.15
668.17	363.60
668.51	362.08
668.85	360.71
669.19	359.62
669.53	358.14
669.87	356.65
670.21	355.02
670.55	353.65
670.89	352.52
671.23	351.15
671.57	349.77
671.91	348.39
672.25	346.96
672.58	345.84
672.92	344.40
673.26	343.11
673.60	341.88
673.94	340.62
674.28	339.55
674.62	338.30
674.96	336.95
675.30	335.80
675.64	334.63
675.97	333.33
676.31	331.81
676.65	330.53
676.99	329.42
677.33	328.20
677.67	327.14
678.01	325.76
678.34	324.58
678.68	323.60
679.02	322.48
679.36	321.52
679.70	320.32
680.04	319.46
680.37	318.57
680.71	317.54
681.05	316.72
681.39	315.72
681.73	314.73
682.06	313.78
682.40	312.83
682.74	312.02
683.08	311.36
683.42	310.46
683.75	309.74
684.09	308.80
684.43	308.02
684.77	307.05
685.10	306.36
685.44	305.58
685.78	304.83
686.12	304.05
686.45	303.28
686.79	302.50
687.13	301.78
687.46	300.99
687.80	300.38
688.14	299.54
688.48	298.76
688.81	298.05
689.15	297.45
689.49	296.66
689.82	295.89
690.16	294.97
690.50	294.29
690.83	293.55
691.17	292.76
691.51	292.13
691.84	291.57
692.18	290.90
692.52	290.25
692.85	289.61
693.19	289.19
693.52	288.57
693.86	287.91
694.20	287.17
694.53	286.59
694.87	285.96
695.21	285.26
695.54	284.70
695.88	284.00
696.21	283.29
696.55	282.77
696.88	282.06
697.22	281.46
697.56	281.00
697.89	280.41
698.23	279.91
698.56	279.35
698.90	278.84
699.23	278.26
699.57	277.76
699.90	277.02
700.24	276.39
700.58	275.91
700.91	275.52
701.25	275.44
701.58	275.27
701.92	274.81
702.25	274.45
702.59	273.96
702.92	273.59
703.26	273.17
703.59	272.65
703.93	272.65
704.26	272.30
704.60	271.86
704.93	271.46
705.26	271.03
705.60	270.58
705.93	270.03
706.27	269.72
706.60	269.47
706.94	269.35
707.27	268.92
707.61	268.58
707.94	268.18
708.27	267.38
708.61	266.66
708.94	266.27
709.28	265.87
709.61	265.41
709.94	265.10
710.28	264.70
710.61	264.42
710.95	263.75
711.28	263.68
711.61	263.26
711.95	262.93
712.28	262.53
712.61	262.28
712.95	262.21
713.28	261.98
713.61	261.53
713.95	261.12
714.28	260.80
714.61	260.42
714.95	260.02
715.28	259.69
715.61	259.30
715.95	259.07
716.28	258.66
716.61	258.46
716.95	258.02
717.28	257.71
717.61	257.36
717.94	256.98
718.28	256.33
718.61	256.07
718.94	255.74
719.27	255.49
719.61	255.21
719.94	254.84
720.27	254.45
720.60	254.12
720.94	253.88
721.27	253.57
721.60	253.35
721.93	253.11
722.27	253.10
722.60	253.01
722.93	252.66
723.26	252.53
723.59	252.25
723.93	252.16
724.26	251.99
724.59	251.74
724.92	251.58
725.25	251.47
725.59	251.23
725.92	251.10
726.25	250.87
726.58	250.65
726.91	250.36
727.24	250.20
727.57	249.99
727.91	249.62
728.24	249.50
728.57	249.25
728.90	249.08
729.23	248.62
729.56	248.64
729.89	248.41
730.22	248.16
730.55	247.94
730.89	247.63
731.22	247.40
731.55	247.28
731.88	247.15
732.21	246.96
732.54	246.76
732.87	246.50
733.20	246.35
733.53	246.20
733.86	246.10
734.19	245.81
734.52	245.77
734.85	245.96
735.18	245.79
735.51	245.82
735.84	245.73
736.17	245.74
736.50	245.28
736.83	245.66
737.16	245.49
737.49	245.44
737.82	245.31
738.15	245.20
738.48	245.01
738.81	244.81
739.14	244.66
739.47	244.49
739.80	244.39
740.13	244.32
740.46	244.04
740.79	243.82
741.12	243.64
741.45	243.41
741.78	243.11
742.11	243.09
742.44	242.76
742.77	242.66
743.10	242.50
743.43	242.34
743.75	241.72
744.08	242.24
744.41	242.01
744.74	241.91
745.07	241.64
745.40	241.58
745.73	241.62
746.06	241.40
746.39	241.36
746.71	241.15
747.04	240.95
747.37	240.88
747.70	240.93
748.03	240.86
748.36	240.83
748.68	240.66
749.01	240.31
749.34	240.24
749.67	240.09
750.00	239.98
750.33	240.25
750.65	240.20
750.98	239.51
751.31	239.43
751.64	239.35
751.97	239.54
752.29	239.45
752.62	239.12
752.95	238.99
753.28	238.80
753.60	238.69
753.93	238.71
754.26	238.70
754.59	238.43
754.91	238.34
755.24	238.16
755.57	238.08
755.90	238.10
756.22	237.95
756.55	237.79
756.88	237.61
757.20	237.22
757.53	236.95
757.86	236.83
758.19	236.73
758.51	236.59
758.84	236.30
759.17	236.13
759.49	236.05
759.82	236.15
760.15	236.15
760.47	236.03
760.80	235.79
761.13	235.74
761.45	235.53
761.78	235.45
762.11	235.41
762.43	235.26
762.76	235.10
763.08	235.02
763.41	234.92
763.74	234.90
764.06	234.80
764.39	234.73
764.71	234.67
765.04	234.55
765.37	234.48
765.69	234.34
766.02	234.30
766.34	234.18
766.67	233.98
767.00	233.94
767.32	234.11
767.65	234.33
767.97	234.22
768.30	234.25
768.62	234.16
768.95	234.02
769.27	233.91
769.60	233.88
769.92	233.84
770.25	233.76
770.57	233.59
770.90	233.48
771.22	233.42
771.55	233.40
771.87	233.36
772.20	233.23
772.52	233.68
772.85	234.21
773.17	234.19
773.50	234.11
773.82	234.00
774.15	233.77
774.47	233.45
774.80	233.34
775.12	233.29
775.45	233.27
775.77	233.23
776.09	233.28
776.42	233.25
776.74	233.28
777.07	233.17
777.39	233.14
777.72	233.11
778.04	233.08
778.36	232.92
778.69	232.94
779.01	233.02
779.33	232.48
779.66	231.80
779.98	231.72
780.31	231.75
780.63	231.83
780.95	231.88
781.28	231.83
781.60	231.68
781.92	231.60
782.25	231.48
782.57	231.41
782.89	231.30
783.22	231.19
783.54	231.07
783.86	231.15
784.19	231.11
784.51	231.16
784.83	231.07
785.16	231.00
785.48	230.98
785.80	230.86
786.12	230.85
786.45	230.89
786.77	230.87
787.09	230.75
787.42	230.58
787.74	230.52
788.06	230.38
788.38	230.35
788.71	230.33
789.03	230.37
789.35	230.48
789.67	230.39
789.99	230.42
790.32	230.35
790.64	230.35
790.96	230.66
791.28	230.55
791.61	230.57
791.93	230.66
792.25	230.54
792.57	230.84
792.89	230.71
793.21	230.71
793.54	230.69
793.86	230.61
794.18	230.65
794.50	230.59
794.82	230.68
795.14	230.70
795.47	230.78
795.79	230.72
796.11	230.52
796.43	230.50
796.75	230.44
797.07	230.43
797.39	230.32
797.71	229.96
798.04	229.86
798.36	229.87
798.68	229.83
799.00	229.86
799.32	229.65
799.64	229.71
799.96	229.56
800.28	229.67
800.60	229.65
800.92	229.69
801.24	229.63
801.56	229.64
801.89	229.61
802.21	229.59
802.53	229.50
802.85	229.60
803.17	229.82
803.49	229.73
803.81	229.68
804.13	229.70
804.45	229.70
804.77	229.72
805.09	229.60
805.41	229.49
805.73	229.42
806.05	229.30
806.37	229.39
806.69	229.37
807.01	229.29
807.33	229.29
807.65	229.05
807.97	229.25
808.28	229.14
808.60	229.07
808.92	228.97
809.24	229.28
809.56	229.21
809.88	228.99
810.20	229.02
810.52	229.06
810.84	228.98
811.16	228.90
811.48	228.90
811.80	229.11
812.12	229.12
812.43	229.19
812.75	229.16
813.07	229.01
813.39	229.06
813.71	228.95
814.03	228.89
814.35	228.90
814.67	228.74
814.98	228.77
815.30	228.83
815.62	228.74
815.94	228.44
816.26	228.61
816.58	228.51
816.89	228.51
817.21	228.42
817.53	228.40
817.85	228.40
818.17	228.34
818.48	228.08
818.80	228.20
819.12	228.10
819.44	228.06
819.76	228.04
820.07	228.00
820.39	228.02
820.71	228.10
821.03	228.12
821.34	228.01
821.66	228.02
821.98	227.99
822.30	227.99
822.61	228.27
822.93	228.08
823.25	228.15
823.57	228.13
823.88	228.26
824.20	228.34
824.52	228.43
824.83	228.53
825.15	228.54
825.47	228.42
825.79	228.45
826.10	228.40
826.42	228.34
826.74	228.35
827.05	228.33
827.37	228.28
827.69	228.24
828.00	228.29
828.32	228.25
828.64	228.24
828.95	228.52
829.27	228.38
829.58	228.32
829.90	228.28
830.22	228.36
830.53	228.26
830.85	228.16
831.17	227.96
831.48	227.94
831.80	227.98
832.11	227.98
832.43	227.95
832.75	227.90
833.06	228.25
833.38	228.17
833.69	228.23
834.01	228.30
834.32	228.30
834.64	228.24
834.96	228.21
835.27	228.20
835.59	228.01
835.90	227.91
836.22	227.95
836.53	227.84
836.85	227.72
837.16	228.15
837.48	228.16
837.79	228.39
838.11	228.38
838.42	228.35
838.74	228.37
839.05	228.29
839.37	228.29
839.68	227.97
840.00	227.97
840.31	227.97
840.63	227.93
840.94	227.91
841.26	227.84
841.57	227.90
841.88	227.91
842.20	227.79
842.51	227.76
842.83	227.76
843.14	228.25
843.46	228.24
843.77	227.97
844.08	227.91
844.40	227.70
844.71	227.62
845.03	227.60
845.34	227.58
845.65	227.59
845.97	227.63
846.28	227.65
846.60	227.67
846.91	227.59
847.22	227.45
847.54	227.48
847.85	227.55
848.16	227.50
848.48	227.45
848.79	227.71
849.10	227.74
849.42	227.77
849.73	227.32
850.04	227.32
850.36	227.18
850.67	227.28
850.98	227.36
851.30	227.38
851.61	227.35
851.92	227.33
852.23	227.47
852.55	227.51
852.86	227.52
853.17	227.55
853.49	227.69
853.80	227.90
854.11	228.01
854.42	228.10
854.74	228.07
855.05	228.02
855.36	227.75
855.67	227.74
855.99	227.70
856.30	228.27
856.61	228.24
856.92	228.25
857.23	228.21
857.55	228.16
857.86	228.09
858.17	228.18
858.48	228.17
858.79	228.01
859.11	228.02
859.42	228.01
859.73	227.86
860.04	227.83
860.35	227.64
860.66	227.43
860.98	227.43
861.29	227.42
861.60	227.46
861.91	227.55
862.22	227.44
862.53	227.45
862.84	226.87
863.16	227.05
863.47	226.98
863.78	226.95
864.09	227.00
864.40	227.09
864.71	227.11
865.02	227.19
865.33	227.19
865.64	227.10
865.95	227.09
866.27	227.48
866.58	227.42
866.89	227.52
867.20	227.52
867.51	227.39
867.82	227.46
868.13	227.57
868.44	227.44
868.75	227.56
869.06	227.58
869.37	227.63
869.68	227.47
869.99	227.60
870.30	227.63
870.61	227.64
870.92	227.54
871.23	227.52
871.54	227.50
871.85	227.60
872.16	227.65
872.47	227.59
872.78	227.27
873.09	227.28
873.40	227.26
873.71	227.30
874.02	227.32
874.33	227.24
874.64	227.21
874.95	227.35
875.26	227.28
875.56	227.12
875.87	227.12
876.18	227.08
876.49	227.47
876.80	227.45
877.11	227.39
877.42	227.46
877.73	227.44
878.04	227.44
878.35	227.46
878.66	227.54
878.96	227.57
879.27	227.60
879.58	227.57
879.89	227.55
880.20	227.67
880.51	227.66
880.82	227.68
881.12	227.64
881.43	227.51
881.74	227.43
882.05	227.51
882.36	227.49
882.67	227.59
882.97	227.09
883.28	227.01
883.59	227.03
883.90	227.05
884.21	227.08
884.51	227.05
884.82	226.98
885.13	226.98
885.44	226.95
885.74	226.90
886.05	226.94
886.36	226.93
886.67	226.81
886.98	227.11
887.28	227.11
887.59	227.06
887.90	227.11
888.20	227.11
888.51	227.19
888.82	227.15
889.13	227.17
889.43	227.58
889.74	227.66
890.05	227.59
890.35	227.57
890.66	227.55
890.97	227.43
891.28	227.40
891.58	227.39
891.89	227.44
892.20	227.41
892.50	227.32
892.81	227.27
893.12	227.20
893.42	226.93
893.73	226.99
894.04	227.00
894.34	227.07
894.65	227.10
894.95	226.98
895.26	227.03
895.57	227.19
895.87	226.66
896.18	226.71
896.48	226.74
896.79	226.64
897.10	226.73
897.40	226.80
897.71	226.83
898.01	226.70
898.32	226.71
898.63	226.75
898.93	226.79
899.24	226.83
899.54	226.86
899.85	226.85
900.15	226.85
900.46	226.87
900.76	226.92
901.07	226.85
901.38	226.85
901.68	226.93
901.99	226.63
902.29	226.74
902.60	226.65
902.90	226.63
903.21	226.71
903.51	226.55
903.82	226.67
904.12	226.64
904.43	226.79
904.73	226.69
905.03	226.75
905.34	227.19
905.64	227.18
905.95	227.16
906.25	227.10
906.56	227.04
906.86	227.02
907.17	226.98
907.47	227.03
907.77	227.08
908.08	226.92
908.38	227.01
908.69	227.04
908.99	227.16
909.30	227.18
909.60	227.15
909.90	227.24
910.21	227.13
910.51	227.05
910.81	227.02
911.12	227.15
911.42	227.10
911.73	226.62
912.03	226.62
912.33	226.67
912.64	226.69
912.94	226.66
913.24	226.61
913.55	226.60
913.85	226.55
914.15	226.56
914.46	226.69
914.76	226.64
915.06	226.58
915.37	226.45
915.67	226.43
915.97	226.45
916.27	226.35
916.58	226.38
916.88	226.44
917.18	226.37
917.49	226.66
917.79	226.65
918.09	226.72
918.39	226.86
918.70	226.91
919.00	226.95
919.30	227.10
919.60	227.07
919.91	226.95
920.21	227.04
920.51	227.00
920.81	226.95
921.12	227.03
921.42	227.00
921.72	227.05
922.02	227.06
922.32	227.13
922.63	227.16
922.93	227.35
923.23	227.33
923.53	227.30
923.83	226.95
924.13	226.97
924.44	226.97
924.74	227.06
925.04	227.10
925.34	227.06
925.64	226.94
925.94	226.92
926.24	227.16
926.55	227.06
926.85	227.06
927.15	227.03
927.45	226.96
927.75	227.00
928.05	227.01
928.35	227.01
928.65	227.12
928.95	227.18
929.26	226.96
929.56	227.11
929.86	227.19
930.16	227.11
930.46	227.09
930.76	227.08
931.06	226.80
931.36	226.68
931.66	226.75
931.96	226.79
932.26	226.85
932.56	226.76
932.86	226.83
933.16	226.82
933.46	226.83
933.76	226.87
934.06	227.06
934.36	227.22
934.66	227.15
934.96	227.00
935.26	227.01
935.56	227.09
935.86	226.95
936.16	226.90
936.46	226.96
936.76	226.98
937.06	226.91
937.36	227.00
937.66	227.01
937.96	227.00
938.26	226.93
938.56	226.92
938.86	226.84
939.16	226.99
939.46	227.07
939.76	227.08
940.06	227.06
940.35	226.84
940.65	226.56
940.95	226.60
941.25	226.51
941.55	226.39
941.85	226.38
942.15	226.55
942.45	226.64
942.75	226.59
943.04	226.63
943.34	226.72
943.64	226.66
943.94	226.62
944.24	226.61
944.54	226.66
944.84	226.65
945.13	226.67
945.43	226.51
945.73	226.45
946.03	226.40
946.33	226.33
946.62	226.33
946.92	226.37
947.22	226.45
947.52	226.52
947.82	226.56
948.11	226.53
948.41	226.31
948.71	226.15
949.01	226.21
949.31	226.13
949.60	226.08
949.90	226.10
950.20	226.08
950.50	226.10
950.79	225.97
951.09	226.01
951.39	225.96
951.69	225.91
951.98	226.01
952.28	226.07
952.58	225.98
952.87	225.94
953.17	225.93
953.47	225.79
953.76	225.71
954.06	225.64
954.36	225.49
954.66	225.53
954.95	225.68
955.25	225.66
955.55	225.65
955.84	225.48
956.14	225.56
956.44	225.63
956.73	225.60
957.03	225.63
957.32	225.64
957.62	225.65
957.92	225.74
958.21	225.63
958.51	226.17
958.81	226.27
959.10	226.35
959.40	226.50
959.69	226.56
959.99	226.64
960.29	226.67
960.58	226.75
960.88	226.91
961.17	226.86
961.47	226.95
961.76	226.95
962.06	227.19
962.36	227.11
962.65	227.07
962.95	227.04
963.24	227.00
963.54	227.01
963.83	227.00
964.13	227.00
964.42	226.98
964.72	226.49
965.01	226.48
965.31	226.43
965.60	226.28
965.90	226.53
966.19	226.50
966.49	226.56
966.78	226.53
967.08	226.51
967.37	226.44
967.67	226.34
967.96	226.36
968.26	226.31
968.55	226.43
968.85	226.45
969.14	226.46
969.43	226.50
969.73	226.45
970.02	226.51
970.32	226.45
970.61	226.50
970.91	226.47
971.20	226.41
971.49	226.41
971.79	226.53
972.08	226.26
972.38	226.27
972.67	226.25
972.96	226.31
973.26	226.21
973.55	226.46
973.85	226.41
974.14	226.40
974.43	226.45
974.73	226.32
975.02	226.30
975.31	226.32
975.61	226.33
975.90	226.38
976.19	226.28
976.49	226.40
976.78	226.39
977.07	226.36
977.37	226.48
977.66	226.50
977.95	226.44
978.24	226.53
978.54	226.64
978.83	226.60
979.12	226.56
979.42	226.58
979.71	226.46
980.00	226.50
980.29	226.55
980.59	226.42
980.88	226.55
981.17	226.52
981.46	226.57
981.76	226.60
982.05	226.74
982.34	226.73
982.63	226.68
982.93	226.65
983.22	226.86
983.51	226.84
983.80	226.89
984.09	226.88
984.39	226.83
984.68	226.75
984.97	226.79
985.26	226.76
985.55	226.74
985.85	226.69
986.14	226.76
986.43	226.83
986.72	226.84
987.01	226.70
987.30	226.62
987.59	226.55
987.89	226.52
988.18	226.30
988.47	226.22
988.76	226.18
989.05	226.16
989.34	225.98
989.63	226.05
989.92	226.00
990.22	225.93
990.51	225.92
990.80	225.90
991.09	225.95
991.38	226.02
991.67	225.95
991.96	225.88
992.25	225.89
992.54	225.76
992.83	225.71
993.12	225.73
993.41	225.84
993.70	226.01
993.99	226.07
994.28	226.11
994.58	226.24
994.87	226.15
995.16	226.10
995.45	226.05
995.74	225.92
996.03	226.02
996.32	226.15
996.61	226.19
996.90	226.18
997.19	226.08
997.48	226.04
997.77	225.99
998.06	226.01
998.34	225.93
998.63	225.96
998.92	226.00
999.21	225.94
999.50	225.93
999.79	225.77
1000.08	225.74
1000.37	225.73
1000.66	225.61
1000.95	225.75
1001.24	225.82
1001.53	225.85
1001.82	225.85
1002.11	225.68
1002.40	225.68
1002.68	225.84
1002.97	226.09
1003.26	226.08
1003.55	226.03
1003.84	226.18
1004.13	226.37
1004.42	226.40
1004.71	226.38
1004.99	226.33
1005.28	226.53
1005.57	226.56
1005.86	226.56
1006.15	226.47
1006.44	226.44
1006.72	226.58
1007.01	226.50
1007.30	226.53
1007.59	226.54
1007.88	226.48
1008.17	226.60
1008.45	226.55
1008.74	226.34
1009.03	226.21
1009.32	226.25
1009.60	226.28
1009.89	226.18
1010.18	226.02
1010.47	226.01
1010.76	226.07
1011.04	226.07
1011.33	226.10
1011.62	226.11
1011.91	226.17
1012.19	226.28
1012.48	226.35
1012.77	226.35
1013.05	226.65
1013.34	226.63
1013.63	226.62
1013.92	226.72
1014.20	226.69
1014.49	226.70
1014.78	226.79
1015.06	226.59
1015.35	226.58
1015.64	226.69
1015.92	226.86
1016.21	226.87
1016.50	226.89
1016.78	226.93
1017.07	226.98
1017.36	226.86
1017.64	226.87
1017.93	226.90
1018.22	226.80
1018.50	226.76
1018.79	226.75
1019.08	226.47
1019.36	226.46
1019.65	226.40
1019.93	226.53
1020.22	226.59
1020.51	226.79
1020.79	226.72
1021.08	224.80
1021.36	225.65
1021.65	226.65
1021.94	226.20
1022.22	225.85
1022.51	224.90
1022.79	229.00
1023.08	227.45
1023.36	231.30
1023.65	225.60
>>>>>End Processed Spectral Data<<<<<
