SpectraSuite Data File
++++++++++++++++++++++++++++++++++++
Date: Wed Sep 04 17:52:24 EDT 2013
User: lab3
Dark Spectrum Present: Yes
Reference Spectrum Present: No
Number of Sampled Component Spectra: 1
Spectrometers: USB2E7196
Integration Time (usec): 170000 (USB2E7196)
Spectra Averaged: 20 (USB2E7196)
Boxcar Smoothing: 10 (USB2E7196)
Correct for Electrical Dark: No (USB2E7196)
Strobe/Lamp Enabled: No (USB2E7196)
Correct for Detector Non-linearity: No (USB2E7196)
Correct for Stray Light: No (USB2E7196)
Number of Pixels in Processed Spectrum: 2048
>>>>>Begin Processed Spectral Data<<<<<
339.09	0.00
339.48	213.85
339.86	214.65
340.24	216.70
340.63	218.45
341.01	225.95
341.39	220.30
341.78	220.45
342.16	223.70
342.54	223.10
342.93	212.36
343.31	223.07
343.69	223.50
344.07	223.94
344.46	224.35
344.84	224.74
345.22	224.75
345.60	225.01
345.99	225.31
346.37	225.49
346.75	225.60
347.13	225.68
347.52	225.71
347.90	225.93
348.28	225.97
348.66	226.14
349.05	225.95
349.43	225.99
349.81	226.10
350.19	226.14
350.57	226.22
350.96	226.31
351.34	226.40
351.72	226.55
352.10	226.70
352.48	226.75
352.87	226.74
353.25	226.80
353.63	226.81
354.01	226.84
354.39	226.94
354.77	226.97
355.15	227.11
355.54	227.12
355.92	227.02
356.30	227.05
356.68	227.45
357.06	227.59
357.44	227.55
357.82	227.54
358.20	228.02
358.58	228.04
358.97	228.18
359.35	228.31
359.73	228.52
360.11	228.47
360.49	228.56
360.87	228.66
361.25	228.75
361.63	228.91
362.01	228.96
362.39	228.87
362.77	228.98
363.15	228.97
363.53	229.06
363.91	229.20
364.29	229.22
364.67	228.71
365.05	228.74
365.43	228.92
365.81	229.07
366.19	228.94
366.57	229.14
366.95	229.14
367.33	229.04
367.71	229.00
368.09	229.17
368.47	229.21
368.85	229.16
369.23	229.25
369.61	229.12
369.99	229.25
370.37	229.30
370.75	229.51
371.13	229.45
371.51	229.33
371.89	229.29
372.27	229.35
372.65	229.39
373.03	229.38
373.41	229.31
373.78	229.20
374.16	228.89
374.54	228.68
374.92	228.58
375.30	228.54
375.68	228.42
376.06	228.32
376.44	228.20
376.82	228.12
377.19	228.02
377.57	228.00
377.95	227.77
378.33	227.68
378.71	227.38
379.09	227.37
379.47	227.37
379.84	227.24
380.22	227.06
380.60	226.96
380.98	226.85
381.36	226.72
381.73	226.58
382.11	226.73
382.49	226.70
382.87	226.58
383.25	226.52
383.62	227.00
384.00	226.87
384.38	226.82
384.76	226.92
385.13	227.04
385.51	226.98
385.89	226.82
386.27	226.78
386.64	226.81
387.02	226.68
387.40	226.61
387.78	226.61
388.15	226.60
388.53	226.52
388.91	226.47
389.29	226.47
389.66	226.53
390.04	226.32
390.42	226.38
390.79	226.38
391.17	226.36
391.55	225.86
391.92	225.83
392.30	225.92
392.68	225.74
393.05	225.70
393.43	225.74
393.81	225.82
394.18	225.81
394.56	225.80
394.94	225.94
395.31	225.87
395.69	226.03
396.06	226.17
396.44	226.24
396.82	226.28
397.19	226.50
397.57	226.40
397.95	226.57
398.32	226.49
398.70	226.61
399.07	226.79
399.45	226.78
399.82	226.94
400.20	226.92
400.58	227.05
400.95	226.93
401.33	227.10
401.70	227.51
402.08	227.60
402.45	227.74
402.83	228.00
403.20	228.20
403.58	228.24
403.95	228.41
404.33	228.66
404.71	228.90
405.08	229.38
405.46	229.70
405.83	229.93
406.21	230.20
406.58	230.48
406.96	230.67
407.33	231.04
407.70	231.39
408.08	232.15
408.45	232.63
408.83	233.21
409.20	233.57
409.58	233.76
409.95	234.36
410.33	234.86
410.70	235.27
411.08	235.91
411.45	236.62
411.82	237.23
412.20	238.04
412.57	239.01
412.95	239.37
413.32	240.28
413.69	241.12
414.07	242.07
414.44	243.10
414.82	244.19
415.19	245.44
415.56	246.63
415.94	247.55
416.31	248.98
416.68	250.38
417.06	252.04
417.43	253.71
417.81	255.51
418.18	257.38
418.55	259.24
418.93	261.29
419.30	263.35
419.67	265.61
420.04	267.83
420.42	270.12
420.79	273.17
421.16	275.95
421.54	279.03
421.91	282.00
422.28	285.05
422.66	288.31
423.03	291.71
423.40	295.02
423.77	298.64
424.15	302.21
424.52	305.90
424.89	309.98
425.26	313.87
425.64	317.58
426.01	321.61
426.38	326.02
426.75	330.47
427.13	335.05
427.50	339.77
427.87	344.65
428.24	349.56
428.61	354.00
428.99	359.30
429.36	364.76
429.73	370.17
430.10	375.61
430.47	381.22
430.85	386.84
431.22	393.08
431.59	399.76
431.96	406.01
432.33	412.93
432.70	419.57
433.08	427.48
433.45	434.88
433.82	442.25
434.19	450.34
434.56	458.41
434.93	465.95
435.30	473.54
435.68	482.14
436.05	490.36
436.42	498.63
436.79	506.31
437.16	514.59
437.53	523.39
437.90	532.00
438.27	540.55
438.64	549.28
439.01	557.45
439.38	564.70
439.75	571.81
440.13	579.95
440.50	587.48
440.87	593.43
441.24	599.76
441.61	606.76
441.98	611.76
442.35	617.67
442.72	623.79
443.09	629.76
443.46	633.00
443.83	635.45
444.20	637.42
444.57	640.04
444.94	640.98
445.31	642.05
445.68	643.47
446.05	643.42
446.42	642.22
446.79	640.79
447.16	639.10
447.53	637.88
447.90	634.15
448.27	630.48
448.64	625.65
449.01	622.00
449.37	615.80
449.74	609.87
450.11	602.98
450.48	595.23
450.85	587.18
451.22	580.54
451.59	574.04
451.96	567.92
452.33	559.75
452.70	552.52
453.07	543.97
453.43	534.87
453.80	526.74
454.17	518.77
454.54	511.05
454.91	502.86
455.28	494.77
455.65	487.29
456.02	480.54
456.38	474.21
456.75	466.49
457.12	460.09
457.49	453.80
457.86	447.45
458.23	442.30
458.59	436.63
458.96	430.76
459.33	425.56
459.70	420.34
460.07	416.30
460.43	411.58
460.80	407.29
461.17	403.67
461.54	399.68
461.91	395.89
462.27	392.19
462.64	389.03
463.01	385.55
463.38	382.21
463.74	378.12
464.11	375.21
464.48	372.53
464.85	369.67
465.21	367.60
465.58	365.33
465.95	362.50
466.32	360.34
466.68	358.12
467.05	355.86
467.42	353.72
467.78	351.46
468.15	349.42
468.52	347.90
468.88	345.67
469.25	343.80
469.62	342.33
469.98	340.72
470.35	339.23
470.72	337.81
471.08	336.05
471.45	334.76
471.82	333.48
472.18	332.09
472.55	331.11
472.92	329.77
473.28	328.66
473.65	327.53
474.02	326.45
474.38	325.56
474.75	324.91
475.11	324.00
475.48	323.29
475.85	322.66
476.21	321.91
476.58	321.37
476.94	321.01
477.31	320.44
477.67	319.95
478.04	319.57
478.41	319.30
478.77	319.72
479.14	319.51
479.50	319.35
479.87	319.36
480.23	319.36
480.60	319.37
480.96	319.36
481.33	319.75
481.69	319.92
482.06	320.24
482.42	320.45
482.79	320.82
483.15	321.30
483.52	321.87
483.88	322.35
484.25	322.92
484.61	323.57
484.98	324.17
485.34	325.05
485.71	325.98
486.07	326.87
486.44	327.41
486.80	328.42
487.17	329.58
487.53	331.02
487.90	332.40
488.26	334.05
488.62	335.70
488.99	337.17
489.35	338.98
489.72	340.82
490.08	342.77
490.44	344.75
490.81	346.96
491.17	349.13
491.54	351.65
491.90	354.21
492.26	356.84
492.63	359.80
492.99	362.65
493.36	365.72
493.72	368.99
494.08	372.33
494.45	376.11
494.81	379.98
495.17	383.67
495.54	387.76
495.90	391.83
496.26	396.29
496.63	400.96
496.99	405.69
497.35	410.72
497.72	415.93
498.08	421.51
498.44	427.19
498.80	433.29
499.17	439.28
499.53	445.56
499.89	452.17
500.26	458.96
500.62	465.93
500.98	473.31
501.34	480.83
501.71	488.69
502.07	496.48
502.43	504.47
502.79	513.03
503.16	521.90
503.52	530.94
503.88	540.08
504.24	549.86
504.60	559.98
504.97	570.29
505.33	580.72
505.69	591.88
506.05	602.83
506.41	613.94
506.78	625.80
507.14	637.82
507.50	650.13
507.86	662.72
508.22	675.80
508.59	688.82
508.95	702.56
509.31	716.65
509.67	730.86
510.03	745.21
510.39	760.04
510.75	774.78
511.12	790.03
511.48	805.67
511.84	821.18
512.20	837.08
512.56	853.37
512.92	870.28
513.28	886.90
513.64	904.13
514.00	921.69
514.37	939.20
514.73	957.31
515.09	975.53
515.45	994.10
515.81	1012.38
516.17	1031.14
516.53	1049.75
516.89	1068.26
517.25	1087.65
517.61	1107.81
517.97	1127.87
518.33	1147.93
518.69	1168.25
519.05	1188.83
519.41	1209.51
519.77	1230.23
520.13	1250.77
520.49	1271.19
520.85	1293.23
521.21	1314.13
521.57	1335.32
521.93	1356.06
522.29	1376.95
522.65	1397.46
523.01	1417.96
523.37	1438.49
523.73	1459.44
524.09	1479.64
524.45	1500.37
524.81	1521.04
525.17	1541.63
525.53	1562.05
525.89	1582.64
526.25	1603.27
526.61	1623.44
526.97	1644.20
527.33	1665.25
527.68	1686.95
528.04	1708.12
528.40	1727.88
528.76	1748.76
529.12	1769.30
529.48	1790.44
529.84	1810.65
530.20	1831.80
530.56	1852.40
530.91	1873.25
531.27	1893.63
531.63	1914.26
531.99	1934.76
532.35	1954.65
532.71	1974.96
533.07	1995.62
533.42	2015.52
533.78	2035.11
534.14	2054.93
534.50	2074.00
534.86	2093.30
535.21	2110.75
535.57	2128.82
535.93	2146.15
536.29	2163.83
536.65	2181.82
537.00	2199.08
537.36	2216.49
537.72	2232.65
538.08	2249.62
538.44	2266.16
538.79	2282.47
539.15	2298.85
539.51	2314.58
539.87	2329.80
540.22	2343.28
540.58	2357.52
540.94	2370.83
541.29	2383.76
541.65	2396.45
542.01	2408.86
542.37	2419.07
542.72	2429.88
543.08	2440.69
543.44	2452.26
543.79	2462.21
544.15	2471.87
544.51	2481.82
544.87	2491.18
545.22	2499.85
545.58	2507.82
545.94	2515.25
546.29	2521.50
546.65	2527.70
547.01	2533.12
547.36	2538.66
547.72	2544.37
548.07	2548.08
548.43	2553.39
548.79	2557.85
549.14	2561.48
549.50	2565.05
549.86	2569.08
550.21	2572.96
550.57	2576.20
550.92	2577.73
551.28	2579.41
551.64	2581.44
551.99	2582.97
552.35	2584.55
552.70	2586.80
553.06	2588.21
553.41	2589.43
553.77	2591.08
554.13	2592.38
554.48	2594.09
554.84	2594.76
555.19	2595.93
555.55	2597.46
555.90	2596.83
556.26	2596.00
556.61	2594.54
556.97	2592.39
557.32	2591.62
557.68	2590.67
558.03	2589.17
558.39	2587.57
558.74	2586.36
559.10	2583.33
559.45	2579.55
559.81	2575.18
560.16	2569.52
560.52	2564.37
560.87	2559.83
561.23	2554.74
561.58	2548.93
561.94	2542.05
562.29	2535.15
562.64	2527.69
563.00	2519.56
563.35	2512.54
563.71	2505.76
564.06	2499.45
564.42	2493.52
564.77	2486.64
565.12	2479.03
565.48	2471.60
565.83	2463.72
566.19	2455.80
566.54	2447.79
566.89	2439.67
567.25	2431.95
567.60	2425.03
567.96	2417.79
568.31	2409.62
568.66	2400.65
569.02	2392.04
569.37	2383.99
569.72	2376.61
570.08	2367.70
570.43	2358.34
570.78	2349.60
571.14	2339.97
571.49	2329.43
571.84	2319.50
572.20	2308.61
572.55	2298.29
572.90	2287.28
573.26	2277.12
573.61	2266.09
573.96	2255.00
574.31	2243.44
574.67	2231.44
575.02	2218.70
575.37	2206.16
575.72	2193.11
576.08	2181.08
576.43	2168.15
576.78	2154.75
577.13	2141.19
577.49	2128.61
577.84	2116.65
578.19	2104.32
578.54	2092.11
578.90	2080.38
579.25	2068.24
579.60	2055.86
579.95	2042.95
580.30	2030.04
580.66	2016.57
581.01	2003.00
581.36	1989.20
581.71	1976.65
582.06	1963.93
582.42	1951.65
582.77	1938.94
583.12	1926.87
583.47	1914.66
583.82	1902.79
584.17	1890.95
584.53	1879.20
584.88	1866.30
585.23	1853.19
585.58	1839.32
585.93	1825.85
586.28	1812.90
586.63	1798.74
586.98	1784.81
587.34	1771.56
587.69	1758.19
588.04	1745.87
588.39	1733.90
588.74	1721.69
589.09	1709.78
589.44	1697.18
589.79	1685.12
590.14	1673.30
590.49	1661.24
590.84	1649.38
591.19	1637.88
591.54	1625.82
591.89	1613.35
592.25	1603.11
592.60	1591.74
592.95	1580.12
593.30	1568.16
593.65	1555.83
594.00	1544.09
594.35	1534.08
594.70	1522.40
595.05	1511.12
595.40	1499.00
595.75	1487.08
596.10	1475.88
596.45	1464.25
596.80	1453.44
597.15	1442.09
597.50	1430.65
597.85	1419.47
598.19	1407.81
598.54	1395.92
598.89	1384.83
599.24	1374.42
599.59	1362.98
599.94	1352.25
600.29	1342.08
600.64	1332.28
600.99	1321.92
601.34	1312.35
601.69	1301.20
602.04	1291.56
602.39	1282.00
602.74	1272.79
603.08	1263.51
603.43	1254.24
603.78	1244.42
604.13	1234.83
604.48	1225.16
604.83	1215.18
605.18	1205.22
605.53	1195.67
605.87	1186.36
606.22	1177.79
606.57	1168.42
606.92	1159.02
607.27	1150.19
607.62	1141.51
607.96	1132.82
608.31	1125.13
608.66	1116.58
609.01	1108.21
609.36	1099.73
609.70	1091.19
610.05	1082.70
610.40	1074.18
610.75	1065.68
611.10	1057.57
611.44	1049.08
611.79	1040.97
612.14	1033.17
612.49	1025.52
612.83	1018.08
613.18	1010.51
613.53	1002.69
613.88	995.16
614.22	987.55
614.57	979.51
614.92	971.59
615.27	964.12
615.61	956.21
615.96	948.73
616.31	941.43
616.65	934.29
617.00	926.96
617.35	919.69
617.70	912.79
618.04	905.90
618.39	898.72
618.74	892.40
619.08	885.58
619.43	878.65
619.78	871.50
620.12	864.26
620.47	857.60
620.82	850.52
621.16	843.59
621.51	837.18
621.85	831.15
622.20	824.61
622.55	817.99
622.89	811.62
623.24	805.29
623.59	798.93
623.93	792.67
624.28	786.61
624.62	781.24
624.97	775.43
625.32	769.54
625.66	763.70
626.01	757.65
626.35	752.12
626.70	746.72
627.04	741.59
627.39	736.28
627.73	731.00
628.08	726.02
628.43	720.67
628.77	715.25
629.12	709.73
629.46	705.04
629.81	700.63
630.15	696.01
630.50	691.27
630.84	686.33
631.19	681.51
631.53	676.85
631.88	671.59
632.22	666.66
632.57	662.21
632.91	657.71
633.26	653.28
633.60	648.79
633.95	644.07
634.29	639.40
634.64	634.97
634.98	630.13
635.32	625.63
635.67	621.79
636.01	617.69
636.36	613.52
636.70	609.47
637.05	605.05
637.39	600.86
637.73	596.70
638.08	592.91
638.42	588.95
638.77	584.77
639.11	580.55
639.45	576.25
639.80	571.92
640.14	567.95
640.49	563.93
640.83	560.00
641.17	556.36
641.52	552.79
641.86	549.22
642.20	546.18
642.55	542.48
642.89	538.67
643.23	535.20
643.58	532.05
643.92	528.41
644.26	525.04
644.61	521.88
644.95	518.54
645.29	515.09
645.64	511.91
645.98	508.90
646.32	505.99
646.66	503.06
647.01	500.09
647.35	497.33
647.69	494.45
648.04	491.70
648.38	488.89
648.72	485.98
649.06	483.13
649.41	480.05
649.75	477.20
650.09	474.41
650.43	471.52
650.78	468.63
651.12	465.82
651.46	462.98
651.80	460.10
652.14	457.45
652.49	454.98
652.83	452.23
653.17	449.55
653.51	446.82
653.85	444.31
654.20	441.87
654.54	439.19
654.88	436.68
655.22	434.35
655.56	432.10
655.90	429.81
656.25	427.34
656.59	425.05
656.93	422.90
657.27	420.80
657.61	418.35
657.95	416.09
658.29	413.86
658.64	411.81
658.98	409.76
659.32	407.60
659.66	405.45
660.00	403.43
660.34	401.44
660.68	399.47
661.02	397.50
661.36	395.56
661.70	393.57
662.05	391.65
662.39	389.73
662.73	387.84
663.07	386.16
663.41	384.52
663.75	382.62
664.09	380.80
664.43	378.91
664.77	377.35
665.11	375.63
665.45	374.13
665.79	372.60
666.13	370.84
666.47	369.14
666.81	367.45
667.15	365.77
667.49	364.27
667.83	362.90
668.17	361.40
668.51	359.85
668.85	358.53
669.19	357.36
669.53	355.90
669.87	354.38
670.21	352.86
670.55	351.36
670.89	350.31
671.23	348.86
671.57	347.44
671.91	346.13
672.25	344.71
672.58	343.47
672.92	342.03
673.26	340.81
673.60	339.66
673.94	338.62
674.28	337.57
674.62	336.49
674.96	335.21
675.30	334.11
675.64	333.01
675.97	331.87
676.31	330.59
676.65	329.39
676.99	328.40
677.33	327.22
677.67	326.33
678.01	324.99
678.34	323.98
678.68	323.02
679.02	321.92
679.36	321.04
679.70	319.91
680.04	318.88
680.37	317.93
680.71	316.98
681.05	315.92
681.39	314.98
681.73	313.97
682.06	313.08
682.40	312.09
682.74	311.32
683.08	310.64
683.42	309.71
683.75	308.88
684.09	307.90
684.43	307.12
684.77	306.15
685.10	305.41
685.44	304.70
685.78	303.93
686.12	303.20
686.45	302.39
686.79	301.65
687.13	301.00
687.46	300.29
687.80	299.60
688.14	298.81
688.48	298.00
688.81	297.23
689.15	296.63
689.49	295.98
689.82	295.13
690.16	294.21
690.50	293.53
690.83	292.76
691.17	292.02
691.51	291.27
691.84	290.73
692.18	289.98
692.52	289.19
692.85	288.54
693.19	288.04
693.52	287.44
693.86	286.75
694.20	286.05
694.53	285.40
694.87	284.78
695.21	284.20
695.54	283.57
695.88	282.87
696.21	282.09
696.55	281.45
696.88	280.86
697.22	280.18
697.56	279.68
697.89	279.07
698.23	278.59
698.56	277.99
698.90	277.45
699.23	276.89
699.57	276.41
699.90	275.84
700.24	275.16
700.58	274.58
700.91	274.20
701.25	274.14
701.58	274.01
701.92	273.63
702.25	273.13
702.59	272.67
702.92	272.20
703.26	271.76
703.59	271.39
703.93	271.40
704.26	271.11
704.60	270.66
704.93	270.30
705.26	269.83
705.60	269.46
705.93	268.87
706.27	268.60
706.60	268.40
706.94	268.20
707.27	267.77
707.61	267.51
707.94	267.07
708.27	266.29
708.61	265.52
708.94	265.10
709.28	264.85
709.61	264.47
709.94	264.23
710.28	263.87
710.61	263.50
710.95	262.70
711.28	262.63
711.61	262.33
711.95	262.09
712.28	261.72
712.61	261.47
712.95	261.47
713.28	261.32
713.61	260.95
713.95	260.49
714.28	260.22
714.61	259.82
714.95	259.54
715.28	259.22
715.61	258.90
715.95	258.55
716.28	258.13
716.61	257.94
716.95	257.59
717.28	257.35
717.61	257.01
717.94	256.78
718.28	256.09
718.61	255.79
718.94	255.43
719.27	255.22
719.61	254.98
719.94	254.51
720.27	254.02
720.60	253.60
720.94	253.35
721.27	253.21
721.60	253.12
721.93	252.82
722.27	252.71
722.60	252.55
722.93	252.32
723.26	252.16
723.59	251.90
723.93	251.73
724.26	251.57
724.59	251.36
724.92	251.13
725.25	251.10
725.59	250.79
725.92	250.62
726.25	250.45
726.58	250.25
726.91	250.05
727.24	249.89
727.57	249.78
727.91	249.54
728.24	249.27
728.57	248.97
728.90	248.83
729.23	248.59
729.56	248.58
729.89	248.38
730.22	248.12
730.55	247.88
730.89	247.64
731.22	247.38
731.55	247.14
731.88	247.02
732.21	246.75
732.54	246.45
732.87	246.19
733.20	245.96
733.53	245.75
733.86	245.65
734.19	245.42
734.52	245.30
734.85	245.41
735.18	245.20
735.51	245.21
735.84	245.08
736.17	244.95
736.50	244.54
736.83	244.96
737.16	244.81
737.49	244.73
737.82	244.58
738.15	244.45
738.48	244.36
738.81	244.13
739.14	243.91
739.47	243.83
739.80	243.73
740.13	243.65
740.46	243.43
740.79	243.27
741.12	243.10
741.45	242.84
741.78	242.45
742.11	242.40
742.44	242.10
742.77	242.02
743.10	241.78
743.43	241.62
743.75	240.90
744.08	241.37
744.41	241.14
744.74	240.94
745.07	240.75
745.40	240.69
745.73	240.81
746.06	240.63
746.39	240.58
746.71	240.36
747.04	240.20
747.37	240.08
747.70	239.93
748.03	239.84
748.36	239.78
748.68	239.67
749.01	239.44
749.34	239.34
749.67	239.12
750.00	239.10
750.33	239.38
750.65	239.36
750.98	238.73
751.31	238.70
751.64	238.69
751.97	238.82
752.29	238.73
752.62	238.33
752.95	238.30
753.28	238.12
753.60	238.05
753.93	238.02
754.26	237.99
754.59	237.78
754.91	237.57
755.24	237.48
755.57	237.41
755.90	237.36
756.22	237.17
756.55	237.03
756.88	236.86
757.20	236.50
757.53	236.34
757.86	236.19
758.19	236.14
758.51	236.00
758.84	235.66
759.17	235.44
759.49	235.42
759.82	235.59
760.15	235.60
760.47	235.55
760.80	235.39
761.13	235.35
761.45	235.29
761.78	235.26
762.11	235.19
762.43	235.06
762.76	234.96
763.08	234.97
763.41	234.98
763.74	234.92
764.06	234.77
764.39	234.69
764.71	234.63
765.04	234.40
765.37	234.27
765.69	234.29
766.02	234.23
766.34	234.10
766.67	233.76
767.00	233.77
767.32	234.00
767.65	234.21
767.97	234.06
768.30	234.05
768.62	234.03
768.95	233.96
769.27	233.82
769.60	233.89
769.92	233.72
770.25	233.55
770.57	233.40
770.90	233.31
771.22	233.18
771.55	233.07
771.87	233.10
772.20	233.03
772.52	233.26
772.85	233.71
773.17	233.71
773.50	233.70
773.82	233.55
774.15	233.17
774.47	232.76
774.80	232.67
775.12	232.53
775.45	232.51
775.77	232.37
776.09	232.49
776.42	232.35
776.74	232.51
777.07	232.45
777.39	232.45
777.72	232.42
778.04	232.43
778.36	232.35
778.69	232.30
779.01	232.33
779.33	231.92
779.66	231.38
779.98	231.27
780.31	231.25
780.63	231.40
780.95	231.42
781.28	231.43
781.60	231.42
781.92	231.42
782.25	231.35
782.57	231.36
782.89	231.17
783.22	231.08
783.54	230.95
783.86	230.96
784.19	230.91
784.51	231.11
784.83	230.99
785.16	230.96
785.48	230.90
785.80	230.83
786.12	230.80
786.45	230.79
786.77	230.79
787.09	230.74
787.42	230.57
787.74	230.56
788.06	230.53
788.38	230.40
788.71	230.42
789.03	230.41
789.35	230.35
789.67	230.33
789.99	230.32
790.32	230.20
790.64	230.27
790.96	230.64
791.28	230.37
791.61	230.38
791.93	230.33
792.25	230.33
792.57	230.66
792.89	230.55
793.21	230.53
793.54	230.47
793.86	230.39
794.18	230.37
794.50	230.33
794.82	230.26
795.14	230.30
795.47	230.31
795.79	230.37
796.11	230.33
796.43	230.32
796.75	230.27
797.07	230.35
797.39	230.29
797.71	229.94
798.04	229.92
798.36	229.87
798.68	229.96
799.00	230.00
799.32	229.72
799.64	229.86
799.96	229.86
800.28	229.86
800.60	229.79
800.92	229.87
801.24	229.77
801.56	229.87
801.89	229.88
802.21	229.90
802.53	229.77
802.85	229.77
803.17	230.01
803.49	229.96
803.81	229.84
804.13	229.77
804.45	229.62
804.77	229.67
805.09	229.67
805.41	229.56
805.73	229.47
806.05	229.39
806.37	229.27
806.69	229.26
807.01	229.24
807.33	229.22
807.65	228.94
807.97	229.17
808.28	229.09
808.60	229.05
808.92	228.96
809.24	229.19
809.56	229.17
809.88	228.89
810.20	228.86
810.52	228.99
810.84	228.86
811.16	228.84
811.48	228.74
811.80	228.92
812.12	228.84
812.43	228.89
812.75	228.85
813.07	228.75
813.39	228.65
813.71	228.55
814.03	228.51
814.35	228.56
814.67	228.26
814.98	228.16
815.30	228.15
815.62	228.05
815.94	227.67
816.26	227.80
816.58	227.65
816.89	227.73
817.21	227.58
817.53	227.57
817.85	227.57
818.17	227.53
818.48	227.32
818.80	227.39
819.12	227.32
819.44	227.23
819.76	227.25
820.07	227.29
820.39	227.29
820.71	227.36
821.03	227.33
821.34	227.32
821.66	227.37
821.98	227.28
822.30	227.23
822.61	227.52
822.93	227.24
823.25	227.29
823.57	227.15
823.88	227.20
824.20	227.14
824.52	227.16
824.83	227.10
825.15	227.04
825.47	227.01
825.79	227.03
826.10	227.01
826.42	226.99
826.74	226.99
827.05	226.89
827.37	226.84
827.69	226.77
828.00	226.84
828.32	226.82
828.64	226.74
828.95	227.01
829.27	226.82
829.58	226.91
829.90	226.97
830.22	227.04
830.53	226.91
830.85	226.95
831.17	226.89
831.48	226.92
831.80	226.94
832.11	226.95
832.43	226.86
832.75	226.86
833.06	227.15
833.38	227.06
833.69	227.10
834.01	227.13
834.32	227.14
834.64	227.09
834.96	227.12
835.27	227.24
835.59	227.10
835.90	227.11
836.22	227.08
836.53	227.00
836.85	226.95
837.16	227.47
837.48	227.51
837.79	227.67
838.11	227.70
838.42	227.76
838.74	227.82
839.05	227.83
839.37	227.83
839.68	227.54
840.00	227.56
840.31	227.67
840.63	227.70
840.94	227.67
841.26	227.62
841.57	227.59
841.88	227.61
842.20	227.55
842.51	227.45
842.83	227.51
843.14	227.94
843.46	227.95
843.77	227.68
844.08	227.67
844.40	227.54
844.71	227.52
845.03	227.46
845.34	227.44
845.65	227.47
845.97	227.46
846.28	227.46
846.60	227.48
846.91	227.43
847.22	227.38
847.54	227.52
847.85	227.55
848.16	227.55
848.48	227.45
848.79	227.67
849.10	227.75
849.42	227.68
849.73	227.33
850.04	227.30
850.36	227.16
850.67	227.20
850.98	227.19
851.30	227.30
851.61	227.26
851.92	227.20
852.23	227.30
852.55	227.33
852.86	227.38
853.17	227.38
853.49	227.44
853.80	227.48
854.11	227.47
854.42	227.55
854.74	227.51
855.05	227.52
855.36	227.18
855.67	227.16
855.99	227.22
856.30	227.73
856.61	227.68
856.92	227.65
857.23	227.61
857.55	227.54
857.86	227.40
858.17	227.45
858.48	227.39
858.79	227.22
859.11	227.25
859.42	227.15
859.73	227.06
860.04	227.03
860.35	226.89
860.66	226.74
860.98	226.67
861.29	226.69
861.60	226.65
861.91	226.80
862.22	226.74
862.53	226.65
862.84	226.11
863.16	226.26
863.47	226.18
863.78	226.15
864.09	226.22
864.40	226.25
864.71	226.19
865.02	226.24
865.33	226.20
865.64	226.14
865.95	226.20
866.27	226.54
866.58	226.46
866.89	226.50
867.20	226.55
867.51	226.44
867.82	226.39
868.13	226.57
868.44	226.43
868.75	226.54
869.06	226.60
869.37	226.59
869.68	226.41
869.99	226.50
870.30	226.57
870.61	226.54
870.92	226.45
871.23	226.47
871.54	226.53
871.85	226.72
872.16	226.78
872.47	226.76
872.78	226.54
873.09	226.61
873.40	226.65
873.71	226.66
874.02	226.75
874.33	226.71
874.64	226.59
874.95	226.74
875.26	226.67
875.56	226.64
875.87	226.67
876.18	226.77
876.49	227.29
876.80	227.19
877.11	227.19
877.42	227.25
877.73	227.25
878.04	227.20
878.35	227.08
878.66	227.08
878.96	227.08
879.27	227.06
879.58	227.06
879.89	227.04
880.20	227.19
880.51	227.21
880.82	227.26
881.12	227.28
881.43	227.23
881.74	227.16
882.05	227.15
882.36	227.14
882.67	227.17
882.97	226.59
883.28	226.57
883.59	226.53
883.90	226.59
884.21	226.66
884.51	226.60
884.82	226.61
885.13	226.62
885.44	226.60
885.74	226.55
886.05	226.52
886.36	226.54
886.67	226.34
886.98	226.61
887.28	226.64
887.59	226.65
887.90	226.63
888.20	226.72
888.51	226.81
888.82	226.75
889.13	226.70
889.43	227.14
889.74	227.09
890.05	227.03
890.35	227.00
890.66	226.91
890.97	226.85
891.28	226.76
891.58	226.69
891.89	226.66
892.20	226.61
892.50	226.58
892.81	226.50
893.12	226.56
893.42	226.30
893.73	226.31
894.04	226.27
894.34	226.26
894.65	226.09
894.95	225.91
895.26	226.01
895.57	226.20
895.87	225.71
896.18	225.83
896.48	225.93
896.79	225.91
897.10	225.94
897.40	225.95
897.71	225.99
898.01	225.99
898.32	225.99
898.63	226.00
898.93	225.96
899.24	225.95
899.54	225.81
899.85	225.72
900.15	225.63
900.46	225.58
900.76	225.65
901.07	225.70
901.38	225.78
901.68	225.70
901.99	225.45
902.29	225.47
902.60	225.38
902.90	225.27
903.21	225.23
903.51	225.13
903.82	225.24
904.12	225.29
904.43	225.30
904.73	225.30
905.03	225.32
905.34	225.76
905.64	225.73
905.95	225.75
906.25	225.74
906.56	225.77
906.86	225.77
907.17	225.67
907.47	225.65
907.77	225.60
908.08	225.55
908.38	225.58
908.69	225.60
908.99	225.75
909.30	225.83
909.60	225.81
909.90	225.92
910.21	225.84
910.51	225.73
910.81	225.75
911.12	225.76
911.42	225.75
911.73	225.31
912.03	225.40
912.33	225.51
912.64	225.59
912.94	225.50
913.24	225.46
913.55	225.44
913.85	225.55
914.15	225.67
914.46	225.76
914.76	225.79
915.06	225.77
915.37	225.69
915.67	225.67
915.97	225.69
916.27	225.58
916.58	225.59
916.88	225.57
917.18	225.56
917.49	225.85
917.79	225.93
918.09	226.08
918.39	226.15
918.70	226.14
919.00	226.16
919.30	226.49
919.60	226.51
919.91	226.50
920.21	226.54
920.51	226.41
920.81	226.35
921.12	226.40
921.42	226.45
921.72	226.50
922.02	226.55
922.32	226.62
922.63	226.68
922.93	226.96
923.23	227.04
923.53	227.02
923.83	226.79
924.13	226.77
924.44	226.76
924.74	226.97
925.04	227.02
925.34	227.05
925.64	226.75
925.94	226.70
926.24	227.04
926.55	226.95
926.85	227.08
927.15	227.09
927.45	227.12
927.75	227.14
928.05	227.14
928.35	227.10
928.65	227.21
928.95	227.27
929.26	227.02
929.56	227.08
929.86	227.14
930.16	227.11
930.46	227.07
930.76	227.05
931.06	226.74
931.36	226.66
931.66	226.69
931.96	226.81
932.26	226.92
932.56	226.64
932.86	226.66
933.16	226.66
933.46	226.66
933.76	226.55
934.06	226.58
934.36	226.73
934.66	226.74
934.96	226.65
935.26	226.64
935.56	226.67
935.86	226.50
936.16	226.42
936.46	226.39
936.76	226.35
937.06	226.24
937.36	226.28
937.66	226.28
937.96	226.20
938.26	226.07
938.56	225.98
938.86	225.94
939.16	226.00
939.46	225.95
939.76	226.04
940.06	226.02
940.35	225.93
940.65	225.69
940.95	225.71
941.25	225.59
941.55	225.50
941.85	225.49
942.15	225.68
942.45	225.75
942.75	225.73
943.04	225.80
943.34	225.93
943.64	225.86
943.94	225.82
944.24	225.87
944.54	225.90
944.84	225.92
945.13	225.95
945.43	225.90
945.73	225.90
946.03	225.78
946.33	225.77
946.62	225.73
946.92	225.74
947.22	225.65
947.52	225.73
947.82	225.84
948.11	225.85
948.41	225.80
948.71	225.75
949.01	225.75
949.31	225.72
949.60	225.65
949.90	225.78
950.20	225.78
950.50	225.80
950.79	225.85
951.09	225.93
951.39	225.96
951.69	225.90
951.98	225.98
952.28	226.03
952.58	225.98
952.87	225.99
953.17	226.07
953.47	226.13
953.76	226.15
954.06	226.08
954.36	225.99
954.66	225.92
954.95	226.02
955.25	226.08
955.55	226.10
955.84	226.07
956.14	226.13
956.44	226.15
956.73	226.09
957.03	226.14
957.32	226.18
957.62	226.12
957.92	226.19
958.21	226.20
958.51	226.75
958.81	226.89
959.10	226.97
959.40	227.05
959.69	227.09
959.99	227.17
960.29	227.20
960.58	227.26
960.88	227.53
961.17	227.54
961.47	227.62
961.76	227.59
962.06	227.66
962.36	227.60
962.65	227.60
962.95	227.61
963.24	227.58
963.54	227.58
963.83	227.65
964.13	227.69
964.42	227.46
964.72	227.12
965.01	227.04
965.31	226.99
965.60	226.94
965.90	227.21
966.19	227.05
966.49	227.09
966.78	227.10
967.08	227.00
967.37	226.93
967.67	226.79
967.96	226.86
968.26	226.90
968.55	226.92
968.85	226.95
969.14	226.90
969.43	226.86
969.73	226.78
970.02	226.74
970.32	226.75
970.61	226.82
970.91	226.67
971.20	226.60
971.49	226.55
971.79	226.59
972.08	226.31
972.38	226.39
972.67	226.35
972.96	226.38
973.26	226.25
973.55	226.40
973.85	226.38
974.14	226.32
974.43	226.28
974.73	226.19
975.02	226.12
975.31	226.16
975.61	226.15
975.90	226.14
976.19	226.05
976.49	226.04
976.78	226.04
977.07	225.99
977.37	226.02
977.66	226.04
977.95	225.94
978.24	225.92
978.54	225.98
978.83	225.88
979.12	225.82
979.42	225.76
979.71	225.67
980.00	225.65
980.29	225.65
980.59	225.52
980.88	225.62
981.17	225.57
981.46	225.55
981.76	225.53
982.05	225.67
982.34	225.78
982.63	225.74
982.93	225.77
983.22	225.89
983.51	225.95
983.80	226.08
984.09	226.07
984.39	226.01
984.68	225.98
984.97	226.06
985.26	226.04
985.55	226.19
985.85	226.08
986.14	226.13
986.43	226.20
986.72	226.21
987.01	226.08
987.30	226.15
987.59	226.11
987.89	226.09
988.18	225.86
988.47	225.80
988.76	225.76
989.05	225.68
989.34	225.66
989.63	225.75
989.92	225.67
990.22	225.63
990.51	225.64
990.80	225.57
991.09	225.55
991.38	225.59
991.67	225.48
991.96	225.44
992.25	225.44
992.54	225.38
992.83	225.45
993.12	225.40
993.41	225.49
993.70	225.73
993.99	225.86
994.28	226.05
994.58	226.22
994.87	226.19
995.16	226.31
995.45	226.22
995.74	226.05
996.03	226.15
996.32	226.24
996.61	226.32
996.90	226.25
997.19	226.25
997.48	226.22
997.77	226.24
998.06	226.30
998.34	226.34
998.63	226.35
998.92	226.36
999.21	226.49
999.50	226.45
999.79	226.25
1000.08	226.21
1000.37	226.15
1000.66	226.00
1000.95	226.11
1001.24	226.01
1001.53	226.14
1001.82	226.24
1002.11	226.10
1002.40	226.12
1002.68	226.30
1002.97	226.71
1003.26	226.68
1003.55	226.66
1003.84	226.67
1004.13	226.86
1004.42	226.82
1004.71	226.79
1004.99	226.72
1005.28	226.85
1005.57	226.85
1005.86	226.76
1006.15	226.73
1006.44	226.61
1006.72	226.66
1007.01	226.57
1007.30	226.58
1007.59	226.48
1007.88	226.44
1008.17	226.46
1008.45	226.34
1008.74	226.10
1009.03	225.85
1009.32	225.77
1009.60	225.77
1009.89	225.72
1010.18	225.45
1010.47	225.43
1010.76	225.46
1011.04	225.51
1011.33	225.45
1011.62	225.43
1011.91	225.50
1012.19	225.51
1012.48	225.54
1012.77	225.55
1013.05	225.75
1013.34	225.75
1013.63	225.72
1013.92	225.69
1014.20	225.60
1014.49	225.72
1014.78	225.71
1015.06	225.66
1015.35	225.72
1015.64	225.84
1015.92	225.91
1016.21	225.94
1016.50	225.85
1016.78	225.81
1017.07	225.78
1017.36	225.62
1017.64	225.59
1017.93	225.59
1018.22	225.56
1018.50	225.57
1018.79	225.56
1019.08	225.38
1019.36	225.37
1019.65	225.34
1019.93	225.52
1020.22	225.65
1020.51	225.86
1020.79	225.80
1021.08	225.50
1021.36	224.60
1021.65	226.55
1021.94	225.80
1022.22	224.90
1022.51	224.65
1022.79	228.85
1023.08	226.65
1023.36	231.70
1023.65	224.20
>>>>>End Processed Spectral Data<<<<<
