SpectraSuite Data File
++++++++++++++++++++++++++++++++++++
Date: Wed Sep 04 17:40:16 EDT 2013
User: lab3
Dark Spectrum Present: Yes
Reference Spectrum Present: No
Number of Sampled Component Spectra: 1
Spectrometers: USB2E7196
Integration Time (usec): 170000 (USB2E7196)
Spectra Averaged: 20 (USB2E7196)
Boxcar Smoothing: 10 (USB2E7196)
Correct for Electrical Dark: No (USB2E7196)
Strobe/Lamp Enabled: No (USB2E7196)
Correct for Detector Non-linearity: No (USB2E7196)
Correct for Stray Light: No (USB2E7196)
Number of Pixels in Processed Spectrum: 2048
>>>>>Begin Processed Spectral Data<<<<<
339.09	0.00
339.48	212.80
339.86	214.35
340.24	214.60
340.63	215.75
341.01	224.95
341.39	219.85
341.78	221.40
342.16	223.40
342.54	223.05
342.93	211.72
343.31	222.39
343.69	222.94
344.07	223.35
344.46	223.88
344.84	224.34
345.22	224.31
345.60	224.59
345.99	224.72
346.37	224.80
346.75	224.88
347.13	224.92
347.52	225.02
347.90	225.15
348.28	225.14
348.66	225.27
349.05	225.18
349.43	225.32
349.81	225.36
350.19	225.50
350.57	225.54
350.96	225.56
351.34	225.70
351.72	225.80
352.10	225.93
352.48	225.94
352.87	225.95
353.25	226.07
353.63	226.04
354.01	226.09
354.39	226.14
354.77	226.18
355.15	226.41
355.54	226.40
355.92	226.33
356.30	226.37
356.68	226.72
357.06	226.75
357.44	226.70
357.82	226.75
358.20	227.10
358.58	227.16
358.97	227.34
359.35	227.44
359.73	227.52
360.11	227.54
360.49	227.62
360.87	227.72
361.25	227.79
361.63	228.04
362.01	228.14
362.39	228.15
362.77	228.25
363.15	228.17
363.53	228.18
363.91	228.30
364.29	228.43
364.67	228.03
365.05	228.03
365.43	228.15
365.81	228.28
366.19	228.19
366.57	228.42
366.95	228.41
367.33	228.38
367.71	228.40
368.09	228.56
368.47	228.53
368.85	228.53
369.23	228.56
369.61	228.42
369.99	228.58
370.37	228.61
370.75	228.86
371.13	228.77
371.51	228.76
371.89	228.79
372.27	228.65
372.65	228.65
373.03	228.65
373.41	228.56
373.78	228.45
374.16	228.15
374.54	227.97
374.92	227.85
375.30	227.77
375.68	227.63
376.06	227.61
376.44	227.52
376.82	227.47
377.19	227.41
377.57	227.38
377.95	227.12
378.33	227.12
378.71	226.74
379.09	226.80
379.47	226.83
379.84	226.65
380.22	226.60
380.60	226.49
380.98	226.48
381.36	226.35
381.73	226.18
382.11	226.24
382.49	226.15
382.87	226.05
383.25	226.00
383.62	226.45
384.00	226.24
384.38	226.26
384.76	226.31
385.13	226.40
385.51	226.30
385.89	226.27
386.27	226.20
386.64	226.30
387.02	226.21
387.40	226.15
387.78	226.14
388.15	226.05
388.53	226.03
388.91	226.00
389.29	225.92
389.66	226.05
390.04	226.01
390.42	226.07
390.79	226.09
391.17	226.07
391.55	225.53
391.92	225.50
392.30	225.48
392.68	225.38
393.05	225.37
393.43	225.40
393.81	225.40
394.18	225.36
394.56	225.32
394.94	225.40
395.31	225.29
395.69	225.46
396.06	225.63
396.44	225.64
396.82	225.59
397.19	225.93
397.57	225.90
397.95	225.91
398.32	225.86
398.70	225.99
399.07	226.18
399.45	226.27
399.82	226.40
400.20	226.46
400.58	226.50
400.95	226.31
401.33	226.48
401.70	226.96
402.08	227.07
402.45	227.18
402.83	227.43
403.20	227.66
403.58	227.68
403.95	227.87
404.33	228.10
404.71	228.33
405.08	228.73
405.46	228.97
405.83	229.29
406.21	229.52
406.58	229.74
406.96	229.90
407.33	230.19
407.70	230.53
408.08	231.21
408.45	231.63
408.83	232.14
409.20	232.47
409.58	232.52
409.95	233.03
410.33	233.50
410.70	233.85
411.08	234.29
411.45	234.78
411.82	235.24
412.20	235.91
412.57	236.80
412.95	237.02
413.32	237.80
413.69	238.41
414.07	239.23
414.44	240.07
414.82	240.94
415.19	242.03
415.56	243.07
415.94	243.79
416.31	244.98
416.68	246.23
417.06	247.59
417.43	248.96
417.81	250.38
418.18	251.93
418.55	253.43
418.93	255.17
419.30	256.93
419.67	258.85
420.04	260.71
420.42	262.58
420.79	265.14
421.16	267.35
421.54	269.92
421.91	272.38
422.28	275.00
422.66	277.76
423.03	280.65
423.40	283.31
423.77	286.26
424.15	289.23
424.52	292.39
424.89	295.90
425.26	299.20
425.64	302.31
426.01	305.75
426.38	309.47
426.75	313.42
427.13	317.22
427.50	321.08
427.87	325.14
428.24	329.19
428.61	332.92
428.99	337.47
429.36	341.94
429.73	346.46
430.10	350.88
430.47	355.54
430.85	360.17
431.22	365.38
431.59	371.16
431.96	376.43
432.33	382.05
432.70	387.49
433.08	393.90
433.45	400.04
433.82	406.17
434.19	412.98
434.56	419.62
434.93	426.08
435.30	432.55
435.68	439.65
436.05	446.76
436.42	453.64
436.79	459.97
437.16	466.95
437.53	474.21
437.90	481.51
438.27	488.67
438.64	496.02
439.01	502.88
439.38	508.65
439.75	514.48
440.13	521.17
440.50	527.35
440.87	532.46
441.24	537.76
441.61	543.65
441.98	547.83
442.35	552.60
442.72	557.70
443.09	562.61
443.46	565.44
443.83	567.20
444.20	569.01
444.57	571.23
444.94	572.21
445.31	573.25
445.68	574.60
446.05	574.75
446.42	573.64
446.79	572.51
447.16	571.31
447.53	570.28
447.90	567.34
448.27	564.49
448.64	560.53
449.01	557.62
449.37	552.42
449.74	547.57
450.11	542.09
450.48	535.67
450.85	529.06
451.22	523.43
451.59	518.22
451.96	512.95
452.33	506.21
452.70	500.16
453.07	492.96
453.43	485.34
453.80	478.51
454.17	471.97
454.54	465.58
454.91	458.87
455.28	452.33
455.65	446.17
456.02	440.57
456.38	435.39
456.75	429.05
457.12	423.77
457.49	418.50
457.86	413.14
458.23	408.91
458.59	404.30
458.96	399.66
459.33	395.25
459.70	391.06
460.07	387.84
460.43	383.94
460.80	380.42
461.17	377.34
461.54	374.00
461.91	370.89
462.27	367.88
462.64	365.15
463.01	362.30
463.38	359.62
463.74	356.19
464.11	353.74
464.48	351.47
464.85	349.10
465.21	347.36
465.58	345.41
465.95	342.94
466.32	341.05
466.68	339.19
467.05	337.44
467.42	335.65
467.78	333.78
468.15	332.02
468.52	330.79
468.88	328.93
469.25	327.42
469.62	326.20
469.98	324.81
470.35	323.61
470.72	322.35
471.08	320.94
471.45	319.98
471.82	318.91
472.18	317.76
472.55	316.97
472.92	315.80
473.28	314.98
473.65	314.18
474.02	313.35
474.38	312.56
474.75	312.03
475.11	311.26
475.48	310.72
475.85	310.19
476.21	309.67
476.58	309.36
476.94	309.04
477.31	308.64
477.67	308.28
478.04	308.00
478.41	307.95
478.77	308.30
479.14	308.06
479.50	308.10
479.87	308.20
480.23	308.26
480.60	308.43
480.96	308.45
481.33	308.84
481.69	309.07
482.06	309.37
482.42	309.65
482.79	310.08
483.15	310.43
483.52	311.07
483.88	311.47
484.25	311.97
484.61	312.58
484.98	313.25
485.34	314.10
485.71	314.98
486.07	315.84
486.44	316.41
486.80	317.46
487.17	318.52
487.53	319.82
487.90	321.10
488.26	322.55
488.62	324.16
488.99	325.51
489.35	327.09
489.72	328.81
490.08	330.61
490.44	332.45
490.81	334.56
491.17	336.49
491.54	338.79
491.90	341.14
492.26	343.65
492.63	346.18
492.99	348.81
493.36	351.60
493.72	354.75
494.08	357.84
494.45	361.30
494.81	364.77
495.17	368.15
495.54	371.95
495.90	375.84
496.26	379.83
496.63	384.09
496.99	388.42
497.35	393.03
497.72	397.79
498.08	402.72
498.44	407.78
498.80	413.31
499.17	418.83
499.53	424.62
499.89	430.44
500.26	436.51
500.62	442.88
500.98	449.55
501.34	456.05
501.71	462.99
502.07	469.92
502.43	477.09
502.79	484.62
503.16	492.28
503.52	500.27
503.88	508.38
504.24	516.91
504.60	525.73
504.97	534.77
505.33	543.80
505.69	553.52
506.05	563.28
506.41	572.97
506.78	583.00
507.14	593.35
507.50	604.05
507.86	615.20
508.22	626.26
508.59	637.38
508.95	649.18
509.31	661.11
509.67	673.36
510.03	685.71
510.39	698.12
510.75	710.99
511.12	723.86
511.48	737.04
511.84	750.20
512.20	763.62
512.56	777.34
512.92	791.53
513.28	805.51
513.64	819.79
514.00	834.50
514.37	849.30
514.73	864.45
515.09	879.55
515.45	894.46
515.81	909.61
516.17	925.16
516.53	940.34
516.89	955.75
517.25	971.50
517.61	987.80
517.97	1004.38
518.33	1020.68
518.69	1037.13
519.05	1053.60
519.41	1069.96
519.77	1086.91
520.13	1103.46
520.49	1119.72
520.85	1137.57
521.21	1154.64
521.57	1171.25
521.93	1187.54
522.29	1204.08
522.65	1220.15
523.01	1236.39
523.37	1252.52
523.73	1268.81
524.09	1284.62
524.45	1300.20
524.81	1315.96
525.17	1331.87
525.53	1347.31
525.89	1363.17
526.25	1378.92
526.61	1394.21
526.97	1410.24
527.33	1425.98
527.68	1442.27
528.04	1458.35
528.40	1472.80
528.76	1488.14
529.12	1503.02
529.48	1518.44
529.84	1532.97
530.20	1548.43
530.56	1563.84
530.91	1579.26
531.27	1593.69
531.63	1608.61
531.99	1623.61
532.35	1637.87
532.71	1651.98
533.07	1666.67
533.42	1680.42
533.78	1694.27
534.14	1708.30
534.50	1721.49
534.86	1734.51
535.21	1746.12
535.57	1758.44
535.93	1770.33
536.29	1781.94
536.65	1794.35
537.00	1805.75
537.36	1817.40
537.72	1828.13
538.08	1839.02
538.44	1849.40
538.79	1860.13
539.15	1870.66
539.51	1880.99
539.87	1890.61
540.22	1899.25
540.58	1907.82
540.94	1915.80
541.29	1923.17
541.65	1930.31
542.01	1937.74
542.37	1943.55
542.72	1949.71
543.08	1955.19
543.44	1961.20
543.79	1966.47
544.15	1971.56
544.51	1976.90
544.87	1981.55
545.22	1985.45
545.58	1988.84
545.94	1991.70
546.29	1994.25
546.65	1996.34
547.01	1997.93
547.36	1999.52
547.72	2001.08
548.07	2002.01
548.43	2002.99
548.79	2003.90
549.14	2004.15
549.50	2004.10
549.86	2004.61
550.21	2004.92
550.57	2005.08
550.92	2003.66
551.28	2002.31
551.64	2001.50
551.99	2000.11
552.35	1998.76
552.70	1997.96
553.06	1996.93
553.41	1995.71
553.77	1994.57
554.13	1993.60
554.48	1992.34
554.84	1990.94
555.19	1989.44
555.55	1988.15
555.90	1985.68
556.26	1982.84
556.61	1979.82
556.97	1976.25
557.32	1973.30
557.68	1970.45
558.03	1967.27
558.39	1964.42
558.74	1961.48
559.10	1956.88
559.45	1952.53
559.81	1947.23
560.16	1941.60
560.52	1935.94
560.87	1930.71
561.23	1924.52
561.58	1918.45
561.94	1911.54
562.29	1904.27
562.64	1897.71
563.00	1889.80
563.35	1883.51
563.71	1877.01
564.06	1870.82
564.42	1864.55
564.77	1858.21
565.12	1850.99
565.48	1844.27
565.83	1837.26
566.19	1829.93
566.54	1822.85
566.89	1815.46
567.25	1808.91
567.60	1802.41
567.96	1796.08
568.31	1789.09
568.66	1782.10
569.02	1774.19
569.37	1766.97
569.72	1760.85
570.08	1752.80
570.43	1744.86
570.78	1737.18
571.14	1729.29
571.49	1720.89
571.84	1712.84
572.20	1704.00
572.55	1696.09
572.90	1687.35
573.26	1679.17
573.61	1670.57
573.96	1661.82
574.31	1652.80
574.67	1643.47
575.02	1633.78
575.37	1623.59
575.72	1613.50
576.08	1604.31
576.43	1594.77
576.78	1585.01
577.13	1574.53
577.49	1565.07
577.84	1556.32
578.19	1547.10
578.54	1537.87
578.90	1529.03
579.25	1519.81
579.60	1510.62
579.95	1500.98
580.30	1491.09
580.66	1480.80
581.01	1470.72
581.36	1460.59
581.71	1450.95
582.06	1441.33
582.42	1432.09
582.77	1422.95
583.12	1414.12
583.47	1404.65
583.82	1395.88
584.17	1386.98
584.53	1378.49
584.88	1369.08
585.23	1359.36
585.58	1349.02
585.93	1339.36
586.28	1329.76
586.63	1319.82
586.98	1309.57
587.34	1300.01
587.69	1290.41
588.04	1281.40
588.39	1273.07
588.74	1264.42
589.09	1255.87
589.44	1246.96
589.79	1238.23
590.14	1229.81
590.49	1221.29
590.84	1212.80
591.19	1204.21
591.54	1195.77
591.89	1187.20
592.25	1180.00
592.60	1172.13
592.95	1164.26
593.30	1155.98
593.65	1147.53
594.00	1139.41
594.35	1133.20
594.70	1124.78
595.05	1117.21
595.40	1109.00
595.75	1100.75
596.10	1092.92
596.45	1085.12
596.80	1077.80
597.15	1070.01
597.50	1061.86
597.85	1054.36
598.19	1046.25
598.54	1038.44
598.89	1030.71
599.24	1023.40
599.59	1015.45
599.94	1008.15
600.29	1001.10
600.64	994.06
600.99	986.96
601.34	980.18
601.69	972.17
602.04	965.79
602.39	958.80
602.74	952.65
603.08	946.10
603.43	940.09
603.78	933.68
604.13	927.04
604.48	920.55
604.83	913.99
605.18	907.04
605.53	900.75
605.87	894.55
606.22	888.69
606.57	882.19
606.92	875.81
607.27	869.51
607.62	863.69
607.96	857.99
608.31	852.78
608.66	847.19
609.01	841.33
609.36	835.46
609.70	829.86
610.05	824.00
610.40	818.37
610.75	812.25
611.10	806.60
611.44	800.70
611.79	795.17
612.14	789.77
612.49	784.34
612.83	779.45
613.18	774.02
613.53	768.74
613.88	763.47
614.22	758.26
614.57	752.98
614.92	747.63
615.27	742.43
615.61	737.04
615.96	731.77
616.31	726.74
616.65	722.09
617.00	717.12
617.35	712.09
617.70	707.08
618.04	702.21
618.39	697.50
618.74	693.16
619.08	688.52
619.43	683.82
619.78	679.15
620.12	674.22
620.47	669.73
620.82	664.99
621.16	660.37
621.51	656.16
621.85	651.98
622.20	647.60
622.55	643.18
622.89	638.85
623.24	634.64
623.59	630.25
623.93	626.03
624.28	622.01
624.62	618.42
624.97	614.72
625.32	610.91
625.66	606.78
626.01	602.70
626.35	598.90
626.70	595.17
627.04	591.62
627.39	587.80
627.73	584.20
628.08	580.67
628.43	577.06
628.77	573.22
629.12	569.64
629.46	566.38
629.81	563.33
630.15	560.12
630.50	556.85
630.84	553.68
631.19	550.22
631.53	547.00
631.88	543.34
632.22	539.90
632.57	536.94
632.91	533.84
633.26	530.93
633.60	527.67
633.95	524.54
634.29	521.37
634.64	518.50
634.98	515.27
635.32	512.34
635.67	509.73
636.01	506.98
636.36	503.97
636.70	501.29
637.05	498.25
637.39	495.35
637.73	492.59
638.08	489.71
638.42	486.85
638.77	483.99
639.11	481.06
639.45	478.10
639.80	475.04
640.14	472.26
640.49	469.43
640.83	466.93
641.17	464.44
641.52	461.87
641.86	459.35
642.20	457.30
642.55	454.73
642.89	452.00
643.23	449.43
643.58	447.35
643.92	444.53
644.26	442.29
644.61	439.97
644.95	437.60
645.29	435.33
645.64	433.28
645.98	431.10
646.32	429.27
646.66	427.16
647.01	425.04
647.35	423.12
647.69	421.11
648.04	419.13
648.38	417.12
648.72	415.16
649.06	413.00
649.41	410.66
649.75	408.70
650.09	406.91
650.43	405.06
650.78	402.94
651.12	401.05
651.46	399.01
651.80	397.24
652.14	395.35
652.49	393.74
652.83	391.89
653.17	390.16
653.51	388.13
653.85	386.45
654.20	384.79
654.54	382.89
654.88	381.09
655.22	379.65
655.56	378.00
655.90	376.55
656.25	375.05
656.59	373.55
656.93	372.07
657.27	370.62
657.61	368.85
657.95	367.33
658.29	365.87
658.64	364.48
658.98	362.84
659.32	361.25
659.66	359.67
660.00	358.25
660.34	356.80
660.68	355.44
661.02	354.03
661.36	352.61
661.70	351.20
662.05	349.85
662.39	348.42
662.73	347.17
663.07	346.04
663.41	344.83
663.75	343.58
664.09	342.36
664.43	341.00
664.77	339.96
665.11	338.74
665.45	337.51
665.79	336.33
666.13	335.19
666.47	334.08
666.81	332.87
667.15	331.57
667.49	330.40
667.83	329.51
668.17	328.53
668.51	327.45
668.85	326.56
669.19	325.88
669.53	324.72
669.87	323.61
670.21	322.38
670.55	321.38
670.89	320.52
671.23	319.49
671.57	318.51
671.91	317.57
672.25	316.73
672.58	315.94
672.92	314.82
673.26	314.00
673.60	313.23
673.94	312.42
674.28	311.65
674.62	310.93
674.96	310.00
675.30	309.11
675.64	308.40
675.97	307.54
676.31	306.44
676.65	305.67
676.99	305.03
677.33	304.13
677.67	303.34
678.01	302.43
678.34	301.69
678.68	301.04
679.02	300.27
679.36	299.45
679.70	298.66
680.04	298.05
680.37	297.37
680.71	296.55
681.05	295.89
681.39	295.32
681.73	294.56
682.06	293.79
682.40	293.13
682.74	292.54
683.08	292.15
683.42	291.52
683.75	290.88
684.09	290.15
684.43	289.68
684.77	289.05
685.10	288.39
685.44	287.77
685.78	287.13
686.12	286.59
686.45	286.09
686.79	285.48
687.13	285.06
687.46	284.50
687.80	284.21
688.14	283.64
688.48	283.00
688.81	282.53
689.15	282.09
689.49	281.57
689.82	281.01
690.16	280.20
690.50	279.72
690.83	279.17
691.17	278.58
691.51	278.04
691.84	277.60
692.18	277.14
692.52	276.65
692.85	276.25
693.19	275.92
693.52	275.41
693.86	274.95
694.20	274.35
694.53	273.84
694.87	273.25
695.21	272.76
695.54	272.36
695.88	271.78
696.21	271.22
696.55	270.80
696.88	270.32
697.22	269.86
697.56	269.53
697.89	269.10
698.23	268.86
698.56	268.33
698.90	267.98
699.23	267.53
699.57	267.22
699.90	266.69
700.24	266.18
700.58	265.85
700.91	265.58
701.25	265.64
701.58	265.63
701.92	265.34
702.25	265.00
702.59	264.63
702.92	264.42
703.26	264.16
703.59	263.83
703.93	263.98
704.26	263.80
704.60	263.43
704.93	263.14
705.26	262.73
705.60	262.60
705.93	262.15
706.27	262.08
706.60	261.78
706.94	261.69
707.27	261.33
707.61	261.02
707.94	260.69
708.27	259.97
708.61	259.38
708.94	259.10
709.28	258.87
709.61	258.54
709.94	258.27
710.28	257.96
710.61	257.68
710.95	256.89
711.28	256.86
711.61	256.61
711.95	256.50
712.28	256.09
712.61	255.67
712.95	255.71
713.28	255.56
713.61	255.22
713.95	254.76
714.28	254.57
714.61	254.27
714.95	254.02
715.28	253.76
715.61	253.41
715.95	253.14
716.28	252.80
716.61	252.55
716.95	252.26
717.28	251.96
717.61	251.69
717.94	251.49
718.28	250.91
718.61	250.62
718.94	250.25
719.27	250.11
719.61	249.94
719.94	249.63
720.27	249.18
720.60	248.96
720.94	248.75
721.27	248.62
721.60	248.51
721.93	248.28
722.27	248.24
722.60	248.15
722.93	247.93
723.26	247.84
723.59	247.70
723.93	247.46
724.26	247.36
724.59	247.23
724.92	247.07
725.25	247.00
725.59	246.82
725.92	246.68
726.25	246.49
726.58	246.35
726.91	246.14
727.24	246.01
727.57	245.83
727.91	245.60
728.24	245.40
728.57	245.13
728.90	245.08
729.23	244.73
729.56	244.77
729.89	244.63
730.22	244.35
730.55	244.17
730.89	244.08
731.22	243.83
731.55	243.57
731.88	243.46
732.21	243.25
732.54	243.01
732.87	242.85
733.20	242.78
733.53	242.68
733.86	242.53
734.19	242.35
734.52	242.26
734.85	242.49
735.18	242.23
735.51	242.24
735.84	242.07
736.17	242.10
736.50	241.75
736.83	242.15
737.16	242.07
737.49	241.94
737.82	241.72
738.15	241.61
738.48	241.55
738.81	241.32
739.14	241.12
739.47	241.01
739.80	240.88
740.13	240.78
740.46	240.54
740.79	240.30
741.12	240.16
741.45	239.98
741.78	239.61
742.11	239.67
742.44	239.38
742.77	239.32
743.10	239.10
743.43	238.90
743.75	238.19
744.08	238.72
744.41	238.56
744.74	238.49
745.07	238.35
745.40	238.25
745.73	238.36
746.06	238.29
746.39	238.23
746.71	238.04
747.04	237.83
747.37	237.68
747.70	237.67
748.03	237.58
748.36	237.60
748.68	237.50
749.01	237.20
749.34	237.14
749.67	236.95
750.00	236.94
750.33	237.19
750.65	237.16
750.98	236.40
751.31	236.37
751.64	236.28
751.97	236.45
752.29	236.36
752.62	236.00
752.95	235.95
753.28	235.86
753.60	235.85
753.93	235.89
754.26	235.87
754.59	235.63
754.91	235.52
755.24	235.37
755.57	235.21
755.90	235.11
756.22	234.98
756.55	234.95
756.88	234.70
757.20	234.35
757.53	234.15
757.86	234.06
758.19	233.95
758.51	233.84
758.84	233.54
759.17	233.43
759.49	233.41
759.82	233.53
760.15	233.46
760.47	233.29
760.80	233.07
761.13	233.05
761.45	233.01
761.78	232.90
762.11	232.89
762.43	232.77
762.76	232.74
763.08	232.82
763.41	232.77
763.74	232.72
764.06	232.62
764.39	232.56
764.71	232.51
765.04	232.44
765.37	232.38
765.69	232.36
766.02	232.34
766.34	232.31
766.67	232.02
767.00	232.08
767.32	232.40
767.65	232.67
767.97	232.67
768.30	232.63
768.62	232.63
768.95	232.45
769.27	232.44
769.60	232.50
769.92	232.27
770.25	232.13
770.57	232.08
770.90	232.08
771.22	232.01
771.55	232.00
771.87	231.99
772.20	231.89
772.52	232.21
772.85	232.74
773.17	232.70
773.50	232.64
773.82	232.44
774.15	232.09
774.47	231.76
774.80	231.61
775.12	231.63
775.45	231.54
775.77	231.57
776.09	231.58
776.42	231.50
776.74	231.70
777.07	231.64
777.39	231.59
777.72	231.51
778.04	231.54
778.36	231.45
778.69	231.35
779.01	231.39
779.33	230.89
779.66	230.29
779.98	230.17
780.31	230.20
780.63	230.43
780.95	230.49
781.28	230.41
781.60	230.42
781.92	230.32
782.25	230.29
782.57	230.22
782.89	230.13
783.22	230.07
783.54	229.94
783.86	229.91
784.19	229.88
784.51	229.95
784.83	229.84
785.16	229.76
785.48	229.78
785.80	229.78
786.12	229.83
786.45	229.79
786.77	229.83
787.09	229.78
787.42	229.47
787.74	229.35
788.06	229.31
788.38	229.20
788.71	229.20
789.03	229.18
789.35	229.26
789.67	229.14
789.99	229.08
790.32	228.94
790.64	228.92
790.96	229.27
791.28	229.08
791.61	229.06
791.93	229.10
792.25	229.09
792.57	229.35
792.89	229.22
793.21	229.18
793.54	229.12
793.86	229.07
794.18	229.12
794.50	229.10
794.82	229.13
795.14	229.14
795.47	229.10
795.79	229.13
796.11	228.99
796.43	228.97
796.75	228.96
797.07	229.03
797.39	229.03
797.71	228.70
798.04	228.75
798.36	228.75
798.68	228.68
799.00	228.68
799.32	228.46
799.64	228.56
799.96	228.52
800.28	228.59
800.60	228.52
800.92	228.51
801.24	228.54
801.56	228.50
801.89	228.46
802.21	228.52
802.53	228.39
802.85	228.43
803.17	228.70
803.49	228.60
803.81	228.57
804.13	228.57
804.45	228.54
804.77	228.57
805.09	228.55
805.41	228.51
805.73	228.46
806.05	228.30
806.37	228.26
806.69	228.24
807.01	228.20
807.33	228.22
807.65	228.15
807.97	228.30
808.28	228.26
808.60	228.28
808.92	228.25
809.24	228.62
809.56	228.60
809.88	228.38
810.20	228.44
810.52	228.44
810.84	228.36
811.16	228.22
811.48	228.18
811.80	228.34
812.12	228.36
812.43	228.43
812.75	228.44
813.07	228.40
813.39	228.44
813.71	228.37
814.03	228.36
814.35	228.31
814.67	228.11
814.98	228.06
815.30	228.07
815.62	227.97
815.94	227.61
816.26	227.81
816.58	227.75
816.89	227.80
817.21	227.74
817.53	227.73
817.85	227.79
818.17	227.76
818.48	227.54
818.80	227.53
819.12	227.44
819.44	227.38
819.76	227.30
820.07	227.25
820.39	227.20
820.71	227.23
821.03	227.29
821.34	227.29
821.66	227.37
821.98	227.34
822.30	227.29
822.61	227.58
822.93	227.31
823.25	227.25
823.57	227.21
823.88	227.23
824.20	227.20
824.52	227.28
824.83	227.25
825.15	227.30
825.47	227.29
825.79	227.31
826.10	227.34
826.42	227.36
826.74	227.40
827.05	227.39
827.37	227.36
827.69	227.30
828.00	227.29
828.32	227.32
828.64	227.26
828.95	227.58
829.27	227.43
829.58	227.44
829.90	227.47
830.22	227.46
830.53	227.35
830.85	227.28
831.17	227.17
831.48	227.17
831.80	227.15
832.11	227.20
832.43	227.13
832.75	227.13
833.06	227.40
833.38	227.26
833.69	227.28
834.01	227.29
834.32	227.37
834.64	227.33
834.96	227.22
835.27	227.29
835.59	227.00
835.90	226.92
836.22	226.92
836.53	226.90
836.85	226.87
837.16	227.41
837.48	227.52
837.79	227.64
838.11	227.60
838.42	227.60
838.74	227.58
839.05	227.56
839.37	227.51
839.68	227.14
840.00	227.21
840.31	227.22
840.63	227.14
840.94	226.99
841.26	226.95
841.57	226.94
841.88	226.94
842.20	226.88
842.51	226.79
842.83	226.78
843.14	227.15
843.46	227.19
843.77	226.94
844.08	226.82
844.40	226.67
844.71	226.62
845.03	226.54
845.34	226.51
845.65	226.45
845.97	226.41
846.28	226.46
846.60	226.45
846.91	226.39
847.22	226.39
847.54	226.50
847.85	226.47
848.16	226.48
848.48	226.38
848.79	226.61
849.10	226.62
849.42	226.59
849.73	226.24
850.04	226.17
850.36	225.91
850.67	225.97
850.98	225.94
851.30	226.03
851.61	226.06
851.92	226.06
852.23	226.16
852.55	226.13
852.86	226.19
853.17	226.23
853.49	226.34
853.80	226.45
854.11	226.47
854.42	226.57
854.74	226.50
855.05	226.55
855.36	226.37
855.67	226.41
855.99	226.40
856.30	226.94
856.61	226.88
856.92	226.91
857.23	226.92
857.55	226.85
857.86	226.82
858.17	226.88
858.48	226.82
858.79	226.76
859.11	226.85
859.42	226.79
859.73	226.72
860.04	226.71
860.35	226.59
860.66	226.45
860.98	226.43
861.29	226.50
861.60	226.46
861.91	226.55
862.22	226.59
862.53	226.52
862.84	225.99
863.16	226.16
863.47	226.01
863.78	225.98
864.09	226.17
864.40	226.12
864.71	226.11
865.02	226.13
865.33	226.10
865.64	226.03
865.95	226.09
866.27	226.44
866.58	226.40
866.89	226.48
867.20	226.55
867.51	226.48
867.82	226.43
868.13	226.55
868.44	226.38
868.75	226.40
869.06	226.43
869.37	226.41
869.68	226.28
869.99	226.44
870.30	226.50
870.61	226.44
870.92	226.40
871.23	226.32
871.54	226.44
871.85	226.55
872.16	226.57
872.47	226.50
872.78	226.16
873.09	226.15
873.40	226.06
873.71	226.03
874.02	226.14
874.33	226.16
874.64	226.09
874.95	226.21
875.26	226.10
875.56	226.12
875.87	226.13
876.18	226.04
876.49	226.55
876.80	226.48
877.11	226.43
877.42	226.50
877.73	226.58
878.04	226.43
878.35	226.45
878.66	226.49
878.96	226.48
879.27	226.52
879.58	226.53
879.89	226.48
880.20	226.60
880.51	226.46
880.82	226.38
881.12	226.36
881.43	226.29
881.74	226.29
882.05	226.30
882.36	226.32
882.67	226.43
882.97	225.92
883.28	225.88
883.59	225.82
883.90	225.92
884.21	225.99
884.51	226.05
884.82	225.95
885.13	225.95
885.44	225.96
885.74	225.96
886.05	225.89
886.36	225.96
886.67	225.85
886.98	226.10
887.28	226.17
887.59	226.21
887.90	226.20
888.20	226.13
888.51	226.24
888.82	226.21
889.13	226.18
889.43	226.52
889.74	226.52
890.05	226.54
890.35	226.38
890.66	226.22
890.97	226.11
891.28	226.09
891.58	226.11
891.89	226.15
892.20	226.02
892.50	226.04
892.81	226.05
893.12	225.95
893.42	225.68
893.73	225.66
894.04	225.61
894.34	225.65
894.65	225.63
894.95	225.57
895.26	225.59
895.57	225.87
895.87	225.45
896.18	225.54
896.48	225.68
896.79	225.72
897.10	225.88
897.40	225.92
897.71	225.99
898.01	225.98
898.32	226.02
898.63	226.07
898.93	226.10
899.24	226.15
899.54	226.25
899.85	226.31
900.15	226.35
900.46	226.38
900.76	226.40
901.07	226.38
901.38	226.29
901.68	226.30
901.99	226.00
902.29	226.05
902.60	226.06
902.90	225.93
903.21	225.91
903.51	225.82
903.82	225.97
904.12	226.01
904.43	226.04
904.73	225.99
905.03	226.05
905.34	226.49
905.64	226.33
905.95	226.24
906.25	226.24
906.56	226.25
906.86	226.21
907.17	226.17
907.47	226.26
907.77	226.26
908.08	226.14
908.38	226.21
908.69	226.24
908.99	226.25
909.30	226.31
909.60	226.31
909.90	226.35
910.21	226.12
910.51	225.97
910.81	225.92
911.12	225.88
911.42	225.87
911.73	225.32
912.03	225.40
912.33	225.59
912.64	225.56
912.94	225.43
913.24	225.37
913.55	225.40
913.85	225.39
914.15	225.42
914.46	225.53
914.76	225.50
915.06	225.51
915.37	225.39
915.67	225.35
915.97	225.37
916.27	225.29
916.58	225.38
916.88	225.43
917.18	225.33
917.49	225.73
917.79	225.72
918.09	225.82
918.39	225.93
918.70	225.81
919.00	225.81
919.30	226.09
919.60	226.08
919.91	225.98
920.21	225.91
920.51	225.88
920.81	225.81
921.12	225.90
921.42	225.83
921.72	225.86
922.02	225.95
922.32	226.04
922.63	226.09
922.93	226.35
923.23	226.39
923.53	226.45
923.83	226.13
924.13	226.21
924.44	226.25
924.74	226.32
925.04	226.50
925.34	226.50
925.64	226.32
925.94	226.32
926.24	226.61
926.55	226.64
926.85	226.68
927.15	226.80
927.45	226.80
927.75	226.81
928.05	226.86
928.35	226.81
928.65	226.86
928.95	226.90
929.26	226.73
929.56	226.72
929.86	226.78
930.16	226.73
930.46	226.65
930.76	226.61
931.06	226.35
931.36	226.18
931.66	226.28
931.96	226.32
932.26	226.40
932.56	226.24
932.86	226.24
933.16	226.27
933.46	226.11
933.76	226.05
934.06	226.17
934.36	226.34
934.66	226.23
934.96	226.15
935.26	226.09
935.56	226.09
935.86	226.02
936.16	225.96
936.46	225.99
936.76	225.94
937.06	225.87
937.36	226.01
937.66	226.00
937.96	225.93
938.26	225.85
938.56	225.77
938.86	225.76
939.16	225.92
939.46	225.97
939.76	226.05
940.06	225.98
940.35	225.87
940.65	225.66
940.95	225.77
941.25	225.67
941.55	225.66
941.85	225.71
942.15	225.82
942.45	225.92
942.75	225.84
943.04	225.85
943.34	226.00
943.64	225.95
943.94	225.92
944.24	225.93
944.54	225.98
944.84	226.04
945.13	225.98
945.43	225.85
945.73	225.80
946.03	225.72
946.33	225.76
946.62	225.82
946.92	225.82
947.22	225.82
947.52	225.88
947.82	225.93
948.11	225.86
948.41	225.71
948.71	225.61
949.01	225.65
949.31	225.62
949.60	225.51
949.90	225.60
950.20	225.56
950.50	225.56
950.79	225.57
951.09	225.65
951.39	225.70
951.69	225.68
951.98	225.85
952.28	225.96
952.58	225.93
952.87	225.85
953.17	225.87
953.47	225.82
953.76	225.81
954.06	225.70
954.36	225.58
954.66	225.62
954.95	225.76
955.25	225.79
955.55	225.83
955.84	225.73
956.14	225.77
956.44	225.83
956.73	225.73
957.03	225.74
957.32	225.66
957.62	225.66
957.92	225.70
958.21	225.64
958.51	226.12
958.81	226.17
959.10	226.24
959.40	226.29
959.69	226.39
959.99	226.49
960.29	226.47
960.58	226.50
960.88	226.76
961.17	226.66
961.47	226.65
961.76	226.64
962.06	226.79
962.36	226.69
962.65	226.75
962.95	226.82
963.24	226.79
963.54	226.76
963.83	226.73
964.13	226.73
964.42	226.56
964.72	226.16
965.01	226.18
965.31	226.13
965.60	226.10
965.90	226.33
966.19	226.14
966.49	226.18
966.78	226.20
967.08	226.10
967.37	226.15
967.67	226.06
967.96	226.17
968.26	226.08
968.55	226.19
968.85	226.12
969.14	226.10
969.43	226.08
969.73	226.12
970.02	226.14
970.32	226.10
970.61	226.08
970.91	225.98
971.20	225.88
971.49	225.86
971.79	225.88
972.08	225.63
972.38	225.76
972.67	225.76
972.96	225.75
973.26	225.64
973.55	225.75
973.85	225.83
974.14	225.74
974.43	225.83
974.73	225.70
975.02	225.68
975.31	225.70
975.61	225.72
975.90	225.71
976.19	225.63
976.49	225.70
976.78	225.72
977.07	225.72
977.37	225.83
977.66	225.90
977.95	225.85
978.24	225.85
978.54	225.95
978.83	225.94
979.12	225.92
979.42	225.95
979.71	225.83
980.00	225.79
980.29	225.81
980.59	225.69
980.88	225.79
981.17	225.77
981.46	225.83
981.76	225.77
982.05	225.88
982.34	225.94
982.63	225.91
982.93	225.97
983.22	226.08
983.51	226.06
983.80	226.10
984.09	226.15
984.39	226.11
984.68	225.99
984.97	226.10
985.26	226.06
985.55	226.10
985.85	226.04
986.14	226.06
986.43	226.18
986.72	226.21
987.01	226.13
987.30	226.15
987.59	226.04
987.89	226.10
988.18	225.95
988.47	225.95
988.76	225.87
989.05	225.82
989.34	225.76
989.63	225.88
989.92	225.81
990.22	225.76
990.51	225.74
990.80	225.75
991.09	225.75
991.38	225.89
991.67	225.80
991.96	225.74
992.25	225.77
992.54	225.69
992.83	225.68
993.12	225.69
993.41	225.78
993.70	226.00
993.99	226.04
994.28	226.08
994.58	226.13
994.87	226.16
995.16	226.15
995.45	226.04
995.74	225.81
996.03	225.90
996.32	225.96
996.61	226.01
996.90	226.01
997.19	225.89
997.48	225.85
997.77	225.82
998.06	225.86
998.34	225.80
998.63	225.77
998.92	225.76
999.21	225.81
999.50	225.75
999.79	225.56
1000.08	225.59
1000.37	225.63
1000.66	225.61
1000.95	225.65
1001.24	225.68
1001.53	225.76
1001.82	225.76
1002.11	225.61
1002.40	225.67
1002.68	225.80
1002.97	226.17
1003.26	226.18
1003.55	226.17
1003.84	226.20
1004.13	226.36
1004.42	226.36
1004.71	226.34
1004.99	226.29
1005.28	226.33
1005.57	226.25
1005.86	226.16
1006.15	226.09
1006.44	226.02
1006.72	225.92
1007.01	225.90
1007.30	225.88
1007.59	225.84
1007.88	225.86
1008.17	225.91
1008.45	225.75
1008.74	225.55
1009.03	225.27
1009.32	225.24
1009.60	225.20
1009.89	225.21
1010.18	224.98
1010.47	225.00
1010.76	224.97
1011.04	225.00
1011.33	225.01
1011.62	225.18
1011.91	225.31
1012.19	225.27
1012.48	225.25
1012.77	225.31
1013.05	225.52
1013.34	225.52
1013.63	225.43
1013.92	225.46
1014.20	225.38
1014.49	225.44
1014.78	225.48
1015.06	225.33
1015.35	225.40
1015.64	225.44
1015.92	225.47
1016.21	225.60
1016.50	225.50
1016.78	225.65
1017.07	225.69
1017.36	225.60
1017.64	225.44
1017.93	225.43
1018.22	225.35
1018.50	225.37
1018.79	225.42
1019.08	225.18
1019.36	225.23
1019.65	225.24
1019.93	225.37
1020.22	225.55
1020.51	225.75
1020.79	225.70
1021.08	222.85
1021.36	224.85
1021.65	226.30
1021.94	225.00
1022.22	226.20
1022.51	223.95
1022.79	227.90
1023.08	227.75
1023.36	230.10
1023.65	224.65
>>>>>End Processed Spectral Data<<<<<
