SpectraSuite Data File
++++++++++++++++++++++++++++++++++++
Date: Wed Sep 04 18:04:18 EDT 2013
User: lab3
Dark Spectrum Present: Yes
Reference Spectrum Present: No
Number of Sampled Component Spectra: 1
Spectrometers: USB2E7196
Integration Time (usec): 170000 (USB2E7196)
Spectra Averaged: 20 (USB2E7196)
Boxcar Smoothing: 10 (USB2E7196)
Correct for Electrical Dark: No (USB2E7196)
Strobe/Lamp Enabled: No (USB2E7196)
Correct for Detector Non-linearity: No (USB2E7196)
Correct for Stray Light: No (USB2E7196)
Number of Pixels in Processed Spectrum: 2048
>>>>>Begin Processed Spectral Data<<<<<
339.09	0.00
339.48	214.55
339.86	215.30
340.24	215.85
340.63	219.25
341.01	224.85
341.39	221.15
341.78	222.70
342.16	224.70
342.54	223.50
342.93	212.83
343.31	223.59
343.69	224.05
344.07	224.52
344.46	225.09
344.84	225.48
345.22	225.52
345.60	225.78
345.99	225.99
346.37	226.12
346.75	226.30
347.13	226.40
347.52	226.41
347.90	226.68
348.28	226.79
348.66	226.99
349.05	226.87
349.43	226.97
349.81	227.05
350.19	227.14
350.57	227.13
350.96	227.18
351.34	227.27
351.72	227.46
352.10	227.60
352.48	227.52
352.87	227.47
353.25	227.54
353.63	227.63
354.01	227.65
354.39	227.69
354.77	227.74
355.15	227.94
355.54	227.99
355.92	227.83
356.30	227.85
356.68	228.20
357.06	228.34
357.44	228.39
357.82	228.40
358.20	228.87
358.58	228.92
358.97	228.99
359.35	229.11
359.73	229.23
360.11	229.27
360.49	229.40
360.87	229.51
361.25	229.68
361.63	229.85
362.01	229.96
362.39	229.97
362.77	230.06
363.15	230.03
363.53	230.08
363.91	230.15
364.29	230.26
364.67	229.83
365.05	229.90
365.43	229.94
365.81	230.10
366.19	229.98
366.57	230.22
366.95	230.20
367.33	230.12
367.71	230.14
368.09	230.22
368.47	230.21
368.85	230.13
369.23	230.13
369.61	229.98
369.99	230.13
370.37	230.25
370.75	230.44
371.13	230.33
371.51	230.28
371.89	230.30
372.27	230.26
372.65	230.31
373.03	230.30
373.41	230.20
373.78	230.05
374.16	229.85
374.54	229.64
374.92	229.56
375.30	229.52
375.68	229.32
376.06	229.28
376.44	229.17
376.82	229.21
377.19	229.14
377.57	229.12
377.95	228.92
378.33	228.78
378.71	228.40
379.09	228.48
379.47	228.50
379.84	228.33
380.22	228.18
380.60	227.98
380.98	227.89
381.36	227.86
381.73	227.74
382.11	227.70
382.49	227.68
382.87	227.62
383.25	227.50
383.62	228.03
384.00	227.88
384.38	227.85
384.76	227.92
385.13	227.99
385.51	227.84
385.89	227.65
386.27	227.57
386.64	227.65
387.02	227.48
387.40	227.38
387.78	227.36
388.15	227.35
388.53	227.32
388.91	227.21
389.29	227.07
389.66	227.10
390.04	226.95
390.42	227.06
390.79	227.03
391.17	227.05
391.55	226.50
391.92	226.40
392.30	226.50
392.68	226.35
393.05	226.30
393.43	226.29
393.81	226.38
394.18	226.34
394.56	226.26
394.94	226.41
395.31	226.41
395.69	226.69
396.06	226.77
396.44	226.85
396.82	226.91
397.19	227.25
397.57	227.23
397.95	227.40
398.32	227.26
398.70	227.44
399.07	227.64
399.45	227.70
399.82	227.89
400.20	227.83
400.58	227.98
400.95	227.91
401.33	228.16
401.70	228.55
402.08	228.69
402.45	228.85
402.83	229.01
403.20	229.16
403.58	229.14
403.95	229.40
404.33	229.64
404.71	229.87
405.08	230.33
405.46	230.57
405.83	230.81
406.21	231.05
406.58	231.27
406.96	231.53
407.33	231.92
407.70	232.30
408.08	233.07
408.45	233.53
408.83	234.13
409.20	234.46
409.58	234.66
409.95	235.27
410.33	235.83
410.70	236.25
411.08	236.92
411.45	237.61
411.82	238.17
412.20	238.95
412.57	239.91
412.95	240.26
413.32	241.27
413.69	242.01
414.07	243.06
414.44	244.00
414.82	245.03
415.19	246.23
415.56	247.37
415.94	248.47
416.31	249.90
416.68	251.27
417.06	252.99
417.43	254.66
417.81	256.37
418.18	258.21
418.55	260.19
418.93	262.15
419.30	264.22
419.67	266.44
420.04	268.68
420.42	270.98
420.79	274.05
421.16	276.81
421.54	279.96
421.91	282.91
422.28	286.08
422.66	289.40
423.03	292.89
423.40	296.28
423.77	299.74
424.15	303.29
424.52	307.09
424.89	311.16
425.26	315.16
425.64	318.97
426.01	323.19
426.38	327.57
426.75	332.22
427.13	336.79
427.50	341.56
427.87	346.53
428.24	351.52
428.61	356.17
428.99	361.55
429.36	367.06
429.73	372.55
430.10	378.13
430.47	383.84
430.85	389.39
431.22	395.48
431.59	402.42
431.96	408.69
432.33	415.64
432.70	422.38
433.08	430.37
433.45	437.76
433.82	445.20
434.19	453.51
434.56	461.56
434.93	469.29
435.30	477.07
435.68	485.70
436.05	494.11
436.42	502.37
436.79	509.99
437.16	518.42
437.53	527.26
437.90	536.00
438.27	544.60
438.64	553.73
439.01	562.24
439.38	569.48
439.75	576.57
440.13	584.59
440.50	592.07
440.87	598.11
441.24	604.52
441.61	611.45
441.98	616.58
442.35	622.40
442.72	628.50
443.09	634.23
443.46	637.54
443.83	639.84
444.20	641.70
444.57	644.32
444.94	645.30
445.31	646.48
445.68	647.95
446.05	648.01
446.42	646.54
446.79	644.88
447.16	643.14
447.53	641.92
447.90	638.22
448.27	634.72
448.64	629.82
449.01	626.15
449.37	620.01
449.74	613.87
450.11	607.04
450.48	599.21
450.85	591.36
451.22	584.57
451.59	577.94
451.96	571.73
452.33	563.74
452.70	556.40
453.07	547.56
453.43	538.22
453.80	529.91
454.17	521.92
454.54	514.33
454.91	506.13
455.28	498.16
455.65	490.66
456.02	483.60
456.38	477.28
456.75	469.48
457.12	462.89
457.49	456.60
457.86	450.26
458.23	445.05
458.59	439.30
458.96	433.49
459.33	428.34
459.70	423.15
460.07	418.99
460.43	414.30
460.80	410.04
461.17	406.27
461.54	402.19
461.91	398.30
462.27	394.42
462.64	391.16
463.01	387.50
463.38	384.28
463.74	380.37
464.11	377.28
464.48	374.69
464.85	371.89
465.21	369.71
465.58	367.36
465.95	364.55
466.32	362.29
466.68	360.07
467.05	357.88
467.42	355.80
467.78	353.45
468.15	351.21
468.52	349.63
468.88	347.48
469.25	345.59
469.62	344.13
469.98	342.50
470.35	340.98
470.72	339.54
471.08	337.85
471.45	336.54
471.82	335.24
472.18	333.77
472.55	332.76
472.92	331.40
473.28	330.21
473.65	329.06
474.02	328.05
474.38	327.15
474.75	326.34
475.11	325.42
475.48	324.75
475.85	324.21
476.21	323.50
476.58	323.05
476.94	322.57
477.31	322.01
477.67	321.54
478.04	321.17
478.41	321.00
478.77	321.25
479.14	320.98
479.50	320.85
479.87	320.88
480.23	320.80
480.60	320.78
480.96	320.74
481.33	321.15
481.69	321.33
482.06	321.57
482.42	321.84
482.79	322.12
483.15	322.55
483.52	323.10
483.88	323.63
484.25	324.09
484.61	324.75
484.98	325.45
485.34	326.45
485.71	327.48
486.07	328.46
486.44	329.07
486.80	330.18
487.17	331.34
487.53	332.71
487.90	334.20
488.26	335.80
488.62	337.49
488.99	338.99
489.35	340.67
489.72	342.54
490.08	344.53
490.44	346.57
490.81	348.79
491.17	351.04
491.54	353.45
491.90	356.08
492.26	358.84
492.63	361.66
492.99	364.45
493.36	367.51
493.72	370.80
494.08	374.26
494.45	377.93
494.81	381.87
495.17	385.72
495.54	389.81
495.90	394.10
496.26	398.68
496.63	403.40
496.99	408.21
497.35	413.27
497.72	418.57
498.08	424.01
498.44	429.71
498.80	435.75
499.17	441.86
499.53	448.18
499.89	454.74
500.26	461.56
500.62	468.59
500.98	475.96
501.34	483.40
501.71	491.12
502.07	498.88
502.43	506.80
502.79	515.23
503.16	523.89
503.52	532.94
503.88	542.19
504.24	551.88
504.60	561.90
504.97	572.28
505.33	582.90
505.69	594.16
506.05	605.20
506.41	616.48
506.78	628.30
507.14	640.49
507.50	653.04
507.86	665.75
508.22	678.81
508.59	691.90
508.95	705.45
509.31	719.61
509.67	734.03
510.03	748.57
510.39	763.28
510.75	778.63
511.12	793.94
511.48	809.32
511.84	825.05
512.20	840.96
512.56	857.25
512.92	874.05
513.28	890.80
513.64	908.41
514.00	926.03
514.37	943.72
514.73	961.66
515.09	979.83
515.45	998.33
515.81	1016.81
516.17	1035.70
516.53	1054.50
516.89	1073.27
517.25	1092.75
517.61	1112.93
517.97	1133.31
518.33	1153.12
518.69	1173.40
519.05	1194.24
519.41	1215.13
519.77	1236.55
520.13	1257.33
520.49	1277.96
520.85	1300.30
521.21	1321.03
521.57	1342.51
521.93	1363.37
522.29	1384.70
522.65	1405.46
523.01	1426.66
523.37	1447.50
523.73	1468.60
524.09	1489.48
524.45	1510.20
524.81	1531.08
525.17	1551.95
525.53	1572.83
525.89	1593.94
526.25	1615.11
526.61	1635.73
526.97	1656.65
527.33	1678.15
527.68	1700.30
528.04	1721.61
528.40	1741.36
528.76	1762.74
529.12	1782.98
529.48	1803.88
529.84	1824.02
530.20	1845.33
530.56	1866.04
530.91	1887.23
531.27	1907.62
531.63	1928.22
531.99	1949.29
532.35	1969.53
532.71	1989.92
533.07	2010.39
533.42	2030.23
533.78	2050.21
534.14	2070.08
534.50	2089.66
534.86	2108.32
535.21	2125.84
535.57	2144.66
535.93	2162.66
536.29	2180.33
536.65	2198.80
537.00	2216.67
537.36	2234.65
537.72	2251.16
538.08	2268.35
538.44	2285.19
538.79	2301.93
539.15	2318.45
539.51	2334.28
539.87	2349.76
540.22	2363.96
540.58	2378.47
540.94	2392.00
541.29	2404.57
541.65	2417.09
542.01	2429.29
542.37	2440.31
542.72	2451.65
543.08	2462.42
543.44	2474.21
543.79	2484.88
544.15	2494.72
544.51	2504.61
544.87	2514.08
545.22	2523.05
545.58	2530.75
545.94	2537.99
546.29	2544.63
546.65	2551.42
547.01	2557.34
547.36	2563.07
547.72	2568.68
548.07	2572.93
548.43	2578.57
548.79	2583.49
549.14	2587.80
549.50	2591.80
549.86	2596.18
550.21	2599.88
550.57	2603.08
550.92	2604.35
551.28	2605.59
551.64	2608.08
551.99	2610.31
552.35	2612.39
552.70	2614.44
553.06	2616.32
553.41	2617.56
553.77	2619.56
554.13	2621.38
554.48	2622.82
554.84	2624.47
555.19	2625.66
555.55	2627.33
555.90	2626.59
556.26	2626.27
556.61	2624.83
556.97	2622.91
557.32	2622.05
557.68	2620.86
558.03	2619.69
558.39	2618.88
558.74	2618.09
559.10	2614.85
559.45	2611.62
559.81	2607.29
560.16	2602.21
560.52	2597.81
560.87	2593.73
561.23	2588.21
561.58	2581.81
561.94	2575.30
562.29	2567.55
562.64	2560.55
563.00	2552.11
563.35	2545.72
563.71	2538.55
564.06	2532.66
564.42	2526.42
564.77	2519.54
565.12	2512.21
565.48	2504.34
565.83	2496.41
566.19	2488.42
566.54	2480.88
566.89	2472.40
567.25	2464.40
567.60	2457.54
567.96	2449.72
568.31	2441.52
568.66	2432.97
569.02	2424.06
569.37	2415.42
569.72	2407.69
570.08	2398.37
570.43	2389.09
570.78	2379.72
571.14	2370.25
571.49	2359.90
571.84	2350.30
572.20	2339.21
572.55	2329.14
572.90	2318.44
573.26	2308.20
573.61	2296.99
573.96	2285.71
574.31	2273.98
574.67	2262.34
575.02	2249.55
575.37	2236.90
575.72	2223.80
576.08	2211.42
576.43	2198.94
576.78	2185.75
577.13	2172.19
577.49	2159.14
577.84	2147.04
578.19	2134.69
578.54	2122.31
578.90	2110.42
579.25	2097.99
579.60	2085.74
579.95	2072.57
580.30	2059.29
580.66	2045.30
581.01	2031.70
581.36	2017.48
581.71	2004.67
582.06	1991.36
582.42	1978.57
582.77	1965.63
583.12	1953.46
583.47	1940.87
583.82	1928.86
584.17	1916.91
584.53	1905.02
584.88	1892.50
585.23	1879.47
585.58	1865.32
585.93	1851.90
586.28	1838.13
586.63	1823.80
586.98	1809.22
587.34	1795.98
587.69	1782.63
588.04	1770.00
588.39	1757.82
588.74	1745.63
589.09	1733.44
589.44	1720.74
589.79	1708.58
590.14	1696.69
590.49	1684.31
590.84	1672.37
591.19	1660.09
591.54	1647.78
591.89	1635.62
592.25	1625.23
592.60	1613.68
592.95	1602.30
593.30	1590.24
593.65	1578.47
594.00	1566.38
594.35	1556.75
594.70	1544.64
595.05	1533.39
595.40	1521.45
595.75	1509.45
596.10	1498.19
596.45	1486.57
596.80	1475.87
597.15	1464.21
597.50	1452.17
597.85	1440.75
598.19	1429.02
598.54	1417.33
598.89	1405.92
599.24	1394.99
599.59	1383.11
599.94	1372.02
600.29	1361.46
600.64	1351.05
600.99	1340.08
601.34	1330.65
601.69	1319.37
602.04	1309.49
602.39	1299.60
602.74	1290.36
603.08	1280.88
603.43	1271.61
603.78	1261.83
604.13	1251.74
604.48	1242.13
604.83	1232.57
605.18	1222.86
605.53	1213.02
605.87	1203.72
606.22	1195.19
606.57	1185.97
606.92	1176.62
607.27	1167.83
607.62	1159.16
607.96	1150.35
608.31	1142.38
608.66	1133.87
609.01	1125.18
609.36	1116.58
609.70	1107.91
610.05	1099.00
610.40	1090.34
610.75	1081.42
611.10	1072.99
611.44	1064.43
611.79	1056.13
612.14	1048.20
612.49	1040.19
612.83	1032.77
613.18	1025.02
613.53	1017.09
613.88	1009.00
614.22	1001.12
614.57	993.07
614.92	984.98
615.27	977.45
615.61	969.54
615.96	961.73
616.31	954.45
616.65	947.32
617.00	939.75
617.35	932.33
617.70	925.19
618.04	917.97
618.39	910.88
618.74	904.43
619.08	897.38
619.43	890.27
619.78	883.21
620.12	876.13
620.47	869.04
620.82	861.90
621.16	855.12
621.51	848.87
621.85	842.37
622.20	835.82
622.55	829.12
622.89	822.69
623.24	816.17
623.59	809.47
623.93	802.93
624.28	796.90
624.62	791.26
624.97	785.51
625.32	779.72
625.66	773.82
626.01	767.49
626.35	762.05
626.70	756.35
627.04	750.76
627.39	745.06
627.73	739.83
628.08	734.45
628.43	728.84
628.77	723.10
629.12	717.72
629.46	712.82
629.81	708.09
630.15	703.29
630.50	698.43
630.84	693.59
631.19	688.90
631.53	684.19
631.88	678.89
632.22	673.79
632.57	669.28
632.91	664.69
633.26	660.36
633.60	655.63
633.95	650.83
634.29	646.15
634.64	641.71
634.98	636.89
635.32	632.55
635.67	628.59
636.01	624.40
636.36	620.02
636.70	615.96
637.05	611.76
637.39	607.50
637.73	603.34
638.08	599.15
638.42	594.86
638.77	590.46
639.11	586.08
639.45	581.75
639.80	577.20
640.14	572.90
640.49	568.86
640.83	564.98
641.17	561.26
641.52	557.50
641.86	553.86
642.20	550.62
642.55	546.93
642.89	543.22
643.23	539.78
643.58	536.66
643.92	532.86
644.26	529.41
644.61	526.13
644.95	522.72
645.29	519.26
645.64	516.14
645.98	513.01
646.32	510.15
646.66	506.99
647.01	503.96
647.35	501.19
647.69	498.17
648.04	495.18
648.38	492.55
648.72	489.53
649.06	486.46
649.41	483.23
649.75	480.29
650.09	477.42
650.43	474.44
650.78	471.46
651.12	468.60
651.46	465.68
651.80	462.90
652.14	460.14
652.49	457.71
652.83	455.07
653.17	452.49
653.51	449.77
653.85	447.42
654.20	444.97
654.54	442.32
654.88	439.75
655.22	437.55
655.56	434.96
655.90	432.66
656.25	430.45
656.59	428.30
656.93	426.07
657.27	423.92
657.61	421.49
657.95	419.23
658.29	417.13
658.64	415.16
658.98	412.95
659.32	410.60
659.66	408.22
660.00	406.05
660.34	404.00
660.68	402.02
661.02	399.99
661.36	398.07
661.70	395.98
662.05	394.06
662.39	391.99
662.73	390.20
663.07	388.59
663.41	386.76
663.75	384.90
664.09	382.95
664.43	381.03
664.77	379.35
665.11	377.59
665.45	375.82
665.79	374.01
666.13	372.25
666.47	370.70
666.81	369.10
667.15	367.37
667.49	365.83
667.83	364.52
668.17	363.03
668.51	361.60
668.85	360.43
669.19	359.28
669.53	357.85
669.87	356.33
670.21	354.71
670.55	353.21
670.89	352.14
671.23	350.84
671.57	349.41
671.91	348.11
672.25	346.76
672.58	345.54
672.92	344.14
673.26	342.91
673.60	341.75
673.94	340.72
674.28	339.57
674.62	338.33
674.96	336.90
675.30	335.67
675.64	334.42
675.97	333.08
676.31	331.70
676.65	330.41
676.99	329.45
677.33	328.30
677.67	327.24
678.01	325.77
678.34	324.71
678.68	323.80
679.02	322.75
679.36	321.77
679.70	320.68
680.04	319.78
680.37	318.75
680.71	317.65
681.05	316.64
681.39	315.70
681.73	314.76
682.06	313.88
682.40	313.03
682.74	312.15
683.08	311.45
683.42	310.47
683.75	309.71
684.09	308.73
684.43	307.96
684.77	307.14
685.10	306.41
685.44	305.58
685.78	304.79
686.12	304.00
686.45	303.18
686.79	302.36
687.13	301.65
687.46	300.94
687.80	300.34
688.14	299.55
688.48	298.83
688.81	298.00
689.15	297.25
689.49	296.43
689.82	295.78
690.16	294.81
690.50	294.16
690.83	293.40
691.17	292.57
691.51	291.97
691.84	291.36
692.18	290.66
692.52	289.98
692.85	289.29
693.19	288.82
693.52	288.22
693.86	287.58
694.20	286.90
694.53	286.28
694.87	285.61
695.21	284.90
695.54	284.31
695.88	283.76
696.21	283.07
696.55	282.45
696.88	281.79
697.22	281.20
697.56	280.65
697.89	280.03
698.23	279.63
698.56	278.99
698.90	278.48
699.23	277.96
699.57	277.53
699.90	276.98
700.24	276.35
700.58	275.89
700.91	275.51
701.25	275.43
701.58	275.28
701.92	275.03
702.25	274.63
702.59	274.17
702.92	273.80
703.26	273.48
703.59	273.12
703.93	273.06
704.26	272.74
704.60	272.36
704.93	271.93
705.26	271.44
705.60	271.16
705.93	270.62
706.27	270.20
706.60	269.94
706.94	269.85
707.27	269.44
707.61	269.08
707.94	268.70
708.27	267.90
708.61	267.17
708.94	266.63
709.28	266.30
709.61	265.94
709.94	265.61
710.28	265.25
710.61	264.92
710.95	264.13
711.28	264.10
711.61	263.68
711.95	263.48
712.28	263.22
712.61	262.83
712.95	262.80
713.28	262.76
713.61	262.25
713.95	261.68
714.28	261.37
714.61	260.98
714.95	260.59
715.28	260.22
715.61	259.86
715.95	259.59
716.28	259.23
716.61	258.88
716.95	258.52
717.28	258.09
717.61	257.81
717.94	257.55
718.28	256.84
718.61	256.52
718.94	256.12
719.27	255.72
719.61	255.44
719.94	255.03
720.27	254.54
720.60	254.19
720.94	253.98
721.27	253.73
721.60	253.60
721.93	253.31
722.27	253.24
722.60	253.04
722.93	252.75
723.26	252.53
723.59	252.35
723.93	252.22
724.26	252.09
724.59	251.75
724.92	251.50
725.25	251.48
725.59	251.23
725.92	251.08
726.25	250.98
726.58	250.84
726.91	250.61
727.24	250.46
727.57	250.31
727.91	250.03
728.24	249.84
728.57	249.57
728.90	249.43
729.23	249.11
729.56	249.21
729.89	249.06
730.22	248.84
730.55	248.59
730.89	248.36
731.22	248.15
731.55	248.00
731.88	247.84
732.21	247.53
732.54	247.33
732.87	247.15
733.20	246.85
733.53	246.66
733.86	246.47
734.19	246.19
734.52	246.06
734.85	246.15
735.18	245.95
735.51	245.90
735.84	245.76
736.17	245.68
736.50	245.19
736.83	245.59
737.16	245.41
737.49	245.31
737.82	245.10
738.15	245.03
738.48	244.86
738.81	244.73
739.14	244.54
739.47	244.40
739.80	244.19
740.13	244.15
740.46	243.93
740.79	243.73
741.12	243.60
741.45	243.44
741.78	242.99
742.11	242.97
742.44	242.72
742.77	242.62
743.10	242.47
743.43	242.37
743.75	241.72
744.08	242.31
744.41	242.12
744.74	241.95
745.07	241.69
745.40	241.62
745.73	241.73
746.06	241.65
746.39	241.58
746.71	241.42
747.04	241.23
747.37	241.06
747.70	240.98
748.03	240.90
748.36	240.85
748.68	240.75
749.01	240.48
749.34	240.39
749.67	240.26
750.00	240.20
750.33	240.50
750.65	240.41
750.98	239.60
751.31	239.59
751.64	239.56
751.97	239.74
752.29	239.57
752.62	239.20
752.95	239.06
753.28	238.95
753.60	238.87
753.93	238.95
754.26	238.92
754.59	238.73
754.91	238.54
755.24	238.37
755.57	238.35
755.90	238.29
756.22	238.16
756.55	238.01
756.88	237.72
757.20	237.22
757.53	237.00
757.86	236.91
758.19	236.84
758.51	236.74
758.84	236.44
759.17	236.34
759.49	236.26
759.82	236.40
760.15	236.36
760.47	236.31
760.80	235.99
761.13	235.93
761.45	235.87
761.78	235.76
762.11	235.66
762.43	235.47
762.76	235.30
763.08	235.26
763.41	235.22
763.74	235.24
764.06	235.24
764.39	235.19
764.71	235.14
765.04	234.95
765.37	234.84
765.69	234.77
766.02	234.72
766.34	234.68
766.67	234.44
767.00	234.37
767.32	234.51
767.65	234.81
767.97	234.72
768.30	234.72
768.62	234.68
768.95	234.54
769.27	234.45
769.60	234.51
769.92	234.40
770.25	234.30
770.57	234.18
770.90	234.04
771.22	233.92
771.55	233.83
771.87	233.80
772.20	233.70
772.52	234.05
772.85	234.60
773.17	234.47
773.50	234.40
773.82	234.28
774.15	233.97
774.47	233.52
774.80	233.36
775.12	233.23
775.45	233.21
775.77	233.24
776.09	233.24
776.42	233.14
776.74	233.16
777.07	233.04
777.39	232.96
777.72	232.90
778.04	232.87
778.36	232.80
778.69	232.80
779.01	232.77
779.33	232.28
779.66	231.65
779.98	231.64
780.31	231.57
780.63	231.77
780.95	231.83
781.28	231.85
781.60	231.80
781.92	231.70
782.25	231.64
782.57	231.59
782.89	231.51
783.22	231.52
783.54	231.43
783.86	231.40
784.19	231.34
784.51	231.37
784.83	231.23
785.16	231.22
785.48	231.14
785.80	231.09
786.12	231.08
786.45	231.02
786.77	231.00
787.09	231.00
787.42	230.75
787.74	230.66
788.06	230.66
788.38	230.66
788.71	230.60
789.03	230.63
789.35	230.68
789.67	230.56
789.99	230.46
790.32	230.44
790.64	230.50
790.96	230.90
791.28	230.83
791.61	230.88
791.93	230.86
792.25	230.81
792.57	231.11
792.89	231.05
793.21	231.06
793.54	231.05
793.86	230.99
794.18	230.99
794.50	230.95
794.82	231.00
795.14	231.08
795.47	231.22
795.79	231.26
796.11	231.08
796.43	231.14
796.75	231.16
797.07	231.06
797.39	231.00
797.71	230.64
798.04	230.59
798.36	230.54
798.68	230.56
799.00	230.58
799.32	230.33
799.64	230.38
799.96	230.34
800.28	230.42
800.60	230.34
800.92	230.33
801.24	230.25
801.56	230.18
801.89	230.04
802.21	229.99
802.53	229.76
802.85	229.92
803.17	230.10
803.49	229.98
803.81	229.99
804.13	230.00
804.45	229.89
804.77	229.92
805.09	229.95
805.41	229.83
805.73	229.76
806.05	229.63
806.37	229.59
806.69	229.60
807.01	229.48
807.33	229.50
807.65	229.37
807.97	229.62
808.28	229.54
808.60	229.53
808.92	229.48
809.24	229.84
809.56	229.72
809.88	229.51
810.20	229.49
810.52	229.58
810.84	229.45
811.16	229.42
811.48	229.32
811.80	229.39
812.12	229.35
812.43	229.44
812.75	229.42
813.07	229.33
813.39	229.29
813.71	229.19
814.03	229.19
814.35	229.17
814.67	228.94
814.98	228.97
815.30	228.96
815.62	228.82
815.94	228.40
816.26	228.56
816.58	228.49
816.89	228.53
817.21	228.38
817.53	228.43
817.85	228.45
818.17	228.46
818.48	228.34
818.80	228.38
819.12	228.31
819.44	228.28
819.76	228.22
820.07	228.23
820.39	228.20
820.71	228.11
821.03	228.10
821.34	228.05
821.66	228.03
821.98	228.05
822.30	228.09
822.61	228.41
822.93	228.18
823.25	228.19
823.57	228.07
823.88	228.11
824.20	228.09
824.52	228.14
824.83	228.14
825.15	228.03
825.47	228.04
825.79	228.04
826.10	227.95
826.42	228.00
826.74	228.05
827.05	228.03
827.37	228.10
827.69	228.05
828.00	228.11
828.32	228.10
828.64	228.08
828.95	228.32
829.27	228.20
829.58	228.14
829.90	228.24
830.22	228.34
830.53	228.23
830.85	228.18
831.17	228.04
831.48	227.99
831.80	228.02
832.11	227.99
832.43	227.93
832.75	227.95
833.06	228.23
833.38	228.05
833.69	228.06
834.01	228.04
834.32	228.09
834.64	228.04
834.96	228.01
835.27	228.00
835.59	227.85
835.90	227.76
836.22	227.81
836.53	227.66
836.85	227.64
837.16	228.09
837.48	228.10
837.79	228.37
838.11	228.41
838.42	228.43
838.74	228.48
839.05	228.40
839.37	228.42
839.68	228.11
840.00	228.14
840.31	228.24
840.63	228.27
840.94	228.21
841.26	228.17
841.57	228.22
841.88	228.25
842.20	228.23
842.51	228.16
842.83	228.19
843.14	228.66
843.46	228.57
843.77	228.39
844.08	228.33
844.40	228.17
844.71	228.15
845.03	228.13
845.34	228.13
845.65	228.20
845.97	228.14
846.28	228.17
846.60	228.14
846.91	228.07
847.22	228.04
847.54	228.11
847.85	228.11
848.16	228.00
848.48	227.92
848.79	228.03
849.10	228.15
849.42	228.21
849.73	227.73
850.04	227.80
850.36	227.57
850.67	227.65
850.98	227.63
851.30	227.69
851.61	227.64
851.92	227.61
852.23	227.66
852.55	227.75
852.86	227.73
853.17	227.82
853.49	227.93
853.80	228.00
854.11	227.99
854.42	228.08
854.74	228.08
855.05	228.10
855.36	227.90
855.67	227.89
855.99	227.86
856.30	228.48
856.61	228.48
856.92	228.53
857.23	228.57
857.55	228.48
857.86	228.41
858.17	228.55
858.48	228.43
858.79	228.39
859.11	228.50
859.42	228.47
859.73	228.44
860.04	228.37
860.35	228.25
860.66	228.16
860.98	228.12
861.29	228.19
861.60	228.12
861.91	228.19
862.22	228.09
862.53	228.01
862.84	227.41
863.16	227.53
863.47	227.40
863.78	227.34
864.09	227.43
864.40	227.50
864.71	227.45
865.02	227.58
865.33	227.50
865.64	227.24
865.95	227.24
866.27	227.50
866.58	227.46
866.89	227.47
867.20	227.48
867.51	227.40
867.82	227.36
868.13	227.51
868.44	227.47
868.75	227.60
869.06	227.65
869.37	227.70
869.68	227.52
869.99	227.64
870.30	227.56
870.61	227.63
870.92	227.48
871.23	227.44
871.54	227.51
871.85	227.64
872.16	227.73
872.47	227.70
872.78	227.39
873.09	227.43
873.40	227.40
873.71	227.44
874.02	227.47
874.33	227.50
874.64	227.45
874.95	227.48
875.26	227.33
875.56	227.25
875.87	227.25
876.18	227.18
876.49	227.65
876.80	227.70
877.11	227.61
877.42	227.65
877.73	227.63
878.04	227.42
878.35	227.40
878.66	227.42
878.96	227.46
879.27	227.48
879.58	227.47
879.89	227.37
880.20	227.50
880.51	227.48
880.82	227.36
881.12	227.36
881.43	227.25
881.74	227.14
882.05	227.17
882.36	227.21
882.67	227.27
882.97	226.73
883.28	226.69
883.59	226.69
883.90	226.71
884.21	226.83
884.51	226.90
884.82	226.81
885.13	226.78
885.44	226.67
885.74	226.62
886.05	226.50
886.36	226.63
886.67	226.37
886.98	226.63
887.28	226.75
887.59	226.69
887.90	226.72
888.20	226.77
888.51	226.88
888.82	226.75
889.13	226.82
889.43	227.23
889.74	227.21
890.05	227.15
890.35	227.18
890.66	227.05
890.97	227.05
891.28	227.05
891.58	227.07
891.89	227.10
892.20	227.14
892.50	227.16
892.81	227.15
893.12	227.22
893.42	227.01
893.73	226.98
894.04	227.04
894.34	227.07
894.65	227.03
894.95	227.01
895.26	227.06
895.57	227.28
895.87	226.85
896.18	226.90
896.48	226.93
896.79	226.79
897.10	226.91
897.40	226.90
897.71	226.92
898.01	226.94
898.32	227.05
898.63	227.04
898.93	227.15
899.24	227.13
899.54	227.09
899.85	227.03
900.15	227.10
900.46	227.16
900.76	227.24
901.07	227.18
901.38	227.10
901.68	227.13
901.99	226.85
902.29	226.87
902.60	226.83
902.90	226.84
903.21	226.90
903.51	226.86
903.82	226.95
904.12	226.97
904.43	227.00
904.73	227.00
905.03	226.99
905.34	227.41
905.64	227.43
905.95	227.44
906.25	227.42
906.56	227.25
906.86	227.10
907.17	227.03
907.47	227.18
907.77	227.20
908.08	227.08
908.38	227.13
908.69	227.17
908.99	227.28
909.30	227.26
909.60	227.21
909.90	227.15
910.21	227.10
910.51	226.96
910.81	226.91
911.12	226.87
911.42	226.86
911.73	226.37
912.03	226.37
912.33	226.50
912.64	226.53
912.94	226.63
913.24	226.59
913.55	226.57
913.85	226.53
914.15	226.59
914.46	226.68
914.76	226.66
915.06	226.60
915.37	226.48
915.67	226.50
915.97	226.53
916.27	226.51
916.58	226.46
916.88	226.50
917.18	226.49
917.49	226.85
917.79	226.86
918.09	226.86
918.39	226.98
918.70	226.94
919.00	226.91
919.30	227.02
919.60	226.98
919.91	226.92
920.21	226.93
920.51	226.75
920.81	226.77
921.12	226.74
921.42	226.75
921.72	226.81
922.02	226.84
922.32	226.91
922.63	226.92
922.93	227.17
923.23	227.19
923.53	227.19
923.83	226.83
924.13	226.88
924.44	226.83
924.74	226.92
925.04	227.00
925.34	227.07
925.64	227.00
925.94	227.05
926.24	227.37
926.55	227.31
926.85	227.42
927.15	227.39
927.45	227.47
927.75	227.47
928.05	227.45
928.35	227.33
928.65	227.45
928.95	227.53
929.26	227.40
929.56	227.52
929.86	227.54
930.16	227.48
930.46	227.44
930.76	227.54
931.06	227.30
931.36	227.17
931.66	227.22
931.96	227.22
932.26	227.27
932.56	226.98
932.86	227.05
933.16	227.00
933.46	226.98
933.76	226.94
934.06	227.04
934.36	227.23
934.66	227.21
934.96	227.11
935.26	227.10
935.56	227.10
935.86	226.95
936.16	226.87
936.46	226.86
936.76	226.84
937.06	226.78
937.36	226.84
937.66	226.89
937.96	226.82
938.26	226.74
938.56	226.69
938.86	226.76
939.16	226.80
939.46	226.92
939.76	226.96
940.06	226.91
940.35	226.80
940.65	226.58
940.95	226.65
941.25	226.55
941.55	226.44
941.85	226.46
942.15	226.52
942.45	226.72
942.75	226.76
943.04	226.80
943.34	226.88
943.64	226.84
943.94	226.70
944.24	226.72
944.54	226.69
944.84	226.66
945.13	226.60
945.43	226.56
945.73	226.53
946.03	226.48
946.33	226.43
946.62	226.38
946.92	226.32
947.22	226.48
947.52	226.52
947.82	226.56
948.11	226.42
948.41	226.36
948.71	226.18
949.01	226.14
949.31	226.11
949.60	226.11
949.90	226.14
950.20	226.17
950.50	226.17
950.79	226.24
951.09	226.28
951.39	226.27
951.69	226.17
951.98	226.25
952.28	226.23
952.58	226.25
952.87	226.24
953.17	226.31
953.47	226.16
953.76	226.13
954.06	226.11
954.36	226.09
954.66	226.14
954.95	226.25
955.25	226.33
955.55	226.36
955.84	226.18
956.14	226.23
956.44	226.22
956.73	226.19
957.03	226.16
957.32	226.20
957.62	226.17
957.92	226.29
958.21	226.23
958.51	226.76
958.81	226.82
959.10	226.91
959.40	227.01
959.69	227.01
959.99	227.12
960.29	227.11
960.58	227.07
960.88	227.21
961.17	227.17
961.47	227.15
961.76	227.08
962.06	227.23
962.36	227.10
962.65	227.11
962.95	227.07
963.24	227.04
963.54	227.05
963.83	227.02
964.13	226.95
964.42	226.80
964.72	226.44
965.01	226.46
965.31	226.45
965.60	226.35
965.90	226.62
966.19	226.48
966.49	226.52
966.78	226.59
967.08	226.56
967.37	226.61
967.67	226.57
967.96	226.67
968.26	226.64
968.55	226.82
968.85	226.84
969.14	226.78
969.43	226.75
969.73	226.76
970.02	226.83
970.32	226.80
970.61	226.80
970.91	226.68
971.20	226.62
971.49	226.55
971.79	226.60
972.08	226.34
972.38	226.40
972.67	226.27
972.96	226.31
973.26	226.23
973.55	226.35
973.85	226.28
974.14	226.16
974.43	226.20
974.73	226.05
975.02	226.04
975.31	226.09
975.61	226.09
975.90	226.01
976.19	225.95
976.49	226.02
976.78	226.07
977.07	226.06
977.37	226.06
977.66	226.19
977.95	226.09
978.24	226.05
978.54	226.13
978.83	226.17
979.12	226.18
979.42	226.09
979.71	226.00
980.00	226.04
980.29	226.11
980.59	226.01
980.88	226.14
981.17	226.12
981.46	226.18
981.76	226.18
982.05	226.25
982.34	226.35
982.63	226.41
982.93	226.47
983.22	226.55
983.51	226.57
983.80	226.59
984.09	226.59
984.39	226.57
984.68	226.51
984.97	226.66
985.26	226.61
985.55	226.72
985.85	226.65
986.14	226.75
986.43	226.76
986.72	226.79
987.01	226.72
987.30	226.79
987.59	226.73
987.89	226.77
988.18	226.69
988.47	226.62
988.76	226.54
989.05	226.48
989.34	226.42
989.63	226.58
989.92	226.48
990.22	226.45
990.51	226.54
990.80	226.52
991.09	226.47
991.38	226.45
991.67	226.34
991.96	226.30
992.25	226.28
992.54	226.26
992.83	226.31
993.12	226.19
993.41	226.20
993.70	226.47
993.99	226.65
994.28	226.72
994.58	226.77
994.87	226.70
995.16	226.66
995.45	226.70
995.74	226.53
996.03	226.62
996.32	226.73
996.61	226.80
996.90	226.76
997.19	226.67
997.48	226.73
997.77	226.75
998.06	226.71
998.34	226.71
998.63	226.70
998.92	226.65
999.21	226.81
999.50	226.78
999.79	226.57
1000.08	226.45
1000.37	226.46
1000.66	226.44
1000.95	226.53
1001.24	226.52
1001.53	226.52
1001.82	226.46
1002.11	226.39
1002.40	226.45
1002.68	226.61
1002.97	226.96
1003.26	226.99
1003.55	226.88
1003.84	226.88
1004.13	227.06
1004.42	227.02
1004.71	226.95
1004.99	226.91
1005.28	227.00
1005.57	227.04
1005.86	227.02
1006.15	227.03
1006.44	226.95
1006.72	226.97
1007.01	226.91
1007.30	226.91
1007.59	226.82
1007.88	226.82
1008.17	226.84
1008.45	226.69
1008.74	226.45
1009.03	226.21
1009.32	226.24
1009.60	226.35
1009.89	226.35
1010.18	226.10
1010.47	226.10
1010.76	226.14
1011.04	226.15
1011.33	226.11
1011.62	226.09
1011.91	226.13
1012.19	226.14
1012.48	226.16
1012.77	226.20
1013.05	226.43
1013.34	226.55
1013.63	226.60
1013.92	226.70
1014.20	226.70
1014.49	226.79
1014.78	226.85
1015.06	226.76
1015.35	226.71
1015.64	226.70
1015.92	226.75
1016.21	226.81
1016.50	226.80
1016.78	226.93
1017.07	226.99
1017.36	226.86
1017.64	226.80
1017.93	226.83
1018.22	226.76
1018.50	226.72
1018.79	226.66
1019.08	226.50
1019.36	226.49
1019.65	226.42
1019.93	226.55
1020.22	226.61
1020.51	226.78
1020.79	226.70
1021.08	225.65
1021.36	224.95
1021.65	226.10
1021.94	227.40
1022.22	227.15
1022.51	225.35
1022.79	229.95
1023.08	227.10
1023.36	231.75
1023.65	225.00
>>>>>End Processed Spectral Data<<<<<
