SpectraSuite Data File
++++++++++++++++++++++++++++++++++++
Date: Wed Sep 04 17:59:18 EDT 2013
User: lab3
Dark Spectrum Present: Yes
Reference Spectrum Present: No
Number of Sampled Component Spectra: 1
Spectrometers: USB2E7196
Integration Time (usec): 170000 (USB2E7196)
Spectra Averaged: 20 (USB2E7196)
Boxcar Smoothing: 10 (USB2E7196)
Correct for Electrical Dark: No (USB2E7196)
Strobe/Lamp Enabled: No (USB2E7196)
Correct for Detector Non-linearity: No (USB2E7196)
Correct for Stray Light: No (USB2E7196)
Number of Pixels in Processed Spectrum: 2048
>>>>>Begin Processed Spectral Data<<<<<
339.09	0.00
339.48	212.75
339.86	214.35
340.24	217.00
340.63	216.35
341.01	225.70
341.39	221.40
341.78	222.30
342.16	224.70
342.54	223.90
342.93	212.51
343.31	223.22
343.69	223.74
344.07	224.20
344.46	224.75
344.84	225.27
345.22	225.29
345.60	225.51
345.99	225.70
346.37	225.76
346.75	225.84
347.13	225.91
347.52	225.96
347.90	226.20
348.28	226.18
348.66	226.31
349.05	226.23
349.43	226.35
349.81	226.49
350.19	226.54
350.57	226.64
350.96	226.80
351.34	226.92
351.72	227.08
352.10	227.25
352.48	227.22
352.87	227.20
353.25	227.33
353.63	227.34
354.01	227.35
354.39	227.48
354.77	227.54
355.15	227.69
355.54	227.69
355.92	227.54
356.30	227.62
356.68	227.97
357.06	228.05
357.44	228.00
357.82	228.02
358.20	228.48
358.58	228.46
358.97	228.44
359.35	228.62
359.73	228.74
360.11	228.75
360.49	228.81
360.87	228.89
361.25	228.91
361.63	229.16
362.01	229.29
362.39	229.28
362.77	229.39
363.15	229.46
363.53	229.53
363.91	229.69
364.29	229.72
364.67	229.33
365.05	229.37
365.43	229.48
365.81	229.52
366.19	229.39
366.57	229.61
366.95	229.67
367.33	229.60
367.71	229.62
368.09	229.75
368.47	229.69
368.85	229.63
369.23	229.67
369.61	229.49
369.99	229.62
370.37	229.64
370.75	229.87
371.13	229.80
371.51	229.71
371.89	229.69
372.27	229.70
372.65	229.71
373.03	229.71
373.41	229.67
373.78	229.60
374.16	229.29
374.54	229.08
374.92	229.00
375.30	228.89
375.68	228.74
376.06	228.74
376.44	228.73
376.82	228.82
377.19	228.77
377.57	228.71
377.95	228.50
378.33	228.41
378.71	228.08
379.09	228.01
379.47	228.03
379.84	227.88
380.22	227.76
380.60	227.61
380.98	227.53
381.36	227.42
381.73	227.32
382.11	227.41
382.49	227.39
382.87	227.22
383.25	227.15
383.62	227.65
384.00	227.40
384.38	227.31
384.76	227.23
385.13	227.31
385.51	227.25
385.89	227.12
386.27	227.08
386.64	227.05
387.02	226.96
387.40	226.86
387.78	226.95
388.15	226.90
388.53	226.80
388.91	226.75
389.29	226.62
389.66	226.62
390.04	226.46
390.42	226.48
390.79	226.52
391.17	226.51
391.55	225.94
391.92	225.92
392.30	226.00
392.68	225.86
393.05	225.86
393.43	225.88
393.81	226.01
394.18	225.93
394.56	226.00
394.94	226.14
395.31	226.09
395.69	226.17
396.06	226.27
396.44	226.39
396.82	226.40
397.19	226.79
397.57	226.85
397.95	227.03
398.32	226.99
398.70	227.14
399.07	227.35
399.45	227.47
399.82	227.57
400.20	227.64
400.58	227.73
400.95	227.63
401.33	227.87
401.70	228.27
402.08	228.50
402.45	228.58
402.83	228.75
403.20	229.04
403.58	229.14
403.95	229.39
404.33	229.68
404.71	229.88
405.08	230.25
405.46	230.48
405.83	230.70
406.21	230.96
406.58	231.23
406.96	231.46
407.33	231.78
407.70	232.18
408.08	232.87
408.45	233.45
408.83	233.95
409.20	234.27
409.58	234.45
409.95	234.92
410.33	235.45
410.70	235.94
411.08	236.55
411.45	237.18
411.82	237.73
412.20	238.47
412.57	239.42
412.95	239.82
413.32	240.68
413.69	241.53
414.07	242.50
414.44	243.46
414.82	244.52
415.19	245.75
415.56	246.95
415.94	247.95
416.31	249.33
416.68	250.74
417.06	252.45
417.43	254.09
417.81	255.85
418.18	257.71
418.55	259.56
418.93	261.56
419.30	263.66
419.67	265.98
420.04	268.22
420.42	270.57
420.79	273.66
421.16	276.51
421.54	279.61
421.91	282.61
422.28	285.71
422.66	288.99
423.03	292.48
423.40	295.81
423.77	299.35
424.15	302.85
424.52	306.72
424.89	310.92
425.26	314.82
425.64	318.72
426.01	322.84
426.38	327.26
426.75	331.76
427.13	336.36
427.50	341.01
427.87	345.97
428.24	350.90
428.61	355.34
428.99	360.71
429.36	366.24
429.73	371.85
430.10	377.36
430.47	383.04
430.85	388.78
431.22	395.00
431.59	401.83
431.96	408.16
432.33	415.08
432.70	421.67
433.08	429.55
433.45	436.97
433.82	444.46
434.19	452.74
434.56	460.88
434.93	468.64
435.30	476.53
435.68	485.27
436.05	493.64
436.42	502.13
436.79	509.82
437.16	518.25
437.53	527.08
437.90	535.79
438.27	544.47
438.64	553.31
439.01	561.69
439.38	568.99
439.75	576.30
440.13	584.48
440.50	592.25
440.87	598.40
441.24	604.90
441.61	611.91
441.98	617.07
442.35	623.01
442.72	629.05
443.09	634.92
443.46	638.21
443.83	640.82
444.20	642.81
444.57	645.55
444.94	646.57
445.31	647.53
445.68	649.01
446.05	649.17
446.42	647.86
446.79	646.56
447.16	644.89
447.53	643.56
447.90	639.58
448.27	635.73
448.64	630.88
449.01	627.03
449.37	620.78
449.74	614.68
450.11	607.78
450.48	599.96
450.85	591.89
451.22	584.85
451.59	578.05
451.96	571.69
452.33	563.40
452.70	555.92
453.07	547.25
453.43	538.05
453.80	529.54
454.17	521.35
454.54	513.44
454.91	505.23
455.28	497.19
455.65	489.83
456.02	482.90
456.38	476.45
456.75	468.70
457.12	462.24
457.49	455.87
457.86	449.35
458.23	444.09
458.59	438.34
458.96	432.67
459.33	427.50
459.70	422.38
460.07	418.41
460.43	413.72
460.80	409.38
461.17	405.69
461.54	401.74
461.91	397.98
462.27	394.15
462.64	390.90
463.01	387.30
463.38	384.04
463.74	379.93
464.11	376.96
464.48	374.33
464.85	371.38
465.21	369.22
465.58	366.91
465.95	364.14
466.32	361.89
466.68	359.60
467.05	357.42
467.42	355.21
467.78	352.82
468.15	350.67
468.52	349.06
468.88	346.75
469.25	344.78
469.62	343.37
469.98	341.71
470.35	340.12
470.72	338.61
471.08	336.79
471.45	335.62
471.82	334.33
472.18	332.78
472.55	331.80
472.92	330.43
473.28	329.33
473.65	328.16
474.02	327.19
474.38	326.44
474.75	325.70
475.11	324.90
475.48	324.17
475.85	323.58
476.21	322.98
476.58	322.50
476.94	322.08
477.31	321.47
477.67	321.05
478.04	320.77
478.41	320.61
478.77	321.01
479.14	320.68
479.50	320.56
479.87	320.67
480.23	320.66
480.60	320.70
480.96	320.70
481.33	321.17
481.69	321.31
482.06	321.43
482.42	321.67
482.79	321.94
483.15	322.46
483.52	323.06
483.88	323.52
484.25	324.11
484.61	324.85
484.98	325.63
485.34	326.58
485.71	327.48
486.07	328.49
486.44	329.06
486.80	330.25
487.17	331.34
487.53	332.72
487.90	334.20
488.26	335.85
488.62	337.64
488.99	339.10
489.35	340.86
489.72	342.87
490.08	344.89
490.44	346.98
490.81	349.23
491.17	351.47
491.54	354.00
491.90	356.51
492.26	359.08
492.63	361.90
492.99	364.78
493.36	367.84
493.72	371.10
494.08	374.60
494.45	378.38
494.81	382.34
495.17	386.26
495.54	390.33
495.90	394.58
496.26	399.02
496.63	403.71
496.99	408.49
497.35	413.50
497.72	418.88
498.08	424.38
498.44	429.93
498.80	436.03
499.17	442.07
499.53	448.32
499.89	455.07
500.26	461.92
500.62	468.98
500.98	476.53
501.34	484.03
501.71	491.76
502.07	499.53
502.43	507.65
502.79	516.02
503.16	524.80
503.52	533.95
503.88	543.25
504.24	553.11
504.60	563.20
504.97	573.54
505.33	583.85
505.69	594.80
506.05	606.00
506.41	617.19
506.78	628.88
507.14	640.98
507.50	653.53
507.86	666.08
508.22	678.99
508.59	691.94
508.95	705.53
509.31	719.70
509.67	734.05
510.03	748.45
510.39	763.26
510.75	778.19
511.12	793.42
511.48	809.04
511.84	824.73
512.20	840.70
512.56	857.01
512.92	873.78
513.28	890.74
513.64	908.06
514.00	925.67
514.37	943.43
514.73	961.68
515.09	979.85
515.45	998.42
515.81	1016.87
516.17	1035.81
516.53	1054.61
516.89	1073.47
517.25	1092.97
517.61	1113.34
517.97	1133.83
518.33	1154.18
518.69	1174.47
519.05	1195.29
519.41	1215.88
519.77	1236.95
520.13	1257.76
520.49	1278.56
520.85	1300.99
521.21	1322.22
521.57	1343.32
521.93	1364.18
522.29	1385.57
522.65	1406.15
523.01	1427.22
523.37	1448.13
523.73	1469.18
524.09	1490.04
524.45	1510.82
524.81	1531.75
525.17	1552.13
525.53	1572.39
525.89	1593.07
526.25	1614.06
526.61	1634.07
526.97	1655.26
527.33	1676.54
527.68	1698.45
528.04	1719.86
528.40	1739.50
528.76	1760.47
529.12	1781.08
529.48	1802.17
529.84	1822.23
530.20	1843.70
530.56	1864.36
530.91	1885.36
531.27	1905.92
531.63	1926.54
531.99	1947.31
532.35	1967.39
532.71	1987.92
533.07	2008.74
533.42	2029.03
533.78	2049.00
534.14	2069.55
534.50	2088.85
534.86	2108.10
535.21	2125.92
535.57	2144.57
535.93	2162.62
536.29	2180.46
536.65	2198.90
537.00	2216.66
537.36	2234.55
537.72	2251.01
538.08	2268.33
538.44	2285.21
538.79	2301.58
539.15	2318.22
539.51	2334.19
539.87	2349.48
540.22	2363.62
540.58	2378.34
540.94	2391.45
541.29	2404.26
541.65	2416.96
542.01	2429.53
542.37	2440.28
542.72	2451.15
543.08	2461.77
543.44	2473.28
543.79	2483.58
544.15	2493.56
544.51	2503.80
544.87	2513.40
545.22	2522.28
545.58	2530.12
545.94	2537.26
546.29	2544.14
546.65	2550.33
547.01	2555.92
547.36	2561.71
547.72	2567.20
548.07	2570.95
548.43	2576.79
548.79	2581.26
549.14	2584.79
549.50	2588.73
549.86	2592.82
550.21	2596.66
550.57	2599.99
550.92	2601.65
551.28	2603.13
551.64	2605.32
551.99	2607.05
552.35	2608.65
552.70	2610.74
553.06	2612.53
553.41	2613.84
553.77	2615.65
554.13	2617.48
554.48	2619.15
554.84	2620.78
555.19	2622.46
555.55	2623.98
555.90	2622.99
556.26	2622.56
556.61	2621.51
556.97	2619.42
557.32	2618.95
557.68	2618.05
558.03	2616.80
558.39	2615.36
558.74	2614.62
559.10	2611.38
559.45	2608.09
559.81	2603.79
560.16	2598.60
560.52	2593.79
560.87	2589.33
561.23	2583.67
561.58	2577.60
561.94	2570.84
562.29	2563.00
562.64	2555.84
563.00	2547.72
563.35	2541.18
563.71	2534.70
564.06	2528.56
564.42	2521.73
564.77	2514.73
565.12	2507.17
565.48	2499.65
565.83	2491.81
566.19	2483.66
566.54	2476.13
566.89	2467.57
567.25	2459.62
567.60	2452.65
567.96	2445.12
568.31	2437.19
568.66	2428.70
569.02	2419.99
569.37	2411.58
569.72	2403.98
570.08	2394.31
570.43	2385.01
570.78	2376.20
571.14	2366.91
571.49	2356.48
571.84	2347.00
572.20	2335.98
572.55	2325.77
572.90	2314.52
573.26	2303.99
573.61	2292.90
573.96	2281.48
574.31	2269.97
574.67	2258.09
575.02	2245.16
575.37	2231.97
575.72	2218.84
576.08	2206.75
576.43	2193.77
576.78	2180.60
577.13	2167.00
577.49	2154.53
577.84	2142.82
578.19	2130.45
578.54	2117.40
578.90	2105.29
579.25	2093.01
579.60	2080.61
579.95	2067.56
580.30	2054.40
580.66	2041.00
581.01	2027.32
581.36	2013.27
581.71	2000.37
582.06	1987.37
582.42	1974.84
582.77	1962.43
583.12	1950.53
583.47	1938.08
583.82	1926.36
584.17	1914.53
584.53	1902.62
584.88	1889.65
585.23	1876.43
585.58	1861.89
585.93	1848.53
586.28	1835.25
586.63	1821.40
586.98	1807.04
587.34	1793.72
587.69	1780.64
588.04	1767.98
588.39	1755.86
588.74	1743.92
589.09	1731.71
589.44	1719.19
589.79	1706.93
590.14	1694.71
590.49	1682.24
590.84	1669.77
591.19	1657.45
591.54	1645.06
591.89	1633.00
592.25	1622.66
592.60	1610.99
592.95	1599.84
593.30	1587.70
593.65	1575.70
594.00	1563.20
594.35	1553.24
594.70	1541.38
595.05	1529.99
595.40	1517.81
595.75	1505.76
596.10	1494.28
596.45	1482.58
596.80	1471.42
597.15	1460.09
597.50	1448.58
597.85	1437.50
598.19	1426.00
598.54	1414.29
598.89	1402.69
599.24	1391.85
599.59	1379.95
599.94	1369.02
600.29	1358.46
600.64	1348.10
600.99	1337.39
601.34	1328.10
601.69	1316.85
602.04	1306.70
602.39	1296.65
602.74	1287.43
603.08	1277.85
603.43	1268.47
603.78	1258.63
604.13	1249.21
604.48	1239.40
604.83	1229.34
605.18	1219.21
605.53	1209.93
605.87	1200.64
606.22	1192.00
606.57	1182.69
606.92	1173.35
607.27	1164.41
607.62	1155.58
607.96	1147.12
608.31	1138.95
608.66	1130.27
609.01	1121.78
609.36	1113.45
609.70	1104.85
610.05	1096.13
610.40	1087.69
610.75	1078.88
611.10	1070.56
611.44	1061.63
611.79	1053.26
612.14	1045.33
612.49	1037.28
612.83	1029.51
613.18	1021.79
613.53	1013.98
613.88	1005.82
614.22	998.13
614.57	990.01
614.92	981.99
615.27	974.40
615.61	966.68
615.96	959.19
616.31	951.45
616.65	944.28
617.00	936.96
617.35	929.61
617.70	922.40
618.04	915.30
618.39	908.42
618.74	902.17
619.08	895.38
619.43	888.47
619.78	881.46
620.12	874.10
620.47	867.25
620.82	860.21
621.16	853.39
621.51	846.89
621.85	840.45
622.20	833.83
622.55	827.00
622.89	820.44
623.24	813.97
623.59	807.77
623.93	801.38
624.28	795.31
624.62	789.59
624.97	783.71
625.32	777.94
625.66	771.96
626.01	765.73
626.35	760.21
626.70	754.66
627.04	749.38
627.39	743.81
627.73	738.29
628.08	733.06
628.43	727.76
628.77	722.19
629.12	717.01
629.46	712.18
629.81	707.48
630.15	702.71
630.50	697.82
630.84	693.01
631.19	688.24
631.53	683.56
631.88	678.40
632.22	673.50
632.57	668.85
632.91	664.17
633.26	659.63
633.60	654.86
633.95	650.15
634.29	645.34
634.64	640.96
634.98	636.16
635.32	631.60
635.67	627.57
636.01	623.49
636.36	619.13
636.70	615.01
637.05	610.68
637.39	606.45
637.73	602.13
638.08	597.99
638.42	593.79
638.77	589.30
639.11	584.98
639.45	580.57
639.80	576.16
640.14	571.95
640.49	567.85
640.83	563.85
641.17	560.19
641.52	556.57
641.86	552.99
642.20	549.90
642.55	546.37
642.89	542.53
643.23	538.88
643.58	535.60
643.92	531.87
644.26	528.46
644.61	525.25
644.95	521.97
645.29	518.50
645.64	515.12
645.98	512.05
646.32	509.14
646.66	506.00
647.01	503.10
647.35	500.33
647.69	497.48
648.04	494.72
648.38	491.76
648.72	488.69
649.06	485.52
649.41	482.37
649.75	479.31
650.09	476.57
650.43	473.70
650.78	470.81
651.12	468.03
651.46	465.15
651.80	462.28
652.14	459.62
652.49	457.01
652.83	454.44
653.17	451.72
653.51	448.94
653.85	446.53
654.20	443.93
654.54	441.36
654.88	438.69
655.22	436.48
655.56	434.15
655.90	431.92
656.25	429.63
656.59	427.35
656.93	425.12
657.27	422.94
657.61	420.68
657.95	418.42
658.29	416.19
658.64	414.18
658.98	411.95
659.32	409.74
659.66	407.58
660.00	405.51
660.34	403.58
660.68	401.51
661.02	399.56
661.36	397.60
661.70	395.52
662.05	393.65
662.39	391.59
662.73	389.66
663.07	388.01
663.41	386.28
663.75	384.30
664.09	382.59
664.43	380.64
664.77	378.94
665.11	377.21
665.45	375.62
665.79	373.86
666.13	372.17
666.47	370.40
666.81	368.68
667.15	366.95
667.49	365.34
667.83	364.12
668.17	362.64
668.51	361.34
668.85	359.96
669.19	358.89
669.53	357.36
669.87	355.86
670.21	354.20
670.55	352.79
670.89	351.74
671.23	350.31
671.57	348.90
671.91	347.45
672.25	346.15
672.58	344.87
672.92	343.38
673.26	342.17
673.60	341.01
673.94	339.92
674.28	338.82
674.62	337.74
674.96	336.40
675.30	335.10
675.64	333.75
675.97	332.53
676.31	331.11
676.65	329.83
676.99	328.83
677.33	327.68
677.67	326.65
678.01	325.37
678.34	324.42
678.68	323.50
679.02	322.48
679.36	321.33
679.70	320.35
680.04	319.52
680.37	318.49
680.71	317.50
681.05	316.57
681.39	315.66
681.73	314.70
682.06	313.72
682.40	312.88
682.74	312.03
683.08	311.29
683.42	310.37
683.75	309.65
684.09	308.77
684.43	307.93
684.77	307.04
685.10	306.23
685.44	305.31
685.78	304.50
686.12	303.76
686.45	303.08
686.79	302.10
687.13	301.41
687.46	300.72
687.80	300.03
688.14	299.31
688.48	298.55
688.81	297.79
689.15	297.18
689.49	296.45
689.82	295.83
690.16	294.88
690.50	294.20
690.83	293.45
691.17	292.65
691.51	292.01
691.84	291.33
692.18	290.64
692.52	290.00
692.85	289.43
693.19	288.96
693.52	288.30
693.86	287.78
694.20	287.09
694.53	286.51
694.87	285.86
695.21	285.20
695.54	284.66
695.88	284.02
696.21	283.26
696.55	282.75
696.88	282.13
697.22	281.62
697.56	281.05
697.89	280.45
698.23	280.00
698.56	279.46
698.90	279.05
699.23	278.47
699.57	277.94
699.90	277.25
700.24	276.58
700.58	276.14
700.91	275.70
701.25	275.60
701.58	275.44
701.92	275.02
702.25	274.55
702.59	273.99
702.92	273.65
703.26	273.34
703.59	272.89
703.93	272.91
704.26	272.50
704.60	272.08
704.93	271.61
705.26	271.10
705.60	270.72
705.93	270.14
706.27	269.90
706.60	269.68
706.94	269.62
707.27	269.17
707.61	268.79
707.94	268.35
708.27	267.59
708.61	266.84
708.94	266.49
709.28	266.11
709.61	265.73
709.94	265.33
710.28	264.93
710.61	264.55
710.95	263.65
711.28	263.62
711.61	263.23
711.95	263.06
712.28	262.66
712.61	262.28
712.95	262.28
713.28	262.15
713.61	261.69
713.95	261.09
714.28	260.83
714.61	260.41
714.95	260.12
715.28	259.71
715.61	259.30
715.95	258.95
716.28	258.63
716.61	258.36
716.95	257.93
717.28	257.55
717.61	257.15
717.94	256.82
718.28	256.16
718.61	255.80
718.94	255.45
719.27	255.17
719.61	254.93
719.94	254.47
720.27	253.94
720.60	253.66
720.94	253.42
721.27	253.20
721.60	253.02
721.93	252.72
722.27	252.74
722.60	252.56
722.93	252.25
723.26	252.10
723.59	251.86
723.93	251.73
724.26	251.64
724.59	251.46
724.92	251.35
725.25	251.20
725.59	251.08
725.92	250.93
726.25	250.72
726.58	250.54
726.91	250.35
727.24	250.17
727.57	249.93
727.91	249.72
728.24	249.52
728.57	249.28
728.90	249.16
729.23	248.75
729.56	248.83
729.89	248.68
730.22	248.42
730.55	248.18
730.89	248.03
731.22	247.73
731.55	247.53
731.88	247.37
732.21	247.15
732.54	246.89
732.87	246.67
733.20	246.58
733.53	246.46
733.86	246.29
734.19	245.97
734.52	245.90
734.85	246.04
735.18	245.86
735.51	245.84
735.84	245.69
736.17	245.68
736.50	245.25
736.83	245.69
737.16	245.59
737.49	245.51
737.82	245.30
738.15	245.22
738.48	245.07
738.81	244.83
739.14	244.70
739.47	244.56
739.80	244.37
740.13	244.25
740.46	243.95
740.79	243.74
741.12	243.59
741.45	243.36
741.78	242.94
742.11	242.88
742.44	242.60
742.77	242.46
743.10	242.21
743.43	242.10
743.75	241.41
744.08	241.80
744.41	241.56
744.74	241.42
745.07	241.16
745.40	241.10
745.73	241.22
746.06	241.12
746.39	241.05
746.71	240.97
747.04	240.75
747.37	240.63
747.70	240.60
748.03	240.57
748.36	240.55
748.68	240.48
749.01	240.20
749.34	240.11
749.67	240.03
750.00	239.95
750.33	240.14
750.65	240.06
750.98	239.35
751.31	239.26
751.64	239.13
751.97	239.27
752.29	239.04
752.62	238.70
752.95	238.52
753.28	238.35
753.60	238.12
753.93	238.18
754.26	238.26
754.59	237.99
754.91	237.86
755.24	237.71
755.57	237.58
755.90	237.50
756.22	237.33
756.55	237.17
756.88	237.01
757.20	236.64
757.53	236.35
757.86	236.27
758.19	236.23
758.51	236.11
758.84	235.84
759.17	235.81
759.49	235.72
759.82	235.86
760.15	235.80
760.47	235.74
760.80	235.49
761.13	235.38
761.45	235.29
761.78	235.20
762.11	235.10
762.43	234.92
762.76	234.85
763.08	234.89
763.41	234.90
763.74	234.88
764.06	234.71
764.39	234.70
764.71	234.61
765.04	234.50
765.37	234.37
765.69	234.27
766.02	234.12
766.34	234.02
766.67	233.71
767.00	233.71
767.32	233.90
767.65	234.11
767.97	233.88
768.30	233.87
768.62	233.75
768.95	233.57
769.27	233.55
769.60	233.55
769.92	233.42
770.25	233.23
770.57	233.01
770.90	233.03
771.22	232.97
771.55	232.84
771.87	232.74
772.20	232.71
772.52	233.08
772.85	233.60
773.17	233.53
773.50	233.51
773.82	233.36
774.15	233.14
774.47	232.75
774.80	232.75
775.12	232.74
775.45	232.71
775.77	232.71
776.09	232.60
776.42	232.51
776.74	232.53
777.07	232.43
777.39	232.48
777.72	232.35
778.04	232.37
778.36	232.38
778.69	232.34
779.01	232.36
779.33	231.82
779.66	231.28
779.98	231.23
780.31	231.20
780.63	231.49
780.95	231.46
781.28	231.50
781.60	231.39
781.92	231.27
782.25	231.19
782.57	231.18
782.89	231.13
783.22	231.07
783.54	230.98
783.86	231.01
784.19	230.88
784.51	230.96
784.83	230.87
785.16	230.77
785.48	230.70
785.80	230.58
786.12	230.62
786.45	230.61
786.77	230.61
787.09	230.54
787.42	230.32
787.74	230.32
788.06	230.26
788.38	230.22
788.71	230.13
789.03	230.22
789.35	230.23
789.67	230.09
789.99	230.11
790.32	229.98
790.64	230.01
790.96	230.39
791.28	230.24
791.61	230.16
791.93	230.22
792.25	230.31
792.57	230.72
792.89	230.66
793.21	230.66
793.54	230.65
793.86	230.64
794.18	230.54
794.50	230.39
794.82	230.34
795.14	230.42
795.47	230.52
795.79	230.50
796.11	230.40
796.43	230.46
796.75	230.46
797.07	230.50
797.39	230.43
797.71	230.07
798.04	230.11
798.36	230.13
798.68	230.13
799.00	230.08
799.32	229.78
799.64	229.85
799.96	229.80
800.28	229.87
800.60	229.71
800.92	229.78
801.24	229.78
801.56	229.87
801.89	229.75
802.21	229.77
802.53	229.61
802.85	229.69
803.17	229.91
803.49	229.82
803.81	229.74
804.13	229.70
804.45	229.66
804.77	229.68
805.09	229.60
805.41	229.51
805.73	229.38
806.05	229.29
806.37	229.15
806.69	229.10
807.01	229.02
807.33	229.14
807.65	228.93
807.97	229.08
808.28	228.99
808.60	229.02
808.92	228.80
809.24	229.09
809.56	229.02
809.88	228.80
810.20	228.83
810.52	228.94
810.84	228.83
811.16	228.74
811.48	228.70
811.80	228.95
812.12	229.00
812.43	229.13
812.75	229.14
813.07	229.20
813.39	229.24
813.71	229.18
814.03	229.14
814.35	229.14
814.67	228.98
814.98	228.97
815.30	228.94
815.62	228.93
815.94	228.63
816.26	228.79
816.58	228.66
816.89	228.70
817.21	228.55
817.53	228.61
817.85	228.65
818.17	228.65
818.48	228.41
818.80	228.42
819.12	228.29
819.44	228.18
819.76	228.06
820.07	228.03
820.39	228.04
820.71	228.05
821.03	228.08
821.34	228.09
821.66	228.10
821.98	228.19
822.30	228.19
822.61	228.48
822.93	228.31
823.25	228.34
823.57	228.31
823.88	228.42
824.20	228.41
824.52	228.47
824.83	228.41
825.15	228.44
825.47	228.35
825.79	228.44
826.10	228.47
826.42	228.48
826.74	228.52
827.05	228.57
827.37	228.55
827.69	228.51
828.00	228.45
828.32	228.46
828.64	228.35
828.95	228.58
829.27	228.46
829.58	228.43
829.90	228.56
830.22	228.54
830.53	228.43
830.85	228.35
831.17	228.28
831.48	228.28
831.80	228.21
832.11	228.21
832.43	228.12
832.75	228.04
833.06	228.38
833.38	228.23
833.69	228.11
834.01	228.12
834.32	228.13
834.64	228.10
834.96	228.05
835.27	228.11
835.59	227.94
835.90	227.76
836.22	227.79
836.53	227.66
836.85	227.59
837.16	228.05
837.48	228.10
837.79	228.21
838.11	228.18
838.42	228.19
838.74	228.23
839.05	228.13
839.37	228.19
839.68	227.81
840.00	227.85
840.31	227.90
840.63	227.84
840.94	227.73
841.26	227.71
841.57	227.74
841.88	227.73
842.20	227.75
842.51	227.80
842.83	227.70
843.14	228.05
843.46	228.04
843.77	227.75
844.08	227.64
844.40	227.50
844.71	227.55
845.03	227.47
845.34	227.41
845.65	227.42
845.97	227.37
846.28	227.44
846.60	227.47
846.91	227.35
847.22	227.29
847.54	227.42
847.85	227.39
848.16	227.27
848.48	227.13
848.79	227.23
849.10	227.14
849.42	227.17
849.73	226.76
850.04	226.69
850.36	226.54
850.67	226.70
850.98	226.71
851.30	226.73
851.61	226.73
851.92	226.72
852.23	226.85
852.55	226.91
852.86	226.88
853.17	226.85
853.49	226.98
853.80	227.09
854.11	227.11
854.42	227.20
854.74	227.17
855.05	227.20
855.36	226.95
855.67	227.15
855.99	227.13
856.30	227.69
856.61	227.75
856.92	227.68
857.23	227.63
857.55	227.60
857.86	227.50
858.17	227.59
858.48	227.47
858.79	227.43
859.11	227.47
859.42	227.45
859.73	227.38
860.04	227.40
860.35	227.30
860.66	227.15
860.98	227.12
861.29	227.13
861.60	227.16
861.91	227.25
862.22	227.10
862.53	227.04
862.84	226.51
863.16	226.57
863.47	226.50
863.78	226.49
864.09	226.54
864.40	226.60
864.71	226.58
865.02	226.73
865.33	226.69
865.64	226.62
865.95	226.63
866.27	226.85
866.58	226.79
866.89	226.84
867.20	226.82
867.51	226.77
867.82	226.83
868.13	226.95
868.44	226.95
868.75	227.06
869.06	227.03
869.37	227.06
869.68	227.00
869.99	227.14
870.30	227.18
870.61	227.23
870.92	227.19
871.23	227.13
871.54	227.05
871.85	227.14
872.16	227.18
872.47	227.15
872.78	226.97
873.09	226.99
873.40	226.95
873.71	227.03
874.02	226.99
874.33	226.95
874.64	226.83
874.95	226.95
875.26	226.87
875.56	227.00
875.87	226.98
876.18	226.92
876.49	227.40
876.80	227.31
877.11	227.16
877.42	227.10
877.73	227.12
878.04	227.15
878.35	227.15
878.66	227.21
878.96	227.25
879.27	227.20
879.58	227.22
879.89	227.18
880.20	227.35
880.51	227.39
880.82	227.44
881.12	227.47
881.43	227.31
881.74	227.25
882.05	227.15
882.36	227.18
882.67	227.26
882.97	226.78
883.28	226.77
883.59	226.81
883.90	226.91
884.21	226.98
884.51	227.07
884.82	226.96
885.13	226.91
885.44	226.87
885.74	226.86
886.05	226.82
886.36	226.91
886.67	226.63
886.98	226.83
887.28	226.85
887.59	226.85
887.90	226.92
888.20	226.90
888.51	226.98
888.82	226.93
889.13	226.95
889.43	227.30
889.74	227.23
890.05	227.25
890.35	227.16
890.66	227.07
890.97	226.94
891.28	226.87
891.58	226.88
891.89	226.89
892.20	226.80
892.50	226.82
892.81	226.71
893.12	226.75
893.42	226.57
893.73	226.48
894.04	226.36
894.34	226.38
894.65	226.38
894.95	226.29
895.26	226.33
895.57	226.49
895.87	226.02
896.18	226.17
896.48	226.15
896.79	226.16
897.10	226.22
897.40	226.21
897.71	226.29
898.01	226.23
898.32	226.25
898.63	226.30
898.93	226.25
899.24	226.27
899.54	226.30
899.85	226.35
900.15	226.40
900.46	226.51
900.76	226.57
901.07	226.51
901.38	226.55
901.68	226.65
901.99	226.45
902.29	226.46
902.60	226.36
902.90	226.32
903.21	226.30
903.51	226.30
903.82	226.47
904.12	226.51
904.43	226.54
904.73	226.53
905.03	226.60
905.34	227.06
905.64	227.07
905.95	227.05
906.25	226.98
906.56	227.00
906.86	226.99
907.17	226.85
907.47	226.95
907.77	226.95
908.08	226.76
908.38	226.80
908.69	226.89
908.99	227.09
909.30	227.13
909.60	227.16
909.90	227.15
910.21	226.97
910.51	226.91
910.81	226.94
911.12	226.97
911.42	226.95
911.73	226.48
912.03	226.52
912.33	226.65
912.64	226.67
912.94	226.63
913.24	226.55
913.55	226.51
913.85	226.45
914.15	226.58
914.46	226.65
914.76	226.61
915.06	226.54
915.37	226.34
915.67	226.36
915.97	226.39
916.27	226.28
916.58	226.34
916.88	226.31
917.18	226.31
917.49	226.61
917.79	226.64
918.09	226.69
918.39	226.83
918.70	226.79
919.00	226.81
919.30	227.03
919.60	227.03
919.91	227.07
920.21	227.13
920.51	227.07
920.81	227.10
921.12	227.21
921.42	227.21
921.72	227.32
922.02	227.35
922.32	227.37
922.63	227.43
922.93	227.70
923.23	227.74
923.53	227.65
923.83	227.36
924.13	227.32
924.44	227.28
924.74	227.27
925.04	227.35
925.34	227.30
925.64	227.08
925.94	227.15
926.24	227.39
926.55	227.32
926.85	227.25
927.15	227.26
927.45	227.15
927.75	227.11
928.05	227.08
928.35	227.01
928.65	227.09
928.95	227.20
929.26	226.92
929.56	227.02
929.86	227.11
930.16	227.04
930.46	227.07
930.76	227.10
931.06	226.86
931.36	226.70
931.66	226.77
931.96	226.82
932.26	226.80
932.56	226.55
932.86	226.56
933.16	226.56
933.46	226.48
933.76	226.47
934.06	226.67
934.36	226.84
934.66	226.85
934.96	226.78
935.26	226.73
935.56	226.85
935.86	226.78
936.16	226.64
936.46	226.59
936.76	226.52
937.06	226.41
937.36	226.56
937.66	226.62
937.96	226.57
938.26	226.45
938.56	226.43
938.86	226.48
939.16	226.62
939.46	226.63
939.76	226.68
940.06	226.65
940.35	226.51
940.65	226.24
940.95	226.25
941.25	226.06
941.55	226.02
941.85	225.99
942.15	226.04
942.45	226.23
942.75	226.27
943.04	226.34
943.34	226.48
943.64	226.32
943.94	226.25
944.24	226.35
944.54	226.42
944.84	226.42
945.13	226.38
945.43	226.23
945.73	226.27
946.03	226.24
946.33	226.25
946.62	226.24
946.92	226.29
947.22	226.31
947.52	226.43
947.82	226.50
948.11	226.39
948.41	226.25
948.71	226.17
949.01	226.18
949.31	226.12
949.60	226.15
949.90	226.26
950.20	226.25
950.50	226.21
950.79	226.16
951.09	226.26
951.39	226.26
951.69	226.28
951.98	226.35
952.28	226.39
952.58	226.35
952.87	226.40
953.17	226.42
953.47	226.43
953.76	226.45
954.06	226.37
954.36	226.33
954.66	226.38
954.95	226.44
955.25	226.53
955.55	226.67
955.84	226.57
956.14	226.66
956.44	226.70
956.73	226.63
957.03	226.68
957.32	226.61
957.62	226.60
957.92	226.66
958.21	226.70
958.51	227.25
958.81	227.32
959.10	227.36
959.40	227.49
959.69	227.52
959.99	227.62
960.29	227.61
960.58	227.64
960.88	227.80
961.17	227.73
961.47	227.78
961.76	227.60
962.06	227.71
962.36	227.64
962.65	227.72
962.95	227.77
963.24	227.65
963.54	227.67
963.83	227.66
964.13	227.68
964.42	227.48
964.72	227.06
965.01	227.09
965.31	227.01
965.60	226.86
965.90	227.13
966.19	227.02
966.49	227.02
966.78	227.04
967.08	226.98
967.37	227.02
967.67	226.90
967.96	227.01
968.26	226.94
968.55	226.97
968.85	226.83
969.14	226.74
969.43	226.84
969.73	226.82
970.02	226.87
970.32	226.78
970.61	226.75
970.91	226.60
971.20	226.49
971.49	226.41
971.79	226.42
972.08	226.09
972.38	226.07
972.67	226.05
972.96	226.03
973.26	225.92
973.55	226.07
973.85	226.00
974.14	225.98
974.43	226.02
974.73	225.92
975.02	225.98
975.31	226.08
975.61	225.96
975.90	225.87
976.19	225.72
976.49	225.78
976.78	225.82
977.07	225.80
977.37	225.84
977.66	225.96
977.95	225.87
978.24	225.89
978.54	225.97
978.83	225.98
979.12	225.95
979.42	225.97
979.71	225.87
980.00	225.90
980.29	225.92
980.59	225.79
980.88	225.90
981.17	225.85
981.46	225.80
981.76	225.87
982.05	226.03
982.34	226.15
982.63	226.16
982.93	226.20
983.22	226.40
983.51	226.46
983.80	226.42
984.09	226.54
984.39	226.50
984.68	226.47
984.97	226.45
985.26	226.45
985.55	226.50
985.85	226.38
986.14	226.48
986.43	226.47
986.72	226.49
987.01	226.37
987.30	226.42
987.59	226.39
987.89	226.41
988.18	226.32
988.47	226.22
988.76	226.20
989.05	226.11
989.34	226.02
989.63	226.05
989.92	226.07
990.22	226.05
990.51	226.07
990.80	226.04
991.09	226.07
991.38	226.21
991.67	226.20
991.96	226.21
992.25	226.16
992.54	226.23
992.83	226.29
993.12	226.26
993.41	226.33
993.70	226.51
993.99	226.64
994.28	226.70
994.58	226.87
994.87	226.85
995.16	226.89
995.45	226.85
995.74	226.71
996.03	226.82
996.32	226.88
996.61	226.97
996.90	226.99
997.19	227.00
997.48	227.00
997.77	226.88
998.06	226.92
998.34	226.90
998.63	226.80
998.92	226.83
999.21	226.98
999.50	227.00
999.79	226.88
1000.08	226.79
1000.37	226.75
1000.66	226.66
1000.95	226.73
1001.24	226.74
1001.53	226.80
1001.82	226.80
1002.11	226.65
1002.40	226.69
1002.68	226.85
1002.97	227.16
1003.26	227.12
1003.55	227.01
1003.84	227.06
1004.13	227.19
1004.42	227.25
1004.71	227.27
1004.99	227.18
1005.28	227.24
1005.57	227.15
1005.86	227.11
1006.15	227.05
1006.44	227.00
1006.72	227.12
1007.01	227.05
1007.30	227.09
1007.59	227.04
1007.88	227.05
1008.17	227.00
1008.45	226.90
1008.74	226.65
1009.03	226.49
1009.32	226.45
1009.60	226.47
1009.89	226.45
1010.18	226.25
1010.47	226.18
1010.76	226.13
1011.04	226.11
1011.33	226.12
1011.62	226.18
1011.91	226.20
1012.19	226.35
1012.48	226.39
1012.77	226.37
1013.05	226.60
1013.34	226.60
1013.63	226.61
1013.92	226.73
1014.20	226.84
1014.49	226.84
1014.78	226.85
1015.06	226.62
1015.35	226.75
1015.64	226.78
1015.92	226.84
1016.21	226.87
1016.50	226.84
1016.78	226.92
1017.07	227.03
1017.36	226.98
1017.64	226.88
1017.93	226.92
1018.22	226.83
1018.50	226.79
1018.79	226.74
1019.08	226.48
1019.36	226.50
1019.65	226.46
1019.93	226.55
1020.22	226.50
1020.51	226.67
1020.79	226.61
1021.08	226.00
1021.36	225.75
1021.65	226.60
1021.94	225.60
1022.22	226.90
1022.51	226.40
1022.79	229.45
1023.08	225.95
1023.36	230.15
1023.65	224.70
>>>>>End Processed Spectral Data<<<<<
