SpectraSuite Data File
++++++++++++++++++++++++++++++++++++
Date: Wed Sep 04 17:44:55 EDT 2013
User: lab3
Dark Spectrum Present: Yes
Reference Spectrum Present: No
Number of Sampled Component Spectra: 1
Spectrometers: USB2E7196
Integration Time (usec): 170000 (USB2E7196)
Spectra Averaged: 20 (USB2E7196)
Boxcar Smoothing: 10 (USB2E7196)
Correct for Electrical Dark: No (USB2E7196)
Strobe/Lamp Enabled: No (USB2E7196)
Correct for Detector Non-linearity: No (USB2E7196)
Correct for Stray Light: No (USB2E7196)
Number of Pixels in Processed Spectrum: 2048
>>>>>Begin Processed Spectral Data<<<<<
339.09	0.00
339.48	214.35
339.86	213.60
340.24	215.40
340.63	216.50
341.01	225.50
341.39	219.55
341.78	222.35
342.16	223.50
342.54	222.85
342.93	212.07
343.31	222.79
343.69	223.29
344.07	223.83
344.46	224.32
344.84	224.73
345.22	224.77
345.60	225.12
345.99	225.25
346.37	225.39
346.75	225.47
347.13	225.52
347.52	225.54
347.90	225.81
348.28	225.80
348.66	225.94
349.05	225.70
349.43	225.78
349.81	225.90
350.19	225.90
350.57	225.91
350.96	226.10
351.34	226.21
351.72	226.23
352.10	226.30
352.48	226.28
352.87	226.37
353.25	226.39
353.63	226.34
354.01	226.43
354.39	226.42
354.77	226.58
355.15	226.80
355.54	226.83
355.92	226.70
356.30	226.75
356.68	227.17
357.06	227.38
357.44	227.46
357.82	227.47
358.20	227.96
358.58	227.97
358.97	228.01
359.35	228.15
359.73	228.39
360.11	228.48
360.49	228.59
360.87	228.57
361.25	228.67
361.63	228.89
362.01	228.98
362.39	229.06
362.77	229.07
363.15	229.09
363.53	229.17
363.91	229.19
364.29	229.21
364.67	228.78
365.05	228.81
365.43	228.83
365.81	229.00
366.19	228.83
366.57	229.10
366.95	229.11
367.33	228.98
367.71	228.89
368.09	228.90
368.47	228.90
368.85	228.95
369.23	229.05
369.61	228.95
369.99	229.07
370.37	229.16
370.75	229.40
371.13	229.29
371.51	229.21
371.89	229.24
372.27	229.29
372.65	229.28
373.03	229.32
373.41	229.24
373.78	229.11
374.16	228.85
374.54	228.61
374.92	228.53
375.30	228.51
375.68	228.42
376.06	228.40
376.44	228.36
376.82	228.33
377.19	228.24
377.57	228.12
377.95	227.92
378.33	227.74
378.71	227.40
379.09	227.39
379.47	227.43
379.84	227.34
380.22	227.22
380.60	227.04
380.98	226.81
381.36	226.85
381.73	226.76
382.11	226.77
382.49	226.75
382.87	226.65
383.25	226.50
383.62	226.97
384.00	226.81
384.38	226.77
384.76	226.80
385.13	226.90
385.51	226.81
385.89	226.67
386.27	226.68
386.64	226.71
387.02	226.58
387.40	226.46
387.78	226.47
388.15	226.44
388.53	226.41
388.91	226.42
389.29	226.29
389.66	226.30
390.04	226.24
390.42	226.25
390.79	226.29
391.17	226.31
391.55	225.72
391.92	225.74
392.30	225.76
392.68	225.62
393.05	225.52
393.43	225.56
393.81	225.61
394.18	225.54
394.56	225.51
394.94	225.65
395.31	225.58
395.69	225.69
396.06	225.80
396.44	225.81
396.82	225.72
397.19	226.01
397.57	225.98
397.95	226.11
398.32	226.00
398.70	226.07
399.07	226.25
399.45	226.39
399.82	226.41
400.20	226.40
400.58	226.55
400.95	226.52
401.33	226.74
401.70	227.25
402.08	227.39
402.45	227.56
402.83	227.81
403.20	228.07
403.58	228.13
403.95	228.34
404.33	228.58
404.71	228.85
405.08	229.38
405.46	229.60
405.83	229.82
406.21	230.09
406.58	230.41
406.96	230.61
407.33	230.95
407.70	231.33
408.08	232.06
408.45	232.48
408.83	232.97
409.20	233.31
409.58	233.39
409.95	233.86
410.33	234.38
410.70	234.73
411.08	235.30
411.45	235.96
411.82	236.52
412.20	237.31
412.57	238.33
412.95	238.55
413.32	239.41
413.69	240.23
414.07	241.19
414.44	242.16
414.82	243.24
415.19	244.46
415.56	245.70
415.94	246.67
416.31	248.07
416.68	249.40
417.06	250.97
417.43	252.67
417.81	254.41
418.18	256.11
418.55	258.03
418.93	260.08
419.30	262.14
419.67	264.32
420.04	266.49
420.42	268.70
420.79	271.67
421.16	274.39
421.54	277.32
421.91	280.21
422.28	283.22
422.66	286.36
423.03	289.65
423.40	292.86
423.77	296.33
424.15	299.77
424.52	303.52
424.89	307.56
425.26	311.35
425.64	315.01
426.01	319.16
426.38	323.42
426.75	327.75
427.13	332.14
427.50	336.74
427.87	341.52
428.24	346.25
428.61	350.58
428.99	355.83
429.36	361.20
429.73	366.54
430.10	371.90
430.47	377.47
430.85	382.79
431.22	388.80
431.59	395.42
431.96	401.53
432.33	408.17
432.70	414.75
433.08	422.38
433.45	429.59
433.82	436.75
434.19	444.76
434.56	452.56
434.93	460.12
435.30	467.62
435.68	475.79
436.05	483.97
436.42	492.21
436.79	499.48
437.16	507.50
437.53	516.03
437.90	524.48
438.27	532.80
438.64	541.58
439.01	549.64
439.38	556.57
439.75	563.45
440.13	571.37
440.50	578.59
440.87	584.54
441.24	590.82
441.61	597.47
441.98	602.35
442.35	608.05
442.72	613.84
443.09	619.68
443.46	623.31
443.83	625.71
444.20	627.59
444.57	630.28
444.94	631.35
445.31	632.44
445.68	633.74
446.05	633.77
446.42	632.57
446.79	631.15
447.16	629.63
447.53	628.50
447.90	624.84
448.27	621.29
448.64	616.46
449.01	612.90
449.37	606.99
449.74	601.22
450.11	594.70
450.48	587.10
450.85	579.22
451.22	572.46
451.59	565.98
451.96	559.82
452.33	552.02
452.70	544.99
453.07	536.56
453.43	527.66
453.80	519.66
454.17	511.79
454.54	504.28
454.91	496.46
455.28	488.72
455.65	481.58
456.02	474.95
456.38	468.76
456.75	461.19
457.12	454.87
457.49	448.72
457.86	442.40
458.23	437.46
458.59	431.94
458.96	426.41
459.33	421.44
459.70	416.54
460.07	412.60
460.43	408.03
460.80	403.83
461.17	400.39
461.54	396.49
461.91	392.84
462.27	389.18
462.64	385.99
463.01	382.48
463.38	379.16
463.74	375.21
464.11	372.40
464.48	369.85
464.85	367.11
465.21	365.07
465.58	362.84
465.95	360.19
466.32	358.01
466.68	355.79
467.05	353.64
467.42	351.52
467.78	349.25
468.15	347.16
468.52	345.68
468.88	343.35
469.25	341.49
469.62	340.05
469.98	338.52
470.35	336.98
470.72	335.52
471.08	333.90
471.45	332.77
471.82	331.54
472.18	330.11
472.55	329.12
472.92	327.74
473.28	326.63
473.65	325.47
474.02	324.43
474.38	323.61
474.75	322.85
475.11	321.93
475.48	321.32
475.85	320.67
476.21	319.92
476.58	319.53
476.94	319.18
477.31	318.75
477.67	318.23
478.04	317.85
478.41	317.66
478.77	317.92
479.14	317.59
479.50	317.45
479.87	317.46
480.23	317.43
480.60	317.46
480.96	317.52
481.33	317.90
481.69	318.09
482.06	318.20
482.42	318.51
482.79	318.88
483.15	319.29
483.52	319.95
483.88	320.47
484.25	320.91
484.61	321.47
484.98	322.01
485.34	322.98
485.71	323.90
486.07	324.91
486.44	325.55
486.80	326.75
487.17	327.93
487.53	329.37
487.90	330.87
488.26	332.45
488.62	334.05
488.99	335.59
489.35	337.44
489.72	339.37
490.08	341.25
490.44	343.30
490.81	345.46
491.17	347.69
491.54	350.13
491.90	352.77
492.26	355.45
492.63	358.38
492.99	361.14
493.36	364.20
493.72	367.42
494.08	370.84
494.45	374.40
494.81	378.25
495.17	382.10
495.54	386.12
495.90	390.29
496.26	394.74
496.63	399.24
496.99	403.90
497.35	408.86
497.72	414.11
498.08	419.41
498.44	425.10
498.80	431.16
499.17	437.22
499.53	443.36
499.89	449.95
500.26	456.55
500.62	463.62
500.98	470.90
501.34	478.32
501.71	485.90
502.07	493.58
502.43	501.46
502.79	509.71
503.16	518.29
503.52	527.18
503.88	536.13
504.24	545.75
504.60	555.50
504.97	565.60
505.33	575.87
505.69	586.79
506.05	597.68
506.41	608.58
506.78	620.13
507.14	632.01
507.50	644.19
507.86	656.75
508.22	669.61
508.59	682.44
508.95	695.88
509.31	709.79
509.67	723.90
510.03	738.06
510.39	752.41
510.75	767.10
511.12	782.11
511.48	797.61
511.84	813.08
512.20	828.74
512.56	844.85
512.92	861.26
513.28	878.05
513.64	894.89
514.00	911.96
514.37	929.21
514.73	947.18
515.09	964.97
515.45	982.97
515.81	1000.98
516.17	1019.44
516.53	1037.66
516.89	1055.93
517.25	1074.86
517.61	1094.70
517.97	1114.79
518.33	1134.60
518.69	1154.32
519.05	1174.45
519.41	1194.41
519.77	1215.09
520.13	1235.12
520.49	1255.48
520.85	1275.70
521.21	1296.24
521.57	1317.14
521.93	1337.40
522.29	1357.99
522.65	1378.13
523.01	1398.57
523.37	1418.71
523.73	1438.99
524.09	1459.02
524.45	1479.22
524.81	1499.49
525.17	1519.37
525.53	1539.26
525.89	1559.27
526.25	1579.65
526.61	1599.18
526.97	1619.83
527.33	1640.35
527.68	1661.64
528.04	1682.06
528.40	1702.30
528.76	1722.57
529.12	1742.56
529.48	1762.69
529.84	1781.88
530.20	1802.27
530.56	1822.17
530.91	1842.19
531.27	1861.87
531.63	1881.77
531.99	1901.59
532.35	1920.82
532.71	1940.32
533.07	1960.01
533.42	1979.22
533.78	1998.35
534.14	2017.59
534.50	2035.87
534.86	2054.25
535.21	2070.89
535.57	2088.63
535.93	2105.56
536.29	2122.53
536.65	2139.79
537.00	2156.79
537.36	2173.62
537.72	2189.42
538.08	2205.86
538.44	2221.99
538.79	2238.23
539.15	2253.98
539.51	2269.18
539.87	2283.67
540.22	2296.88
540.58	2310.86
540.94	2323.34
541.29	2335.40
541.65	2347.49
542.01	2359.17
542.37	2368.88
542.72	2379.16
543.08	2388.86
543.44	2399.87
543.79	2409.29
544.15	2418.30
544.51	2427.65
544.87	2436.73
545.22	2445.18
545.58	2452.26
545.94	2458.30
546.29	2463.56
546.65	2469.37
547.01	2474.31
547.36	2479.30
547.72	2484.42
548.07	2487.33
548.43	2492.22
548.79	2496.14
549.14	2499.43
549.50	2502.73
549.86	2506.22
550.21	2509.74
550.57	2512.95
550.92	2513.69
551.28	2514.49
551.64	2516.05
551.99	2517.09
552.35	2518.21
552.70	2519.59
553.06	2520.98
553.41	2522.12
553.77	2523.43
554.13	2524.17
554.48	2525.09
554.84	2525.67
555.19	2526.22
555.55	2527.66
555.90	2526.17
556.26	2525.10
556.61	2523.17
556.97	2520.73
557.32	2519.82
557.68	2518.10
558.03	2516.25
558.39	2514.75
558.74	2513.59
559.10	2510.09
559.45	2506.22
559.81	2501.23
560.16	2495.70
560.52	2490.54
560.87	2485.90
561.23	2480.25
561.58	2474.38
561.94	2467.60
562.29	2460.48
562.64	2453.32
563.00	2444.92
563.35	2438.48
563.71	2431.44
564.06	2425.10
564.42	2418.56
564.77	2411.50
565.12	2403.95
565.48	2396.17
565.83	2388.26
566.19	2380.26
566.54	2372.50
566.89	2364.99
567.25	2357.35
567.60	2349.97
567.96	2342.09
568.31	2334.04
568.66	2325.69
569.02	2316.40
569.37	2308.31
569.72	2300.78
570.08	2291.75
570.43	2282.18
570.78	2273.20
571.14	2263.92
571.49	2253.85
571.84	2244.15
572.20	2233.21
572.55	2223.30
572.90	2212.49
573.26	2202.10
573.61	2191.12
573.96	2180.11
574.31	2167.87
574.67	2156.35
575.02	2144.14
575.37	2131.79
575.72	2118.92
576.08	2107.18
576.43	2095.15
576.78	2082.40
577.13	2069.39
577.49	2057.19
577.84	2045.75
578.19	2034.02
578.54	2021.91
578.90	2010.26
579.25	1998.23
579.60	1986.17
579.95	1973.61
580.30	1960.80
580.66	1947.81
581.01	1934.76
581.36	1921.32
581.71	1909.43
582.06	1896.96
582.42	1884.77
582.77	1872.81
583.12	1861.25
583.47	1849.35
583.82	1838.06
584.17	1826.33
584.53	1814.74
584.88	1802.12
585.23	1789.50
585.58	1775.82
585.93	1762.97
586.28	1750.29
586.63	1737.13
586.98	1723.74
587.34	1710.78
587.69	1698.23
588.04	1686.24
588.39	1674.79
588.74	1663.06
589.09	1651.32
589.44	1639.28
589.79	1627.74
590.14	1616.10
590.49	1604.34
590.84	1592.76
591.19	1581.16
591.54	1569.46
591.89	1557.74
592.25	1547.69
592.60	1536.60
592.95	1525.74
593.30	1514.74
593.65	1503.24
594.00	1491.80
594.35	1482.24
594.70	1471.30
595.05	1460.28
595.40	1448.70
595.75	1437.19
596.10	1426.40
596.45	1415.26
596.80	1404.71
597.15	1393.89
597.50	1382.75
597.85	1372.18
598.19	1361.13
598.54	1350.05
598.89	1339.25
599.24	1328.96
599.59	1318.12
599.94	1307.73
600.29	1297.77
600.64	1287.60
600.99	1277.32
601.34	1268.19
601.69	1257.50
602.04	1248.18
602.39	1239.08
602.74	1230.68
603.08	1221.60
603.43	1213.11
603.78	1204.04
604.13	1194.87
604.48	1185.44
604.83	1176.22
605.18	1166.72
605.53	1157.65
605.87	1148.83
606.22	1140.73
606.57	1131.95
606.92	1122.93
607.27	1114.58
607.62	1106.32
607.96	1098.10
608.31	1090.72
608.66	1082.69
609.01	1074.75
609.36	1066.57
609.70	1058.58
610.05	1050.24
610.40	1042.45
610.75	1034.09
611.10	1026.07
611.44	1017.97
611.79	1010.26
612.14	1002.73
612.49	995.29
612.83	988.07
613.18	980.70
613.53	973.24
613.88	965.62
614.22	958.32
614.57	950.77
614.92	943.31
615.27	936.31
615.61	928.95
615.96	921.59
616.31	914.30
616.65	907.56
617.00	900.38
617.35	893.43
617.70	886.44
618.04	879.60
618.39	873.07
618.74	866.98
619.08	860.54
619.43	853.75
619.78	847.15
620.12	840.26
620.47	833.70
620.82	826.98
621.16	820.50
621.51	814.48
621.85	808.56
622.20	802.24
622.55	795.84
622.89	789.75
623.24	783.96
623.59	778.04
623.93	771.93
624.28	766.27
624.62	760.94
624.97	755.52
625.32	750.08
625.66	744.36
626.01	738.51
626.35	733.13
626.70	727.95
627.04	723.01
627.39	717.76
627.73	712.75
628.08	707.76
628.43	702.73
628.77	697.53
629.12	692.43
629.46	687.79
629.81	683.35
630.15	678.55
630.50	673.63
630.84	669.13
631.19	664.57
631.53	660.07
631.88	654.90
632.22	650.32
632.57	646.09
632.91	641.82
633.26	637.69
633.60	633.26
633.95	628.77
634.29	623.98
634.64	619.85
634.98	615.17
635.32	611.11
635.67	607.29
636.01	603.31
636.36	599.27
636.70	595.37
637.05	591.23
637.39	587.37
637.73	583.67
638.08	579.94
638.42	575.85
638.77	571.74
639.11	567.67
639.45	563.50
639.80	559.23
640.14	555.25
640.49	551.29
640.83	547.72
641.17	544.27
641.52	540.93
641.86	537.35
642.20	534.48
642.55	530.99
642.89	527.50
643.23	524.20
643.58	521.16
643.92	517.74
644.26	514.50
644.61	511.44
644.95	508.20
645.29	504.78
645.64	501.80
645.98	498.94
646.32	496.24
646.66	493.23
647.01	490.45
647.35	487.83
647.69	485.04
648.04	482.38
648.38	479.63
648.72	476.93
649.06	474.18
649.41	471.19
649.75	468.28
650.09	465.48
650.43	462.72
650.78	459.82
651.12	457.14
651.46	454.47
651.80	451.78
652.14	449.07
652.49	446.79
652.83	444.30
653.17	441.77
653.51	439.26
653.85	437.01
654.20	434.54
654.54	431.97
654.88	429.59
655.22	427.38
655.56	425.16
655.90	422.86
656.25	420.63
656.59	418.53
656.93	416.48
657.27	414.53
657.61	412.29
657.95	410.17
658.29	408.02
658.64	406.06
658.98	403.94
659.32	401.79
659.66	399.65
660.00	397.70
660.34	395.73
660.68	393.76
661.02	391.84
661.36	389.98
661.70	388.17
662.05	386.38
662.39	384.40
662.73	382.74
663.07	381.14
663.41	379.39
663.75	377.44
664.09	375.66
664.43	373.73
664.77	372.10
665.11	370.52
665.45	368.99
665.79	367.43
666.13	365.81
666.47	364.28
666.81	362.67
667.15	361.01
667.49	359.61
667.83	358.32
668.17	356.85
668.51	355.50
668.85	354.20
669.19	353.08
669.53	351.72
669.87	350.23
670.21	348.73
670.55	347.42
670.89	346.40
671.23	345.16
671.57	343.95
671.91	342.66
672.25	341.28
672.58	340.13
672.92	338.75
673.26	337.56
673.60	336.42
673.94	335.28
674.28	334.20
674.62	333.10
674.96	331.80
675.30	330.73
675.64	329.59
675.97	328.44
676.31	327.06
676.65	325.77
676.99	324.72
677.33	323.66
677.67	322.73
678.01	321.60
678.34	320.55
678.68	319.58
679.02	318.40
679.36	317.41
679.70	316.36
680.04	315.49
680.37	314.59
680.71	313.67
681.05	312.82
681.39	311.94
681.73	311.05
682.06	310.22
682.40	309.41
682.74	308.64
683.08	307.93
683.42	307.12
683.75	306.44
684.09	305.63
684.43	304.78
684.77	303.91
685.10	303.03
685.44	302.20
685.78	301.40
686.12	300.87
686.45	300.19
686.79	299.44
687.13	298.78
687.46	298.03
687.80	297.39
688.14	296.61
688.48	295.84
688.81	295.04
689.15	294.37
689.49	293.53
689.82	292.80
690.16	291.88
690.50	291.23
690.83	290.50
691.17	289.70
691.51	289.07
691.84	288.51
692.18	287.86
692.52	287.29
692.85	286.75
693.19	286.19
693.52	285.57
693.86	284.90
694.20	284.27
694.53	283.68
694.87	283.12
695.21	282.48
695.54	282.00
695.88	281.40
696.21	280.76
696.55	280.29
696.88	279.67
697.22	279.12
697.56	278.54
697.89	277.99
698.23	277.46
698.56	276.88
698.90	276.35
699.23	275.82
699.57	275.29
699.90	274.71
700.24	274.05
700.58	273.62
700.91	273.32
701.25	273.23
701.58	273.09
701.92	272.70
702.25	272.31
702.59	271.85
702.92	271.35
703.26	270.90
703.59	270.41
703.93	270.41
704.26	270.03
704.60	269.71
704.93	269.22
705.26	268.84
705.60	268.47
705.93	267.91
706.27	267.66
706.60	267.43
706.94	267.24
707.27	266.80
707.61	266.41
707.94	265.99
708.27	265.15
708.61	264.42
708.94	263.92
709.28	263.55
709.61	263.09
709.94	262.75
710.28	262.44
710.61	262.11
710.95	261.35
711.28	261.31
711.61	260.85
711.95	260.70
712.28	260.36
712.61	260.07
712.95	259.99
713.28	259.80
713.61	259.45
713.95	258.97
714.28	258.71
714.61	258.26
714.95	257.92
715.28	257.60
715.61	257.30
715.95	256.99
716.28	256.57
716.61	256.39
716.95	256.13
717.28	255.85
717.61	255.57
717.94	255.32
718.28	254.73
718.61	254.51
718.94	254.14
719.27	253.79
719.61	253.55
719.94	253.19
720.27	252.77
720.60	252.44
720.94	252.17
721.27	252.01
721.60	251.97
721.93	251.69
722.27	251.70
722.60	251.53
722.93	251.32
723.26	251.25
723.59	250.91
723.93	250.75
724.26	250.51
724.59	250.27
724.92	250.09
725.25	250.03
725.59	249.89
725.92	249.80
726.25	249.62
726.58	249.43
726.91	249.28
727.24	249.15
727.57	248.96
727.91	248.72
728.24	248.59
728.57	248.29
728.90	248.22
729.23	247.86
729.56	247.89
729.89	247.71
730.22	247.52
730.55	247.42
730.89	247.26
731.22	247.14
731.55	246.88
731.88	246.75
732.21	246.47
732.54	246.18
732.87	246.02
733.20	245.92
733.53	245.78
733.86	245.63
734.19	245.30
734.52	245.18
734.85	245.39
735.18	245.12
735.51	245.12
735.84	244.90
736.17	244.91
736.50	244.50
736.83	244.89
737.16	244.70
737.49	244.57
737.82	244.35
738.15	244.22
738.48	244.13
738.81	243.91
739.14	243.68
739.47	243.47
739.80	243.23
740.13	243.14
740.46	242.90
740.79	242.64
741.12	242.55
741.45	242.30
741.78	241.83
742.11	241.84
742.44	241.60
742.77	241.56
743.10	241.17
743.43	241.09
743.75	240.42
744.08	240.92
744.41	240.70
744.74	240.49
745.07	240.22
745.40	240.16
745.73	240.22
746.06	240.08
746.39	240.06
746.71	239.92
747.04	239.67
747.37	239.52
747.70	239.49
748.03	239.31
748.36	239.34
748.68	239.25
749.01	239.02
749.34	238.90
749.67	238.78
750.00	238.85
750.33	239.04
750.65	239.02
750.98	238.25
751.31	238.17
751.64	238.20
751.97	238.34
752.29	238.19
752.62	237.83
752.95	237.75
753.28	237.54
753.60	237.45
753.93	237.53
754.26	237.49
754.59	237.23
754.91	237.13
755.24	236.95
755.57	236.84
755.90	236.76
756.22	236.60
756.55	236.43
756.88	236.19
757.20	235.70
757.53	235.42
757.86	235.31
758.19	235.23
758.51	235.05
758.84	234.75
759.17	234.65
759.49	234.68
759.82	234.89
760.15	234.82
760.47	234.68
760.80	234.41
761.13	234.43
761.45	234.41
761.78	234.34
762.11	234.24
762.43	234.09
762.76	234.00
763.08	234.04
763.41	233.96
763.74	234.00
764.06	233.99
764.39	233.99
764.71	233.97
765.04	233.92
765.37	233.88
765.69	233.83
766.02	233.70
766.34	233.57
766.67	233.26
767.00	233.40
767.32	233.63
767.65	233.93
767.97	233.75
768.30	233.68
768.62	233.63
768.95	233.52
769.27	233.51
769.60	233.47
769.92	233.20
770.25	233.08
770.57	232.95
770.90	232.84
771.22	232.78
771.55	232.66
771.87	232.60
772.20	232.44
772.52	232.80
772.85	233.36
773.17	233.33
773.50	233.27
773.82	233.09
774.15	232.77
774.47	232.34
774.80	232.30
775.12	232.18
775.45	232.18
775.77	232.12
776.09	232.04
776.42	232.03
776.74	232.22
777.07	232.15
777.39	232.12
777.72	232.05
778.04	232.00
778.36	231.98
778.69	231.91
779.01	231.95
779.33	231.49
779.66	230.89
779.98	230.83
780.31	230.78
780.63	230.92
780.95	231.01
781.28	231.00
781.60	230.90
781.92	230.85
782.25	230.80
782.57	230.84
782.89	230.84
783.22	230.72
783.54	230.56
783.86	230.66
784.19	230.56
784.51	230.71
784.83	230.56
785.16	230.51
785.48	230.48
785.80	230.51
786.12	230.58
786.45	230.45
786.77	230.38
787.09	230.27
787.42	230.10
787.74	230.06
788.06	230.02
788.38	229.98
788.71	229.99
789.03	229.92
789.35	229.94
789.67	229.87
789.99	229.90
790.32	229.91
790.64	229.78
790.96	230.10
791.28	229.87
791.61	229.86
791.93	229.89
792.25	229.82
792.57	230.10
792.89	229.91
793.21	229.99
793.54	229.95
793.86	229.93
794.18	229.87
794.50	229.71
794.82	229.68
795.14	229.72
795.47	229.74
795.79	229.71
796.11	229.60
796.43	229.53
796.75	229.49
797.07	229.37
797.39	229.39
797.71	229.07
798.04	229.10
798.36	229.13
798.68	229.08
799.00	229.13
799.32	228.86
799.64	228.86
799.96	228.82
800.28	228.91
800.60	228.92
800.92	228.97
801.24	228.97
801.56	229.00
801.89	228.90
802.21	228.89
802.53	228.84
802.85	228.92
803.17	229.17
803.49	229.04
803.81	229.05
804.13	228.97
804.45	228.91
804.77	228.90
805.09	228.86
805.41	228.82
805.73	228.68
806.05	228.54
806.37	228.56
806.69	228.57
807.01	228.54
807.33	228.52
807.65	228.32
807.97	228.49
808.28	228.46
808.60	228.46
808.92	228.47
809.24	228.72
809.56	228.59
809.88	228.41
810.20	228.49
810.52	228.58
810.84	228.57
811.16	228.59
811.48	228.55
811.80	228.75
812.12	228.72
812.43	228.85
812.75	228.89
813.07	228.88
813.39	228.92
813.71	228.86
814.03	228.81
814.35	228.87
814.67	228.73
814.98	228.67
815.30	228.66
815.62	228.62
815.94	228.31
816.26	228.56
816.58	228.46
816.89	228.47
817.21	228.36
817.53	228.31
817.85	228.30
818.17	228.35
818.48	228.14
818.80	228.23
819.12	228.07
819.44	227.96
819.76	227.95
820.07	227.93
820.39	227.88
820.71	227.95
821.03	227.93
821.34	227.89
821.66	227.89
821.98	227.93
822.30	227.83
822.61	228.11
822.93	227.88
823.25	227.89
823.57	227.83
823.88	227.88
824.20	227.87
824.52	227.89
824.83	227.78
825.15	227.71
825.47	227.68
825.79	227.73
826.10	227.64
826.42	227.54
826.74	227.54
827.05	227.52
827.37	227.50
827.69	227.45
828.00	227.41
828.32	227.46
828.64	227.35
828.95	227.57
829.27	227.41
829.58	227.30
829.90	227.27
830.22	227.32
830.53	227.24
830.85	227.15
831.17	227.03
831.48	227.03
831.80	227.01
832.11	226.95
832.43	226.88
832.75	226.99
833.06	227.22
833.38	227.08
833.69	227.05
834.01	227.08
834.32	227.07
834.64	227.05
834.96	227.02
835.27	227.07
835.59	226.93
835.90	226.87
836.22	226.88
836.53	226.80
836.85	226.71
837.16	227.09
837.48	227.15
837.79	227.23
838.11	227.26
838.42	227.29
838.74	227.31
839.05	227.30
839.37	227.20
839.68	226.93
840.00	226.93
840.31	227.06
840.63	227.00
840.94	226.95
841.26	226.92
841.57	226.96
841.88	226.95
842.20	226.92
842.51	226.76
842.83	226.80
843.14	227.20
843.46	227.18
843.77	226.96
844.08	226.93
844.40	226.79
844.71	226.79
845.03	226.77
845.34	226.76
845.65	226.75
845.97	226.75
846.28	226.79
846.60	226.80
846.91	226.69
847.22	226.67
847.54	226.74
847.85	226.78
848.16	226.67
848.48	226.59
848.79	226.76
849.10	226.97
849.42	226.95
849.73	226.54
850.04	226.50
850.36	226.33
850.67	226.40
850.98	226.40
851.30	226.49
851.61	226.48
851.92	226.44
852.23	226.59
852.55	226.60
852.86	226.66
853.17	226.74
853.49	226.84
853.80	226.97
854.11	227.03
854.42	227.08
854.74	227.09
855.05	227.09
855.36	226.87
855.67	226.79
855.99	226.78
856.30	227.32
856.61	227.34
856.92	227.41
857.23	227.36
857.55	227.30
857.86	227.17
858.17	227.26
858.48	227.24
858.79	227.10
859.11	227.16
859.42	227.10
859.73	226.97
860.04	226.91
860.35	226.68
860.66	226.53
860.98	226.45
861.29	226.54
861.60	226.51
861.91	226.59
862.22	226.52
862.53	226.54
862.84	225.97
863.16	226.11
863.47	226.06
863.78	226.02
864.09	226.09
864.40	226.16
864.71	226.14
865.02	226.17
865.33	226.18
865.64	226.06
865.95	226.02
866.27	226.29
866.58	226.25
866.89	226.32
867.20	226.38
867.51	226.32
867.82	226.17
868.13	226.30
868.44	226.16
868.75	226.27
869.06	226.25
869.37	226.31
869.68	226.13
869.99	226.19
870.30	226.15
870.61	226.18
870.92	226.10
871.23	226.01
871.54	226.07
871.85	226.11
872.16	226.18
872.47	226.13
872.78	225.87
873.09	225.89
873.40	225.88
873.71	225.85
874.02	225.89
874.33	225.86
874.64	225.83
874.95	225.98
875.26	225.87
875.56	225.85
875.87	225.84
876.18	225.82
876.49	226.27
876.80	226.32
877.11	226.30
877.42	226.31
877.73	226.34
878.04	226.25
878.35	226.25
878.66	226.26
878.96	226.33
879.27	226.32
879.58	226.34
879.89	226.33
880.20	226.49
880.51	226.47
880.82	226.52
881.12	226.54
881.43	226.48
881.74	226.45
882.05	226.42
882.36	226.44
882.67	226.52
882.97	226.01
883.28	226.00
883.59	225.95
883.90	226.05
884.21	226.10
884.51	226.08
884.82	225.98
885.13	226.04
885.44	226.00
885.74	226.05
886.05	226.01
886.36	226.03
886.67	225.88
886.98	226.16
887.28	226.19
887.59	226.16
887.90	226.13
888.20	226.10
888.51	226.17
888.82	226.18
889.13	226.21
889.43	226.54
889.74	226.50
890.05	226.53
890.35	226.44
890.66	226.35
890.97	226.34
891.28	226.24
891.58	226.23
891.89	226.28
892.20	226.17
892.50	226.22
892.81	226.13
893.12	226.09
893.42	225.76
893.73	225.81
894.04	225.80
894.34	225.88
894.65	225.93
894.95	225.95
895.26	225.92
895.57	226.12
895.87	225.69
896.18	225.77
896.48	225.82
896.79	225.79
897.10	225.92
897.40	225.97
897.71	226.14
898.01	226.08
898.32	226.15
898.63	226.15
898.93	226.12
899.24	226.20
899.54	226.21
899.85	226.27
900.15	226.25
900.46	226.27
900.76	226.29
901.07	226.18
901.38	226.17
901.68	226.23
901.99	225.98
902.29	226.10
902.60	226.10
902.90	226.01
903.21	226.10
903.51	226.04
903.82	226.15
904.12	226.16
904.43	226.24
904.73	226.21
905.03	226.25
905.34	226.66
905.64	226.64
905.95	226.64
906.25	226.60
906.56	226.53
906.86	226.52
907.17	226.46
907.47	226.58
907.77	226.45
908.08	226.36
908.38	226.35
908.69	226.31
908.99	226.34
909.30	226.44
909.60	226.40
909.90	226.40
910.21	226.28
910.51	226.11
910.81	226.10
911.12	226.08
911.42	226.10
911.73	225.60
912.03	225.62
912.33	225.74
912.64	225.80
912.94	225.76
913.24	225.70
913.55	225.62
913.85	225.56
914.15	225.80
914.46	225.89
914.76	225.82
915.06	225.79
915.37	225.74
915.67	225.73
915.97	225.76
916.27	225.68
916.58	225.70
916.88	225.78
917.18	225.74
917.49	226.09
917.79	226.10
918.09	226.17
918.39	226.38
918.70	226.32
919.00	226.31
919.30	226.63
919.60	226.62
919.91	226.65
920.21	226.67
920.51	226.45
920.81	226.38
921.12	226.56
921.42	226.61
921.72	226.67
922.02	226.60
922.32	226.60
922.63	226.64
922.93	226.89
923.23	226.91
923.53	226.82
923.83	226.50
924.13	226.50
924.44	226.47
924.74	226.44
925.04	226.54
925.34	226.58
925.64	226.30
925.94	226.25
926.24	226.49
926.55	226.47
926.85	226.63
927.15	226.66
927.45	226.59
927.75	226.54
928.05	226.48
928.35	226.51
928.65	226.55
928.95	226.53
929.26	226.34
929.56	226.41
929.86	226.50
930.16	226.46
930.46	226.51
930.76	226.60
931.06	226.28
931.36	226.11
931.66	226.12
931.96	226.12
932.26	226.15
932.56	225.98
932.86	226.03
933.16	225.97
933.46	225.96
933.76	225.90
934.06	226.01
934.36	226.20
934.66	226.15
934.96	226.10
935.26	226.10
935.56	226.19
935.86	226.12
936.16	226.11
936.46	226.09
936.76	225.98
937.06	225.96
937.36	226.09
937.66	226.14
937.96	226.13
938.26	226.05
938.56	226.01
938.86	226.01
939.16	226.07
939.46	226.14
939.76	226.21
940.06	226.18
940.35	226.14
940.65	225.90
940.95	225.98
941.25	225.90
941.55	225.85
941.85	225.79
942.15	225.89
942.45	225.97
942.75	225.92
943.04	225.96
943.34	225.97
943.64	225.90
943.94	225.83
944.24	225.79
944.54	225.85
944.84	225.88
945.13	225.80
945.43	225.72
945.73	225.65
946.03	225.56
946.33	225.59
946.62	225.47
946.92	225.50
947.22	225.49
947.52	225.56
947.82	225.63
948.11	225.55
948.41	225.44
948.71	225.31
949.01	225.35
949.31	225.36
949.60	225.31
949.90	225.41
950.20	225.40
950.50	225.42
950.79	225.42
951.09	225.47
951.39	225.47
951.69	225.37
951.98	225.50
952.28	225.48
952.58	225.46
952.87	225.55
953.17	225.55
953.47	225.52
953.76	225.48
954.06	225.42
954.36	225.38
954.66	225.34
954.95	225.43
955.25	225.46
955.55	225.48
955.84	225.41
956.14	225.42
956.44	225.47
956.73	225.36
957.03	225.40
957.32	225.47
957.62	225.50
957.92	225.61
958.21	225.53
958.51	226.12
958.81	226.07
959.10	226.11
959.40	226.26
959.69	226.28
959.99	226.32
960.29	226.36
960.58	226.41
960.88	226.65
961.17	226.64
961.47	226.65
961.76	226.65
962.06	226.79
962.36	226.72
962.65	226.76
962.95	226.83
963.24	226.80
963.54	226.75
963.83	226.69
964.13	226.72
964.42	226.61
964.72	226.15
965.01	226.28
965.31	226.17
965.60	226.08
965.90	226.31
966.19	226.23
966.49	226.25
966.78	226.21
967.08	226.13
967.37	226.16
967.67	226.11
967.96	226.11
968.26	226.08
968.55	226.13
968.85	226.13
969.14	226.10
969.43	226.11
969.73	226.05
970.02	226.07
970.32	226.00
970.61	226.00
970.91	225.88
971.20	225.71
971.49	225.73
971.79	225.74
972.08	225.52
972.38	225.61
972.67	225.57
972.96	225.59
973.26	225.51
973.55	225.58
973.85	225.55
974.14	225.53
974.43	225.58
974.73	225.53
975.02	225.43
975.31	225.42
975.61	225.37
975.90	225.33
976.19	225.29
976.49	225.32
976.78	225.34
977.07	225.42
977.37	225.44
977.66	225.45
977.95	225.40
978.24	225.42
978.54	225.45
978.83	225.45
979.12	225.45
979.42	225.39
979.71	225.34
980.00	225.38
980.29	225.40
980.59	225.25
980.88	225.37
981.17	225.43
981.46	225.44
981.76	225.48
982.05	225.67
982.34	225.70
982.63	225.69
982.93	225.72
983.22	225.80
983.51	225.95
983.80	225.98
984.09	226.02
984.39	225.94
984.68	225.91
984.97	225.94
985.26	225.90
985.55	225.97
985.85	225.82
986.14	225.86
986.43	225.99
986.72	226.00
987.01	225.96
987.30	225.92
987.59	225.92
987.89	225.89
988.18	225.71
988.47	225.70
988.76	225.71
989.05	225.67
989.34	225.63
989.63	225.61
989.92	225.66
990.22	225.63
990.51	225.60
990.80	225.55
991.09	225.61
991.38	225.65
991.67	225.59
991.96	225.59
992.25	225.62
992.54	225.45
992.83	225.47
993.12	225.37
993.41	225.46
993.70	225.68
993.99	225.88
994.28	225.98
994.58	226.05
994.87	226.03
995.16	226.00
995.45	225.97
995.74	225.89
996.03	225.85
996.32	225.92
996.61	225.98
996.90	225.99
997.19	225.92
997.48	225.99
997.77	225.90
998.06	225.92
998.34	225.88
998.63	225.86
998.92	225.84
999.21	225.86
999.50	225.83
999.79	225.64
1000.08	225.57
1000.37	225.55
1000.66	225.50
1000.95	225.60
1001.24	225.67
1001.53	225.70
1001.82	225.65
1002.11	225.52
1002.40	225.54
1002.68	225.68
1002.97	226.00
1003.26	225.94
1003.55	225.79
1003.84	225.89
1004.13	226.01
1004.42	225.95
1004.71	225.95
1004.99	225.93
1005.28	226.09
1005.57	226.04
1005.86	225.92
1006.15	225.80
1006.44	225.73
1006.72	225.70
1007.01	225.56
1007.30	225.51
1007.59	225.43
1007.88	225.40
1008.17	225.44
1008.45	225.29
1008.74	225.07
1009.03	224.81
1009.32	224.86
1009.60	224.90
1009.89	224.86
1010.18	224.70
1010.47	224.75
1010.76	224.79
1011.04	224.77
1011.33	224.73
1011.62	224.84
1011.91	224.92
1012.19	225.02
1012.48	225.01
1012.77	225.01
1013.05	225.24
1013.34	225.26
1013.63	225.26
1013.92	225.36
1014.20	225.35
1014.49	225.43
1014.78	225.50
1015.06	225.36
1015.35	225.32
1015.64	225.41
1015.92	225.41
1016.21	225.46
1016.50	225.46
1016.78	225.47
1017.07	225.55
1017.36	225.46
1017.64	225.29
1017.93	225.33
1018.22	225.28
1018.50	225.26
1018.79	225.31
1019.08	225.14
1019.36	225.24
1019.65	225.23
1019.93	225.35
1020.22	225.45
1020.51	225.67
1020.79	225.63
1021.08	225.30
1021.36	223.90
1021.65	225.95
1021.94	225.75
1022.22	226.70
1022.51	225.15
1022.79	228.15
1023.08	226.10
1023.36	230.55
1023.65	224.65
>>>>>End Processed Spectral Data<<<<<
