SpectraSuite Data File
++++++++++++++++++++++++++++++++++++
Date: Wed Sep 04 18:04:14 EDT 2013
User: lab3
Dark Spectrum Present: Yes
Reference Spectrum Present: No
Number of Sampled Component Spectra: 1
Spectrometers: USB2E7196
Integration Time (usec): 170000 (USB2E7196)
Spectra Averaged: 20 (USB2E7196)
Boxcar Smoothing: 10 (USB2E7196)
Correct for Electrical Dark: No (USB2E7196)
Strobe/Lamp Enabled: No (USB2E7196)
Correct for Detector Non-linearity: No (USB2E7196)
Correct for Stray Light: No (USB2E7196)
Number of Pixels in Processed Spectrum: 2048
>>>>>Begin Processed Spectral Data<<<<<
339.09	0.00
339.48	213.45
339.86	216.25
340.24	216.45
340.63	216.65
341.01	225.45
341.39	221.55
341.78	221.80
342.16	224.95
342.54	223.95
342.93	212.88
343.31	223.61
343.69	224.20
344.07	224.55
344.46	225.06
344.84	225.59
345.22	225.59
345.60	225.89
345.99	226.04
346.37	226.10
346.75	226.19
347.13	226.31
347.52	226.40
347.90	226.60
348.28	226.55
348.66	226.75
349.05	226.60
349.43	226.70
349.81	226.77
350.19	226.82
350.57	226.94
350.96	226.96
351.34	227.06
351.72	227.11
352.10	227.22
352.48	227.24
352.87	227.20
353.25	227.31
353.63	227.31
354.01	227.43
354.39	227.54
354.77	227.65
355.15	227.77
355.54	227.77
355.92	227.78
356.30	227.88
356.68	228.16
357.06	228.26
357.44	228.23
357.82	228.20
358.20	228.63
358.58	228.65
358.97	228.73
359.35	228.85
359.73	229.01
360.11	229.11
360.49	229.18
360.87	229.27
361.25	229.35
361.63	229.49
362.01	229.61
362.39	229.63
362.77	229.68
363.15	229.65
363.53	229.61
363.91	229.67
364.29	229.70
364.67	229.33
365.05	229.42
365.43	229.53
365.81	229.64
366.19	229.50
366.57	229.74
366.95	229.87
367.33	229.80
367.71	229.79
368.09	229.91
368.47	229.93
368.85	229.86
369.23	229.92
369.61	229.84
369.99	229.96
370.37	230.04
370.75	230.27
371.13	230.18
371.51	230.15
371.89	230.12
372.27	230.17
372.65	230.19
373.03	230.08
373.41	230.01
373.78	229.91
374.16	229.63
374.54	229.44
374.92	229.27
375.30	229.24
375.68	229.07
376.06	228.91
376.44	228.80
376.82	228.81
377.19	228.75
377.57	228.70
377.95	228.45
378.33	228.30
378.71	227.96
379.09	228.05
379.47	228.02
379.84	227.79
380.22	227.65
380.60	227.44
380.98	227.35
381.36	227.24
381.73	227.15
382.11	227.09
382.49	227.03
382.87	226.89
383.25	226.83
383.62	227.32
384.00	227.28
384.38	227.22
384.76	227.23
385.13	227.30
385.51	227.13
385.89	226.98
386.27	226.97
386.64	226.96
387.02	226.82
387.40	226.75
387.78	226.82
388.15	226.80
388.53	226.69
388.91	226.72
389.29	226.71
389.66	226.73
390.04	226.68
390.42	226.73
390.79	226.69
391.17	226.65
391.55	226.18
391.92	226.14
392.30	226.22
392.68	226.13
393.05	226.08
393.43	226.13
393.81	226.17
394.18	226.11
394.56	226.18
394.94	226.33
395.31	226.31
395.69	226.50
396.06	226.63
396.44	226.79
396.82	226.78
397.19	227.03
397.57	227.03
397.95	227.17
398.32	227.04
398.70	227.22
399.07	227.42
399.45	227.46
399.82	227.55
400.20	227.61
400.58	227.71
400.95	227.72
401.33	227.92
401.70	228.43
402.08	228.57
402.45	228.64
402.83	228.84
403.20	229.07
403.58	229.20
403.95	229.49
404.33	229.77
404.71	230.03
405.08	230.50
405.46	230.78
405.83	231.09
406.21	231.44
406.58	231.73
406.96	231.97
407.33	232.32
407.70	232.74
408.08	233.43
408.45	233.91
408.83	234.37
409.20	234.80
409.58	234.92
409.95	235.49
410.33	236.08
410.70	236.46
411.08	237.11
411.45	237.77
411.82	238.29
412.20	239.08
412.57	240.15
412.95	240.43
413.32	241.29
413.69	242.11
414.07	242.93
414.44	243.89
414.82	244.90
415.19	246.16
415.56	247.25
415.94	248.28
416.31	249.71
416.68	251.12
417.06	252.70
417.43	254.38
417.81	256.16
418.18	258.03
418.55	260.03
418.93	262.03
419.30	264.08
419.67	266.29
420.04	268.55
420.42	270.78
420.79	273.88
421.16	276.68
421.54	279.71
421.91	282.82
422.28	285.95
422.66	289.21
423.03	292.61
423.40	295.99
423.77	299.58
424.15	303.15
424.52	307.02
424.89	311.28
425.26	315.27
425.64	319.05
426.01	323.26
426.38	327.56
426.75	332.14
427.13	336.71
427.50	341.52
427.87	346.48
428.24	351.43
428.61	356.05
428.99	361.40
429.36	366.93
429.73	372.53
430.10	378.07
430.47	383.78
430.85	389.51
431.22	395.86
431.59	402.69
431.96	409.11
432.33	416.01
432.70	422.59
433.08	430.51
433.45	437.96
433.82	445.43
434.19	453.77
434.56	461.84
434.93	469.50
435.30	477.35
435.68	485.98
436.05	494.34
436.42	502.72
436.79	510.50
437.16	519.03
437.53	527.96
437.90	536.80
438.27	545.46
438.64	554.52
439.01	562.89
439.38	570.06
439.75	577.15
440.13	585.35
440.50	593.02
440.87	599.13
441.24	605.65
441.61	612.61
441.98	617.77
442.35	623.72
442.72	629.78
443.09	635.62
443.46	639.03
443.83	641.41
444.20	643.19
444.57	645.79
444.94	646.67
445.31	647.58
445.68	648.82
446.05	648.87
446.42	647.33
446.79	645.83
447.16	644.28
447.53	642.95
447.90	639.07
448.27	635.33
448.64	630.49
449.01	626.60
449.37	620.29
449.74	614.11
450.11	607.22
450.48	599.45
450.85	591.38
451.22	584.55
451.59	577.91
451.96	571.81
452.33	563.79
452.70	556.46
453.07	547.78
453.43	538.70
453.80	530.45
454.17	522.48
454.54	514.64
454.91	506.36
455.28	498.35
455.65	490.96
456.02	484.08
456.38	477.65
456.75	469.95
457.12	463.42
457.49	457.10
457.86	450.60
458.23	445.39
458.59	439.65
458.96	433.70
459.33	428.59
459.70	423.37
460.07	419.08
460.43	414.35
460.80	410.13
461.17	406.42
461.54	402.35
461.91	398.44
462.27	394.58
462.64	391.32
463.01	387.75
463.38	384.30
463.74	380.33
464.11	377.23
464.48	374.60
464.85	371.80
465.21	369.63
465.58	367.33
465.95	364.51
466.32	362.18
466.68	359.97
467.05	357.84
467.42	355.65
467.78	353.41
468.15	351.33
468.52	349.64
468.88	347.28
469.25	345.25
469.62	343.84
469.98	342.33
470.35	340.74
470.72	339.25
471.08	337.61
471.45	336.25
471.82	334.95
472.18	333.43
472.55	332.40
472.92	331.08
473.28	330.00
473.65	328.86
474.02	327.87
474.38	327.05
474.75	326.22
475.11	325.26
475.48	324.63
475.85	324.02
476.21	323.29
476.58	322.82
476.94	322.54
477.31	322.00
477.67	321.44
478.04	321.14
478.41	320.93
478.77	321.23
479.14	321.00
479.50	320.92
479.87	320.97
480.23	320.88
480.60	320.78
480.96	320.85
481.33	321.25
481.69	321.41
482.06	321.58
482.42	321.82
482.79	322.26
483.15	322.70
483.52	323.21
483.88	323.73
484.25	324.32
484.61	324.91
484.98	325.59
485.34	326.59
485.71	327.52
486.07	328.42
486.44	328.98
486.80	330.03
487.17	331.13
487.53	332.49
487.90	333.95
488.26	335.76
488.62	337.40
488.99	338.89
489.35	340.68
489.72	342.62
490.08	344.64
490.44	346.74
490.81	348.97
491.17	351.21
491.54	353.71
491.90	356.23
492.26	358.89
492.63	361.71
492.99	364.56
493.36	367.56
493.72	370.97
494.08	374.50
494.45	378.24
494.81	382.11
495.17	386.03
495.54	390.20
495.90	394.36
496.26	398.81
496.63	403.60
496.99	408.38
497.35	413.39
497.72	418.67
498.08	424.05
498.44	429.69
498.80	435.80
499.17	441.88
499.53	448.14
499.89	454.84
500.26	461.56
500.62	468.61
500.98	476.07
501.34	483.49
501.71	491.20
502.07	498.95
502.43	507.17
502.79	515.62
503.16	524.35
503.52	533.32
503.88	542.51
504.24	552.13
504.60	562.06
504.97	572.51
505.33	582.95
505.69	594.00
506.05	605.00
506.41	616.03
506.78	627.70
507.14	639.97
507.50	652.40
507.86	665.23
508.22	678.20
508.59	691.24
508.95	705.01
509.31	719.30
509.67	733.85
510.03	748.15
510.39	762.93
510.75	778.04
511.12	793.37
511.48	808.86
511.84	824.65
512.20	840.81
512.56	856.89
512.92	873.88
513.28	890.52
513.64	907.81
514.00	925.65
514.37	943.40
514.73	961.51
515.09	979.77
515.45	998.32
515.81	1016.78
516.17	1035.91
516.53	1054.41
516.89	1073.14
517.25	1092.54
517.61	1113.09
517.97	1133.47
518.33	1153.58
518.69	1174.00
519.05	1194.88
519.41	1215.71
519.77	1236.95
520.13	1257.86
520.49	1278.65
520.85	1301.27
521.21	1322.83
521.57	1344.33
521.93	1365.22
522.29	1386.45
522.65	1407.35
523.01	1428.17
523.37	1449.06
523.73	1470.09
524.09	1490.88
524.45	1511.71
524.81	1532.77
525.17	1553.26
525.53	1573.81
525.89	1594.82
526.25	1615.62
526.61	1635.97
526.97	1657.07
527.33	1678.30
527.68	1700.40
528.04	1721.66
528.40	1741.43
528.76	1762.28
529.12	1782.62
529.48	1803.74
529.84	1823.75
530.20	1844.93
530.56	1865.80
530.91	1886.68
531.27	1907.25
531.63	1928.10
531.99	1949.01
532.35	1968.90
532.71	1989.26
533.07	2010.11
533.42	2030.04
533.78	2050.43
534.14	2070.47
534.50	2089.64
534.86	2108.79
535.21	2126.29
535.57	2145.20
535.93	2162.85
536.29	2180.56
536.65	2198.71
537.00	2216.39
537.36	2234.46
537.72	2250.98
538.08	2268.33
538.44	2284.95
538.79	2301.30
539.15	2317.84
539.51	2333.69
539.87	2349.10
540.22	2363.46
540.58	2377.91
540.94	2391.47
541.29	2404.11
541.65	2416.94
542.01	2429.51
542.37	2440.48
542.72	2452.02
543.08	2462.92
543.44	2474.68
543.79	2485.14
544.15	2495.13
544.51	2505.20
544.87	2514.88
545.22	2523.53
545.58	2531.17
545.94	2538.64
546.29	2545.25
546.65	2551.94
547.01	2557.51
547.36	2563.21
547.72	2568.72
548.07	2572.78
548.43	2578.12
548.79	2582.62
549.14	2586.82
549.50	2590.52
549.86	2594.36
550.21	2597.83
550.57	2600.65
550.92	2602.38
551.28	2603.66
551.64	2606.19
551.99	2608.60
552.35	2610.38
552.70	2612.79
553.06	2614.52
553.41	2615.94
553.77	2618.20
554.13	2619.74
554.48	2621.36
554.84	2623.30
555.19	2624.15
555.55	2625.95
555.90	2624.98
556.26	2624.32
556.61	2622.77
556.97	2621.00
557.32	2620.50
557.68	2619.55
558.03	2618.36
558.39	2617.46
558.74	2617.01
559.10	2613.88
559.45	2610.27
559.81	2605.77
560.16	2600.86
560.52	2596.51
560.87	2592.23
561.23	2586.63
561.58	2580.59
561.94	2574.16
562.29	2566.35
562.64	2559.83
563.00	2551.41
563.35	2545.66
563.71	2539.24
564.06	2533.18
564.42	2526.55
564.77	2519.79
565.12	2512.08
565.48	2504.47
565.83	2496.61
566.19	2488.56
566.54	2480.85
566.89	2472.70
567.25	2465.15
567.60	2458.00
567.96	2450.30
568.31	2442.15
568.66	2433.25
569.02	2424.11
569.37	2415.99
569.72	2408.45
570.08	2399.23
570.43	2389.71
570.78	2380.39
571.14	2370.90
571.49	2360.72
571.84	2351.40
572.20	2340.31
572.55	2330.17
572.90	2319.15
573.26	2308.74
573.61	2297.51
573.96	2286.18
574.31	2274.26
574.67	2262.31
575.02	2249.33
575.37	2236.49
575.72	2223.39
576.08	2211.35
576.43	2199.07
576.78	2185.62
577.13	2171.95
577.49	2159.08
577.84	2147.43
578.19	2135.02
578.54	2122.59
578.90	2110.41
579.25	2097.88
579.60	2085.47
579.95	2072.41
580.30	2059.24
580.66	2045.35
581.01	2031.67
581.36	2017.58
581.71	2004.71
582.06	1991.51
582.42	1978.93
582.77	1966.42
583.12	1954.44
583.47	1942.29
583.82	1930.10
584.17	1918.15
584.53	1906.24
584.88	1893.51
585.23	1880.50
585.58	1866.21
585.93	1852.58
586.28	1839.14
586.63	1825.11
586.98	1810.67
587.34	1797.65
587.69	1784.22
588.04	1771.52
588.39	1759.40
588.74	1747.32
589.09	1735.02
589.44	1722.19
589.79	1710.05
590.14	1697.81
590.49	1685.61
590.84	1673.15
591.19	1660.99
591.54	1648.49
591.89	1636.08
592.25	1625.53
592.60	1613.61
592.95	1602.31
593.30	1590.46
593.65	1578.66
594.00	1566.59
594.35	1557.06
594.70	1545.22
595.05	1533.81
595.40	1521.65
595.75	1509.67
596.10	1498.31
596.45	1486.72
596.80	1476.25
597.15	1464.68
597.50	1452.87
597.85	1441.36
598.19	1429.79
598.54	1418.23
598.89	1407.12
599.24	1396.61
599.59	1384.78
599.94	1373.93
600.29	1363.22
600.64	1352.64
600.99	1341.64
601.34	1331.98
601.69	1320.43
602.04	1310.23
602.39	1300.50
602.74	1291.24
603.08	1281.85
603.43	1272.40
603.78	1262.64
604.13	1252.79
604.48	1242.90
604.83	1233.13
605.18	1223.32
605.53	1213.52
605.87	1204.26
606.22	1195.30
606.57	1185.66
606.92	1176.25
607.27	1167.10
607.62	1158.27
607.96	1149.77
608.31	1142.02
608.66	1133.60
609.01	1125.01
609.36	1116.41
609.70	1107.78
610.05	1098.95
610.40	1090.30
610.75	1081.36
611.10	1072.87
611.44	1064.00
611.79	1055.98
612.14	1048.15
612.49	1040.17
612.83	1032.85
613.18	1024.92
613.53	1017.17
613.88	1009.22
614.22	1001.49
614.57	993.59
614.92	985.72
615.27	977.97
615.61	970.05
615.96	962.28
616.31	954.88
616.65	947.87
617.00	940.44
617.35	933.28
617.70	925.89
618.04	918.83
618.39	911.84
618.74	905.35
619.08	898.35
619.43	891.16
619.78	884.05
620.12	876.75
620.47	869.81
620.82	862.57
621.16	855.66
621.51	849.15
621.85	842.71
622.20	836.21
622.55	829.35
622.89	822.65
623.24	816.10
623.59	809.52
623.93	803.05
624.28	796.87
624.62	791.19
624.97	785.36
625.32	779.61
625.66	773.50
626.01	767.19
626.35	761.60
626.70	755.95
627.04	750.64
627.39	745.07
627.73	739.66
628.08	734.42
628.43	729.04
628.77	723.44
629.12	718.13
629.46	713.05
629.81	708.42
630.15	703.62
630.50	698.91
630.84	693.97
631.19	689.01
631.53	684.41
631.88	679.11
632.22	674.10
632.57	669.46
632.91	664.85
633.26	660.50
633.60	655.78
633.95	651.00
634.29	646.15
634.64	641.77
634.98	637.07
635.32	632.64
635.67	628.51
636.01	624.23
636.36	619.90
636.70	615.70
637.05	611.40
637.39	607.28
637.73	602.98
638.08	598.94
638.42	594.72
638.77	590.28
639.11	585.84
639.45	581.65
639.80	577.22
640.14	573.15
640.49	569.06
640.83	565.04
641.17	561.32
641.52	557.59
641.86	553.96
642.20	550.69
642.55	546.97
642.89	543.44
643.23	539.89
643.58	536.62
643.92	532.92
644.26	529.53
644.61	526.18
644.95	522.74
645.29	519.31
645.64	516.15
645.98	513.02
646.32	510.18
646.66	507.06
647.01	504.12
647.35	501.31
647.69	498.36
648.04	495.59
648.38	492.83
648.72	489.82
649.06	486.66
649.41	483.46
649.75	480.46
650.09	477.60
650.43	474.81
650.78	471.85
651.12	469.11
651.46	466.42
651.80	463.58
652.14	460.86
652.49	458.39
652.83	455.73
653.17	453.15
653.51	450.44
653.85	447.99
654.20	445.52
654.54	442.78
654.88	440.20
655.22	437.97
655.56	435.44
655.90	433.08
656.25	430.76
656.59	428.64
656.93	426.34
657.27	424.16
657.61	421.68
657.95	419.47
658.29	417.28
658.64	415.08
658.98	412.78
659.32	410.61
659.66	408.34
660.00	406.31
660.34	404.21
660.68	402.14
661.02	400.01
661.36	397.95
661.70	395.97
662.05	394.02
662.39	391.92
662.73	390.20
663.07	388.51
663.41	386.80
663.75	384.70
664.09	382.95
664.43	380.97
664.77	379.30
665.11	377.45
665.45	375.79
665.79	374.14
666.13	372.52
666.47	370.75
666.81	369.12
667.15	367.39
667.49	365.80
667.83	364.51
668.17	363.08
668.51	361.63
668.85	360.25
669.19	359.08
669.53	357.48
669.87	355.89
670.21	354.32
670.55	352.82
670.89	351.81
671.23	350.41
671.57	348.97
671.91	347.64
672.25	346.31
672.58	345.04
672.92	343.42
673.26	342.05
673.60	340.88
673.94	339.64
674.28	338.44
674.62	337.33
674.96	335.91
675.30	334.73
675.64	333.58
675.97	332.39
676.31	330.99
676.65	329.86
676.99	328.98
677.33	327.80
677.67	326.67
678.01	325.25
678.34	324.15
678.68	323.25
679.02	322.14
679.36	321.14
679.70	320.08
680.04	319.32
680.37	318.42
680.71	317.48
681.05	316.57
681.39	315.72
681.73	314.75
682.06	313.93
682.40	313.02
682.74	312.08
683.08	311.40
683.42	310.49
683.75	309.73
684.09	308.61
684.43	307.85
684.77	307.02
685.10	306.33
685.44	305.60
685.78	304.75
686.12	304.05
686.45	303.28
686.79	302.47
687.13	301.70
687.46	300.95
687.80	300.27
688.14	299.40
688.48	298.60
688.81	297.81
689.15	297.15
689.49	296.37
689.82	295.75
690.16	294.81
690.50	294.15
690.83	293.47
691.17	292.74
691.51	292.11
691.84	291.51
692.18	290.83
692.52	290.13
692.85	289.51
693.19	289.17
693.52	288.53
693.86	287.85
694.20	287.20
694.53	286.61
694.87	285.98
695.21	285.41
695.54	284.74
695.88	284.15
696.21	283.34
696.55	282.82
696.88	282.09
697.22	281.51
697.56	281.07
697.89	280.37
698.23	279.91
698.56	279.33
698.90	278.88
699.23	278.33
699.57	277.83
699.90	277.25
700.24	276.46
700.58	275.98
700.91	275.56
701.25	275.49
701.58	275.36
701.92	275.01
702.25	274.54
702.59	274.20
702.92	273.78
703.26	273.40
703.59	272.90
703.93	272.85
704.26	272.48
704.60	271.97
704.93	271.63
705.26	271.21
705.60	270.79
705.93	270.18
706.27	269.90
706.60	269.63
706.94	269.41
707.27	269.04
707.61	268.67
707.94	268.26
708.27	267.46
708.61	266.75
708.94	266.27
709.28	265.97
709.61	265.49
709.94	265.16
710.28	264.86
710.61	264.53
710.95	263.80
711.28	263.77
711.61	263.31
711.95	263.05
712.28	262.66
712.61	262.35
712.95	262.26
713.28	262.12
713.61	261.69
713.95	261.23
714.28	260.91
714.61	260.48
714.95	260.05
715.28	259.70
715.61	259.33
715.95	258.97
716.28	258.60
716.61	258.36
716.95	257.99
717.28	257.69
717.61	257.31
717.94	257.07
718.28	256.32
718.61	256.03
718.94	255.55
719.27	255.39
719.61	255.17
719.94	254.78
720.27	254.28
720.60	253.95
720.94	253.66
721.27	253.44
721.60	253.34
721.93	253.10
722.27	252.99
722.60	252.78
722.93	252.46
723.26	252.30
723.59	251.97
723.93	251.81
724.26	251.59
724.59	251.42
724.92	251.22
725.25	251.21
725.59	251.10
725.92	251.04
726.25	250.76
726.58	250.48
726.91	250.26
727.24	250.02
727.57	249.82
727.91	249.58
728.24	249.35
728.57	249.06
728.90	248.96
729.23	248.59
729.56	248.72
729.89	248.59
730.22	248.30
730.55	248.19
730.89	248.05
731.22	247.85
731.55	247.65
731.88	247.50
732.21	247.16
732.54	246.88
732.87	246.65
733.20	246.50
733.53	246.35
733.86	246.20
734.19	246.02
734.52	245.94
734.85	246.11
735.18	245.96
735.51	245.94
735.84	245.81
736.17	245.82
736.50	245.35
736.83	245.77
737.16	245.63
737.49	245.44
737.82	245.19
738.15	245.12
738.48	244.98
738.81	244.76
739.14	244.66
739.47	244.53
739.80	244.42
740.13	244.38
740.46	244.18
740.79	243.98
741.12	243.79
741.45	243.59
741.78	243.23
742.11	243.19
742.44	242.88
742.77	242.82
743.10	242.60
743.43	242.43
743.75	241.74
744.08	242.19
744.41	242.05
744.74	241.85
745.07	241.53
745.40	241.51
745.73	241.57
746.06	241.47
746.39	241.40
746.71	241.23
747.04	240.94
747.37	240.79
747.70	240.72
748.03	240.67
748.36	240.61
748.68	240.45
749.01	240.20
749.34	240.15
749.67	240.04
750.00	239.95
750.33	240.24
750.65	240.20
750.98	239.58
751.31	239.53
751.64	239.50
751.97	239.71
752.29	239.60
752.62	239.19
752.95	239.03
753.28	238.90
753.60	238.79
753.93	238.80
754.26	238.79
754.59	238.57
754.91	238.40
755.24	238.30
755.57	238.20
755.90	238.11
756.22	237.97
756.55	237.75
756.88	237.67
757.20	237.18
757.53	236.99
757.86	236.81
758.19	236.76
758.51	236.69
758.84	236.35
759.17	236.14
759.49	236.19
759.82	236.26
760.15	236.19
760.47	236.09
760.80	235.91
761.13	235.91
761.45	235.82
761.78	235.77
762.11	235.63
762.43	235.47
762.76	235.34
763.08	235.25
763.41	235.27
763.74	235.10
764.06	235.00
764.39	234.93
764.71	234.95
765.04	234.79
765.37	234.63
765.69	234.50
766.02	234.49
766.34	234.40
766.67	234.20
767.00	234.20
767.32	234.40
767.65	234.56
767.97	234.42
768.30	234.43
768.62	234.30
768.95	234.25
769.27	234.20
769.60	234.20
769.92	234.12
770.25	234.01
770.57	233.92
770.90	233.91
771.22	233.78
771.55	233.68
771.87	233.64
772.20	233.57
772.52	233.99
772.85	234.45
773.17	234.35
773.50	234.31
773.82	234.19
774.15	233.91
774.47	233.60
774.80	233.51
775.12	233.41
775.45	233.41
775.77	233.35
776.09	233.35
776.42	233.30
776.74	233.40
777.07	233.26
777.39	233.18
777.72	233.11
778.04	233.13
778.36	232.95
778.69	232.93
779.01	232.95
779.33	232.50
779.66	231.87
779.98	231.79
780.31	231.77
780.63	231.86
780.95	231.91
781.28	231.87
781.60	231.77
781.92	231.72
782.25	231.67
782.57	231.63
782.89	231.52
783.22	231.46
783.54	231.32
783.86	231.33
784.19	231.31
784.51	231.32
784.83	231.24
785.16	231.21
785.48	231.14
785.80	231.06
786.12	231.05
786.45	231.06
786.77	231.12
787.09	231.04
787.42	230.85
787.74	230.77
788.06	230.71
788.38	230.66
788.71	230.64
789.03	230.62
789.35	230.61
789.67	230.59
789.99	230.64
790.32	230.58
790.64	230.63
790.96	230.96
791.28	230.79
791.61	230.66
791.93	230.63
792.25	230.57
792.57	230.83
792.89	230.71
793.21	230.73
793.54	230.60
793.86	230.53
794.18	230.49
794.50	230.38
794.82	230.40
795.14	230.45
795.47	230.50
795.79	230.41
796.11	230.26
796.43	230.16
796.75	230.06
797.07	230.01
797.39	229.93
797.71	229.56
798.04	229.69
798.36	229.78
798.68	229.81
799.00	229.84
799.32	229.62
799.64	229.69
799.96	229.66
800.28	229.73
800.60	229.68
800.92	229.75
801.24	229.70
801.56	229.77
801.89	229.77
802.21	229.73
802.53	229.73
802.85	229.93
803.17	230.19
803.49	230.17
803.81	230.19
804.13	230.13
804.45	230.14
804.77	230.15
805.09	230.13
805.41	230.11
805.73	230.03
806.05	230.00
806.37	229.91
806.69	229.85
807.01	229.81
807.33	229.88
807.65	229.63
807.97	229.91
808.28	229.81
808.60	229.64
808.92	229.63
809.24	229.90
809.56	229.81
809.88	229.59
810.20	229.61
810.52	229.64
810.84	229.66
811.16	229.62
811.48	229.52
811.80	229.71
812.12	229.68
812.43	229.79
812.75	229.73
813.07	229.73
813.39	229.73
813.71	229.70
814.03	229.71
814.35	229.80
814.67	229.55
814.98	229.49
815.30	229.56
815.62	229.44
815.94	229.09
816.26	229.23
816.58	229.19
816.89	229.18
817.21	229.07
817.53	229.05
817.85	229.07
818.17	229.02
818.48	228.75
818.80	228.90
819.12	228.73
819.44	228.63
819.76	228.56
820.07	228.58
820.39	228.46
820.71	228.37
821.03	228.41
821.34	228.40
821.66	228.45
821.98	228.46
822.30	228.45
822.61	228.75
822.93	228.53
823.25	228.51
823.57	228.47
823.88	228.52
824.20	228.54
824.52	228.48
824.83	228.52
825.15	228.51
825.47	228.37
825.79	228.42
826.10	228.40
826.42	228.38
826.74	228.40
827.05	228.42
827.37	228.47
827.69	228.37
828.00	228.35
828.32	228.36
828.64	228.35
828.95	228.59
829.27	228.45
829.58	228.37
829.90	228.43
830.22	228.44
830.53	228.37
830.85	228.28
831.17	228.30
831.48	228.31
831.80	228.29
832.11	228.23
832.43	228.21
832.75	228.26
833.06	228.52
833.38	228.37
833.69	228.40
834.01	228.40
834.32	228.44
834.64	228.42
834.96	228.35
835.27	228.30
835.59	228.11
835.90	228.00
836.22	228.04
836.53	227.96
836.85	227.89
837.16	228.36
837.48	228.41
837.79	228.48
838.11	228.45
838.42	228.48
838.74	228.52
839.05	228.54
839.37	228.45
839.68	228.18
840.00	228.25
840.31	228.29
840.63	228.22
840.94	228.18
841.26	228.08
841.57	228.11
841.88	228.15
842.20	228.08
842.51	228.05
842.83	228.09
843.14	228.50
843.46	228.51
843.77	228.22
844.08	228.16
844.40	228.08
844.71	228.06
845.03	228.02
845.34	228.05
845.65	228.00
845.97	228.08
846.28	228.12
846.60	228.08
846.91	228.04
847.22	228.06
847.54	228.14
847.85	228.26
848.16	228.18
848.48	228.08
848.79	228.34
849.10	228.39
849.42	228.39
849.73	227.91
850.04	227.98
850.36	227.79
850.67	227.83
850.98	227.86
851.30	227.91
851.61	227.96
851.92	227.95
852.23	228.11
852.55	228.12
852.86	228.15
853.17	228.17
853.49	228.19
853.80	228.17
854.11	228.23
854.42	228.25
854.74	228.23
855.05	228.34
855.36	228.08
855.67	228.12
855.99	228.12
856.30	228.76
856.61	228.67
856.92	228.65
857.23	228.70
857.55	228.64
857.86	228.58
858.17	228.57
858.48	228.50
858.79	228.43
859.11	228.45
859.42	228.40
859.73	228.34
860.04	228.41
860.35	228.34
860.66	228.12
860.98	228.06
861.29	228.05
861.60	227.95
861.91	228.07
862.22	227.94
862.53	227.87
862.84	227.25
863.16	227.32
863.47	227.29
863.78	227.18
864.09	227.12
864.40	227.15
864.71	227.17
865.02	227.22
865.33	227.04
865.64	226.99
865.95	226.98
866.27	227.25
866.58	227.20
866.89	227.30
867.20	227.36
867.51	227.29
867.82	227.31
868.13	227.45
868.44	227.35
868.75	227.51
869.06	227.53
869.37	227.61
869.68	227.45
869.99	227.54
870.30	227.66
870.61	227.74
870.92	227.64
871.23	227.59
871.54	227.59
871.85	227.75
872.16	227.80
872.47	227.82
872.78	227.59
873.09	227.55
873.40	227.42
873.71	227.44
874.02	227.44
874.33	227.42
874.64	227.35
874.95	227.38
875.26	227.16
875.56	227.13
875.87	227.11
876.18	227.14
876.49	227.58
876.80	227.46
877.11	227.38
877.42	227.38
877.73	227.35
878.04	227.30
878.35	227.26
878.66	227.24
878.96	227.21
879.27	227.22
879.58	227.20
879.89	227.17
880.20	227.29
880.51	227.26
880.82	227.25
881.12	227.21
881.43	227.06
881.74	227.03
882.05	227.00
882.36	227.03
882.67	227.13
882.97	226.60
883.28	226.59
883.59	226.62
883.90	226.70
884.21	226.82
884.51	226.71
884.82	226.63
885.13	226.55
885.44	226.53
885.74	226.47
886.05	226.41
886.36	226.40
886.67	226.33
886.98	226.59
887.28	226.70
887.59	226.71
887.90	226.74
888.20	226.74
888.51	226.81
888.82	226.72
889.13	226.77
889.43	227.13
889.74	227.08
890.05	227.01
890.35	226.95
890.66	226.77
890.97	226.81
891.28	226.74
891.58	226.80
891.89	226.79
892.20	226.70
892.50	226.73
892.81	226.77
893.12	226.68
893.42	226.48
893.73	226.43
894.04	226.46
894.34	226.65
894.65	226.62
894.95	226.54
895.26	226.58
895.57	226.83
895.87	226.49
896.18	226.59
896.48	226.60
896.79	226.57
897.10	226.73
897.40	226.80
897.71	226.93
898.01	226.88
898.32	226.97
898.63	227.05
898.93	227.03
899.24	227.04
899.54	227.07
899.85	227.07
900.15	227.05
900.46	227.00
900.76	226.98
901.07	227.06
901.38	227.07
901.68	227.15
901.99	226.77
902.29	226.80
902.60	226.80
902.90	226.84
903.21	226.98
903.51	226.97
903.82	227.08
904.12	227.09
904.43	227.17
904.73	227.15
905.03	227.08
905.34	227.57
905.64	227.55
905.95	227.55
906.25	227.52
906.56	227.55
906.86	227.60
907.17	227.54
907.47	227.62
907.77	227.64
908.08	227.59
908.38	227.67
908.69	227.68
908.99	227.74
909.30	227.75
909.60	227.67
909.90	227.71
910.21	227.51
910.51	227.50
910.81	227.46
911.12	227.47
911.42	227.52
911.73	227.09
912.03	227.13
912.33	227.24
912.64	227.18
912.94	227.12
913.24	227.07
913.55	227.03
913.85	226.94
914.15	227.02
914.46	227.02
914.76	227.00
915.06	226.94
915.37	226.83
915.67	226.76
915.97	226.72
916.27	226.64
916.58	226.69
916.88	226.60
917.18	226.55
917.49	226.84
917.79	226.78
918.09	226.84
918.39	226.92
918.70	226.83
919.00	226.86
919.30	227.05
919.60	227.02
919.91	226.90
920.21	226.95
920.51	226.83
920.81	226.71
921.12	226.70
921.42	226.69
921.72	226.66
922.02	226.69
922.32	226.69
922.63	226.70
922.93	226.94
923.23	227.00
923.53	227.02
923.83	226.74
924.13	226.83
924.44	226.78
924.74	226.85
925.04	226.93
925.34	226.86
925.64	226.64
925.94	226.62
926.24	226.86
926.55	226.71
926.85	226.74
927.15	226.81
927.45	226.86
927.75	226.86
928.05	226.95
928.35	226.90
928.65	227.04
928.95	227.10
929.26	226.92
929.56	226.93
929.86	226.95
930.16	226.90
930.46	226.84
930.76	226.78
931.06	226.60
931.36	226.53
931.66	226.65
931.96	226.76
932.26	226.80
932.56	226.61
932.86	226.75
933.16	226.85
933.46	226.81
933.76	226.75
934.06	226.83
934.36	226.98
934.66	227.04
934.96	226.92
935.26	226.87
935.56	226.93
935.86	226.81
936.16	226.76
936.46	226.77
936.76	226.72
937.06	226.74
937.36	226.74
937.66	226.79
937.96	226.76
938.26	226.63
938.56	226.62
938.86	226.78
939.16	226.77
939.46	226.72
939.76	226.76
940.06	226.79
940.35	226.74
940.65	226.50
940.95	226.50
941.25	226.43
941.55	226.37
941.85	226.33
942.15	226.53
942.45	226.55
942.75	226.51
943.04	226.58
943.34	226.66
943.64	226.63
943.94	226.51
944.24	226.57
944.54	226.65
944.84	226.58
945.13	226.45
945.43	226.43
945.73	226.41
946.03	226.40
946.33	226.31
946.62	226.30
946.92	226.30
947.22	226.34
947.52	226.44
947.82	226.54
948.11	226.52
948.41	226.44
948.71	226.45
949.01	226.53
949.31	226.49
949.60	226.52
949.90	226.62
950.20	226.63
950.50	226.57
950.79	226.49
951.09	226.59
951.39	226.57
951.69	226.56
951.98	226.70
952.28	226.76
952.58	226.79
952.87	226.77
953.17	226.76
953.47	226.69
953.76	226.65
954.06	226.55
954.36	226.46
954.66	226.42
954.95	226.51
955.25	226.55
955.55	226.61
955.84	226.46
956.14	226.48
956.44	226.55
956.73	226.55
957.03	226.61
957.32	226.62
957.62	226.57
957.92	226.63
958.21	226.49
958.51	226.96
958.81	227.02
959.10	227.04
959.40	227.23
959.69	227.18
959.99	227.20
960.29	227.23
960.58	227.26
960.88	227.47
961.17	227.30
961.47	227.26
961.76	227.18
962.06	227.22
962.36	227.16
962.65	227.11
962.95	227.09
963.24	227.08
963.54	227.10
963.83	227.18
964.13	227.13
964.42	227.00
964.72	226.60
965.01	226.63
965.31	226.63
965.60	226.46
965.90	226.79
966.19	226.75
966.49	226.74
966.78	226.75
967.08	226.65
967.37	226.70
967.67	226.64
967.96	226.78
968.26	226.80
968.55	226.88
968.85	226.92
969.14	226.97
969.43	226.91
969.73	226.83
970.02	226.77
970.32	226.79
970.61	226.88
970.91	226.78
971.20	226.67
971.49	226.62
971.79	226.70
972.08	226.40
972.38	226.34
972.67	226.31
972.96	226.29
973.26	226.20
973.55	226.37
973.85	226.32
974.14	226.24
974.43	226.25
974.73	226.16
975.02	226.06
975.31	226.03
975.61	226.07
975.90	226.08
976.19	226.11
976.49	226.14
976.78	226.21
977.07	226.25
977.37	226.32
977.66	226.40
977.95	226.31
978.24	226.32
978.54	226.57
978.83	226.52
979.12	226.52
979.42	226.56
979.71	226.40
980.00	226.47
980.29	226.51
980.59	226.41
980.88	226.52
981.17	226.50
981.46	226.55
981.76	226.49
982.05	226.67
982.34	226.68
982.63	226.65
982.93	226.61
983.22	226.70
983.51	226.64
983.80	226.72
984.09	226.84
984.39	226.80
984.68	226.67
984.97	226.74
985.26	226.73
985.55	226.75
985.85	226.72
986.14	226.78
986.43	226.83
986.72	226.83
987.01	226.67
987.30	226.69
987.59	226.60
987.89	226.65
988.18	226.46
988.47	226.36
988.76	226.32
989.05	226.28
989.34	226.19
989.63	226.37
989.92	226.24
990.22	226.19
990.51	226.27
990.80	226.25
991.09	226.30
991.38	226.33
991.67	226.23
991.96	226.15
992.25	226.20
992.54	226.14
992.83	226.17
993.12	226.19
993.41	226.22
993.70	226.48
993.99	226.55
994.28	226.60
994.58	226.73
994.87	226.74
995.16	226.77
995.45	226.74
995.74	226.51
996.03	226.59
996.32	226.63
996.61	226.73
996.90	226.69
997.19	226.63
997.48	226.73
997.77	226.78
998.06	226.87
998.34	226.83
998.63	226.75
998.92	226.80
999.21	226.92
999.50	226.95
999.79	226.75
1000.08	226.78
1000.37	226.78
1000.66	226.68
1000.95	226.81
1001.24	226.78
1001.53	226.88
1001.82	226.92
1002.11	226.89
1002.40	226.91
1002.68	227.02
1002.97	227.34
1003.26	227.32
1003.55	227.18
1003.84	227.17
1004.13	227.27
1004.42	227.20
1004.71	227.26
1004.99	227.26
1005.28	227.38
1005.57	227.41
1005.86	227.35
1006.15	227.27
1006.44	227.18
1006.72	227.22
1007.01	227.15
1007.30	227.14
1007.59	227.04
1007.88	227.05
1008.17	227.00
1008.45	226.88
1008.74	226.65
1009.03	226.47
1009.32	226.39
1009.60	226.43
1009.89	226.43
1010.18	226.25
1010.47	226.25
1010.76	226.26
1011.04	226.22
1011.33	226.15
1011.62	226.15
1011.91	226.24
1012.19	226.31
1012.48	226.40
1012.77	226.46
1013.05	226.70
1013.34	226.70
1013.63	226.68
1013.92	226.75
1014.20	226.69
1014.49	226.77
1014.78	226.76
1015.06	226.62
1015.35	226.69
1015.64	226.71
1015.92	226.74
1016.21	226.84
1016.50	226.81
1016.78	226.89
1017.07	226.92
1017.36	226.79
1017.64	226.71
1017.93	226.67
1018.22	226.64
1018.50	226.61
1018.79	226.54
1019.08	226.27
1019.36	226.32
1019.65	226.26
1019.93	226.34
1020.22	226.47
1020.51	226.65
1020.79	226.69
1021.08	226.80
1021.36	226.40
1021.65	225.60
1021.94	226.20
1022.22	226.50
1022.51	225.30
1022.79	228.85
1023.08	227.35
1023.36	231.55
1023.65	226.10
>>>>>End Processed Spectral Data<<<<<
