SpectraSuite Data File
++++++++++++++++++++++++++++++++++++
Date: Wed Sep 04 17:53:41 EDT 2013
User: lab3
Dark Spectrum Present: Yes
Reference Spectrum Present: No
Number of Sampled Component Spectra: 1
Spectrometers: USB2E7196
Integration Time (usec): 170000 (USB2E7196)
Spectra Averaged: 20 (USB2E7196)
Boxcar Smoothing: 10 (USB2E7196)
Correct for Electrical Dark: No (USB2E7196)
Strobe/Lamp Enabled: No (USB2E7196)
Correct for Detector Non-linearity: No (USB2E7196)
Correct for Stray Light: No (USB2E7196)
Number of Pixels in Processed Spectrum: 2048
>>>>>Begin Processed Spectral Data<<<<<
339.09	0.00
339.48	213.55
339.86	214.30
340.24	217.00
340.63	216.70
341.01	226.30
341.39	220.30
341.78	222.25
342.16	224.15
342.54	223.05
342.93	212.34
343.31	222.98
343.69	223.55
344.07	223.98
344.46	224.38
344.84	224.82
345.22	224.78
345.60	225.01
345.99	225.20
346.37	225.24
346.75	225.34
347.13	225.31
347.52	225.44
347.90	225.68
348.28	225.76
348.66	225.81
349.05	225.72
349.43	225.80
349.81	225.87
350.19	225.88
350.57	225.98
350.96	226.05
351.34	226.15
351.72	226.20
352.10	226.36
352.48	226.38
352.87	226.40
353.25	226.50
353.63	226.63
354.01	226.68
354.39	226.81
354.77	226.90
355.15	227.15
355.54	227.13
355.92	226.96
356.30	227.06
356.68	227.45
357.06	227.57
357.44	227.56
357.82	227.63
358.20	228.15
358.58	228.15
358.97	228.23
359.35	228.48
359.73	228.62
360.11	228.63
360.49	228.74
360.87	228.84
361.25	228.93
361.63	229.08
362.01	229.19
362.39	229.20
362.77	229.28
363.15	229.29
363.53	229.37
363.91	229.52
364.29	229.47
364.67	229.05
365.05	229.10
365.43	229.19
365.81	229.25
366.19	229.06
366.57	229.26
366.95	229.30
367.33	229.13
367.71	229.13
368.09	229.28
368.47	229.28
368.85	229.23
369.23	229.30
369.61	229.13
369.99	229.24
370.37	229.27
370.75	229.46
371.13	229.34
371.51	229.33
371.89	229.40
372.27	229.48
372.65	229.50
373.03	229.45
373.41	229.40
373.78	229.34
374.16	229.12
374.54	228.93
374.92	228.90
375.30	228.88
375.68	228.80
376.06	228.76
376.44	228.65
376.82	228.66
377.19	228.55
377.57	228.46
377.95	228.27
378.33	228.14
378.71	227.82
379.09	227.85
379.47	227.80
379.84	227.64
380.22	227.48
380.60	227.37
380.98	227.35
381.36	227.24
381.73	227.14
382.11	227.14
382.49	227.05
382.87	226.89
383.25	226.83
383.62	227.31
384.00	227.18
384.38	227.18
384.76	227.26
385.13	227.41
385.51	227.37
385.89	227.26
386.27	227.28
386.64	227.34
387.02	227.27
387.40	227.18
387.78	227.15
388.15	227.08
388.53	227.04
388.91	226.94
389.29	226.95
389.66	227.01
390.04	226.94
390.42	227.02
390.79	227.01
391.17	226.96
391.55	226.46
391.92	226.41
392.30	226.44
392.68	226.31
393.05	226.23
393.43	226.29
393.81	226.39
394.18	226.32
394.56	226.25
394.94	226.28
395.31	226.26
395.69	226.44
396.06	226.52
396.44	226.58
396.82	226.56
397.19	226.84
397.57	226.81
397.95	226.92
398.32	226.82
398.70	226.90
399.07	227.08
399.45	227.13
399.82	227.19
400.20	227.19
400.58	227.25
400.95	227.16
401.33	227.28
401.70	227.65
402.08	227.80
402.45	227.95
402.83	228.31
403.20	228.49
403.58	228.58
403.95	228.87
404.33	229.08
404.71	229.38
405.08	229.84
405.46	230.11
405.83	230.31
406.21	230.65
406.58	230.95
406.96	231.29
407.33	231.56
407.70	232.01
408.08	232.74
408.45	233.21
408.83	233.71
409.20	234.10
409.58	234.26
409.95	234.81
410.33	235.40
410.70	235.69
411.08	236.28
411.45	236.84
411.82	237.39
412.20	238.16
412.57	239.07
412.95	239.34
413.32	240.23
413.69	241.15
414.07	242.06
414.44	243.10
414.82	244.14
415.19	245.37
415.56	246.51
415.94	247.56
416.31	248.95
416.68	250.40
417.06	252.04
417.43	253.62
417.81	255.35
418.18	257.14
418.55	259.08
418.93	261.13
419.30	263.28
419.67	265.50
420.04	267.75
420.42	270.05
420.79	273.10
421.16	275.82
421.54	278.80
421.91	281.76
422.28	284.73
422.66	287.91
423.03	291.33
423.40	294.61
423.77	298.09
424.15	301.66
424.52	305.41
424.89	309.53
425.26	313.52
425.64	317.22
426.01	321.31
426.38	325.67
426.75	330.18
427.13	334.79
427.50	339.48
427.87	344.33
428.24	349.23
428.61	353.76
428.99	359.08
429.36	364.56
429.73	370.10
430.10	375.74
430.47	381.35
430.85	386.90
431.22	393.19
431.59	400.04
431.96	406.31
432.33	413.23
432.70	419.85
433.08	427.60
433.45	435.02
433.82	442.40
434.19	450.65
434.56	458.76
434.93	466.36
435.30	474.09
435.68	482.70
436.05	490.96
436.42	499.31
436.79	506.93
437.16	515.22
437.53	523.95
437.90	532.55
438.27	541.16
438.64	550.09
439.01	558.25
439.38	565.40
439.75	572.42
440.13	580.28
440.50	587.76
440.87	593.96
441.24	600.55
441.61	607.38
441.98	612.44
442.35	618.16
442.72	624.06
443.09	629.89
443.46	633.15
443.83	635.71
444.20	637.66
444.57	640.30
444.94	641.38
445.31	642.53
445.68	644.07
446.05	644.16
446.42	642.98
446.79	641.59
447.16	639.97
447.53	638.77
447.90	635.39
448.27	631.82
448.64	626.89
449.01	623.08
449.37	617.01
449.74	610.98
450.11	604.18
450.48	596.47
450.85	588.49
451.22	581.77
451.59	575.06
451.96	568.75
452.33	560.71
452.70	553.35
453.07	544.70
453.43	535.33
453.80	527.05
454.17	518.96
454.54	511.40
454.91	503.22
455.28	495.25
455.65	487.70
456.02	480.89
456.38	474.54
456.75	466.77
457.12	460.55
457.49	454.24
457.86	447.88
458.23	442.77
458.59	437.16
458.96	431.41
459.33	426.37
459.70	421.26
460.07	417.23
460.43	412.51
460.80	408.07
461.17	404.49
461.54	400.53
461.91	396.72
462.27	392.80
462.64	389.50
463.01	386.01
463.38	382.71
463.74	378.71
464.11	375.79
464.48	373.16
464.85	370.17
465.21	368.06
465.58	365.80
465.95	363.09
466.32	360.85
466.68	358.67
467.05	356.43
467.42	354.32
467.78	352.02
468.15	349.93
468.52	348.48
468.88	346.24
469.25	344.28
469.62	342.84
469.98	341.18
470.35	339.72
470.72	338.23
471.08	336.51
471.45	335.17
471.82	333.86
472.18	332.41
472.55	331.35
472.92	329.99
473.28	328.87
473.65	327.70
474.02	326.61
474.38	325.74
474.75	325.04
475.11	324.10
475.48	323.47
475.85	322.84
476.21	322.13
476.58	321.60
476.94	321.25
477.31	320.69
477.67	320.27
478.04	319.98
478.41	319.75
478.77	320.00
479.14	319.76
479.50	319.72
479.87	319.78
480.23	319.83
480.60	319.82
480.96	319.89
481.33	320.25
481.69	320.63
482.06	320.96
482.42	321.25
482.79	321.60
483.15	321.97
483.52	322.72
483.88	323.20
484.25	323.85
484.61	324.51
484.98	325.21
485.34	326.30
485.71	327.23
486.07	328.23
486.44	328.75
486.80	329.85
487.17	330.89
487.53	332.22
487.90	333.55
488.26	335.17
488.62	336.74
488.99	338.18
489.35	339.72
489.72	341.40
490.08	343.23
490.44	345.24
490.81	347.47
491.17	349.60
491.54	352.11
491.90	354.70
492.26	357.29
492.63	360.17
492.99	362.89
493.36	365.90
493.72	369.17
494.08	372.65
494.45	376.35
494.81	380.15
495.17	384.06
495.54	388.15
495.90	392.41
496.26	396.85
496.63	401.55
496.99	406.35
497.35	411.37
497.72	416.73
498.08	422.22
498.44	427.84
498.80	433.94
499.17	440.06
499.53	446.36
499.89	453.11
500.26	459.90
500.62	466.88
500.98	474.45
501.34	482.00
501.71	489.79
502.07	497.54
502.43	505.73
502.79	514.13
503.16	522.82
503.52	531.68
503.88	540.90
504.24	550.56
504.60	560.61
504.97	570.99
505.33	581.45
505.69	592.58
506.05	603.60
506.41	614.76
506.78	626.44
507.14	638.50
507.50	650.79
507.86	663.41
508.22	676.32
508.59	689.21
508.95	702.67
509.31	716.78
509.67	731.02
510.03	745.41
510.39	760.07
510.75	775.19
511.12	790.51
511.48	806.18
511.84	821.91
512.20	837.60
512.56	853.85
512.92	870.60
513.28	887.35
513.64	904.59
514.00	922.07
514.37	939.85
514.73	957.82
515.09	975.85
515.45	994.00
515.81	1012.12
516.17	1030.87
516.53	1049.51
516.89	1068.25
517.25	1087.78
517.61	1107.80
517.97	1127.97
518.33	1147.91
518.69	1168.12
519.05	1188.59
519.41	1209.17
519.77	1230.28
520.13	1250.92
520.49	1271.45
520.85	1293.54
521.21	1314.54
521.57	1335.85
521.93	1356.50
522.29	1377.41
522.65	1398.11
523.01	1419.26
523.37	1440.22
523.73	1461.45
524.09	1482.04
524.45	1502.58
524.81	1523.23
525.17	1543.89
525.53	1564.51
525.89	1585.43
526.25	1606.31
526.61	1626.29
526.97	1647.31
527.33	1668.57
527.68	1690.50
528.04	1711.89
528.40	1731.48
528.76	1752.73
529.12	1772.97
529.48	1793.78
529.84	1813.94
530.20	1834.98
530.56	1855.26
530.91	1876.34
531.27	1896.30
531.63	1916.84
531.99	1937.16
532.35	1957.02
532.71	1977.13
533.07	1997.66
533.42	2017.36
533.78	2036.91
534.14	2057.03
534.50	2075.82
534.86	2094.97
535.21	2112.45
535.57	2130.84
535.93	2148.53
536.29	2165.95
536.65	2184.23
537.00	2201.71
537.36	2219.29
537.72	2235.60
538.08	2253.08
538.44	2269.62
538.79	2286.04
539.15	2302.23
539.51	2318.36
539.87	2333.81
540.22	2347.75
540.58	2362.04
540.94	2375.24
541.29	2387.98
541.65	2400.47
542.01	2413.02
542.37	2423.33
542.72	2433.87
543.08	2444.20
543.44	2455.95
543.79	2465.68
544.15	2475.25
544.51	2485.44
544.87	2495.00
545.22	2503.88
545.58	2511.54
545.94	2518.39
546.29	2524.83
546.65	2531.07
547.01	2536.84
547.36	2542.16
547.72	2547.66
548.07	2551.30
548.43	2556.28
548.79	2561.03
549.14	2564.97
549.50	2568.91
549.86	2572.80
550.21	2576.91
550.57	2580.45
550.92	2581.61
551.28	2583.12
551.64	2585.38
551.99	2586.72
552.35	2588.08
552.70	2590.07
553.06	2591.92
553.41	2593.60
553.77	2595.36
554.13	2597.01
554.48	2598.45
554.84	2599.75
555.19	2600.81
555.55	2602.89
555.90	2602.34
556.26	2601.00
556.61	2599.55
556.97	2597.42
557.32	2597.09
557.68	2595.83
558.03	2594.42
558.39	2592.91
558.74	2592.03
559.10	2588.73
559.45	2585.25
559.81	2580.85
560.16	2575.55
560.52	2570.02
560.87	2565.40
561.23	2559.99
561.58	2554.07
561.94	2547.04
562.29	2539.75
562.64	2532.89
563.00	2524.37
563.35	2517.70
563.71	2511.28
564.06	2505.04
564.42	2498.61
564.77	2491.26
565.12	2483.77
565.48	2475.79
565.83	2467.95
566.19	2459.81
566.54	2451.93
566.89	2443.90
567.25	2436.29
567.60	2429.25
567.96	2421.96
568.31	2413.56
568.66	2404.89
569.02	2396.06
569.37	2388.02
569.72	2380.34
570.08	2370.96
570.43	2361.49
570.78	2352.45
571.14	2343.19
571.49	2332.87
571.84	2323.15
572.20	2312.57
572.55	2302.16
572.90	2291.15
573.26	2280.89
573.61	2269.98
573.96	2258.84
574.31	2246.85
574.67	2235.11
575.02	2222.28
575.37	2209.88
575.72	2196.78
576.08	2184.66
576.43	2171.86
576.78	2158.86
577.13	2144.96
577.49	2132.40
577.84	2120.88
578.19	2109.03
578.54	2096.39
578.90	2084.52
579.25	2071.81
579.60	2059.12
579.95	2046.45
580.30	2033.63
580.66	2020.29
581.01	2006.58
581.36	1992.98
581.71	1980.38
582.06	1967.41
582.42	1955.26
582.77	1942.55
583.12	1930.98
583.47	1918.80
583.82	1907.05
584.17	1894.92
584.53	1883.59
584.88	1870.49
585.23	1857.08
585.58	1842.99
585.93	1829.91
586.28	1816.81
586.63	1803.27
586.98	1789.23
587.34	1775.87
587.69	1762.83
588.04	1750.24
588.39	1738.65
588.74	1726.33
589.09	1714.50
589.44	1701.79
589.79	1689.58
590.14	1677.67
590.49	1665.26
590.84	1653.48
591.19	1641.65
591.54	1629.41
591.89	1617.15
592.25	1607.20
592.60	1595.70
592.95	1584.40
593.30	1572.64
593.65	1560.45
594.00	1548.41
594.35	1538.75
594.70	1527.14
595.05	1515.54
595.40	1503.61
595.75	1491.44
596.10	1480.27
596.45	1468.77
596.80	1458.16
597.15	1446.60
597.50	1434.78
597.85	1423.66
598.19	1411.88
598.54	1400.02
598.89	1388.79
599.24	1378.15
599.59	1366.42
599.94	1355.74
600.29	1345.34
600.64	1334.93
600.99	1324.37
601.34	1314.95
601.69	1303.92
602.04	1294.13
602.39	1284.46
602.74	1275.35
603.08	1265.97
603.43	1256.66
603.78	1246.92
604.13	1237.35
604.48	1227.71
604.83	1217.95
605.18	1208.11
605.53	1198.73
605.87	1189.66
606.22	1181.21
606.57	1172.04
606.92	1162.87
607.27	1153.97
607.62	1145.28
607.96	1136.76
608.31	1128.87
608.66	1120.43
609.01	1111.58
609.36	1103.10
609.70	1094.57
610.05	1085.87
610.40	1077.68
610.75	1069.05
611.10	1060.65
611.44	1051.79
611.79	1043.82
612.14	1036.11
612.49	1028.20
612.83	1020.51
613.18	1012.69
613.53	1004.76
613.88	996.81
614.22	989.03
614.57	981.10
614.92	973.12
615.27	965.61
615.61	957.87
615.96	950.41
616.31	943.08
616.65	935.92
617.00	928.78
617.35	921.54
617.70	914.30
618.04	907.20
618.39	900.29
618.74	894.11
619.08	887.21
619.43	880.21
619.78	873.19
620.12	866.15
620.47	859.33
620.82	852.31
621.16	845.60
621.51	839.27
621.85	832.92
622.20	826.37
622.55	819.67
622.89	813.25
623.24	806.79
623.59	800.54
623.93	794.16
624.28	787.96
624.62	782.46
624.97	776.70
625.32	770.76
625.66	764.87
626.01	758.67
626.35	753.12
626.70	747.60
627.04	742.42
627.39	737.01
627.73	731.81
628.08	726.79
628.43	721.31
628.77	715.86
629.12	710.62
629.46	705.92
629.81	701.43
630.15	696.80
630.50	691.98
630.84	687.06
631.19	682.36
631.53	677.79
631.88	672.53
632.22	667.68
632.57	663.44
632.91	658.89
633.26	654.60
633.60	649.93
633.95	645.36
634.29	640.66
634.64	636.29
634.98	631.48
635.32	626.91
635.67	622.95
636.01	618.79
636.36	614.55
636.70	610.43
637.05	606.06
637.39	601.81
637.73	597.76
638.08	593.81
638.42	589.67
638.77	585.48
639.11	581.20
639.45	576.87
639.80	572.36
640.14	568.25
640.49	564.15
640.83	560.34
641.17	556.69
641.52	553.00
641.86	549.16
642.20	546.11
642.55	542.55
642.89	538.90
643.23	535.34
643.58	532.12
643.92	528.41
644.26	524.96
644.61	521.86
644.95	518.46
645.29	515.25
645.64	512.02
645.98	508.85
646.32	505.97
646.66	502.94
647.01	500.14
647.35	497.44
647.69	494.56
648.04	491.92
648.38	489.00
648.72	486.11
649.06	483.23
649.41	480.05
649.75	477.07
650.09	474.30
650.43	471.44
650.78	468.41
651.12	465.62
651.46	462.82
651.80	459.90
652.14	457.24
652.49	454.64
652.83	452.03
653.17	449.34
653.51	446.61
653.85	444.28
654.20	441.72
654.54	439.14
654.88	436.55
655.22	434.22
655.56	431.88
655.90	429.51
656.25	427.26
656.59	425.05
656.93	422.95
657.27	420.79
657.61	418.36
657.95	416.25
658.29	414.12
658.64	412.01
658.98	409.85
659.32	407.73
659.66	405.57
660.00	403.54
660.34	401.58
660.68	399.74
661.02	397.58
661.36	395.63
661.70	393.62
662.05	391.73
662.39	389.74
662.73	388.02
663.07	386.46
663.41	384.58
663.75	382.68
664.09	380.78
664.43	378.93
664.77	377.39
665.11	375.73
665.45	374.10
665.79	372.59
666.13	371.00
666.47	369.26
666.81	367.62
667.15	365.95
667.49	364.47
667.83	363.09
668.17	361.68
668.51	360.14
668.85	358.81
669.19	357.76
669.53	356.09
669.87	354.42
670.21	352.87
670.55	351.50
670.89	350.32
671.23	349.12
671.57	347.64
671.91	346.30
672.25	344.92
672.58	343.63
672.92	342.11
673.26	340.86
673.60	339.65
673.94	338.44
674.28	337.25
674.62	336.08
674.96	334.78
675.30	333.62
675.64	332.58
675.97	331.33
676.31	329.91
676.65	328.83
676.99	327.98
677.33	326.82
677.67	325.84
678.01	324.57
678.34	323.44
678.68	322.63
679.02	321.61
679.36	320.67
679.70	319.72
680.04	318.83
680.37	317.88
680.71	316.93
681.05	316.04
681.39	315.19
681.73	314.25
682.06	313.30
682.40	312.38
682.74	311.57
683.08	310.80
683.42	309.94
683.75	309.23
684.09	308.21
684.43	307.41
684.77	306.51
685.10	305.79
685.44	304.96
685.78	304.07
686.12	303.23
686.45	302.37
686.79	301.48
687.13	300.79
687.46	299.98
687.80	299.23
688.14	298.41
688.48	297.70
688.81	297.00
689.15	296.28
689.49	295.57
689.82	294.85
690.16	294.02
690.50	293.27
690.83	292.48
691.17	291.65
691.51	291.06
691.84	290.44
692.18	289.75
692.52	289.13
692.85	288.48
693.19	288.10
693.52	287.46
693.86	286.81
694.20	286.14
694.53	285.56
694.87	284.97
695.21	284.39
695.54	283.79
695.88	283.07
696.21	282.35
696.55	281.81
696.88	281.15
697.22	280.50
697.56	280.03
697.89	279.42
698.23	279.00
698.56	278.31
698.90	277.87
699.23	277.29
699.57	276.79
699.90	276.21
700.24	275.51
700.58	275.12
700.91	274.77
701.25	274.67
701.58	274.63
701.92	274.32
702.25	273.86
702.59	273.41
702.92	273.01
703.26	272.71
703.59	272.24
703.93	272.20
704.26	271.90
704.60	271.48
704.93	271.04
705.26	270.52
705.60	270.16
705.93	269.61
706.27	269.36
706.60	269.00
706.94	268.86
707.27	268.47
707.61	268.07
707.94	267.70
708.27	266.91
708.61	266.10
708.94	265.58
709.28	265.27
709.61	264.82
709.94	264.51
710.28	264.17
710.61	263.75
710.95	262.98
711.28	262.92
711.61	262.53
711.95	262.27
712.28	261.90
712.61	261.65
712.95	261.53
713.28	261.33
713.61	260.89
713.95	260.35
714.28	260.00
714.61	259.53
714.95	259.10
715.28	258.73
715.61	258.38
715.95	258.13
716.28	257.65
716.61	257.33
716.95	256.96
717.28	256.60
717.61	256.37
717.94	256.09
718.28	255.45
718.61	255.14
718.94	254.83
719.27	254.62
719.61	254.32
719.94	253.90
720.27	253.43
720.60	253.18
720.94	252.90
721.27	252.71
721.60	252.69
721.93	252.40
722.27	252.37
722.60	252.19
722.93	251.87
723.26	251.78
723.59	251.60
723.93	251.46
724.26	251.30
724.59	251.00
724.92	250.84
725.25	250.75
725.59	250.55
725.92	250.42
726.25	250.25
726.58	250.04
726.91	249.90
727.24	249.76
727.57	249.68
727.91	249.51
728.24	249.43
728.57	249.12
728.90	249.04
729.23	248.72
729.56	248.71
729.89	248.62
730.22	248.37
730.55	248.07
730.89	247.83
731.22	247.55
731.55	247.49
731.88	247.31
732.21	247.02
732.54	246.83
732.87	246.60
733.20	246.46
733.53	246.32
733.86	246.22
734.19	246.01
734.52	245.85
734.85	246.02
735.18	245.73
735.51	245.68
735.84	245.59
736.17	245.60
736.50	245.25
736.83	245.54
737.16	245.42
737.49	245.35
737.82	245.20
738.15	245.17
738.48	244.91
738.81	244.77
739.14	244.66
739.47	244.50
739.80	244.34
740.13	244.22
740.46	244.01
740.79	243.75
741.12	243.58
741.45	243.35
741.78	242.93
742.11	242.96
742.44	242.72
742.77	242.63
743.10	242.35
743.43	242.12
743.75	241.53
744.08	242.03
744.41	241.88
744.74	241.69
745.07	241.38
745.40	241.31
745.73	241.36
746.06	241.18
746.39	241.11
746.71	240.99
747.04	240.75
747.37	240.57
747.70	240.50
748.03	240.37
748.36	240.33
748.68	240.16
749.01	239.86
749.34	239.77
749.67	239.58
750.00	239.54
750.33	239.88
750.65	239.76
750.98	239.03
751.31	238.94
751.64	238.87
751.97	239.06
752.29	238.99
752.62	238.64
752.95	238.51
753.28	238.23
753.60	238.13
753.93	238.18
754.26	238.15
754.59	237.91
754.91	237.74
755.24	237.55
755.57	237.44
755.90	237.31
756.22	237.16
756.55	237.03
756.88	236.88
757.20	236.49
757.53	236.31
757.86	236.18
758.19	236.08
758.51	235.92
758.84	235.67
759.17	235.46
759.49	235.41
759.82	235.59
760.15	235.74
760.47	235.60
760.80	235.37
761.13	235.37
761.45	235.30
761.78	235.26
762.11	235.25
762.43	235.20
762.76	235.15
763.08	235.03
763.41	235.00
763.74	234.90
764.06	234.75
764.39	234.69
764.71	234.68
765.04	234.58
765.37	234.56
765.69	234.50
766.02	234.44
766.34	234.28
766.67	233.97
767.00	233.87
767.32	234.01
767.65	234.26
767.97	234.10
768.30	234.02
768.62	233.93
768.95	233.80
769.27	233.65
769.60	233.69
769.92	233.62
770.25	233.39
770.57	233.26
770.90	233.21
771.22	233.08
771.55	232.98
771.87	232.95
772.20	232.87
772.52	233.20
772.85	233.76
773.17	233.76
773.50	233.70
773.82	233.57
774.15	233.33
774.47	233.00
774.80	232.94
775.12	232.92
775.45	232.84
775.77	232.82
776.09	232.85
776.42	232.77
776.74	232.90
777.07	232.83
777.39	232.83
777.72	232.70
778.04	232.72
778.36	232.62
778.69	232.59
779.01	232.60
779.33	232.14
779.66	231.53
779.98	231.44
780.31	231.43
780.63	231.59
780.95	231.67
781.28	231.57
781.60	231.46
781.92	231.40
782.25	231.46
782.57	231.42
782.89	231.36
783.22	231.27
783.54	231.09
783.86	231.18
784.19	231.06
784.51	231.14
784.83	231.07
785.16	231.07
785.48	231.07
785.80	231.02
786.12	231.03
786.45	231.00
786.77	231.00
787.09	230.94
787.42	230.69
787.74	230.62
788.06	230.67
788.38	230.60
788.71	230.52
789.03	230.42
789.35	230.46
789.67	230.36
789.99	230.36
790.32	230.23
790.64	230.20
790.96	230.60
791.28	230.46
791.61	230.41
791.93	230.34
792.25	230.29
792.57	230.59
792.89	230.40
793.21	230.38
793.54	230.25
793.86	230.13
794.18	230.21
794.50	230.11
794.82	230.01
795.14	230.11
795.47	230.21
795.79	230.22
796.11	230.08
796.43	230.00
796.75	229.93
797.07	229.91
797.39	229.91
797.71	229.52
798.04	229.54
798.36	229.54
798.68	229.53
799.00	229.44
799.32	229.15
799.64	229.22
799.96	229.23
800.28	229.33
800.60	229.32
800.92	229.25
801.24	229.21
801.56	229.25
801.89	229.23
802.21	229.20
802.53	229.11
802.85	229.16
803.17	229.43
803.49	229.42
803.81	229.45
804.13	229.35
804.45	229.27
804.77	229.28
805.09	229.33
805.41	229.30
805.73	229.28
806.05	229.22
806.37	229.23
806.69	229.14
807.01	229.14
807.33	229.15
807.65	228.99
807.97	229.14
808.28	229.10
808.60	229.04
808.92	228.98
809.24	229.27
809.56	229.19
809.88	228.95
810.20	228.93
810.52	229.04
810.84	228.95
811.16	228.93
811.48	228.92
811.80	229.00
812.12	228.98
812.43	229.09
812.75	229.05
813.07	228.97
813.39	229.04
813.71	228.92
814.03	228.91
814.35	228.99
814.67	228.83
814.98	228.77
815.30	228.77
815.62	228.66
815.94	228.31
816.26	228.59
816.58	228.50
816.89	228.49
817.21	228.37
817.53	228.49
817.85	228.47
818.17	228.42
818.48	228.32
818.80	228.41
819.12	228.31
819.44	228.30
819.76	228.25
820.07	228.19
820.39	228.20
820.71	228.19
821.03	228.18
821.34	228.16
821.66	228.20
821.98	228.23
822.30	228.26
822.61	228.55
822.93	228.23
823.25	228.31
823.57	228.34
823.88	228.39
824.20	228.32
824.52	228.43
824.83	228.44
825.15	228.40
825.47	228.35
825.79	228.36
826.10	228.27
826.42	228.25
826.74	228.25
827.05	228.28
827.37	228.27
827.69	228.19
828.00	228.16
828.32	228.14
828.64	228.12
828.95	228.27
829.27	228.19
829.58	228.19
829.90	228.15
830.22	228.12
830.53	228.06
830.85	227.95
831.17	227.80
831.48	227.83
831.80	227.73
832.11	227.69
832.43	227.58
832.75	227.50
833.06	227.77
833.38	227.67
833.69	227.61
834.01	227.57
834.32	227.61
834.64	227.55
834.96	227.52
835.27	227.42
835.59	227.32
835.90	227.23
836.22	227.25
836.53	227.16
836.85	227.17
837.16	227.63
837.48	227.67
837.79	227.79
838.11	227.75
838.42	227.75
838.74	227.82
839.05	227.75
839.37	227.82
839.68	227.52
840.00	227.50
840.31	227.55
840.63	227.56
840.94	227.47
841.26	227.44
841.57	227.43
841.88	227.47
842.20	227.37
842.51	227.26
842.83	227.20
843.14	227.65
843.46	227.54
843.77	227.28
844.08	227.30
844.40	227.17
844.71	227.14
845.03	227.19
845.34	227.10
845.65	227.19
845.97	227.21
846.28	227.22
846.60	227.31
846.91	227.24
847.22	227.21
847.54	227.40
847.85	227.50
848.16	227.47
848.48	227.43
848.79	227.62
849.10	227.70
849.42	227.82
849.73	227.37
850.04	227.44
850.36	227.20
850.67	227.30
850.98	227.30
851.30	227.37
851.61	227.32
851.92	227.37
852.23	227.50
852.55	227.54
852.86	227.60
853.17	227.59
853.49	227.76
853.80	227.87
854.11	227.85
854.42	227.84
854.74	227.78
855.05	227.75
855.36	227.51
855.67	227.50
855.99	227.51
856.30	228.10
856.61	228.09
856.92	228.11
857.23	228.12
857.55	228.10
857.86	228.04
858.17	228.09
858.48	227.94
858.79	227.85
859.11	227.85
859.42	227.82
859.73	227.78
860.04	227.68
860.35	227.53
860.66	227.41
860.98	227.42
861.29	227.46
861.60	227.46
861.91	227.64
862.22	227.55
862.53	227.43
862.84	226.80
863.16	226.93
863.47	226.92
863.78	226.86
864.09	226.88
864.40	226.85
864.71	226.86
865.02	226.99
865.33	226.87
865.64	226.82
865.95	226.82
866.27	227.12
866.58	227.09
866.89	227.17
867.20	227.09
867.51	227.03
867.82	227.02
868.13	227.20
868.44	227.05
868.75	227.20
869.06	227.22
869.37	227.32
869.68	227.12
869.99	227.18
870.30	227.19
870.61	227.30
870.92	227.21
871.23	227.13
871.54	227.07
871.85	227.23
872.16	227.18
872.47	227.08
872.78	226.72
873.09	226.76
873.40	226.67
873.71	226.76
874.02	226.75
874.33	226.65
874.64	226.50
874.95	226.55
875.26	226.28
875.56	226.32
875.87	226.29
876.18	226.25
876.49	226.64
876.80	226.54
877.11	226.35
877.42	226.40
877.73	226.41
878.04	226.41
878.35	226.39
878.66	226.43
878.96	226.41
879.27	226.42
879.58	226.41
879.89	226.35
880.20	226.48
880.51	226.51
880.82	226.57
881.12	226.56
881.43	226.46
881.74	226.51
882.05	226.36
882.36	226.40
882.67	226.48
882.97	225.97
883.28	225.93
883.59	225.96
883.90	226.00
884.21	226.06
884.51	226.02
884.82	225.95
885.13	225.93
885.44	225.96
885.74	226.00
886.05	225.94
886.36	225.99
886.67	225.80
886.98	226.03
887.28	226.10
887.59	226.10
887.90	226.19
888.20	226.19
888.51	226.32
888.82	226.25
889.13	226.31
889.43	226.69
889.74	226.75
890.05	226.74
890.35	226.72
890.66	226.67
890.97	226.66
891.28	226.60
891.58	226.69
891.89	226.76
892.20	226.70
892.50	226.68
892.81	226.76
893.12	226.84
893.42	226.53
893.73	226.49
894.04	226.54
894.34	226.54
894.65	226.60
894.95	226.60
895.26	226.69
895.57	226.83
895.87	226.45
896.18	226.53
896.48	226.61
896.79	226.65
897.10	226.82
897.40	226.84
897.71	226.91
898.01	226.77
898.32	226.82
898.63	226.85
898.93	226.99
899.24	226.98
899.54	226.91
899.85	226.94
900.15	226.96
900.46	227.01
900.76	227.10
901.07	227.10
901.38	227.08
901.68	227.10
901.99	226.88
902.29	226.91
902.60	226.83
902.90	226.76
903.21	226.71
903.51	226.60
903.82	226.68
904.12	226.70
904.43	226.80
904.73	226.75
905.03	226.72
905.34	227.07
905.64	227.01
905.95	227.09
906.25	227.07
906.56	227.02
906.86	227.00
907.17	226.90
907.47	226.88
907.77	226.80
908.08	226.71
908.38	226.76
908.69	226.80
908.99	226.84
909.30	226.90
909.60	226.91
909.90	226.89
910.21	226.72
910.51	226.63
910.81	226.64
911.12	226.59
911.42	226.61
911.73	226.07
912.03	226.05
912.33	226.03
912.64	226.05
912.94	226.06
913.24	225.95
913.55	225.86
913.85	225.80
914.15	225.91
914.46	225.95
914.76	225.90
915.06	225.83
915.37	225.79
915.67	225.67
915.97	225.63
916.27	225.50
916.58	225.55
916.88	225.49
917.18	225.37
917.49	225.78
917.79	225.77
918.09	225.85
918.39	225.99
918.70	225.97
919.00	225.96
919.30	226.16
919.60	226.11
919.91	226.12
920.21	226.14
920.51	226.04
920.81	225.95
921.12	226.02
921.42	226.01
921.72	226.09
922.02	226.11
922.32	226.15
922.63	226.20
922.93	226.46
923.23	226.50
923.53	226.47
923.83	226.10
924.13	226.14
924.44	226.18
924.74	226.27
925.04	226.36
925.34	226.44
925.64	226.26
925.94	226.26
926.24	226.49
926.55	226.45
926.85	226.53
927.15	226.59
927.45	226.59
927.75	226.60
928.05	226.61
928.35	226.65
928.65	226.78
928.95	226.89
929.26	226.64
929.56	226.76
929.86	226.86
930.16	226.87
930.46	226.82
930.76	226.84
931.06	226.58
931.36	226.48
931.66	226.49
931.96	226.49
932.26	226.63
932.56	226.50
932.86	226.55
933.16	226.52
933.46	226.46
933.76	226.42
934.06	226.56
934.36	226.70
934.66	226.75
934.96	226.72
935.26	226.75
935.56	226.87
935.86	226.77
936.16	226.73
936.46	226.66
936.76	226.70
937.06	226.70
937.36	226.78
937.66	226.85
937.96	226.81
938.26	226.74
938.56	226.64
938.86	226.69
939.16	226.84
939.46	226.90
939.76	226.94
940.06	226.96
940.35	226.90
940.65	226.66
940.95	226.73
941.25	226.58
941.55	226.51
941.85	226.47
942.15	226.56
942.45	226.66
942.75	226.69
943.04	226.72
943.34	226.79
943.64	226.75
943.94	226.70
944.24	226.67
944.54	226.74
944.84	226.72
945.13	226.59
945.43	226.48
945.73	226.43
946.03	226.42
946.33	226.34
946.62	226.21
946.92	226.21
947.22	226.15
947.52	226.24
947.82	226.25
948.11	226.23
948.41	226.13
948.71	226.05
949.01	226.01
949.31	225.93
949.60	225.85
949.90	225.91
950.20	225.84
950.50	225.84
950.79	225.74
951.09	225.83
951.39	225.82
951.69	225.75
951.98	225.90
952.28	225.89
952.58	225.86
952.87	225.87
953.17	225.93
953.47	225.83
953.76	225.71
954.06	225.60
954.36	225.48
954.66	225.56
954.95	225.61
955.25	225.67
955.55	225.62
955.84	225.53
956.14	225.57
956.44	225.55
956.73	225.43
957.03	225.45
957.32	225.41
957.62	225.42
957.92	225.46
958.21	225.28
958.51	225.84
958.81	225.92
959.10	226.00
959.40	226.07
959.69	226.09
959.99	226.23
960.29	226.29
960.58	226.29
960.88	226.42
961.17	226.38
961.47	226.39
961.76	226.35
962.06	226.42
962.36	226.37
962.65	226.48
962.95	226.56
963.24	226.55
963.54	226.58
963.83	226.65
964.13	226.72
964.42	226.70
964.72	226.30
965.01	226.27
965.31	226.21
965.60	226.09
965.90	226.41
966.19	226.34
966.49	226.33
966.78	226.35
967.08	226.27
967.37	226.30
967.67	226.24
967.96	226.42
968.26	226.41
968.55	226.40
968.85	226.35
969.14	226.37
969.43	226.41
969.73	226.38
970.02	226.29
970.32	226.23
970.61	226.22
970.91	226.12
971.20	226.05
971.49	226.00
971.79	226.04
972.08	225.75
972.38	225.72
972.67	225.67
972.96	225.65
973.26	225.53
973.55	225.64
973.85	225.68
974.14	225.58
974.43	225.60
974.73	225.53
975.02	225.55
975.31	225.55
975.61	225.55
975.90	225.48
976.19	225.50
976.49	225.53
976.78	225.52
977.07	225.51
977.37	225.57
977.66	225.64
977.95	225.56
978.24	225.56
978.54	225.62
978.83	225.62
979.12	225.62
979.42	225.67
979.71	225.55
980.00	225.53
980.29	225.59
980.59	225.51
980.88	225.75
981.17	225.71
981.46	225.75
981.76	225.70
982.05	225.92
982.34	225.91
982.63	225.94
982.93	225.96
983.22	226.07
983.51	226.11
983.80	226.23
984.09	226.30
984.39	226.29
984.68	226.32
984.97	226.38
985.26	226.42
985.55	226.47
985.85	226.35
986.14	226.43
986.43	226.51
986.72	226.55
987.01	226.28
987.30	226.23
987.59	226.16
987.89	226.17
988.18	225.99
988.47	226.00
988.76	225.96
989.05	225.92
989.34	225.93
989.63	226.04
989.92	225.86
990.22	225.86
990.51	225.87
990.80	225.82
991.09	225.80
991.38	225.78
991.67	225.78
991.96	225.79
992.25	225.77
992.54	225.66
992.83	225.65
993.12	225.69
993.41	225.79
993.70	226.00
993.99	226.10
994.28	226.16
994.58	226.22
994.87	226.17
995.16	226.18
995.45	226.05
995.74	225.89
996.03	226.00
996.32	226.05
996.61	226.05
996.90	226.01
997.19	226.01
997.48	226.05
997.77	226.01
998.06	225.98
998.34	225.95
998.63	225.97
998.92	225.98
999.21	226.07
999.50	226.09
999.79	225.95
1000.08	225.97
1000.37	225.96
1000.66	225.93
1000.95	226.06
1001.24	226.08
1001.53	226.12
1001.82	226.08
1002.11	226.02
1002.40	226.11
1002.68	226.30
1002.97	226.68
1003.26	226.66
1003.55	226.60
1003.84	226.55
1004.13	226.77
1004.42	226.74
1004.71	226.75
1004.99	226.70
1005.28	226.81
1005.57	226.71
1005.86	226.62
1006.15	226.57
1006.44	226.41
1006.72	226.45
1007.01	226.33
1007.30	226.34
1007.59	226.31
1007.88	226.25
1008.17	226.26
1008.45	226.11
1008.74	225.89
1009.03	225.62
1009.32	225.60
1009.60	225.55
1009.89	225.57
1010.18	225.43
1010.47	225.42
1010.76	225.36
1011.04	225.37
1011.33	225.37
1011.62	225.46
1011.91	225.55
1012.19	225.59
1012.48	225.69
1012.77	225.60
1013.05	225.86
1013.34	225.82
1013.63	225.84
1013.92	226.00
1014.20	225.89
1014.49	225.86
1014.78	225.94
1015.06	225.81
1015.35	225.81
1015.64	225.95
1015.92	226.06
1016.21	226.05
1016.50	226.14
1016.78	226.22
1017.07	226.26
1017.36	226.20
1017.64	226.11
1017.93	226.07
1018.22	226.07
1018.50	226.10
1018.79	226.12
1019.08	225.90
1019.36	226.02
1019.65	225.94
1019.93	226.00
1020.22	226.17
1020.51	226.41
1020.79	226.32
1021.08	226.60
1021.36	225.95
1021.65	225.60
1021.94	225.90
1022.22	227.05
1022.51	224.90
1022.79	227.90
1023.08	227.10
1023.36	230.35
1023.65	224.90
>>>>>End Processed Spectral Data<<<<<
