SpectraSuite Data File
++++++++++++++++++++++++++++++++++++
Date: Wed Sep 04 17:55:21 EDT 2013
User: lab3
Dark Spectrum Present: Yes
Reference Spectrum Present: No
Number of Sampled Component Spectra: 1
Spectrometers: USB2E7196
Integration Time (usec): 170000 (USB2E7196)
Spectra Averaged: 20 (USB2E7196)
Boxcar Smoothing: 10 (USB2E7196)
Correct for Electrical Dark: No (USB2E7196)
Strobe/Lamp Enabled: No (USB2E7196)
Correct for Detector Non-linearity: No (USB2E7196)
Correct for Stray Light: No (USB2E7196)
Number of Pixels in Processed Spectrum: 2048
>>>>>Begin Processed Spectral Data<<<<<
339.09	0.00
339.48	214.35
339.86	215.10
340.24	216.90
340.63	217.30
341.01	225.80
341.39	220.15
341.78	220.50
342.16	224.90
342.54	222.90
342.93	212.54
343.31	223.21
343.69	223.68
344.07	224.08
344.46	224.51
344.84	224.89
345.22	224.89
345.60	225.16
345.99	225.45
346.37	225.50
346.75	225.60
347.13	225.71
347.52	225.67
347.90	225.86
348.28	225.84
348.66	226.02
349.05	225.93
349.43	226.00
349.81	226.07
350.19	226.15
350.57	226.28
350.96	226.33
351.34	226.49
351.72	226.55
352.10	226.71
352.48	226.76
352.87	226.90
353.25	226.87
353.63	226.91
354.01	226.97
354.39	227.08
354.77	227.13
355.15	227.25
355.54	227.31
355.92	227.25
356.30	227.36
356.68	227.74
357.06	227.85
357.44	227.83
357.82	227.82
358.20	228.19
358.58	228.20
358.97	228.32
359.35	228.46
359.73	228.63
360.11	228.61
360.49	228.65
360.87	228.67
361.25	228.87
361.63	229.09
362.01	229.16
362.39	229.20
362.77	229.31
363.15	229.35
363.53	229.35
363.91	229.37
364.29	229.42
364.67	228.96
365.05	229.04
365.43	229.16
365.81	229.28
366.19	229.16
366.57	229.40
366.95	229.39
367.33	229.28
367.71	229.36
368.09	229.49
368.47	229.52
368.85	229.49
369.23	229.60
369.61	229.42
369.99	229.60
370.37	229.59
370.75	229.82
371.13	229.77
371.51	229.80
371.89	229.84
372.27	229.87
372.65	229.90
373.03	229.86
373.41	229.85
373.78	229.82
374.16	229.60
374.54	229.36
374.92	229.26
375.30	229.27
375.68	229.11
376.06	229.10
376.44	229.05
376.82	229.01
377.19	228.91
377.57	228.88
377.95	228.61
378.33	228.58
378.71	228.20
379.09	228.19
379.47	228.22
379.84	228.09
380.22	227.93
380.60	227.82
380.98	227.67
381.36	227.54
381.73	227.44
382.11	227.41
382.49	227.35
382.87	227.22
383.25	227.13
383.62	227.65
384.00	227.52
384.38	227.49
384.76	227.60
385.13	227.70
385.51	227.61
385.89	227.54
386.27	227.46
386.64	227.57
387.02	227.50
387.40	227.44
387.78	227.47
388.15	227.51
388.53	227.50
388.91	227.57
389.29	227.54
389.66	227.54
390.04	227.44
390.42	227.55
390.79	227.61
391.17	227.60
391.55	227.02
391.92	227.06
392.30	227.02
392.68	226.89
393.05	226.87
393.43	226.94
393.81	227.00
394.18	227.00
394.56	226.96
394.94	227.12
395.31	227.07
395.69	227.23
396.06	227.37
396.44	227.41
396.82	227.40
397.19	227.67
397.57	227.68
397.95	227.85
398.32	227.78
398.70	227.87
399.07	228.04
399.45	228.16
399.82	228.19
400.20	228.28
400.58	228.36
400.95	228.24
401.33	228.41
401.70	228.84
402.08	228.93
402.45	229.10
402.83	229.31
403.20	229.50
403.58	229.57
403.95	229.71
404.33	229.94
404.71	230.16
405.08	230.60
405.46	230.88
405.83	231.11
406.21	231.40
406.58	231.65
406.96	231.89
407.33	232.16
407.70	232.55
408.08	233.26
408.45	233.68
408.83	234.19
409.20	234.56
409.58	234.67
409.95	235.21
410.33	235.71
410.70	236.08
411.08	236.74
411.45	237.34
411.82	237.85
412.20	238.64
412.57	239.58
412.95	239.91
413.32	240.76
413.69	241.66
414.07	242.54
414.44	243.49
414.82	244.53
415.19	245.81
415.56	247.04
415.94	248.10
416.31	249.60
416.68	251.02
417.06	252.59
417.43	254.20
417.81	255.98
418.18	257.77
418.55	259.63
418.93	261.61
419.30	263.68
419.67	265.89
420.04	268.11
420.42	270.38
420.79	273.39
421.16	276.13
421.54	279.12
421.91	282.12
422.28	285.24
422.66	288.50
423.03	291.85
423.40	295.10
423.77	298.51
424.15	302.03
424.52	305.75
424.89	309.98
425.26	314.00
425.64	317.77
426.01	321.95
426.38	326.42
426.75	330.90
427.13	335.50
427.50	340.26
427.87	345.25
428.24	350.17
428.61	354.67
428.99	360.03
429.36	365.51
429.73	371.02
430.10	376.60
430.47	382.32
430.85	387.97
431.22	394.17
431.59	400.89
431.96	407.13
432.33	414.06
432.70	420.70
433.08	428.51
433.45	436.04
433.82	443.43
434.19	451.68
434.56	459.88
434.93	467.55
435.30	475.32
435.68	483.77
436.05	492.26
436.42	500.62
436.79	508.20
437.16	516.60
437.53	525.31
437.90	533.99
438.27	542.50
438.64	551.49
439.01	559.77
439.38	566.94
439.75	574.19
440.13	582.30
440.50	589.74
440.87	595.79
441.24	602.03
441.61	608.96
441.98	613.82
442.35	619.54
442.72	625.55
443.09	631.44
443.46	634.96
443.83	637.31
444.20	639.23
444.57	642.00
444.94	643.00
445.31	644.14
445.68	645.53
446.05	645.67
446.42	644.29
446.79	642.98
447.16	641.61
447.53	640.40
447.90	636.70
448.27	633.17
448.64	628.36
449.01	624.67
449.37	618.57
449.74	612.72
450.11	605.86
450.48	598.04
450.85	589.95
451.22	582.88
451.59	576.20
451.96	569.99
452.33	561.82
452.70	554.39
453.07	545.75
453.43	536.55
453.80	528.21
454.17	520.13
454.54	512.34
454.91	503.97
455.28	495.83
455.65	488.38
456.02	481.41
456.38	475.02
456.75	467.35
457.12	460.73
457.49	454.32
457.86	447.99
458.23	442.89
458.59	437.21
458.96	431.52
459.33	426.31
459.70	421.18
460.07	417.00
460.43	412.33
460.80	408.02
461.17	404.30
461.54	400.24
461.91	396.48
462.27	392.65
462.64	389.38
463.01	385.87
463.38	382.53
463.74	378.53
464.11	375.48
464.48	372.79
464.85	369.99
465.21	367.86
465.58	365.50
465.95	362.65
466.32	360.45
466.68	358.27
467.05	356.17
467.42	354.00
467.78	351.80
468.15	349.67
468.52	348.13
468.88	345.88
469.25	343.98
469.62	342.46
469.98	340.83
470.35	339.38
470.72	337.91
471.08	336.23
471.45	335.04
471.82	333.88
472.18	332.48
472.55	331.51
472.92	330.25
473.28	329.15
473.65	328.17
474.02	327.05
474.38	326.19
474.75	325.48
475.11	324.55
475.48	323.89
475.85	323.36
476.21	322.68
476.58	322.27
476.94	321.91
477.31	321.41
477.67	321.01
478.04	320.76
478.41	320.60
478.77	320.87
479.14	320.57
479.50	320.47
479.87	320.49
480.23	320.48
480.60	320.48
480.96	320.52
481.33	320.87
481.69	321.16
482.06	321.32
482.42	321.64
482.79	322.12
483.15	322.64
483.52	323.27
483.88	323.71
484.25	324.25
484.61	324.88
484.98	325.65
485.34	326.59
485.71	327.46
486.07	328.43
486.44	329.01
486.80	330.19
487.17	331.24
487.53	332.55
487.90	333.96
488.26	335.56
488.62	337.21
488.99	338.70
489.35	340.38
489.72	342.26
490.08	344.17
490.44	346.11
490.81	348.29
491.17	350.40
491.54	352.93
491.90	355.45
492.26	358.15
492.63	360.90
492.99	363.66
493.36	366.77
493.72	370.13
494.08	373.55
494.45	377.22
494.81	381.14
495.17	385.06
495.54	389.30
495.90	393.49
496.26	397.89
496.63	402.59
496.99	407.38
497.35	412.53
497.72	417.76
498.08	423.22
498.44	428.83
498.80	434.91
499.17	440.93
499.53	447.13
499.89	453.81
500.26	460.65
500.62	467.62
500.98	474.86
501.34	482.15
501.71	489.93
502.07	497.73
502.43	505.88
502.79	514.21
503.16	522.73
503.52	531.72
503.88	540.97
504.24	550.52
504.60	560.64
504.97	570.74
505.33	581.13
505.69	592.26
506.05	603.42
506.41	614.64
506.78	626.26
507.14	638.37
507.50	650.54
507.86	663.18
508.22	676.29
508.59	689.51
508.95	703.23
509.31	717.32
509.67	731.40
510.03	745.61
510.39	760.43
510.75	775.52
511.12	790.83
511.48	806.53
511.84	822.36
512.20	838.24
512.56	854.63
512.92	871.55
513.28	888.25
513.64	905.40
514.00	922.86
514.37	940.77
514.73	958.80
515.09	976.96
515.45	995.32
515.81	1013.68
516.17	1032.47
516.53	1051.13
516.89	1069.80
517.25	1089.30
517.61	1109.56
517.97	1129.73
518.33	1149.51
518.69	1169.64
519.05	1190.17
519.41	1210.67
519.77	1231.71
520.13	1252.71
520.49	1273.14
520.85	1295.52
521.21	1316.47
521.57	1337.69
521.93	1358.35
522.29	1379.73
522.65	1400.42
523.01	1421.40
523.37	1441.95
523.73	1462.87
524.09	1483.34
524.45	1504.06
524.81	1524.78
525.17	1545.34
525.53	1565.65
525.89	1586.76
526.25	1607.64
526.61	1628.01
526.97	1649.16
527.33	1670.41
527.68	1691.82
528.04	1713.35
528.40	1732.79
528.76	1753.79
529.12	1774.11
529.48	1795.07
529.84	1815.05
530.20	1836.51
530.56	1857.16
530.91	1878.06
531.27	1898.66
531.63	1919.19
531.99	1939.79
532.35	1959.89
532.71	1980.00
533.07	2000.99
533.42	2020.88
533.78	2040.81
534.14	2060.74
534.50	2079.65
534.86	2098.85
535.21	2116.65
535.57	2134.94
535.93	2152.71
536.29	2170.64
536.65	2189.08
537.00	2206.53
537.36	2224.35
537.72	2240.58
538.08	2257.48
538.44	2274.25
538.79	2290.69
539.15	2307.43
539.51	2323.20
539.87	2338.48
540.22	2352.61
540.58	2366.69
540.94	2379.95
541.29	2392.69
541.65	2405.21
542.01	2418.11
542.37	2428.39
542.72	2439.64
543.08	2450.15
543.44	2462.05
543.79	2471.94
544.15	2481.62
544.51	2491.53
544.87	2501.09
545.22	2509.98
545.58	2517.75
545.94	2525.09
546.29	2531.07
546.65	2537.16
547.01	2542.67
547.36	2548.33
547.72	2553.58
548.07	2557.61
548.43	2563.18
548.79	2567.64
549.14	2571.50
549.50	2574.95
549.86	2579.28
550.21	2582.76
550.57	2586.21
550.92	2587.46
551.28	2588.83
551.64	2591.09
551.99	2592.91
552.35	2594.09
552.70	2596.10
553.06	2598.01
553.41	2599.10
553.77	2601.18
554.13	2602.75
554.48	2604.31
554.84	2605.71
555.19	2607.30
555.55	2609.04
555.90	2607.81
556.26	2606.88
556.61	2605.00
556.97	2603.08
557.32	2602.18
557.68	2600.85
558.03	2599.30
558.39	2597.92
558.74	2597.01
559.10	2593.60
559.45	2589.95
559.81	2585.57
560.16	2580.21
560.52	2575.29
560.87	2570.89
561.23	2565.22
561.58	2559.41
561.94	2552.63
562.29	2545.25
562.64	2538.18
563.00	2529.66
563.35	2523.34
563.71	2516.87
564.06	2511.17
564.42	2504.62
564.77	2497.90
565.12	2490.76
565.48	2483.08
565.83	2474.83
566.19	2466.68
566.54	2458.85
566.89	2451.11
567.25	2443.14
567.60	2435.91
567.96	2428.27
568.31	2420.13
568.66	2411.84
569.02	2402.83
569.37	2394.98
569.72	2387.35
570.08	2377.94
570.43	2368.69
570.78	2359.65
571.14	2350.26
571.49	2340.09
571.84	2330.72
572.20	2319.64
572.55	2309.36
572.90	2298.36
573.26	2288.53
573.61	2277.53
573.96	2266.53
574.31	2254.32
574.67	2242.96
575.02	2230.50
575.37	2217.64
575.72	2204.66
576.08	2192.70
576.43	2179.99
576.78	2166.52
577.13	2152.81
577.49	2140.50
577.84	2128.70
578.19	2116.42
578.54	2103.76
578.90	2091.91
579.25	2079.55
579.60	2066.98
579.95	2054.00
580.30	2041.13
580.66	2027.68
581.01	2014.05
581.36	2000.35
581.71	1987.82
582.06	1974.82
582.42	1962.48
582.77	1949.78
583.12	1937.78
583.47	1925.20
583.82	1913.45
584.17	1901.67
584.53	1889.90
584.88	1876.50
585.23	1863.31
585.58	1849.27
585.93	1836.15
586.28	1822.63
586.63	1808.32
586.98	1794.39
587.34	1781.31
587.69	1768.10
588.04	1755.34
588.39	1743.40
588.74	1730.95
589.09	1718.60
589.44	1705.95
589.79	1693.64
590.14	1681.90
590.49	1669.69
590.84	1657.57
591.19	1645.41
591.54	1633.04
591.89	1620.86
592.25	1610.90
592.60	1599.26
592.95	1587.69
593.30	1575.69
593.65	1563.66
594.00	1551.77
594.35	1541.85
594.70	1529.70
595.05	1518.25
595.40	1506.37
595.75	1494.42
596.10	1483.51
596.45	1472.29
596.80	1461.42
597.15	1449.92
597.50	1438.10
597.85	1426.81
598.19	1415.15
598.54	1403.49
598.89	1392.25
599.24	1381.49
599.59	1369.82
599.94	1359.11
600.29	1348.87
600.64	1338.51
600.99	1328.00
601.34	1318.50
601.69	1307.16
602.04	1297.47
602.39	1287.68
602.74	1278.58
603.08	1269.40
603.43	1260.02
603.78	1250.38
604.13	1240.65
604.48	1230.78
604.83	1221.24
605.18	1211.46
605.53	1202.01
605.87	1193.00
606.22	1184.56
606.57	1175.38
606.92	1165.71
607.27	1156.95
607.62	1148.26
607.96	1139.94
608.31	1131.84
608.66	1123.34
609.01	1115.02
609.36	1106.46
609.70	1097.95
610.05	1089.04
610.40	1080.60
610.75	1071.75
611.10	1063.45
611.44	1054.97
611.79	1046.99
612.14	1039.34
612.49	1031.35
612.83	1023.85
613.18	1016.14
613.53	1008.39
613.88	1000.40
614.22	992.74
614.57	984.64
614.92	976.66
615.27	968.92
615.61	961.16
615.96	953.57
616.31	946.03
616.65	938.92
617.00	931.69
617.35	924.61
617.70	917.29
618.04	910.24
618.39	903.23
618.74	896.94
619.08	890.08
619.43	882.87
619.78	876.01
620.12	868.94
620.47	861.99
620.82	854.63
621.16	847.82
621.51	841.74
621.85	835.52
622.20	829.00
622.55	822.31
622.89	815.95
623.24	809.70
623.59	803.38
623.93	797.08
624.28	790.98
624.62	785.31
624.97	779.61
625.32	773.77
625.66	767.71
626.01	761.41
626.35	755.92
626.70	750.34
627.04	744.99
627.39	739.38
627.73	733.92
628.08	728.86
628.43	723.55
628.77	718.10
629.12	712.85
629.46	708.08
629.81	703.47
630.15	698.72
630.50	693.80
630.84	688.98
631.19	684.23
631.53	679.64
631.88	674.41
632.22	669.44
632.57	665.10
632.91	660.53
633.26	656.22
633.60	651.51
633.95	647.05
634.29	642.38
634.64	638.04
634.98	633.46
635.32	629.11
635.67	624.98
636.01	620.61
636.36	616.18
636.70	612.10
637.05	607.78
637.39	603.50
637.73	599.30
638.08	595.35
638.42	591.15
638.77	586.82
639.11	582.51
639.45	578.26
639.80	573.77
640.14	569.71
640.49	565.74
640.83	561.94
641.17	558.18
641.52	554.52
641.86	550.85
642.20	547.54
642.55	543.85
642.89	540.21
643.23	536.82
643.58	533.80
643.92	530.19
644.26	527.02
644.61	523.95
644.95	520.62
645.29	517.21
645.64	513.88
645.98	510.67
646.32	507.84
646.66	504.80
647.01	501.86
647.35	499.10
647.69	496.16
648.04	493.28
648.38	490.50
648.72	487.75
649.06	484.85
649.41	481.80
649.75	478.84
650.09	476.05
650.43	473.15
650.78	470.09
651.12	467.20
651.46	464.31
651.80	461.36
652.14	458.73
652.49	456.18
652.83	453.65
653.17	451.11
653.51	448.35
653.85	445.95
654.20	443.61
654.54	440.96
654.88	438.33
655.22	436.15
655.56	433.63
655.90	431.08
656.25	428.88
656.59	426.66
656.93	424.62
657.27	422.50
657.61	420.15
657.95	418.03
658.29	415.72
658.64	413.59
658.98	411.43
659.32	409.10
659.66	406.90
660.00	404.81
660.34	402.88
660.68	400.83
661.02	398.70
661.36	396.71
661.70	394.82
662.05	392.98
662.39	391.00
662.73	389.24
663.07	387.73
663.41	385.74
663.75	383.90
664.09	382.00
664.43	380.18
664.77	378.52
665.11	376.74
665.45	375.20
665.79	373.55
666.13	371.93
666.47	370.32
666.81	368.60
667.15	366.96
667.49	365.34
667.83	363.98
668.17	362.54
668.51	361.05
668.85	359.67
669.19	358.42
669.53	356.91
669.87	355.36
670.21	353.70
670.55	352.32
670.89	351.20
671.23	349.75
671.57	348.35
671.91	346.97
672.25	345.65
672.58	344.44
672.92	342.96
673.26	341.68
673.60	340.48
673.94	339.28
674.28	338.19
674.62	337.05
674.96	335.76
675.30	334.59
675.64	333.39
675.97	332.13
676.31	330.84
676.65	329.66
676.99	328.75
677.33	327.50
677.67	326.42
678.01	325.06
678.34	323.99
678.68	323.02
679.02	322.03
679.36	320.97
679.70	319.90
680.04	319.02
680.37	318.03
680.71	317.03
681.05	316.19
681.39	315.26
681.73	314.28
682.06	313.37
682.40	312.48
682.74	311.62
683.08	310.91
683.42	309.95
683.75	309.14
684.09	308.06
684.43	307.29
684.77	306.44
685.10	305.67
685.44	304.99
685.78	304.03
686.12	303.21
686.45	302.40
686.79	301.55
687.13	300.82
687.46	300.06
687.80	299.43
688.14	298.53
688.48	297.80
688.81	297.09
689.15	296.51
689.49	295.80
689.82	295.02
690.16	294.17
690.50	293.52
690.83	292.81
691.17	292.06
691.51	291.44
691.84	290.79
692.18	290.07
692.52	289.32
692.85	288.75
693.19	288.30
693.52	287.67
693.86	287.02
694.20	286.43
694.53	285.85
694.87	285.18
695.21	284.65
695.54	284.02
695.88	283.38
696.21	282.65
696.55	281.91
696.88	281.37
697.22	280.74
697.56	280.24
697.89	279.62
698.23	279.13
698.56	278.54
698.90	278.09
699.23	277.54
699.57	277.09
699.90	276.55
700.24	275.91
700.58	275.48
700.91	275.10
701.25	274.91
701.58	274.80
701.92	274.46
702.25	274.01
702.59	273.49
702.92	273.09
703.26	272.65
703.59	272.31
703.93	272.25
704.26	271.87
704.60	271.42
704.93	270.88
705.26	270.48
705.60	270.14
705.93	269.53
706.27	269.27
706.60	268.90
706.94	268.76
707.27	268.36
707.61	267.98
707.94	267.59
708.27	266.81
708.61	266.00
708.94	265.53
709.28	265.18
709.61	264.78
709.94	264.33
710.28	263.96
710.61	263.59
710.95	262.74
711.28	262.67
711.61	262.24
711.95	262.10
712.28	261.65
712.61	261.30
712.95	261.28
713.28	261.17
713.61	260.83
713.95	260.24
714.28	259.89
714.61	259.45
714.95	259.08
715.28	258.77
715.61	258.55
715.95	258.24
716.28	257.82
716.61	257.56
716.95	257.33
717.28	256.99
717.61	256.78
717.94	256.55
718.28	255.95
718.61	255.70
718.94	255.34
719.27	255.08
719.61	254.87
719.94	254.45
720.27	253.96
720.60	253.65
720.94	253.44
721.27	253.24
721.60	253.15
721.93	252.94
722.27	252.87
722.60	252.56
722.93	252.27
723.26	252.16
723.59	251.86
723.93	251.65
724.26	251.51
724.59	251.18
724.92	250.98
725.25	250.90
725.59	250.73
725.92	250.54
726.25	250.39
726.58	250.15
726.91	249.94
727.24	249.72
727.57	249.55
727.91	249.29
728.24	249.18
728.57	248.92
728.90	248.75
729.23	248.44
729.56	248.53
729.89	248.36
730.22	248.10
730.55	247.98
730.89	247.74
731.22	247.53
731.55	247.36
731.88	247.31
732.21	247.00
732.54	246.75
732.87	246.56
733.20	246.48
733.53	246.34
733.86	246.25
734.19	246.04
734.52	245.91
734.85	246.06
735.18	245.76
735.51	245.68
735.84	245.53
736.17	245.44
736.50	245.01
736.83	245.48
737.16	245.38
737.49	245.26
737.82	245.09
738.15	244.96
738.48	244.83
738.81	244.60
739.14	244.43
739.47	244.24
739.80	244.07
740.13	243.82
740.46	243.59
740.79	243.38
741.12	243.18
741.45	242.89
741.78	242.50
742.11	242.56
742.44	242.30
742.77	242.29
743.10	242.06
743.43	241.92
743.75	241.21
744.08	241.66
744.41	241.47
744.74	241.29
745.07	241.08
745.40	241.01
745.73	241.02
746.06	240.92
746.39	240.90
746.71	240.73
747.04	240.64
747.37	240.46
747.70	240.31
748.03	240.27
748.36	240.27
748.68	240.06
749.01	239.76
749.34	239.71
749.67	239.51
750.00	239.53
750.33	239.79
750.65	239.78
750.98	239.13
751.31	239.06
751.64	238.99
751.97	239.16
752.29	239.02
752.62	238.67
752.95	238.52
753.28	238.38
753.60	238.35
753.93	238.30
754.26	238.25
754.59	238.07
754.91	237.91
755.24	237.83
755.57	237.85
755.90	237.76
756.22	237.61
756.55	237.45
756.88	237.22
757.20	236.86
757.53	236.52
757.86	236.37
758.19	236.28
758.51	236.22
758.84	235.90
759.17	235.74
759.49	235.70
759.82	235.85
760.15	235.81
760.47	235.60
760.80	235.42
761.13	235.52
761.45	235.37
761.78	235.28
762.11	235.19
762.43	235.00
762.76	234.94
763.08	234.92
763.41	234.85
763.74	234.80
764.06	234.63
764.39	234.67
764.71	234.52
765.04	234.44
765.37	234.30
765.69	234.20
766.02	234.17
766.34	234.17
766.67	233.91
767.00	233.93
767.32	234.20
767.65	234.48
767.97	234.36
768.30	234.43
768.62	234.42
768.95	234.31
769.27	234.32
769.60	234.28
769.92	234.09
770.25	233.96
770.57	233.80
770.90	233.84
771.22	233.67
771.55	233.64
771.87	233.58
772.20	233.59
772.52	233.98
772.85	234.48
773.17	234.35
773.50	234.23
773.82	234.10
774.15	233.80
774.47	233.41
774.80	233.24
775.12	233.16
775.45	233.06
775.77	233.08
776.09	233.02
776.42	232.97
776.74	233.11
777.07	233.01
777.39	232.99
777.72	232.88
778.04	232.94
778.36	232.90
778.69	232.85
779.01	232.81
779.33	232.33
779.66	231.74
779.98	231.61
780.31	231.65
780.63	231.78
780.95	231.79
781.28	231.72
781.60	231.63
781.92	231.59
782.25	231.58
782.57	231.39
782.89	231.30
783.22	231.26
783.54	231.08
783.86	231.17
784.19	231.09
784.51	231.17
784.83	231.06
785.16	231.04
785.48	231.00
785.80	230.92
786.12	230.94
786.45	230.88
786.77	230.92
787.09	230.87
787.42	230.65
787.74	230.62
788.06	230.59
788.38	230.51
788.71	230.47
789.03	230.40
789.35	230.50
789.67	230.35
789.99	230.31
790.32	230.26
790.64	230.21
790.96	230.55
791.28	230.33
791.61	230.31
791.93	230.30
792.25	230.27
792.57	230.58
792.89	230.47
793.21	230.50
793.54	230.45
793.86	230.31
794.18	230.31
794.50	230.23
794.82	230.22
795.14	230.29
795.47	230.36
795.79	230.35
796.11	230.22
796.43	230.23
796.75	230.28
797.07	230.26
797.39	230.27
797.71	229.94
798.04	229.98
798.36	229.91
798.68	229.90
799.00	229.86
799.32	229.57
799.64	229.63
799.96	229.65
800.28	229.70
800.60	229.70
800.92	229.72
801.24	229.70
801.56	229.68
801.89	229.67
802.21	229.63
802.53	229.54
802.85	229.65
803.17	229.93
803.49	229.73
803.81	229.71
804.13	229.61
804.45	229.58
804.77	229.61
805.09	229.61
805.41	229.51
805.73	229.39
806.05	229.33
806.37	229.28
806.69	229.19
807.01	229.20
807.33	229.23
807.65	229.04
807.97	229.25
808.28	229.23
808.60	229.29
808.92	229.25
809.24	229.53
809.56	229.39
809.88	229.15
810.20	229.15
810.52	229.23
810.84	229.20
811.16	229.10
811.48	229.08
811.80	229.19
812.12	229.18
812.43	229.32
812.75	229.39
813.07	229.31
813.39	229.28
813.71	229.12
814.03	229.10
814.35	229.11
814.67	228.90
814.98	228.85
815.30	228.76
815.62	228.68
815.94	228.32
816.26	228.56
816.58	228.48
816.89	228.52
817.21	228.38
817.53	228.43
817.85	228.49
818.17	228.46
818.48	228.37
818.80	228.46
819.12	228.41
819.44	228.29
819.76	228.30
820.07	228.28
820.39	228.33
820.71	228.39
821.03	228.39
821.34	228.31
821.66	228.40
821.98	228.35
822.30	228.29
822.61	228.61
822.93	228.31
823.25	228.27
823.57	228.17
823.88	228.29
824.20	228.26
824.52	228.32
824.83	228.28
825.15	228.11
825.47	228.11
825.79	228.03
826.10	227.96
826.42	227.90
826.74	227.93
827.05	227.92
827.37	227.90
827.69	227.82
828.00	227.88
828.32	227.80
828.64	227.83
828.95	228.11
829.27	227.93
829.58	227.97
829.90	228.12
830.22	228.24
830.53	228.15
830.85	228.04
831.17	227.96
831.48	227.94
831.80	228.03
832.11	227.94
832.43	227.96
832.75	227.95
833.06	228.25
833.38	228.21
833.69	228.16
834.01	228.15
834.32	228.20
834.64	228.13
834.96	228.20
835.27	228.19
835.59	227.97
835.90	227.99
836.22	228.01
836.53	227.86
836.85	227.81
837.16	228.25
837.48	228.29
837.79	228.38
838.11	228.42
838.42	228.42
838.74	228.47
839.05	228.43
839.37	228.44
839.68	228.15
840.00	228.11
840.31	228.19
840.63	228.18
840.94	228.06
841.26	228.03
841.57	227.94
841.88	227.98
842.20	227.91
842.51	227.83
842.83	227.80
843.14	228.27
843.46	228.29
843.77	227.97
844.08	227.91
844.40	227.78
844.71	227.74
845.03	227.72
845.34	227.69
845.65	227.67
845.97	227.70
846.28	227.65
846.60	227.57
846.91	227.41
847.22	227.34
847.54	227.43
847.85	227.40
848.16	227.42
848.48	227.24
848.79	227.45
849.10	227.42
849.42	227.34
849.73	226.84
850.04	226.77
850.36	226.63
850.67	226.70
850.98	226.73
851.30	226.72
851.61	226.72
851.92	226.73
852.23	226.85
852.55	226.84
852.86	226.88
853.17	227.08
853.49	227.17
853.80	227.25
854.11	227.31
854.42	227.41
854.74	227.31
855.05	227.36
855.36	227.15
855.67	227.15
855.99	227.22
856.30	227.82
856.61	227.74
856.92	227.78
857.23	227.82
857.55	227.70
857.86	227.69
858.17	227.79
858.48	227.70
858.79	227.64
859.11	227.66
859.42	227.62
859.73	227.49
860.04	227.49
860.35	227.34
860.66	227.18
860.98	227.06
861.29	227.13
861.60	227.04
861.91	227.08
862.22	226.99
862.53	226.88
862.84	226.30
863.16	226.50
863.47	226.33
863.78	226.16
864.09	226.25
864.40	226.25
864.71	226.15
865.02	226.20
865.33	226.10
865.64	226.03
865.95	226.04
866.27	226.27
866.58	226.27
866.89	226.36
867.20	226.32
867.51	226.28
867.82	226.28
868.13	226.52
868.44	226.45
868.75	226.63
869.06	226.70
869.37	226.76
869.68	226.58
869.99	226.70
870.30	226.83
870.61	226.91
870.92	226.81
871.23	226.77
871.54	226.85
871.85	226.96
872.16	227.03
872.47	226.96
872.78	226.73
873.09	226.66
873.40	226.60
873.71	226.70
874.02	226.78
874.33	226.73
874.64	226.57
874.95	226.61
875.26	226.50
875.56	226.51
875.87	226.52
876.18	226.57
876.49	227.08
876.80	227.04
877.11	226.86
877.42	226.90
877.73	226.92
878.04	226.77
878.35	226.75
878.66	226.75
878.96	226.78
879.27	226.82
879.58	226.83
879.89	226.86
880.20	226.97
880.51	226.94
880.82	226.96
881.12	227.05
881.43	227.03
881.74	227.02
882.05	227.01
882.36	227.00
882.67	227.01
882.97	226.48
883.28	226.46
883.59	226.56
883.90	226.62
884.21	226.75
884.51	226.75
884.82	226.70
885.13	226.66
885.44	226.68
885.74	226.59
886.05	226.66
886.36	226.67
886.67	226.50
886.98	226.77
887.28	226.83
887.59	226.80
887.90	226.86
888.20	226.79
888.51	226.80
888.82	226.74
889.13	226.75
889.43	227.23
889.74	227.19
890.05	227.18
890.35	227.12
890.66	227.00
890.97	227.05
891.28	227.01
891.58	227.08
891.89	227.01
892.20	226.99
892.50	226.91
892.81	226.87
893.12	226.90
893.42	226.67
893.73	226.72
894.04	226.69
894.34	226.73
894.65	226.76
894.95	226.76
895.26	226.81
895.57	227.05
895.87	226.49
896.18	226.54
896.48	226.51
896.79	226.52
897.10	226.64
897.40	226.62
897.71	226.75
898.01	226.67
898.32	226.80
898.63	226.83
898.93	226.89
899.24	226.91
899.54	226.90
899.85	226.85
900.15	226.79
900.46	226.80
900.76	226.77
901.07	226.75
901.38	226.77
901.68	226.79
901.99	226.51
902.29	226.55
902.60	226.58
902.90	226.57
903.21	226.57
903.51	226.49
903.82	226.58
904.12	226.48
904.43	226.53
904.73	226.52
905.03	226.57
905.34	226.98
905.64	226.91
905.95	226.89
906.25	226.91
906.56	226.90
906.86	226.91
907.17	226.89
907.47	226.94
907.77	226.85
908.08	226.71
908.38	226.76
908.69	226.85
908.99	226.85
909.30	226.93
909.60	226.97
909.90	226.95
910.21	226.77
910.51	226.72
910.81	226.75
911.12	226.75
911.42	226.69
911.73	226.24
912.03	226.30
912.33	226.45
912.64	226.41
912.94	226.38
913.24	226.39
913.55	226.33
913.85	226.28
914.15	226.41
914.46	226.49
914.76	226.45
915.06	226.35
915.37	226.34
915.67	226.30
915.97	226.28
916.27	226.16
916.58	226.28
916.88	226.32
917.18	226.24
917.49	226.55
917.79	226.55
918.09	226.58
918.39	226.67
918.70	226.62
919.00	226.61
919.30	226.81
919.60	226.73
919.91	226.75
920.21	226.83
920.51	226.70
920.81	226.69
921.12	226.79
921.42	226.82
921.72	226.79
922.02	226.79
922.32	226.90
922.63	226.99
922.93	227.15
923.23	227.16
923.53	227.10
923.83	226.81
924.13	226.94
924.44	226.95
924.74	227.03
925.04	227.16
925.34	227.12
925.64	226.89
925.94	226.89
926.24	227.20
926.55	227.12
926.85	227.22
927.15	227.24
927.45	227.17
927.75	227.18
928.05	227.21
928.35	227.21
928.65	227.29
928.95	227.30
929.26	227.21
929.56	227.33
929.86	227.49
930.16	227.44
930.46	227.32
930.76	227.33
931.06	227.18
931.36	227.05
931.66	227.19
931.96	227.33
932.26	227.34
932.56	227.04
932.86	227.06
933.16	227.01
933.46	226.98
933.76	226.95
934.06	227.08
934.36	227.28
934.66	227.22
934.96	227.17
935.26	227.25
935.56	227.20
935.86	227.05
936.16	226.88
936.46	226.84
936.76	226.79
937.06	226.75
937.36	226.73
937.66	226.74
937.96	226.65
938.26	226.52
938.56	226.44
938.86	226.54
939.16	226.62
939.46	226.66
939.76	226.64
940.06	226.68
940.35	226.55
940.65	226.29
940.95	226.34
941.25	226.10
941.55	225.99
941.85	226.07
942.15	226.20
942.45	226.35
942.75	226.33
943.04	226.35
943.34	226.43
943.64	226.37
943.94	226.23
944.24	226.31
944.54	226.34
944.84	226.34
945.13	226.22
945.43	226.17
945.73	226.10
946.03	226.06
946.33	225.98
946.62	225.97
946.92	225.93
947.22	225.95
947.52	226.06
947.82	226.14
948.11	225.98
948.41	225.86
948.71	225.74
949.01	225.77
949.31	225.80
949.60	225.78
949.90	225.89
950.20	225.95
950.50	225.95
950.79	225.92
951.09	226.09
951.39	226.04
951.69	226.00
951.98	226.14
952.28	226.21
952.58	226.20
952.87	226.16
953.17	226.24
953.47	226.15
953.76	226.12
954.06	225.97
954.36	225.96
954.66	225.99
954.95	226.13
955.25	226.20
955.55	226.24
955.84	226.11
956.14	226.12
956.44	226.16
956.73	226.06
957.03	226.14
957.32	226.12
957.62	226.25
957.92	226.32
958.21	226.26
958.51	226.80
958.81	226.88
959.10	226.90
959.40	227.00
959.69	227.07
959.99	227.15
960.29	227.21
960.58	227.18
960.88	227.32
961.17	227.32
961.47	227.36
961.76	227.27
962.06	227.44
962.36	227.33
962.65	227.34
962.95	227.39
963.24	227.29
963.54	227.31
963.83	227.32
964.13	227.27
964.42	227.19
964.72	226.80
965.01	226.82
965.31	226.93
965.60	226.85
965.90	227.16
966.19	227.07
966.49	227.07
966.78	227.08
967.08	227.05
967.37	227.07
967.67	226.97
967.96	227.10
968.26	227.08
968.55	227.21
968.85	227.17
969.14	227.10
969.43	227.04
969.73	226.97
970.02	226.90
970.32	226.83
970.61	226.78
970.91	226.65
971.20	226.60
971.49	226.46
971.79	226.52
972.08	226.15
972.38	226.18
972.67	226.11
972.96	226.17
973.26	226.05
973.55	226.15
973.85	226.13
974.14	226.00
974.43	225.99
974.73	225.92
975.02	225.85
975.31	225.94
975.61	226.01
975.90	226.00
976.19	225.98
976.49	226.05
976.78	226.10
977.07	226.03
977.37	226.01
977.66	226.03
977.95	225.93
978.24	225.96
978.54	226.04
978.83	226.07
979.12	225.98
979.42	226.00
979.71	225.88
980.00	225.87
980.29	225.92
980.59	225.83
980.88	225.90
981.17	225.94
981.46	225.85
981.76	225.79
982.05	225.91
982.34	225.91
982.63	225.91
982.93	225.97
983.22	226.15
983.51	226.17
983.80	226.22
984.09	226.25
984.39	226.24
984.68	226.11
984.97	226.09
985.26	226.09
985.55	226.08
985.85	225.99
986.14	226.03
986.43	226.08
986.72	226.06
987.01	225.97
987.30	225.96
987.59	225.97
987.89	226.01
988.18	225.85
988.47	225.80
988.76	225.78
989.05	225.77
989.34	225.65
989.63	225.73
989.92	225.64
990.22	225.62
990.51	225.61
990.80	225.60
991.09	225.69
991.38	225.75
991.67	225.72
991.96	225.68
992.25	225.70
992.54	225.62
992.83	225.67
993.12	225.70
993.41	225.72
993.70	225.93
993.99	226.06
994.28	226.20
994.58	226.27
994.87	226.22
995.16	226.20
995.45	226.16
995.74	226.04
996.03	226.20
996.32	226.26
996.61	226.40
996.90	226.45
997.19	226.41
997.48	226.45
997.77	226.49
998.06	226.52
998.34	226.51
998.63	226.49
998.92	226.45
999.21	226.46
999.50	226.50
999.79	226.28
1000.08	226.30
1000.37	226.21
1000.66	226.18
1000.95	226.30
1001.24	226.25
1001.53	226.34
1001.82	226.40
1002.11	226.21
1002.40	226.28
1002.68	226.36
1002.97	226.71
1003.26	226.68
1003.55	226.64
1003.84	226.67
1004.13	226.88
1004.42	226.81
1004.71	226.85
1004.99	226.85
1005.28	226.95
1005.57	226.93
1005.86	226.98
1006.15	226.90
1006.44	226.93
1006.72	227.01
1007.01	226.91
1007.30	226.96
1007.59	226.92
1007.88	226.87
1008.17	226.94
1008.45	226.79
1008.74	226.59
1009.03	226.36
1009.32	226.37
1009.60	226.32
1009.89	226.24
1010.18	225.98
1010.47	225.96
1010.76	225.99
1011.04	225.94
1011.33	225.94
1011.62	225.99
1011.91	226.01
1012.19	226.00
1012.48	225.96
1012.77	225.90
1013.05	226.14
1013.34	226.07
1013.63	226.02
1013.92	226.12
1014.20	226.05
1014.49	226.08
1014.78	226.11
1015.06	226.01
1015.35	226.01
1015.64	226.12
1015.92	226.21
1016.21	226.22
1016.50	226.21
1016.78	226.20
1017.07	226.26
1017.36	226.18
1017.64	226.06
1017.93	226.09
1018.22	226.05
1018.50	226.03
1018.79	225.98
1019.08	225.76
1019.36	225.79
1019.65	225.81
1019.93	225.90
1020.22	226.02
1020.51	226.27
1020.79	226.18
1021.08	225.60
1021.36	225.20
1021.65	224.80
1021.94	226.00
1022.22	225.60
1022.51	226.00
1022.79	228.85
1023.08	226.80
1023.36	231.55
1023.65	224.40
>>>>>End Processed Spectral Data<<<<<
