SpectraSuite Data File
++++++++++++++++++++++++++++++++++++
Date: Wed Sep 04 17:44:44 EDT 2013
User: lab3
Dark Spectrum Present: Yes
Reference Spectrum Present: No
Number of Sampled Component Spectra: 1
Spectrometers: USB2E7196
Integration Time (usec): 170000 (USB2E7196)
Spectra Averaged: 20 (USB2E7196)
Boxcar Smoothing: 10 (USB2E7196)
Correct for Electrical Dark: No (USB2E7196)
Strobe/Lamp Enabled: No (USB2E7196)
Correct for Detector Non-linearity: No (USB2E7196)
Correct for Stray Light: No (USB2E7196)
Number of Pixels in Processed Spectrum: 2048
>>>>>Begin Processed Spectral Data<<<<<
339.09	0.00
339.48	211.80
339.86	214.50
340.24	214.50
340.63	217.05
341.01	224.20
341.39	220.95
341.78	221.30
342.16	224.05
342.54	222.95
342.93	211.84
343.31	222.49
343.69	223.06
344.07	223.49
344.46	224.08
344.84	224.51
345.22	224.52
345.60	224.77
345.99	225.02
346.37	225.12
346.75	225.24
347.13	225.25
347.52	225.42
347.90	225.63
348.28	225.67
348.66	225.85
349.05	225.70
349.43	225.82
349.81	225.99
350.19	226.04
350.57	226.09
350.96	226.20
351.34	226.33
351.72	226.45
352.10	226.53
352.48	226.51
352.87	226.53
353.25	226.64
353.63	226.59
354.01	226.58
354.39	226.70
354.77	226.66
355.15	226.85
355.54	226.79
355.92	226.69
356.30	226.76
356.68	227.12
357.06	227.15
357.44	227.12
357.82	227.09
358.20	227.48
358.58	227.53
358.97	227.55
359.35	227.70
359.73	227.84
360.11	227.96
360.49	228.01
360.87	228.08
361.25	228.15
361.63	228.48
362.01	228.54
362.39	228.50
362.77	228.74
363.15	228.75
363.53	228.81
363.91	228.92
364.29	228.96
364.67	228.50
365.05	228.66
365.43	228.76
365.81	228.84
366.19	228.75
366.57	229.00
366.95	229.03
367.33	228.91
367.71	228.89
368.09	228.91
368.47	228.95
368.85	228.93
369.23	229.02
369.61	228.82
369.99	228.95
370.37	229.02
370.75	229.17
371.13	229.10
371.51	229.01
371.89	229.01
372.27	229.05
372.65	229.08
373.03	229.00
373.41	228.86
373.78	228.77
374.16	228.46
374.54	228.25
374.92	228.14
375.30	228.10
375.68	227.94
376.06	227.99
376.44	227.82
376.82	227.79
377.19	227.72
377.57	227.59
377.95	227.42
378.33	227.28
378.71	226.98
379.09	226.98
379.47	226.98
379.84	226.88
380.22	226.67
380.60	226.54
380.98	226.45
381.36	226.40
381.73	226.30
382.11	226.35
382.49	226.29
382.87	226.20
383.25	226.13
383.62	226.70
384.00	226.58
384.38	226.63
384.76	226.66
385.13	226.82
385.51	226.80
385.89	226.70
386.27	226.64
386.64	226.69
387.02	226.62
387.40	226.47
387.78	226.40
388.15	226.47
388.53	226.35
388.91	226.32
389.29	226.21
389.66	226.25
390.04	226.15
390.42	226.21
390.79	226.26
391.17	226.25
391.55	225.66
391.92	225.67
392.30	225.66
392.68	225.63
393.05	225.51
393.43	225.51
393.81	225.56
394.18	225.52
394.56	225.51
394.94	225.62
395.31	225.66
395.69	225.86
396.06	225.90
396.44	226.03
396.82	226.06
397.19	226.42
397.57	226.49
397.95	226.58
398.32	226.50
398.70	226.61
399.07	226.85
399.45	226.92
399.82	226.95
400.20	227.01
400.58	227.10
400.95	227.00
401.33	227.30
401.70	227.77
402.08	227.89
402.45	228.05
402.83	228.27
403.20	228.47
403.58	228.61
403.95	228.89
404.33	229.19
404.71	229.45
405.08	229.88
405.46	230.12
405.83	230.45
406.21	230.70
406.58	231.01
406.96	231.19
407.33	231.52
407.70	231.78
408.08	232.50
408.45	232.90
408.83	233.43
409.20	233.64
409.58	233.74
409.95	234.34
410.33	234.79
410.70	235.09
411.08	235.69
411.45	236.23
411.82	236.81
412.20	237.60
412.57	238.55
412.95	238.85
413.32	239.64
413.69	240.43
414.07	241.30
414.44	242.16
414.82	243.21
415.19	244.39
415.56	245.69
415.94	246.66
416.31	248.06
416.68	249.39
417.06	251.11
417.43	252.69
417.81	254.39
418.18	256.15
418.55	258.10
418.93	260.09
419.30	262.16
419.67	264.27
420.04	266.33
420.42	268.54
420.79	271.45
421.16	274.15
421.54	277.01
421.91	280.01
422.28	283.04
422.66	286.20
423.03	289.54
423.40	292.69
423.77	296.07
424.15	299.45
424.52	303.10
424.89	307.02
425.26	310.85
425.64	314.51
426.01	318.60
426.38	322.86
426.75	327.20
427.13	331.56
427.50	336.09
427.87	340.85
428.24	345.60
428.61	349.93
428.99	355.07
429.36	360.46
429.73	365.66
430.10	370.92
430.47	376.40
430.85	381.77
431.22	387.64
431.59	394.29
431.96	400.35
432.33	407.12
432.70	413.55
433.08	421.28
433.45	428.40
433.82	435.48
434.19	443.35
434.56	451.14
434.93	458.63
435.30	466.34
435.68	474.78
436.05	483.09
436.42	491.29
436.79	498.74
437.16	506.85
437.53	515.35
437.90	523.76
438.27	532.02
438.64	540.69
439.01	548.97
439.38	555.80
439.75	562.70
440.13	570.60
440.50	578.06
440.87	583.94
441.24	590.23
441.61	597.00
441.98	602.05
442.35	607.68
442.72	613.58
443.09	619.09
443.46	622.32
443.83	624.53
444.20	626.54
444.57	629.27
444.94	630.29
445.31	631.57
445.68	633.10
446.05	633.36
446.42	632.16
446.79	630.69
447.16	629.23
447.53	628.03
447.90	624.29
448.27	620.70
448.64	615.91
449.01	612.15
449.37	606.31
449.74	600.39
450.11	593.89
450.48	586.31
450.85	578.55
451.22	571.95
451.59	565.58
451.96	559.46
452.33	551.51
452.70	544.33
453.07	535.92
453.43	526.90
453.80	518.75
454.17	510.96
454.54	503.55
454.91	495.62
455.28	488.03
455.65	480.90
456.02	474.27
456.38	468.11
456.75	460.73
457.12	454.38
457.49	448.35
457.86	442.20
458.23	437.29
458.59	431.77
458.96	426.09
459.33	421.09
459.70	416.13
460.07	412.18
460.43	407.70
460.80	403.48
461.17	399.99
461.54	396.13
461.91	392.48
462.27	388.65
462.64	385.58
463.01	382.06
463.38	378.89
463.74	374.98
464.11	372.03
464.48	369.62
464.85	366.87
465.21	364.74
465.58	362.45
465.95	359.65
466.32	357.58
466.68	355.51
467.05	353.39
467.42	351.25
467.78	348.90
468.15	346.89
468.52	345.40
468.88	343.23
469.25	341.30
469.62	339.89
469.98	338.38
470.35	336.77
470.72	335.31
471.08	333.63
471.45	332.40
471.82	331.29
472.18	329.78
472.55	328.75
472.92	327.51
473.28	326.42
473.65	325.35
474.02	324.34
474.38	323.50
474.75	322.69
475.11	321.74
475.48	321.23
475.85	320.60
476.21	319.88
476.58	319.44
476.94	319.15
477.31	318.69
477.67	318.29
478.04	318.10
478.41	317.98
478.77	318.29
479.14	317.98
479.50	317.86
479.87	317.87
480.23	317.91
480.60	317.86
480.96	317.96
481.33	318.27
481.69	318.49
482.06	318.77
482.42	319.00
482.79	319.42
483.15	319.87
483.52	320.49
483.88	321.02
484.25	321.63
484.61	322.30
484.98	322.95
485.34	324.02
485.71	324.93
486.07	325.86
486.44	326.44
486.80	327.54
487.17	328.55
487.53	330.02
487.90	331.46
488.26	333.07
488.62	334.82
488.99	336.40
489.35	338.06
489.72	339.84
490.08	341.81
490.44	343.80
490.81	345.93
491.17	348.02
491.54	350.45
491.90	353.02
492.26	355.67
492.63	358.48
492.99	361.07
493.36	364.10
493.72	367.45
494.08	370.84
494.45	374.45
494.81	378.45
495.17	382.14
495.54	386.29
495.90	390.46
496.26	394.70
496.63	399.29
496.99	403.94
497.35	409.04
497.72	414.26
498.08	419.76
498.44	425.47
498.80	431.48
499.17	437.47
499.53	443.68
499.89	450.30
500.26	457.07
500.62	463.98
500.98	471.27
501.34	478.43
501.71	486.05
502.07	493.94
502.43	501.96
502.79	510.25
503.16	518.71
503.52	527.63
503.88	536.80
504.24	546.33
504.60	556.32
504.97	566.34
505.33	576.60
505.69	587.47
506.05	598.18
506.41	609.35
506.78	620.75
507.14	632.51
507.50	644.50
507.86	656.85
508.22	669.80
508.59	682.56
508.95	696.17
509.31	710.11
509.67	724.13
510.03	738.10
510.39	752.60
510.75	767.28
511.12	782.11
511.48	797.28
511.84	812.86
512.20	828.30
512.56	844.16
512.92	860.47
513.28	876.92
513.64	894.08
514.00	911.12
514.37	928.76
514.73	946.53
515.09	964.31
515.45	982.36
515.81	1000.25
516.17	1018.68
516.53	1036.80
516.89	1054.80
517.25	1073.72
517.61	1093.32
517.97	1113.08
518.33	1132.65
518.69	1152.69
519.05	1172.84
519.41	1192.78
519.77	1213.43
520.13	1233.84
520.49	1254.10
520.85	1274.62
521.21	1295.07
521.57	1315.95
521.93	1336.05
522.29	1356.87
522.65	1376.87
523.01	1397.21
523.37	1417.22
523.73	1437.48
524.09	1457.60
524.45	1477.80
524.81	1497.95
525.17	1517.90
525.53	1537.86
525.89	1558.27
526.25	1578.18
526.61	1597.75
526.97	1618.23
527.33	1638.91
527.68	1659.72
528.04	1680.40
528.40	1700.56
528.76	1721.04
529.12	1740.71
529.48	1760.94
529.84	1780.35
530.20	1801.14
530.56	1821.29
530.91	1841.68
531.27	1861.18
531.63	1880.74
531.99	1900.40
532.35	1919.55
532.71	1939.09
533.07	1959.07
533.42	1978.13
533.78	1997.32
534.14	2016.63
534.50	2034.78
534.86	2053.28
535.21	2070.30
535.57	2087.85
535.93	2104.89
536.29	2121.74
536.65	2139.22
537.00	2155.99
537.36	2172.46
537.72	2187.89
538.08	2203.80
538.44	2219.60
538.79	2235.30
539.15	2251.22
539.51	2266.75
539.87	2281.32
540.22	2294.46
540.58	2308.05
540.94	2320.44
541.29	2332.45
541.65	2344.38
542.01	2356.04
542.37	2365.49
542.72	2375.50
543.08	2385.08
543.44	2395.90
543.79	2405.24
544.15	2413.85
544.51	2423.00
544.87	2431.63
545.22	2439.61
545.58	2447.01
545.94	2453.32
546.29	2459.32
546.65	2464.84
547.01	2469.94
547.36	2474.91
547.72	2479.86
548.07	2482.84
548.43	2487.50
548.79	2491.52
549.14	2494.64
549.50	2497.94
549.86	2501.86
550.21	2505.11
550.57	2508.21
550.92	2509.23
551.28	2509.39
551.64	2511.41
551.99	2512.85
552.35	2513.90
552.70	2515.41
553.06	2516.63
553.41	2517.40
553.77	2518.80
554.13	2519.85
554.48	2520.58
554.84	2521.19
555.19	2522.01
555.55	2523.14
555.90	2521.86
556.26	2520.64
556.61	2518.70
556.97	2516.09
557.32	2514.58
557.68	2513.22
558.03	2511.39
558.39	2509.35
558.74	2508.60
559.10	2505.17
559.45	2500.77
559.81	2496.06
560.16	2490.62
560.52	2485.09
560.87	2480.67
561.23	2475.02
561.58	2468.81
561.94	2461.73
562.29	2454.10
562.64	2446.69
563.00	2438.53
563.35	2431.81
563.71	2424.96
564.06	2418.70
564.42	2412.17
564.77	2404.90
565.12	2397.11
565.48	2389.38
565.83	2381.44
566.19	2373.48
566.54	2365.53
566.89	2357.98
567.25	2350.74
567.60	2343.69
567.96	2336.36
568.31	2328.44
568.66	2319.70
569.02	2311.05
569.37	2302.95
569.72	2295.70
570.08	2286.58
570.43	2277.20
570.78	2268.41
571.14	2258.86
571.49	2248.98
571.84	2239.72
572.20	2229.50
572.55	2219.65
572.90	2208.94
573.26	2198.73
573.61	2188.12
573.96	2176.93
574.31	2165.07
574.67	2153.29
575.02	2140.97
575.37	2128.45
575.72	2115.34
576.08	2103.55
576.43	2091.16
576.78	2078.84
577.13	2065.55
577.49	2053.54
577.84	2042.07
578.19	2030.15
578.54	2018.28
578.90	2006.80
579.25	1994.81
579.60	1982.86
579.95	1970.15
580.30	1957.46
580.66	1944.71
581.01	1931.42
581.36	1918.15
581.71	1906.10
582.06	1893.48
582.42	1881.60
582.77	1869.52
583.12	1858.12
583.47	1846.29
583.82	1834.90
584.17	1822.93
584.53	1811.48
584.88	1799.08
585.23	1786.23
585.58	1773.05
585.93	1760.05
586.28	1747.20
586.63	1733.75
586.98	1719.90
587.34	1707.31
587.69	1694.63
588.04	1682.71
588.39	1671.23
588.74	1659.98
589.09	1648.47
589.44	1636.45
589.79	1624.55
590.14	1612.94
590.49	1601.20
590.84	1589.64
591.19	1578.22
591.54	1566.52
591.89	1554.89
592.25	1545.03
592.60	1534.31
592.95	1523.32
593.30	1512.11
593.65	1500.64
594.00	1489.30
594.35	1480.05
594.70	1468.89
595.05	1458.10
595.40	1446.61
595.75	1434.93
596.10	1423.88
596.45	1412.84
596.80	1402.32
597.15	1391.36
597.50	1380.17
597.85	1369.43
598.19	1358.46
598.54	1347.01
598.89	1336.42
599.24	1326.36
599.59	1315.08
599.94	1304.82
600.29	1294.79
600.64	1285.06
600.99	1274.91
601.34	1265.79
601.69	1254.95
602.04	1245.65
602.39	1236.55
602.74	1227.62
603.08	1218.92
603.43	1209.90
603.78	1200.53
604.13	1191.65
604.48	1182.48
604.83	1173.45
605.18	1164.26
605.53	1155.19
605.87	1146.65
606.22	1138.51
606.57	1129.78
606.92	1120.92
607.27	1112.26
607.62	1104.05
607.96	1095.97
608.31	1088.45
608.66	1080.37
609.01	1072.24
609.36	1064.10
609.70	1055.88
610.05	1047.75
610.40	1039.76
610.75	1031.58
611.10	1023.77
611.44	1015.65
611.79	1007.92
612.14	1000.49
612.49	992.96
612.83	985.87
613.18	978.51
613.53	970.93
613.88	963.47
614.22	956.21
614.57	948.72
614.92	941.10
615.27	933.68
615.61	926.11
615.96	918.80
616.31	911.68
616.65	904.69
617.00	897.65
617.35	890.61
617.70	883.54
618.04	876.66
618.39	869.84
618.74	863.72
619.08	857.19
619.43	850.34
619.78	843.79
620.12	836.90
620.47	830.43
620.82	823.68
621.16	817.14
621.51	811.06
621.85	805.19
622.20	798.97
622.55	792.97
622.89	787.03
623.24	781.10
623.59	775.12
623.93	769.16
624.28	763.41
624.62	758.15
624.97	752.79
625.32	747.54
625.66	742.04
626.01	736.17
626.35	730.98
626.70	725.89
627.04	720.69
627.39	715.33
627.73	710.29
628.08	705.59
628.43	700.34
628.77	695.26
629.12	690.16
629.46	685.65
629.81	681.11
630.15	676.58
630.50	672.03
630.84	667.50
631.19	663.17
631.53	658.89
631.88	653.85
632.22	649.18
632.57	645.01
632.91	640.75
633.26	636.53
633.60	632.11
633.95	627.65
634.29	623.18
634.64	619.19
634.98	614.52
635.32	610.23
635.67	606.56
636.01	602.41
636.36	598.26
636.70	594.37
637.05	590.29
637.39	586.21
637.73	582.30
638.08	578.49
638.42	574.46
638.77	570.20
639.11	566.38
639.45	562.21
639.80	557.92
640.14	553.92
640.49	550.14
640.83	546.51
641.17	543.07
641.52	539.56
641.86	536.20
642.20	533.34
642.55	529.95
642.89	526.34
643.23	523.10
643.58	520.09
643.92	516.53
644.26	513.24
644.61	510.11
644.95	506.95
645.29	503.68
645.64	500.69
645.98	497.79
646.32	494.97
646.66	492.15
647.01	489.32
647.35	486.73
647.69	483.89
648.04	481.29
648.38	478.59
648.72	475.94
649.06	472.96
649.41	470.00
649.75	467.19
650.09	464.61
650.43	461.97
650.78	459.28
651.12	456.65
651.46	454.04
651.80	451.47
652.14	448.75
652.49	446.45
652.83	444.05
653.17	441.69
653.51	439.10
653.85	436.85
654.20	434.49
654.54	432.00
654.88	429.64
655.22	427.55
655.56	425.26
655.90	423.03
656.25	420.83
656.59	418.80
656.93	416.65
657.27	414.60
657.61	412.24
657.95	410.12
658.29	408.11
658.64	406.08
658.98	403.90
659.32	401.91
659.66	399.75
660.00	397.70
660.34	395.71
660.68	393.70
661.02	391.77
661.36	389.92
661.70	388.07
662.05	386.24
662.39	384.30
662.73	382.46
663.07	380.91
663.41	379.24
663.75	377.29
664.09	375.60
664.43	373.74
664.77	372.17
665.11	370.51
665.45	368.89
665.79	367.37
666.13	365.84
666.47	364.30
666.81	362.75
667.15	361.12
667.49	359.71
667.83	358.42
668.17	357.00
668.51	355.66
668.85	354.38
669.19	353.23
669.53	351.68
669.87	350.26
670.21	348.73
670.55	347.44
670.89	346.43
671.23	345.15
671.57	343.88
671.91	342.65
672.25	341.46
672.58	340.36
672.92	338.96
673.26	337.86
673.60	336.64
673.94	335.53
674.28	334.49
674.62	333.30
674.96	332.02
675.30	330.85
675.64	329.74
675.97	328.47
676.31	327.09
676.65	325.92
676.99	324.98
677.33	323.85
677.67	322.78
678.01	321.50
678.34	320.53
678.68	319.70
679.02	318.66
679.36	317.57
679.70	316.48
680.04	315.61
680.37	314.60
680.71	313.75
681.05	312.80
681.39	311.90
681.73	311.03
682.06	310.13
682.40	309.32
682.74	308.49
683.08	307.85
683.42	307.09
683.75	306.49
684.09	305.55
684.43	304.72
684.77	303.84
685.10	303.11
685.44	302.24
685.78	301.31
686.12	300.50
686.45	299.73
686.79	298.92
687.13	298.20
687.46	297.47
687.80	296.78
688.14	296.02
688.48	295.26
688.81	294.48
689.15	293.86
689.49	293.11
689.82	292.44
690.16	291.61
690.50	291.02
690.83	290.15
691.17	289.44
691.51	288.91
691.84	288.36
692.18	287.67
692.52	287.04
692.85	286.40
693.19	286.04
693.52	285.47
693.86	284.84
694.20	284.19
694.53	283.66
694.87	282.90
695.21	282.29
695.54	281.71
695.88	281.18
696.21	280.47
696.55	279.89
696.88	279.24
697.22	278.61
697.56	278.03
697.89	277.56
698.23	277.11
698.56	276.43
698.90	275.95
699.23	275.40
699.57	274.93
699.90	274.40
700.24	273.74
700.58	273.25
700.91	272.88
701.25	272.81
701.58	272.69
701.92	272.44
702.25	272.00
702.59	271.52
702.92	271.05
703.26	270.78
703.59	270.34
703.93	270.34
704.26	269.99
704.60	269.55
704.93	269.08
705.26	268.59
705.60	268.34
705.93	267.90
706.27	267.68
706.60	267.42
706.94	267.34
707.27	266.93
707.61	266.66
707.94	266.31
708.27	265.62
708.61	264.87
708.94	264.46
709.28	264.10
709.61	263.68
709.94	263.38
710.28	262.94
710.61	262.61
710.95	261.86
711.28	261.77
711.61	261.47
711.95	261.24
712.28	260.87
712.61	260.51
712.95	260.39
713.28	260.30
713.61	259.84
713.95	259.34
714.28	259.11
714.61	258.73
714.95	258.34
715.28	257.91
715.61	257.52
715.95	257.24
716.28	256.90
716.61	256.69
716.95	256.33
717.28	256.06
717.61	255.77
717.94	255.46
718.28	254.93
718.61	254.62
718.94	254.22
719.27	253.98
719.61	253.79
719.94	253.32
720.27	252.82
720.60	252.55
720.94	252.29
721.27	251.98
721.60	251.86
721.93	251.71
722.27	251.65
722.60	251.48
722.93	251.15
723.26	251.03
723.59	250.76
723.93	250.60
724.26	250.40
724.59	250.10
724.92	249.95
725.25	249.82
725.59	249.54
725.92	249.47
726.25	249.33
726.58	249.14
726.91	248.98
727.24	248.78
727.57	248.59
727.91	248.30
728.24	248.23
728.57	247.97
728.90	247.76
729.23	247.47
729.56	247.60
729.89	247.40
730.22	247.15
730.55	246.94
730.89	246.88
731.22	246.75
731.55	246.62
731.88	246.45
732.21	246.22
732.54	246.05
732.87	245.80
733.20	245.68
733.53	245.53
733.86	245.44
734.19	245.21
734.52	245.13
734.85	245.34
735.18	245.05
735.51	244.96
735.84	244.82
736.17	244.80
736.50	244.37
736.83	244.84
737.16	244.73
737.49	244.63
737.82	244.35
738.15	244.26
738.48	244.12
738.81	244.00
739.14	243.82
739.47	243.71
739.80	243.56
740.13	243.46
740.46	243.21
740.79	242.97
741.12	242.85
741.45	242.64
741.78	242.23
742.11	242.28
742.44	242.10
742.77	242.06
743.10	241.87
743.43	241.71
743.75	241.08
744.08	241.62
744.41	241.56
744.74	241.45
745.07	241.18
745.40	241.15
745.73	241.22
746.06	241.14
746.39	241.02
746.71	240.91
747.04	240.69
747.37	240.58
747.70	240.55
748.03	240.42
748.36	240.38
748.68	240.27
749.01	240.01
749.34	239.87
749.67	239.73
750.00	239.68
750.33	239.97
750.65	239.85
750.98	239.11
751.31	238.97
751.64	238.88
751.97	239.07
752.29	238.95
752.62	238.57
752.95	238.39
753.28	238.23
753.60	238.10
753.93	238.16
754.26	238.06
754.59	237.86
754.91	237.75
755.24	237.57
755.57	237.49
755.90	237.35
756.22	237.14
756.55	236.95
756.88	236.71
757.20	236.27
757.53	236.07
757.86	235.95
758.19	235.87
758.51	235.68
758.84	235.30
759.17	235.17
759.49	235.15
759.82	235.26
760.15	235.25
760.47	235.15
760.80	234.84
761.13	234.83
761.45	234.68
761.78	234.62
762.11	234.60
762.43	234.40
762.76	234.32
763.08	234.32
763.41	234.35
763.74	234.27
764.06	234.10
764.39	234.03
764.71	233.93
765.04	233.76
765.37	233.70
765.69	233.60
766.02	233.52
766.34	233.37
766.67	233.12
767.00	233.12
767.32	233.31
767.65	233.59
767.97	233.52
768.30	233.59
768.62	233.53
768.95	233.41
769.27	233.29
769.60	233.30
769.92	233.13
770.25	232.95
770.57	232.85
770.90	232.85
771.22	232.67
771.55	232.65
771.87	232.63
772.20	232.59
772.52	232.98
772.85	233.46
773.17	233.47
773.50	233.39
773.82	233.29
774.15	233.04
774.47	232.70
774.80	232.59
775.12	232.43
775.45	232.35
775.77	232.31
776.09	232.41
776.42	232.29
776.74	232.48
777.07	232.40
777.39	232.35
777.72	232.24
778.04	232.35
778.36	232.21
778.69	232.25
779.01	232.23
779.33	231.79
779.66	231.17
779.98	231.07
780.31	231.07
780.63	231.22
780.95	231.24
781.28	231.17
781.60	231.09
781.92	231.03
782.25	230.93
782.57	230.87
782.89	230.76
783.22	230.79
783.54	230.64
783.86	230.65
784.19	230.63
784.51	230.76
784.83	230.67
785.16	230.65
785.48	230.61
785.80	230.49
786.12	230.41
786.45	230.44
786.77	230.42
787.09	230.40
787.42	230.22
787.74	230.20
788.06	230.21
788.38	230.22
788.71	230.20
789.03	230.23
789.35	230.30
789.67	230.26
789.99	230.24
790.32	230.17
790.64	230.16
790.96	230.54
791.28	230.28
791.61	230.13
791.93	230.14
792.25	230.02
792.57	230.44
792.89	230.40
793.21	230.41
793.54	230.38
793.86	230.27
794.18	230.23
794.50	230.12
794.82	230.10
795.14	230.05
795.47	230.16
795.79	230.14
796.11	230.00
796.43	229.96
796.75	229.91
797.07	229.92
797.39	229.83
797.71	229.47
798.04	229.56
798.36	229.63
798.68	229.60
799.00	229.62
799.32	229.30
799.64	229.40
799.96	229.35
800.28	229.43
800.60	229.39
800.92	229.36
801.24	229.35
801.56	229.35
801.89	229.29
802.21	229.28
802.53	229.19
802.85	229.30
803.17	229.52
803.49	229.42
803.81	229.33
804.13	229.36
804.45	229.28
804.77	229.30
805.09	229.28
805.41	229.21
805.73	229.11
806.05	229.02
806.37	228.90
806.69	228.82
807.01	228.72
807.33	228.77
807.65	228.64
807.97	228.83
808.28	228.78
808.60	228.88
808.92	228.75
809.24	229.00
809.56	228.90
809.88	228.69
810.20	228.72
810.52	228.83
810.84	228.67
811.16	228.65
811.48	228.54
811.80	228.78
812.12	228.75
812.43	228.84
812.75	228.91
813.07	228.87
813.39	228.88
813.71	228.79
814.03	228.65
814.35	228.69
814.67	228.49
814.98	228.48
815.30	228.42
815.62	228.36
815.94	228.12
816.26	228.32
816.58	228.20
816.89	228.20
817.21	228.09
817.53	228.15
817.85	228.10
818.17	228.09
818.48	227.82
818.80	227.85
819.12	227.79
819.44	227.63
819.76	227.59
820.07	227.56
820.39	227.55
820.71	227.63
821.03	227.55
821.34	227.45
821.66	227.46
821.98	227.48
822.30	227.41
822.61	227.60
822.93	227.40
823.25	227.43
823.57	227.42
823.88	227.45
824.20	227.45
824.52	227.52
824.83	227.50
825.15	227.42
825.47	227.42
825.79	227.43
826.10	227.43
826.42	227.39
826.74	227.47
827.05	227.42
827.37	227.37
827.69	227.36
828.00	227.34
828.32	227.29
828.64	227.18
828.95	227.48
829.27	227.34
829.58	227.20
829.90	227.25
830.22	227.24
830.53	227.12
830.85	227.05
831.17	226.91
831.48	226.91
831.80	226.91
832.11	226.90
832.43	226.81
832.75	226.83
833.06	227.13
833.38	227.00
833.69	226.98
834.01	227.06
834.32	227.08
834.64	227.09
834.96	227.09
835.27	227.12
835.59	226.98
835.90	226.89
836.22	226.91
836.53	226.88
836.85	226.77
837.16	227.27
837.48	227.29
837.79	227.50
838.11	227.51
838.42	227.63
838.74	227.70
839.05	227.64
839.37	227.58
839.68	227.30
840.00	227.34
840.31	227.46
840.63	227.42
840.94	227.36
841.26	227.34
841.57	227.34
841.88	227.35
842.20	227.25
842.51	227.19
842.83	227.20
843.14	227.59
843.46	227.63
843.77	227.35
844.08	227.34
844.40	227.19
844.71	227.19
845.03	227.09
845.34	227.06
845.65	227.09
845.97	227.11
846.28	227.14
846.60	227.14
846.91	227.03
847.22	227.00
847.54	227.09
847.85	227.09
848.16	227.03
848.48	226.98
848.79	227.13
849.10	227.22
849.42	227.29
849.73	226.85
850.04	226.87
850.36	226.72
850.67	226.82
850.98	226.85
851.30	226.84
851.61	226.85
851.92	226.84
852.23	226.99
852.55	227.00
852.86	226.95
853.17	227.02
853.49	227.18
853.80	227.25
854.11	227.30
854.42	227.35
854.74	227.39
855.05	227.37
855.36	227.08
855.67	227.09
855.99	227.05
856.30	227.64
856.61	227.63
856.92	227.62
857.23	227.56
857.55	227.54
857.86	227.54
858.17	227.59
858.48	227.52
858.79	227.37
859.11	227.46
859.42	227.43
859.73	227.30
860.04	227.26
860.35	227.18
860.66	227.02
860.98	227.02
861.29	227.12
861.60	227.08
861.91	227.30
862.22	227.24
862.53	227.15
862.84	226.57
863.16	226.66
863.47	226.60
863.78	226.59
864.09	226.60
864.40	226.68
864.71	226.62
865.02	226.66
865.33	226.61
865.64	226.55
865.95	226.60
866.27	226.89
866.58	226.81
866.89	226.77
867.20	226.76
867.51	226.71
867.82	226.60
868.13	226.81
868.44	226.64
868.75	226.72
869.06	226.85
869.37	226.88
869.68	226.72
869.99	226.80
870.30	226.83
870.61	226.88
870.92	226.84
871.23	226.81
871.54	226.86
871.85	227.02
872.16	226.95
872.47	226.89
872.78	226.63
873.09	226.68
873.40	226.71
873.71	226.75
874.02	226.75
874.33	226.71
874.64	226.53
874.95	226.62
875.26	226.49
875.56	226.35
875.87	226.35
876.18	226.32
876.49	226.74
876.80	226.72
877.11	226.67
877.42	226.64
877.73	226.67
878.04	226.60
878.35	226.59
878.66	226.62
878.96	226.62
879.27	226.65
879.58	226.54
879.89	226.39
880.20	226.47
880.51	226.45
880.82	226.45
881.12	226.46
881.43	226.39
881.74	226.33
882.05	226.35
882.36	226.38
882.67	226.43
882.97	225.92
883.28	225.84
883.59	225.78
883.90	225.84
884.21	226.00
884.51	225.98
884.82	225.91
885.13	225.94
885.44	225.93
885.74	225.86
886.05	225.94
886.36	226.11
886.67	226.06
886.98	226.34
887.28	226.42
887.59	226.52
887.90	226.54
888.20	226.56
888.51	226.68
888.82	226.61
889.13	226.67
889.43	227.10
889.74	227.12
890.05	227.11
890.35	227.01
890.66	226.80
890.97	226.83
891.28	226.80
891.58	226.81
891.89	226.80
892.20	226.80
892.50	226.75
892.81	226.66
893.12	226.61
893.42	226.35
893.73	226.34
894.04	226.30
894.34	226.39
894.65	226.41
894.95	226.33
895.26	226.31
895.57	226.53
895.87	226.12
896.18	226.18
896.48	226.22
896.79	226.25
897.10	226.43
897.40	226.40
897.71	226.45
898.01	226.45
898.32	226.53
898.63	226.57
898.93	226.57
899.24	226.56
899.54	226.56
899.85	226.61
900.15	226.59
900.46	226.57
900.76	226.53
901.07	226.50
901.38	226.43
901.68	226.44
901.99	226.16
902.29	226.11
902.60	226.08
902.90	226.04
903.21	226.01
903.51	225.92
903.82	226.02
904.12	225.98
904.43	225.98
904.73	225.91
905.03	225.97
905.34	226.38
905.64	226.45
905.95	226.40
906.25	226.38
906.56	226.28
906.86	226.29
907.17	226.22
907.47	226.26
907.77	226.22
908.08	226.13
908.38	226.13
908.69	226.20
908.99	226.26
909.30	226.31
909.60	226.27
909.90	226.25
910.21	226.12
910.51	226.07
910.81	225.97
911.12	226.11
911.42	225.99
911.73	225.62
912.03	225.57
912.33	225.57
912.64	225.46
912.94	225.54
913.24	225.42
913.55	225.43
913.85	225.40
914.15	225.48
914.46	225.52
914.76	225.50
915.06	225.45
915.37	225.38
915.67	225.31
915.97	225.37
916.27	225.23
916.58	225.24
916.88	225.22
917.18	225.21
917.49	225.40
917.79	225.40
918.09	225.39
918.39	225.50
918.70	225.59
919.00	225.64
919.30	225.79
919.60	225.82
919.91	225.76
920.21	225.71
920.51	225.66
920.81	225.64
921.12	225.75
921.42	225.65
921.72	225.66
922.02	225.64
922.32	225.65
922.63	225.67
922.93	225.93
923.23	225.98
923.53	225.96
923.83	225.71
924.13	225.78
924.44	225.80
924.74	225.90
925.04	226.02
925.34	226.03
925.64	225.82
925.94	225.80
926.24	226.17
926.55	226.21
926.85	226.35
927.15	226.41
927.45	226.37
927.75	226.41
928.05	226.44
928.35	226.46
928.65	226.57
928.95	226.74
929.26	226.59
929.56	226.67
929.86	226.75
930.16	226.75
930.46	226.73
930.76	226.78
931.06	226.57
931.36	226.44
931.66	226.53
931.96	226.61
932.26	226.70
932.56	226.41
932.86	226.45
933.16	226.37
933.46	226.33
933.76	226.24
934.06	226.46
934.36	226.60
934.66	226.60
934.96	226.60
935.26	226.54
935.56	226.54
935.86	226.50
936.16	226.48
936.46	226.40
936.76	226.38
937.06	226.29
937.36	226.32
937.66	226.32
937.96	226.24
938.26	226.14
938.56	226.04
938.86	226.14
939.16	226.24
939.46	226.33
939.76	226.39
940.06	226.45
940.35	226.30
940.65	226.09
940.95	226.17
941.25	226.00
941.55	225.93
941.85	226.00
942.15	226.08
942.45	226.15
942.75	226.15
943.04	226.13
943.34	226.20
943.64	226.11
943.94	226.10
944.24	226.15
944.54	226.21
944.84	226.23
945.13	226.10
945.43	225.97
945.73	225.91
946.03	225.83
946.33	225.77
946.62	225.80
946.92	225.82
947.22	225.78
947.52	225.84
947.82	225.85
948.11	225.73
948.41	225.52
948.71	225.37
949.01	225.42
949.31	225.42
949.60	225.40
949.90	225.47
950.20	225.41
950.50	225.39
950.79	225.36
951.09	225.42
951.39	225.48
951.69	225.44
951.98	225.57
952.28	225.59
952.58	225.61
952.87	225.55
953.17	225.61
953.47	225.60
953.76	225.58
954.06	225.55
954.36	225.45
954.66	225.46
954.95	225.63
955.25	225.64
955.55	225.66
955.84	225.52
956.14	225.57
956.44	225.60
956.73	225.54
957.03	225.55
957.32	225.54
957.62	225.47
957.92	225.60
958.21	225.50
958.51	226.01
958.81	226.09
959.10	226.18
959.40	226.30
959.69	226.33
959.99	226.36
960.29	226.39
960.58	226.38
960.88	226.60
961.17	226.53
961.47	226.55
961.76	226.54
962.06	226.65
962.36	226.59
962.65	226.63
962.95	226.66
963.24	226.65
963.54	226.65
963.83	226.69
964.13	226.67
964.42	226.55
964.72	226.17
965.01	226.15
965.31	226.05
965.60	225.92
965.90	226.15
966.19	226.07
966.49	226.11
966.78	226.13
967.08	226.07
967.37	226.09
967.67	226.00
967.96	226.04
968.26	226.08
968.55	226.15
968.85	226.10
969.14	226.07
969.43	226.05
969.73	226.01
970.02	226.00
970.32	225.97
970.61	226.01
970.91	225.93
971.20	225.85
971.49	225.79
971.79	225.85
972.08	225.56
972.38	225.57
972.67	225.50
972.96	225.63
973.26	225.52
973.55	225.66
973.85	225.66
974.14	225.63
974.43	225.60
974.73	225.54
975.02	225.58
975.31	225.59
975.61	225.62
975.90	225.59
976.19	225.58
976.49	225.59
976.78	225.62
977.07	225.57
977.37	225.61
977.66	225.68
977.95	225.60
978.24	225.66
978.54	225.88
978.83	225.85
979.12	225.78
979.42	225.85
979.71	225.81
980.00	225.79
980.29	225.82
980.59	225.74
980.88	225.84
981.17	225.79
981.46	225.77
981.76	225.80
982.05	225.95
982.34	225.94
982.63	225.96
982.93	225.98
983.22	226.07
983.51	226.05
983.80	226.12
984.09	226.18
984.39	226.11
984.68	225.96
984.97	225.93
985.26	225.91
985.55	225.89
985.85	225.71
986.14	225.81
986.43	225.82
986.72	225.85
987.01	225.72
987.30	225.70
987.59	225.72
987.89	225.70
988.18	225.53
988.47	225.51
988.76	225.49
989.05	225.40
989.34	225.37
989.63	225.48
989.92	225.40
990.22	225.33
990.51	225.29
990.80	225.24
991.09	225.39
991.38	225.43
991.67	225.40
991.96	225.41
992.25	225.42
992.54	225.35
992.83	225.35
993.12	225.35
993.41	225.45
993.70	225.63
993.99	225.70
994.28	225.79
994.58	225.86
994.87	225.72
995.16	225.72
995.45	225.66
995.74	225.60
996.03	225.68
996.32	225.79
996.61	225.92
996.90	225.92
997.19	225.85
997.48	225.86
997.77	225.87
998.06	225.91
998.34	225.85
998.63	225.91
998.92	225.89
999.21	225.95
999.50	225.90
999.79	225.78
1000.08	225.77
1000.37	225.77
1000.66	225.70
1000.95	225.89
1001.24	225.93
1001.53	226.05
1001.82	226.01
1002.11	225.89
1002.40	225.92
1002.68	226.04
1002.97	226.37
1003.26	226.30
1003.55	226.28
1003.84	226.29
1004.13	226.42
1004.42	226.40
1004.71	226.40
1004.99	226.39
1005.28	226.45
1005.57	226.40
1005.86	226.36
1006.15	226.33
1006.44	226.28
1006.72	226.32
1007.01	226.25
1007.30	226.23
1007.59	226.16
1007.88	226.15
1008.17	226.26
1008.45	226.12
1008.74	225.85
1009.03	225.59
1009.32	225.69
1009.60	225.58
1009.89	225.53
1010.18	225.29
1010.47	225.24
1010.76	225.19
1011.04	225.17
1011.33	225.21
1011.62	225.23
1011.91	225.21
1012.19	225.15
1012.48	225.15
1012.77	225.14
1013.05	225.33
1013.34	225.33
1013.63	225.30
1013.92	225.31
1014.20	225.26
1014.49	225.33
1014.78	225.40
1015.06	225.28
1015.35	225.18
1015.64	225.27
1015.92	225.31
1016.21	225.39
1016.50	225.47
1016.78	225.53
1017.07	225.52
1017.36	225.43
1017.64	225.41
1017.93	225.43
1018.22	225.49
1018.50	225.51
1018.79	225.49
1019.08	225.21
1019.36	225.23
1019.65	225.20
1019.93	225.38
1020.22	225.43
1020.51	225.64
1020.79	225.58
1021.08	226.00
1021.36	225.55
1021.65	224.60
1021.94	223.90
1022.22	225.50
1022.51	224.70
1022.79	229.20
1023.08	226.80
1023.36	230.70
1023.65	224.00
>>>>>End Processed Spectral Data<<<<<
