SpectraSuite Data File
++++++++++++++++++++++++++++++++++++
Date: Wed Sep 04 17:55:53 EDT 2013
User: lab3
Dark Spectrum Present: Yes
Reference Spectrum Present: No
Number of Sampled Component Spectra: 1
Spectrometers: USB2E7196
Integration Time (usec): 170000 (USB2E7196)
Spectra Averaged: 20 (USB2E7196)
Boxcar Smoothing: 10 (USB2E7196)
Correct for Electrical Dark: No (USB2E7196)
Strobe/Lamp Enabled: No (USB2E7196)
Correct for Detector Non-linearity: No (USB2E7196)
Correct for Stray Light: No (USB2E7196)
Number of Pixels in Processed Spectrum: 2048
>>>>>Begin Processed Spectral Data<<<<<
339.09	0.00
339.48	213.10
339.86	214.65
340.24	215.90
340.63	217.75
341.01	226.30
341.39	220.10
341.78	222.30
342.16	224.90
342.54	222.95
342.93	212.33
343.31	223.01
343.69	223.57
344.07	224.05
344.46	224.59
344.84	224.98
345.22	224.93
345.60	225.25
345.99	225.45
346.37	225.50
346.75	225.56
347.13	225.65
347.52	225.75
347.90	226.05
348.28	226.12
348.66	226.29
349.05	226.22
349.43	226.31
349.81	226.47
350.19	226.56
350.57	226.54
350.96	226.63
351.34	226.73
351.72	226.84
352.10	226.93
352.48	226.92
352.87	226.93
353.25	227.02
353.63	227.01
354.01	227.06
354.39	227.18
354.77	227.35
355.15	227.52
355.54	227.54
355.92	227.34
356.30	227.39
356.68	227.73
357.06	227.78
357.44	227.69
357.82	227.70
358.20	228.10
358.58	228.26
358.97	228.32
359.35	228.55
359.73	228.65
360.11	228.67
360.49	228.74
360.87	228.76
361.25	228.85
361.63	229.05
362.01	229.11
362.39	229.04
362.77	229.04
363.15	229.10
363.53	229.13
363.91	229.29
364.29	229.31
364.67	228.85
365.05	228.92
365.43	229.03
365.81	229.12
366.19	229.02
366.57	229.12
366.95	229.20
367.33	229.05
367.71	229.07
368.09	229.24
368.47	229.25
368.85	229.32
369.23	229.45
369.61	229.33
369.99	229.45
370.37	229.58
370.75	229.84
371.13	229.76
371.51	229.71
371.89	229.65
372.27	229.64
372.65	229.74
373.03	229.70
373.41	229.61
373.78	229.50
374.16	229.22
374.54	229.11
374.92	229.04
375.30	229.06
375.68	228.90
376.06	228.79
376.44	228.73
376.82	228.67
377.19	228.53
377.57	228.49
377.95	228.25
378.33	228.11
378.71	227.82
379.09	227.83
379.47	227.78
379.84	227.73
380.22	227.57
380.60	227.39
380.98	227.28
381.36	227.20
381.73	227.07
382.11	227.08
382.49	227.09
382.87	226.94
383.25	226.84
383.62	227.35
384.00	227.26
384.38	227.22
384.76	227.29
385.13	227.49
385.51	227.40
385.89	227.37
386.27	227.42
386.64	227.43
387.02	227.27
387.40	227.20
387.78	227.15
388.15	227.20
388.53	227.23
388.91	227.23
389.29	227.27
389.66	227.30
390.04	227.24
390.42	227.27
390.79	227.32
391.17	227.30
391.55	226.78
391.92	226.75
392.30	226.85
392.68	226.75
393.05	226.58
393.43	226.64
393.81	226.73
394.18	226.67
394.56	226.67
394.94	226.86
395.31	226.90
395.69	227.10
396.06	227.22
396.44	227.23
396.82	227.25
397.19	227.47
397.57	227.48
397.95	227.60
398.32	227.46
398.70	227.59
399.07	227.81
399.45	227.85
399.82	227.94
400.20	227.90
400.58	228.01
400.95	227.99
401.33	228.10
401.70	228.51
402.08	228.55
402.45	228.74
402.83	228.95
403.20	229.08
403.58	229.13
403.95	229.34
404.33	229.56
404.71	229.84
405.08	230.30
405.46	230.53
405.83	230.80
406.21	231.17
406.58	231.45
406.96	231.62
407.33	232.00
407.70	232.41
408.08	233.21
408.45	233.69
408.83	234.15
409.20	234.57
409.58	234.66
409.95	235.30
410.33	235.78
410.70	236.15
411.08	236.83
411.45	237.40
411.82	238.01
412.20	238.75
412.57	239.70
412.95	239.97
413.32	240.86
413.69	241.61
414.07	242.48
414.44	243.37
414.82	244.47
415.19	245.67
415.56	246.83
415.94	247.80
416.31	249.20
416.68	250.58
417.06	252.15
417.43	253.74
417.81	255.49
418.18	257.29
418.55	259.22
418.93	261.24
419.30	263.35
419.67	265.48
420.04	267.79
420.42	269.99
420.79	273.09
421.16	275.89
421.54	278.99
421.91	281.99
422.28	285.12
422.66	288.34
423.03	291.76
423.40	295.02
423.77	298.46
424.15	301.91
424.52	305.81
424.89	310.16
425.26	314.19
425.64	317.99
426.01	322.11
426.38	326.49
426.75	331.06
427.13	335.70
427.50	340.56
427.87	345.41
428.24	350.42
428.61	354.94
428.99	360.33
429.36	365.78
429.73	371.29
430.10	376.74
430.47	382.51
430.85	388.03
431.22	394.34
431.59	401.26
431.96	407.50
432.33	414.34
432.70	420.81
433.08	428.57
433.45	435.98
433.82	443.44
434.19	451.62
434.56	459.55
434.93	467.14
435.30	474.82
435.68	483.46
436.05	491.94
436.42	500.32
436.79	508.02
437.16	516.39
437.53	525.05
437.90	533.90
438.27	542.34
438.64	551.51
439.01	559.76
439.38	566.81
439.75	574.07
440.13	582.04
440.50	589.64
440.87	595.81
441.24	602.26
441.61	609.15
441.98	614.33
442.35	620.30
442.72	626.35
443.09	632.09
443.46	635.49
443.83	637.80
444.20	639.63
444.57	642.17
444.94	643.29
445.31	644.49
445.68	645.76
446.05	645.91
446.42	644.37
446.79	642.96
447.16	641.36
447.53	640.03
447.90	636.45
448.27	632.64
448.64	627.75
449.01	624.01
449.37	617.90
449.74	611.76
450.11	604.84
450.48	597.00
450.85	589.17
451.22	582.36
451.59	575.61
451.96	569.43
452.33	561.40
452.70	554.00
453.07	545.39
453.43	536.18
453.80	527.92
454.17	519.98
454.54	512.31
454.91	504.11
455.28	496.18
455.65	488.64
456.02	481.87
456.38	475.47
456.75	467.69
457.12	461.18
457.49	454.86
457.86	448.45
458.23	443.45
458.59	437.66
458.96	431.92
459.33	426.89
459.70	421.79
460.07	417.69
460.43	412.98
460.80	408.62
461.17	404.94
461.54	400.95
461.91	397.15
462.27	393.17
462.64	389.99
463.01	386.50
463.38	383.30
463.74	379.29
464.11	376.28
464.48	373.59
464.85	370.79
465.21	368.70
465.58	366.37
465.95	363.56
466.32	361.35
466.68	359.05
467.05	356.85
467.42	354.79
467.78	352.48
468.15	350.41
468.52	348.80
468.88	346.57
469.25	344.55
469.62	343.11
469.98	341.52
470.35	339.95
470.72	338.44
471.08	336.60
471.45	335.34
471.82	334.08
472.18	332.65
472.55	331.56
472.92	330.19
473.28	329.09
473.65	327.96
474.02	326.87
474.38	325.98
474.75	325.21
475.11	324.18
475.48	323.44
475.85	322.75
476.21	322.10
476.58	321.63
476.94	321.22
477.31	320.71
477.67	320.31
478.04	319.97
478.41	319.74
478.77	320.14
479.14	319.85
479.50	319.77
479.87	319.78
480.23	319.76
480.60	319.66
480.96	319.59
481.33	319.95
481.69	320.19
482.06	320.36
482.42	320.55
482.79	320.86
483.15	321.33
483.52	321.96
483.88	322.50
484.25	322.95
484.61	323.64
484.98	324.24
485.34	325.19
485.71	326.20
486.07	327.21
486.44	327.84
486.80	328.94
487.17	330.06
487.53	331.47
487.90	332.88
488.26	334.71
488.62	336.41
488.99	337.94
489.35	339.66
489.72	341.57
490.08	343.63
490.44	345.65
490.81	347.87
491.17	350.02
491.54	352.48
491.90	355.13
492.26	357.80
492.63	360.61
492.99	363.34
493.36	366.41
493.72	369.59
494.08	373.02
494.45	376.84
494.81	380.77
495.17	384.62
495.54	388.82
495.90	392.89
496.26	397.49
496.63	402.11
496.99	406.92
497.35	412.01
497.72	417.33
498.08	422.85
498.44	428.49
498.80	434.50
499.17	440.57
499.53	446.90
499.89	453.56
500.26	460.44
500.62	467.54
500.98	474.87
501.34	482.41
501.71	490.08
502.07	497.95
502.43	506.13
502.79	514.64
503.16	523.40
503.52	532.41
503.88	541.59
504.24	551.34
504.60	561.30
504.97	571.57
505.33	581.97
505.69	593.20
506.05	604.30
506.41	615.59
506.78	627.24
507.14	639.34
507.50	651.60
507.86	664.23
508.22	677.24
508.59	690.19
508.95	703.83
509.31	718.06
509.67	732.20
510.03	746.51
510.39	761.31
510.75	776.37
511.12	791.74
511.48	807.40
511.84	822.97
512.20	838.92
512.56	855.10
512.92	872.07
513.28	888.78
513.64	906.08
514.00	923.58
514.37	941.30
514.73	959.42
515.09	977.73
515.45	995.99
515.81	1014.40
516.17	1033.47
516.53	1052.34
516.89	1071.12
517.25	1090.58
517.61	1110.87
517.97	1131.10
518.33	1151.06
518.69	1171.27
519.05	1191.76
519.41	1212.56
519.77	1233.81
520.13	1254.74
520.49	1275.10
520.85	1297.64
521.21	1318.78
521.57	1339.99
521.93	1360.88
522.29	1382.09
522.65	1402.71
523.01	1423.81
523.37	1444.42
523.73	1465.53
524.09	1485.93
524.45	1506.70
524.81	1527.42
525.17	1547.82
525.53	1568.31
525.89	1589.03
526.25	1609.85
526.61	1630.05
526.97	1650.85
527.33	1671.90
527.68	1693.75
528.04	1715.23
528.40	1734.69
528.76	1755.53
529.12	1776.13
529.48	1796.97
529.84	1817.18
530.20	1838.31
530.56	1859.00
530.91	1880.00
531.27	1900.25
531.63	1920.88
531.99	1941.32
532.35	1961.34
532.71	1981.47
533.07	2002.15
533.42	2022.22
533.78	2042.08
534.14	2062.24
534.50	2081.29
534.86	2100.51
535.21	2117.98
535.57	2136.07
535.93	2153.61
536.29	2171.35
536.65	2189.50
537.00	2207.15
537.36	2224.53
537.72	2241.12
538.08	2258.15
538.44	2275.31
538.79	2291.73
539.15	2308.40
539.51	2324.32
539.87	2339.64
540.22	2353.72
540.58	2368.32
540.94	2381.59
541.29	2394.26
541.65	2406.69
542.01	2419.55
542.37	2430.01
542.72	2441.43
543.08	2452.07
543.44	2463.79
543.79	2473.74
544.15	2483.49
544.51	2493.79
544.87	2503.31
545.22	2512.25
545.58	2520.28
545.94	2527.07
546.29	2533.37
546.65	2539.80
547.01	2545.63
547.36	2551.14
547.72	2557.00
548.07	2560.59
548.43	2565.99
548.79	2570.95
549.14	2575.32
549.50	2579.07
549.86	2583.22
550.21	2586.44
550.57	2590.21
550.92	2591.78
551.28	2593.27
551.64	2595.72
551.99	2597.17
552.35	2598.80
552.70	2600.62
553.06	2602.13
553.41	2603.13
553.77	2604.83
554.13	2605.98
554.48	2607.31
554.84	2608.30
555.19	2609.46
555.55	2610.89
555.90	2610.28
556.26	2609.08
556.61	2607.10
556.97	2604.91
557.32	2604.12
557.68	2603.04
558.03	2601.60
558.39	2600.18
558.74	2599.61
559.10	2596.35
559.45	2593.23
559.81	2588.60
560.16	2583.17
560.52	2578.11
560.87	2573.95
561.23	2568.65
561.58	2562.82
561.94	2555.94
562.29	2548.98
562.64	2541.56
563.00	2533.78
563.35	2527.44
563.71	2520.98
564.06	2515.18
564.42	2508.87
564.77	2502.25
565.12	2494.80
565.48	2486.96
565.83	2479.02
566.19	2470.89
566.54	2462.92
566.89	2454.52
567.25	2447.43
567.60	2440.89
567.96	2433.79
568.31	2425.60
568.66	2416.93
569.02	2407.91
569.37	2399.76
569.72	2392.32
570.08	2383.48
570.43	2374.05
570.78	2364.44
571.14	2355.09
571.49	2344.73
571.84	2335.10
572.20	2324.27
572.55	2314.12
572.90	2303.05
573.26	2292.64
573.61	2281.35
573.96	2270.25
574.31	2258.03
574.67	2246.02
575.02	2232.92
575.37	2219.92
575.72	2206.77
576.08	2194.97
576.43	2182.11
576.78	2168.76
577.13	2154.96
577.49	2141.82
577.84	2130.06
578.19	2118.22
578.54	2105.37
578.90	2093.23
579.25	2080.87
579.60	2068.14
579.95	2055.02
580.30	2042.09
580.66	2028.58
581.01	2015.16
581.36	2001.11
581.71	1988.73
582.06	1975.52
582.42	1963.10
582.77	1950.50
583.12	1938.79
583.47	1926.33
583.82	1914.81
584.17	1903.21
584.53	1891.30
584.88	1878.75
585.23	1865.29
585.58	1851.21
585.93	1838.30
586.28	1824.98
586.63	1810.93
586.98	1796.67
587.34	1783.65
587.69	1770.28
588.04	1757.85
588.39	1745.83
588.74	1733.79
589.09	1721.76
589.44	1709.22
589.79	1697.19
590.14	1685.29
590.49	1673.12
590.84	1661.11
591.19	1649.18
591.54	1636.62
591.89	1624.66
592.25	1614.26
592.60	1602.81
592.95	1591.16
593.30	1579.07
593.65	1567.46
594.00	1555.43
594.35	1545.52
594.70	1533.68
595.05	1522.50
595.40	1510.35
595.75	1498.25
596.10	1487.07
596.45	1475.48
596.80	1464.63
597.15	1453.09
597.50	1441.26
597.85	1429.83
598.19	1417.94
598.54	1406.22
598.89	1395.09
599.24	1384.20
599.59	1372.42
599.94	1361.56
600.29	1351.10
600.64	1340.89
600.99	1329.90
601.34	1320.22
601.69	1309.06
602.04	1299.47
602.39	1289.66
602.74	1280.59
603.08	1271.46
603.43	1261.89
603.78	1252.10
604.13	1242.46
604.48	1232.71
604.83	1222.85
605.18	1212.88
605.53	1203.59
605.87	1194.41
606.22	1185.74
606.57	1176.37
606.92	1166.98
607.27	1158.06
607.62	1149.34
607.96	1140.81
608.31	1132.95
608.66	1124.41
609.01	1116.05
609.36	1107.05
609.70	1098.60
610.05	1090.15
610.40	1081.33
610.75	1072.76
611.10	1064.22
611.44	1055.44
611.79	1047.14
612.14	1039.39
612.49	1031.44
612.83	1023.93
613.18	1016.09
613.53	1008.30
613.88	1000.58
614.22	993.00
614.57	985.03
614.92	976.95
615.27	969.03
615.61	961.37
615.96	953.81
616.31	946.31
616.65	939.45
617.00	932.11
617.35	924.52
617.70	917.53
618.04	910.54
618.39	903.76
618.74	897.53
619.08	890.84
619.43	883.84
619.78	877.06
620.12	869.73
620.47	862.83
620.82	855.82
621.16	849.06
621.51	842.78
621.85	836.44
622.20	830.00
622.55	823.47
622.89	816.83
623.24	810.61
623.59	804.12
623.93	797.68
624.28	791.51
624.62	785.96
624.97	780.09
625.32	774.37
625.66	768.52
626.01	762.27
626.35	756.63
626.70	751.16
627.04	745.88
627.39	740.53
627.73	735.06
628.08	730.00
628.43	724.47
628.77	718.89
629.12	713.62
629.46	708.90
629.81	704.29
630.15	699.70
630.50	694.85
630.84	690.03
631.19	685.31
631.53	680.64
631.88	675.30
632.22	670.51
632.57	665.89
632.91	661.15
633.26	657.00
633.60	652.48
633.95	647.76
634.29	642.97
634.64	638.43
634.98	633.79
635.32	629.25
635.67	625.30
636.01	621.17
636.36	616.70
636.70	612.53
637.05	608.33
637.39	604.00
637.73	599.97
638.08	596.05
638.42	591.87
638.77	587.66
639.11	583.45
639.45	579.09
639.80	574.70
640.14	570.63
640.49	566.26
640.83	562.23
641.17	558.61
641.52	554.87
641.86	551.32
642.20	548.12
642.55	544.55
642.89	540.95
643.23	537.38
643.58	534.32
643.92	530.58
644.26	527.09
644.61	523.98
644.95	520.54
645.29	517.10
645.64	513.91
645.98	510.79
646.32	507.92
646.66	504.88
647.01	501.99
647.35	499.31
647.69	496.51
648.04	493.76
648.38	490.87
648.72	488.07
649.06	485.02
649.41	482.02
649.75	478.94
650.09	476.09
650.43	473.23
650.78	470.30
651.12	467.50
651.46	464.75
651.80	461.85
652.14	459.06
652.49	456.49
652.83	453.96
653.17	451.33
653.51	448.51
653.85	446.11
654.20	443.63
654.54	440.95
654.88	438.35
655.22	436.06
655.56	433.65
655.90	431.25
656.25	429.08
656.59	426.73
656.93	424.55
657.27	422.33
657.61	419.93
657.95	417.66
658.29	415.53
658.64	413.48
658.98	411.26
659.32	409.09
659.66	406.91
660.00	404.75
660.34	402.69
660.68	400.81
661.02	398.75
661.36	396.83
661.70	394.81
662.05	392.97
662.39	391.00
662.73	389.19
663.07	387.55
663.41	385.65
663.75	383.78
664.09	381.90
664.43	380.01
664.77	378.41
665.11	376.72
665.45	375.16
665.79	373.44
666.13	371.75
666.47	370.00
666.81	368.28
667.15	366.54
667.49	365.08
667.83	363.75
668.17	362.26
668.51	360.73
668.85	359.27
669.19	358.11
669.53	356.60
669.87	355.02
670.21	353.49
670.55	352.10
670.89	351.00
671.23	349.71
671.57	348.29
671.91	346.96
672.25	345.67
672.58	344.40
672.92	342.97
673.26	341.70
673.60	340.68
673.94	339.57
674.28	338.43
674.62	337.23
674.96	335.86
675.30	334.62
675.64	333.38
675.97	332.28
676.31	330.82
676.65	329.63
676.99	328.76
677.33	327.53
677.67	326.42
678.01	325.05
678.34	324.04
678.68	323.04
679.02	321.91
679.36	320.89
679.70	319.77
680.04	318.85
680.37	317.92
680.71	316.93
681.05	316.08
681.39	315.25
681.73	314.33
682.06	313.40
682.40	312.54
682.74	311.78
683.08	311.10
683.42	310.22
683.75	309.44
684.09	308.45
684.43	307.68
684.77	306.80
685.10	306.05
685.44	305.32
685.78	304.55
686.12	303.83
686.45	302.98
686.79	302.14
687.13	301.42
687.46	300.70
687.80	299.99
688.14	299.07
688.48	298.30
688.81	297.48
689.15	296.94
689.49	296.22
689.82	295.55
690.16	294.62
690.50	293.97
690.83	293.20
691.17	292.41
691.51	291.72
691.84	291.13
692.18	290.42
692.52	289.64
692.85	289.08
693.19	288.68
693.52	288.07
693.86	287.51
694.20	286.91
694.53	286.27
694.87	285.65
695.21	285.05
695.54	284.50
695.88	283.85
696.21	283.02
696.55	282.46
696.88	281.82
697.22	281.21
697.56	280.68
697.89	280.13
698.23	279.68
698.56	279.12
698.90	278.58
699.23	278.00
699.57	277.46
699.90	276.92
700.24	276.19
700.58	275.70
700.91	275.21
701.25	275.15
701.58	275.05
701.92	274.57
702.25	274.22
702.59	273.60
702.92	273.20
703.26	272.88
703.59	272.48
703.93	272.39
704.26	271.98
704.60	271.55
704.93	271.08
705.26	270.65
705.60	270.31
705.93	269.90
706.27	269.70
706.60	269.41
706.94	269.17
707.27	268.78
707.61	268.46
707.94	268.13
708.27	267.25
708.61	266.45
708.94	266.09
709.28	265.65
709.61	265.28
709.94	264.98
710.28	264.50
710.61	264.08
710.95	263.26
711.28	263.18
711.61	262.76
711.95	262.52
712.28	262.09
712.61	261.73
712.95	261.59
713.28	261.32
713.61	260.87
713.95	260.32
714.28	260.00
714.61	259.55
714.95	259.15
715.28	258.78
715.61	258.41
715.95	258.01
716.28	257.64
716.61	257.41
716.95	256.98
717.28	256.64
717.61	256.27
717.94	256.03
718.28	255.51
718.61	255.25
718.94	254.89
719.27	254.66
719.61	254.34
719.94	253.89
720.27	253.48
720.60	253.24
720.94	252.94
721.27	252.78
721.60	252.63
721.93	252.36
722.27	252.34
722.60	252.22
722.93	252.00
723.26	251.85
723.59	251.55
723.93	251.43
724.26	251.33
724.59	251.23
724.92	251.10
725.25	250.95
725.59	250.69
725.92	250.58
726.25	250.36
726.58	250.27
726.91	250.05
727.24	249.93
727.57	249.76
727.91	249.58
728.24	249.33
728.57	249.14
728.90	249.06
729.23	248.58
729.56	248.62
729.89	248.54
730.22	248.35
730.55	248.20
730.89	248.02
731.22	247.85
731.55	247.56
731.88	247.39
732.21	247.15
732.54	247.00
732.87	246.75
733.20	246.61
733.53	246.48
733.86	246.38
734.19	246.11
734.52	246.01
734.85	246.25
735.18	246.07
735.51	246.04
735.84	245.86
736.17	245.97
736.50	245.52
736.83	245.81
737.16	245.63
737.49	245.48
737.82	245.30
738.15	245.21
738.48	245.06
738.81	244.84
739.14	244.66
739.47	244.44
739.80	244.35
740.13	244.20
740.46	243.92
740.79	243.72
741.12	243.53
741.45	243.30
741.78	242.89
742.11	242.82
742.44	242.51
742.77	242.46
743.10	242.20
743.43	242.10
743.75	241.52
744.08	241.98
744.41	241.76
744.74	241.61
745.07	241.31
745.40	241.30
745.73	241.40
746.06	241.29
746.39	241.30
746.71	241.13
747.04	240.99
747.37	240.89
747.70	240.88
748.03	240.82
748.36	240.84
748.68	240.62
749.01	240.42
749.34	240.32
749.67	240.17
750.00	240.08
750.33	240.29
750.65	240.23
750.98	239.53
751.31	239.46
751.64	239.35
751.97	239.45
752.29	239.29
752.62	238.93
752.95	238.76
753.28	238.58
753.60	238.50
753.93	238.54
754.26	238.45
754.59	238.22
754.91	238.08
755.24	237.85
755.57	237.82
755.90	237.71
756.22	237.58
756.55	237.40
756.88	237.21
757.20	236.81
757.53	236.52
757.86	236.42
758.19	236.35
758.51	236.23
758.84	236.06
759.17	235.90
759.49	235.81
759.82	235.94
760.15	235.80
760.47	235.68
760.80	235.47
761.13	235.40
761.45	235.24
761.78	235.19
762.11	235.18
762.43	235.02
762.76	234.86
763.08	234.88
763.41	234.82
763.74	234.82
764.06	234.74
764.39	234.74
764.71	234.69
765.04	234.61
765.37	234.57
765.69	234.33
766.02	234.20
766.34	234.10
766.67	233.80
767.00	233.86
767.32	234.02
767.65	234.25
767.97	234.16
768.30	234.15
768.62	234.05
768.95	233.91
769.27	233.85
769.60	233.92
769.92	233.81
770.25	233.70
770.57	233.61
770.90	233.53
771.22	233.45
771.55	233.32
771.87	233.25
772.20	233.16
772.52	233.59
772.85	234.19
773.17	234.23
773.50	234.24
773.82	234.13
774.15	233.87
774.47	233.48
774.80	233.31
775.12	233.34
775.45	233.28
775.77	233.24
776.09	233.24
776.42	233.16
776.74	233.22
777.07	233.16
777.39	233.10
777.72	233.02
778.04	233.03
778.36	233.01
778.69	233.01
779.01	233.01
779.33	232.52
779.66	231.89
779.98	231.77
780.31	231.72
780.63	231.86
780.95	231.89
781.28	231.81
781.60	231.85
781.92	231.71
782.25	231.73
782.57	231.69
782.89	231.63
783.22	231.52
783.54	231.32
783.86	231.34
784.19	231.23
784.51	231.34
784.83	231.16
785.16	231.12
785.48	231.09
785.80	231.01
786.12	231.02
786.45	231.11
786.77	231.08
787.09	231.02
787.42	230.86
787.74	230.81
788.06	230.87
788.38	230.74
788.71	230.67
789.03	230.66
789.35	230.67
789.67	230.54
789.99	230.56
790.32	230.52
790.64	230.45
790.96	230.85
791.28	230.66
791.61	230.68
791.93	230.69
792.25	230.62
792.57	230.95
792.89	230.89
793.21	230.78
793.54	230.73
793.86	230.63
794.18	230.62
794.50	230.49
794.82	230.37
795.14	230.44
795.47	230.52
795.79	230.42
796.11	230.31
796.43	230.31
796.75	230.29
797.07	230.32
797.39	230.31
797.71	229.99
798.04	229.99
798.36	229.94
798.68	229.89
799.00	229.88
799.32	229.58
799.64	229.67
799.96	229.63
800.28	229.66
800.60	229.67
800.92	229.60
801.24	229.63
801.56	229.65
801.89	229.58
802.21	229.58
802.53	229.50
802.85	229.55
803.17	229.79
803.49	229.63
803.81	229.57
804.13	229.52
804.45	229.40
804.77	229.37
805.09	229.38
805.41	229.31
805.73	229.13
806.05	228.99
806.37	228.90
806.69	228.90
807.01	228.91
807.33	228.91
807.65	228.76
807.97	228.93
808.28	228.84
808.60	228.81
808.92	228.65
809.24	228.99
809.56	228.90
809.88	228.71
810.20	228.75
810.52	228.80
810.84	228.77
811.16	228.74
811.48	228.74
811.80	228.87
812.12	228.89
812.43	229.06
812.75	229.09
813.07	229.01
813.39	229.02
813.71	228.88
814.03	228.87
814.35	228.88
814.67	228.64
814.98	228.67
815.30	228.72
815.62	228.65
815.94	228.30
816.26	228.48
816.58	228.36
816.89	228.37
817.21	228.20
817.53	228.22
817.85	228.14
818.17	228.13
818.48	227.96
818.80	228.04
819.12	227.93
819.44	227.84
819.76	227.85
820.07	227.84
820.39	227.86
820.71	227.83
821.03	227.85
821.34	227.96
821.66	227.96
821.98	227.96
822.30	227.97
822.61	228.26
822.93	228.07
823.25	228.10
823.57	228.05
823.88	228.17
824.20	228.12
824.52	228.30
824.83	228.22
825.15	228.17
825.47	228.04
825.79	228.10
826.10	228.11
826.42	228.03
826.74	228.01
827.05	228.01
827.37	228.02
827.69	228.02
828.00	227.90
828.32	227.87
828.64	227.84
828.95	228.13
829.27	227.99
829.58	227.94
829.90	228.01
830.22	228.05
830.53	227.93
830.85	227.86
831.17	227.70
831.48	227.76
831.80	227.77
832.11	227.78
832.43	227.71
832.75	227.65
833.06	228.03
833.38	227.89
833.69	227.82
834.01	227.87
834.32	227.85
834.64	227.84
834.96	227.78
835.27	227.77
835.59	227.59
835.90	227.47
836.22	227.46
836.53	227.29
836.85	227.25
837.16	227.76
837.48	227.83
837.79	227.98
838.11	227.94
838.42	227.88
838.74	227.86
839.05	227.76
839.37	227.74
839.68	227.36
840.00	227.41
840.31	227.45
840.63	227.37
840.94	227.21
841.26	227.12
841.57	227.18
841.88	227.23
842.20	227.10
842.51	227.08
842.83	227.05
843.14	227.45
843.46	227.49
843.77	227.12
844.08	227.11
844.40	226.94
844.71	226.95
845.03	226.96
845.34	226.93
845.65	226.97
845.97	227.04
846.28	227.07
846.60	227.05
846.91	226.99
847.22	226.99
847.54	227.14
847.85	227.24
848.16	227.13
848.48	226.99
848.79	227.27
849.10	227.25
849.42	227.35
849.73	226.94
850.04	226.80
850.36	226.68
850.67	226.76
850.98	226.85
851.30	226.77
851.61	226.74
851.92	226.77
852.23	226.85
852.55	226.92
852.86	226.90
853.17	227.05
853.49	227.11
853.80	227.16
854.11	227.19
854.42	227.19
854.74	227.17
855.05	227.19
855.36	226.91
855.67	226.96
855.99	226.93
856.30	227.54
856.61	227.58
856.92	227.59
857.23	227.50
857.55	227.40
857.86	227.42
858.17	227.53
858.48	227.44
858.79	227.37
859.11	227.30
859.42	227.31
859.73	227.16
860.04	227.15
860.35	227.06
860.66	226.93
860.98	226.91
861.29	227.01
861.60	226.96
861.91	227.05
862.22	226.98
862.53	226.90
862.84	226.30
863.16	226.45
863.47	226.37
863.78	226.33
864.09	226.36
864.40	226.43
864.71	226.40
865.02	226.52
865.33	226.49
865.64	226.48
865.95	226.46
866.27	226.81
866.58	226.81
866.89	226.82
867.20	226.85
867.51	226.76
867.82	226.76
868.13	226.92
868.44	226.87
868.75	226.92
869.06	226.95
869.37	227.06
869.68	226.93
869.99	226.98
870.30	227.04
870.61	227.12
870.92	227.02
871.23	227.02
871.54	227.07
871.85	227.21
872.16	227.19
872.47	227.21
872.78	226.86
873.09	226.86
873.40	226.88
873.71	226.89
874.02	226.96
874.33	226.90
874.64	226.84
874.95	226.87
875.26	226.77
875.56	226.77
875.87	226.74
876.18	226.70
876.49	227.21
876.80	227.21
877.11	227.15
877.42	227.19
877.73	227.17
878.04	227.09
878.35	227.06
878.66	227.10
878.96	227.06
879.27	227.04
879.58	227.00
879.89	226.96
880.20	227.08
880.51	227.10
880.82	227.09
881.12	227.00
881.43	226.91
881.74	226.87
882.05	226.84
882.36	226.87
882.67	226.93
882.97	226.39
883.28	226.30
883.59	226.28
883.90	226.32
884.21	226.49
884.51	226.43
884.82	226.38
885.13	226.40
885.44	226.39
885.74	226.40
886.05	226.42
886.36	226.45
886.67	226.33
886.98	226.51
887.28	226.58
887.59	226.67
887.90	226.68
888.20	226.66
888.51	226.73
888.82	226.56
889.13	226.67
889.43	227.09
889.74	227.15
890.05	227.12
890.35	227.05
890.66	226.89
890.97	226.87
891.28	226.78
891.58	226.82
891.89	226.80
892.20	226.83
892.50	226.78
892.81	226.73
893.12	226.69
893.42	226.46
893.73	226.40
894.04	226.40
894.34	226.46
894.65	226.49
894.95	226.48
895.26	226.61
895.57	226.75
895.87	226.30
896.18	226.35
896.48	226.39
896.79	226.39
897.10	226.42
897.40	226.48
897.71	226.58
898.01	226.48
898.32	226.56
898.63	226.48
898.93	226.49
899.24	226.55
899.54	226.54
899.85	226.54
900.15	226.57
900.46	226.49
900.76	226.50
901.07	226.44
901.38	226.38
901.68	226.39
901.99	226.17
902.29	226.24
902.60	226.20
902.90	226.19
903.21	226.24
903.51	226.18
903.82	226.23
904.12	226.27
904.43	226.33
904.73	226.31
905.03	226.37
905.34	226.85
905.64	226.82
905.95	226.86
906.25	226.90
906.56	226.92
906.86	226.90
907.17	226.89
907.47	226.91
907.77	226.85
908.08	226.74
908.38	226.75
908.69	226.76
908.99	226.79
909.30	226.76
909.60	226.75
909.90	226.84
910.21	226.73
910.51	226.58
910.81	226.58
911.12	226.62
911.42	226.64
911.73	226.16
912.03	226.15
912.33	226.22
912.64	226.17
912.94	226.17
913.24	226.20
913.55	226.21
913.85	226.20
914.15	226.38
914.46	226.40
914.76	226.41
915.06	226.40
915.37	226.38
915.67	226.39
915.97	226.37
916.27	226.20
916.58	226.18
916.88	226.27
917.18	226.23
917.49	226.52
917.79	226.57
918.09	226.66
918.39	226.83
918.70	226.77
919.00	226.81
919.30	227.05
919.60	226.96
919.91	226.91
920.21	227.00
920.51	226.85
920.81	226.87
921.12	226.86
921.42	226.87
921.72	226.88
922.02	226.94
922.32	227.06
922.63	227.19
922.93	227.43
923.23	227.42
923.53	227.37
923.83	227.12
924.13	227.13
924.44	227.05
924.74	227.11
925.04	227.28
925.34	227.30
925.64	227.03
925.94	227.09
926.24	227.40
926.55	227.30
926.85	227.46
927.15	227.46
927.45	227.47
927.75	227.49
928.05	227.47
928.35	227.38
928.65	227.37
928.95	227.39
929.26	227.31
929.56	227.42
929.86	227.57
930.16	227.47
930.46	227.43
930.76	227.48
931.06	227.27
931.36	227.10
931.66	227.18
931.96	227.21
932.26	227.26
932.56	227.03
932.86	227.11
933.16	227.08
933.46	227.03
933.76	226.95
934.06	227.07
934.36	227.20
934.66	227.23
934.96	227.16
935.26	227.15
935.56	227.16
935.86	226.99
936.16	226.84
936.46	226.83
936.76	226.79
937.06	226.81
937.36	226.85
937.66	226.89
937.96	226.91
938.26	226.82
938.56	226.73
938.86	226.75
939.16	226.78
939.46	226.76
939.76	226.84
940.06	226.89
940.35	226.72
940.65	226.47
940.95	226.53
941.25	226.42
941.55	226.34
941.85	226.26
942.15	226.35
942.45	226.58
942.75	226.54
943.04	226.59
943.34	226.66
943.64	226.56
943.94	226.39
944.24	226.27
944.54	226.31
944.84	226.36
945.13	226.28
945.43	226.23
945.73	226.18
946.03	226.07
946.33	225.97
946.62	225.94
946.92	225.95
947.22	225.90
947.52	225.98
947.82	226.06
948.11	226.01
948.41	225.88
948.71	225.67
949.01	225.71
949.31	225.61
949.60	225.50
949.90	225.61
950.20	225.63
950.50	225.65
950.79	225.63
951.09	225.67
951.39	225.63
951.69	225.61
951.98	225.76
952.28	225.80
952.58	225.77
952.87	225.73
953.17	225.85
953.47	225.81
953.76	225.84
954.06	225.77
954.36	225.73
954.66	225.77
954.95	225.90
955.25	225.91
955.55	225.94
955.84	225.85
956.14	225.84
956.44	225.95
956.73	225.85
957.03	225.90
957.32	225.92
957.62	225.91
957.92	226.02
958.21	225.95
958.51	226.50
958.81	226.62
959.10	226.66
959.40	226.74
959.69	226.81
959.99	226.82
960.29	226.82
960.58	226.83
960.88	227.00
961.17	226.91
961.47	226.97
961.76	226.97
962.06	227.10
962.36	227.12
962.65	227.08
962.95	227.17
963.24	227.12
963.54	227.15
963.83	227.20
964.13	227.15
964.42	227.02
964.72	226.67
965.01	226.71
965.31	226.74
965.60	226.64
965.90	226.90
966.19	226.80
966.49	226.87
966.78	226.84
967.08	226.75
967.37	226.77
967.67	226.66
967.96	226.67
968.26	226.69
968.55	226.68
968.85	226.70
969.14	226.70
969.43	226.70
969.73	226.67
970.02	226.60
970.32	226.61
970.61	226.58
970.91	226.45
971.20	226.38
971.49	226.31
971.79	226.38
972.08	226.06
972.38	226.13
972.67	226.10
972.96	226.14
973.26	226.08
973.55	226.24
973.85	226.26
974.14	226.26
974.43	226.32
974.73	226.25
975.02	226.20
975.31	226.19
975.61	226.12
975.90	226.09
976.19	226.11
976.49	226.12
976.78	226.23
977.07	226.17
977.37	226.15
977.66	226.30
977.95	226.15
978.24	226.15
978.54	226.29
978.83	226.32
979.12	226.25
979.42	226.24
979.71	226.15
980.00	226.11
980.29	226.12
980.59	226.03
980.88	226.21
981.17	226.30
981.46	226.26
981.76	226.31
982.05	226.43
982.34	226.47
982.63	226.47
982.93	226.46
983.22	226.60
983.51	226.69
983.80	226.72
984.09	226.87
984.39	226.84
984.68	226.79
984.97	226.81
985.26	226.78
985.55	226.90
985.85	226.79
986.14	226.92
986.43	227.01
986.72	226.92
987.01	226.72
987.30	226.70
987.59	226.68
987.89	226.68
988.18	226.53
988.47	226.49
988.76	226.43
989.05	226.35
989.34	226.27
989.63	226.35
989.92	226.25
990.22	226.16
990.51	226.15
990.80	226.02
991.09	226.07
991.38	226.23
991.67	226.16
991.96	226.14
992.25	226.17
992.54	226.02
992.83	226.09
993.12	226.10
993.41	226.12
993.70	226.39
993.99	226.55
994.28	226.67
994.58	226.77
994.87	226.76
995.16	226.81
995.45	226.84
995.74	226.66
996.03	226.79
996.32	226.87
996.61	226.95
996.90	227.01
997.19	226.91
997.48	226.94
997.77	226.85
998.06	226.81
998.34	226.76
998.63	226.82
998.92	226.81
999.21	226.90
999.50	226.88
999.79	226.68
1000.08	226.58
1000.37	226.47
1000.66	226.35
1000.95	226.43
1001.24	226.44
1001.53	226.42
1001.82	226.43
1002.11	226.29
1002.40	226.32
1002.68	226.45
1002.97	226.79
1003.26	226.75
1003.55	226.65
1003.84	226.72
1004.13	226.96
1004.42	226.85
1004.71	226.88
1004.99	226.77
1005.28	226.88
1005.57	226.85
1005.86	226.79
1006.15	226.73
1006.44	226.76
1006.72	226.80
1007.01	226.77
1007.30	226.80
1007.59	226.83
1007.88	226.79
1008.17	226.83
1008.45	226.74
1008.74	226.52
1009.03	226.26
1009.32	226.24
1009.60	226.24
1009.89	226.20
1010.18	225.91
1010.47	225.99
1010.76	225.94
1011.04	225.97
1011.33	225.99
1011.62	226.02
1011.91	225.99
1012.19	226.05
1012.48	226.03
1012.77	226.10
1013.05	226.23
1013.34	226.15
1013.63	226.07
1013.92	226.06
1014.20	226.00
1014.49	226.03
1014.78	226.04
1015.06	225.90
1015.35	225.91
1015.64	225.95
1015.92	226.10
1016.21	226.17
1016.50	226.16
1016.78	226.21
1017.07	226.26
1017.36	226.08
1017.64	226.00
1017.93	226.12
1018.22	226.02
1018.50	226.02
1018.79	225.90
1019.08	225.70
1019.36	225.79
1019.65	225.70
1019.93	225.89
1020.22	225.93
1020.51	226.17
1020.79	226.16
1021.08	224.70
1021.36	225.55
1021.65	224.85
1021.94	225.30
1022.22	226.70
1022.51	223.90
1022.79	228.75
1023.08	225.75
1023.36	232.20
1023.65	225.20
>>>>>End Processed Spectral Data<<<<<
