SpectraSuite Data File
++++++++++++++++++++++++++++++++++++
Date: Wed Sep 04 17:59:29 EDT 2013
User: lab3
Dark Spectrum Present: Yes
Reference Spectrum Present: No
Number of Sampled Component Spectra: 1
Spectrometers: USB2E7196
Integration Time (usec): 170000 (USB2E7196)
Spectra Averaged: 20 (USB2E7196)
Boxcar Smoothing: 10 (USB2E7196)
Correct for Electrical Dark: No (USB2E7196)
Strobe/Lamp Enabled: No (USB2E7196)
Correct for Detector Non-linearity: No (USB2E7196)
Correct for Stray Light: No (USB2E7196)
Number of Pixels in Processed Spectrum: 2048
>>>>>Begin Processed Spectral Data<<<<<
339.09	0.00
339.48	213.30
339.86	214.85
340.24	216.20
340.63	217.00
341.01	225.70
341.39	219.75
341.78	221.95
342.16	224.90
342.54	224.70
342.93	212.63
343.31	223.34
343.69	223.97
344.07	224.44
344.46	224.93
344.84	225.41
345.22	225.38
345.60	225.70
345.99	225.98
346.37	226.08
346.75	226.17
347.13	226.22
347.52	226.26
347.90	226.43
348.28	226.56
348.66	226.71
349.05	226.50
349.43	226.67
349.81	226.80
350.19	226.85
350.57	226.98
350.96	227.02
351.34	227.14
351.72	227.20
352.10	227.23
352.48	227.24
352.87	227.21
353.25	227.31
353.63	227.31
354.01	227.36
354.39	227.38
354.77	227.44
355.15	227.67
355.54	227.63
355.92	227.51
356.30	227.57
356.68	227.90
357.06	227.99
357.44	227.96
357.82	227.99
358.20	228.35
358.58	228.40
358.97	228.43
359.35	228.58
359.73	228.68
360.11	228.81
360.49	228.87
360.87	228.90
361.25	228.99
361.63	229.20
362.01	229.19
362.39	229.21
362.77	229.25
363.15	229.20
363.53	229.26
363.91	229.33
364.29	229.30
364.67	228.86
365.05	228.89
365.43	228.88
365.81	228.99
366.19	228.90
366.57	229.06
366.95	229.12
367.33	228.99
367.71	228.94
368.09	229.02
368.47	229.01
368.85	229.08
369.23	229.21
369.61	229.00
369.99	229.13
370.37	229.15
370.75	229.31
371.13	229.19
371.51	229.12
371.89	229.14
372.27	229.12
372.65	229.10
373.03	229.15
373.41	229.12
373.78	229.02
374.16	228.73
374.54	228.52
374.92	228.38
375.30	228.32
375.68	228.14
376.06	228.10
376.44	228.02
376.82	227.98
377.19	227.81
377.57	227.76
377.95	227.58
378.33	227.44
378.71	227.18
379.09	227.25
379.47	227.22
379.84	227.08
380.22	227.01
380.60	226.91
380.98	226.78
381.36	226.70
381.73	226.62
382.11	226.70
382.49	226.63
382.87	226.59
383.25	226.55
383.62	227.12
384.00	226.90
384.38	226.86
384.76	226.89
385.13	227.04
385.51	226.96
385.89	226.86
386.27	226.90
386.64	226.88
387.02	226.75
387.40	226.64
387.78	226.67
388.15	226.66
388.53	226.58
388.91	226.55
389.29	226.44
389.66	226.42
390.04	226.34
390.42	226.42
390.79	226.42
391.17	226.39
391.55	225.88
391.92	226.00
392.30	226.05
392.68	225.93
393.05	225.86
393.43	225.93
393.81	225.95
394.18	225.89
394.56	225.96
394.94	226.15
395.31	226.27
395.69	226.42
396.06	226.57
396.44	226.67
396.82	226.68
397.19	227.06
397.57	227.11
397.95	227.21
398.32	227.16
398.70	227.29
399.07	227.60
399.45	227.68
399.82	227.74
400.20	227.81
400.58	227.91
400.95	227.84
401.33	228.09
401.70	228.66
402.08	228.86
402.45	228.98
402.83	229.20
403.20	229.29
403.58	229.38
403.95	229.66
404.33	229.94
404.71	230.20
405.08	230.59
405.46	230.81
405.83	231.09
406.21	231.38
406.58	231.66
406.96	231.85
407.33	232.20
407.70	232.55
408.08	233.33
408.45	233.78
408.83	234.34
409.20	234.71
409.58	234.78
409.95	235.27
410.33	235.81
410.70	236.15
411.08	236.83
411.45	237.46
411.82	237.95
412.20	238.68
412.57	239.64
412.95	240.01
413.32	240.96
413.69	241.78
414.07	242.66
414.44	243.56
414.82	244.53
415.19	245.71
415.56	246.95
415.94	247.93
416.31	249.40
416.68	250.83
417.06	252.37
417.43	253.97
417.81	255.80
418.18	257.71
418.55	259.65
418.93	261.68
419.30	263.78
419.67	266.06
420.04	268.31
420.42	270.60
420.79	273.70
421.16	276.46
421.54	279.43
421.91	282.49
422.28	285.69
422.66	288.98
423.03	292.45
423.40	295.75
423.77	299.30
424.15	302.89
424.52	306.71
424.89	311.01
425.26	315.01
425.64	318.86
426.01	322.93
426.38	327.30
426.75	331.76
427.13	336.33
427.50	341.14
427.87	346.05
428.24	351.04
428.61	355.55
428.99	360.95
429.36	366.63
429.73	372.14
430.10	377.72
430.47	383.38
430.85	389.01
431.22	395.28
431.59	402.15
431.96	408.45
432.33	415.44
432.70	422.05
433.08	429.99
433.45	437.40
433.82	444.87
434.19	453.10
434.56	461.24
434.93	468.88
435.30	476.66
435.68	485.43
436.05	494.07
436.42	502.46
436.79	510.01
437.16	518.26
437.53	527.01
437.90	535.73
438.27	544.38
438.64	553.42
439.01	561.79
439.38	568.95
439.75	576.20
440.13	584.17
440.50	591.72
440.87	597.76
441.24	604.13
441.61	611.09
441.98	616.32
442.35	622.16
442.72	628.36
443.09	634.18
443.46	637.50
443.83	639.64
444.20	641.64
444.57	644.48
444.94	645.64
445.31	646.81
445.68	648.08
446.05	648.43
446.42	647.07
446.79	645.56
447.16	644.06
447.53	642.70
447.90	639.00
448.27	635.33
448.64	630.51
449.01	626.78
449.37	620.63
449.74	614.48
450.11	607.49
450.48	599.53
450.85	591.49
451.22	584.72
451.59	578.01
451.96	571.59
452.33	563.43
452.70	556.05
453.07	547.37
453.43	538.17
453.80	529.55
454.17	521.40
454.54	513.67
454.91	505.35
455.28	497.23
455.65	489.69
456.02	482.81
456.38	476.42
456.75	468.68
457.12	462.12
457.49	455.85
457.86	449.60
458.23	444.56
458.59	438.85
458.96	432.93
459.33	427.85
459.70	422.83
460.07	418.68
460.43	413.95
460.80	409.60
461.17	406.03
461.54	402.02
461.91	398.21
462.27	394.34
462.64	391.00
463.01	387.42
463.38	384.15
463.74	380.14
464.11	377.08
464.48	374.34
464.85	371.41
465.21	369.24
465.58	366.93
465.95	364.08
466.32	361.78
466.68	359.58
467.05	357.35
467.42	355.05
467.78	352.70
468.15	350.45
468.52	348.83
468.88	346.49
469.25	344.53
469.62	343.09
469.98	341.42
470.35	339.89
470.72	338.44
471.08	336.77
471.45	335.51
471.82	334.20
472.18	332.80
472.55	331.76
472.92	330.27
473.28	329.19
473.65	328.06
474.02	327.08
474.38	326.19
474.75	325.44
475.11	324.58
475.48	323.89
475.85	323.39
476.21	322.81
476.58	322.34
476.94	321.99
477.31	321.50
477.67	321.08
478.04	320.71
478.41	320.49
478.77	320.76
479.14	320.51
479.50	320.45
479.87	320.48
480.23	320.55
480.60	320.57
480.96	320.51
481.33	320.91
481.69	321.05
482.06	321.31
482.42	321.56
482.79	321.85
483.15	322.37
483.52	322.95
483.88	323.39
484.25	323.84
484.61	324.46
484.98	325.10
485.34	326.12
485.71	327.10
486.07	328.02
486.44	328.65
486.80	329.67
487.17	330.65
487.53	331.95
487.90	333.40
488.26	335.09
488.62	336.85
488.99	338.37
489.35	340.14
489.72	342.02
490.08	343.94
490.44	346.12
490.81	348.35
491.17	350.63
491.54	353.16
491.90	355.92
492.26	358.68
492.63	361.47
492.99	364.17
493.36	367.25
493.72	370.71
494.08	374.19
494.45	377.91
494.81	381.97
495.17	385.99
495.54	390.12
495.90	394.42
496.26	398.80
496.63	403.38
496.99	408.16
497.35	413.27
497.72	418.70
498.08	424.14
498.44	429.88
498.80	435.93
499.17	441.94
499.53	448.13
499.89	454.79
500.26	461.77
500.62	468.90
500.98	476.44
501.34	483.93
501.71	491.50
502.07	499.45
502.43	507.52
502.79	515.92
503.16	524.72
503.52	533.79
503.88	543.07
504.24	552.93
504.60	562.95
504.97	573.19
505.33	583.64
505.69	594.69
506.05	605.64
506.41	616.83
506.78	628.50
507.14	640.64
507.50	653.00
507.86	665.67
508.22	678.71
508.59	691.61
508.95	705.22
509.31	719.54
509.67	733.80
510.03	748.16
510.39	762.85
510.75	777.96
511.12	792.96
511.48	808.75
511.84	824.52
512.20	840.49
512.56	856.79
512.92	873.57
513.28	890.60
513.64	908.08
514.00	925.59
514.37	943.46
514.73	961.47
515.09	979.56
515.45	998.10
515.81	1016.79
516.17	1035.81
516.53	1054.54
516.89	1073.22
517.25	1092.62
517.61	1113.12
517.97	1133.46
518.33	1153.50
518.69	1174.21
519.05	1194.68
519.41	1215.32
519.77	1236.44
520.13	1257.42
520.49	1278.05
520.85	1300.25
521.21	1321.27
521.57	1342.63
521.93	1363.67
522.29	1384.93
522.65	1405.82
523.01	1426.50
523.37	1446.92
523.73	1467.77
524.09	1488.23
524.45	1509.13
524.81	1530.16
525.17	1550.65
525.53	1571.16
525.89	1592.17
526.25	1613.03
526.61	1633.50
526.97	1654.76
527.33	1676.13
527.68	1697.96
528.04	1719.54
528.40	1739.19
528.76	1760.33
529.12	1780.96
529.48	1801.93
529.84	1822.22
530.20	1843.50
530.56	1864.55
530.91	1885.86
531.27	1906.71
531.63	1927.67
531.99	1948.49
532.35	1968.80
532.71	1989.27
533.07	2010.48
533.42	2030.27
533.78	2050.30
534.14	2070.33
534.50	2089.39
534.86	2108.81
535.21	2126.30
535.57	2144.83
535.93	2162.67
536.29	2180.66
536.65	2198.54
537.00	2216.23
537.36	2233.90
537.72	2250.50
538.08	2267.85
538.44	2284.58
538.79	2301.07
539.15	2317.85
539.51	2333.96
539.87	2349.00
540.22	2362.83
540.58	2376.81
540.94	2390.50
541.29	2403.29
541.65	2415.98
542.01	2428.69
542.37	2439.31
542.72	2450.67
543.08	2461.35
543.44	2473.39
543.79	2483.44
544.15	2493.82
544.51	2503.80
544.87	2513.60
545.22	2522.54
545.58	2530.24
545.94	2537.20
546.29	2543.68
546.65	2549.93
547.01	2555.44
547.36	2561.26
547.72	2566.76
548.07	2570.94
548.43	2576.30
548.79	2580.99
549.14	2585.22
549.50	2589.01
549.86	2592.91
550.21	2596.78
550.57	2600.15
550.92	2601.32
551.28	2603.02
551.64	2605.45
551.99	2607.35
552.35	2609.28
552.70	2611.42
553.06	2613.00
553.41	2614.59
553.77	2616.27
554.13	2617.99
554.48	2619.32
554.84	2620.84
555.19	2622.36
555.55	2623.98
555.90	2623.11
556.26	2622.18
556.61	2620.57
556.97	2618.55
557.32	2618.30
557.68	2617.26
558.03	2615.90
558.39	2614.80
558.74	2613.72
559.10	2610.34
559.45	2606.96
559.81	2602.10
560.16	2596.83
560.52	2591.87
560.87	2587.60
561.23	2582.24
561.58	2576.25
561.94	2569.54
562.29	2561.98
562.64	2555.15
563.00	2546.90
563.35	2540.52
563.71	2534.04
564.06	2527.95
564.42	2521.52
564.77	2514.49
565.12	2506.63
565.48	2498.86
565.83	2491.00
566.19	2483.11
566.54	2475.31
566.89	2466.99
567.25	2459.50
567.60	2452.47
567.96	2445.32
568.31	2437.45
568.66	2429.15
569.02	2420.14
569.37	2412.24
569.72	2404.90
570.08	2395.49
570.43	2386.29
570.78	2377.20
571.14	2367.43
571.49	2357.25
571.84	2347.65
572.20	2336.29
572.55	2326.26
572.90	2315.50
573.26	2305.18
573.61	2293.70
573.96	2282.55
574.31	2270.67
574.67	2258.90
575.02	2246.10
575.37	2233.20
575.72	2219.54
576.08	2207.26
576.43	2194.71
576.78	2181.38
577.13	2167.40
577.49	2154.56
577.84	2142.69
578.19	2130.34
578.54	2117.76
578.90	2105.45
579.25	2092.65
579.60	2080.60
579.95	2067.52
580.30	2054.49
580.66	2040.98
581.01	2027.62
581.36	2013.70
581.71	2000.91
582.06	1987.73
582.42	1975.03
582.77	1962.39
583.12	1950.79
583.47	1938.05
583.82	1925.97
584.17	1913.78
584.53	1901.67
584.88	1888.71
585.23	1875.37
585.58	1860.96
585.93	1847.88
586.28	1834.57
586.63	1820.80
586.98	1806.37
587.34	1793.00
587.69	1779.70
588.04	1766.97
588.39	1754.79
588.74	1742.50
589.09	1730.76
589.44	1717.89
589.79	1705.66
590.14	1693.51
590.49	1680.93
590.84	1669.13
591.19	1656.97
591.54	1644.71
591.89	1632.59
592.25	1622.31
592.60	1610.72
592.95	1599.61
593.30	1587.81
593.65	1575.86
594.00	1563.74
594.35	1553.81
594.70	1542.03
595.05	1530.28
595.40	1518.08
595.75	1505.99
596.10	1494.56
596.45	1482.58
596.80	1471.58
597.15	1460.08
597.50	1448.22
597.85	1437.02
598.19	1425.11
598.54	1413.38
598.89	1402.01
599.24	1391.46
599.59	1379.50
599.94	1368.65
600.29	1357.95
600.64	1347.34
600.99	1336.65
601.34	1327.15
601.69	1316.01
602.04	1306.12
602.39	1296.37
602.74	1287.44
603.08	1278.01
603.43	1268.66
603.78	1258.77
604.13	1249.30
604.48	1239.79
604.83	1230.15
605.18	1220.08
605.53	1210.71
605.87	1201.64
606.22	1193.03
606.57	1183.63
606.92	1174.17
607.27	1165.21
607.62	1156.61
607.96	1147.98
608.31	1139.86
608.66	1131.18
609.01	1122.35
609.36	1113.66
609.70	1105.00
610.05	1095.95
610.40	1087.30
610.75	1078.47
611.10	1070.37
611.44	1061.59
611.79	1053.12
612.14	1045.29
612.49	1037.27
612.83	1029.49
613.18	1021.54
613.53	1013.68
613.88	1005.63
614.22	998.05
614.57	989.88
614.92	981.77
615.27	974.25
615.61	966.48
615.96	958.82
616.31	951.47
616.65	944.56
617.00	937.20
617.35	929.90
617.70	922.83
618.04	915.72
618.39	908.50
618.74	902.04
619.08	895.25
619.43	888.06
619.78	881.11
620.12	874.06
620.47	867.23
620.82	860.08
621.16	853.22
621.51	846.78
621.85	840.40
622.20	833.81
622.55	827.00
622.89	820.49
623.24	814.25
623.59	807.76
623.93	801.15
624.28	795.13
624.62	789.54
624.97	783.68
625.32	777.76
625.66	771.76
626.01	765.67
626.35	760.05
626.70	754.39
627.04	749.25
627.39	743.45
627.73	737.94
628.08	732.76
628.43	727.38
628.77	721.91
629.12	716.75
629.46	711.80
629.81	707.04
630.15	702.26
630.50	697.35
630.84	692.35
631.19	687.62
631.53	682.87
631.88	677.42
632.22	672.67
632.57	668.31
632.91	663.75
633.26	659.35
633.60	654.52
633.95	650.00
634.29	645.08
634.64	640.72
634.98	636.03
635.32	631.65
635.67	627.57
636.01	623.43
636.36	618.95
636.70	615.07
637.05	610.81
637.39	606.68
637.73	602.48
638.08	598.61
638.42	594.36
638.77	590.03
639.11	585.85
639.45	581.23
639.80	576.61
640.14	572.60
640.49	568.48
640.83	564.71
641.17	560.90
641.52	557.24
641.86	553.77
642.20	550.45
642.55	546.78
642.89	543.11
643.23	539.46
643.58	536.30
643.92	532.36
644.26	528.95
644.61	525.63
644.95	522.20
645.29	518.77
645.64	515.45
645.98	512.30
646.32	509.38
646.66	506.50
647.01	503.65
647.35	500.68
647.69	497.70
648.04	494.74
648.38	491.95
648.72	489.00
649.06	485.79
649.41	482.72
649.75	479.61
650.09	476.71
650.43	473.86
650.78	470.93
651.12	468.20
651.46	465.35
651.80	462.56
652.14	459.92
652.49	457.36
652.83	454.79
653.17	452.19
653.51	449.35
653.85	446.84
654.20	444.27
654.54	441.67
654.88	439.10
655.22	436.90
655.56	434.45
655.90	432.07
656.25	429.89
656.59	427.71
656.93	425.59
657.27	423.60
657.61	421.17
657.95	418.85
658.29	416.71
658.64	414.67
658.98	412.36
659.32	409.98
659.66	407.74
660.00	405.73
660.34	403.68
660.68	401.73
661.02	399.66
661.36	397.78
661.70	395.74
662.05	393.91
662.39	391.95
662.73	390.06
663.07	388.38
663.41	386.56
663.75	384.62
664.09	382.71
664.43	380.67
664.77	379.08
665.11	377.39
665.45	375.66
665.79	373.89
666.13	372.24
666.47	370.72
666.81	369.03
667.15	367.25
667.49	365.77
667.83	364.47
668.17	362.95
668.51	361.44
668.85	360.09
669.19	358.93
669.53	357.33
669.87	355.91
670.21	354.32
670.55	352.77
670.89	351.70
671.23	350.43
671.57	349.07
671.91	347.69
672.25	346.32
672.58	345.17
672.92	343.86
673.26	342.63
673.60	341.50
673.94	340.37
674.28	339.21
674.62	338.05
674.96	336.68
675.30	335.61
675.64	334.45
675.97	333.28
676.31	331.83
676.65	330.69
676.99	329.73
677.33	328.58
677.67	327.61
678.01	326.15
678.34	325.05
678.68	324.16
679.02	323.06
679.36	322.11
679.70	321.04
680.04	320.10
680.37	319.05
680.71	317.89
681.05	317.01
681.39	316.18
681.73	315.21
682.06	314.24
682.40	313.28
682.74	312.41
683.08	311.68
683.42	310.82
683.75	310.04
684.09	308.98
684.43	308.14
684.77	307.22
685.10	306.50
685.44	305.74
685.78	304.80
686.12	304.04
686.45	303.17
686.79	302.36
687.13	301.70
687.46	301.04
687.80	300.50
688.14	299.63
688.48	298.85
688.81	298.14
689.15	297.59
689.49	296.79
689.82	296.08
690.16	295.16
690.50	294.44
690.83	293.72
691.17	292.99
691.51	292.32
691.84	291.76
692.18	291.10
692.52	290.31
692.85	289.77
693.19	289.36
693.52	288.65
693.86	287.97
694.20	287.21
694.53	286.58
694.87	285.79
695.21	285.20
695.54	284.63
695.88	284.00
696.21	283.18
696.55	282.62
696.88	281.99
697.22	281.40
697.56	280.87
697.89	280.23
698.23	279.72
698.56	279.15
698.90	278.60
699.23	277.98
699.57	277.49
699.90	276.80
700.24	276.12
700.58	275.80
700.91	275.39
701.25	275.27
701.58	275.14
701.92	274.75
702.25	274.31
702.59	273.81
702.92	273.35
703.26	273.03
703.59	272.63
703.93	272.66
704.26	272.25
704.60	271.88
704.93	271.45
705.26	270.87
705.60	270.54
705.93	270.04
706.27	269.77
706.60	269.46
706.94	269.37
707.27	268.94
707.61	268.56
707.94	268.17
708.27	267.33
708.61	266.56
708.94	266.19
709.28	265.80
709.61	265.36
709.94	264.99
710.28	264.53
710.61	264.20
710.95	263.35
711.28	263.38
711.61	262.92
711.95	262.65
712.28	262.35
712.61	261.96
712.95	261.77
713.28	261.60
713.61	261.27
713.95	260.69
714.28	260.34
714.61	259.95
714.95	259.48
715.28	259.17
715.61	258.75
715.95	258.47
716.28	258.03
716.61	257.79
716.95	257.43
717.28	257.16
717.61	256.75
717.94	256.40
718.28	255.65
718.61	255.43
718.94	255.01
719.27	254.68
719.61	254.45
719.94	254.23
720.27	253.75
720.60	253.43
720.94	253.20
721.27	253.02
721.60	252.84
721.93	252.67
722.27	252.57
722.60	252.40
722.93	252.01
723.26	251.90
723.59	251.58
723.93	251.44
724.26	251.26
724.59	251.03
724.92	250.93
725.25	250.91
725.59	250.65
725.92	250.56
726.25	250.42
726.58	250.22
726.91	249.89
727.24	249.74
727.57	249.44
727.91	249.18
728.24	248.92
728.57	248.61
728.90	248.44
729.23	248.20
729.56	248.18
729.89	248.09
730.22	247.90
730.55	247.72
730.89	247.51
731.22	247.24
731.55	247.07
731.88	246.86
732.21	246.60
732.54	246.37
732.87	246.25
733.20	246.15
733.53	246.02
733.86	245.92
734.19	245.71
734.52	245.73
734.85	245.87
735.18	245.70
735.51	245.72
735.84	245.56
736.17	245.50
736.50	245.15
736.83	245.50
737.16	245.38
737.49	245.29
737.82	245.15
738.15	245.15
738.48	244.99
738.81	244.81
739.14	244.66
739.47	244.49
739.80	244.26
740.13	244.10
740.46	243.95
740.79	243.71
741.12	243.57
741.45	243.34
741.78	242.92
742.11	242.95
742.44	242.69
742.77	242.70
743.10	242.48
743.43	242.35
743.75	241.73
744.08	242.21
744.41	241.99
744.74	241.79
745.07	241.48
745.40	241.45
745.73	241.55
746.06	241.39
746.39	241.40
746.71	241.31
747.04	241.12
747.37	240.97
747.70	240.92
748.03	240.83
748.36	240.82
748.68	240.72
749.01	240.45
749.34	240.33
749.67	240.17
750.00	240.19
750.33	240.41
750.65	240.37
750.98	239.71
751.31	239.65
751.64	239.60
751.97	239.87
752.29	239.77
752.62	239.45
752.95	239.31
753.28	239.08
753.60	238.94
753.93	239.00
754.26	238.97
754.59	238.77
754.91	238.58
755.24	238.39
755.57	238.33
755.90	238.23
756.22	238.15
756.55	238.03
756.88	237.77
757.20	237.31
757.53	237.01
757.86	236.84
758.19	236.78
758.51	236.65
758.84	236.26
759.17	236.13
759.49	236.06
759.82	236.29
760.15	236.30
760.47	236.20
760.80	236.03
761.13	235.93
761.45	235.86
761.78	235.81
762.11	235.75
762.43	235.60
762.76	235.55
763.08	235.49
763.41	235.41
763.74	235.33
764.06	235.33
764.39	235.27
764.71	235.14
765.04	235.04
765.37	234.89
765.69	234.83
766.02	234.67
766.34	234.58
766.67	234.24
767.00	234.23
767.32	234.40
767.65	234.64
767.97	234.55
768.30	234.44
768.62	234.38
768.95	234.25
769.27	234.19
769.60	234.22
769.92	234.03
770.25	233.80
770.57	233.68
770.90	233.54
771.22	233.48
771.55	233.51
771.87	233.49
772.20	233.47
772.52	233.77
772.85	234.34
773.17	234.26
773.50	234.24
773.82	234.07
774.15	233.79
774.47	233.30
774.80	233.17
775.12	233.15
775.45	233.08
775.77	233.10
776.09	233.00
776.42	232.88
776.74	233.04
777.07	233.01
777.39	233.04
777.72	233.00
778.04	233.00
778.36	232.78
778.69	232.71
779.01	232.74
779.33	232.24
779.66	231.65
779.98	231.63
780.31	231.58
780.63	231.79
780.95	231.84
781.28	231.82
781.60	231.74
781.92	231.62
782.25	231.58
782.57	231.58
782.89	231.60
783.22	231.58
783.54	231.43
783.86	231.45
784.19	231.35
784.51	231.45
784.83	231.41
785.16	231.39
785.48	231.34
785.80	231.24
786.12	231.32
786.45	231.25
786.77	231.21
787.09	231.13
787.42	230.92
787.74	230.90
788.06	230.89
788.38	230.89
788.71	230.87
789.03	230.89
789.35	230.84
789.67	230.75
789.99	230.69
790.32	230.62
790.64	230.60
790.96	231.05
791.28	230.89
791.61	230.78
791.93	230.79
792.25	230.75
792.57	231.08
792.89	230.91
793.21	230.90
793.54	230.81
793.86	230.73
794.18	230.63
794.50	230.48
794.82	230.52
795.14	230.49
795.47	230.56
795.79	230.48
796.11	230.37
796.43	230.33
796.75	230.34
797.07	230.38
797.39	230.41
797.71	229.94
798.04	229.95
798.36	230.03
798.68	229.99
799.00	230.02
799.32	229.79
799.64	229.88
799.96	229.93
800.28	230.00
800.60	229.98
800.92	230.08
801.24	230.04
801.56	230.04
801.89	230.07
802.21	230.10
802.53	230.02
802.85	230.15
803.17	230.37
803.49	230.31
803.81	230.23
804.13	230.13
804.45	230.12
804.77	230.14
805.09	230.02
805.41	230.02
805.73	229.90
806.05	229.76
806.37	229.73
806.69	229.68
807.01	229.63
807.33	229.69
807.65	229.45
807.97	229.65
808.28	229.56
808.60	229.50
808.92	229.40
809.24	229.79
809.56	229.67
809.88	229.47
810.20	229.39
810.52	229.45
810.84	229.36
811.16	229.29
811.48	229.20
811.80	229.40
812.12	229.35
812.43	229.35
812.75	229.38
813.07	229.34
813.39	229.31
813.71	229.17
814.03	229.09
814.35	229.14
814.67	228.85
814.98	228.80
815.30	228.79
815.62	228.70
815.94	228.31
816.26	228.50
816.58	228.34
816.89	228.40
817.21	228.28
817.53	228.31
817.85	228.41
818.17	228.43
818.48	228.22
818.80	228.33
819.12	228.41
819.44	228.35
819.76	228.22
820.07	228.25
820.39	228.32
820.71	228.35
821.03	228.34
821.34	228.35
821.66	228.38
821.98	228.36
822.30	228.40
822.61	228.69
822.93	228.42
823.25	228.48
823.57	228.41
823.88	228.49
824.20	228.51
824.52	228.55
824.83	228.47
825.15	228.48
825.47	228.40
825.79	228.39
826.10	228.42
826.42	228.45
826.74	228.42
827.05	228.42
827.37	228.37
827.69	228.39
828.00	228.43
828.32	228.42
828.64	228.37
828.95	228.61
829.27	228.39
829.58	228.40
829.90	228.47
830.22	228.44
830.53	228.36
830.85	228.28
831.17	228.13
831.48	228.14
831.80	228.15
832.11	228.17
832.43	228.09
832.75	227.98
833.06	228.33
833.38	228.25
833.69	228.18
834.01	228.24
834.32	228.19
834.64	228.20
834.96	228.22
835.27	228.22
835.59	227.99
835.90	227.96
836.22	227.98
836.53	227.90
836.85	227.92
837.16	228.36
837.48	228.35
837.79	228.44
838.11	228.51
838.42	228.49
838.74	228.51
839.05	228.47
839.37	228.46
839.68	228.03
840.00	228.03
840.31	228.13
840.63	228.11
840.94	228.06
841.26	227.99
841.57	227.98
841.88	228.01
842.20	228.04
842.51	227.96
842.83	227.96
843.14	228.30
843.46	228.29
843.77	227.99
844.08	227.93
844.40	227.81
844.71	227.70
845.03	227.62
845.34	227.53
845.65	227.53
845.97	227.55
846.28	227.59
846.60	227.55
846.91	227.42
847.22	227.33
847.54	227.48
847.85	227.49
848.16	227.47
848.48	227.35
848.79	227.44
849.10	227.52
849.42	227.44
849.73	227.05
850.04	227.07
850.36	226.95
850.67	227.13
850.98	227.11
851.30	227.18
851.61	227.24
851.92	227.26
852.23	227.38
852.55	227.43
852.86	227.49
853.17	227.55
853.49	227.64
853.80	227.72
854.11	227.70
854.42	227.69
854.74	227.59
855.05	227.61
855.36	227.36
855.67	227.33
855.99	227.33
856.30	227.90
856.61	227.82
856.92	227.84
857.23	227.83
857.55	227.84
857.86	227.80
858.17	227.78
858.48	227.68
858.79	227.58
859.11	227.61
859.42	227.60
859.73	227.53
860.04	227.51
860.35	227.44
860.66	227.34
860.98	227.37
861.29	227.45
861.60	227.43
861.91	227.57
862.22	227.49
862.53	227.45
862.84	226.87
863.16	227.03
863.47	226.92
863.78	226.86
864.09	226.83
864.40	226.89
864.71	226.88
865.02	226.96
865.33	226.93
865.64	226.79
865.95	226.80
866.27	227.13
866.58	227.10
866.89	227.15
867.20	227.09
867.51	227.02
867.82	227.00
868.13	227.18
868.44	227.14
868.75	227.27
869.06	227.32
869.37	227.43
869.68	227.32
869.99	227.36
870.30	227.32
870.61	227.48
870.92	227.44
871.23	227.45
871.54	227.55
871.85	227.63
872.16	227.71
872.47	227.72
872.78	227.43
873.09	227.52
873.40	227.48
873.71	227.58
874.02	227.59
874.33	227.56
874.64	227.45
874.95	227.52
875.26	227.44
875.56	227.45
875.87	227.41
876.18	227.32
876.49	227.92
876.80	227.92
877.11	227.78
877.42	227.77
877.73	227.77
878.04	227.62
878.35	227.61
878.66	227.62
878.96	227.55
879.27	227.58
879.58	227.55
879.89	227.59
880.20	227.72
880.51	227.69
880.82	227.65
881.12	227.61
881.43	227.42
881.74	227.35
882.05	227.34
882.36	227.35
882.67	227.37
882.97	226.77
883.28	226.68
883.59	226.73
883.90	226.73
884.21	226.75
884.51	226.79
884.82	226.77
885.13	226.70
885.44	226.67
885.74	226.59
886.05	226.54
886.36	226.45
886.67	226.22
886.98	226.45
887.28	226.51
887.59	226.47
887.90	226.50
888.20	226.48
888.51	226.48
888.82	226.41
889.13	226.49
889.43	226.84
889.74	226.89
890.05	226.75
890.35	226.71
890.66	226.63
890.97	226.52
891.28	226.40
891.58	226.45
891.89	226.46
892.20	226.45
892.50	226.36
892.81	226.30
893.12	226.33
893.42	226.14
893.73	226.18
894.04	226.21
894.34	226.24
894.65	226.25
894.95	226.20
895.26	226.23
895.57	226.35
895.87	225.91
896.18	225.94
896.48	225.94
896.79	225.90
897.10	225.99
897.40	226.03
897.71	226.16
898.01	226.04
898.32	226.08
898.63	226.05
898.93	226.02
899.24	226.11
899.54	226.13
899.85	226.06
900.15	226.02
900.46	226.09
900.76	226.11
901.07	226.15
901.38	226.16
901.68	226.21
901.99	226.05
902.29	226.11
902.60	226.07
902.90	226.13
903.21	226.19
903.51	226.20
903.82	226.23
904.12	226.18
904.43	226.25
904.73	226.31
905.03	226.45
905.34	226.97
905.64	226.91
905.95	226.96
906.25	226.96
906.56	226.99
906.86	227.01
907.17	227.03
907.47	227.05
907.77	227.01
908.08	226.94
908.38	227.04
908.69	227.10
908.99	227.31
909.30	227.35
909.60	227.32
909.90	227.31
910.21	227.34
910.51	227.30
910.81	227.45
911.12	227.46
911.42	227.40
911.73	226.93
912.03	227.02
912.33	227.06
912.64	227.09
912.94	227.04
913.24	226.95
913.55	226.96
913.85	226.95
914.15	227.15
914.46	227.25
914.76	227.17
915.06	227.16
915.37	226.97
915.67	226.93
915.97	226.99
916.27	226.87
916.58	226.88
916.88	226.96
917.18	226.80
917.49	227.10
917.79	227.05
918.09	227.15
918.39	227.23
918.70	227.19
919.00	227.20
919.30	227.41
919.60	227.36
919.91	227.27
920.21	227.29
920.51	227.16
920.81	227.09
921.12	227.15
921.42	227.07
921.72	227.16
922.02	227.18
922.32	227.21
922.63	227.25
922.93	227.40
923.23	227.35
923.53	227.29
923.83	226.95
924.13	227.03
924.44	227.00
924.74	227.05
925.04	227.15
925.34	227.08
925.64	226.90
925.94	226.86
926.24	227.16
926.55	227.05
926.85	227.07
927.15	227.02
927.45	226.99
927.75	227.01
928.05	227.00
928.35	226.97
928.65	227.01
928.95	227.02
929.26	226.86
929.56	226.91
929.86	226.96
930.16	226.89
930.46	226.80
930.76	226.82
931.06	226.60
931.36	226.41
931.66	226.44
931.96	226.49
932.26	226.60
932.56	226.34
932.86	226.37
933.16	226.36
933.46	226.34
933.76	226.22
934.06	226.33
934.36	226.47
934.66	226.49
934.96	226.34
935.26	226.35
935.56	226.41
935.86	226.34
936.16	226.30
936.46	226.25
936.76	226.26
937.06	226.17
937.36	226.15
937.66	226.27
937.96	226.32
938.26	226.19
938.56	226.15
938.86	226.14
939.16	226.24
939.46	226.29
939.76	226.30
940.06	226.33
940.35	226.24
940.65	225.98
940.95	225.97
941.25	225.96
941.55	225.99
941.85	225.92
942.15	226.04
942.45	226.15
942.75	226.17
943.04	226.23
943.34	226.32
943.64	226.32
943.94	226.18
944.24	226.20
944.54	226.25
944.84	226.18
945.13	226.24
945.43	226.17
945.73	226.12
946.03	226.16
946.33	226.15
946.62	226.07
946.92	226.08
947.22	226.12
947.52	226.17
947.82	226.22
948.11	226.24
948.41	226.15
948.71	226.03
949.01	226.11
949.31	226.07
949.60	226.03
949.90	226.13
950.20	226.17
950.50	226.15
950.79	226.13
951.09	226.30
951.39	226.29
951.69	226.29
951.98	226.49
952.28	226.50
952.58	226.59
952.87	226.60
953.17	226.70
953.47	226.66
953.76	226.64
954.06	226.56
954.36	226.48
954.66	226.42
954.95	226.58
955.25	226.61
955.55	226.65
955.84	226.63
956.14	226.65
956.44	226.66
956.73	226.67
957.03	226.73
957.32	226.64
957.62	226.62
957.92	226.77
958.21	226.61
958.51	227.11
958.81	227.08
959.10	227.20
959.40	227.31
959.69	227.36
959.99	227.46
960.29	227.41
960.58	227.37
960.88	227.64
961.17	227.57
961.47	227.61
961.76	227.55
962.06	227.64
962.36	227.64
962.65	227.65
962.95	227.71
963.24	227.63
963.54	227.71
963.83	227.71
964.13	227.61
964.42	227.51
964.72	227.20
965.01	227.18
965.31	227.14
965.60	226.99
965.90	227.25
966.19	227.13
966.49	227.25
966.78	227.27
967.08	227.13
967.37	227.16
967.67	227.10
967.96	227.17
968.26	227.12
968.55	227.12
968.85	227.06
969.14	226.96
969.43	226.97
969.73	226.90
970.02	226.88
970.32	226.80
970.61	226.77
970.91	226.60
971.20	226.52
971.49	226.42
971.79	226.50
972.08	226.20
972.38	226.32
972.67	226.20
972.96	226.29
973.26	226.26
973.55	226.36
973.85	226.30
974.14	226.30
974.43	226.28
974.73	226.15
975.02	226.21
975.31	226.15
975.61	226.11
975.90	225.96
976.19	225.86
976.49	225.93
976.78	226.00
977.07	225.95
977.37	225.97
977.66	226.03
977.95	225.92
978.24	225.95
978.54	225.92
978.83	225.89
979.12	225.82
979.42	225.71
979.71	225.59
980.00	225.58
980.29	225.57
980.59	225.50
980.88	225.64
981.17	225.55
981.46	225.56
981.76	225.61
982.05	225.81
982.34	225.86
982.63	225.85
982.93	225.78
983.22	225.93
983.51	225.92
983.80	225.94
984.09	226.00
984.39	226.02
984.68	225.99
984.97	226.00
985.26	225.98
985.55	226.09
985.85	225.99
986.14	226.11
986.43	226.19
986.72	226.15
987.01	226.05
987.30	226.10
987.59	226.03
987.89	226.08
988.18	225.94
988.47	225.90
988.76	225.88
989.05	225.93
989.34	225.81
989.63	225.96
989.92	225.93
990.22	225.86
990.51	225.72
990.80	225.78
991.09	225.91
991.38	226.00
991.67	225.94
991.96	225.92
992.25	225.87
992.54	225.76
992.83	225.80
993.12	225.79
993.41	225.90
993.70	226.24
993.99	226.30
994.28	226.44
994.58	226.58
994.87	226.57
995.16	226.56
995.45	226.54
995.74	226.38
996.03	226.48
996.32	226.60
996.61	226.83
996.90	226.73
997.19	226.74
997.48	226.76
997.77	226.75
998.06	226.80
998.34	226.79
998.63	226.84
998.92	226.87
999.21	226.99
999.50	227.02
999.79	226.85
1000.08	226.89
1000.37	226.89
1000.66	226.89
1000.95	226.98
1001.24	227.03
1001.53	227.16
1001.82	227.18
1002.11	227.08
1002.40	227.12
1002.68	227.13
1002.97	227.52
1003.26	227.43
1003.55	227.30
1003.84	227.36
1004.13	227.51
1004.42	227.48
1004.71	227.48
1004.99	227.47
1005.28	227.52
1005.57	227.43
1005.86	227.33
1006.15	227.20
1006.44	227.25
1006.72	227.21
1007.01	227.13
1007.30	227.07
1007.59	226.97
1007.88	227.00
1008.17	227.10
1008.45	227.00
1008.74	226.81
1009.03	226.50
1009.32	226.51
1009.60	226.52
1009.89	226.46
1010.18	226.25
1010.47	226.23
1010.76	226.20
1011.04	226.25
1011.33	226.24
1011.62	226.34
1011.91	226.41
1012.19	226.41
1012.48	226.30
1012.77	226.29
1013.05	226.48
1013.34	226.50
1013.63	226.43
1013.92	226.45
1014.20	226.31
1014.49	226.31
1014.78	226.43
1015.06	226.26
1015.35	226.20
1015.64	226.27
1015.92	226.34
1016.21	226.38
1016.50	226.38
1016.78	226.44
1017.07	226.40
1017.36	226.29
1017.64	226.17
1017.93	226.20
1018.22	226.09
1018.50	226.08
1018.79	226.04
1019.08	225.88
1019.36	225.84
1019.65	225.84
1019.93	225.92
1020.22	226.02
1020.51	226.21
1020.79	226.04
1021.08	223.85
1021.36	225.55
1021.65	225.40
1021.94	227.00
1022.22	224.95
1022.51	225.15
1022.79	227.60
1023.08	227.10
1023.36	230.85
1023.65	224.00
>>>>>End Processed Spectral Data<<<<<
