SpectraSuite Data File
++++++++++++++++++++++++++++++++++++
Date: Wed Sep 04 18:01:58 EDT 2013
User: lab3
Dark Spectrum Present: Yes
Reference Spectrum Present: No
Number of Sampled Component Spectra: 1
Spectrometers: USB2E7196
Integration Time (usec): 170000 (USB2E7196)
Spectra Averaged: 20 (USB2E7196)
Boxcar Smoothing: 10 (USB2E7196)
Correct for Electrical Dark: No (USB2E7196)
Strobe/Lamp Enabled: No (USB2E7196)
Correct for Detector Non-linearity: No (USB2E7196)
Correct for Stray Light: No (USB2E7196)
Number of Pixels in Processed Spectrum: 2048
>>>>>Begin Processed Spectral Data<<<<<
339.09	0.00
339.48	213.45
339.86	215.60
340.24	216.45
340.63	218.15
341.01	225.10
341.39	220.55
341.78	222.45
342.16	222.95
342.54	224.05
342.93	212.97
343.31	223.69
343.69	224.28
344.07	224.83
344.46	225.26
344.84	225.66
345.22	225.71
345.60	225.94
345.99	226.13
346.37	226.27
346.75	226.44
347.13	226.43
347.52	226.55
347.90	226.80
348.28	226.81
348.66	226.86
349.05	226.70
349.43	226.78
349.81	226.93
350.19	226.94
350.57	226.92
350.96	226.97
351.34	227.13
351.72	227.25
352.10	227.21
352.48	227.26
352.87	227.26
353.25	227.26
353.63	227.36
354.01	227.42
354.39	227.53
354.77	227.57
355.15	227.72
355.54	227.65
355.92	227.50
356.30	227.50
356.68	227.89
357.06	228.01
357.44	227.92
357.82	227.90
358.20	228.36
358.58	228.43
358.97	228.48
359.35	228.58
359.73	228.66
360.11	228.71
360.49	228.78
360.87	228.83
361.25	228.99
361.63	229.17
362.01	229.20
362.39	229.12
362.77	229.19
363.15	229.23
363.53	229.29
363.91	229.37
364.29	229.39
364.67	228.95
365.05	228.92
365.43	229.05
365.81	229.17
366.19	228.96
366.57	229.16
366.95	229.24
367.33	229.16
367.71	229.14
368.09	229.24
368.47	229.31
368.85	229.38
369.23	229.44
369.61	229.35
369.99	229.55
370.37	229.65
370.75	229.83
371.13	229.73
371.51	229.67
371.89	229.71
372.27	229.75
372.65	229.83
373.03	229.88
373.41	229.80
373.78	229.74
374.16	229.45
374.54	229.27
374.92	229.08
375.30	228.96
375.68	228.84
376.06	228.84
376.44	228.70
376.82	228.56
377.19	228.50
377.57	228.36
377.95	228.10
378.33	228.01
378.71	227.68
379.09	227.70
379.47	227.63
379.84	227.51
380.22	227.41
380.60	227.26
380.98	227.17
381.36	227.07
381.73	226.94
382.11	226.99
382.49	226.90
382.87	226.77
383.25	226.71
383.62	227.26
384.00	227.11
384.38	227.04
384.76	227.15
385.13	227.29
385.51	227.20
385.89	227.12
386.27	227.06
386.64	227.05
387.02	226.95
387.40	226.90
387.78	226.88
388.15	226.90
388.53	226.83
388.91	226.80
389.29	226.81
389.66	226.82
390.04	226.74
390.42	226.86
390.79	226.95
391.17	227.00
391.55	226.41
391.92	226.40
392.30	226.49
392.68	226.37
393.05	226.27
393.43	226.35
393.81	226.44
394.18	226.41
394.56	226.49
394.94	226.65
395.31	226.65
395.69	226.78
396.06	226.83
396.44	226.95
396.82	226.94
397.19	227.19
397.57	227.17
397.95	227.30
398.32	227.14
398.70	227.25
399.07	227.37
399.45	227.40
399.82	227.49
400.20	227.47
400.58	227.57
400.95	227.49
401.33	227.63
401.70	228.05
402.08	228.19
402.45	228.25
402.83	228.47
403.20	228.63
403.58	228.77
403.95	229.05
404.33	229.26
404.71	229.51
405.08	229.95
405.46	230.26
405.83	230.55
406.21	230.87
406.58	231.18
406.96	231.47
407.33	231.78
407.70	232.12
408.08	232.87
408.45	233.34
408.83	233.81
409.20	234.21
409.58	234.32
409.95	234.85
410.33	235.40
410.70	235.78
411.08	236.42
411.45	237.02
411.82	237.55
412.20	238.30
412.57	239.26
412.95	239.63
413.32	240.60
413.69	241.44
414.07	242.35
414.44	243.26
414.82	244.35
415.19	245.60
415.56	246.78
415.94	247.79
416.31	249.18
416.68	250.67
417.06	252.31
417.43	254.01
417.81	255.81
418.18	257.61
418.55	259.59
418.93	261.70
419.30	263.84
419.67	266.19
420.04	268.50
420.42	270.86
420.79	273.90
421.16	276.57
421.54	279.62
421.91	282.60
422.28	285.68
422.66	289.02
423.03	292.42
423.40	295.85
423.77	299.52
424.15	303.15
424.52	306.94
424.89	311.11
425.26	315.05
425.64	318.85
426.01	323.12
426.38	327.51
426.75	332.07
427.13	336.66
427.50	341.43
427.87	346.24
428.24	351.21
428.61	355.81
428.99	361.23
429.36	366.65
429.73	372.24
430.10	377.85
430.47	383.63
430.85	389.31
431.22	395.48
431.59	402.25
431.96	408.58
432.33	415.60
432.70	422.36
433.08	430.30
433.45	437.70
433.82	445.12
434.19	453.45
434.56	461.67
434.93	469.41
435.30	477.22
435.68	485.99
436.05	494.39
436.42	502.83
436.79	510.57
437.16	519.11
437.53	527.98
437.90	536.70
438.27	545.17
438.64	554.15
439.01	562.63
439.38	569.78
439.75	576.97
440.13	585.05
440.50	592.58
440.87	598.65
441.24	605.13
441.61	612.03
441.98	617.12
442.35	622.74
442.72	628.84
443.09	634.88
443.46	638.32
443.83	640.72
444.20	642.65
444.57	645.24
444.94	646.16
445.31	647.23
445.68	648.55
446.05	648.89
446.42	647.66
446.79	646.10
447.16	644.58
447.53	643.22
447.90	639.44
448.27	635.65
448.64	630.79
449.01	626.95
449.37	620.91
449.74	614.82
450.11	608.04
450.48	600.04
450.85	591.63
451.22	584.56
451.59	577.83
451.96	571.44
452.33	563.28
452.70	555.99
453.07	547.21
453.43	538.15
453.80	529.52
454.17	521.38
454.54	513.59
454.91	505.32
455.28	497.37
455.65	489.79
456.02	482.97
456.38	476.57
456.75	468.91
457.12	462.27
457.49	455.88
457.86	449.44
458.23	444.32
458.59	438.65
458.96	432.91
459.33	427.75
459.70	422.55
460.07	418.41
460.43	413.70
460.80	409.40
461.17	405.66
461.54	401.63
461.91	397.78
462.27	393.95
462.64	390.62
463.01	386.89
463.38	383.65
463.74	379.52
464.11	376.42
464.48	373.83
464.85	370.90
465.21	368.68
465.58	366.30
465.95	363.45
466.32	361.25
466.68	359.08
467.05	356.90
467.42	354.69
467.78	352.39
468.15	350.22
468.52	348.74
468.88	346.49
469.25	344.55
469.62	343.02
469.98	341.35
470.35	339.87
470.72	338.48
471.08	336.80
471.45	335.60
471.82	334.45
472.18	332.90
472.55	332.00
472.92	330.68
473.28	329.66
473.65	328.57
474.02	327.43
474.38	326.44
474.75	325.66
475.11	324.86
475.48	324.27
475.85	323.66
476.21	322.82
476.58	322.40
476.94	322.10
477.31	321.63
477.67	321.22
478.04	320.86
478.41	320.61
478.77	320.97
479.14	320.66
479.50	320.61
479.87	320.66
480.23	320.57
480.60	320.57
480.96	320.61
481.33	321.04
481.69	321.38
482.06	321.70
482.42	322.05
482.79	322.49
483.15	322.96
483.52	323.56
483.88	324.13
484.25	324.65
484.61	325.29
484.98	325.99
485.34	326.96
485.71	327.98
486.07	329.01
486.44	329.57
486.80	330.73
487.17	331.79
487.53	333.25
487.90	334.71
488.26	336.47
488.62	338.09
488.99	339.56
489.35	341.29
489.72	343.20
490.08	345.10
490.44	346.94
490.81	349.11
491.17	351.27
491.54	353.80
491.90	356.35
492.26	359.01
492.63	361.77
492.99	364.56
493.36	367.71
493.72	371.08
494.08	374.46
494.45	378.21
494.81	382.05
495.17	385.83
495.54	390.05
495.90	394.16
496.26	398.52
496.63	403.23
496.99	408.07
497.35	413.05
497.72	418.34
498.08	423.89
498.44	429.51
498.80	435.63
499.17	441.58
499.53	447.85
499.89	454.60
500.26	461.44
500.62	468.47
500.98	475.72
501.34	483.01
501.71	490.79
502.07	498.54
502.43	506.78
502.79	515.44
503.16	524.09
503.52	533.15
503.88	542.42
504.24	552.07
504.60	562.00
504.97	572.37
505.33	582.80
505.69	593.98
506.05	604.98
506.41	616.20
506.78	628.09
507.14	640.18
507.50	652.59
507.86	665.39
508.22	678.42
508.59	691.60
508.95	705.57
509.31	719.63
509.67	734.01
510.03	748.13
510.39	762.89
510.75	778.02
511.12	793.08
511.48	808.77
511.84	824.44
512.20	840.36
512.56	856.76
512.92	873.55
513.28	890.24
513.64	907.69
514.00	925.01
514.37	942.69
514.73	960.78
515.09	978.80
515.45	997.31
515.81	1015.98
516.17	1034.90
516.53	1053.61
516.89	1072.50
517.25	1092.07
517.61	1112.46
517.97	1132.60
518.33	1152.82
518.69	1173.40
519.05	1194.12
519.41	1214.98
519.77	1236.23
520.13	1257.00
520.49	1277.99
520.85	1300.61
521.21	1321.54
521.57	1343.50
521.93	1364.28
522.29	1385.81
522.65	1406.54
523.01	1427.36
523.37	1447.94
523.73	1468.94
524.09	1489.47
524.45	1510.38
524.81	1531.18
525.17	1551.82
525.53	1572.50
525.89	1593.31
526.25	1614.28
526.61	1634.91
526.97	1656.24
527.33	1677.74
527.68	1699.65
528.04	1720.72
528.40	1740.19
528.76	1761.73
529.12	1781.85
529.48	1802.96
529.84	1823.10
530.20	1844.43
530.56	1865.41
530.91	1886.58
531.27	1907.13
531.63	1928.09
531.99	1948.75
532.35	1969.05
532.71	1989.24
533.07	2010.00
533.42	2030.05
533.78	2050.35
534.14	2070.20
534.50	2089.21
534.86	2108.22
535.21	2125.89
535.57	2144.89
535.93	2162.81
536.29	2180.73
536.65	2199.15
537.00	2216.87
537.36	2234.28
537.72	2250.88
538.08	2268.04
538.44	2284.78
538.79	2301.63
539.15	2318.51
539.51	2334.51
539.87	2349.83
540.22	2364.45
540.58	2378.82
540.94	2392.32
541.29	2405.07
541.65	2417.80
542.01	2430.50
542.37	2441.26
542.72	2452.31
543.08	2463.05
543.44	2474.90
543.79	2485.26
544.15	2495.14
544.51	2505.27
544.87	2515.48
545.22	2524.31
545.58	2532.17
545.94	2539.52
546.29	2545.69
546.65	2551.63
547.01	2557.12
547.36	2562.87
547.72	2568.23
548.07	2572.33
548.43	2577.76
548.79	2582.19
549.14	2586.29
549.50	2589.96
549.86	2594.24
550.21	2598.17
550.57	2601.11
550.92	2602.57
551.28	2603.77
551.64	2606.00
551.99	2607.92
552.35	2609.47
552.70	2611.67
553.06	2613.36
553.41	2614.46
553.77	2616.57
554.13	2618.30
554.48	2620.17
554.84	2621.61
555.19	2623.07
555.55	2624.87
555.90	2624.06
556.26	2623.64
556.61	2622.42
556.97	2620.70
557.32	2619.95
557.68	2618.72
558.03	2617.59
558.39	2616.60
558.74	2615.62
559.10	2612.59
559.45	2609.30
559.81	2604.80
560.16	2600.03
560.52	2595.40
560.87	2591.28
561.23	2585.84
561.58	2579.90
561.94	2573.19
562.29	2565.85
562.64	2558.82
563.00	2550.27
563.35	2544.10
563.71	2537.04
564.06	2530.72
564.42	2524.16
564.77	2517.69
565.12	2510.13
565.48	2502.41
565.83	2494.54
566.19	2486.84
566.54	2479.10
566.89	2470.78
567.25	2463.07
567.60	2455.72
567.96	2448.09
568.31	2440.20
568.66	2431.52
569.02	2422.49
569.37	2414.15
569.72	2406.08
570.08	2396.78
570.43	2387.55
570.78	2378.07
571.14	2368.83
571.49	2358.62
571.84	2349.08
572.20	2337.26
572.55	2327.22
572.90	2316.31
573.26	2305.69
573.61	2294.36
573.96	2282.99
574.31	2271.26
574.67	2259.29
575.02	2246.69
575.37	2233.91
575.72	2220.50
576.08	2208.09
576.43	2195.40
576.78	2182.22
577.13	2168.79
577.49	2155.64
577.84	2143.90
578.19	2131.61
578.54	2119.17
578.90	2107.09
579.25	2094.58
579.60	2082.70
579.95	2069.79
580.30	2056.61
580.66	2042.98
581.01	2029.19
581.36	2015.42
581.71	2002.53
582.06	1989.40
582.42	1976.37
582.77	1963.46
583.12	1951.73
583.47	1939.41
583.82	1927.36
584.17	1915.57
584.53	1903.69
584.88	1891.02
585.23	1877.68
585.58	1863.33
585.93	1849.81
586.28	1836.44
586.63	1822.26
586.98	1807.82
587.34	1794.49
587.69	1781.35
588.04	1768.70
588.39	1756.54
588.74	1744.13
589.09	1731.76
589.44	1719.12
589.79	1706.90
590.14	1695.24
590.49	1682.47
590.84	1670.43
591.19	1658.27
591.54	1645.70
591.89	1633.51
592.25	1623.25
592.60	1611.54
592.95	1600.28
593.30	1588.10
593.65	1576.01
594.00	1563.96
594.35	1553.99
594.70	1541.93
595.05	1530.45
595.40	1518.53
595.75	1506.70
596.10	1495.36
596.45	1483.91
596.80	1473.10
597.15	1461.66
597.50	1449.75
597.85	1438.77
598.19	1427.07
598.54	1415.45
598.89	1404.00
599.24	1393.34
599.59	1381.69
599.94	1371.05
600.29	1360.40
600.64	1350.15
600.99	1339.36
601.34	1329.84
601.69	1318.71
602.04	1308.88
602.39	1298.95
602.74	1289.40
603.08	1279.99
603.43	1270.69
603.78	1260.82
604.13	1250.97
604.48	1241.47
604.83	1231.70
605.18	1221.80
605.53	1212.10
605.87	1202.89
606.22	1194.34
606.57	1184.89
606.92	1175.21
607.27	1166.15
607.62	1157.58
607.96	1148.98
608.31	1141.02
608.66	1132.70
609.01	1124.04
609.36	1115.48
609.70	1107.02
610.05	1098.43
610.40	1089.63
610.75	1080.93
611.10	1072.36
611.44	1063.81
611.79	1055.42
612.14	1047.57
612.49	1039.49
612.83	1031.99
613.18	1024.16
613.53	1016.36
613.88	1008.15
614.22	1000.50
614.57	992.46
614.92	984.34
615.27	976.60
615.61	968.82
615.96	960.93
616.31	953.29
616.65	946.25
617.00	938.60
617.35	931.26
617.70	924.19
618.04	916.84
618.39	910.02
618.74	903.56
619.08	896.62
619.43	889.24
619.78	882.01
620.12	875.03
620.47	868.10
620.82	860.89
621.16	854.05
621.51	847.61
621.85	841.12
622.20	834.49
622.55	827.83
622.89	821.25
623.24	814.70
623.59	808.31
623.93	801.88
624.28	796.00
624.62	790.43
624.97	784.48
625.32	778.65
625.66	772.62
626.01	766.30
626.35	760.79
626.70	755.22
627.04	749.96
627.39	744.06
627.73	738.60
628.08	733.32
628.43	727.88
628.77	722.37
629.12	716.99
629.46	712.15
629.81	707.29
630.15	702.46
630.50	697.77
630.84	692.84
631.19	687.87
631.53	683.00
631.88	677.55
632.22	672.57
632.57	668.07
632.91	663.41
633.26	658.84
633.60	654.05
633.95	649.50
634.29	644.70
634.64	640.39
634.98	635.69
635.32	631.25
635.67	627.33
636.01	623.06
636.36	618.79
636.70	614.84
637.05	610.65
637.39	606.50
637.73	602.14
638.08	598.25
638.42	594.11
638.77	589.80
639.11	585.50
639.45	581.35
639.80	577.07
640.14	572.94
640.49	569.20
640.83	565.36
641.17	561.67
641.52	557.91
641.86	554.30
642.20	551.09
642.55	547.36
642.89	543.68
643.23	540.19
643.58	537.10
643.92	533.35
644.26	530.01
644.61	526.73
644.95	523.23
645.29	519.69
645.64	516.54
645.98	513.47
646.32	510.57
646.66	507.40
647.01	504.30
647.35	501.57
647.69	498.47
648.04	495.69
648.38	492.73
648.72	489.77
649.06	486.69
649.41	483.47
649.75	480.54
650.09	477.67
650.43	474.61
650.78	471.46
651.12	468.61
651.46	465.71
651.80	462.82
652.14	460.19
652.49	457.71
652.83	455.00
653.17	452.44
653.51	449.65
653.85	447.31
654.20	444.84
654.54	442.20
654.88	439.66
655.22	437.32
655.56	434.88
655.90	432.59
656.25	430.43
656.59	428.17
656.93	425.86
657.27	423.65
657.61	421.30
657.95	419.13
658.29	416.98
658.64	414.89
658.98	412.72
659.32	410.51
659.66	408.19
660.00	406.06
660.34	403.96
660.68	402.09
661.02	399.92
661.36	397.86
661.70	395.85
662.05	393.86
662.39	391.82
662.73	390.05
663.07	388.41
663.41	386.41
663.75	384.51
664.09	382.82
664.43	380.93
664.77	379.41
665.11	377.69
665.45	375.95
665.79	374.28
666.13	372.51
666.47	370.89
666.81	369.25
667.15	367.52
667.49	365.93
667.83	364.51
668.17	363.02
668.51	361.53
668.85	360.19
669.19	359.00
669.53	357.41
669.87	355.91
670.21	354.37
670.55	352.96
670.89	351.94
671.23	350.52
671.57	349.05
671.91	347.69
672.25	346.26
672.58	345.02
672.92	343.52
673.26	342.25
673.60	340.97
673.94	339.86
674.28	338.80
674.62	337.60
674.96	336.26
675.30	335.11
675.64	333.99
675.97	332.72
676.31	331.34
676.65	330.18
676.99	329.18
677.33	327.98
677.67	326.87
678.01	325.34
678.34	324.32
678.68	323.42
679.02	322.28
679.36	321.36
679.70	320.36
680.04	319.44
680.37	318.43
680.71	317.45
681.05	316.53
681.39	315.55
681.73	314.66
682.06	313.71
682.40	312.81
682.74	312.00
683.08	311.26
683.42	310.34
683.75	309.55
684.09	308.55
684.43	307.78
684.77	306.94
685.10	306.27
685.44	305.42
685.78	304.58
686.12	303.79
686.45	302.95
686.79	302.13
687.13	301.43
687.46	300.70
687.80	300.10
688.14	299.16
688.48	298.39
688.81	297.57
689.15	297.01
689.49	296.30
689.82	295.60
690.16	294.68
690.50	294.02
690.83	293.25
691.17	292.51
691.51	291.80
691.84	291.24
692.18	290.50
692.52	289.83
692.85	289.22
693.19	288.80
693.52	288.16
693.86	287.40
694.20	286.68
694.53	286.11
694.87	285.37
695.21	284.85
695.54	284.25
695.88	283.54
696.21	282.71
696.55	282.08
696.88	281.38
697.22	280.76
697.56	280.33
697.89	279.78
698.23	279.25
698.56	278.62
698.90	278.04
699.23	277.60
699.57	277.05
699.90	276.44
700.24	275.68
700.58	275.22
700.91	274.85
701.25	274.76
701.58	274.62
701.92	274.32
702.25	273.88
702.59	273.45
702.92	273.13
703.26	272.77
703.59	272.31
703.93	272.31
704.26	271.95
704.60	271.54
704.93	271.06
705.26	270.65
705.60	270.32
705.93	269.82
706.27	269.52
706.60	269.27
706.94	269.12
707.27	268.78
707.61	268.37
707.94	267.98
708.27	267.27
708.61	266.52
708.94	265.92
709.28	265.48
709.61	265.05
709.94	264.70
710.28	264.28
710.61	263.95
710.95	263.17
711.28	263.22
711.61	262.78
711.95	262.55
712.28	262.14
712.61	261.76
712.95	261.75
713.28	261.61
713.61	261.21
713.95	260.65
714.28	260.41
714.61	260.08
714.95	259.72
715.28	259.28
715.61	259.00
715.95	258.82
716.28	258.46
716.61	258.20
716.95	257.83
717.28	257.58
717.61	257.28
717.94	256.99
718.28	256.29
718.61	255.97
718.94	255.62
719.27	255.33
719.61	255.10
719.94	254.70
720.27	254.16
720.60	253.90
720.94	253.71
721.27	253.45
721.60	253.28
721.93	253.01
722.27	253.05
722.60	252.87
722.93	252.66
723.26	252.57
723.59	252.35
723.93	252.24
724.26	251.99
724.59	251.72
724.92	251.51
725.25	251.47
725.59	251.19
725.92	251.10
726.25	250.98
726.58	250.86
726.91	250.60
727.24	250.48
727.57	250.28
727.91	250.04
728.24	249.92
728.57	249.69
728.90	249.63
729.23	249.30
729.56	249.25
729.89	249.04
730.22	248.74
730.55	248.54
730.89	248.27
731.22	248.12
731.55	247.95
731.88	247.84
732.21	247.53
732.54	247.40
732.87	247.18
733.20	246.97
733.53	246.76
733.86	246.62
734.19	246.32
734.52	246.24
734.85	246.44
735.18	246.10
735.51	246.03
735.84	245.82
736.17	245.81
736.50	245.50
736.83	245.89
737.16	245.82
737.49	245.72
737.82	245.57
738.15	245.47
738.48	245.35
738.81	245.10
739.14	244.91
739.47	244.72
739.80	244.54
740.13	244.43
740.46	244.23
740.79	244.03
741.12	243.89
741.45	243.63
741.78	243.18
742.11	243.19
742.44	242.90
742.77	242.82
743.10	242.56
743.43	242.34
743.75	241.70
744.08	242.16
744.41	241.94
744.74	241.77
745.07	241.52
745.40	241.51
745.73	241.59
746.06	241.50
746.39	241.55
746.71	241.35
747.04	241.11
747.37	240.92
747.70	240.82
748.03	240.68
748.36	240.63
748.68	240.45
749.01	240.25
749.34	240.19
749.67	240.01
750.00	239.97
750.33	240.24
750.65	240.12
750.98	239.40
751.31	239.24
751.64	239.11
751.97	239.25
752.29	239.01
752.62	238.64
752.95	238.46
753.28	238.27
753.60	238.13
753.93	238.18
754.26	238.15
754.59	237.94
754.91	237.82
755.24	237.62
755.57	237.52
755.90	237.38
756.22	237.25
756.55	237.11
756.88	236.86
757.20	236.42
757.53	236.17
757.86	236.07
758.19	236.06
758.51	236.08
758.84	235.75
759.17	235.65
759.49	235.61
759.82	235.77
760.15	235.63
760.47	235.60
760.80	235.37
761.13	235.34
761.45	235.26
761.78	235.18
762.11	235.21
762.43	235.08
762.76	234.98
763.08	234.97
763.41	234.94
763.74	234.95
764.06	234.89
764.39	234.88
764.71	234.85
765.04	234.71
765.37	234.50
765.69	234.44
766.02	234.32
766.34	234.32
766.67	234.10
767.00	234.11
767.32	234.31
767.65	234.50
767.97	234.47
768.30	234.44
768.62	234.38
768.95	234.18
769.27	234.18
769.60	234.26
769.92	234.10
770.25	233.97
770.57	233.75
770.90	233.64
771.22	233.52
771.55	233.36
771.87	233.33
772.20	233.25
772.52	233.60
772.85	234.18
773.17	234.14
773.50	233.99
773.82	233.95
774.15	233.65
774.47	233.34
774.80	233.17
775.12	233.06
775.45	233.00
775.77	232.98
776.09	232.89
776.42	232.76
776.74	232.89
777.07	232.78
777.39	232.81
777.72	232.71
778.04	232.72
778.36	232.72
778.69	232.66
779.01	232.69
779.33	232.30
779.66	231.74
779.98	231.63
780.31	231.62
780.63	231.67
780.95	231.68
781.28	231.68
781.60	231.56
781.92	231.58
782.25	231.50
782.57	231.51
782.89	231.45
783.22	231.43
783.54	231.22
783.86	231.27
784.19	231.11
784.51	231.26
784.83	231.16
785.16	231.07
785.48	231.10
785.80	231.03
786.12	230.99
786.45	230.92
786.77	230.89
787.09	230.85
787.42	230.64
787.74	230.61
788.06	230.55
788.38	230.46
788.71	230.27
789.03	230.33
789.35	230.34
789.67	230.29
789.99	230.25
790.32	230.14
790.64	230.16
790.96	230.59
791.28	230.42
791.61	230.36
791.93	230.40
792.25	230.30
792.57	230.72
792.89	230.60
793.21	230.51
793.54	230.47
793.86	230.43
794.18	230.45
794.50	230.38
794.82	230.34
795.14	230.49
795.47	230.66
795.79	230.62
796.11	230.47
796.43	230.39
796.75	230.37
797.07	230.45
797.39	230.37
797.71	229.99
798.04	230.01
798.36	230.00
798.68	229.94
799.00	229.97
799.32	229.60
799.64	229.74
799.96	229.76
800.28	229.79
800.60	229.74
800.92	229.77
801.24	229.76
801.56	229.81
801.89	229.74
802.21	229.70
802.53	229.58
802.85	229.62
803.17	229.86
803.49	229.80
803.81	229.76
804.13	229.66
804.45	229.65
804.77	229.61
805.09	229.64
805.41	229.57
805.73	229.49
806.05	229.43
806.37	229.33
806.69	229.28
807.01	229.25
807.33	229.30
807.65	229.08
807.97	229.28
808.28	229.16
808.60	229.09
808.92	229.01
809.24	229.33
809.56	229.29
809.88	229.10
810.20	229.11
810.52	229.06
810.84	229.04
811.16	229.00
811.48	228.99
811.80	229.08
812.12	229.11
812.43	229.14
812.75	229.10
813.07	229.05
813.39	229.10
813.71	229.02
814.03	228.95
814.35	228.95
814.67	228.73
814.98	228.78
815.30	228.86
815.62	228.77
815.94	228.40
816.26	228.59
816.58	228.54
816.89	228.57
817.21	228.53
817.53	228.59
817.85	228.56
818.17	228.53
818.48	228.35
818.80	228.38
819.12	228.26
819.44	228.23
819.76	228.16
820.07	228.11
820.39	228.16
820.71	228.16
821.03	228.23
821.34	228.17
821.66	228.25
821.98	228.21
822.30	228.23
822.61	228.59
822.93	228.36
823.25	228.35
823.57	228.28
823.88	228.33
824.20	228.37
824.52	228.44
824.83	228.38
825.15	228.34
825.47	228.38
825.79	228.49
826.10	228.38
826.42	228.37
826.74	228.34
827.05	228.20
827.37	228.24
827.69	228.16
828.00	228.18
828.32	228.08
828.64	228.04
828.95	228.32
829.27	228.13
829.58	228.05
829.90	228.09
830.22	228.13
830.53	228.02
830.85	227.90
831.17	227.74
831.48	227.71
831.80	227.72
832.11	227.66
832.43	227.59
832.75	227.56
833.06	227.82
833.38	227.81
833.69	227.81
834.01	227.74
834.32	227.72
834.64	227.69
834.96	227.60
835.27	227.58
835.59	227.34
835.90	227.22
836.22	227.27
836.53	227.14
836.85	227.03
837.16	227.51
837.48	227.51
837.79	227.67
838.11	227.80
838.42	227.82
838.74	227.86
839.05	227.80
839.37	227.84
839.68	227.53
840.00	227.48
840.31	227.51
840.63	227.49
840.94	227.44
841.26	227.35
841.57	227.45
841.88	227.49
842.20	227.45
842.51	227.39
842.83	227.36
843.14	227.81
843.46	227.83
843.77	227.53
844.08	227.50
844.40	227.27
844.71	227.14
845.03	227.00
845.34	226.99
845.65	226.95
845.97	226.96
846.28	226.96
846.60	226.92
846.91	226.95
847.22	226.98
847.54	227.13
847.85	227.22
848.16	227.15
848.48	227.05
848.79	227.23
849.10	227.35
849.42	227.37
849.73	226.91
850.04	226.84
850.36	226.76
850.67	226.82
850.98	226.94
851.30	227.03
851.61	227.14
851.92	227.02
852.23	227.20
852.55	227.23
852.86	227.28
853.17	227.39
853.49	227.44
853.80	227.49
854.11	227.47
854.42	227.46
854.74	227.40
855.05	227.46
855.36	227.28
855.67	227.22
855.99	227.22
856.30	227.77
856.61	227.81
856.92	227.77
857.23	227.77
857.55	227.80
857.86	227.70
858.17	227.72
858.48	227.75
858.79	227.64
859.11	227.64
859.42	227.69
859.73	227.63
860.04	227.57
860.35	227.51
860.66	227.46
860.98	227.51
861.29	227.56
861.60	227.49
861.91	227.58
862.22	227.62
862.53	227.60
862.84	227.12
863.16	227.23
863.47	227.16
863.78	227.14
864.09	227.09
864.40	227.18
864.71	227.17
865.02	227.23
865.33	227.20
865.64	227.20
865.95	227.11
866.27	227.37
866.58	227.36
866.89	227.43
867.20	227.39
867.51	227.29
867.82	227.29
868.13	227.54
868.44	227.46
868.75	227.59
869.06	227.59
869.37	227.60
869.68	227.48
869.99	227.55
870.30	227.64
870.61	227.68
870.92	227.61
871.23	227.55
871.54	227.61
871.85	227.73
872.16	227.75
872.47	227.82
872.78	227.58
873.09	227.67
873.40	227.60
873.71	227.65
874.02	227.68
874.33	227.62
874.64	227.39
874.95	227.43
875.26	227.28
875.56	227.32
875.87	227.29
876.18	227.25
876.49	227.69
876.80	227.58
877.11	227.51
877.42	227.57
877.73	227.60
878.04	227.48
878.35	227.44
878.66	227.45
878.96	227.37
879.27	227.37
879.58	227.23
879.89	227.22
880.20	227.32
880.51	227.32
880.82	227.38
881.12	227.45
881.43	227.34
881.74	227.25
882.05	227.10
882.36	227.14
882.67	227.20
882.97	226.78
883.28	226.77
883.59	226.74
883.90	226.70
884.21	226.79
884.51	226.75
884.82	226.66
885.13	226.65
885.44	226.61
885.74	226.58
886.05	226.59
886.36	226.54
886.67	226.38
886.98	226.63
887.28	226.65
887.59	226.59
887.90	226.64
888.20	226.68
888.51	226.86
888.82	226.75
889.13	226.74
889.43	227.04
889.74	227.02
890.05	227.04
890.35	227.00
890.66	226.85
890.97	226.82
891.28	226.72
891.58	226.70
891.89	226.76
892.20	226.71
892.50	226.67
892.81	226.66
893.12	226.64
893.42	226.33
893.73	226.34
894.04	226.32
894.34	226.32
894.65	226.23
894.95	226.16
895.26	226.21
895.57	226.40
895.87	225.91
896.18	226.04
896.48	226.04
896.79	226.01
897.10	226.12
897.40	226.22
897.71	226.33
898.01	226.28
898.32	226.28
898.63	226.29
898.93	226.38
899.24	226.43
899.54	226.46
899.85	226.53
900.15	226.53
900.46	226.63
900.76	226.67
901.07	226.70
901.38	226.70
901.68	226.80
901.99	226.62
902.29	226.72
902.60	226.60
902.90	226.57
903.21	226.60
903.51	226.59
903.82	226.63
904.12	226.70
904.43	226.81
904.73	226.79
905.03	226.83
905.34	227.25
905.64	227.25
905.95	227.24
906.25	227.27
906.56	227.19
906.86	227.15
907.17	227.07
907.47	227.12
907.77	227.10
908.08	227.01
908.38	227.07
908.69	227.14
908.99	227.28
909.30	227.32
909.60	227.39
909.90	227.39
910.21	227.30
910.51	227.28
910.81	227.25
911.12	227.29
911.42	227.31
911.73	226.88
912.03	226.94
912.33	227.03
912.64	227.00
912.94	227.10
913.24	227.05
913.55	227.09
913.85	227.04
914.15	227.05
914.46	227.11
914.76	227.02
915.06	226.93
915.37	226.87
915.67	226.80
915.97	226.83
916.27	226.71
916.58	226.70
916.88	226.65
917.18	226.61
917.49	226.92
917.79	226.89
918.09	226.95
918.39	226.98
918.70	226.91
919.00	226.89
919.30	227.07
919.60	227.02
919.91	226.98
920.21	227.02
920.51	226.97
920.81	226.91
921.12	226.98
921.42	227.07
921.72	227.08
922.02	227.13
922.32	227.12
922.63	227.17
922.93	227.37
923.23	227.36
923.53	227.32
923.83	227.01
924.13	227.08
924.44	227.03
924.74	227.13
925.04	227.17
925.34	227.15
925.64	226.86
925.94	226.86
926.24	227.14
926.55	227.14
926.85	227.25
927.15	227.20
927.45	227.17
927.75	227.13
928.05	227.12
928.35	227.09
928.65	227.17
928.95	227.22
929.26	227.01
929.56	227.10
929.86	227.19
930.16	227.14
930.46	227.09
930.76	227.08
931.06	226.85
931.36	226.80
931.66	226.81
931.96	226.93
932.26	226.96
932.56	226.71
932.86	226.68
933.16	226.61
933.46	226.66
933.76	226.66
934.06	226.79
934.36	226.93
934.66	226.94
934.96	226.86
935.26	226.81
935.56	226.90
935.86	226.76
936.16	226.64
936.46	226.58
936.76	226.50
937.06	226.45
937.36	226.52
937.66	226.52
937.96	226.51
938.26	226.42
938.56	226.40
938.86	226.46
939.16	226.64
939.46	226.67
939.76	226.70
940.06	226.67
940.35	226.51
940.65	226.35
940.95	226.37
941.25	226.29
941.55	226.32
941.85	226.35
942.15	226.49
942.45	226.68
942.75	226.70
943.04	226.71
943.34	226.85
943.64	226.78
943.94	226.79
944.24	226.79
944.54	226.84
944.84	226.87
945.13	226.77
945.43	226.63
945.73	226.70
946.03	226.71
946.33	226.69
946.62	226.68
946.92	226.65
947.22	226.70
947.52	226.74
947.82	226.85
948.11	226.77
948.41	226.66
948.71	226.58
949.01	226.62
949.31	226.65
949.60	226.57
949.90	226.66
950.20	226.64
950.50	226.65
950.79	226.61
951.09	226.65
951.39	226.67
951.69	226.63
951.98	226.64
952.28	226.58
952.58	226.51
952.87	226.57
953.17	226.65
953.47	226.61
953.76	226.60
954.06	226.51
954.36	226.56
954.66	226.56
954.95	226.66
955.25	226.67
955.55	226.74
955.84	226.70
956.14	226.68
956.44	226.68
956.73	226.59
957.03	226.69
957.32	226.74
957.62	226.76
957.92	226.89
958.21	226.93
958.51	227.53
958.81	227.68
959.10	227.65
959.40	227.75
959.69	227.75
959.99	227.82
960.29	227.73
960.58	227.68
960.88	227.87
961.17	227.77
961.47	227.86
961.76	227.78
962.06	227.86
962.36	227.85
962.65	227.92
962.95	227.92
963.24	227.85
963.54	227.80
963.83	227.78
964.13	227.71
964.42	227.51
964.72	227.11
965.01	227.11
965.31	227.04
965.60	226.94
965.90	227.23
966.19	227.09
966.49	227.15
966.78	227.06
967.08	226.99
967.37	227.06
967.67	226.91
967.96	226.99
968.26	226.89
968.55	226.90
968.85	226.86
969.14	226.89
969.43	226.88
969.73	226.82
970.02	226.77
970.32	226.70
970.61	226.70
970.91	226.50
971.20	226.45
971.49	226.45
971.79	226.51
972.08	226.19
972.38	226.27
972.67	226.21
972.96	226.31
973.26	226.26
973.55	226.31
973.85	226.30
974.14	226.27
974.43	226.35
974.73	226.32
975.02	226.25
975.31	226.27
975.61	226.22
975.90	226.23
976.19	226.23
976.49	226.31
976.78	226.38
977.07	226.39
977.37	226.34
977.66	226.39
977.95	226.25
978.24	226.26
978.54	226.38
978.83	226.37
979.12	226.31
979.42	226.25
979.71	226.18
980.00	226.20
980.29	226.24
980.59	226.14
980.88	226.23
981.17	226.21
981.46	226.22
981.76	226.25
982.05	226.33
982.34	226.38
982.63	226.34
982.93	226.30
983.22	226.46
983.51	226.56
983.80	226.61
984.09	226.65
984.39	226.65
984.68	226.57
984.97	226.59
985.26	226.63
985.55	226.71
985.85	226.66
986.14	226.77
986.43	226.77
986.72	226.75
987.01	226.69
987.30	226.75
987.59	226.70
987.89	226.72
988.18	226.69
988.47	226.66
988.76	226.63
989.05	226.63
989.34	226.47
989.63	226.63
989.92	226.55
990.22	226.50
990.51	226.49
990.80	226.35
991.09	226.38
991.38	226.37
991.67	226.26
991.96	226.18
992.25	226.12
992.54	226.09
992.83	226.14
993.12	226.12
993.41	226.16
993.70	226.40
993.99	226.49
994.28	226.54
994.58	226.60
994.87	226.63
995.16	226.59
995.45	226.56
995.74	226.34
996.03	226.45
996.32	226.55
996.61	226.66
996.90	226.79
997.19	226.77
997.48	226.81
997.77	226.85
998.06	226.86
998.34	226.84
998.63	226.85
998.92	226.87
999.21	226.90
999.50	226.93
999.79	226.76
1000.08	226.70
1000.37	226.67
1000.66	226.57
1000.95	226.66
1001.24	226.72
1001.53	226.87
1001.82	226.89
1002.11	226.73
1002.40	226.78
1002.68	226.90
1002.97	227.22
1003.26	227.20
1003.55	227.07
1003.84	227.07
1004.13	227.19
1004.42	227.21
1004.71	227.13
1004.99	227.00
1005.28	227.17
1005.57	227.07
1005.86	227.02
1006.15	227.01
1006.44	226.97
1006.72	227.04
1007.01	226.91
1007.30	226.91
1007.59	226.77
1007.88	226.73
1008.17	226.78
1008.45	226.59
1008.74	226.35
1009.03	226.14
1009.32	226.11
1009.60	226.21
1009.89	226.17
1010.18	226.06
1010.47	226.02
1010.76	226.04
1011.04	226.05
1011.33	225.99
1011.62	226.03
1011.91	226.09
1012.19	226.12
1012.48	226.07
1012.77	226.11
1013.05	226.39
1013.34	226.38
1013.63	226.40
1013.92	226.45
1014.20	226.47
1014.49	226.53
1014.78	226.61
1015.06	226.40
1015.35	226.41
1015.64	226.45
1015.92	226.59
1016.21	226.55
1016.50	226.54
1016.78	226.58
1017.07	226.66
1017.36	226.50
1017.64	226.44
1017.93	226.37
1018.22	226.27
1018.50	226.25
1018.79	226.12
1019.08	225.91
1019.36	225.96
1019.65	225.92
1019.93	225.99
1020.22	225.98
1020.51	226.24
1020.79	226.11
1021.08	224.75
1021.36	225.15
1021.65	224.60
1021.94	227.05
1022.22	226.45
1022.51	225.65
1022.79	227.80
1023.08	226.10
1023.36	231.45
1023.65	224.25
>>>>>End Processed Spectral Data<<<<<
