SpectraSuite Data File
++++++++++++++++++++++++++++++++++++
Date: Wed Sep 04 17:43:00 EDT 2013
User: lab3
Dark Spectrum Present: Yes
Reference Spectrum Present: No
Number of Sampled Component Spectra: 1
Spectrometers: USB2E7196
Integration Time (usec): 170000 (USB2E7196)
Spectra Averaged: 20 (USB2E7196)
Boxcar Smoothing: 10 (USB2E7196)
Correct for Electrical Dark: No (USB2E7196)
Strobe/Lamp Enabled: No (USB2E7196)
Correct for Detector Non-linearity: No (USB2E7196)
Correct for Stray Light: No (USB2E7196)
Number of Pixels in Processed Spectrum: 2048
>>>>>Begin Processed Spectral Data<<<<<
339.09	0.00
339.48	213.00
339.86	212.95
340.24	215.40
340.63	218.45
341.01	225.25
341.39	219.45
341.78	220.95
342.16	224.00
342.54	222.90
342.93	212.27
343.31	222.95
343.69	223.55
344.07	224.12
344.46	224.64
344.84	224.99
345.22	225.00
345.60	225.27
345.99	225.46
346.37	225.53
346.75	225.64
347.13	225.64
347.52	225.70
347.90	225.89
348.28	225.88
348.66	225.93
349.05	225.73
349.43	225.84
349.81	225.86
350.19	225.89
350.57	225.91
350.96	226.07
351.34	226.14
351.72	226.16
352.10	226.19
352.48	226.20
352.87	226.24
353.25	226.27
353.63	226.33
354.01	226.41
354.39	226.46
354.77	226.46
355.15	226.69
355.54	226.70
355.92	226.58
356.30	226.69
356.68	227.05
357.06	227.20
357.44	227.12
357.82	227.20
358.20	227.57
358.58	227.55
358.97	227.63
359.35	227.81
359.73	227.93
360.11	227.95
360.49	228.06
360.87	228.10
361.25	228.25
361.63	228.37
362.01	228.50
362.39	228.57
362.77	228.66
363.15	228.65
363.53	228.67
363.91	228.72
364.29	228.74
364.67	228.31
365.05	228.35
365.43	228.47
365.81	228.55
366.19	228.45
366.57	228.78
366.95	228.73
367.33	228.64
367.71	228.71
368.09	228.90
368.47	228.87
368.85	228.85
369.23	228.90
369.61	228.80
369.99	228.91
370.37	228.91
370.75	229.18
371.13	229.03
371.51	228.98
371.89	229.04
372.27	229.04
372.65	229.01
373.03	229.02
373.41	229.01
373.78	228.93
374.16	228.67
374.54	228.47
374.92	228.38
375.30	228.35
375.68	228.18
376.06	228.07
376.44	227.94
376.82	227.96
377.19	227.90
377.57	227.86
377.95	227.60
378.33	227.52
378.71	227.17
379.09	227.19
379.47	227.24
379.84	227.14
380.22	226.99
380.60	226.85
380.98	226.80
381.36	226.63
381.73	226.53
382.11	226.55
382.49	226.45
382.87	226.26
383.25	226.17
383.62	226.62
384.00	226.51
384.38	226.43
384.76	226.41
385.13	226.49
385.51	226.38
385.89	226.27
386.27	226.24
386.64	226.22
387.02	226.10
387.40	225.93
387.78	225.86
388.15	225.85
388.53	225.79
388.91	225.68
389.29	225.67
389.66	225.69
390.04	225.50
390.42	225.50
390.79	225.56
391.17	225.49
391.55	224.99
391.92	224.95
392.30	225.07
392.68	224.94
393.05	224.85
393.43	224.90
393.81	224.96
394.18	224.89
394.56	224.90
394.94	225.02
395.31	224.98
395.69	225.22
396.06	225.33
396.44	225.36
396.82	225.36
397.19	225.68
397.57	225.66
397.95	225.85
398.32	225.83
398.70	225.93
399.07	226.12
399.45	226.20
399.82	226.29
400.20	226.30
400.58	226.36
400.95	226.23
401.33	226.43
401.70	226.81
402.08	226.90
402.45	227.03
402.83	227.26
403.20	227.43
403.58	227.43
403.95	227.59
404.33	227.84
404.71	228.04
405.08	228.36
405.46	228.60
405.83	228.82
406.21	229.01
406.58	229.32
406.96	229.52
407.33	229.72
407.70	230.09
408.08	230.80
408.45	231.25
408.83	231.72
409.20	231.96
409.58	232.09
409.95	232.65
410.33	233.07
410.70	233.33
411.08	233.96
411.45	234.46
411.82	234.97
412.20	235.61
412.57	236.43
412.95	236.62
413.32	237.31
413.69	237.97
414.07	238.80
414.44	239.54
414.82	240.50
415.19	241.55
415.56	242.48
415.94	243.21
416.31	244.40
416.68	245.50
417.06	246.93
417.43	248.30
417.81	249.72
418.18	251.30
418.55	252.96
418.93	254.61
419.30	256.42
419.67	258.29
420.04	260.14
420.42	262.10
420.79	264.80
421.16	267.16
421.54	269.83
421.91	272.29
422.28	274.90
422.66	277.54
423.03	280.43
423.40	283.24
423.77	286.23
424.15	289.16
424.52	292.45
424.89	295.94
425.26	299.27
425.64	302.45
426.01	305.88
426.38	309.53
426.75	313.27
427.13	317.05
427.50	320.97
427.87	325.15
428.24	329.19
428.61	332.80
428.99	337.25
429.36	341.67
429.73	346.33
430.10	350.94
430.47	355.71
430.85	360.30
431.22	365.47
431.59	371.20
431.96	376.48
432.33	382.24
432.70	387.83
433.08	394.39
433.45	400.55
433.82	406.69
434.19	413.57
434.56	420.31
434.93	426.70
435.30	433.16
435.68	440.23
436.05	447.26
436.42	454.28
436.79	460.65
437.16	467.65
437.53	474.91
437.90	482.00
438.27	489.12
438.64	496.61
439.01	503.50
439.38	509.38
439.75	515.40
440.13	522.03
440.50	528.19
440.87	533.17
441.24	538.47
441.61	544.36
441.98	548.49
442.35	553.47
442.72	558.65
443.09	563.59
443.46	566.48
443.83	568.45
444.20	570.17
444.57	572.47
444.94	573.53
445.31	574.46
445.68	575.87
446.05	576.08
446.42	574.91
446.79	573.82
447.16	572.53
447.53	571.40
447.90	568.51
448.27	565.37
448.64	561.43
449.01	558.43
449.37	553.43
449.74	548.50
450.11	542.93
450.48	536.45
450.85	529.92
451.22	524.30
451.59	518.94
451.96	513.80
452.33	507.11
452.70	500.96
453.07	493.75
453.43	486.15
453.80	479.27
454.17	472.74
454.54	466.33
454.91	459.57
455.28	452.89
455.65	446.69
456.02	441.29
456.38	435.97
456.75	429.58
457.12	424.05
457.49	418.86
457.86	413.43
458.23	409.20
458.59	404.40
458.96	399.70
459.33	395.46
459.70	391.09
460.07	387.69
460.43	383.75
460.80	380.27
461.17	377.22
461.54	373.87
461.91	370.73
462.27	367.50
462.64	364.73
463.01	361.90
463.38	359.16
463.74	355.74
464.11	353.30
464.48	351.15
464.85	348.81
465.21	347.20
465.58	345.35
465.95	342.93
466.32	341.05
466.68	339.12
467.05	337.27
467.42	335.51
467.78	333.61
468.15	331.91
468.52	330.59
468.88	328.64
469.25	327.05
469.62	325.92
469.98	324.63
470.35	323.44
470.72	322.27
471.08	320.83
471.45	319.91
471.82	318.91
472.18	317.66
472.55	316.89
472.92	315.69
473.28	314.69
473.65	313.79
474.02	313.06
474.38	312.42
474.75	311.83
475.11	311.16
475.48	310.65
475.85	310.14
476.21	309.59
476.58	309.30
476.94	309.08
477.31	308.74
477.67	308.43
478.04	308.25
478.41	308.10
478.77	308.49
479.14	308.16
479.50	308.13
479.87	308.24
480.23	308.29
480.60	308.34
480.96	308.45
481.33	308.87
481.69	309.10
482.06	309.42
482.42	309.77
482.79	310.21
483.15	310.66
483.52	311.26
483.88	311.83
484.25	312.38
484.61	313.01
484.98	313.65
485.34	314.59
485.71	315.39
486.07	316.25
486.44	316.88
486.80	317.91
487.17	318.99
487.53	320.30
487.90	321.62
488.26	323.25
488.62	324.82
488.99	326.23
489.35	327.81
489.72	329.55
490.08	331.29
490.44	333.06
490.81	335.13
491.17	337.20
491.54	339.46
491.90	341.86
492.26	344.23
492.63	346.78
492.99	349.30
493.36	352.28
493.72	355.35
494.08	358.41
494.45	361.83
494.81	365.37
495.17	368.84
495.54	372.67
495.90	376.31
496.26	380.38
496.63	384.57
496.99	388.88
497.35	393.35
497.72	398.15
498.08	402.99
498.44	408.01
498.80	413.39
499.17	418.79
499.53	424.26
499.89	430.21
500.26	436.35
500.62	442.64
500.98	449.18
501.34	455.90
501.71	462.80
502.07	469.77
502.43	476.87
502.79	484.33
503.16	491.87
503.52	499.83
503.88	507.84
504.24	516.33
504.60	525.10
504.97	534.15
505.33	543.19
505.69	552.89
506.05	562.38
506.41	572.03
506.78	582.12
507.14	592.77
507.50	603.30
507.86	614.13
508.22	625.30
508.59	636.41
508.95	647.89
509.31	659.96
509.67	672.18
510.03	684.40
510.39	696.79
510.75	709.51
511.12	722.51
511.48	735.78
511.84	749.16
512.20	762.65
512.56	776.17
512.92	790.21
513.28	804.41
513.64	818.97
514.00	833.40
514.37	848.08
514.73	862.80
515.09	877.96
515.45	893.08
515.81	908.19
516.17	923.59
516.53	938.88
516.89	954.05
517.25	969.90
517.61	986.29
517.97	1002.60
518.33	1018.73
518.69	1034.96
519.05	1051.49
519.41	1068.00
519.77	1084.50
520.13	1101.20
520.49	1117.56
520.85	1135.41
521.21	1151.88
521.57	1168.95
521.93	1185.49
522.29	1202.14
522.65	1218.14
523.01	1234.52
523.37	1250.73
523.73	1267.09
524.09	1283.06
524.45	1299.08
524.81	1314.75
525.17	1330.51
525.53	1346.22
525.89	1362.28
526.25	1378.03
526.61	1393.23
526.97	1408.83
527.33	1424.75
527.68	1441.02
528.04	1457.05
528.40	1471.15
528.76	1486.95
529.12	1501.84
529.48	1517.15
529.84	1531.80
530.20	1547.32
530.56	1562.37
530.91	1577.26
531.27	1591.67
531.63	1606.44
531.99	1621.21
532.35	1635.55
532.71	1649.81
533.07	1664.53
533.42	1678.47
533.78	1692.32
534.14	1705.99
534.50	1719.14
534.86	1732.68
535.21	1744.48
535.57	1756.96
535.93	1768.76
536.29	1780.28
536.65	1792.51
537.00	1803.95
537.36	1815.72
537.72	1826.26
538.08	1837.35
538.44	1848.25
538.79	1858.99
539.15	1869.49
539.51	1879.69
539.87	1889.40
540.22	1898.01
540.58	1906.68
540.94	1914.49
541.29	1921.91
541.65	1929.38
542.01	1936.78
542.37	1942.43
542.72	1948.26
543.08	1953.88
543.44	1960.69
543.79	1966.25
544.15	1971.06
544.51	1976.28
544.87	1980.79
545.22	1984.99
545.58	1988.58
545.94	1991.41
546.29	1993.76
546.65	1995.97
547.01	1997.55
547.36	1999.04
547.72	2000.75
548.07	2001.24
548.43	2002.53
548.79	2003.50
549.14	2004.19
549.50	2004.39
549.86	2004.66
550.21	2005.03
550.57	2005.28
550.92	2003.54
551.28	2001.83
551.64	2001.49
551.99	2000.42
552.35	1999.22
552.70	1998.50
553.06	1997.18
553.41	1996.02
553.77	1994.99
554.13	1993.75
554.48	1992.61
554.84	1991.37
555.19	1989.62
555.55	1988.96
555.90	1986.32
556.26	1983.46
556.61	1980.11
556.97	1976.47
557.32	1973.90
557.68	1971.01
558.03	1967.59
558.39	1964.50
558.74	1961.86
559.10	1957.44
559.45	1952.81
559.81	1947.54
560.16	1941.99
560.52	1936.35
560.87	1931.28
561.23	1925.38
561.58	1919.45
561.94	1912.56
562.29	1905.47
562.64	1898.87
563.00	1890.91
563.35	1884.58
563.71	1878.15
564.06	1872.14
564.42	1865.71
564.77	1859.26
565.12	1852.49
565.48	1845.81
565.83	1838.78
566.19	1831.81
566.54	1824.56
566.89	1817.61
567.25	1811.09
567.60	1804.56
567.96	1798.18
568.31	1791.06
568.66	1784.26
569.02	1777.02
569.37	1770.17
569.72	1763.69
570.08	1756.13
570.43	1748.20
570.78	1740.66
571.14	1732.99
571.49	1724.39
571.84	1716.65
572.20	1707.73
572.55	1699.49
572.90	1690.50
573.26	1682.01
573.61	1673.00
573.96	1664.35
574.31	1654.73
574.67	1645.40
575.02	1635.50
575.37	1625.60
575.72	1615.39
576.08	1605.77
576.43	1595.94
576.78	1585.71
577.13	1575.37
577.49	1565.63
577.84	1556.81
578.19	1547.76
578.54	1538.19
578.90	1529.30
579.25	1520.09
579.60	1511.01
579.95	1501.12
580.30	1491.30
580.66	1481.60
581.01	1471.66
581.36	1461.07
581.71	1452.05
582.06	1442.67
582.42	1433.73
582.77	1424.55
583.12	1415.86
583.47	1406.60
583.82	1397.63
584.17	1388.80
584.53	1379.93
584.88	1370.66
585.23	1360.72
585.58	1350.62
585.93	1341.09
586.28	1331.41
586.63	1321.35
586.98	1311.05
587.34	1301.76
587.69	1292.43
588.04	1283.35
588.39	1274.87
588.74	1266.45
589.09	1257.85
589.44	1248.89
589.79	1240.27
590.14	1231.86
590.49	1223.24
590.84	1214.90
591.19	1206.49
591.54	1197.83
591.89	1189.34
592.25	1182.11
592.60	1174.42
592.95	1166.25
593.30	1157.97
593.65	1149.75
594.00	1141.60
594.35	1135.15
594.70	1126.86
595.05	1118.95
595.40	1110.57
595.75	1102.16
596.10	1094.39
596.45	1086.31
596.80	1078.75
597.15	1070.55
597.50	1062.08
597.85	1054.30
598.19	1046.15
598.54	1038.20
598.89	1030.81
599.24	1023.65
599.59	1015.59
599.94	1008.07
600.29	1000.88
600.64	993.98
600.99	986.81
601.34	980.23
601.69	972.26
602.04	965.64
602.39	958.97
602.74	952.85
603.08	946.43
603.43	940.12
603.78	933.35
604.13	926.57
604.48	920.15
604.83	913.78
605.18	906.94
605.53	900.46
605.87	894.14
606.22	888.13
606.57	881.68
606.92	875.40
607.27	869.34
607.62	863.57
607.96	857.76
608.31	852.35
608.66	846.57
609.01	840.77
609.36	835.21
609.70	829.44
610.05	823.57
610.40	817.99
610.75	811.97
611.10	806.55
611.44	801.00
611.79	795.48
612.14	790.25
612.49	785.07
612.83	780.31
613.18	775.08
613.53	769.75
613.88	764.51
614.22	759.12
614.57	753.84
614.92	748.27
615.27	743.19
615.61	737.72
615.96	732.62
616.31	727.43
616.65	722.47
617.00	717.50
617.35	712.51
617.70	707.68
618.04	703.05
618.39	698.22
618.74	693.82
619.08	689.12
619.43	684.30
619.78	679.51
620.12	674.36
620.47	669.70
620.82	665.06
621.16	660.52
621.51	656.31
621.85	651.89
622.20	647.70
622.55	643.18
622.89	639.04
623.24	634.65
623.59	630.55
623.93	626.40
624.28	622.20
624.62	618.73
624.97	614.79
625.32	610.71
625.66	606.69
626.01	602.39
626.35	598.73
626.70	594.89
627.04	591.38
627.39	587.70
627.73	584.25
628.08	580.70
628.43	576.94
628.77	573.28
629.12	569.64
629.46	566.29
629.81	563.15
630.15	559.80
630.50	556.44
630.84	553.08
631.19	549.76
631.53	546.78
631.88	543.02
632.22	539.70
632.57	536.80
632.91	533.77
633.26	530.83
633.60	527.49
633.95	524.32
634.29	520.95
634.64	518.05
634.98	514.58
635.32	511.54
635.67	508.89
636.01	506.01
636.36	503.17
636.70	500.38
637.05	497.39
637.39	494.71
637.73	492.01
638.08	489.25
638.42	486.35
638.77	483.41
639.11	480.44
639.45	477.45
639.80	474.40
640.14	471.53
640.49	468.79
640.83	466.24
641.17	463.70
641.52	461.31
641.86	458.86
642.20	456.85
642.55	454.36
642.89	451.70
643.23	449.13
643.58	446.97
643.92	444.33
644.26	441.95
644.61	439.62
644.95	437.29
645.29	434.96
645.64	432.80
645.98	430.48
646.32	428.52
646.66	426.38
647.01	424.31
647.35	422.30
647.69	420.29
648.04	418.35
648.38	416.39
648.72	414.42
649.06	412.21
649.41	410.05
649.75	407.96
650.09	406.08
650.43	404.22
650.78	402.15
651.12	400.23
651.46	398.30
651.80	396.31
652.14	394.46
652.49	392.75
652.83	390.89
653.17	389.26
653.51	387.35
653.85	385.80
654.20	384.07
654.54	382.28
654.88	380.49
655.22	378.97
655.56	377.33
655.90	375.68
656.25	374.15
656.59	372.46
656.93	371.04
657.27	369.70
657.61	368.08
657.95	366.58
658.29	365.00
658.64	363.54
658.98	362.06
659.32	360.54
659.66	358.93
660.00	357.50
660.34	356.08
660.68	354.76
661.02	353.24
661.36	351.94
661.70	350.63
662.05	349.27
662.39	347.93
662.73	346.68
663.07	345.60
663.41	344.35
663.75	343.15
664.09	341.77
664.43	340.25
664.77	339.01
665.11	337.82
665.45	336.67
665.79	335.63
666.13	334.45
666.47	333.26
666.81	332.20
667.15	330.96
667.49	329.91
667.83	329.03
668.17	327.97
668.51	326.85
668.85	325.96
669.19	325.33
669.53	324.20
669.87	323.15
670.21	322.02
670.55	321.03
670.89	320.28
671.23	319.43
671.57	318.52
671.91	317.67
672.25	316.77
672.58	316.05
672.92	314.98
673.26	314.15
673.60	313.36
673.94	312.50
674.28	311.85
674.62	311.05
674.96	310.05
675.30	309.30
675.64	308.46
675.97	307.48
676.31	306.43
676.65	305.51
676.99	304.94
677.33	304.04
677.67	303.31
678.01	302.34
678.34	301.54
678.68	300.94
679.02	300.13
679.36	299.42
679.70	298.62
680.04	297.99
680.37	297.33
680.71	296.65
681.05	296.07
681.39	295.36
681.73	294.65
682.06	294.00
682.40	293.40
682.74	292.94
683.08	292.53
683.42	291.90
683.75	291.42
684.09	290.64
684.43	290.14
684.77	289.47
685.10	288.94
685.44	288.42
685.78	287.80
686.12	287.29
686.45	286.74
686.79	286.12
687.13	285.67
687.46	285.13
687.80	284.70
688.14	284.03
688.48	283.46
688.81	282.87
689.15	282.46
689.49	281.92
689.82	281.37
690.16	280.65
690.50	280.17
690.83	279.68
691.17	279.14
691.51	278.69
691.84	278.25
692.18	277.76
692.52	277.18
692.85	276.75
693.19	276.44
693.52	275.95
693.86	275.47
694.20	274.94
694.53	274.42
694.87	273.83
695.21	273.40
695.54	272.97
695.88	272.46
696.21	271.81
696.55	271.29
696.88	270.76
697.22	270.33
697.56	269.88
697.89	269.36
698.23	268.97
698.56	268.43
698.90	268.04
699.23	267.55
699.57	267.26
699.90	266.75
700.24	266.21
700.58	265.90
700.91	265.67
701.25	265.63
701.58	265.60
701.92	265.32
702.25	264.93
702.59	264.56
702.92	264.26
703.26	264.00
703.59	263.67
703.93	263.84
704.26	263.57
704.60	263.34
704.93	263.01
705.26	262.71
705.60	262.51
705.93	262.13
706.27	261.99
706.60	261.72
706.94	261.70
707.27	261.35
707.61	261.09
707.94	260.74
708.27	260.03
708.61	259.40
708.94	259.13
709.28	258.96
709.61	258.61
709.94	258.43
710.28	258.15
710.61	257.98
710.95	257.23
711.28	257.26
711.61	256.89
711.95	256.72
712.28	256.36
712.61	256.08
712.95	256.11
713.28	256.04
713.61	255.65
713.95	255.11
714.28	254.93
714.61	254.54
714.95	254.31
715.28	253.98
715.61	253.68
715.95	253.38
716.28	252.97
716.61	252.78
716.95	252.39
717.28	252.05
717.61	251.68
717.94	251.41
718.28	250.81
718.61	250.58
718.94	250.24
719.27	250.00
719.61	249.79
719.94	249.40
720.27	248.87
720.60	248.72
720.94	248.53
721.27	248.35
721.60	248.19
721.93	247.88
722.27	247.95
722.60	247.85
722.93	247.65
723.26	247.55
723.59	247.33
723.93	247.23
724.26	247.12
724.59	247.01
724.92	246.92
725.25	246.89
725.59	246.69
725.92	246.59
726.25	246.47
726.58	246.26
726.91	246.08
727.24	245.97
727.57	245.79
727.91	245.60
728.24	245.45
728.57	245.25
728.90	245.17
729.23	244.83
729.56	244.92
729.89	244.68
730.22	244.45
730.55	244.30
730.89	244.12
731.22	243.96
731.55	243.70
731.88	243.59
732.21	243.37
732.54	243.23
732.87	243.00
733.20	242.83
733.53	242.73
733.86	242.62
734.19	242.38
734.52	242.25
734.85	242.46
735.18	242.31
735.51	242.30
735.84	242.19
736.17	242.23
736.50	241.77
736.83	242.28
737.16	242.24
737.49	242.18
737.82	242.02
738.15	242.02
738.48	241.94
738.81	241.69
739.14	241.50
739.47	241.32
739.80	241.30
740.13	241.23
740.46	241.08
740.79	240.86
741.12	240.76
741.45	240.62
741.78	240.27
742.11	240.23
742.44	240.00
742.77	239.95
743.10	239.74
743.43	239.70
743.75	239.01
744.08	239.56
744.41	239.31
744.74	239.24
745.07	238.98
745.40	238.90
745.73	239.05
746.06	239.02
746.39	238.91
746.71	238.69
747.04	238.53
747.37	238.37
747.70	238.34
748.03	238.34
748.36	238.31
748.68	238.18
749.01	238.02
749.34	237.97
749.67	237.77
750.00	237.65
750.33	237.88
750.65	237.86
750.98	237.13
751.31	237.18
751.64	237.08
751.97	237.24
752.29	237.14
752.62	236.80
752.95	236.59
753.28	236.52
753.60	236.46
753.93	236.51
754.26	236.46
754.59	236.29
754.91	236.12
755.24	236.01
755.57	235.87
755.90	235.72
756.22	235.57
756.55	235.47
756.88	235.37
757.20	235.01
757.53	234.76
757.86	234.68
758.19	234.62
758.51	234.55
758.84	234.26
759.17	234.19
759.49	234.21
759.82	234.38
760.15	234.39
760.47	234.35
760.80	234.19
761.13	234.16
761.45	234.08
761.78	233.96
762.11	233.91
762.43	233.89
762.76	233.82
763.08	233.77
763.41	233.74
763.74	233.72
764.06	233.51
764.39	233.53
764.71	233.45
765.04	233.29
765.37	233.21
765.69	233.17
766.02	233.06
766.34	232.96
766.67	232.73
767.00	232.72
767.32	232.78
767.65	232.97
767.97	232.88
768.30	232.88
768.62	232.79
768.95	232.70
769.27	232.60
769.60	232.59
769.92	232.46
770.25	232.34
770.57	232.21
770.90	232.24
771.22	232.07
771.55	231.91
771.87	231.89
772.20	231.81
772.52	232.13
772.85	232.66
773.17	232.57
773.50	232.50
773.82	232.41
774.15	232.15
774.47	231.82
774.80	231.79
775.12	231.66
775.45	231.63
775.77	231.60
776.09	231.59
776.42	231.56
776.74	231.71
777.07	231.58
777.39	231.53
777.72	231.46
778.04	231.54
778.36	231.51
778.69	231.45
779.01	231.47
779.33	231.05
779.66	230.44
779.98	230.34
780.31	230.31
780.63	230.41
780.95	230.46
781.28	230.42
781.60	230.26
781.92	230.30
782.25	230.30
782.57	230.21
782.89	230.15
783.22	230.12
783.54	230.01
783.86	230.03
784.19	229.95
784.51	229.99
784.83	229.88
785.16	229.84
785.48	229.81
785.80	229.73
786.12	229.70
786.45	229.68
786.77	229.68
787.09	229.68
787.42	229.47
787.74	229.49
788.06	229.43
788.38	229.39
788.71	229.37
789.03	229.32
789.35	229.36
789.67	229.31
789.99	229.24
790.32	229.10
790.64	229.17
790.96	229.56
791.28	229.41
791.61	229.37
791.93	229.38
792.25	229.40
792.57	229.70
792.89	229.57
793.21	229.57
793.54	229.55
793.86	229.50
794.18	229.50
794.50	229.39
794.82	229.42
795.14	229.49
795.47	229.47
795.79	229.47
796.11	229.42
796.43	229.34
796.75	229.40
797.07	229.41
797.39	229.39
797.71	229.05
798.04	229.06
798.36	229.06
798.68	229.08
799.00	229.03
799.32	228.75
799.64	228.80
799.96	228.76
800.28	228.84
800.60	228.73
800.92	228.76
801.24	228.70
801.56	228.70
801.89	228.69
802.21	228.71
802.53	228.57
802.85	228.57
803.17	228.77
803.49	228.51
803.81	228.51
804.13	228.40
804.45	228.33
804.77	228.32
805.09	228.34
805.41	228.20
805.73	228.14
806.05	228.04
806.37	228.04
806.69	228.02
807.01	227.90
807.33	228.00
807.65	227.79
807.97	228.06
808.28	228.04
808.60	228.02
808.92	227.96
809.24	228.27
809.56	228.23
809.88	228.07
810.20	228.21
810.52	228.24
810.84	228.22
811.16	228.20
811.48	228.16
811.80	228.31
812.12	228.33
812.43	228.42
812.75	228.45
813.07	228.39
813.39	228.38
813.71	228.35
814.03	228.22
814.35	228.17
814.67	227.95
814.98	227.83
815.30	227.74
815.62	227.60
815.94	227.28
816.26	227.46
816.58	227.32
816.89	227.28
817.21	227.18
817.53	227.22
817.85	227.18
818.17	227.12
818.48	226.93
818.80	227.00
819.12	226.85
819.44	226.75
819.76	226.69
820.07	226.67
820.39	226.66
820.71	226.69
821.03	226.80
821.34	226.72
821.66	226.79
821.98	226.81
822.30	226.83
822.61	227.10
822.93	226.85
823.25	226.90
823.57	226.91
823.88	227.01
824.20	226.99
824.52	227.07
824.83	227.05
825.15	226.99
825.47	226.97
825.79	227.01
826.10	227.05
826.42	227.02
826.74	227.07
827.05	227.04
827.37	227.06
827.69	227.07
828.00	227.12
828.32	227.10
828.64	227.12
828.95	227.47
829.27	227.27
829.58	227.22
829.90	227.28
830.22	227.30
830.53	227.18
830.85	227.11
831.17	227.03
831.48	227.07
831.80	227.09
832.11	227.12
832.43	227.14
832.75	227.08
833.06	227.39
833.38	227.22
833.69	227.19
834.01	227.28
834.32	227.29
834.64	227.24
834.96	227.27
835.27	227.25
835.59	227.05
835.90	227.07
836.22	227.14
836.53	227.04
836.85	227.00
837.16	227.53
837.48	227.55
837.79	227.68
838.11	227.71
838.42	227.74
838.74	227.75
839.05	227.67
839.37	227.65
839.68	227.37
840.00	227.38
840.31	227.48
840.63	227.32
840.94	227.22
841.26	227.13
841.57	227.07
841.88	227.11
842.20	226.96
842.51	226.92
842.83	226.89
843.14	227.39
843.46	227.43
843.77	227.15
844.08	227.09
844.40	226.95
844.71	226.92
845.03	226.90
845.34	226.82
845.65	226.88
845.97	226.91
846.28	226.94
846.60	226.96
846.91	226.85
847.22	226.87
847.54	226.97
847.85	227.12
848.16	227.14
848.48	227.10
848.79	227.37
849.10	227.36
849.42	227.38
849.73	226.86
850.04	226.76
850.36	226.55
850.67	226.70
850.98	226.71
851.30	226.76
851.61	226.75
851.92	226.82
852.23	226.89
852.55	226.92
852.86	226.90
853.17	226.92
853.49	227.08
853.80	227.18
854.11	227.19
854.42	227.12
854.74	227.14
855.05	227.12
855.36	226.86
855.67	226.89
855.99	226.89
856.30	227.48
856.61	227.54
856.92	227.59
857.23	227.54
857.55	227.43
857.86	227.40
858.17	227.43
858.48	227.32
858.79	227.26
859.11	227.29
859.42	227.21
859.73	227.17
860.04	227.13
860.35	227.03
860.66	226.87
860.98	226.90
861.29	226.89
861.60	226.85
861.91	226.91
862.22	226.79
862.53	226.78
862.84	226.20
863.16	226.28
863.47	226.15
863.78	226.12
864.09	226.23
864.40	226.23
864.71	226.27
865.02	226.21
865.33	226.19
865.64	226.14
865.95	226.27
866.27	226.60
866.58	226.45
866.89	226.48
867.20	226.51
867.51	226.39
867.82	226.32
868.13	226.43
868.44	226.42
868.75	226.57
869.06	226.52
869.37	226.57
869.68	226.40
869.99	226.48
870.30	226.49
870.61	226.49
870.92	226.43
871.23	226.37
871.54	226.54
871.85	226.57
872.16	226.55
872.47	226.47
872.78	226.18
873.09	226.29
873.40	226.24
873.71	226.24
874.02	226.37
874.33	226.44
874.64	226.30
874.95	226.32
875.26	226.25
875.56	226.26
875.87	226.31
876.18	226.28
876.49	226.73
876.80	226.70
877.11	226.67
877.42	226.77
877.73	226.75
878.04	226.69
878.35	226.73
878.66	226.79
878.96	226.81
879.27	226.85
879.58	226.90
879.89	226.83
880.20	226.98
880.51	226.87
880.82	226.81
881.12	226.89
881.43	226.78
881.74	226.69
882.05	226.61
882.36	226.58
882.67	226.68
882.97	226.21
883.28	226.13
883.59	226.07
883.90	226.04
884.21	226.10
884.51	226.06
884.82	225.98
885.13	225.95
885.44	225.94
885.74	225.89
886.05	225.88
886.36	225.93
886.67	225.75
886.98	226.09
887.28	226.16
887.59	226.17
887.90	226.25
888.20	226.22
888.51	226.39
888.82	226.32
889.13	226.33
889.43	226.73
889.74	226.71
890.05	226.71
890.35	226.63
890.66	226.57
890.97	226.51
891.28	226.44
891.58	226.49
891.89	226.50
892.20	226.49
892.50	226.39
892.81	226.41
893.12	226.40
893.42	226.17
893.73	226.22
894.04	226.20
894.34	226.22
894.65	226.26
894.95	226.17
895.26	226.15
895.57	226.29
895.87	225.81
896.18	225.94
896.48	225.98
896.79	225.93
897.10	225.99
897.40	225.99
897.71	226.08
898.01	226.05
898.32	226.04
898.63	226.02
898.93	226.03
899.24	226.07
899.54	226.06
899.85	225.93
900.15	225.83
900.46	225.79
900.76	225.83
901.07	225.80
901.38	225.80
901.68	225.85
901.99	225.64
902.29	225.76
902.60	225.70
902.90	225.72
903.21	225.73
903.51	225.68
903.82	225.83
904.12	225.80
904.43	225.84
904.73	225.90
905.03	225.91
905.34	226.34
905.64	226.26
905.95	226.28
906.25	226.32
906.56	226.33
906.86	226.34
907.17	226.29
907.47	226.39
907.77	226.34
908.08	226.28
908.38	226.33
908.69	226.25
908.99	226.39
909.30	226.41
909.60	226.45
909.90	226.47
910.21	226.31
910.51	226.32
910.81	226.32
911.12	226.24
911.42	226.24
911.73	225.75
912.03	225.77
912.33	225.89
912.64	225.80
912.94	225.79
913.24	225.68
913.55	225.64
913.85	225.60
914.15	225.72
914.46	225.82
914.76	225.75
915.06	225.76
915.37	225.63
915.67	225.61
915.97	225.63
916.27	225.60
916.58	225.65
916.88	225.63
917.18	225.55
917.49	225.90
917.79	225.93
918.09	226.03
918.39	226.15
918.70	226.09
919.00	226.17
919.30	226.32
919.60	226.38
919.91	226.36
920.21	226.38
920.51	226.24
920.81	226.23
921.12	226.29
921.42	226.29
921.72	226.34
922.02	226.31
922.32	226.33
922.63	226.36
922.93	226.58
923.23	226.51
923.53	226.50
923.83	226.19
924.13	226.24
924.44	226.21
924.74	226.20
925.04	226.31
925.34	226.28
925.64	226.15
925.94	226.09
926.24	226.36
926.55	226.26
926.85	226.39
927.15	226.34
927.45	226.39
927.75	226.31
928.05	226.29
928.35	226.30
928.65	226.36
928.95	226.33
929.26	226.17
929.56	226.27
929.86	226.39
930.16	226.33
930.46	226.23
930.76	226.23
931.06	226.11
931.36	225.97
931.66	226.14
931.96	226.20
932.26	226.32
932.56	226.11
932.86	226.17
933.16	226.11
933.46	226.03
933.76	225.97
934.06	226.08
934.36	226.29
934.66	226.28
934.96	226.19
935.26	226.23
935.56	226.28
935.86	226.19
936.16	226.03
936.46	225.97
936.76	226.01
937.06	226.00
937.36	225.99
937.66	226.04
937.96	225.91
938.26	225.77
938.56	225.68
938.86	225.70
939.16	225.77
939.46	225.85
939.76	225.95
940.06	225.87
940.35	225.81
940.65	225.51
940.95	225.61
941.25	225.55
941.55	225.49
941.85	225.45
942.15	225.60
942.45	225.75
942.75	225.77
943.04	225.77
943.34	225.87
943.64	225.85
943.94	225.74
944.24	225.72
944.54	225.81
944.84	225.82
945.13	225.70
945.43	225.67
945.73	225.63
946.03	225.55
946.33	225.57
946.62	225.52
946.92	225.53
947.22	225.52
947.52	225.54
947.82	225.60
948.11	225.55
948.41	225.42
948.71	225.30
949.01	225.32
949.31	225.30
949.60	225.20
949.90	225.31
950.20	225.31
950.50	225.36
950.79	225.30
951.09	225.38
951.39	225.38
951.69	225.33
951.98	225.42
952.28	225.45
952.58	225.39
952.87	225.46
953.17	225.53
953.47	225.44
953.76	225.45
954.06	225.35
954.36	225.25
954.66	225.15
954.95	225.25
955.25	225.25
955.55	225.24
955.84	225.20
956.14	225.15
956.44	225.26
956.73	225.25
957.03	225.30
957.32	225.33
957.62	225.37
957.92	225.50
958.21	225.45
958.51	226.05
958.81	226.10
959.10	226.17
959.40	226.32
959.69	226.37
959.99	226.43
960.29	226.40
960.58	226.45
960.88	226.73
961.17	226.66
961.47	226.71
961.76	226.72
962.06	226.81
962.36	226.80
962.65	226.70
962.95	226.60
963.24	226.51
963.54	226.52
963.83	226.50
964.13	226.45
964.42	226.32
964.72	225.90
965.01	225.94
965.31	225.84
965.60	225.71
965.90	226.00
966.19	225.92
966.49	226.03
966.78	226.03
967.08	225.99
967.37	226.04
967.67	226.00
967.96	226.10
968.26	226.09
968.55	226.19
968.85	226.26
969.14	226.33
969.43	226.38
969.73	226.31
970.02	226.33
970.32	226.26
970.61	226.24
970.91	226.12
971.20	226.07
971.49	226.05
971.79	226.07
972.08	225.73
972.38	225.70
972.67	225.65
972.96	225.71
973.26	225.58
973.55	225.78
973.85	225.81
974.14	225.79
974.43	225.85
974.73	225.75
975.02	225.74
975.31	225.71
975.61	225.74
975.90	225.70
976.19	225.70
976.49	225.80
976.78	225.88
977.07	225.88
977.37	225.95
977.66	225.99
977.95	225.90
978.24	225.94
978.54	226.09
978.83	226.09
979.12	226.01
979.42	226.01
979.71	225.85
980.00	225.82
980.29	225.80
980.59	225.62
980.88	225.75
981.17	225.69
981.46	225.70
981.76	225.64
982.05	225.73
982.34	225.73
982.63	225.72
982.93	225.69
983.22	225.86
983.51	225.89
983.80	225.94
984.09	226.05
984.39	225.97
984.68	225.92
984.97	225.93
985.26	225.83
985.55	225.85
985.85	225.71
986.14	225.79
986.43	225.82
986.72	225.77
987.01	225.57
987.30	225.55
987.59	225.48
987.89	225.49
988.18	225.32
988.47	225.16
988.76	225.00
989.05	224.91
989.34	224.78
989.63	224.81
989.92	224.78
990.22	224.69
990.51	224.75
990.80	224.72
991.09	224.78
991.38	224.94
991.67	224.93
991.96	224.91
992.25	224.93
992.54	224.79
992.83	224.85
993.12	224.85
993.41	224.94
993.70	225.14
993.99	225.31
994.28	225.39
994.58	225.52
994.87	225.50
995.16	225.51
995.45	225.43
995.74	225.28
996.03	225.39
996.32	225.47
996.61	225.51
996.90	225.43
997.19	225.36
997.48	225.37
997.77	225.30
998.06	225.37
998.34	225.23
998.63	225.25
998.92	225.28
999.21	225.28
999.50	225.27
999.79	225.09
1000.08	224.99
1000.37	225.05
1000.66	225.03
1000.95	225.17
1001.24	225.26
1001.53	225.38
1001.82	225.40
1002.11	225.21
1002.40	225.26
1002.68	225.37
1002.97	225.79
1003.26	225.78
1003.55	225.70
1003.84	225.72
1004.13	225.87
1004.42	225.90
1004.71	225.95
1004.99	225.93
1005.28	226.13
1005.57	226.06
1005.86	226.06
1006.15	226.01
1006.44	225.90
1006.72	225.95
1007.01	225.92
1007.30	225.89
1007.59	225.85
1007.88	225.80
1008.17	225.86
1008.45	225.72
1008.74	225.58
1009.03	225.34
1009.32	225.30
1009.60	225.33
1009.89	225.31
1010.18	225.10
1010.47	225.09
1010.76	225.07
1011.04	225.04
1011.33	225.01
1011.62	225.05
1011.91	225.09
1012.19	225.10
1012.48	225.07
1012.77	225.05
1013.05	225.27
1013.34	225.34
1013.63	225.32
1013.92	225.42
1014.20	225.37
1014.49	225.41
1014.78	225.53
1015.06	225.36
1015.35	225.39
1015.64	225.43
1015.92	225.50
1016.21	225.64
1016.50	225.65
1016.78	225.72
1017.07	225.85
1017.36	225.75
1017.64	225.68
1017.93	225.70
1018.22	225.68
1018.50	225.77
1018.79	225.80
1019.08	225.62
1019.36	225.58
1019.65	225.55
1019.93	225.68
1020.22	225.81
1020.51	226.04
1020.79	225.90
1021.08	224.15
1021.36	225.60
1021.65	225.65
1021.94	226.45
1022.22	225.50
1022.51	225.45
1022.79	228.40
1023.08	227.00
1023.36	230.55
1023.65	224.70
>>>>>End Processed Spectral Data<<<<<
