SpectraSuite Data File
++++++++++++++++++++++++++++++++++++
Date: Wed Sep 04 17:43:56 EDT 2013
User: lab3
Dark Spectrum Present: Yes
Reference Spectrum Present: No
Number of Sampled Component Spectra: 1
Spectrometers: USB2E7196
Integration Time (usec): 170000 (USB2E7196)
Spectra Averaged: 20 (USB2E7196)
Boxcar Smoothing: 10 (USB2E7196)
Correct for Electrical Dark: No (USB2E7196)
Strobe/Lamp Enabled: No (USB2E7196)
Correct for Detector Non-linearity: No (USB2E7196)
Correct for Stray Light: No (USB2E7196)
Number of Pixels in Processed Spectrum: 2048
>>>>>Begin Processed Spectral Data<<<<<
339.09	0.00
339.48	213.10
339.86	212.80
340.24	215.85
340.63	216.55
341.01	225.50
341.39	221.00
341.78	222.70
342.16	224.50
342.54	222.75
342.93	212.21
343.31	222.91
343.69	223.46
344.07	224.00
344.46	224.49
344.84	224.98
345.22	224.93
345.60	225.18
345.99	225.33
346.37	225.43
346.75	225.55
347.13	225.55
347.52	225.71
347.90	225.80
348.28	225.73
348.66	225.86
349.05	225.77
349.43	225.88
349.81	225.93
350.19	225.95
350.57	226.02
350.96	226.01
351.34	226.09
351.72	226.16
352.10	226.26
352.48	226.31
352.87	226.29
353.25	226.40
353.63	226.45
354.01	226.51
354.39	226.59
354.77	226.66
355.15	226.84
355.54	226.71
355.92	226.71
356.30	226.85
356.68	227.24
357.06	227.29
357.44	227.21
357.82	227.27
358.20	227.76
358.58	227.87
358.97	227.99
359.35	228.11
359.73	228.30
360.11	228.33
360.49	228.39
360.87	228.45
361.25	228.57
361.63	228.78
362.01	228.86
362.39	228.83
362.77	228.92
363.15	228.99
363.53	229.13
363.91	229.19
364.29	229.20
364.67	228.79
365.05	228.80
365.43	228.92
365.81	229.05
366.19	228.93
366.57	229.05
366.95	229.08
367.33	229.01
367.71	228.99
368.09	229.08
368.47	229.04
368.85	229.04
369.23	229.05
369.61	228.86
369.99	229.03
370.37	229.11
370.75	229.31
371.13	229.13
371.51	229.02
371.89	229.07
372.27	229.06
372.65	229.10
373.03	229.17
373.41	229.08
373.78	228.96
374.16	228.69
374.54	228.56
374.92	228.47
375.30	228.40
375.68	228.28
376.06	228.29
376.44	228.19
376.82	228.13
377.19	228.05
377.57	227.96
377.95	227.71
378.33	227.54
378.71	227.17
379.09	227.21
379.47	227.22
379.84	227.05
380.22	226.97
380.60	226.80
380.98	226.63
381.36	226.63
381.73	226.52
382.11	226.52
382.49	226.50
382.87	226.41
383.25	226.43
383.62	226.90
384.00	226.70
384.38	226.75
384.76	226.83
385.13	227.03
385.51	227.01
385.89	226.86
386.27	226.92
386.64	227.00
387.02	226.92
387.40	226.82
387.78	226.83
388.15	226.77
388.53	226.77
388.91	226.77
389.29	226.68
389.66	226.76
390.04	226.60
390.42	226.58
390.79	226.53
391.17	226.50
391.55	226.00
391.92	225.94
392.30	225.99
392.68	225.85
393.05	225.74
393.43	225.74
393.81	225.86
394.18	225.75
394.56	225.78
394.94	225.87
395.31	225.91
395.69	226.08
396.06	226.26
396.44	226.32
396.82	226.29
397.19	226.59
397.57	226.53
397.95	226.83
398.32	226.79
398.70	226.89
399.07	226.99
399.45	226.99
399.82	227.13
400.20	227.06
400.58	227.12
400.95	227.03
401.33	227.19
401.70	227.55
402.08	227.69
402.45	227.81
402.83	228.01
403.20	228.17
403.58	228.28
403.95	228.40
404.33	228.64
404.71	228.89
405.08	229.32
405.46	229.53
405.83	229.59
406.21	229.79
406.58	230.06
406.96	230.31
407.33	230.62
407.70	231.04
408.08	231.81
408.45	232.29
408.83	232.76
409.20	233.14
409.58	233.30
409.95	233.79
410.33	234.27
410.70	234.65
411.08	235.23
411.45	235.76
411.82	236.32
412.20	237.06
412.57	238.00
412.95	238.29
413.32	239.20
413.69	240.10
414.07	241.06
414.44	242.05
414.82	243.05
415.19	244.29
415.56	245.39
415.94	246.30
416.31	247.66
416.68	249.04
417.06	250.59
417.43	252.12
417.81	253.94
418.18	255.68
418.55	257.58
418.93	259.57
419.30	261.56
419.67	263.77
420.04	265.86
420.42	268.04
420.79	270.96
421.16	273.55
421.54	276.49
421.91	279.28
422.28	282.23
422.66	285.43
423.03	288.73
423.40	291.89
423.77	295.33
424.15	298.80
424.52	302.39
424.89	306.49
425.26	310.29
425.64	313.90
426.01	317.96
426.38	322.14
426.75	326.43
427.13	330.81
427.50	335.37
427.87	340.06
428.24	344.93
428.61	349.35
428.99	354.47
429.36	359.75
429.73	365.16
430.10	370.59
430.47	376.03
430.85	381.48
431.22	387.59
431.59	394.30
431.96	400.35
432.33	407.04
432.70	413.38
433.08	421.00
433.45	428.17
433.82	435.25
434.19	443.29
434.56	451.15
434.93	458.58
435.30	466.03
435.68	474.36
436.05	482.30
436.42	490.44
436.79	497.88
437.16	505.81
437.53	514.29
437.90	522.61
438.27	530.97
438.64	539.53
439.01	547.44
439.38	554.39
439.75	561.19
440.13	569.06
440.50	576.33
440.87	582.22
441.24	588.21
441.61	595.04
441.98	600.00
442.35	605.70
442.72	611.44
443.09	617.24
443.46	620.49
443.83	622.88
444.20	624.66
444.57	627.39
444.94	628.63
445.31	629.63
445.68	631.01
446.05	631.10
446.42	629.88
446.79	628.54
447.16	626.82
447.53	625.65
447.90	622.06
448.27	618.61
448.64	613.92
449.01	610.57
449.37	604.57
449.74	598.73
450.11	592.06
450.48	584.80
450.85	576.91
451.22	570.44
451.59	564.05
451.96	557.93
452.33	549.96
452.70	542.83
453.07	534.50
453.43	525.61
453.80	517.49
454.17	509.64
454.54	502.21
454.91	494.38
455.28	486.71
455.65	479.56
456.02	472.94
456.38	466.78
456.75	459.29
457.12	453.04
457.49	446.86
457.86	440.70
458.23	435.79
458.59	430.38
458.96	424.80
459.33	419.87
459.70	415.01
460.07	411.09
460.43	406.53
460.80	402.36
461.17	398.82
461.54	395.10
461.91	391.50
462.27	387.83
462.64	384.60
463.01	381.23
463.38	378.03
463.74	374.10
464.11	371.22
464.48	368.59
464.85	365.86
465.21	363.80
465.58	361.55
465.95	358.68
466.32	356.40
466.68	354.20
467.05	352.10
467.42	350.01
467.78	347.87
468.15	345.79
468.52	344.40
468.88	342.32
469.25	340.36
469.62	338.97
469.98	337.39
470.35	335.97
470.72	334.46
471.08	332.78
471.45	331.60
471.82	330.37
472.18	329.00
472.55	327.99
472.92	326.71
473.28	325.66
473.65	324.55
474.02	323.57
474.38	322.82
474.75	322.11
475.11	321.27
475.48	320.71
475.85	320.21
476.21	319.50
476.58	318.95
476.94	318.65
477.31	318.25
477.67	317.80
478.04	317.47
478.41	317.33
478.77	317.62
479.14	317.35
479.50	317.28
479.87	317.34
480.23	317.33
480.60	317.33
480.96	317.37
481.33	317.82
481.69	318.07
482.06	318.17
482.42	318.37
482.79	318.71
483.15	319.08
483.52	319.55
483.88	320.05
484.25	320.64
484.61	321.30
484.98	321.87
485.34	322.87
485.71	323.83
486.07	324.81
486.44	325.37
486.80	326.37
487.17	327.54
487.53	328.93
487.90	330.32
488.26	332.03
488.62	333.63
488.99	335.09
489.35	336.83
489.72	338.78
490.08	340.82
490.44	342.88
490.81	345.03
491.17	347.30
491.54	349.72
491.90	352.25
492.26	354.78
492.63	357.61
492.99	360.45
493.36	363.54
493.72	366.82
494.08	370.20
494.45	373.98
494.81	377.74
495.17	381.50
495.54	385.64
495.90	389.73
496.26	394.14
496.63	398.78
496.99	403.53
497.35	408.49
497.72	413.64
498.08	418.93
498.44	424.62
498.80	430.61
499.17	436.45
499.53	442.65
499.89	449.28
500.26	455.88
500.62	462.62
500.98	469.81
501.34	477.11
501.71	484.79
502.07	492.39
502.43	500.31
502.79	508.47
503.16	516.96
503.52	525.79
503.88	534.90
504.24	544.30
504.60	554.06
504.97	564.25
505.33	574.41
505.69	585.39
506.05	596.06
506.41	606.96
506.78	618.44
507.14	630.16
507.50	641.98
507.86	654.50
508.22	667.30
508.59	680.01
508.95	693.45
509.31	707.19
509.67	721.22
510.03	735.28
510.39	749.66
510.75	764.17
511.12	779.04
511.48	794.24
511.84	809.65
512.20	825.14
512.56	840.88
512.92	857.38
513.28	873.69
513.64	890.43
514.00	907.41
514.37	924.93
514.73	942.67
515.09	960.62
515.45	978.46
515.81	996.39
516.17	1014.57
516.53	1032.55
516.89	1050.60
517.25	1069.41
517.61	1088.97
517.97	1108.59
518.33	1128.39
518.69	1147.97
519.05	1167.92
519.41	1187.88
519.77	1208.26
520.13	1228.34
520.49	1248.21
520.85	1268.43
521.21	1289.15
521.57	1309.72
521.93	1329.69
522.29	1350.02
522.65	1370.06
523.01	1390.02
523.37	1409.92
523.73	1430.25
524.09	1450.08
524.45	1470.10
524.81	1490.08
525.17	1509.79
525.53	1529.65
525.89	1549.62
526.25	1569.41
526.61	1588.91
526.97	1608.90
527.33	1629.33
527.68	1650.10
528.04	1670.33
528.40	1690.43
528.76	1710.60
529.12	1730.26
529.48	1750.10
529.84	1769.13
530.20	1789.32
530.56	1809.24
530.91	1828.99
531.27	1848.44
531.63	1867.76
531.99	1887.32
532.35	1906.11
532.71	1925.35
533.07	1944.76
533.42	1963.41
533.78	1982.52
534.14	2001.15
534.50	2019.35
534.86	2037.18
535.21	2053.53
535.57	2070.76
535.93	2087.41
536.29	2103.74
536.65	2120.60
537.00	2137.18
537.36	2153.77
537.72	2169.06
538.08	2184.92
538.44	2200.81
538.79	2216.02
539.15	2231.64
539.51	2246.50
539.87	2260.65
540.22	2273.34
540.58	2286.79
540.94	2299.05
541.29	2310.52
541.65	2322.49
542.01	2334.19
542.37	2344.11
542.72	2354.30
543.08	2364.22
543.44	2374.61
543.79	2383.74
544.15	2392.51
544.51	2401.73
544.87	2410.32
545.22	2417.86
545.58	2424.78
545.94	2430.95
546.29	2436.61
546.65	2442.30
547.01	2447.16
547.36	2451.96
547.72	2456.84
548.07	2459.92
548.43	2463.98
548.79	2467.67
549.14	2470.98
549.50	2473.88
549.86	2476.91
550.21	2479.76
550.57	2482.52
550.92	2483.44
551.28	2483.95
551.64	2485.67
551.99	2486.26
552.35	2486.70
552.70	2488.27
553.06	2489.56
553.41	2489.71
553.77	2490.80
554.13	2491.50
554.48	2492.19
554.84	2492.58
555.19	2493.24
555.55	2494.33
555.90	2493.35
556.26	2492.09
556.61	2489.55
556.97	2486.71
557.32	2485.40
557.68	2484.13
558.03	2481.78
558.39	2480.06
558.74	2478.99
559.10	2475.35
559.45	2471.66
559.81	2467.32
560.16	2461.78
560.52	2456.20
560.87	2452.09
561.23	2446.26
561.58	2439.72
561.94	2432.80
562.29	2425.66
562.64	2418.30
563.00	2410.00
563.35	2403.14
563.71	2396.33
564.06	2390.10
564.42	2383.63
564.77	2376.54
565.12	2368.49
565.48	2360.88
565.83	2352.89
566.19	2344.44
566.54	2336.36
566.89	2328.40
567.25	2320.69
567.60	2313.35
567.96	2305.83
568.31	2297.55
568.66	2289.20
569.02	2280.70
569.37	2272.62
569.72	2265.25
570.08	2256.38
570.43	2246.97
570.78	2238.14
571.14	2228.85
571.49	2218.86
571.84	2209.45
572.20	2198.88
572.55	2189.15
572.90	2178.57
573.26	2168.20
573.61	2157.60
573.96	2146.96
574.31	2135.28
574.67	2123.91
575.02	2111.93
575.37	2099.50
575.72	2086.86
576.08	2075.17
576.43	2063.04
576.78	2050.28
577.13	2037.25
577.49	2024.84
577.84	2013.36
578.19	2001.78
578.54	1989.88
578.90	1978.46
579.25	1966.69
579.60	1954.88
579.95	1942.51
580.30	1930.10
580.66	1917.21
581.01	1904.23
581.36	1890.98
581.71	1878.97
582.06	1866.55
582.42	1854.55
582.77	1842.66
583.12	1831.57
583.47	1819.56
583.82	1808.11
584.17	1796.79
584.53	1785.30
584.88	1773.03
585.23	1760.45
585.58	1747.07
585.93	1734.55
586.28	1722.17
586.63	1708.92
586.98	1695.51
587.34	1683.07
587.69	1670.47
588.04	1658.94
588.39	1647.75
588.74	1636.15
589.09	1624.54
589.44	1612.54
589.79	1601.06
590.14	1589.77
590.49	1577.94
590.84	1566.81
591.19	1555.65
591.54	1543.82
591.89	1532.24
592.25	1522.84
592.60	1511.99
592.95	1501.32
593.30	1490.09
593.65	1478.46
594.00	1467.14
594.35	1458.10
594.70	1446.92
595.05	1436.10
595.40	1424.56
595.75	1413.14
596.10	1402.61
596.45	1392.14
596.80	1382.07
597.15	1371.36
597.50	1360.19
597.85	1349.62
598.19	1338.60
598.54	1327.66
598.89	1317.26
599.24	1307.59
599.59	1296.52
599.94	1286.52
600.29	1276.63
600.64	1266.92
600.99	1256.94
601.34	1247.97
601.69	1237.10
602.04	1228.00
602.39	1219.07
602.74	1210.60
603.08	1201.90
603.43	1193.34
603.78	1184.09
604.13	1174.94
604.48	1165.79
604.83	1157.09
605.18	1147.83
605.53	1138.95
605.87	1130.17
606.22	1122.12
606.57	1113.19
606.92	1104.58
607.27	1096.35
607.62	1088.21
607.96	1080.22
608.31	1073.18
608.66	1065.33
609.01	1057.54
609.36	1049.71
609.70	1041.80
610.05	1033.80
610.40	1026.04
610.75	1017.90
611.10	1010.06
611.44	1002.00
611.79	994.51
612.14	987.01
612.49	979.75
612.83	972.87
613.18	965.75
613.53	958.70
613.88	951.42
614.22	944.15
614.57	936.64
614.92	929.36
615.27	922.40
615.61	914.85
615.96	907.69
616.31	900.47
616.65	893.66
617.00	886.86
617.35	880.06
617.70	873.30
618.04	866.69
618.39	860.26
618.74	854.41
619.08	848.12
619.43	841.61
619.78	835.11
620.12	828.29
620.47	821.85
620.82	814.97
621.16	808.64
621.51	802.84
621.85	796.92
622.20	790.94
622.55	784.71
622.89	778.76
623.24	772.88
623.59	767.10
623.93	761.24
624.28	755.51
624.62	750.19
624.97	744.66
625.32	739.21
625.66	733.75
626.01	728.17
626.35	722.79
626.70	717.72
627.04	712.81
627.39	707.75
627.73	702.84
628.08	698.19
628.43	693.08
628.77	687.89
629.12	683.20
629.46	678.65
629.81	674.35
630.15	669.97
630.50	665.40
630.84	660.90
631.19	656.50
631.53	652.17
631.88	647.27
632.22	642.83
632.57	638.71
632.91	634.32
633.26	630.03
633.60	625.81
633.95	621.45
634.29	616.93
634.64	612.86
634.98	608.44
635.32	604.29
635.67	600.76
636.01	596.88
636.36	592.78
636.70	588.93
637.05	584.88
637.39	580.93
637.73	577.20
638.08	573.55
638.42	569.46
638.77	565.38
639.11	561.30
639.45	557.28
639.80	553.21
640.14	549.40
640.49	545.78
640.83	542.20
641.17	538.72
641.52	535.31
641.86	531.96
642.20	529.00
642.55	525.67
642.89	522.16
643.23	518.92
643.58	515.87
643.92	512.36
644.26	509.15
644.61	506.15
644.95	502.85
645.29	499.66
645.64	496.81
645.98	493.96
646.32	491.34
646.66	488.51
647.01	485.79
647.35	483.23
647.69	480.44
648.04	477.84
648.38	475.32
648.72	472.67
649.06	469.82
649.41	466.83
649.75	464.00
650.09	461.29
650.43	458.58
650.78	455.86
651.12	453.38
651.46	450.79
651.80	448.13
652.14	445.82
652.49	443.45
652.83	441.03
653.17	438.56
653.51	436.01
653.85	433.71
654.20	431.39
654.54	428.93
654.88	426.53
655.22	424.33
655.56	422.01
655.90	419.89
656.25	417.70
656.59	415.70
656.93	413.75
657.27	411.77
657.61	409.45
657.95	407.30
658.29	405.25
658.64	403.34
658.98	401.28
659.32	398.97
659.66	397.00
660.00	394.99
660.34	393.11
660.68	391.21
661.02	389.28
661.36	387.35
661.70	385.50
662.05	383.72
662.39	381.97
662.73	380.28
663.07	378.83
663.41	377.23
663.75	375.45
664.09	373.68
664.43	371.91
664.77	370.44
665.11	368.85
665.45	367.27
665.79	365.73
666.13	364.07
666.47	362.60
666.81	361.00
667.15	359.41
667.49	358.00
667.83	356.78
668.17	355.51
668.51	354.14
668.85	352.80
669.19	351.73
669.53	350.15
669.87	348.58
670.21	346.99
670.55	345.66
670.89	344.65
671.23	343.29
671.57	341.94
671.91	340.60
672.25	339.36
672.58	338.16
672.92	336.75
673.26	335.66
673.60	334.58
673.94	333.51
674.28	332.46
674.62	331.39
674.96	330.10
675.30	328.84
675.64	327.65
675.97	326.55
676.31	325.33
676.65	324.25
676.99	323.53
677.33	322.44
677.67	321.40
678.01	320.09
678.34	319.20
678.68	318.41
679.02	317.43
679.36	316.53
679.70	315.56
680.04	314.73
680.37	313.82
680.71	312.88
681.05	311.91
681.39	311.04
681.73	310.08
682.06	309.27
682.40	308.53
682.74	307.84
683.08	307.11
683.42	306.20
683.75	305.40
684.09	304.27
684.43	303.51
684.77	302.71
685.10	301.94
685.44	301.23
685.78	300.38
686.12	299.66
686.45	298.84
686.79	298.04
687.13	297.45
687.46	296.69
687.80	296.14
688.14	295.37
688.48	294.69
688.81	293.95
689.15	293.31
689.49	292.59
689.82	291.83
690.16	291.00
690.50	290.38
690.83	289.70
691.17	289.15
691.51	288.40
691.84	287.85
692.18	287.15
692.52	286.43
692.85	285.84
693.19	285.52
693.52	284.96
693.86	284.44
694.20	283.71
694.53	283.17
694.87	282.47
695.21	282.00
695.54	281.41
695.88	280.77
696.21	280.04
696.55	279.43
696.88	278.96
697.22	278.42
697.56	277.86
697.89	277.29
698.23	276.73
698.56	276.25
698.90	275.72
699.23	275.27
699.57	274.81
699.90	274.21
700.24	273.47
700.58	273.00
700.91	272.55
701.25	272.48
701.58	272.32
701.92	271.99
702.25	271.49
702.59	271.05
702.92	270.68
703.26	270.34
703.59	269.90
703.93	269.89
704.26	269.53
704.60	269.09
704.93	268.71
705.26	268.30
705.60	267.95
705.93	267.48
706.27	267.24
706.60	266.91
706.94	266.80
707.27	266.49
707.61	266.17
707.94	265.77
708.27	265.07
708.61	264.40
708.94	263.99
709.28	263.63
709.61	263.21
709.94	262.88
710.28	262.56
710.61	262.29
710.95	261.44
711.28	261.30
711.61	261.00
711.95	260.78
712.28	260.37
712.61	260.10
712.95	260.09
713.28	259.91
713.61	259.51
713.95	259.02
714.28	258.60
714.61	258.24
714.95	257.91
715.28	257.51
715.61	257.17
715.95	256.92
716.28	256.52
716.61	256.34
716.95	256.00
717.28	255.69
717.61	255.38
717.94	255.12
718.28	254.54
718.61	254.21
718.94	253.85
719.27	253.59
719.61	253.30
719.94	252.89
720.27	252.43
720.60	252.28
720.94	252.05
721.27	251.90
721.60	251.71
721.93	251.50
722.27	251.41
722.60	251.26
722.93	251.00
723.26	250.99
723.59	250.70
723.93	250.55
724.26	250.36
724.59	250.13
724.92	249.97
725.25	249.96
725.59	249.81
725.92	249.67
726.25	249.50
726.58	249.34
726.91	249.12
727.24	249.00
727.57	248.70
727.91	248.37
728.24	248.23
728.57	247.96
728.90	247.87
729.23	247.55
729.56	247.59
729.89	247.33
730.22	247.11
730.55	246.91
730.89	246.82
731.22	246.61
731.55	246.49
731.88	246.32
732.21	246.01
732.54	245.79
732.87	245.64
733.20	245.51
733.53	245.36
733.86	245.18
734.19	244.96
734.52	244.95
734.85	245.17
735.18	245.00
735.51	245.00
735.84	244.80
736.17	244.78
736.50	244.38
736.83	244.81
737.16	244.63
737.49	244.54
737.82	244.35
738.15	244.27
738.48	244.04
738.81	243.87
739.14	243.69
739.47	243.54
739.80	243.42
740.13	243.35
740.46	243.15
740.79	242.90
741.12	242.70
741.45	242.45
741.78	242.07
742.11	242.03
742.44	241.88
742.77	241.75
743.10	241.60
743.43	241.44
743.75	240.84
744.08	241.35
744.41	241.14
744.74	240.93
745.07	240.72
745.40	240.68
745.73	240.78
746.06	240.68
746.39	240.56
746.71	240.36
747.04	240.10
747.37	239.90
747.70	239.99
748.03	239.94
748.36	239.95
748.68	239.75
749.01	239.45
749.34	239.30
749.67	239.30
750.00	239.16
750.33	239.43
750.65	239.34
750.98	238.61
751.31	238.56
751.64	238.50
751.97	238.67
752.29	238.49
752.62	238.11
752.95	237.96
753.28	237.94
753.60	237.80
753.93	237.87
754.26	237.93
754.59	237.67
754.91	237.44
755.24	237.26
755.57	237.26
755.90	237.22
756.22	237.07
756.55	236.83
756.88	236.63
757.20	236.17
757.53	235.91
757.86	235.81
758.19	235.72
758.51	235.56
758.84	235.26
759.17	235.13
759.49	235.05
759.82	235.20
760.15	235.09
760.47	234.99
760.80	234.75
761.13	234.63
761.45	234.42
761.78	234.39
762.11	234.28
762.43	234.04
762.76	233.94
763.08	233.94
763.41	233.88
763.74	233.94
764.06	233.79
764.39	233.75
764.71	233.63
765.04	233.48
765.37	233.39
765.69	233.27
766.02	233.27
766.34	233.16
766.67	232.93
767.00	232.90
767.32	233.15
767.65	233.38
767.97	233.26
768.30	233.31
768.62	233.18
768.95	233.04
769.27	233.04
769.60	232.99
769.92	232.81
770.25	232.59
770.57	232.38
770.90	232.35
771.22	232.27
771.55	232.21
771.87	232.21
772.20	232.09
772.52	232.43
772.85	232.91
773.17	232.88
773.50	232.74
773.82	232.60
774.15	232.30
774.47	231.94
774.80	231.83
775.12	231.75
775.45	231.73
775.77	231.71
776.09	231.67
776.42	231.62
776.74	231.74
777.07	231.70
777.39	231.71
777.72	231.61
778.04	231.63
778.36	231.58
778.69	231.52
779.01	231.56
779.33	231.10
779.66	230.53
779.98	230.58
780.31	230.56
780.63	230.80
780.95	230.80
781.28	230.79
781.60	230.77
781.92	230.79
782.25	230.77
782.57	230.75
782.89	230.75
783.22	230.68
783.54	230.53
783.86	230.63
784.19	230.47
784.51	230.60
784.83	230.47
785.16	230.44
785.48	230.45
785.80	230.50
786.12	230.57
786.45	230.53
786.77	230.46
787.09	230.40
787.42	230.06
787.74	230.04
788.06	229.99
788.38	229.93
788.71	229.89
789.03	229.89
789.35	229.93
789.67	229.82
789.99	229.86
790.32	229.78
790.64	229.74
790.96	230.23
791.28	230.09
791.61	230.06
791.93	230.07
792.25	230.04
792.57	230.34
792.89	230.25
793.21	230.26
793.54	230.22
793.86	230.16
794.18	230.29
794.50	230.17
794.82	230.11
795.14	230.15
795.47	230.12
795.79	230.14
796.11	229.96
796.43	229.94
796.75	229.92
797.07	229.97
797.39	229.99
797.71	229.58
798.04	229.55
798.36	229.59
798.68	229.56
799.00	229.58
799.32	229.23
799.64	229.30
799.96	229.25
800.28	229.30
800.60	229.37
800.92	229.36
801.24	229.38
801.56	229.48
801.89	229.46
802.21	229.55
802.53	229.48
802.85	229.63
803.17	229.88
803.49	229.73
803.81	229.64
804.13	229.56
804.45	229.51
804.77	229.52
805.09	229.51
805.41	229.44
805.73	229.23
806.05	229.08
806.37	228.98
806.69	228.95
807.01	228.86
807.33	228.83
807.65	228.58
807.97	228.70
808.28	228.60
808.60	228.53
808.92	228.39
809.24	228.62
809.56	228.41
809.88	228.18
810.20	228.21
810.52	228.27
810.84	228.16
811.16	228.08
811.48	228.06
811.80	228.20
812.12	228.09
812.43	228.22
812.75	228.30
813.07	228.21
813.39	228.24
813.71	228.18
814.03	228.15
814.35	228.22
814.67	228.02
814.98	227.95
815.30	227.94
815.62	227.88
815.94	227.55
816.26	227.83
816.58	227.65
816.89	227.70
817.21	227.60
817.53	227.72
817.85	227.73
818.17	227.72
818.48	227.54
818.80	227.74
819.12	227.72
819.44	227.56
819.76	227.53
820.07	227.48
820.39	227.45
820.71	227.46
821.03	227.44
821.34	227.43
821.66	227.48
821.98	227.53
822.30	227.46
822.61	227.79
822.93	227.53
823.25	227.57
823.57	227.50
823.88	227.52
824.20	227.39
824.52	227.50
824.83	227.44
825.15	227.40
825.47	227.33
825.79	227.31
826.10	227.31
826.42	227.32
826.74	227.35
827.05	227.34
827.37	227.29
827.69	227.20
828.00	227.24
828.32	227.27
828.64	227.21
828.95	227.49
829.27	227.25
829.58	227.28
829.90	227.34
830.22	227.31
830.53	227.25
830.85	227.28
831.17	227.13
831.48	227.08
831.80	227.05
832.11	227.02
832.43	226.93
832.75	226.89
833.06	227.17
833.38	226.97
833.69	227.00
834.01	227.04
834.32	227.03
834.64	226.99
834.96	226.96
835.27	226.92
835.59	226.73
835.90	226.72
836.22	226.74
836.53	226.70
836.85	226.68
837.16	227.08
837.48	227.04
837.79	227.17
838.11	227.20
838.42	227.21
838.74	227.26
839.05	227.25
839.37	227.26
839.68	226.97
840.00	227.07
840.31	227.10
840.63	227.06
840.94	227.09
841.26	226.95
841.57	226.94
841.88	227.00
842.20	226.98
842.51	226.92
842.83	226.85
843.14	227.25
843.46	227.21
843.77	226.96
844.08	226.86
844.40	226.79
844.71	226.76
845.03	226.71
845.34	226.62
845.65	226.62
845.97	226.64
846.28	226.69
846.60	226.75
846.91	226.65
847.22	226.66
847.54	226.73
847.85	226.81
848.16	226.74
848.48	226.68
848.79	226.95
849.10	226.98
849.42	226.98
849.73	226.59
850.04	226.58
850.36	226.48
850.67	226.69
850.98	226.69
851.30	226.78
851.61	226.79
851.92	226.80
852.23	226.92
852.55	226.94
852.86	226.91
853.17	226.91
853.49	227.09
853.80	227.18
854.11	227.22
854.42	227.31
854.74	227.28
855.05	227.28
855.36	226.97
855.67	227.03
855.99	227.05
856.30	227.60
856.61	227.63
856.92	227.60
857.23	227.55
857.55	227.44
857.86	227.40
858.17	227.51
858.48	227.41
858.79	227.35
859.11	227.46
859.42	227.42
859.73	227.37
860.04	227.29
860.35	227.17
860.66	227.06
860.98	227.01
861.29	227.09
861.60	227.07
861.91	227.19
862.22	227.08
862.53	227.05
862.84	226.48
863.16	226.54
863.47	226.46
863.78	226.38
864.09	226.45
864.40	226.51
864.71	226.47
865.02	226.58
865.33	226.60
865.64	226.46
865.95	226.47
866.27	226.71
866.58	226.70
866.89	226.76
867.20	226.70
867.51	226.60
867.82	226.58
868.13	226.73
868.44	226.60
868.75	226.70
869.06	226.76
869.37	226.79
869.68	226.65
869.99	226.77
870.30	226.87
870.61	226.91
870.92	226.80
871.23	226.76
871.54	226.81
871.85	226.78
872.16	226.81
872.47	226.75
872.78	226.51
873.09	226.55
873.40	226.48
873.71	226.54
874.02	226.62
874.33	226.56
874.64	226.40
874.95	226.49
875.26	226.38
875.56	226.29
875.87	226.26
876.18	226.28
876.49	226.67
876.80	226.58
877.11	226.52
877.42	226.52
877.73	226.52
878.04	226.43
878.35	226.48
878.66	226.45
878.96	226.42
879.27	226.42
879.58	226.35
879.89	226.28
880.20	226.31
880.51	226.31
880.82	226.31
881.12	226.29
881.43	226.17
881.74	226.11
882.05	226.08
882.36	226.09
882.67	226.11
882.97	225.70
883.28	225.66
883.59	225.60
883.90	225.66
884.21	225.67
884.51	225.65
884.82	225.55
885.13	225.64
885.44	225.69
885.74	225.67
886.05	225.61
886.36	225.60
886.67	225.53
886.98	225.66
887.28	225.77
887.59	225.85
887.90	225.85
888.20	225.86
888.51	225.99
888.82	225.99
889.13	226.04
889.43	226.32
889.74	226.23
890.05	226.23
890.35	226.12
890.66	226.09
890.97	226.02
891.28	225.99
891.58	225.97
891.89	225.94
892.20	225.84
892.50	225.77
892.81	225.76
893.12	225.70
893.42	225.55
893.73	225.49
894.04	225.43
894.34	225.51
894.65	225.49
894.95	225.40
895.26	225.36
895.57	225.59
895.87	225.24
896.18	225.36
896.48	225.47
896.79	225.50
897.10	225.53
897.40	225.56
897.71	225.60
898.01	225.51
898.32	225.59
898.63	225.65
898.93	225.78
899.24	225.85
899.54	225.89
899.85	225.89
900.15	225.87
900.46	225.86
900.76	225.91
901.07	225.95
901.38	225.97
901.68	226.10
901.99	225.83
902.29	225.92
902.60	225.91
902.90	225.87
903.21	225.91
903.51	225.95
903.82	226.08
904.12	226.10
904.43	226.15
904.73	226.13
905.03	226.17
905.34	226.67
905.64	226.59
905.95	226.61
906.25	226.62
906.56	226.64
906.86	226.70
907.17	226.60
907.47	226.61
907.77	226.51
908.08	226.42
908.38	226.49
908.69	226.50
908.99	226.51
909.30	226.52
909.60	226.50
909.90	226.49
910.21	226.34
910.51	226.27
910.81	226.31
911.12	226.35
911.42	226.30
911.73	225.75
912.03	225.85
912.33	225.90
912.64	225.85
912.94	225.75
913.24	225.68
913.55	225.65
913.85	225.58
914.15	225.72
914.46	225.77
914.76	225.66
915.06	225.55
915.37	225.45
915.67	225.41
915.97	225.33
916.27	225.20
916.58	225.22
916.88	225.22
917.18	225.10
917.49	225.36
917.79	225.38
918.09	225.42
918.39	225.52
918.70	225.49
919.00	225.48
919.30	225.70
919.60	225.68
919.91	225.63
920.21	225.68
920.51	225.57
920.81	225.47
921.12	225.49
921.42	225.54
921.72	225.57
922.02	225.56
922.32	225.67
922.63	225.73
922.93	225.96
923.23	226.01
923.53	226.02
923.83	225.74
924.13	225.81
924.44	225.86
924.74	225.92
925.04	226.04
925.34	226.00
925.64	225.88
925.94	225.87
926.24	226.21
926.55	226.15
926.85	226.21
927.15	226.25
927.45	226.38
927.75	226.37
928.05	226.41
928.35	226.41
928.65	226.56
928.95	226.62
929.26	226.49
929.56	226.57
929.86	226.67
930.16	226.64
930.46	226.61
930.76	226.62
931.06	226.40
931.36	226.30
931.66	226.43
931.96	226.49
932.26	226.54
932.56	226.30
932.86	226.39
933.16	226.45
933.46	226.41
933.76	226.29
934.06	226.44
934.36	226.65
934.66	226.63
934.96	226.51
935.26	226.47
935.56	226.51
935.86	226.40
936.16	226.31
936.46	226.31
936.76	226.23
937.06	226.18
937.36	226.21
937.66	226.15
937.96	226.14
938.26	226.02
938.56	225.96
938.86	226.00
939.16	226.12
939.46	226.14
939.76	226.22
940.06	226.28
940.35	226.21
940.65	225.98
940.95	226.10
941.25	226.00
941.55	225.99
941.85	225.97
942.15	226.04
942.45	226.18
942.75	226.11
943.04	226.21
943.34	226.28
943.64	226.24
943.94	226.27
944.24	226.31
944.54	226.38
944.84	226.36
945.13	226.29
945.43	226.14
945.73	226.10
946.03	226.08
946.33	225.97
946.62	225.84
946.92	225.82
947.22	225.78
947.52	225.87
947.82	225.91
948.11	225.88
948.41	225.80
948.71	225.62
949.01	225.66
949.31	225.53
949.60	225.44
949.90	225.54
950.20	225.49
950.50	225.43
950.79	225.38
951.09	225.38
951.39	225.40
951.69	225.36
951.98	225.43
952.28	225.38
952.58	225.43
952.87	225.45
953.17	225.49
953.47	225.49
953.76	225.42
954.06	225.32
954.36	225.25
954.66	225.22
954.95	225.38
955.25	225.47
955.55	225.63
955.84	225.61
956.14	225.60
956.44	225.66
956.73	225.65
957.03	225.70
957.32	225.71
957.62	225.65
957.92	225.77
958.21	225.65
958.51	226.19
958.81	226.25
959.10	226.29
959.40	226.40
959.69	226.39
959.99	226.49
960.29	226.57
960.58	226.53
960.88	226.75
961.17	226.64
961.47	226.62
961.76	226.55
962.06	226.63
962.36	226.57
962.65	226.51
962.95	226.52
963.24	226.41
963.54	226.45
963.83	226.51
964.13	226.49
964.42	226.45
964.72	226.06
965.01	226.03
965.31	226.04
965.60	225.88
965.90	226.19
966.19	226.09
966.49	226.08
966.78	226.17
967.08	226.10
967.37	226.20
967.67	226.10
967.96	226.17
968.26	226.11
968.55	226.28
968.85	226.32
969.14	226.28
969.43	226.36
969.73	226.33
970.02	226.35
970.32	226.34
970.61	226.28
970.91	226.16
971.20	226.13
971.49	226.09
971.79	226.23
972.08	225.88
972.38	225.92
972.67	225.87
972.96	225.92
973.26	225.95
973.55	226.13
973.85	226.15
974.14	226.14
974.43	226.20
974.73	226.09
975.02	226.06
975.31	226.11
975.61	226.13
975.90	226.16
976.19	226.15
976.49	226.16
976.78	226.23
977.07	226.29
977.37	226.35
977.66	226.40
977.95	226.29
978.24	226.35
978.54	226.48
978.83	226.48
979.12	226.35
979.42	226.24
979.71	226.04
980.00	226.03
980.29	225.99
980.59	225.89
980.88	225.94
981.17	226.02
981.46	226.06
981.76	226.02
982.05	226.16
982.34	226.15
982.63	226.15
982.93	226.15
983.22	226.25
983.51	226.25
983.80	226.32
984.09	226.34
984.39	226.29
984.68	226.20
984.97	226.25
985.26	226.31
985.55	226.36
985.85	226.27
986.14	226.33
986.43	226.44
986.72	226.41
987.01	226.28
987.30	226.19
987.59	226.09
987.89	226.09
988.18	225.87
988.47	225.87
988.76	225.80
989.05	225.76
989.34	225.63
989.63	225.66
989.92	225.58
990.22	225.51
990.51	225.51
990.80	225.43
991.09	225.46
991.38	225.48
991.67	225.35
991.96	225.31
992.25	225.32
992.54	225.19
992.83	225.19
993.12	225.14
993.41	225.16
993.70	225.39
993.99	225.51
994.28	225.59
994.58	225.63
994.87	225.59
995.16	225.59
995.45	225.53
995.74	225.35
996.03	225.39
996.32	225.51
996.61	225.58
996.90	225.58
997.19	225.49
997.48	225.50
997.77	225.50
998.06	225.56
998.34	225.54
998.63	225.49
998.92	225.57
999.21	225.70
999.50	225.76
999.79	225.56
1000.08	225.48
1000.37	225.49
1000.66	225.43
1000.95	225.55
1001.24	225.62
1001.53	225.74
1001.82	225.90
1002.11	225.85
1002.40	225.93
1002.68	226.06
1002.97	226.39
1003.26	226.38
1003.55	226.33
1003.84	226.41
1004.13	226.58
1004.42	226.55
1004.71	226.63
1004.99	226.57
1005.28	226.66
1005.57	226.60
1005.86	226.61
1006.15	226.64
1006.44	226.65
1006.72	226.74
1007.01	226.70
1007.30	226.63
1007.59	226.59
1007.88	226.51
1008.17	226.55
1008.45	226.42
1008.74	226.16
1009.03	226.01
1009.32	225.98
1009.60	226.02
1009.89	225.96
1010.18	225.72
1010.47	225.63
1010.76	225.63
1011.04	225.63
1011.33	225.68
1011.62	225.70
1011.91	225.68
1012.19	225.70
1012.48	225.69
1012.77	225.66
1013.05	225.88
1013.34	225.91
1013.63	225.86
1013.92	225.85
1014.20	225.78
1014.49	225.81
1014.78	225.89
1015.06	225.73
1015.35	225.77
1015.64	225.77
1015.92	225.86
1016.21	225.90
1016.50	225.94
1016.78	225.99
1017.07	226.03
1017.36	225.87
1017.64	225.77
1017.93	225.89
1018.22	225.86
1018.50	225.88
1018.79	225.87
1019.08	225.65
1019.36	225.69
1019.65	225.67
1019.93	225.80
1020.22	225.94
1020.51	226.20
1020.79	226.19
1021.08	226.05
1021.36	226.55
1021.65	226.25
1021.94	226.00
1022.22	226.20
1022.51	224.60
1022.79	227.65
1023.08	227.75
1023.36	232.05
1023.65	225.40
>>>>>End Processed Spectral Data<<<<<
