SpectraSuite Data File
++++++++++++++++++++++++++++++++++++
Date: Wed Sep 04 17:43:49 EDT 2013
User: lab3
Dark Spectrum Present: Yes
Reference Spectrum Present: No
Number of Sampled Component Spectra: 1
Spectrometers: USB2E7196
Integration Time (usec): 170000 (USB2E7196)
Spectra Averaged: 20 (USB2E7196)
Boxcar Smoothing: 10 (USB2E7196)
Correct for Electrical Dark: No (USB2E7196)
Strobe/Lamp Enabled: No (USB2E7196)
Correct for Detector Non-linearity: No (USB2E7196)
Correct for Stray Light: No (USB2E7196)
Number of Pixels in Processed Spectrum: 2048
>>>>>Begin Processed Spectral Data<<<<<
339.09	0.00
339.48	212.15
339.86	214.20
340.24	216.20
340.63	217.75
341.01	225.65
341.39	220.30
341.78	221.50
342.16	224.30
342.54	223.40
342.93	212.19
343.31	222.84
343.69	223.43
344.07	223.85
344.46	224.34
344.84	224.74
345.22	224.71
345.60	224.96
345.99	225.20
346.37	225.22
346.75	225.28
347.13	225.30
347.52	225.31
347.90	225.51
348.28	225.54
348.66	225.70
349.05	225.54
349.43	225.68
349.81	225.74
350.19	225.80
350.57	225.75
350.96	225.86
351.34	226.01
351.72	226.11
352.10	226.25
352.48	226.28
352.87	226.30
353.25	226.32
353.63	226.39
354.01	226.40
354.39	226.50
354.77	226.61
355.15	226.83
355.54	226.89
355.92	226.79
356.30	226.86
356.68	227.19
357.06	227.34
357.44	227.33
357.82	227.32
358.20	227.74
358.58	227.88
358.97	227.96
359.35	228.12
359.73	228.25
360.11	228.34
360.49	228.40
360.87	228.43
361.25	228.65
361.63	228.85
362.01	228.96
362.39	228.98
362.77	229.04
363.15	229.11
363.53	229.14
363.91	229.20
364.29	229.16
364.67	228.85
365.05	228.86
365.43	228.97
365.81	229.09
366.19	228.91
366.57	229.07
366.95	229.10
367.33	229.00
367.71	229.03
368.09	229.08
368.47	229.10
368.85	229.14
369.23	229.19
369.61	228.96
369.99	229.13
370.37	229.17
370.75	229.37
371.13	229.26
371.51	229.20
371.89	229.27
372.27	229.29
372.65	229.25
373.03	229.28
373.41	229.16
373.78	229.12
374.16	228.85
374.54	228.67
374.92	228.58
375.30	228.56
375.68	228.32
376.06	228.25
376.44	228.11
376.82	228.04
377.19	227.87
377.57	227.84
377.95	227.53
378.33	227.53
378.71	227.23
379.09	227.25
379.47	227.25
379.84	227.13
380.22	227.05
380.60	226.87
380.98	226.74
381.36	226.70
381.73	226.52
382.11	226.57
382.49	226.49
382.87	226.42
383.25	226.32
383.62	226.93
384.00	226.87
384.38	226.84
384.76	226.87
385.13	227.07
385.51	227.00
385.89	226.92
386.27	226.78
386.64	226.85
387.02	226.69
387.40	226.58
387.78	226.58
388.15	226.60
388.53	226.64
388.91	226.56
389.29	226.53
389.66	226.54
390.04	226.47
390.42	226.58
390.79	226.53
391.17	226.50
391.55	225.90
391.92	225.84
392.30	225.89
392.68	225.81
393.05	225.73
393.43	225.82
393.81	225.86
394.18	225.90
394.56	225.89
394.94	226.02
395.31	226.00
395.69	226.13
396.06	226.15
396.44	226.18
396.82	226.22
397.19	226.46
397.57	226.46
397.95	226.58
398.32	226.48
398.70	226.65
399.07	226.81
399.45	226.90
399.82	226.99
400.20	227.02
400.58	227.04
400.95	226.94
401.33	227.10
401.70	227.57
402.08	227.69
402.45	227.81
402.83	228.10
403.20	228.25
403.58	228.39
403.95	228.62
404.33	228.90
404.71	229.14
405.08	229.60
405.46	229.88
405.83	230.14
406.21	230.40
406.58	230.65
406.96	230.88
407.33	231.16
407.70	231.55
408.08	232.30
408.45	232.86
408.83	233.36
409.20	233.72
409.58	233.92
409.95	234.46
410.33	234.96
410.70	235.24
411.08	235.89
411.45	236.46
411.82	237.15
412.20	237.86
412.57	238.78
412.95	239.06
413.32	239.94
413.69	240.73
414.07	241.62
414.44	242.60
414.82	243.66
415.19	244.80
415.56	245.97
415.94	246.96
416.31	248.31
416.68	249.60
417.06	251.11
417.43	252.61
417.81	254.25
418.18	255.94
418.55	257.88
418.93	259.83
419.30	261.85
419.67	263.88
420.04	265.99
420.42	268.24
420.79	271.26
421.16	273.85
421.54	276.75
421.91	279.65
422.28	282.56
422.66	285.65
423.03	289.05
423.40	292.26
423.77	295.68
424.15	299.11
424.52	302.81
424.89	306.79
425.26	310.60
425.64	314.30
426.01	318.31
426.38	322.40
426.75	326.76
427.13	331.15
427.50	335.85
427.87	340.57
428.24	345.35
428.61	349.72
428.99	354.81
429.36	360.14
429.73	365.33
430.10	370.73
430.47	376.24
430.85	381.67
431.22	387.53
431.59	394.01
431.96	399.99
432.33	406.68
432.70	413.11
433.08	420.73
433.45	427.75
433.82	434.87
434.19	442.82
434.56	450.59
434.93	458.02
435.30	465.32
435.68	473.68
436.05	481.64
436.42	489.53
436.79	496.99
437.16	504.95
437.53	513.50
437.90	521.75
438.27	529.97
438.64	538.38
439.01	546.11
439.38	552.99
439.75	559.94
440.13	567.59
440.50	574.88
440.87	580.58
441.24	586.82
441.61	593.55
441.98	598.47
442.35	604.12
442.72	609.79
443.09	615.47
443.46	618.65
443.83	620.93
444.20	622.74
444.57	625.24
444.94	626.19
445.31	627.32
445.68	628.79
446.05	628.97
446.42	627.96
446.79	626.96
447.16	625.48
447.53	624.26
447.90	620.77
448.27	617.27
448.64	612.75
449.01	609.16
449.37	603.23
449.74	597.36
450.11	590.77
450.48	583.41
450.85	575.67
451.22	569.12
451.59	562.83
451.96	556.99
452.33	549.37
452.70	542.45
453.07	534.05
453.43	525.20
453.80	517.14
454.17	509.34
454.54	501.81
454.91	493.84
455.28	486.10
455.65	478.97
456.02	472.47
456.38	466.33
456.75	458.86
457.12	452.63
457.49	446.67
457.86	440.49
458.23	435.56
458.59	430.04
458.96	424.60
459.33	419.65
459.70	414.63
460.07	410.64
460.43	406.08
460.80	402.00
461.17	398.45
461.54	394.65
461.91	391.03
462.27	387.43
462.64	384.37
463.01	380.98
463.38	377.86
463.74	373.92
464.11	370.99
464.48	368.45
464.85	365.65
465.21	363.60
465.58	361.39
465.95	358.63
466.32	356.63
466.68	354.30
467.05	352.27
467.42	350.27
467.78	348.02
468.15	346.02
468.52	344.51
468.88	342.33
469.25	340.44
469.62	338.98
469.98	337.31
470.35	335.87
470.72	334.45
471.08	332.65
471.45	331.36
471.82	330.18
472.18	328.89
472.55	328.04
472.92	326.75
473.28	325.66
473.65	324.65
474.02	323.66
474.38	322.97
474.75	322.15
475.11	321.25
475.48	320.68
475.85	320.04
476.21	319.36
476.58	318.91
476.94	318.62
477.31	318.05
477.67	317.72
478.04	317.32
478.41	317.16
478.77	317.54
479.14	317.36
479.50	317.35
479.87	317.43
480.23	317.40
480.60	317.27
480.96	317.32
481.33	317.62
481.69	317.71
482.06	317.94
482.42	318.35
482.79	318.73
483.15	319.06
483.52	319.71
483.88	320.20
484.25	320.73
484.61	321.27
484.98	321.96
485.34	322.94
485.71	324.04
486.07	325.02
486.44	325.52
486.80	326.53
487.17	327.56
487.53	328.78
487.90	330.14
488.26	331.89
488.62	333.57
488.99	335.05
489.35	336.73
489.72	338.52
490.08	340.36
490.44	342.31
490.81	344.55
491.17	346.70
491.54	349.13
491.90	351.71
492.26	354.34
492.63	357.07
492.99	359.77
493.36	362.69
493.72	365.96
494.08	369.40
494.45	373.23
494.81	377.10
495.17	380.85
495.54	384.89
495.90	389.05
496.26	393.34
496.63	397.92
496.99	402.54
497.35	407.44
497.72	412.69
498.08	418.07
498.44	423.57
498.80	429.46
499.17	435.42
499.53	441.57
499.89	448.13
500.26	454.93
500.62	461.88
500.98	469.17
501.34	476.53
501.71	484.05
502.07	491.68
502.43	499.46
502.79	507.75
503.16	516.26
503.52	525.01
503.88	534.16
504.24	543.65
504.60	553.60
504.97	563.76
505.33	573.85
505.69	584.89
506.05	595.77
506.41	606.81
506.78	618.30
507.14	630.13
507.50	642.14
507.86	654.33
508.22	667.10
508.59	679.77
508.95	692.88
509.31	706.82
509.67	720.62
510.03	734.62
510.39	748.86
510.75	763.50
511.12	778.45
511.48	793.56
511.84	808.89
512.20	824.31
512.56	840.09
512.92	856.47
513.28	872.68
513.64	889.50
514.00	906.43
514.37	923.55
514.73	940.89
515.09	958.72
515.45	976.55
515.81	994.27
516.17	1012.38
516.53	1030.44
516.89	1048.44
517.25	1067.18
517.61	1087.01
517.97	1106.58
518.33	1125.99
518.69	1145.44
519.05	1165.29
519.41	1185.21
519.77	1205.66
520.13	1225.77
520.49	1245.65
520.85	1265.73
521.21	1285.92
521.57	1306.28
521.93	1326.28
522.29	1346.85
522.65	1366.49
523.01	1386.65
523.37	1406.50
523.73	1426.79
524.09	1446.68
524.45	1466.51
524.81	1486.75
525.17	1506.01
525.53	1525.56
525.89	1545.39
526.25	1565.32
526.61	1584.67
526.97	1604.55
527.33	1624.55
527.68	1645.33
528.04	1665.81
528.40	1685.74
528.76	1705.76
529.12	1725.38
529.48	1745.16
529.84	1764.28
530.20	1784.35
530.56	1803.94
530.91	1823.79
531.27	1843.07
531.63	1862.49
531.99	1882.00
532.35	1900.68
532.71	1919.79
533.07	1939.40
533.42	1957.98
533.78	1976.72
534.14	1995.86
534.50	2013.91
534.86	2032.10
535.21	2048.30
535.57	2065.54
535.93	2081.94
536.29	2098.56
536.65	2115.55
537.00	2132.24
537.36	2148.58
537.72	2163.97
538.08	2180.21
538.44	2195.78
538.79	2211.09
539.15	2225.97
539.51	2240.54
539.87	2254.47
540.22	2267.57
540.58	2280.90
540.94	2293.39
541.29	2305.01
541.65	2315.93
542.01	2327.44
542.37	2337.01
542.72	2347.25
543.08	2356.54
543.44	2367.49
543.79	2376.45
544.15	2385.31
544.51	2394.28
544.87	2402.79
545.22	2410.36
545.58	2417.02
545.94	2423.11
546.29	2428.63
546.65	2434.34
547.01	2439.16
547.36	2443.84
547.72	2448.31
548.07	2451.24
548.43	2455.41
548.79	2459.12
549.14	2462.54
549.50	2465.37
549.86	2467.95
550.21	2470.78
550.57	2473.40
550.92	2473.73
551.28	2474.42
551.64	2475.65
551.99	2476.47
552.35	2477.04
552.70	2478.52
553.06	2479.44
553.41	2480.01
553.77	2480.71
554.13	2481.60
554.48	2482.38
554.84	2483.14
555.19	2483.75
555.55	2484.75
555.90	2483.80
556.26	2482.45
556.61	2480.55
556.97	2477.93
557.32	2477.18
557.68	2475.31
558.03	2473.20
558.39	2471.55
558.74	2470.08
559.10	2466.23
559.45	2462.18
559.81	2457.52
560.16	2451.94
560.52	2446.95
560.87	2442.20
561.23	2437.20
561.58	2431.01
561.94	2424.03
562.29	2416.25
562.64	2409.35
563.00	2401.03
563.35	2394.08
563.71	2387.28
564.06	2380.70
564.42	2373.95
564.77	2366.58
565.12	2358.92
565.48	2351.27
565.83	2343.21
566.19	2335.07
566.54	2327.65
566.89	2319.65
567.25	2311.95
567.60	2304.85
567.96	2297.12
568.31	2289.01
568.66	2280.36
569.02	2271.49
569.37	2263.48
569.72	2256.20
570.08	2246.69
570.43	2237.34
570.78	2228.55
571.14	2219.16
571.49	2209.22
571.84	2200.22
572.20	2189.95
572.55	2180.11
572.90	2169.55
573.26	2159.77
573.61	2149.23
573.96	2138.37
574.31	2126.92
574.67	2115.72
575.02	2103.56
575.37	2091.09
575.72	2078.74
576.08	2066.88
576.43	2055.20
576.78	2042.68
577.13	2029.43
577.49	2017.48
577.84	2006.57
578.19	1995.00
578.54	1983.26
578.90	1972.11
579.25	1960.29
579.60	1948.22
579.95	1936.24
580.30	1923.84
580.66	1910.74
581.01	1897.79
581.36	1884.54
581.71	1872.65
582.06	1860.36
582.42	1848.64
582.77	1836.74
583.12	1825.33
583.47	1813.72
583.82	1802.12
584.17	1790.70
584.53	1779.99
584.88	1767.63
585.23	1754.99
585.58	1741.50
585.93	1728.67
586.28	1715.75
586.63	1702.32
586.98	1689.03
587.34	1676.43
587.69	1663.93
588.04	1652.15
588.39	1640.90
588.74	1629.58
589.09	1618.20
589.44	1606.22
589.79	1594.78
590.14	1583.64
590.49	1572.21
590.84	1560.72
591.19	1549.34
591.54	1537.76
591.89	1526.02
592.25	1516.37
592.60	1505.50
592.95	1494.90
593.30	1484.04
593.65	1473.00
594.00	1462.02
594.35	1453.13
594.70	1441.96
595.05	1431.42
595.40	1420.22
595.75	1408.78
596.10	1398.13
596.45	1387.14
596.80	1376.90
597.15	1366.23
597.50	1355.15
597.85	1344.52
598.19	1333.53
598.54	1322.81
598.89	1312.39
599.24	1302.39
599.59	1291.42
599.94	1281.37
600.29	1271.63
600.64	1262.04
600.99	1252.04
601.34	1243.14
601.69	1232.59
602.04	1223.68
602.39	1214.48
602.74	1206.10
603.08	1197.44
603.43	1188.90
603.78	1180.05
604.13	1171.19
604.48	1162.25
604.83	1153.38
605.18	1144.50
605.53	1135.94
605.87	1127.22
606.22	1119.30
606.57	1110.81
606.92	1102.27
607.27	1094.10
607.62	1085.99
607.96	1078.02
608.31	1070.60
608.66	1062.67
609.01	1054.73
609.36	1046.74
609.70	1038.97
610.05	1030.81
610.40	1023.17
610.75	1015.27
611.10	1007.32
611.44	999.53
611.79	991.72
612.14	984.56
612.49	977.10
612.83	970.03
613.18	963.05
613.53	955.80
613.88	948.55
614.22	941.50
614.57	934.04
614.92	926.76
615.27	919.70
615.61	912.54
615.96	905.57
616.31	898.64
616.65	892.03
617.00	885.15
617.35	878.39
617.70	871.60
618.04	864.78
618.39	858.55
618.74	852.37
619.08	846.11
619.43	839.28
619.78	832.64
620.12	825.83
620.47	819.37
620.82	812.75
621.16	806.25
621.51	800.42
621.85	794.58
622.20	788.40
622.55	782.33
622.89	776.35
623.24	770.41
623.59	764.44
623.93	758.43
624.28	752.81
624.62	747.65
624.97	742.38
625.32	736.96
625.66	731.27
626.01	725.62
626.35	720.49
626.70	715.53
627.04	710.77
627.39	705.95
627.73	701.07
628.08	696.19
628.43	691.17
628.77	686.01
629.12	681.08
629.46	676.71
629.81	672.19
630.15	667.70
630.50	663.10
630.84	658.78
631.19	654.35
631.53	650.07
631.88	645.15
632.22	640.52
632.57	636.49
632.91	632.28
633.26	628.18
633.60	623.77
633.95	619.57
634.29	615.16
634.64	610.91
634.98	606.40
635.32	602.35
635.67	598.66
636.01	594.80
636.36	590.90
636.70	587.00
637.05	583.07
637.39	579.46
637.73	575.74
638.08	571.95
638.42	568.08
638.77	563.96
639.11	560.01
639.45	556.14
639.80	551.99
640.14	548.32
640.49	544.50
640.83	541.01
641.17	537.49
641.52	533.99
641.86	530.75
642.20	527.96
642.55	524.71
642.89	521.37
643.23	518.06
643.58	515.06
643.92	511.67
644.26	508.44
644.61	505.32
644.95	502.17
645.29	498.98
645.64	496.08
645.98	493.24
646.32	490.56
646.66	487.64
647.01	484.89
647.35	482.18
647.69	479.60
648.04	476.85
648.38	474.30
648.72	471.66
649.06	468.84
649.41	465.90
649.75	462.96
650.09	460.39
650.43	457.62
650.78	454.81
651.12	452.29
651.46	449.75
651.80	447.12
652.14	444.53
652.49	442.21
652.83	439.70
653.17	437.21
653.51	434.74
653.85	432.43
654.20	430.17
654.54	427.88
654.88	425.45
655.22	423.49
655.56	421.16
655.90	418.92
656.25	416.78
656.59	414.72
656.93	412.76
657.27	410.78
657.61	408.59
657.95	406.54
658.29	404.48
658.64	402.53
658.98	400.47
659.32	398.47
659.66	396.36
660.00	394.42
660.34	392.71
660.68	390.88
661.02	389.07
661.36	387.22
661.70	385.27
662.05	383.55
662.39	381.70
662.73	380.06
663.07	378.63
663.41	376.85
663.75	375.03
664.09	373.39
664.43	371.56
664.77	370.14
665.11	368.60
665.45	367.05
665.79	365.59
666.13	364.04
666.47	362.46
666.81	361.00
667.15	359.37
667.49	357.82
667.83	356.49
668.17	355.02
668.51	353.61
668.85	352.40
669.19	351.28
669.53	349.82
669.87	348.31
670.21	346.79
670.55	345.53
670.89	344.45
671.23	343.17
671.57	341.95
671.91	340.69
672.25	339.40
672.58	338.20
672.92	336.81
673.26	335.66
673.60	334.64
673.94	333.49
674.28	332.55
674.62	331.55
674.96	330.28
675.30	329.20
675.64	328.02
675.97	326.80
676.31	325.59
676.65	324.48
676.99	323.60
677.33	322.40
677.67	321.40
678.01	320.22
678.34	319.18
678.68	318.28
679.02	317.27
679.36	316.39
679.70	315.48
680.04	314.53
680.37	313.58
680.71	312.62
681.05	311.79
681.39	311.02
681.73	310.15
682.06	309.28
682.40	308.45
682.74	307.76
683.08	307.17
683.42	306.24
683.75	305.44
684.09	304.49
684.43	303.84
684.77	303.03
685.10	302.30
685.44	301.58
685.78	300.71
686.12	299.90
686.45	299.04
686.79	298.21
687.13	297.64
687.46	296.92
687.80	296.26
688.14	295.46
688.48	294.68
688.81	293.89
689.15	293.36
689.49	292.66
689.82	291.97
690.16	291.01
690.50	290.39
690.83	289.66
691.17	288.91
691.51	288.33
691.84	287.69
692.18	286.95
692.52	286.20
692.85	285.59
693.19	285.26
693.52	284.76
693.86	284.14
694.20	283.44
694.53	282.99
694.87	282.33
695.21	281.68
695.54	281.09
695.88	280.45
696.21	279.70
696.55	279.09
696.88	278.49
697.22	277.97
697.56	277.40
697.89	276.86
698.23	276.40
698.56	275.83
698.90	275.39
699.23	274.90
699.57	274.45
699.90	274.00
700.24	273.33
700.58	272.89
700.91	272.50
701.25	272.39
701.58	272.17
701.92	271.89
702.25	271.50
702.59	271.04
702.92	270.66
703.26	270.29
703.59	269.91
703.93	269.90
704.26	269.54
704.60	269.23
704.93	268.84
705.26	268.43
705.60	268.13
705.93	267.68
706.27	267.44
706.60	267.28
706.94	267.09
707.27	266.80
707.61	266.39
707.94	266.03
708.27	265.35
708.61	264.59
708.94	264.14
709.28	263.84
709.61	263.55
709.94	263.30
710.28	262.92
710.61	262.57
710.95	261.81
711.28	261.81
711.61	261.40
711.95	261.18
712.28	260.77
712.61	260.37
712.95	260.28
713.28	260.06
713.61	259.58
713.95	259.09
714.28	258.79
714.61	258.43
714.95	258.09
715.28	257.72
715.61	257.39
715.95	257.10
716.28	256.74
716.61	256.44
716.95	256.10
717.28	255.80
717.61	255.49
717.94	255.21
718.28	254.57
718.61	254.27
718.94	253.94
719.27	253.74
719.61	253.48
719.94	253.08
720.27	252.67
720.60	252.43
720.94	252.13
721.27	251.77
721.60	251.65
721.93	251.37
722.27	251.28
722.60	251.17
722.93	250.89
723.26	250.86
723.59	250.51
723.93	250.25
724.26	250.15
724.59	249.92
724.92	249.78
725.25	249.68
725.59	249.53
725.92	249.37
726.25	249.29
726.58	249.10
726.91	248.88
727.24	248.68
727.57	248.46
727.91	248.24
728.24	248.25
728.57	247.98
728.90	247.86
729.23	247.57
729.56	247.63
729.89	247.41
730.22	247.12
730.55	247.00
730.89	246.94
731.22	246.65
731.55	246.48
731.88	246.29
732.21	246.02
732.54	245.72
732.87	245.60
733.20	245.34
733.53	245.13
733.86	244.98
734.19	244.78
734.52	244.66
734.85	244.84
735.18	244.55
735.51	244.52
735.84	244.43
736.17	244.42
736.50	243.97
736.83	244.38
737.16	244.20
737.49	244.06
737.82	243.86
738.15	243.85
738.48	243.71
738.81	243.56
739.14	243.39
739.47	243.34
739.80	243.18
740.13	243.09
740.46	242.99
740.79	242.82
741.12	242.62
741.45	242.45
741.78	242.08
742.11	242.01
742.44	241.75
742.77	241.64
743.10	241.43
743.43	241.29
743.75	240.69
744.08	241.20
744.41	241.02
744.74	240.84
745.07	240.56
745.40	240.54
745.73	240.60
746.06	240.51
746.39	240.36
746.71	240.12
747.04	239.90
747.37	239.70
747.70	239.67
748.03	239.68
748.36	239.65
748.68	239.50
749.01	239.28
749.34	239.17
749.67	239.01
750.00	239.00
750.33	239.23
750.65	239.18
750.98	238.47
751.31	238.46
751.64	238.39
751.97	238.59
752.29	238.44
752.62	238.17
752.95	238.05
753.28	237.91
753.60	237.78
753.93	237.88
754.26	237.92
754.59	237.74
754.91	237.54
755.24	237.41
755.57	237.31
755.90	237.18
756.22	236.93
756.55	236.75
756.88	236.55
757.20	236.12
757.53	235.82
757.86	235.74
758.19	235.56
758.51	235.43
758.84	235.09
759.17	234.99
759.49	234.86
759.82	235.07
760.15	235.05
760.47	235.01
760.80	234.80
761.13	234.78
761.45	234.60
761.78	234.55
762.11	234.45
762.43	234.34
762.76	234.28
763.08	234.39
763.41	234.44
763.74	234.31
764.06	234.31
764.39	234.33
764.71	234.27
765.04	234.26
765.37	234.20
765.69	234.14
766.02	234.00
766.34	233.90
766.67	233.55
767.00	233.53
767.32	233.75
767.65	233.97
767.97	233.75
768.30	233.75
768.62	233.68
768.95	233.57
769.27	233.51
769.60	233.50
769.92	233.36
770.25	233.17
770.57	233.05
770.90	232.85
771.22	232.65
771.55	232.54
771.87	232.49
772.20	232.38
772.52	232.68
772.85	233.22
773.17	233.23
773.50	233.25
773.82	233.15
774.15	232.87
774.47	232.51
774.80	232.52
775.12	232.44
775.45	232.40
775.77	232.30
776.09	232.31
776.42	232.29
776.74	232.35
777.07	232.30
777.39	232.30
777.72	232.34
778.04	232.42
778.36	232.34
778.69	232.30
779.01	232.32
779.33	231.91
779.66	231.39
779.98	231.26
780.31	231.20
780.63	231.39
780.95	231.38
781.28	231.34
781.60	231.19
781.92	231.15
782.25	231.14
782.57	231.10
782.89	230.97
783.22	230.86
783.54	230.74
783.86	230.82
784.19	230.70
784.51	230.76
784.83	230.66
785.16	230.59
785.48	230.52
785.80	230.50
786.12	230.50
786.45	230.36
786.77	230.34
787.09	230.24
787.42	229.94
787.74	229.89
788.06	229.89
788.38	229.82
788.71	229.79
789.03	229.72
789.35	229.86
789.67	229.74
789.99	229.73
790.32	229.67
790.64	229.68
790.96	230.16
791.28	230.01
791.61	230.01
791.93	230.07
792.25	230.08
792.57	230.37
792.89	230.23
793.21	230.26
793.54	230.28
793.86	230.18
794.18	230.22
794.50	230.08
794.82	230.07
795.14	230.23
795.47	230.32
795.79	230.35
796.11	230.18
796.43	230.25
796.75	230.21
797.07	230.22
797.39	230.14
797.71	229.75
798.04	229.80
798.36	229.74
798.68	229.65
799.00	229.64
799.32	229.35
799.64	229.43
799.96	229.46
800.28	229.49
800.60	229.50
800.92	229.55
801.24	229.60
801.56	229.61
801.89	229.47
802.21	229.42
802.53	229.29
802.85	229.39
803.17	229.61
803.49	229.56
803.81	229.46
804.13	229.39
804.45	229.29
804.77	229.29
805.09	229.31
805.41	229.26
805.73	229.14
806.05	228.98
806.37	228.96
806.69	228.87
807.01	228.74
807.33	228.77
807.65	228.55
807.97	228.72
808.28	228.58
808.60	228.58
808.92	228.47
809.24	228.76
809.56	228.68
809.88	228.43
810.20	228.42
810.52	228.51
810.84	228.43
811.16	228.32
811.48	228.18
811.80	228.35
812.12	228.33
812.43	228.35
812.75	228.39
813.07	228.24
813.39	228.24
813.71	228.15
814.03	228.03
814.35	228.06
814.67	227.83
814.98	227.79
815.30	227.69
815.62	227.65
815.94	227.30
816.26	227.39
816.58	227.30
816.89	227.32
817.21	227.24
817.53	227.25
817.85	227.30
818.17	227.33
818.48	227.16
818.80	227.23
819.12	227.21
819.44	227.09
819.76	227.13
820.07	227.10
820.39	227.13
820.71	227.16
821.03	227.16
821.34	227.12
821.66	227.26
821.98	227.30
822.30	227.23
822.61	227.48
822.93	227.29
823.25	227.28
823.57	227.25
823.88	227.27
824.20	227.33
824.52	227.40
824.83	227.29
825.15	227.15
825.47	227.08
825.79	227.08
826.10	227.07
826.42	227.00
826.74	226.98
827.05	226.98
827.37	227.04
827.69	226.96
828.00	227.01
828.32	226.92
828.64	226.88
828.95	227.19
829.27	227.08
829.58	227.12
829.90	227.18
830.22	227.21
830.53	227.16
830.85	227.10
831.17	226.98
831.48	227.06
831.80	227.13
832.11	227.14
832.43	227.08
832.75	227.12
833.06	227.49
833.38	227.39
833.69	227.42
834.01	227.47
834.32	227.48
834.64	227.44
834.96	227.51
835.27	227.48
835.59	227.34
835.90	227.36
836.22	227.34
836.53	227.34
836.85	227.30
837.16	227.82
837.48	227.78
837.79	227.84
838.11	227.89
838.42	227.92
838.74	227.94
839.05	227.95
839.37	227.92
839.68	227.56
840.00	227.63
840.31	227.70
840.63	227.62
840.94	227.61
841.26	227.61
841.57	227.57
841.88	227.64
842.20	227.56
842.51	227.45
842.83	227.46
843.14	227.90
843.46	227.90
843.77	227.54
844.08	227.55
844.40	227.50
844.71	227.45
845.03	227.38
845.34	227.40
845.65	227.35
845.97	227.41
846.28	227.50
846.60	227.46
846.91	227.34
847.22	227.38
847.54	227.46
847.85	227.51
848.16	227.44
848.48	227.33
848.79	227.55
849.10	227.57
849.42	227.56
849.73	227.09
850.04	227.12
850.36	226.99
850.67	227.06
850.98	227.11
851.30	227.19
851.61	227.23
851.92	227.23
852.23	227.38
852.55	227.38
852.86	227.36
853.17	227.39
853.49	227.54
853.80	227.57
854.11	227.60
854.42	227.60
854.74	227.54
855.05	227.65
855.36	227.30
855.67	227.32
855.99	227.31
856.30	227.86
856.61	227.72
856.92	227.64
857.23	227.67
857.55	227.55
857.86	227.49
858.17	227.50
858.48	227.46
858.79	227.30
859.11	227.31
859.42	227.24
859.73	227.16
860.04	227.02
860.35	226.86
860.66	226.75
860.98	226.66
861.29	226.67
861.60	226.59
861.91	226.74
862.22	226.62
862.53	226.57
862.84	225.93
863.16	226.10
863.47	226.07
863.78	225.92
864.09	225.95
864.40	225.85
864.71	225.85
865.02	225.79
865.33	225.80
865.64	225.68
865.95	225.66
866.27	225.97
866.58	225.93
866.89	226.03
867.20	225.99
867.51	225.95
867.82	225.96
868.13	226.05
868.44	225.88
868.75	226.00
869.06	226.05
869.37	226.06
869.68	225.89
869.99	226.09
870.30	226.14
870.61	226.22
870.92	226.24
871.23	226.14
871.54	226.23
871.85	226.33
872.16	226.42
872.47	226.42
872.78	226.11
873.09	226.20
873.40	226.09
873.71	226.12
874.02	226.18
874.33	226.10
874.64	226.00
874.95	226.15
875.26	226.01
875.56	225.98
875.87	226.03
876.18	226.04
876.49	226.46
876.80	226.41
877.11	226.32
877.42	226.42
877.73	226.48
878.04	226.40
878.35	226.32
878.66	226.28
878.96	226.28
879.27	226.35
879.58	226.27
879.89	226.28
880.20	226.41
880.51	226.33
880.82	226.35
881.12	226.38
881.43	226.32
881.74	226.30
882.05	226.24
882.36	226.23
882.67	226.27
882.97	225.67
883.28	225.66
883.59	225.68
883.90	225.64
884.21	225.75
884.51	225.75
884.82	225.71
885.13	225.70
885.44	225.68
885.74	225.68
886.05	225.75
886.36	225.81
886.67	225.63
886.98	225.94
887.28	225.94
887.59	225.93
887.90	225.98
888.20	225.96
888.51	226.12
888.82	226.05
889.13	226.08
889.43	226.56
889.74	226.56
890.05	226.54
890.35	226.55
890.66	226.45
890.97	226.43
891.28	226.40
891.58	226.49
891.89	226.51
892.20	226.50
892.50	226.41
892.81	226.38
893.12	226.45
893.42	226.18
893.73	226.28
894.04	226.31
894.34	226.30
894.65	226.39
894.95	226.26
895.26	226.32
895.57	226.50
895.87	226.07
896.18	226.13
896.48	226.20
896.79	226.14
897.10	226.24
897.40	226.29
897.71	226.35
898.01	226.25
898.32	226.29
898.63	226.19
898.93	226.24
899.24	226.25
899.54	226.15
899.85	226.17
900.15	226.21
900.46	226.24
900.76	226.31
901.07	226.18
901.38	226.21
901.68	226.33
901.99	226.05
902.29	226.04
902.60	226.08
902.90	226.05
903.21	226.10
903.51	225.98
903.82	226.06
904.12	226.06
904.43	226.17
904.73	226.13
905.03	226.23
905.34	226.66
905.64	226.65
905.95	226.68
906.25	226.67
906.56	226.55
906.86	226.55
907.17	226.49
907.47	226.63
907.77	226.55
908.08	226.44
908.38	226.53
908.69	226.70
908.99	226.72
909.30	226.68
909.60	226.57
909.90	226.69
910.21	226.59
910.51	226.53
910.81	226.50
911.12	226.49
911.42	226.49
911.73	226.00
912.03	225.97
912.33	226.09
912.64	226.05
912.94	226.05
913.24	225.93
913.55	225.85
913.85	225.77
914.15	225.90
914.46	225.89
914.76	225.80
915.06	225.60
915.37	225.47
915.67	225.41
915.97	225.49
916.27	225.28
916.58	225.16
916.88	225.17
917.18	225.10
917.49	225.42
917.79	225.37
918.09	225.51
918.39	225.70
918.70	225.63
919.00	225.66
919.30	225.91
919.60	225.89
919.91	225.95
920.21	226.01
920.51	225.88
920.81	225.85
921.12	225.95
921.42	226.01
921.72	226.04
922.02	226.16
922.32	226.28
922.63	226.34
922.93	226.64
923.23	226.70
923.53	226.69
923.83	226.44
924.13	226.46
924.44	226.42
924.74	226.43
925.04	226.57
925.34	226.59
925.64	226.32
925.94	226.37
926.24	226.61
926.55	226.56
926.85	226.69
927.15	226.70
927.45	226.68
927.75	226.67
928.05	226.74
928.35	226.64
928.65	226.75
928.95	226.84
929.26	226.60
929.56	226.65
929.86	226.71
930.16	226.59
930.46	226.58
930.76	226.58
931.06	226.33
931.36	226.20
931.66	226.21
931.96	226.40
932.26	226.42
932.56	226.24
932.86	226.31
933.16	226.21
933.46	226.21
933.76	226.24
934.06	226.35
934.36	226.48
934.66	226.49
934.96	226.40
935.26	226.40
935.56	226.51
935.86	226.45
936.16	226.45
936.46	226.45
936.76	226.47
937.06	226.38
937.36	226.44
937.66	226.48
937.96	226.53
938.26	226.40
938.56	226.36
938.86	226.39
939.16	226.49
939.46	226.56
939.76	226.56
940.06	226.45
940.35	226.35
940.65	226.13
940.95	226.14
941.25	226.00
941.55	225.98
941.85	225.99
942.15	226.03
942.45	226.13
942.75	226.20
943.04	226.19
943.34	226.31
943.64	226.32
943.94	226.23
944.24	226.12
944.54	226.10
944.84	226.12
945.13	225.96
945.43	225.81
945.73	225.80
946.03	225.84
946.33	225.84
946.62	225.75
946.92	225.76
947.22	225.77
947.52	225.80
947.82	225.87
948.11	225.81
948.41	225.67
948.71	225.62
949.01	225.62
949.31	225.59
949.60	225.57
949.90	225.56
950.20	225.55
950.50	225.68
950.79	225.61
951.09	225.70
951.39	225.72
951.69	225.70
951.98	225.82
952.28	225.79
952.58	225.73
952.87	225.79
953.17	225.83
953.47	225.83
953.76	225.86
954.06	225.73
954.36	225.65
954.66	225.64
954.95	225.68
955.25	225.69
955.55	225.72
955.84	225.56
956.14	225.64
956.44	225.67
956.73	225.57
957.03	225.63
957.32	225.59
957.62	225.54
957.92	225.62
958.21	225.58
958.51	226.14
958.81	226.29
959.10	226.36
959.40	226.41
959.69	226.41
959.99	226.37
960.29	226.42
960.58	226.47
960.88	226.69
961.17	226.71
961.47	226.73
961.76	226.63
962.06	226.75
962.36	226.73
962.65	226.76
962.95	226.75
963.24	226.70
963.54	226.72
963.83	226.81
964.13	226.75
964.42	226.65
964.72	226.17
965.01	226.15
965.31	226.06
965.60	225.95
965.90	226.30
966.19	226.24
966.49	226.28
966.78	226.25
967.08	226.19
967.37	226.17
967.67	226.10
967.96	226.27
968.26	226.34
968.55	226.39
968.85	226.38
969.14	226.43
969.43	226.39
969.73	226.31
970.02	226.32
970.32	226.30
970.61	226.27
970.91	226.23
971.20	226.15
971.49	226.14
971.79	226.23
972.08	225.90
972.38	225.90
972.67	225.87
972.96	225.91
973.26	225.79
973.55	225.89
973.85	225.87
974.14	225.84
974.43	225.77
974.73	225.65
975.02	225.58
975.31	225.53
975.61	225.55
975.90	225.55
976.19	225.48
976.49	225.54
976.78	225.58
977.07	225.56
977.37	225.62
977.66	225.69
977.95	225.71
978.24	225.74
978.54	225.92
978.83	225.82
979.12	225.83
979.42	225.85
979.71	225.79
980.00	225.78
980.29	225.77
980.59	225.72
980.88	225.91
981.17	225.96
981.46	225.92
981.76	225.83
982.05	226.00
982.34	226.09
982.63	226.15
982.93	226.17
983.22	226.24
983.51	226.27
983.80	226.35
984.09	226.37
984.39	226.32
984.68	226.15
984.97	226.30
985.26	226.20
985.55	226.27
985.85	226.17
986.14	226.26
986.43	226.25
986.72	226.21
987.01	226.06
987.30	226.03
987.59	226.02
987.89	226.14
988.18	225.96
988.47	225.89
988.76	225.79
989.05	225.75
989.34	225.70
989.63	225.79
989.92	225.65
990.22	225.50
990.51	225.47
990.80	225.56
991.09	225.51
991.38	225.61
991.67	225.53
991.96	225.51
992.25	225.45
992.54	225.45
992.83	225.49
993.12	225.40
993.41	225.46
993.70	225.71
993.99	225.83
994.28	225.92
994.58	225.97
994.87	225.92
995.16	225.84
995.45	225.80
995.74	225.61
996.03	225.71
996.32	225.83
996.61	225.95
996.90	225.88
997.19	225.89
997.48	225.88
997.77	225.83
998.06	225.87
998.34	225.92
998.63	225.93
998.92	225.96
999.21	226.06
999.50	226.05
999.79	225.83
1000.08	225.71
1000.37	225.69
1000.66	225.70
1000.95	225.83
1001.24	225.90
1001.53	225.90
1001.82	225.96
1002.11	225.83
1002.40	225.76
1002.68	225.88
1002.97	226.21
1003.26	226.09
1003.55	225.97
1003.84	226.02
1004.13	226.10
1004.42	226.03
1004.71	226.02
1004.99	225.93
1005.28	226.05
1005.57	226.05
1005.86	225.95
1006.15	225.94
1006.44	225.82
1006.72	225.80
1007.01	225.64
1007.30	225.64
1007.59	225.62
1007.88	225.57
1008.17	225.65
1008.45	225.54
1008.74	225.32
1009.03	225.14
1009.32	225.18
1009.60	225.25
1009.89	225.23
1010.18	225.10
1010.47	225.02
1010.76	225.01
1011.04	225.03
1011.33	225.03
1011.62	225.05
1011.91	225.13
1012.19	225.18
1012.48	225.22
1012.77	225.22
1013.05	225.54
1013.34	225.55
1013.63	225.55
1013.92	225.50
1014.20	225.43
1014.49	225.49
1014.78	225.55
1015.06	225.35
1015.35	225.31
1015.64	225.37
1015.92	225.41
1016.21	225.48
1016.50	225.53
1016.78	225.59
1017.07	225.69
1017.36	225.57
1017.64	225.50
1017.93	225.58
1018.22	225.58
1018.50	225.65
1018.79	225.62
1019.08	225.43
1019.36	225.44
1019.65	225.40
1019.93	225.61
1020.22	225.65
1020.51	225.94
1020.79	225.92
1021.08	225.95
1021.36	225.75
1021.65	224.80
1021.94	226.55
1022.22	225.75
1022.51	224.30
1022.79	228.05
1023.08	225.40
1023.36	230.90
1023.65	225.25
>>>>>End Processed Spectral Data<<<<<
