SpectraSuite Data File
++++++++++++++++++++++++++++++++++++
Date: Wed Sep 04 17:48:38 EDT 2013
User: lab3
Dark Spectrum Present: Yes
Reference Spectrum Present: No
Number of Sampled Component Spectra: 1
Spectrometers: USB2E7196
Integration Time (usec): 170000 (USB2E7196)
Spectra Averaged: 20 (USB2E7196)
Boxcar Smoothing: 10 (USB2E7196)
Correct for Electrical Dark: No (USB2E7196)
Strobe/Lamp Enabled: No (USB2E7196)
Correct for Detector Non-linearity: No (USB2E7196)
Correct for Stray Light: No (USB2E7196)
Number of Pixels in Processed Spectrum: 2048
>>>>>Begin Processed Spectral Data<<<<<
339.09	0.00
339.48	212.35
339.86	214.25
340.24	215.90
340.63	216.95
341.01	225.35
341.39	219.40
341.78	220.85
342.16	222.90
342.54	222.65
342.93	211.91
343.31	222.62
343.69	223.18
344.07	223.64
344.46	224.09
344.84	224.51
345.22	224.53
345.60	224.79
345.99	225.01
346.37	225.13
346.75	225.24
347.13	225.24
347.52	225.27
347.90	225.49
348.28	225.54
348.66	225.71
349.05	225.65
349.43	225.76
349.81	225.90
350.19	225.93
350.57	225.94
350.96	226.04
351.34	226.16
351.72	226.17
352.10	226.26
352.48	226.31
352.87	226.33
353.25	226.30
353.63	226.31
354.01	226.43
354.39	226.51
354.77	226.59
355.15	226.83
355.54	226.86
355.92	226.83
356.30	226.87
356.68	227.18
357.06	227.24
357.44	227.16
357.82	227.18
358.20	227.66
358.58	227.69
358.97	227.79
359.35	227.91
359.73	228.15
360.11	228.18
360.49	228.26
360.87	228.32
361.25	228.54
361.63	228.81
362.01	228.82
362.39	228.91
362.77	229.00
363.15	228.98
363.53	229.04
363.91	229.07
364.29	229.06
364.67	228.68
365.05	228.77
365.43	228.88
365.81	228.97
366.19	228.90
366.57	229.16
366.95	229.15
367.33	229.05
367.71	229.09
368.09	229.26
368.47	229.25
368.85	229.23
369.23	229.30
369.61	229.19
369.99	229.40
370.37	229.37
370.75	229.64
371.13	229.50
371.51	229.41
371.89	229.47
372.27	229.47
372.65	229.46
373.03	229.45
373.41	229.38
373.78	229.30
374.16	228.97
374.54	228.76
374.92	228.72
375.30	228.70
375.68	228.57
376.06	228.52
376.44	228.44
376.82	228.46
377.19	228.38
377.57	228.28
377.95	227.98
378.33	227.92
378.71	227.51
379.09	227.52
379.47	227.59
379.84	227.46
380.22	227.31
380.60	227.15
380.98	227.02
381.36	226.91
381.73	226.77
382.11	226.88
382.49	226.79
382.87	226.58
383.25	226.44
383.62	226.90
384.00	226.76
384.38	226.70
384.76	226.70
385.13	226.75
385.51	226.70
385.89	226.61
386.27	226.52
386.64	226.56
387.02	226.48
387.40	226.35
387.78	226.27
388.15	226.35
388.53	226.24
388.91	226.20
389.29	226.16
389.66	226.29
390.04	226.05
390.42	226.17
390.79	226.24
391.17	226.29
391.55	225.68
391.92	225.67
392.30	225.70
392.68	225.59
393.05	225.57
393.43	225.58
393.81	225.68
394.18	225.69
394.56	225.72
394.94	225.87
395.31	225.81
395.69	225.99
396.06	226.05
396.44	226.21
396.82	226.23
397.19	226.50
397.57	226.43
397.95	226.59
398.32	226.52
398.70	226.64
399.07	226.81
399.45	226.84
399.82	226.90
400.20	226.95
400.58	227.08
400.95	227.00
401.33	227.16
401.70	227.59
402.08	227.68
402.45	227.85
402.83	228.05
403.20	228.32
403.58	228.48
403.95	228.71
404.33	228.90
404.71	229.11
405.08	229.55
405.46	229.81
405.83	230.12
406.21	230.42
406.58	230.68
406.96	230.88
407.33	231.32
407.70	231.70
408.08	232.49
408.45	232.85
408.83	233.32
409.20	233.70
409.58	233.84
409.95	234.33
410.33	234.77
410.70	235.21
411.08	235.78
411.45	236.39
411.82	236.97
412.20	237.80
412.57	238.77
412.95	239.17
413.32	240.05
413.69	240.83
414.07	241.70
414.44	242.73
414.82	243.86
415.19	245.10
415.56	246.26
415.94	247.20
416.31	248.68
416.68	250.13
417.06	251.76
417.43	253.43
417.81	255.20
418.18	257.05
418.55	258.90
418.93	260.93
419.30	262.93
419.67	265.16
420.04	267.31
420.42	269.62
420.79	272.70
421.16	275.52
421.54	278.54
421.91	281.51
422.28	284.45
422.66	287.63
423.03	290.94
423.40	294.25
423.77	297.73
424.15	301.27
424.52	305.01
424.89	309.12
425.26	313.04
425.64	316.82
426.01	320.92
426.38	325.28
426.75	329.68
427.13	334.24
427.50	338.92
427.87	343.78
428.24	348.66
428.61	353.03
428.99	358.23
429.36	363.56
429.73	369.00
430.10	374.43
430.47	380.01
430.85	385.57
431.22	391.63
431.59	398.33
431.96	404.48
432.33	411.22
432.70	417.70
433.08	425.36
433.45	432.75
433.82	440.08
434.19	448.19
434.56	456.27
434.93	463.78
435.30	471.51
435.68	480.05
436.05	488.44
436.42	496.80
436.79	504.35
437.16	512.66
437.53	521.41
437.90	530.08
438.27	538.63
438.64	547.47
439.01	555.89
439.38	563.06
439.75	570.00
440.13	578.14
440.50	585.52
440.87	591.64
441.24	597.81
441.61	604.59
441.98	609.57
442.35	615.22
442.72	621.36
443.09	627.07
443.46	630.44
443.83	632.61
444.20	634.46
444.57	637.16
444.94	638.29
445.31	639.26
445.68	640.63
446.05	640.74
446.42	639.49
446.79	637.93
447.16	636.31
447.53	635.21
447.90	631.50
448.27	628.02
448.64	623.23
449.01	619.60
449.37	613.68
449.74	607.69
450.11	601.03
450.48	593.30
450.85	585.38
451.22	578.68
451.59	572.23
451.96	565.98
452.33	557.84
452.70	550.43
453.07	541.90
453.43	532.84
453.80	524.61
454.17	516.67
454.54	509.12
454.91	500.97
455.28	493.13
455.65	485.60
456.02	478.81
456.38	472.34
456.75	464.78
457.12	458.30
457.49	452.24
457.86	445.85
458.23	440.73
458.59	435.12
458.96	429.30
459.33	424.20
459.70	419.20
460.07	415.26
460.43	410.65
460.80	406.40
461.17	402.85
461.54	398.87
461.91	395.00
462.27	391.14
462.64	388.02
463.01	384.43
463.38	381.34
463.74	377.35
464.11	374.50
464.48	371.93
464.85	369.15
465.21	367.00
465.58	364.68
465.95	361.78
466.32	359.52
466.68	357.38
467.05	355.17
467.42	353.04
467.78	350.71
468.15	348.75
468.52	347.13
468.88	344.79
469.25	342.90
469.62	341.53
469.98	339.86
470.35	338.33
470.72	336.94
471.08	335.21
471.45	334.09
471.82	332.78
472.18	331.34
472.55	330.37
472.92	329.00
473.28	327.96
473.65	327.02
474.02	325.91
474.38	325.16
474.75	324.44
475.11	323.44
475.48	322.90
475.85	322.22
476.21	321.70
476.58	321.35
476.94	320.97
477.31	320.34
477.67	319.97
478.04	319.68
478.41	319.40
478.77	319.71
479.14	319.34
479.50	319.34
479.87	319.36
480.23	319.27
480.60	319.20
480.96	319.28
481.33	319.58
481.69	319.88
482.06	320.00
482.42	320.25
482.79	320.70
483.15	321.02
483.52	321.73
483.88	322.24
484.25	322.76
484.61	323.48
484.98	324.36
485.34	325.34
485.71	326.22
486.07	327.11
486.44	327.76
486.80	328.89
487.17	329.98
487.53	331.28
487.90	332.79
488.26	334.50
488.62	336.11
488.99	337.66
489.35	339.47
489.72	341.36
490.08	343.27
490.44	345.32
490.81	347.57
491.17	349.71
491.54	352.16
491.90	354.74
492.26	357.47
492.63	360.22
492.99	363.11
493.36	366.23
493.72	369.68
494.08	373.08
494.45	376.74
494.81	380.64
495.17	384.53
495.54	388.56
495.90	392.69
496.26	397.22
496.63	401.81
496.99	406.38
497.35	411.25
497.72	416.56
498.08	422.09
498.44	427.67
498.80	433.58
499.17	439.48
499.53	445.64
499.89	452.17
500.26	458.93
500.62	465.76
500.98	473.04
501.34	480.39
501.71	488.07
502.07	496.01
502.43	504.02
502.79	512.45
503.16	521.02
503.52	529.99
503.88	539.03
504.24	548.53
504.60	558.55
504.97	568.84
505.33	579.38
505.69	590.24
506.05	601.25
506.41	612.41
506.78	624.16
507.14	636.01
507.50	648.17
507.86	660.73
508.22	673.84
508.59	686.73
508.95	700.35
509.31	714.40
509.67	728.34
510.03	742.40
510.39	756.94
510.75	772.07
511.12	787.17
511.48	802.63
511.84	818.47
512.20	834.47
512.56	850.64
512.92	867.10
513.28	883.94
513.64	900.91
514.00	918.47
514.37	935.81
514.73	953.97
515.09	972.26
515.45	990.64
515.81	1008.63
516.17	1027.39
516.53	1046.02
516.89	1064.65
517.25	1084.06
517.61	1104.19
517.97	1124.46
518.33	1144.37
518.69	1164.47
519.05	1184.84
519.41	1205.20
519.77	1225.88
520.13	1246.47
520.49	1266.91
520.85	1288.87
521.21	1309.82
521.57	1330.95
521.93	1351.67
522.29	1372.85
522.65	1393.27
523.01	1413.75
523.37	1434.41
523.73	1455.43
524.09	1475.79
524.45	1496.21
524.81	1516.68
525.17	1536.92
525.53	1557.27
525.89	1577.55
526.25	1597.95
526.61	1618.15
526.97	1638.88
527.33	1660.02
527.68	1681.66
528.04	1702.88
528.40	1722.37
528.76	1743.23
529.12	1763.02
529.48	1783.93
529.84	1803.74
530.20	1824.31
530.56	1844.75
530.91	1865.35
531.27	1885.39
531.63	1905.62
531.99	1925.76
532.35	1945.48
532.71	1965.60
533.07	1985.71
533.42	2005.43
533.78	2025.28
534.14	2044.97
534.50	2063.79
534.86	2082.86
535.21	2100.15
535.57	2118.25
535.93	2135.58
536.29	2153.15
536.65	2171.30
537.00	2188.30
537.36	2205.43
537.72	2221.51
538.08	2238.54
538.44	2254.83
538.79	2270.70
539.15	2286.97
539.51	2302.68
539.87	2317.56
540.22	2331.26
540.58	2345.05
540.94	2357.94
541.29	2370.60
541.65	2382.88
542.01	2395.04
542.37	2404.99
542.72	2415.44
543.08	2425.60
543.44	2437.09
543.79	2446.83
544.15	2456.15
544.51	2466.20
544.87	2475.48
545.22	2484.14
545.58	2491.51
545.94	2498.57
546.29	2504.81
546.65	2510.52
547.01	2515.70
547.36	2521.29
547.72	2526.38
548.07	2530.36
548.43	2535.66
548.79	2539.81
549.14	2543.64
549.50	2547.21
549.86	2551.02
550.21	2554.48
550.57	2557.58
550.92	2558.54
551.28	2559.70
551.64	2561.80
551.99	2563.15
552.35	2564.42
552.70	2566.17
553.06	2567.72
553.41	2568.44
553.77	2570.11
554.13	2571.45
554.48	2572.93
554.84	2573.84
555.19	2575.32
555.55	2576.56
555.90	2575.79
556.26	2574.81
556.61	2572.99
556.97	2570.89
557.32	2570.21
557.68	2568.95
558.03	2567.50
558.39	2566.42
558.74	2565.29
559.10	2562.35
559.45	2558.56
559.81	2554.06
560.16	2548.69
560.52	2543.59
560.87	2539.12
561.23	2533.55
561.58	2527.85
561.94	2520.86
562.29	2513.77
562.64	2506.25
563.00	2498.14
563.35	2491.37
563.71	2484.73
564.06	2478.68
564.42	2472.02
564.77	2464.79
565.12	2457.66
565.48	2450.15
565.83	2441.89
566.19	2433.66
566.54	2425.60
566.89	2417.77
567.25	2410.25
567.60	2403.36
567.96	2396.02
568.31	2388.40
568.66	2379.56
569.02	2370.49
569.37	2362.53
569.72	2354.80
570.08	2345.33
570.43	2335.97
570.78	2326.91
571.14	2317.50
571.49	2307.14
571.84	2297.64
572.20	2286.79
572.55	2276.50
572.90	2265.39
573.26	2254.86
573.61	2244.00
573.96	2233.01
574.31	2220.69
574.67	2208.89
575.02	2196.16
575.37	2183.37
575.72	2170.12
576.08	2158.33
576.43	2146.07
576.78	2133.00
577.13	2119.30
577.49	2107.00
577.84	2095.47
578.19	2083.36
578.54	2070.87
578.90	2059.22
579.25	2046.89
579.60	2034.63
579.95	2021.81
580.30	2008.89
580.66	1996.09
581.01	1982.84
581.36	1968.94
581.71	1956.70
582.06	1943.98
582.42	1931.93
582.77	1919.51
583.12	1907.69
583.47	1895.64
583.82	1883.75
584.17	1871.94
584.53	1860.24
584.88	1847.72
585.23	1834.57
585.58	1820.62
585.93	1807.49
586.28	1794.31
586.63	1780.58
586.98	1766.71
587.34	1753.63
587.69	1740.41
588.04	1728.00
588.39	1715.96
588.74	1704.02
589.09	1692.03
589.44	1679.40
589.79	1667.13
590.14	1655.38
590.49	1643.37
590.84	1631.65
591.19	1619.70
591.54	1607.47
591.89	1595.48
592.25	1585.27
592.60	1573.97
592.95	1562.95
593.30	1551.38
593.65	1539.61
594.00	1527.96
594.35	1518.16
594.70	1506.33
595.05	1495.42
595.40	1483.46
595.75	1471.75
596.10	1460.62
596.45	1449.20
596.80	1438.51
597.15	1427.69
597.50	1416.17
597.85	1405.02
598.19	1393.39
598.54	1382.10
598.89	1371.27
599.24	1361.04
599.59	1349.71
599.94	1338.92
600.29	1328.53
600.64	1318.34
600.99	1307.63
601.34	1298.20
601.69	1287.42
602.04	1277.84
602.39	1268.31
602.74	1259.43
603.08	1250.32
603.43	1241.40
603.78	1232.17
604.13	1222.76
604.48	1213.03
604.83	1203.50
605.18	1193.87
605.53	1184.75
605.87	1175.71
606.22	1167.34
606.57	1158.11
606.92	1148.89
607.27	1140.18
607.62	1131.62
607.96	1123.10
608.31	1115.60
608.66	1107.39
609.01	1098.91
609.36	1090.71
609.70	1082.19
610.05	1073.65
610.40	1065.42
610.75	1056.79
611.10	1048.52
611.44	1040.00
611.79	1031.89
612.14	1024.16
612.49	1016.47
612.83	1009.03
613.18	1001.37
613.53	993.51
613.88	985.68
614.22	978.15
614.57	970.42
614.92	962.68
615.27	955.29
615.61	947.52
615.96	940.05
616.31	932.60
616.65	925.73
617.00	918.59
617.35	911.43
617.70	904.22
618.04	897.21
618.39	890.42
618.74	884.19
619.08	877.51
619.43	870.53
619.78	863.75
620.12	856.58
620.47	849.78
620.82	842.78
621.16	836.20
621.51	829.97
621.85	823.84
622.20	817.51
622.55	811.05
622.89	804.80
623.24	798.58
623.59	792.45
623.93	786.27
624.28	780.35
624.62	774.76
624.97	769.17
625.32	763.52
625.66	757.72
626.01	751.75
626.35	746.32
626.70	741.06
627.04	735.83
627.39	730.52
627.73	725.22
628.08	720.40
628.43	715.15
628.77	709.80
629.12	704.64
629.46	699.94
629.81	695.35
630.15	690.72
630.50	685.92
630.84	681.18
631.19	676.31
631.53	671.71
631.88	666.59
632.22	661.86
632.57	657.52
632.91	652.98
633.26	648.74
633.60	644.26
633.95	639.67
634.29	635.07
634.64	630.76
634.98	626.25
635.32	621.75
635.67	617.72
636.01	613.69
636.36	609.43
636.70	605.29
637.05	601.09
637.39	597.02
637.73	592.98
638.08	589.01
638.42	585.01
638.77	580.75
639.11	576.44
639.45	572.14
639.80	567.79
640.14	563.89
640.49	559.78
640.83	556.03
641.17	552.49
641.52	548.80
641.86	545.21
642.20	542.12
642.55	538.62
642.89	535.05
643.23	531.40
643.58	528.41
643.92	524.76
644.26	521.46
644.61	518.31
644.95	515.11
645.29	511.83
645.64	508.81
645.98	505.88
646.32	503.08
646.66	500.20
647.01	497.22
647.35	494.49
647.69	491.74
648.04	488.93
648.38	486.07
648.72	483.45
649.06	480.42
649.41	477.44
649.75	474.60
650.09	471.99
650.43	469.31
650.78	466.28
651.12	463.55
651.46	460.70
651.80	457.87
652.14	455.18
652.49	452.63
652.83	450.02
653.17	447.40
653.51	444.78
653.85	442.36
654.20	440.02
654.54	437.33
654.88	434.72
655.22	432.47
655.56	430.07
655.90	427.68
656.25	425.55
656.59	423.30
656.93	421.12
657.27	418.91
657.61	416.57
657.95	414.42
658.29	412.29
658.64	410.30
658.98	408.15
659.32	405.92
659.66	403.77
660.00	401.70
660.34	399.77
660.68	397.87
661.02	395.80
661.36	393.84
661.70	391.83
662.05	390.01
662.39	388.03
662.73	386.25
663.07	384.66
663.41	382.88
663.75	380.99
664.09	379.19
664.43	377.28
664.77	375.64
665.11	373.95
665.45	372.40
665.79	370.88
666.13	369.16
666.47	367.53
666.81	365.96
667.15	364.27
667.49	362.82
667.83	361.41
668.17	359.91
668.51	358.51
668.85	357.30
669.19	356.19
669.53	354.70
669.87	353.19
670.21	351.57
670.55	350.05
670.89	348.96
671.23	347.64
671.57	346.33
671.91	345.07
672.25	343.69
672.58	342.42
672.92	340.97
673.26	339.76
673.60	338.68
673.94	337.60
674.28	336.42
674.62	335.20
674.96	333.90
675.30	332.81
675.64	331.56
675.97	330.47
676.31	329.10
676.65	327.91
676.99	327.03
677.33	325.90
677.67	324.97
678.01	323.70
678.34	322.65
678.68	321.76
679.02	320.64
679.36	319.71
679.70	318.75
680.04	317.91
680.37	316.99
680.71	315.88
681.05	314.92
681.39	314.05
681.73	313.13
682.06	312.27
682.40	311.41
682.74	310.68
683.08	309.90
683.42	309.06
683.75	308.29
684.09	307.38
684.43	306.61
684.77	305.82
685.10	304.94
685.44	304.21
685.78	303.35
686.12	302.53
686.45	301.66
686.79	300.85
687.13	300.13
687.46	299.35
687.80	298.81
688.14	297.99
688.48	297.34
688.81	296.53
689.15	295.93
689.49	295.10
689.82	294.38
690.16	293.34
690.50	292.58
690.83	291.88
691.17	291.08
691.51	290.38
691.84	289.64
692.18	289.00
692.52	288.22
692.85	287.59
693.19	287.20
693.52	286.68
693.86	286.00
694.20	285.34
694.53	284.76
694.87	284.02
695.21	283.45
695.54	282.84
695.88	282.16
696.21	281.39
696.55	280.86
696.88	280.23
697.22	279.77
697.56	279.36
697.89	278.63
698.23	278.10
698.56	277.66
698.90	277.14
699.23	276.67
699.57	276.21
699.90	275.59
700.24	274.90
700.58	274.35
700.91	273.98
701.25	273.80
701.58	273.65
701.92	273.35
702.25	272.90
702.59	272.40
702.92	272.05
703.26	271.68
703.59	271.26
703.93	271.24
704.26	270.86
704.60	270.47
704.93	270.06
705.26	269.59
705.60	269.19
705.93	268.74
706.27	268.41
706.60	268.10
706.94	267.96
707.27	267.61
707.61	267.33
707.94	266.89
708.27	266.14
708.61	265.36
708.94	264.91
709.28	264.56
709.61	264.16
709.94	263.85
710.28	263.43
710.61	263.11
710.95	262.32
711.28	262.24
711.61	261.85
711.95	261.74
712.28	261.34
712.61	260.87
712.95	260.84
713.28	260.75
713.61	260.34
713.95	259.87
714.28	259.65
714.61	259.20
714.95	258.84
715.28	258.54
715.61	258.30
715.95	257.98
716.28	257.61
716.61	257.34
716.95	256.89
717.28	256.66
717.61	256.34
717.94	256.09
718.28	255.49
718.61	255.16
718.94	254.74
719.27	254.54
719.61	254.34
719.94	253.86
720.27	253.28
720.60	253.06
720.94	252.76
721.27	252.57
721.60	252.53
721.93	252.31
722.27	252.24
722.60	252.05
722.93	251.83
723.26	251.64
723.59	251.43
723.93	251.36
724.26	251.15
724.59	250.87
724.92	250.68
725.25	250.62
725.59	250.37
725.92	250.25
726.25	250.07
726.58	249.88
726.91	249.68
727.24	249.58
727.57	249.32
727.91	249.18
728.24	248.85
728.57	248.50
728.90	248.40
729.23	248.10
729.56	248.16
729.89	247.92
730.22	247.73
730.55	247.50
730.89	247.28
731.22	247.06
731.55	246.88
731.88	246.72
732.21	246.43
732.54	246.19
732.87	245.99
733.20	245.87
733.53	245.75
733.86	245.66
734.19	245.36
734.52	245.35
734.85	245.44
735.18	245.23
735.51	245.25
735.84	245.06
736.17	244.98
736.50	244.60
736.83	245.09
737.16	244.93
737.49	244.81
737.82	244.69
738.15	244.62
738.48	244.53
738.81	244.28
739.14	244.10
739.47	243.97
739.80	243.79
740.13	243.69
740.46	243.45
740.79	243.12
741.12	243.07
741.45	242.81
741.78	242.45
742.11	242.41
742.44	242.20
742.77	242.10
743.10	241.81
743.43	241.59
743.75	240.86
744.08	241.38
744.41	241.20
744.74	241.01
745.07	240.77
745.40	240.76
745.73	240.87
746.06	240.73
746.39	240.75
746.71	240.60
747.04	240.39
747.37	240.22
747.70	240.30
748.03	240.17
748.36	240.10
748.68	239.94
749.01	239.69
749.34	239.50
749.67	239.40
750.00	239.40
750.33	239.65
750.65	239.58
750.98	238.83
751.31	238.74
751.64	238.60
751.97	238.76
752.29	238.60
752.62	238.29
752.95	238.21
753.28	238.01
753.60	237.90
753.93	237.93
754.26	237.90
754.59	237.60
754.91	237.40
755.24	237.30
755.57	237.21
755.90	237.18
756.22	237.06
756.55	236.80
756.88	236.62
757.20	236.18
757.53	235.91
757.86	235.82
758.19	235.78
758.51	235.67
758.84	235.31
759.17	235.11
759.49	234.99
759.82	235.06
760.15	235.02
760.47	234.97
760.80	234.68
761.13	234.70
761.45	234.62
761.78	234.63
762.11	234.51
762.43	234.30
762.76	234.14
763.08	234.12
763.41	234.20
763.74	234.17
764.06	234.16
764.39	234.11
764.71	234.00
765.04	233.80
765.37	233.76
765.69	233.64
766.02	233.58
766.34	233.43
766.67	233.14
767.00	233.15
767.32	233.28
767.65	233.54
767.97	233.45
768.30	233.40
768.62	233.25
768.95	233.12
769.27	233.15
769.60	233.21
769.92	233.06
770.25	232.85
770.57	232.66
770.90	232.54
771.22	232.41
771.55	232.36
771.87	232.40
772.20	232.33
772.52	232.75
772.85	233.19
773.17	233.19
773.50	233.19
773.82	233.09
774.15	232.80
774.47	232.43
774.80	232.36
775.12	232.30
775.45	232.30
775.77	232.35
776.09	232.27
776.42	232.15
776.74	232.25
777.07	232.21
777.39	232.22
777.72	232.21
778.04	232.27
778.36	232.21
778.69	232.18
779.01	232.16
779.33	231.67
779.66	231.13
779.98	231.15
780.31	231.15
780.63	231.25
780.95	231.37
781.28	231.38
781.60	231.27
781.92	231.30
782.25	231.22
782.57	231.16
782.89	231.11
783.22	231.16
783.54	231.03
783.86	231.01
784.19	230.85
784.51	231.01
784.83	230.94
785.16	230.90
785.48	230.85
785.80	230.90
786.12	230.90
786.45	230.89
786.77	230.86
787.09	230.78
787.42	230.60
787.74	230.50
788.06	230.46
788.38	230.37
788.71	230.22
789.03	230.26
789.35	230.24
789.67	230.12
789.99	230.07
790.32	229.98
790.64	229.98
790.96	230.47
791.28	230.13
791.61	230.07
791.93	230.10
792.25	230.00
792.57	230.29
792.89	230.17
793.21	230.15
793.54	230.00
793.86	229.97
794.18	229.96
794.50	229.87
794.82	229.86
795.14	229.93
795.47	230.02
795.79	229.99
796.11	229.93
796.43	229.95
796.75	229.94
797.07	229.96
797.39	229.98
797.71	229.53
798.04	229.57
798.36	229.58
798.68	229.51
799.00	229.52
799.32	229.19
799.64	229.26
799.96	229.22
800.28	229.31
800.60	229.27
800.92	229.31
801.24	229.29
801.56	229.33
801.89	229.28
802.21	229.32
802.53	229.19
802.85	229.23
803.17	229.43
803.49	229.25
803.81	229.19
804.13	229.08
804.45	229.07
804.77	229.12
805.09	229.06
805.41	228.95
805.73	228.93
806.05	228.81
806.37	228.81
806.69	228.77
807.01	228.74
807.33	228.73
807.65	228.48
807.97	228.73
808.28	228.65
808.60	228.62
808.92	228.46
809.24	228.79
809.56	228.71
809.88	228.59
810.20	228.73
810.52	228.79
810.84	228.73
811.16	228.65
811.48	228.54
811.80	228.78
812.12	228.85
812.43	228.91
812.75	228.85
813.07	228.76
813.39	228.82
813.71	228.76
814.03	228.75
814.35	228.86
814.67	228.59
814.98	228.51
815.30	228.46
815.62	228.45
815.94	228.14
816.26	228.31
816.58	228.14
816.89	228.10
817.21	227.98
817.53	228.09
817.85	228.16
818.17	228.18
818.48	227.93
818.80	227.98
819.12	227.89
819.44	227.80
819.76	227.75
820.07	227.73
820.39	227.61
820.71	227.65
821.03	227.54
821.34	227.55
821.66	227.61
821.98	227.71
822.30	227.69
822.61	227.89
822.93	227.62
823.25	227.67
823.57	227.57
823.88	227.67
824.20	227.52
824.52	227.52
824.83	227.50
825.15	227.47
825.47	227.43
825.79	227.45
826.10	227.53
826.42	227.47
826.74	227.52
827.05	227.63
827.37	227.57
827.69	227.60
828.00	227.56
828.32	227.42
828.64	227.30
828.95	227.53
829.27	227.38
829.58	227.42
829.90	227.55
830.22	227.64
830.53	227.45
830.85	227.51
831.17	227.37
831.48	227.40
831.80	227.47
832.11	227.40
832.43	227.33
832.75	227.33
833.06	227.67
833.38	227.45
833.69	227.45
834.01	227.50
834.32	227.41
834.64	227.38
834.96	227.50
835.27	227.46
835.59	227.35
835.90	227.30
836.22	227.20
836.53	227.02
836.85	226.95
837.16	227.51
837.48	227.50
837.79	227.72
838.11	227.78
838.42	227.75
838.74	227.84
839.05	227.83
839.37	227.83
839.68	227.47
840.00	227.59
840.31	227.60
840.63	227.51
840.94	227.55
841.26	227.50
841.57	227.51
841.88	227.54
842.20	227.47
842.51	227.42
842.83	227.50
843.14	227.99
843.46	228.01
843.77	227.69
844.08	227.60
844.40	227.41
844.71	227.26
845.03	227.20
845.34	227.12
845.65	227.09
845.97	227.05
846.28	227.11
846.60	227.11
846.91	227.02
847.22	227.04
847.54	227.08
847.85	227.10
848.16	227.02
848.48	226.96
848.79	227.14
849.10	227.21
849.42	227.21
849.73	226.70
850.04	226.64
850.36	226.46
850.67	226.55
850.98	226.61
851.30	226.70
851.61	226.69
851.92	226.68
852.23	226.85
852.55	226.89
852.86	226.92
853.17	226.96
853.49	227.05
853.80	227.08
854.11	227.14
854.42	227.23
854.74	227.20
855.05	227.23
855.36	226.98
855.67	226.98
855.99	227.05
856.30	227.63
856.61	227.67
856.92	227.67
857.23	227.63
857.55	227.55
857.86	227.51
858.17	227.58
858.48	227.42
858.79	227.29
859.11	227.39
859.42	227.32
859.73	227.21
860.04	227.17
860.35	227.15
860.66	227.06
860.98	227.01
861.29	227.01
861.60	226.99
861.91	227.07
862.22	226.94
862.53	226.87
862.84	226.27
863.16	226.38
863.47	226.38
863.78	226.41
864.09	226.44
864.40	226.48
864.71	226.45
865.02	226.63
865.33	226.54
865.64	226.35
865.95	226.32
866.27	226.61
866.58	226.60
866.89	226.62
867.20	226.57
867.51	226.52
867.82	226.49
868.13	226.63
868.44	226.52
868.75	226.64
869.06	226.60
869.37	226.62
869.68	226.44
869.99	226.46
870.30	226.50
870.61	226.60
870.92	226.54
871.23	226.48
871.54	226.55
871.85	226.65
872.16	226.76
872.47	226.81
872.78	226.54
873.09	226.62
873.40	226.59
873.71	226.55
874.02	226.58
874.33	226.55
874.64	226.48
874.95	226.63
875.26	226.51
875.56	226.49
875.87	226.50
876.18	226.51
876.49	226.99
876.80	226.87
877.11	226.75
877.42	226.74
877.73	226.85
878.04	226.77
878.35	226.79
878.66	226.74
878.96	226.73
879.27	226.70
879.58	226.64
879.89	226.55
880.20	226.75
880.51	226.79
880.82	226.81
881.12	226.82
881.43	226.71
881.74	226.68
882.05	226.73
882.36	226.85
882.67	226.86
882.97	226.36
883.28	226.32
883.59	226.32
883.90	226.34
884.21	226.39
884.51	226.27
884.82	226.15
885.13	226.28
885.44	226.23
885.74	226.25
886.05	226.24
886.36	226.23
886.67	226.08
886.98	226.26
887.28	226.35
887.59	226.29
887.90	226.32
888.20	226.30
888.51	226.37
888.82	226.29
889.13	226.35
889.43	226.70
889.74	226.70
890.05	226.75
890.35	226.69
890.66	226.53
890.97	226.57
891.28	226.65
891.58	226.57
891.89	226.57
892.20	226.52
892.50	226.46
892.81	226.47
893.12	226.43
893.42	226.18
893.73	226.26
894.04	226.27
894.34	226.21
894.65	226.23
894.95	226.15
895.26	226.16
895.57	226.30
895.87	225.94
896.18	226.06
896.48	225.99
896.79	226.08
897.10	226.20
897.40	226.20
897.71	226.23
898.01	226.21
898.32	226.33
898.63	226.35
898.93	226.45
899.24	226.44
899.54	226.49
899.85	226.50
900.15	226.39
900.46	226.45
900.76	226.57
901.07	226.58
901.38	226.61
901.68	226.68
901.99	226.45
902.29	226.42
902.60	226.39
902.90	226.40
903.21	226.28
903.51	226.18
903.82	226.29
904.12	226.25
904.43	226.30
904.73	226.25
905.03	226.30
905.34	226.73
905.64	226.75
905.95	226.73
906.25	226.65
906.56	226.60
906.86	226.60
907.17	226.60
907.47	226.64
907.77	226.58
908.08	226.40
908.38	226.44
908.69	226.52
908.99	226.52
909.30	226.49
909.60	226.59
909.90	226.70
910.21	226.62
910.51	226.62
910.81	226.57
911.12	226.58
911.42	226.51
911.73	226.01
912.03	226.01
912.33	226.10
912.64	226.17
912.94	226.12
913.24	226.03
913.55	225.93
913.85	225.82
914.15	225.91
914.46	226.03
914.76	226.02
915.06	225.97
915.37	225.90
915.67	225.92
915.97	225.82
916.27	225.70
916.58	225.65
916.88	225.59
917.18	225.59
917.49	225.86
917.79	225.87
918.09	225.93
918.39	226.01
918.70	226.01
919.00	226.06
919.30	226.33
919.60	226.35
919.91	226.33
920.21	226.43
920.51	226.30
920.81	226.19
921.12	226.25
921.42	226.25
921.72	226.39
922.02	226.43
922.32	226.52
922.63	226.58
922.93	226.87
923.23	226.87
923.53	226.86
923.83	226.59
924.13	226.63
924.44	226.63
924.74	226.76
925.04	226.84
925.34	226.81
925.64	226.60
925.94	226.61
926.24	226.85
926.55	226.81
926.85	226.95
927.15	227.06
927.45	227.05
927.75	227.05
928.05	227.02
928.35	226.92
928.65	226.98
928.95	226.97
929.26	226.79
929.56	226.90
929.86	226.92
930.16	226.92
930.46	226.93
930.76	226.95
931.06	226.69
931.36	226.58
931.66	226.63
931.96	226.70
932.26	226.72
932.56	226.58
932.86	226.62
933.16	226.54
933.46	226.49
933.76	226.46
934.06	226.57
934.36	226.69
934.66	226.75
934.96	226.72
935.26	226.80
935.56	226.84
935.86	226.78
936.16	226.75
936.46	226.62
936.76	226.58
937.06	226.52
937.36	226.54
937.66	226.54
937.96	226.53
938.26	226.40
938.56	226.30
938.86	226.27
939.16	226.34
939.46	226.46
939.76	226.53
940.06	226.51
940.35	226.39
940.65	226.15
940.95	226.21
941.25	226.09
941.55	226.06
941.85	226.03
942.15	226.10
942.45	226.17
942.75	226.22
943.04	226.22
943.34	226.29
943.64	226.29
943.94	226.15
944.24	226.13
944.54	226.22
944.84	226.22
945.13	226.11
945.43	226.02
945.73	225.98
946.03	225.89
946.33	225.80
946.62	225.75
946.92	225.75
947.22	225.74
947.52	225.82
947.82	225.78
948.11	225.75
948.41	225.60
948.71	225.49
949.01	225.49
949.31	225.38
949.60	225.29
949.90	225.37
950.20	225.39
950.50	225.41
950.79	225.39
951.09	225.42
951.39	225.47
951.69	225.40
951.98	225.49
952.28	225.49
952.58	225.53
952.87	225.56
953.17	225.56
953.47	225.50
953.76	225.43
954.06	225.37
954.36	225.22
954.66	225.25
954.95	225.38
955.25	225.47
955.55	225.60
955.84	225.58
956.14	225.59
956.44	225.68
956.73	225.58
957.03	225.58
957.32	225.67
957.62	225.61
957.92	225.75
958.21	225.63
958.51	226.16
958.81	226.16
959.10	226.18
959.40	226.33
959.69	226.38
959.99	226.46
960.29	226.45
960.58	226.49
960.88	226.65
961.17	226.64
961.47	226.66
961.76	226.61
962.06	226.69
962.36	226.64
962.65	226.69
962.95	226.76
963.24	226.67
963.54	226.57
963.83	226.62
964.13	226.58
964.42	226.45
964.72	226.12
965.01	226.14
965.31	226.13
965.60	226.01
965.90	226.28
966.19	226.15
966.49	226.23
966.78	226.21
967.08	226.20
967.37	226.17
967.67	226.06
967.96	226.17
968.26	226.16
968.55	226.21
968.85	226.20
969.14	226.17
969.43	226.20
969.73	226.20
970.02	226.24
970.32	226.18
970.61	226.21
970.91	226.04
971.20	225.94
971.49	225.87
971.79	225.97
972.08	225.71
972.38	225.81
972.67	225.75
972.96	225.90
973.26	225.78
973.55	225.92
973.85	225.89
974.14	225.86
974.43	225.87
974.73	225.82
975.02	225.76
975.31	225.77
975.61	225.79
975.90	225.77
976.19	225.76
976.49	225.82
976.78	225.90
977.07	225.90
977.37	225.93
977.66	226.00
977.95	225.89
978.24	225.86
978.54	225.92
978.83	225.91
979.12	225.87
979.42	225.88
979.71	225.75
980.00	225.75
980.29	225.77
980.59	225.73
980.88	225.85
981.17	225.84
981.46	225.82
981.76	225.80
982.05	225.95
982.34	225.96
982.63	225.96
982.93	225.94
983.22	226.01
983.51	226.05
983.80	226.13
984.09	226.19
984.39	226.15
984.68	226.09
984.97	226.13
985.26	226.05
985.55	226.10
985.85	226.05
986.14	226.10
986.43	226.18
986.72	226.15
987.01	226.00
987.30	225.96
987.59	225.93
987.89	225.97
988.18	225.77
988.47	225.62
988.76	225.63
989.05	225.57
989.34	225.55
989.63	225.77
989.92	225.69
990.22	225.62
990.51	225.55
990.80	225.53
991.09	225.50
991.38	225.58
991.67	225.55
991.96	225.59
992.25	225.64
992.54	225.47
992.83	225.43
993.12	225.40
993.41	225.54
993.70	225.74
993.99	225.87
994.28	225.96
994.58	226.16
994.87	226.05
995.16	226.01
995.45	226.01
995.74	225.79
996.03	225.87
996.32	225.96
996.61	226.06
996.90	226.02
997.19	226.03
997.48	226.02
997.77	225.91
998.06	225.81
998.34	225.76
998.63	225.84
998.92	225.87
999.21	225.97
999.50	225.92
999.79	225.73
1000.08	225.72
1000.37	225.72
1000.66	225.69
1000.95	225.81
1001.24	225.86
1001.53	225.82
1001.82	225.80
1002.11	225.67
1002.40	225.75
1002.68	225.94
1002.97	226.30
1003.26	226.15
1003.55	226.08
1003.84	226.20
1004.13	226.44
1004.42	226.44
1004.71	226.34
1004.99	226.35
1005.28	226.45
1005.57	226.39
1005.86	226.36
1006.15	226.20
1006.44	226.18
1006.72	226.18
1007.01	226.08
1007.30	226.10
1007.59	226.05
1007.88	226.03
1008.17	226.03
1008.45	225.89
1008.74	225.72
1009.03	225.43
1009.32	225.58
1009.60	225.55
1009.89	225.50
1010.18	225.24
1010.47	225.21
1010.76	225.24
1011.04	225.17
1011.33	225.20
1011.62	225.23
1011.91	225.28
1012.19	225.31
1012.48	225.30
1012.77	225.29
1013.05	225.55
1013.34	225.57
1013.63	225.59
1013.92	225.60
1014.20	225.64
1014.49	225.72
1014.78	225.77
1015.06	225.65
1015.35	225.65
1015.64	225.74
1015.92	225.83
1016.21	225.82
1016.50	225.86
1016.78	225.92
1017.07	226.00
1017.36	225.93
1017.64	225.92
1017.93	225.98
1018.22	225.98
1018.50	225.97
1018.79	226.00
1019.08	225.73
1019.36	225.74
1019.65	225.71
1019.93	225.82
1020.22	225.84
1020.51	226.03
1020.79	225.94
1021.08	225.35
1021.36	225.05
1021.65	226.50
1021.94	224.60
1022.22	225.75
1022.51	224.70
1022.79	226.80
1023.08	226.00
1023.36	230.95
1023.65	224.90
>>>>>End Processed Spectral Data<<<<<
