SpectraSuite Data File
++++++++++++++++++++++++++++++++++++
Date: Wed Sep 04 17:52:27 EDT 2013
User: lab3
Dark Spectrum Present: Yes
Reference Spectrum Present: No
Number of Sampled Component Spectra: 1
Spectrometers: USB2E7196
Integration Time (usec): 170000 (USB2E7196)
Spectra Averaged: 20 (USB2E7196)
Boxcar Smoothing: 10 (USB2E7196)
Correct for Electrical Dark: No (USB2E7196)
Strobe/Lamp Enabled: No (USB2E7196)
Correct for Detector Non-linearity: No (USB2E7196)
Correct for Stray Light: No (USB2E7196)
Number of Pixels in Processed Spectrum: 2048
>>>>>Begin Processed Spectral Data<<<<<
339.09	0.00
339.48	212.05
339.86	214.45
340.24	216.50
340.63	217.80
341.01	224.95
341.39	220.50
341.78	222.95
342.16	223.55
342.54	223.10
342.93	212.44
343.31	223.14
343.69	223.75
344.07	224.18
344.46	224.66
344.84	225.10
345.22	225.05
345.60	225.36
345.99	225.49
346.37	225.63
346.75	225.73
347.13	225.85
347.52	225.91
347.90	226.07
348.28	226.04
348.66	226.22
349.05	226.01
349.43	226.06
349.81	226.13
350.19	226.14
350.57	226.19
350.96	226.32
351.34	226.44
351.72	226.54
352.10	226.69
352.48	226.71
352.87	226.65
353.25	226.83
353.63	226.86
354.01	226.91
354.39	226.99
354.77	227.01
355.15	227.20
355.54	227.22
355.92	227.10
356.30	227.27
356.68	227.64
357.06	227.77
357.44	227.82
357.82	227.81
358.20	228.27
358.58	228.35
358.97	228.43
359.35	228.58
359.73	228.72
360.11	228.86
360.49	228.88
360.87	228.97
361.25	229.02
361.63	229.20
362.01	229.38
362.39	229.35
362.77	229.51
363.15	229.42
363.53	229.47
363.91	229.57
364.29	229.50
364.67	229.04
365.05	229.07
365.43	229.14
365.81	229.30
366.19	229.20
366.57	229.39
366.95	229.38
367.33	229.24
367.71	229.24
368.09	229.25
368.47	229.25
368.85	229.23
369.23	229.36
369.61	229.20
369.99	229.18
370.37	229.28
370.75	229.45
371.13	229.37
371.51	229.26
371.89	229.28
372.27	229.31
372.65	229.29
373.03	229.24
373.41	229.10
373.78	229.03
374.16	228.70
374.54	228.51
374.92	228.46
375.30	228.44
375.68	228.29
376.06	228.28
376.44	228.22
376.82	228.23
377.19	228.15
377.57	228.12
377.95	228.00
378.33	227.85
378.71	227.44
379.09	227.46
379.47	227.48
379.84	227.27
380.22	227.17
380.60	227.00
380.98	226.94
381.36	226.90
381.73	226.73
382.11	226.79
382.49	226.70
382.87	226.50
383.25	226.45
383.62	226.92
384.00	226.71
384.38	226.63
384.76	226.65
385.13	226.73
385.51	226.60
385.89	226.44
386.27	226.42
386.64	226.55
387.02	226.46
387.40	226.39
387.78	226.45
388.15	226.41
388.53	226.40
388.91	226.33
389.29	226.29
389.66	226.41
390.04	226.30
390.42	226.35
390.79	226.43
391.17	226.41
391.55	225.85
391.92	225.87
392.30	225.94
392.68	225.84
393.05	225.78
393.43	225.87
393.81	225.94
394.18	225.94
394.56	225.88
394.94	225.98
395.31	226.04
395.69	226.17
396.06	226.22
396.44	226.31
396.82	226.36
397.19	226.66
397.57	226.61
397.95	226.80
398.32	226.77
398.70	226.89
399.07	227.03
399.45	227.10
399.82	227.13
400.20	227.18
400.58	227.36
400.95	227.27
401.33	227.43
401.70	227.82
402.08	227.99
402.45	228.20
402.83	228.46
403.20	228.67
403.58	228.78
403.95	229.07
404.33	229.37
404.71	229.63
405.08	230.06
405.46	230.27
405.83	230.51
406.21	230.80
406.58	231.05
406.96	231.31
407.33	231.72
407.70	232.12
408.08	232.89
408.45	233.36
408.83	233.90
409.20	234.28
409.58	234.49
409.95	235.01
410.33	235.55
410.70	235.92
411.08	236.49
411.45	237.02
411.82	237.60
412.20	238.31
412.57	239.26
412.95	239.60
413.32	240.56
413.69	241.34
414.07	242.30
414.44	243.30
414.82	244.36
415.19	245.53
415.56	246.71
415.94	247.68
416.31	249.05
416.68	250.50
417.06	252.11
417.43	253.85
417.81	255.56
418.18	257.38
418.55	259.31
418.93	261.32
419.30	263.50
419.67	265.75
420.04	268.05
420.42	270.32
420.79	273.35
421.16	276.07
421.54	279.12
421.91	282.05
422.28	285.14
422.66	288.38
423.03	291.81
423.40	295.18
423.77	298.70
424.15	302.24
424.52	306.00
424.89	310.07
425.26	313.86
425.64	317.65
426.01	321.80
426.38	326.16
426.75	330.67
427.13	335.21
427.50	339.94
427.87	344.73
428.24	349.69
428.61	354.10
428.99	359.40
429.36	364.91
429.73	370.37
430.10	375.83
430.47	381.45
430.85	387.00
431.22	393.21
431.59	400.00
431.96	406.22
432.33	413.13
432.70	419.79
433.08	427.60
433.45	434.90
433.82	442.26
434.19	450.44
434.56	458.45
434.93	466.04
435.30	473.78
435.68	482.23
436.05	490.65
436.42	499.18
436.79	506.74
437.16	514.98
437.53	523.73
437.90	532.48
438.27	541.25
438.64	550.17
439.01	558.36
439.38	565.58
439.75	572.71
440.13	580.75
440.50	588.24
440.87	594.40
441.24	600.85
441.61	607.85
441.98	612.90
442.35	618.67
442.72	624.69
443.09	630.42
443.46	633.92
443.83	636.23
444.20	638.05
444.57	640.86
444.94	641.93
445.31	643.06
445.68	644.52
446.05	644.45
446.42	643.10
446.79	641.80
447.16	640.11
447.53	638.64
447.90	634.87
448.27	631.41
448.64	626.50
449.01	622.93
449.37	616.72
449.74	610.66
450.11	603.89
450.48	596.23
450.85	588.34
451.22	581.54
451.59	574.95
451.96	568.64
452.33	560.53
452.70	553.21
453.07	544.56
453.43	535.36
453.80	526.99
454.17	518.99
454.54	511.22
454.91	503.10
455.28	495.40
455.65	487.96
456.02	481.06
456.38	474.68
456.75	466.85
457.12	460.38
457.49	454.14
457.86	447.78
458.23	442.60
458.59	436.87
458.96	431.00
459.33	425.87
459.70	420.77
460.07	416.82
460.43	412.13
460.80	407.94
461.17	404.21
461.54	400.29
461.91	396.60
462.27	392.74
462.64	389.49
463.01	385.85
463.38	382.55
463.74	378.53
464.11	375.65
464.48	373.04
464.85	370.18
465.21	368.08
465.58	365.76
465.95	362.94
466.32	360.72
466.68	358.55
467.05	356.32
467.42	354.29
467.78	351.86
468.15	349.80
468.52	348.10
468.88	345.83
469.25	343.88
469.62	342.40
469.98	340.77
470.35	339.31
470.72	337.86
471.08	336.20
471.45	334.87
471.82	333.61
472.18	332.13
472.55	331.17
472.92	329.76
473.28	328.64
473.65	327.59
474.02	326.56
474.38	325.76
474.75	325.04
475.11	324.03
475.48	323.35
475.85	322.61
476.21	321.96
476.58	321.55
476.94	321.18
477.31	320.63
477.67	320.19
478.04	319.83
478.41	319.68
478.77	319.99
479.14	319.80
479.50	319.68
479.87	319.66
480.23	319.69
480.60	319.79
480.96	319.88
481.33	320.31
481.69	320.51
482.06	320.76
482.42	321.00
482.79	321.31
483.15	321.74
483.52	322.45
483.88	322.98
484.25	323.55
484.61	324.27
484.98	325.01
485.34	326.07
485.71	327.02
486.07	327.99
486.44	328.50
486.80	329.53
487.17	330.69
487.53	332.14
487.90	333.40
488.26	334.97
488.62	336.63
488.99	338.04
489.35	339.80
489.72	341.64
490.08	343.61
490.44	345.75
490.81	348.03
491.17	350.20
491.54	352.72
491.90	355.30
492.26	357.90
492.63	360.61
492.99	363.39
493.36	366.40
493.72	369.65
494.08	373.04
494.45	376.75
494.81	380.53
495.17	384.38
495.54	388.64
495.90	392.85
496.26	397.26
496.63	401.84
496.99	406.52
497.35	411.60
497.72	416.80
498.08	422.08
498.44	427.64
498.80	433.73
499.17	439.70
499.53	445.91
499.89	452.54
500.26	459.40
500.62	466.41
500.98	473.73
501.34	481.17
501.71	488.99
502.07	496.75
502.43	504.96
502.79	513.24
503.16	521.82
503.52	530.69
503.88	539.84
504.24	549.48
504.60	559.46
504.97	569.77
505.33	580.06
505.69	591.18
506.05	602.23
506.41	613.23
506.78	624.88
507.14	636.80
507.50	649.11
507.86	661.68
508.22	674.64
508.59	687.53
508.95	701.10
509.31	715.10
509.67	729.44
510.03	743.47
510.39	758.29
510.75	773.37
511.12	788.66
511.48	804.13
511.84	819.79
512.20	835.70
512.56	852.00
512.92	868.79
513.28	885.76
513.64	903.08
514.00	920.68
514.37	938.53
514.73	956.64
515.09	974.92
515.45	993.12
515.81	1011.42
516.17	1030.33
516.53	1048.71
516.89	1067.36
517.25	1086.71
517.61	1106.88
517.97	1127.21
518.33	1147.21
518.69	1167.47
519.05	1188.28
519.41	1209.25
519.77	1230.19
520.13	1250.88
520.49	1271.53
520.85	1293.48
521.21	1314.39
521.57	1335.67
521.93	1356.20
522.29	1377.27
522.65	1397.64
523.01	1418.65
523.37	1439.12
523.73	1460.36
524.09	1481.34
524.45	1502.11
524.81	1522.86
525.17	1543.53
525.53	1563.82
525.89	1584.56
526.25	1605.39
526.61	1625.30
526.97	1645.98
527.33	1667.34
527.68	1689.10
528.04	1710.37
528.40	1729.83
528.76	1750.96
529.12	1771.39
529.48	1792.39
529.84	1812.50
530.20	1833.75
530.56	1854.31
530.91	1875.24
531.27	1895.37
531.63	1915.73
531.99	1936.03
532.35	1955.64
532.71	1975.86
533.07	1996.15
533.42	2015.96
533.78	2035.47
534.14	2055.33
534.50	2074.24
534.86	2093.10
535.21	2110.34
535.57	2128.65
535.93	2146.62
536.29	2163.98
536.65	2182.10
537.00	2199.30
537.36	2216.68
537.72	2232.86
538.08	2249.95
538.44	2266.68
538.79	2282.72
539.15	2299.08
539.51	2315.15
539.87	2330.45
540.22	2344.17
540.58	2358.61
540.94	2371.74
541.29	2384.78
541.65	2397.41
542.01	2410.10
542.37	2420.37
542.72	2431.05
543.08	2441.45
543.44	2452.84
543.79	2462.85
544.15	2472.39
544.51	2482.50
544.87	2492.25
545.22	2500.75
545.58	2508.33
545.94	2515.16
546.29	2521.71
546.65	2527.72
547.01	2533.12
547.36	2538.75
547.72	2544.24
548.07	2548.09
548.43	2553.47
548.79	2557.90
549.14	2561.71
549.50	2565.44
549.86	2569.77
550.21	2573.86
550.57	2577.61
550.92	2578.90
551.28	2580.35
551.64	2582.46
551.99	2584.04
552.35	2585.30
552.70	2587.46
553.06	2589.36
553.41	2590.46
553.77	2592.15
554.13	2594.04
554.48	2595.48
554.84	2596.41
555.19	2597.36
555.55	2598.80
555.90	2597.84
556.26	2596.63
556.61	2594.88
556.97	2592.57
557.32	2591.66
557.68	2590.12
558.03	2588.19
558.39	2586.83
558.74	2585.68
559.10	2582.38
559.45	2578.76
559.81	2574.25
560.16	2569.04
560.52	2563.56
560.87	2559.14
561.23	2553.75
561.58	2547.57
561.94	2540.51
562.29	2533.35
562.64	2526.30
563.00	2518.37
563.35	2511.68
563.71	2504.89
564.06	2498.92
564.42	2492.30
564.77	2485.37
565.12	2478.09
565.48	2470.71
565.83	2462.70
566.19	2454.79
566.54	2447.27
566.89	2439.43
567.25	2431.78
567.60	2424.39
567.96	2417.05
568.31	2409.40
568.66	2400.65
569.02	2391.62
569.37	2383.70
569.72	2376.19
570.08	2366.89
570.43	2357.46
570.78	2348.62
571.14	2339.55
571.49	2329.42
571.84	2319.80
572.20	2308.84
572.55	2298.76
572.90	2287.47
573.26	2277.36
573.61	2266.23
573.96	2254.56
574.31	2242.24
574.67	2230.49
575.02	2217.92
575.37	2205.35
575.72	2192.27
576.08	2180.27
576.43	2168.04
576.78	2155.08
577.13	2141.29
577.49	2128.71
577.84	2116.74
578.19	2104.60
578.54	2091.95
578.90	2080.00
579.25	2067.85
579.60	2055.47
579.95	2042.67
580.30	2029.72
580.66	2016.06
581.01	2002.69
581.36	1989.00
581.71	1976.76
582.06	1963.88
582.42	1951.73
582.77	1939.27
583.12	1927.35
583.47	1915.09
583.82	1903.13
584.17	1890.90
584.53	1879.47
584.88	1866.75
585.23	1853.72
585.58	1839.71
585.93	1826.57
586.28	1813.55
586.63	1799.51
586.98	1785.40
587.34	1771.93
587.69	1758.80
588.04	1746.41
588.39	1734.41
588.74	1722.43
589.09	1710.11
589.44	1697.37
589.79	1685.26
590.14	1673.25
590.49	1660.83
590.84	1648.90
591.19	1636.78
591.54	1624.75
591.89	1612.44
592.25	1602.10
592.60	1590.60
592.95	1579.18
593.30	1567.31
593.65	1555.15
594.00	1543.45
594.35	1533.87
594.70	1522.10
595.05	1510.84
595.40	1498.86
595.75	1486.81
596.10	1475.61
596.45	1464.40
596.80	1453.65
597.15	1442.20
597.50	1430.66
597.85	1419.65
598.19	1407.93
598.54	1396.19
598.89	1385.04
599.24	1374.48
599.59	1363.07
599.94	1352.36
600.29	1342.07
600.64	1331.90
600.99	1321.39
601.34	1311.79
601.69	1300.52
602.04	1291.05
602.39	1281.50
602.74	1272.57
603.08	1263.49
603.43	1254.22
603.78	1244.67
604.13	1235.18
604.48	1225.69
604.83	1216.00
605.18	1206.08
605.53	1196.74
605.87	1187.79
606.22	1179.15
606.57	1170.11
606.92	1160.60
607.27	1151.64
607.62	1142.85
607.96	1134.31
608.31	1126.45
608.66	1118.03
609.01	1109.48
609.36	1100.87
609.70	1092.16
610.05	1083.36
610.40	1074.87
610.75	1066.27
611.10	1057.82
611.44	1049.29
611.79	1041.10
612.14	1033.39
612.49	1025.62
612.83	1018.21
613.18	1010.48
613.53	1002.71
613.88	994.68
614.22	987.16
614.57	979.56
614.92	971.72
615.27	964.32
615.61	956.67
615.96	949.04
616.31	941.75
616.65	934.60
617.00	927.46
617.35	920.26
617.70	913.11
618.04	906.03
618.39	899.10
618.74	892.88
619.08	886.12
619.43	878.97
619.78	872.15
620.12	865.01
620.47	858.19
620.82	851.04
621.16	844.16
621.51	837.89
621.85	831.45
622.20	825.00
622.55	818.19
622.89	811.59
623.24	805.38
623.59	798.94
623.93	792.66
624.28	786.63
624.62	781.06
624.97	775.38
625.32	769.71
625.66	763.90
626.01	757.62
626.35	752.18
626.70	746.79
627.04	741.31
627.39	735.69
627.73	730.51
628.08	725.55
628.43	720.27
628.77	714.97
629.12	709.76
629.46	705.06
629.81	700.54
630.15	695.84
630.50	690.84
630.84	686.15
631.19	681.48
631.53	676.99
631.88	671.75
632.22	666.88
632.57	662.41
632.91	657.77
633.26	653.50
633.60	648.75
633.95	644.10
634.29	639.60
634.64	635.32
634.98	630.48
635.32	626.09
635.67	621.97
636.01	617.71
636.36	613.33
636.70	609.10
637.05	604.87
637.39	600.83
637.73	596.93
638.08	593.00
638.42	588.83
638.77	584.34
639.11	580.18
639.45	575.92
639.80	571.53
640.14	567.57
640.49	563.44
640.83	559.70
641.17	556.10
641.52	552.34
641.86	548.73
642.20	545.63
642.55	541.92
642.89	538.39
643.23	535.00
643.58	531.96
643.92	528.31
644.26	524.93
644.61	521.76
644.95	518.34
645.29	515.03
645.64	511.89
645.98	509.02
646.32	506.15
646.66	503.07
647.01	500.12
647.35	497.31
647.69	494.57
648.04	491.74
648.38	488.89
648.72	486.17
649.06	483.20
649.41	480.03
649.75	477.15
650.09	474.45
650.43	471.54
650.78	468.49
651.12	465.81
651.46	462.99
651.80	460.12
652.14	457.46
652.49	454.87
652.83	452.34
653.17	449.64
653.51	446.94
653.85	444.55
654.20	442.01
654.54	439.38
654.88	436.79
655.22	434.56
655.56	432.07
655.90	429.71
656.25	427.49
656.59	425.34
656.93	423.14
657.27	420.95
657.61	418.58
657.95	416.42
658.29	414.28
658.64	412.27
658.98	410.06
659.32	407.93
659.66	405.85
660.00	403.70
660.34	401.66
660.68	399.65
661.02	397.63
661.36	395.73
661.70	393.75
662.05	391.80
662.39	389.84
662.73	388.08
663.07	386.43
663.41	384.59
663.75	382.71
664.09	381.05
664.43	379.14
664.77	377.50
665.11	375.75
665.45	374.01
665.79	372.37
666.13	370.74
666.47	369.16
666.81	367.43
667.15	365.75
667.49	364.22
667.83	362.88
668.17	361.37
668.51	359.94
668.85	358.61
669.19	357.48
669.53	355.94
669.87	354.46
670.21	352.85
670.55	351.52
670.89	350.30
671.23	348.87
671.57	347.56
671.91	346.19
672.25	344.93
672.58	343.67
672.92	342.24
673.26	340.94
673.60	339.64
673.94	338.46
674.28	337.40
674.62	336.26
674.96	334.92
675.30	333.82
675.64	332.60
675.97	331.42
676.31	330.06
676.65	328.86
676.99	327.77
677.33	326.56
677.67	325.43
678.01	324.14
678.34	323.08
678.68	322.13
679.02	321.02
679.36	320.01
679.70	319.01
680.04	318.12
680.37	317.15
680.71	316.16
681.05	315.28
681.39	314.26
681.73	313.28
682.06	312.39
682.40	311.44
682.74	310.63
683.08	309.88
683.42	309.02
683.75	308.24
684.09	307.34
684.43	306.56
684.77	305.83
685.10	305.09
685.44	304.31
685.78	303.47
686.12	302.77
686.45	301.93
686.79	301.09
687.13	300.38
687.46	299.69
687.80	299.15
688.14	298.35
688.48	297.65
688.81	296.88
689.15	296.29
689.49	295.51
689.82	294.83
690.16	293.93
690.50	293.18
690.83	292.50
691.17	291.73
691.51	291.14
691.84	290.46
692.18	289.72
692.52	289.04
692.85	288.44
693.19	288.07
693.52	287.45
693.86	286.90
694.20	286.19
694.53	285.59
694.87	284.83
695.21	284.22
695.54	283.60
695.88	283.08
696.21	282.35
696.55	281.86
696.88	281.24
697.22	280.65
697.56	280.19
697.89	279.58
698.23	279.13
698.56	278.47
698.90	277.94
699.23	277.51
699.57	277.02
699.90	276.35
700.24	275.61
700.58	275.17
700.91	274.71
701.25	274.61
701.58	274.46
701.92	274.08
702.25	273.59
702.59	273.11
702.92	272.66
703.26	272.32
703.59	271.87
703.93	271.77
704.26	271.46
704.60	271.04
704.93	270.63
705.26	270.22
705.60	269.88
705.93	269.39
706.27	269.11
706.60	268.84
706.94	268.75
707.27	268.30
707.61	267.99
707.94	267.62
708.27	266.91
708.61	266.12
708.94	265.56
709.28	265.24
709.61	264.73
709.94	264.42
710.28	263.97
710.61	263.66
710.95	262.90
711.28	262.89
711.61	262.48
711.95	262.18
712.28	261.71
712.61	261.33
712.95	261.32
713.28	261.16
713.61	260.72
713.95	260.12
714.28	259.81
714.61	259.36
714.95	259.01
715.28	258.52
715.61	258.24
715.95	258.13
716.28	257.78
716.61	257.70
716.95	257.30
717.28	256.97
717.61	256.60
717.94	256.33
718.28	255.64
718.61	255.34
718.94	254.94
719.27	254.70
719.61	254.45
719.94	254.02
720.27	253.50
720.60	253.20
720.94	253.04
721.27	252.85
721.60	252.66
721.93	252.39
722.27	252.32
722.60	252.15
722.93	251.85
723.26	251.60
723.59	251.26
723.93	251.14
724.26	250.96
724.59	250.74
724.92	250.59
725.25	250.54
725.59	250.34
725.92	250.24
726.25	250.01
726.58	249.83
726.91	249.59
727.24	249.45
727.57	249.31
727.91	249.02
728.24	248.84
728.57	248.62
728.90	248.49
729.23	248.23
729.56	248.23
729.89	247.95
730.22	247.82
730.55	247.62
730.89	247.34
731.22	247.16
731.55	247.00
731.88	246.75
732.21	246.41
732.54	246.20
732.87	246.03
733.20	245.89
733.53	245.75
733.86	245.59
734.19	245.30
734.52	245.19
734.85	245.41
735.18	245.21
735.51	245.11
735.84	245.06
736.17	245.03
736.50	244.62
736.83	245.04
737.16	244.90
737.49	244.79
737.82	244.60
738.15	244.55
738.48	244.38
738.81	244.21
739.14	244.03
739.47	243.86
739.80	243.64
740.13	243.59
740.46	243.39
740.79	243.16
741.12	243.05
741.45	242.83
741.78	242.41
742.11	242.44
742.44	242.21
742.77	242.10
743.10	241.89
743.43	241.73
743.75	241.08
744.08	241.55
744.41	241.34
744.74	241.22
745.07	241.00
745.40	240.94
745.73	241.04
746.06	240.97
746.39	240.90
746.71	240.75
747.04	240.53
747.37	240.34
747.70	240.36
748.03	240.27
748.36	240.22
748.68	240.05
749.01	239.77
749.34	239.68
749.67	239.53
750.00	239.50
750.33	239.74
750.65	239.69
750.98	239.00
751.31	238.99
751.64	238.93
751.97	239.05
752.29	238.81
752.62	238.53
752.95	238.42
753.28	238.32
753.60	238.29
753.93	238.36
754.26	238.42
754.59	238.18
754.91	237.98
755.24	237.84
755.57	237.80
755.90	237.76
756.22	237.60
756.55	237.39
756.88	237.16
757.20	236.78
757.53	236.58
757.86	236.38
758.19	236.36
758.51	236.21
758.84	235.84
759.17	235.82
759.49	235.81
759.82	235.91
760.15	235.86
760.47	235.70
760.80	235.46
761.13	235.34
761.45	235.30
761.78	235.32
762.11	235.27
762.43	235.13
762.76	234.97
763.08	234.99
763.41	234.99
763.74	234.93
764.06	234.86
764.39	234.80
764.71	234.79
765.04	234.61
765.37	234.52
765.69	234.44
766.02	234.30
766.34	234.15
766.67	233.91
767.00	233.87
767.32	234.09
767.65	234.31
767.97	234.24
768.30	234.15
768.62	234.05
768.95	233.90
769.27	233.83
769.60	233.82
769.92	233.68
770.25	233.44
770.57	233.27
770.90	233.21
771.22	233.13
771.55	232.97
771.87	232.87
772.20	232.77
772.52	233.13
772.85	233.65
773.17	233.65
773.50	233.59
773.82	233.46
774.15	233.15
774.47	232.76
774.80	232.63
775.12	232.55
775.45	232.49
775.77	232.43
776.09	232.38
776.42	232.30
776.74	232.35
777.07	232.42
777.39	232.39
777.72	232.33
778.04	232.35
778.36	232.36
778.69	232.32
779.01	232.31
779.33	231.86
779.66	231.27
779.98	231.08
780.31	231.04
780.63	231.20
780.95	231.19
781.28	231.15
781.60	231.10
781.92	231.00
782.25	230.89
782.57	230.89
782.89	230.78
783.22	230.79
783.54	230.70
783.86	230.69
784.19	230.70
784.51	230.71
784.83	230.60
785.16	230.48
785.48	230.49
785.80	230.41
786.12	230.44
786.45	230.37
786.77	230.40
787.09	230.36
787.42	230.14
787.74	230.16
788.06	230.10
788.38	230.01
788.71	229.91
789.03	229.93
789.35	230.00
789.67	229.90
789.99	229.86
790.32	229.76
790.64	229.71
790.96	230.04
791.28	229.86
791.61	229.83
791.93	229.88
792.25	229.85
792.57	230.18
792.89	230.02
793.21	230.15
793.54	230.04
793.86	229.98
794.18	230.00
794.50	229.81
794.82	229.83
795.14	229.89
795.47	229.98
795.79	230.01
796.11	229.86
796.43	229.89
796.75	229.88
797.07	229.85
797.39	229.85
797.71	229.52
798.04	229.57
798.36	229.50
798.68	229.58
799.00	229.57
799.32	229.39
799.64	229.55
799.96	229.45
800.28	229.61
800.60	229.65
800.92	229.64
801.24	229.72
801.56	229.77
801.89	229.75
802.21	229.84
802.53	229.74
802.85	229.84
803.17	230.04
803.49	229.97
803.81	230.00
804.13	229.94
804.45	229.85
804.77	229.91
805.09	229.96
805.41	229.84
805.73	229.81
806.05	229.71
806.37	229.68
806.69	229.61
807.01	229.55
807.33	229.48
807.65	229.26
807.97	229.50
808.28	229.43
808.60	229.44
808.92	229.30
809.24	229.60
809.56	229.51
809.88	229.31
810.20	229.30
810.52	229.31
810.84	229.29
811.16	229.30
811.48	229.19
811.80	229.36
812.12	229.33
812.43	229.31
812.75	229.28
813.07	229.14
813.39	229.20
813.71	229.10
814.03	229.09
814.35	229.19
814.67	228.91
814.98	228.89
815.30	228.80
815.62	228.69
815.94	228.31
816.26	228.48
816.58	228.36
816.89	228.38
817.21	228.35
817.53	228.36
817.85	228.35
818.17	228.37
818.48	228.16
818.80	228.21
819.12	228.16
819.44	227.98
819.76	227.97
820.07	227.94
820.39	227.91
820.71	227.97
821.03	227.91
821.34	227.89
821.66	227.92
821.98	227.97
822.30	228.02
822.61	228.34
822.93	228.08
823.25	228.10
823.57	228.07
823.88	228.06
824.20	228.03
824.52	228.00
824.83	227.97
825.15	227.94
825.47	227.96
825.79	227.97
826.10	228.05
826.42	228.07
826.74	228.09
827.05	228.08
827.37	228.04
827.69	228.06
828.00	228.08
828.32	228.12
828.64	228.01
828.95	228.20
829.27	228.04
829.58	228.11
829.90	228.17
830.22	228.15
830.53	228.04
830.85	227.97
831.17	227.92
831.48	227.93
831.80	227.92
832.11	227.85
832.43	227.82
832.75	227.76
833.06	227.97
833.38	227.84
833.69	227.79
834.01	227.80
834.32	227.77
834.64	227.67
834.96	227.65
835.27	227.68
835.59	227.56
835.90	227.49
836.22	227.43
836.53	227.40
836.85	227.37
837.16	227.90
837.48	227.94
837.79	228.02
838.11	228.05
838.42	228.05
838.74	228.15
839.05	228.11
839.37	228.11
839.68	227.82
840.00	227.81
840.31	227.96
840.63	227.91
840.94	227.86
841.26	227.79
841.57	227.76
841.88	227.84
842.20	227.74
842.51	227.70
842.83	227.66
843.14	228.09
843.46	228.13
843.77	227.77
844.08	227.70
844.40	227.62
844.71	227.48
845.03	227.39
845.34	227.30
845.65	227.28
845.97	227.33
846.28	227.38
846.60	227.45
846.91	227.32
847.22	227.31
847.54	227.39
847.85	227.50
848.16	227.45
848.48	227.31
848.79	227.53
849.10	227.55
849.42	227.61
849.73	227.16
850.04	227.09
850.36	226.95
850.67	227.05
850.98	227.05
851.30	227.14
851.61	227.19
851.92	227.13
852.23	227.30
852.55	227.28
852.86	227.25
853.17	227.28
853.49	227.40
853.80	227.56
854.11	227.60
854.42	227.64
854.74	227.63
855.05	227.68
855.36	227.42
855.67	227.49
855.99	227.47
856.30	228.01
856.61	227.98
856.92	228.01
857.23	228.03
857.55	227.93
857.86	227.91
858.17	227.95
858.48	227.89
858.79	227.75
859.11	227.87
859.42	227.90
859.73	227.81
860.04	227.78
860.35	227.60
860.66	227.47
860.98	227.46
861.29	227.44
861.60	227.41
861.91	227.53
862.22	227.41
862.53	227.35
862.84	226.71
863.16	226.86
863.47	226.75
863.78	226.72
864.09	226.71
864.40	226.73
864.71	226.68
865.02	226.77
865.33	226.71
865.64	226.58
865.95	226.54
866.27	226.86
866.58	226.80
866.89	226.85
867.20	226.88
867.51	226.77
867.82	226.73
868.13	226.84
868.44	226.72
868.75	226.79
869.06	226.82
869.37	226.93
869.68	226.77
869.99	226.85
870.30	226.84
870.61	226.99
870.92	226.89
871.23	226.91
871.54	226.97
871.85	227.08
872.16	227.12
872.47	227.09
872.78	226.77
873.09	226.78
873.40	226.72
873.71	226.72
874.02	226.77
874.33	226.75
874.64	226.65
874.95	226.74
875.26	226.67
875.56	226.62
875.87	226.55
876.18	226.55
876.49	227.00
876.80	226.95
877.11	226.78
877.42	226.86
877.73	226.86
878.04	226.79
878.35	226.76
878.66	226.74
878.96	226.78
879.27	226.84
879.58	226.84
879.89	226.82
880.20	226.92
880.51	226.92
880.82	226.99
881.12	226.95
881.43	226.87
881.74	226.82
882.05	226.86
882.36	226.86
882.67	226.87
882.97	226.42
883.28	226.43
883.59	226.51
883.90	226.49
884.21	226.55
884.51	226.52
884.82	226.50
885.13	226.55
885.44	226.55
885.74	226.51
886.05	226.50
886.36	226.44
886.67	226.37
886.98	226.64
887.28	226.57
887.59	226.59
887.90	226.69
888.20	226.64
888.51	226.75
888.82	226.75
889.13	226.81
889.43	227.18
889.74	227.12
890.05	227.07
890.35	227.00
890.66	226.93
890.97	226.91
891.28	226.85
891.58	226.84
891.89	226.89
892.20	226.77
892.50	226.76
892.81	226.71
893.12	226.75
893.42	226.48
893.73	226.60
894.04	226.72
894.34	226.69
894.65	226.69
894.95	226.62
895.26	226.64
895.57	226.83
895.87	226.38
896.18	226.52
896.48	226.55
896.79	226.63
897.10	226.65
897.40	226.65
897.71	226.76
898.01	226.68
898.32	226.69
898.63	226.74
898.93	226.73
899.24	226.80
899.54	226.66
899.85	226.66
900.15	226.65
900.46	226.59
900.76	226.65
901.07	226.61
901.38	226.58
901.68	226.56
901.99	226.35
902.29	226.43
902.60	226.34
902.90	226.29
903.21	226.22
903.51	226.22
903.82	226.32
904.12	226.26
904.43	226.37
904.73	226.32
905.03	226.34
905.34	226.78
905.64	226.77
905.95	226.83
906.25	226.73
906.56	226.65
906.86	226.60
907.17	226.51
907.47	226.57
907.77	226.50
908.08	226.51
908.38	226.52
908.69	226.51
908.99	226.57
909.30	226.64
909.60	226.69
909.90	226.70
910.21	226.56
910.51	226.47
910.81	226.40
911.12	226.43
911.42	226.38
911.73	225.90
912.03	225.99
912.33	226.06
912.64	226.08
912.94	226.05
913.24	226.00
913.55	225.98
913.85	225.96
914.15	226.03
914.46	226.10
914.76	226.01
915.06	225.95
915.37	225.89
915.67	225.90
915.97	225.87
916.27	225.79
916.58	225.86
916.88	225.89
917.18	225.83
917.49	226.12
917.79	226.18
918.09	226.27
918.39	226.32
918.70	226.29
919.00	226.32
919.30	226.55
919.60	226.55
919.91	226.42
920.21	226.49
920.51	226.39
920.81	226.34
921.12	226.41
921.42	226.42
921.72	226.42
922.02	226.40
922.32	226.49
922.63	226.53
922.93	226.70
923.23	226.75
923.53	226.67
923.83	226.40
924.13	226.46
924.44	226.46
924.74	226.54
925.04	226.56
925.34	226.59
925.64	226.38
925.94	226.44
926.24	226.75
926.55	226.68
926.85	226.79
927.15	226.77
927.45	226.83
927.75	226.86
928.05	226.78
928.35	226.74
928.65	226.78
928.95	226.80
929.26	226.62
929.56	226.61
929.86	226.78
930.16	226.72
930.46	226.60
930.76	226.59
931.06	226.31
931.36	226.15
931.66	226.15
931.96	226.23
932.26	226.25
932.56	226.06
932.86	226.11
933.16	226.13
933.46	226.14
933.76	226.05
934.06	226.15
934.36	226.41
934.66	226.49
934.96	226.45
935.26	226.43
935.56	226.48
935.86	226.46
936.16	226.39
936.46	226.35
936.76	226.44
937.06	226.35
937.36	226.47
937.66	226.54
937.96	226.57
938.26	226.45
938.56	226.41
938.86	226.44
939.16	226.48
939.46	226.54
939.76	226.45
940.06	226.49
940.35	226.40
940.65	226.16
940.95	226.07
941.25	225.95
941.55	225.95
941.85	225.89
942.15	225.97
942.45	226.05
942.75	226.03
943.04	226.00
943.34	226.09
943.64	226.00
943.94	225.99
944.24	225.96
944.54	225.98
944.84	225.96
945.13	225.93
945.43	225.85
945.73	225.76
946.03	225.80
946.33	225.61
946.62	225.53
946.92	225.59
947.22	225.61
947.52	225.65
947.82	225.65
948.11	225.64
948.41	225.44
948.71	225.29
949.01	225.30
949.31	225.25
949.60	225.25
949.90	225.30
950.20	225.25
950.50	225.27
950.79	225.28
951.09	225.33
951.39	225.32
951.69	225.30
951.98	225.39
952.28	225.39
952.58	225.47
952.87	225.48
953.17	225.48
953.47	225.46
953.76	225.40
954.06	225.36
954.36	225.32
954.66	225.39
954.95	225.53
955.25	225.62
955.55	225.68
955.84	225.54
956.14	225.71
956.44	225.80
956.73	225.68
957.03	225.70
957.32	225.71
957.62	225.66
957.92	225.75
958.21	225.69
958.51	226.22
958.81	226.26
959.10	226.28
959.40	226.44
959.69	226.46
959.99	226.63
960.29	226.69
960.58	226.61
960.88	226.81
961.17	226.78
961.47	226.83
961.76	226.78
962.06	226.93
962.36	226.73
962.65	226.67
962.95	226.72
963.24	226.66
963.54	226.64
963.83	226.73
964.13	226.71
964.42	226.66
964.72	226.23
965.01	226.32
965.31	226.30
965.60	226.18
965.90	226.51
966.19	226.35
966.49	226.27
966.78	226.31
967.08	226.30
967.37	226.35
967.67	226.22
967.96	226.30
968.26	226.29
968.55	226.42
968.85	226.47
969.14	226.57
969.43	226.57
969.73	226.62
970.02	226.60
970.32	226.61
970.61	226.56
970.91	226.49
971.20	226.34
971.49	226.32
971.79	226.36
972.08	225.99
972.38	226.04
972.67	226.07
972.96	226.21
973.26	226.05
973.55	226.22
973.85	226.20
974.14	226.16
974.43	226.14
974.73	226.03
975.02	225.98
975.31	225.93
975.61	225.99
975.90	225.91
976.19	225.84
976.49	225.87
976.78	225.96
977.07	225.94
977.37	226.01
977.66	226.07
977.95	226.01
978.24	226.07
978.54	226.14
978.83	226.15
979.12	226.04
979.42	226.06
979.71	225.90
980.00	225.95
980.29	225.97
980.59	225.96
980.88	226.19
981.17	226.24
981.46	226.21
981.76	226.19
982.05	226.31
982.34	226.34
982.63	226.26
982.93	226.29
983.22	226.50
983.51	226.53
983.80	226.67
984.09	226.72
984.39	226.66
984.68	226.55
984.97	226.56
985.26	226.60
985.55	226.67
985.85	226.58
986.14	226.65
986.43	226.70
986.72	226.65
987.01	226.44
987.30	226.38
987.59	226.40
987.89	226.43
988.18	226.31
988.47	226.32
988.76	226.40
989.05	226.29
989.34	226.09
989.63	226.14
989.92	226.02
990.22	226.01
990.51	225.97
990.80	226.06
991.09	226.10
991.38	226.12
991.67	226.01
991.96	225.95
992.25	225.95
992.54	225.82
992.83	225.81
993.12	225.74
993.41	225.87
993.70	226.03
993.99	226.01
994.28	226.05
994.58	226.04
994.87	225.97
995.16	226.01
995.45	226.09
995.74	226.02
996.03	226.08
996.32	226.11
996.61	226.31
996.90	226.23
997.19	226.25
997.48	226.23
997.77	226.23
998.06	226.35
998.34	226.24
998.63	226.28
998.92	226.27
999.21	226.34
999.50	226.32
999.79	226.12
1000.08	226.16
1000.37	226.16
1000.66	226.17
1000.95	226.32
1001.24	226.38
1001.53	226.44
1001.82	226.34
1002.11	226.25
1002.40	226.29
1002.68	226.38
1002.97	226.79
1003.26	226.69
1003.55	226.67
1003.84	226.75
1004.13	226.81
1004.42	226.88
1004.71	226.90
1004.99	226.91
1005.28	227.03
1005.57	227.03
1005.86	227.08
1006.15	227.11
1006.44	227.08
1006.72	227.10
1007.01	226.98
1007.30	226.98
1007.59	226.91
1007.88	227.02
1008.17	227.07
1008.45	226.95
1008.74	226.73
1009.03	226.44
1009.32	226.47
1009.60	226.41
1009.89	226.40
1010.18	226.15
1010.47	226.17
1010.76	226.16
1011.04	226.16
1011.33	226.16
1011.62	226.17
1011.91	226.20
1012.19	226.16
1012.48	226.15
1012.77	226.10
1013.05	226.28
1013.34	226.19
1013.63	226.14
1013.92	226.12
1014.20	226.05
1014.49	226.07
1014.78	226.11
1015.06	225.99
1015.35	225.96
1015.64	226.13
1015.92	226.20
1016.21	226.28
1016.50	226.16
1016.78	226.29
1017.07	226.37
1017.36	226.28
1017.64	226.20
1017.93	226.26
1018.22	226.23
1018.50	226.25
1018.79	226.27
1019.08	226.12
1019.36	226.16
1019.65	226.12
1019.93	226.24
1020.22	226.30
1020.51	226.47
1020.79	226.46
1021.08	225.95
1021.36	225.75
1021.65	226.00
1021.94	226.50
1022.22	226.25
1022.51	224.75
1022.79	228.15
1023.08	226.75
1023.36	230.05
1023.65	225.70
>>>>>End Processed Spectral Data<<<<<
