SpectraSuite Data File
++++++++++++++++++++++++++++++++++++
Date: Wed Sep 04 17:52:17 EDT 2013
User: lab3
Dark Spectrum Present: Yes
Reference Spectrum Present: No
Number of Sampled Component Spectra: 1
Spectrometers: USB2E7196
Integration Time (usec): 170000 (USB2E7196)
Spectra Averaged: 20 (USB2E7196)
Boxcar Smoothing: 10 (USB2E7196)
Correct for Electrical Dark: No (USB2E7196)
Strobe/Lamp Enabled: No (USB2E7196)
Correct for Detector Non-linearity: No (USB2E7196)
Correct for Stray Light: No (USB2E7196)
Number of Pixels in Processed Spectrum: 2048
>>>>>Begin Processed Spectral Data<<<<<
339.09	0.00
339.48	212.75
339.86	214.25
340.24	215.75
340.63	217.90
341.01	224.55
341.39	220.15
341.78	221.65
342.16	225.55
342.54	222.40
342.93	212.26
343.31	222.96
343.69	223.48
344.07	223.92
344.46	224.40
344.84	224.76
345.22	224.79
345.60	225.08
345.99	225.31
346.37	225.35
346.75	225.48
347.13	225.46
347.52	225.48
347.90	225.74
348.28	225.80
348.66	225.97
349.05	225.81
349.43	225.84
349.81	225.88
350.19	225.95
350.57	225.99
350.96	226.05
351.34	226.14
351.72	226.25
352.10	226.38
352.48	226.41
352.87	226.45
353.25	226.52
353.63	226.57
354.01	226.58
354.39	226.61
354.77	226.70
355.15	226.94
355.54	226.96
355.92	226.85
356.30	226.86
356.68	227.26
357.06	227.39
357.44	227.44
357.82	227.53
358.20	227.97
358.58	228.01
358.97	228.11
359.35	228.31
359.73	228.50
360.11	228.56
360.49	228.66
360.87	228.71
361.25	228.80
361.63	229.01
362.01	229.10
362.39	229.12
362.77	229.20
363.15	229.20
363.53	229.30
363.91	229.36
364.29	229.42
364.67	229.01
365.05	229.12
365.43	229.21
365.81	229.30
366.19	229.22
366.57	229.35
366.95	229.38
367.33	229.23
367.71	229.21
368.09	229.40
368.47	229.38
368.85	229.39
369.23	229.46
369.61	229.26
369.99	229.42
370.37	229.50
370.75	229.73
371.13	229.63
371.51	229.55
371.89	229.66
372.27	229.63
372.65	229.56
373.03	229.55
373.41	229.49
373.78	229.40
374.16	229.10
374.54	228.92
374.92	228.80
375.30	228.80
375.68	228.73
376.06	228.65
376.44	228.53
376.82	228.51
377.19	228.47
377.57	228.40
377.95	228.16
378.33	228.07
378.71	227.78
379.09	227.80
379.47	227.79
379.84	227.59
380.22	227.48
380.60	227.34
380.98	227.19
381.36	227.12
381.73	227.01
382.11	227.08
382.49	227.08
382.87	226.96
383.25	226.85
383.62	227.31
384.00	227.10
384.38	227.06
384.76	227.12
385.13	227.28
385.51	227.23
385.89	227.14
386.27	227.04
386.64	226.95
387.02	226.87
387.40	226.81
387.78	226.79
388.15	226.81
388.53	226.79
388.91	226.71
389.29	226.63
389.66	226.63
390.04	226.52
390.42	226.57
390.79	226.63
391.17	226.69
391.55	226.07
391.92	226.13
392.30	226.20
392.68	226.08
393.05	225.98
393.43	226.03
393.81	226.08
394.18	226.03
394.56	226.06
394.94	226.16
395.31	226.17
395.69	226.47
396.06	226.57
396.44	226.70
396.82	226.75
397.19	227.04
397.57	227.09
397.95	227.16
398.32	227.11
398.70	227.21
399.07	227.38
399.45	227.46
399.82	227.58
400.20	227.65
400.58	227.80
400.95	227.71
401.33	227.95
401.70	228.36
402.08	228.58
402.45	228.78
402.83	229.04
403.20	229.21
403.58	229.15
403.95	229.36
404.33	229.51
404.71	229.78
405.08	230.20
405.46	230.44
405.83	230.77
406.21	231.05
406.58	231.34
406.96	231.55
407.33	231.96
407.70	232.32
408.08	232.97
408.45	233.42
408.83	233.94
409.20	234.30
409.58	234.45
409.95	235.01
410.33	235.54
410.70	235.94
411.08	236.53
411.45	237.17
411.82	237.71
412.20	238.53
412.57	239.53
412.95	239.90
413.32	240.78
413.69	241.57
414.07	242.42
414.44	243.34
414.82	244.39
415.19	245.59
415.56	246.75
415.94	247.85
416.31	249.19
416.68	250.61
417.06	252.22
417.43	253.87
417.81	255.61
418.18	257.42
418.55	259.34
418.93	261.36
419.30	263.44
419.67	265.73
420.04	267.92
420.42	270.18
420.79	273.30
421.16	275.95
421.54	278.98
421.91	282.00
422.28	285.14
422.66	288.35
423.03	291.75
423.40	295.12
423.77	298.65
424.15	302.24
424.52	305.97
424.89	310.11
425.26	314.13
425.64	317.94
426.01	322.10
426.38	326.50
426.75	330.99
427.13	335.54
427.50	340.25
427.87	345.26
428.24	350.14
428.61	354.48
428.99	359.85
429.36	365.16
429.73	370.73
430.10	376.27
430.47	381.95
430.85	387.47
431.22	393.50
431.59	400.23
431.96	406.41
432.33	413.23
432.70	419.87
433.08	427.66
433.45	434.85
433.82	442.11
434.19	450.28
434.56	458.24
434.93	465.91
435.30	473.66
435.68	482.13
436.05	490.54
436.42	498.96
436.79	506.60
437.16	515.02
437.53	523.57
437.90	532.12
438.27	540.71
438.64	549.67
439.01	558.07
439.38	565.14
439.75	572.34
440.13	580.38
440.50	587.75
440.87	593.82
441.24	600.26
441.61	607.33
441.98	612.30
442.35	618.22
442.72	624.16
443.09	629.87
443.46	633.44
443.83	635.72
444.20	637.61
444.57	640.44
444.94	641.49
445.31	642.78
445.68	644.08
446.05	644.24
446.42	643.02
446.79	641.56
447.16	640.01
447.53	638.74
447.90	635.00
448.27	631.51
448.64	626.78
449.01	623.24
449.37	617.16
449.74	611.20
450.11	604.42
450.48	596.69
450.85	588.78
451.22	581.88
451.59	575.34
451.96	569.10
452.33	560.99
452.70	553.64
453.07	544.95
453.43	536.05
453.80	527.73
454.17	519.65
454.54	511.88
454.91	503.70
455.28	495.60
455.65	488.25
456.02	481.32
456.38	474.78
456.75	466.88
457.12	460.24
457.49	453.94
457.86	447.49
458.23	442.35
458.59	436.75
458.96	430.91
459.33	425.79
459.70	420.73
460.07	416.55
460.43	412.00
460.80	407.72
461.17	403.94
461.54	399.87
461.91	396.03
462.27	392.22
462.64	389.02
463.01	385.55
463.38	382.25
463.74	378.27
464.11	375.30
464.48	372.73
464.85	370.04
465.21	367.88
465.58	365.55
465.95	362.74
466.32	360.45
466.68	358.17
467.05	355.96
467.42	353.68
467.78	351.42
468.15	349.19
468.52	347.59
468.88	345.35
469.25	343.45
469.62	342.01
469.98	340.43
470.35	338.88
470.72	337.48
471.08	335.91
471.45	334.62
471.82	333.45
472.18	332.01
472.55	330.82
472.92	329.59
473.28	328.53
473.65	327.40
474.02	326.28
474.38	325.45
474.75	324.62
475.11	323.76
475.48	323.10
475.85	322.53
476.21	321.85
476.58	321.33
476.94	320.86
477.31	320.38
477.67	319.91
478.04	319.57
478.41	319.42
478.77	319.60
479.14	319.31
479.50	319.06
479.87	319.13
480.23	319.15
480.60	319.06
480.96	318.98
481.33	319.49
481.69	319.68
482.06	319.91
482.42	320.23
482.79	320.54
483.15	320.91
483.52	321.49
483.88	321.96
484.25	322.52
484.61	323.25
484.98	323.89
485.34	324.93
485.71	325.84
486.07	326.69
486.44	327.18
486.80	328.33
487.17	329.40
487.53	330.73
487.90	332.20
488.26	333.93
488.62	335.71
488.99	337.15
489.35	339.07
489.72	340.93
490.08	342.96
490.44	344.98
490.81	347.25
491.17	349.56
491.54	352.06
491.90	354.60
492.26	357.25
492.63	360.13
492.99	362.86
493.36	366.07
493.72	369.38
494.08	372.89
494.45	376.58
494.81	380.58
495.17	384.36
495.54	388.56
495.90	392.74
496.26	397.22
496.63	401.89
496.99	406.55
497.35	411.55
497.72	416.79
498.08	422.30
498.44	427.92
498.80	433.85
499.17	439.82
499.53	446.16
499.89	452.79
500.26	459.58
500.62	466.62
500.98	473.89
501.34	481.35
501.71	489.04
502.07	496.78
502.43	504.98
502.79	513.48
503.16	522.14
503.52	531.00
503.88	540.12
504.24	549.67
504.60	559.80
504.97	570.09
505.33	580.58
505.69	591.56
506.05	602.66
506.41	613.89
506.78	625.54
507.14	637.44
507.50	649.75
507.86	662.44
508.22	675.40
508.59	688.35
508.95	702.08
509.31	716.01
509.67	730.32
510.03	744.48
510.39	759.22
510.75	774.33
511.12	789.52
511.48	805.07
511.84	820.77
512.20	836.46
512.56	852.71
512.92	869.47
513.28	886.19
513.64	903.35
514.00	920.99
514.37	938.79
514.73	956.91
515.09	975.19
515.45	993.09
515.81	1011.38
516.17	1030.15
516.53	1048.49
516.89	1067.42
517.25	1086.72
517.61	1106.96
517.97	1127.03
518.33	1146.81
518.69	1167.36
519.05	1187.86
519.41	1208.32
519.77	1229.40
520.13	1249.94
520.49	1270.45
520.85	1292.66
521.21	1313.49
521.57	1334.26
521.93	1354.87
522.29	1376.00
522.65	1396.60
523.01	1417.41
523.37	1438.21
523.73	1459.24
524.09	1479.84
524.45	1500.22
524.81	1520.93
525.17	1541.50
525.53	1561.96
525.89	1582.89
526.25	1603.38
526.61	1623.60
526.97	1644.81
527.33	1665.88
527.68	1687.65
528.04	1708.75
528.40	1728.43
528.76	1749.49
529.12	1770.12
529.48	1791.12
529.84	1811.17
530.20	1832.37
530.56	1853.21
530.91	1874.06
531.27	1894.44
531.63	1914.93
531.99	1935.72
532.35	1955.72
532.71	1975.64
533.07	1996.65
533.42	2016.26
533.78	2035.90
534.14	2055.77
534.50	2074.65
534.86	2093.68
535.21	2111.00
535.57	2129.46
535.93	2146.77
536.29	2164.71
536.65	2182.65
537.00	2199.91
537.36	2217.10
537.72	2233.22
538.08	2250.57
538.44	2266.79
538.79	2283.05
539.15	2299.48
539.51	2315.25
539.87	2330.53
540.22	2344.44
540.58	2358.12
540.94	2371.16
541.29	2383.72
541.65	2396.11
542.01	2408.42
542.37	2418.65
542.72	2429.40
543.08	2439.90
543.44	2451.61
543.79	2461.19
544.15	2470.99
544.51	2480.89
544.87	2490.42
545.22	2498.93
545.58	2506.19
545.94	2513.41
546.29	2519.65
546.65	2526.11
547.01	2531.47
547.36	2536.69
547.72	2542.25
548.07	2546.02
548.43	2551.25
548.79	2555.72
549.14	2559.62
549.50	2563.30
549.86	2567.42
550.21	2571.32
550.57	2574.74
550.92	2576.19
551.28	2577.32
551.64	2579.20
551.99	2581.05
552.35	2582.69
552.70	2584.76
553.06	2586.73
553.41	2588.07
553.77	2589.89
554.13	2591.09
554.48	2592.53
554.84	2593.63
555.19	2594.83
555.55	2596.48
555.90	2595.51
556.26	2595.06
556.61	2593.25
556.97	2591.13
557.32	2590.27
557.68	2589.11
558.03	2587.37
558.39	2585.91
558.74	2585.11
559.10	2582.22
559.45	2578.34
559.81	2573.79
560.16	2568.54
560.52	2563.30
560.87	2558.63
561.23	2553.20
561.58	2547.41
561.94	2540.58
562.29	2533.23
562.64	2526.17
563.00	2518.01
563.35	2511.68
563.71	2504.42
564.06	2498.37
564.42	2491.81
564.77	2484.84
565.12	2477.26
565.48	2469.45
565.83	2461.41
566.19	2453.36
566.54	2445.46
566.89	2437.79
567.25	2430.18
567.60	2423.13
567.96	2415.65
568.31	2407.76
568.66	2398.96
569.02	2390.02
569.37	2381.82
569.72	2374.53
570.08	2365.14
570.43	2355.88
570.78	2347.29
571.14	2338.26
571.49	2328.04
571.84	2318.49
572.20	2307.68
572.55	2297.30
572.90	2286.68
573.26	2276.58
573.61	2265.81
573.96	2254.59
574.31	2242.31
574.67	2230.59
575.02	2217.84
575.37	2205.54
575.72	2192.37
576.08	2180.60
576.43	2167.91
576.78	2155.11
577.13	2141.49
577.49	2128.85
577.84	2117.04
578.19	2104.56
578.54	2092.03
578.90	2080.57
579.25	2068.37
579.60	2056.09
579.95	2043.65
580.30	2030.40
580.66	2016.80
581.01	2003.08
581.36	1989.05
581.71	1976.69
582.06	1963.56
582.42	1951.29
582.77	1938.20
583.12	1926.51
583.47	1913.89
583.82	1901.91
584.17	1889.91
584.53	1878.28
584.88	1865.27
585.23	1851.95
585.58	1837.67
585.93	1824.51
586.28	1811.02
586.63	1797.04
586.98	1783.06
587.34	1769.82
587.69	1756.71
588.04	1744.36
588.39	1732.54
588.74	1720.58
589.09	1708.52
589.44	1696.10
589.79	1683.91
590.14	1672.13
590.49	1659.64
590.84	1648.10
591.19	1636.07
591.54	1623.80
591.89	1611.59
592.25	1601.65
592.60	1590.07
592.95	1578.96
593.30	1567.18
593.65	1555.22
594.00	1543.51
594.35	1533.58
594.70	1521.80
595.05	1510.80
595.40	1498.87
595.75	1486.69
596.10	1475.57
596.45	1464.18
596.80	1453.34
597.15	1442.13
597.50	1430.49
597.85	1419.53
598.19	1407.45
598.54	1395.99
598.89	1384.89
599.24	1374.15
599.59	1362.67
599.94	1352.26
600.29	1341.94
600.64	1331.85
600.99	1321.26
601.34	1311.66
601.69	1300.74
602.04	1290.94
602.39	1280.92
602.74	1271.86
603.08	1262.65
603.43	1253.50
603.78	1243.80
604.13	1234.25
604.48	1224.50
604.83	1214.95
605.18	1205.04
605.53	1195.76
605.87	1186.70
606.22	1178.20
606.57	1169.11
606.92	1159.49
607.27	1150.57
607.62	1141.76
607.96	1133.18
608.31	1125.28
608.66	1116.84
609.01	1108.08
609.36	1099.53
609.70	1091.06
610.05	1082.47
610.40	1074.34
610.75	1065.64
611.10	1057.33
611.44	1048.78
611.79	1040.69
612.14	1032.72
612.49	1025.02
612.83	1017.64
613.18	1009.83
613.53	1002.04
613.88	994.08
614.22	986.43
614.57	978.55
614.92	970.73
615.27	963.15
615.61	955.48
615.96	948.00
616.31	940.86
616.65	934.11
617.00	926.97
617.35	919.65
617.70	912.65
618.04	905.51
618.39	898.69
618.74	892.47
619.08	885.55
619.43	878.73
619.78	871.76
620.12	864.63
620.47	857.85
620.82	850.71
621.16	843.95
621.51	837.72
621.85	831.53
622.20	824.96
622.55	818.53
622.89	812.21
623.24	805.88
623.59	799.59
623.93	793.09
624.28	787.02
624.62	781.59
624.97	775.62
625.32	770.07
625.66	764.08
626.01	757.90
626.35	752.40
626.70	746.93
627.04	741.67
627.39	736.12
627.73	730.97
628.08	725.94
628.43	720.59
628.77	715.11
629.12	709.78
629.46	705.18
629.81	700.29
630.15	695.67
630.50	690.77
630.84	685.95
631.19	681.33
631.53	676.82
631.88	671.46
632.22	666.60
632.57	662.10
632.91	657.72
633.26	653.38
633.60	648.87
633.95	644.22
634.29	639.45
634.64	635.22
634.98	630.45
635.32	626.15
635.67	622.33
636.01	618.22
636.36	613.85
636.70	609.71
637.05	605.53
637.39	601.34
637.73	597.37
638.08	593.40
638.42	589.15
638.77	584.77
639.11	580.60
639.45	576.27
639.80	572.04
640.14	567.83
640.49	563.90
640.83	560.17
641.17	556.55
641.52	552.89
641.86	549.22
642.20	546.12
642.55	542.31
642.89	538.55
643.23	535.19
643.58	532.18
643.92	528.62
644.26	525.23
644.61	521.98
644.95	518.50
645.29	515.00
645.64	511.92
645.98	508.90
646.32	505.96
646.66	502.95
647.01	499.92
647.35	497.13
647.69	494.24
648.04	491.35
648.38	488.69
648.72	485.92
649.06	483.04
649.41	479.96
649.75	477.09
650.09	474.25
650.43	471.40
650.78	468.39
651.12	465.59
651.46	462.83
651.80	460.11
652.14	457.57
652.49	455.21
652.83	452.69
653.17	449.98
653.51	447.29
653.85	444.96
654.20	442.44
654.54	439.86
654.88	437.27
655.22	435.15
655.56	432.60
655.90	430.26
656.25	428.03
656.59	425.78
656.93	423.68
657.27	421.70
657.61	419.41
657.95	417.14
658.29	414.92
658.64	412.92
658.98	410.63
659.32	408.39
659.66	406.14
660.00	404.04
660.34	402.07
660.68	400.19
661.02	398.16
661.36	396.32
661.70	394.39
662.05	392.53
662.39	390.45
662.73	388.67
663.07	386.99
663.41	385.12
663.75	383.21
664.09	381.30
664.43	379.26
664.77	377.53
665.11	375.80
665.45	374.24
665.79	372.51
666.13	370.81
666.47	369.21
666.81	367.57
667.15	365.79
667.49	364.34
667.83	362.87
668.17	361.35
668.51	359.81
668.85	358.45
669.19	357.18
669.53	355.55
669.87	354.11
670.21	352.52
670.55	351.10
670.89	349.88
671.23	348.47
671.57	347.05
671.91	345.72
672.25	344.45
672.58	343.20
672.92	341.79
673.26	340.52
673.60	339.25
673.94	338.03
674.28	336.89
674.62	335.75
674.96	334.49
675.30	333.27
675.64	332.08
675.97	330.77
676.31	329.40
676.65	328.20
676.99	327.19
677.33	326.04
677.67	325.00
678.01	323.83
678.34	322.86
678.68	322.00
679.02	320.98
679.36	320.03
679.70	318.89
680.04	317.86
680.37	316.93
680.71	315.96
681.05	315.06
681.39	314.25
681.73	313.21
682.06	312.33
682.40	311.49
682.74	310.69
683.08	310.04
683.42	309.16
683.75	308.46
684.09	307.38
684.43	306.62
684.77	305.75
685.10	304.92
685.44	304.14
685.78	303.35
686.12	302.55
686.45	301.73
686.79	300.99
687.13	300.36
687.46	299.63
687.80	299.02
688.14	298.16
688.48	297.33
688.81	296.64
689.15	295.92
689.49	295.21
689.82	294.43
690.16	293.59
690.50	292.99
690.83	292.28
691.17	291.69
691.51	291.03
691.84	290.43
692.18	289.70
692.52	288.98
692.85	288.33
693.19	287.86
693.52	287.22
693.86	286.55
694.20	285.94
694.53	285.36
694.87	284.67
695.21	284.12
695.54	283.61
695.88	282.98
696.21	282.27
696.55	281.70
696.88	281.20
697.22	280.67
697.56	280.12
697.89	279.47
698.23	278.86
698.56	278.28
698.90	277.78
699.23	277.31
699.57	276.89
699.90	276.33
700.24	275.70
700.58	275.26
700.91	274.89
701.25	274.73
701.58	274.55
701.92	274.20
702.25	273.80
702.59	273.25
702.92	272.81
703.26	272.49
703.59	272.04
703.93	272.00
704.26	271.62
704.60	271.25
704.93	270.82
705.26	270.44
705.60	270.09
705.93	269.51
706.27	269.28
706.60	268.95
706.94	268.73
707.27	268.37
707.61	267.96
707.94	267.52
708.27	266.83
708.61	266.10
708.94	265.65
709.28	265.25
709.61	264.89
709.94	264.53
710.28	264.11
710.61	263.74
710.95	262.89
711.28	262.83
711.61	262.37
711.95	262.17
712.28	261.76
712.61	261.40
712.95	261.40
713.28	261.13
713.61	260.69
713.95	260.21
714.28	259.80
714.61	259.44
714.95	259.10
715.28	258.67
715.61	258.35
715.95	258.03
716.28	257.70
716.61	257.44
716.95	257.01
717.28	256.69
717.61	256.31
717.94	256.03
718.28	255.36
718.61	255.02
718.94	254.63
719.27	254.40
719.61	254.10
719.94	253.70
720.27	253.21
720.60	252.94
720.94	252.74
721.27	252.58
721.60	252.46
721.93	252.19
722.27	252.11
722.60	251.98
722.93	251.71
723.26	251.55
723.59	251.23
723.93	251.17
724.26	250.98
724.59	250.79
724.92	250.63
725.25	250.57
725.59	250.45
725.92	250.34
726.25	250.09
726.58	249.93
726.91	249.74
727.24	249.64
727.57	249.41
727.91	249.07
728.24	248.97
728.57	248.66
728.90	248.50
729.23	248.28
729.56	248.30
729.89	248.12
730.22	247.88
730.55	247.75
730.89	247.56
731.22	247.35
731.55	247.25
731.88	247.04
732.21	246.71
732.54	246.46
732.87	246.27
733.20	246.19
733.53	245.97
733.86	245.86
734.19	245.61
734.52	245.56
734.85	245.81
735.18	245.45
735.51	245.50
735.84	245.42
736.17	245.34
736.50	244.89
736.83	245.29
737.16	245.24
737.49	245.12
737.82	244.97
738.15	244.94
738.48	244.79
738.81	244.61
739.14	244.44
739.47	244.28
739.80	244.12
740.13	244.05
740.46	243.89
740.79	243.68
741.12	243.52
741.45	243.38
741.78	242.98
742.11	243.01
742.44	242.66
742.77	242.55
743.10	242.30
743.43	242.20
743.75	241.63
744.08	242.04
744.41	241.84
744.74	241.68
745.07	241.43
745.40	241.34
745.73	241.44
746.06	241.36
746.39	241.31
746.71	241.13
747.04	240.84
747.37	240.70
747.70	240.63
748.03	240.52
748.36	240.43
748.68	240.26
749.01	240.00
749.34	239.82
749.67	239.69
750.00	239.58
750.33	239.75
750.65	239.64
750.98	238.87
751.31	238.80
751.64	238.64
751.97	238.82
752.29	238.61
752.62	238.26
752.95	238.09
753.28	237.89
753.60	237.72
753.93	237.77
754.26	237.72
754.59	237.44
754.91	237.31
755.24	237.05
755.57	236.98
755.90	236.88
756.22	236.78
756.55	236.61
756.88	236.48
757.20	236.09
757.53	235.78
757.86	235.68
758.19	235.59
758.51	235.57
758.84	235.25
759.17	235.16
759.49	235.11
759.82	235.28
760.15	235.23
760.47	235.17
760.80	235.00
761.13	235.01
761.45	234.88
761.78	234.78
762.11	234.75
762.43	234.61
762.76	234.54
763.08	234.57
763.41	234.52
763.74	234.53
764.06	234.45
764.39	234.45
764.71	234.38
765.04	234.24
765.37	234.12
765.69	234.02
766.02	233.91
766.34	233.76
766.67	233.44
767.00	233.47
767.32	233.68
767.65	233.77
767.97	233.64
768.30	233.70
768.62	233.61
768.95	233.56
769.27	233.53
769.60	233.51
769.92	233.34
770.25	233.19
770.57	233.00
770.90	232.87
771.22	232.80
771.55	232.72
771.87	232.70
772.20	232.58
772.52	232.97
772.85	233.56
773.17	233.57
773.50	233.53
773.82	233.41
774.15	233.11
774.47	232.85
774.80	232.76
775.12	232.65
775.45	232.68
775.77	232.63
776.09	232.57
776.42	232.53
776.74	232.72
777.07	232.71
777.39	232.76
777.72	232.78
778.04	232.77
778.36	232.74
778.69	232.75
779.01	232.74
779.33	232.28
779.66	231.69
779.98	231.66
780.31	231.70
780.63	231.85
780.95	231.89
781.28	231.81
781.60	231.74
781.92	231.70
782.25	231.69
782.57	231.61
782.89	231.53
783.22	231.45
783.54	231.24
783.86	231.25
784.19	231.12
784.51	231.23
784.83	231.19
785.16	231.12
785.48	231.02
785.80	231.07
786.12	231.04
786.45	230.97
786.77	230.91
787.09	230.77
787.42	230.51
787.74	230.49
788.06	230.54
788.38	230.47
788.71	230.40
789.03	230.29
789.35	230.37
789.67	230.29
789.99	230.32
790.32	230.25
790.64	230.25
790.96	230.62
791.28	230.39
791.61	230.29
791.93	230.26
792.25	230.27
792.57	230.49
792.89	230.35
793.21	230.35
793.54	230.27
793.86	230.21
794.18	230.30
794.50	230.16
794.82	230.12
795.14	230.14
795.47	230.15
795.79	230.13
796.11	229.92
796.43	229.96
796.75	229.91
797.07	229.94
797.39	229.88
797.71	229.54
798.04	229.54
798.36	229.55
798.68	229.51
799.00	229.48
799.32	229.30
799.64	229.40
799.96	229.35
800.28	229.41
800.60	229.46
800.92	229.42
801.24	229.36
801.56	229.38
801.89	229.33
802.21	229.39
802.53	229.26
802.85	229.37
803.17	229.46
803.49	229.31
803.81	229.24
804.13	229.21
804.45	229.08
804.77	229.05
805.09	229.05
805.41	229.03
805.73	228.91
806.05	228.65
806.37	228.63
806.69	228.54
807.01	228.54
807.33	228.55
807.65	228.39
807.97	228.61
808.28	228.46
808.60	228.41
808.92	228.35
809.24	228.66
809.56	228.58
809.88	228.45
810.20	228.47
810.52	228.59
810.84	228.46
811.16	228.47
811.48	228.41
811.80	228.47
812.12	228.48
812.43	228.59
812.75	228.71
813.07	228.56
813.39	228.59
813.71	228.47
814.03	228.39
814.35	228.41
814.67	228.21
814.98	228.23
815.30	228.29
815.62	228.20
815.94	227.84
816.26	228.08
816.58	228.03
816.89	228.08
817.21	227.89
817.53	227.96
817.85	227.98
818.17	228.04
818.48	227.95
818.80	228.04
819.12	227.93
819.44	227.81
819.76	227.78
820.07	227.81
820.39	227.87
820.71	227.93
821.03	227.89
821.34	227.88
821.66	227.93
821.98	227.95
822.30	227.96
822.61	228.16
822.93	227.94
823.25	227.86
823.57	227.80
823.88	227.91
824.20	227.93
824.52	227.96
824.83	227.88
825.15	227.78
825.47	227.66
825.79	227.73
826.10	227.71
826.42	227.72
826.74	227.75
827.05	227.70
827.37	227.64
827.69	227.60
828.00	227.57
828.32	227.53
828.64	227.47
828.95	227.70
829.27	227.75
829.58	227.71
829.90	227.79
830.22	227.85
830.53	227.71
830.85	227.67
831.17	227.52
831.48	227.55
831.80	227.59
832.11	227.60
832.43	227.47
832.75	227.43
833.06	227.68
833.38	227.57
833.69	227.51
834.01	227.61
834.32	227.62
834.64	227.58
834.96	227.58
835.27	227.51
835.59	227.32
835.90	227.21
836.22	227.17
836.53	227.06
836.85	226.95
837.16	227.43
837.48	227.37
837.79	227.50
838.11	227.46
838.42	227.43
838.74	227.53
839.05	227.51
839.37	227.51
839.68	227.24
840.00	227.25
840.31	227.36
840.63	227.25
840.94	227.20
841.26	227.19
841.57	227.23
841.88	227.33
842.20	227.29
842.51	227.18
842.83	227.18
843.14	227.70
843.46	227.71
843.77	227.46
844.08	227.41
844.40	227.33
844.71	227.34
845.03	227.32
845.34	227.27
845.65	227.28
845.97	227.33
846.28	227.37
846.60	227.33
846.91	227.25
847.22	227.28
847.54	227.48
847.85	227.59
848.16	227.51
848.48	227.37
848.79	227.57
849.10	227.65
849.42	227.72
849.73	227.22
850.04	227.24
850.36	227.11
850.67	227.20
850.98	227.20
851.30	227.28
851.61	227.27
851.92	227.22
852.23	227.38
852.55	227.40
852.86	227.49
853.17	227.56
853.49	227.60
853.80	227.66
854.11	227.62
854.42	227.60
854.74	227.55
855.05	227.60
855.36	227.35
855.67	227.33
855.99	227.37
856.30	227.96
856.61	227.96
856.92	227.94
857.23	227.93
857.55	227.88
857.86	227.82
858.17	227.89
858.48	227.83
858.79	227.70
859.11	227.72
859.42	227.60
859.73	227.53
860.04	227.50
860.35	227.37
860.66	227.25
860.98	227.23
861.29	227.31
861.60	227.27
861.91	227.34
862.22	227.24
862.53	227.10
862.84	226.56
863.16	226.63
863.47	226.56
863.78	226.60
864.09	226.68
864.40	226.67
864.71	226.70
865.02	226.75
865.33	226.74
865.64	226.66
865.95	226.72
866.27	226.99
866.58	226.98
866.89	227.04
867.20	226.95
867.51	226.89
867.82	226.82
868.13	226.96
868.44	226.86
868.75	227.05
869.06	227.10
869.37	227.04
869.68	226.86
869.99	226.90
870.30	226.94
870.61	227.01
870.92	226.97
871.23	226.95
871.54	227.01
871.85	227.14
872.16	227.17
872.47	227.09
872.78	226.94
873.09	226.91
873.40	226.86
873.71	226.92
874.02	226.89
874.33	226.89
874.64	226.80
874.95	226.90
875.26	226.74
875.56	226.65
875.87	226.67
876.18	226.73
876.49	227.25
876.80	227.18
877.11	226.97
877.42	226.90
877.73	226.84
878.04	226.78
878.35	226.76
878.66	226.76
878.96	226.76
879.27	226.60
879.58	226.62
879.89	226.62
880.20	226.67
880.51	226.65
880.82	226.64
881.12	226.63
881.43	226.50
881.74	226.47
882.05	226.45
882.36	226.46
882.67	226.46
882.97	225.95
883.28	225.89
883.59	225.93
883.90	226.01
884.21	226.13
884.51	226.12
884.82	226.01
885.13	225.99
885.44	225.99
885.74	226.05
886.05	226.01
886.36	225.98
886.67	225.88
886.98	226.15
887.28	226.17
887.59	226.20
887.90	226.25
888.20	226.22
888.51	226.36
888.82	226.33
889.13	226.34
889.43	226.71
889.74	226.65
890.05	226.60
890.35	226.53
890.66	226.45
890.97	226.36
891.28	226.30
891.58	226.28
891.89	226.26
892.20	226.23
892.50	226.20
892.81	226.18
893.12	226.18
893.42	225.92
893.73	225.98
894.04	226.00
894.34	226.06
894.65	226.01
894.95	225.92
895.26	225.96
895.57	226.21
895.87	225.72
896.18	225.88
896.48	225.95
896.79	225.98
897.10	226.10
897.40	226.13
897.71	226.12
898.01	226.20
898.32	226.28
898.63	226.25
898.93	226.27
899.24	226.24
899.54	226.23
899.85	226.25
900.15	226.23
900.46	226.21
900.76	226.19
901.07	226.17
901.38	226.19
901.68	226.17
901.99	225.93
902.29	225.98
902.60	225.92
902.90	225.83
903.21	225.81
903.51	225.68
903.82	225.78
904.12	225.84
904.43	225.81
904.73	225.80
905.03	225.90
905.34	226.35
905.64	226.38
905.95	226.35
906.25	226.37
906.56	226.39
906.86	226.37
907.17	226.33
907.47	226.47
907.77	226.41
908.08	226.40
908.38	226.42
908.69	226.49
908.99	226.58
909.30	226.60
909.60	226.62
909.90	226.60
910.21	226.46
910.51	226.43
910.81	226.38
911.12	226.42
911.42	226.35
911.73	225.88
912.03	225.95
912.33	226.10
912.64	226.06
912.94	225.97
913.24	225.95
913.55	225.90
913.85	225.84
914.15	225.99
914.46	225.92
914.76	225.85
915.06	225.82
915.37	225.72
915.67	225.77
915.97	225.85
916.27	225.83
916.58	225.87
916.88	225.87
917.18	225.84
917.49	226.10
917.79	226.07
918.09	226.16
918.39	226.20
918.70	226.12
919.00	226.16
919.30	226.36
919.60	226.27
919.91	226.20
920.21	226.22
920.51	226.09
920.81	226.12
921.12	226.23
921.42	226.17
921.72	226.21
922.02	226.20
922.32	226.20
922.63	226.16
922.93	226.33
923.23	226.35
923.53	226.32
923.83	226.00
924.13	226.10
924.44	226.03
924.74	226.15
925.04	226.27
925.34	226.18
925.64	225.96
925.94	226.03
926.24	226.38
926.55	226.34
926.85	226.44
927.15	226.45
927.45	226.40
927.75	226.44
928.05	226.41
928.35	226.35
928.65	226.48
928.95	226.59
929.26	226.45
929.56	226.55
929.86	226.70
930.16	226.69
930.46	226.56
930.76	226.67
931.06	226.49
931.36	226.40
931.66	226.53
931.96	226.60
932.26	226.67
932.56	226.43
932.86	226.47
933.16	226.50
933.46	226.49
933.76	226.40
934.06	226.55
934.36	226.75
934.66	226.82
934.96	226.71
935.26	226.75
935.56	226.83
935.86	226.71
936.16	226.62
936.46	226.58
936.76	226.56
937.06	226.55
937.36	226.50
937.66	226.52
937.96	226.53
938.26	226.49
938.56	226.39
938.86	226.45
939.16	226.57
939.46	226.56
939.76	226.55
940.06	226.64
940.35	226.50
940.65	226.33
940.95	226.31
941.25	226.18
941.55	226.06
941.85	226.05
942.15	226.12
942.45	226.16
942.75	226.25
943.04	226.25
943.34	226.26
943.64	226.22
943.94	226.15
944.24	226.17
944.54	226.19
944.84	226.23
945.13	226.15
945.43	226.06
945.73	226.03
946.03	226.07
946.33	226.04
946.62	225.99
946.92	225.95
947.22	226.00
947.52	226.05
947.82	226.13
948.11	226.09
948.41	226.01
948.71	225.89
949.01	225.86
949.31	225.88
949.60	225.89
949.90	226.00
950.20	226.03
950.50	225.98
950.79	226.00
951.09	226.05
951.39	226.09
951.69	226.07
951.98	226.17
952.28	226.11
952.58	226.09
952.87	226.08
953.17	226.10
953.47	226.06
953.76	226.05
954.06	225.98
954.36	225.89
954.66	225.94
954.95	226.11
955.25	226.18
955.55	226.25
955.84	226.13
956.14	226.17
956.44	226.17
956.73	226.08
957.03	226.15
957.32	226.14
957.62	226.05
957.92	226.15
958.21	226.08
958.51	226.64
958.81	226.67
959.10	226.70
959.40	226.80
959.69	226.83
959.99	226.92
960.29	226.96
960.58	226.97
960.88	227.16
961.17	227.10
961.47	227.08
961.76	227.04
962.06	227.14
962.36	227.10
962.65	227.12
962.95	227.22
963.24	227.11
963.54	227.14
963.83	227.24
964.13	227.14
964.42	227.01
964.72	226.65
965.01	226.69
965.31	226.69
965.60	226.56
965.90	226.81
966.19	226.74
966.49	226.70
966.78	226.65
967.08	226.55
967.37	226.56
967.67	226.44
967.96	226.53
968.26	226.56
968.55	226.61
968.85	226.61
969.14	226.63
969.43	226.64
969.73	226.62
970.02	226.52
970.32	226.56
970.61	226.59
970.91	226.47
971.20	226.35
971.49	226.26
971.79	226.42
972.08	226.12
972.38	226.15
972.67	226.18
972.96	226.22
973.26	226.12
973.55	226.24
973.85	226.30
974.14	226.17
974.43	226.10
974.73	226.05
975.02	225.96
975.31	225.86
975.61	225.76
975.90	225.73
976.19	225.76
976.49	225.74
976.78	225.78
977.07	225.74
977.37	225.83
977.66	225.99
977.95	225.82
978.24	225.84
978.54	225.89
978.83	225.86
979.12	225.89
979.42	225.92
979.71	225.90
980.00	225.86
980.29	225.93
980.59	225.91
980.88	225.99
981.17	225.98
981.46	226.00
981.76	226.11
982.05	226.23
982.34	226.21
982.63	226.20
982.93	226.19
983.22	226.36
983.51	226.31
983.80	226.26
984.09	226.39
984.39	226.31
984.68	226.20
984.97	226.22
985.26	226.20
985.55	226.24
985.85	226.10
986.14	226.14
986.43	226.21
986.72	226.15
987.01	226.01
987.30	226.00
987.59	226.02
987.89	226.02
988.18	225.84
988.47	225.86
988.76	225.82
989.05	225.83
989.34	225.70
989.63	225.85
989.92	225.77
990.22	225.68
990.51	225.67
990.80	225.67
991.09	225.70
991.38	225.76
991.67	225.70
991.96	225.71
992.25	225.76
992.54	225.63
992.83	225.62
993.12	225.61
993.41	225.69
993.70	225.88
993.99	226.00
994.28	226.04
994.58	226.00
994.87	225.95
995.16	225.88
995.45	225.83
995.74	225.67
996.03	225.85
996.32	225.89
996.61	226.05
996.90	226.06
997.19	226.06
997.48	226.02
997.77	225.94
998.06	225.95
998.34	225.84
998.63	225.82
998.92	225.85
999.21	225.90
999.50	225.93
999.79	225.80
1000.08	225.73
1000.37	225.76
1000.66	225.75
1000.95	225.87
1001.24	225.96
1001.53	226.05
1001.82	226.05
1002.11	225.96
1002.40	226.02
1002.68	226.10
1002.97	226.48
1003.26	226.35
1003.55	226.34
1003.84	226.40
1004.13	226.57
1004.42	226.59
1004.71	226.63
1004.99	226.67
1005.28	226.78
1005.57	226.80
1005.86	226.77
1006.15	226.69
1006.44	226.74
1006.72	226.88
1007.01	226.82
1007.30	226.82
1007.59	226.80
1007.88	226.75
1008.17	226.71
1008.45	226.62
1008.74	226.44
1009.03	226.20
1009.32	226.30
1009.60	226.22
1009.89	226.18
1010.18	225.95
1010.47	225.97
1010.76	226.04
1011.04	226.00
1011.33	226.02
1011.62	225.91
1011.91	225.92
1012.19	226.03
1012.48	225.98
1012.77	225.99
1013.05	226.20
1013.34	226.18
1013.63	226.15
1013.92	226.26
1014.20	226.23
1014.49	226.21
1014.78	226.23
1015.06	226.10
1015.35	226.06
1015.64	226.20
1015.92	226.27
1016.21	226.33
1016.50	226.29
1016.78	226.29
1017.07	226.34
1017.36	226.20
1017.64	226.23
1017.93	226.21
1018.22	226.12
1018.50	226.08
1018.79	226.05
1019.08	225.86
1019.36	225.87
1019.65	225.85
1019.93	225.94
1020.22	226.03
1020.51	226.31
1020.79	226.25
1021.08	225.15
1021.36	225.40
1021.65	226.50
1021.94	226.50
1022.22	226.05
1022.51	225.65
1022.79	228.20
1023.08	226.75
1023.36	231.60
1023.65	224.95
>>>>>End Processed Spectral Data<<<<<
