SpectraSuite Data File
++++++++++++++++++++++++++++++++++++
Date: Wed Sep 04 17:58:09 EDT 2013
User: lab3
Dark Spectrum Present: Yes
Reference Spectrum Present: No
Number of Sampled Component Spectra: 1
Spectrometers: USB2E7196
Integration Time (usec): 170000 (USB2E7196)
Spectra Averaged: 20 (USB2E7196)
Boxcar Smoothing: 10 (USB2E7196)
Correct for Electrical Dark: No (USB2E7196)
Strobe/Lamp Enabled: No (USB2E7196)
Correct for Detector Non-linearity: No (USB2E7196)
Correct for Stray Light: No (USB2E7196)
Number of Pixels in Processed Spectrum: 2048
>>>>>Begin Processed Spectral Data<<<<<
339.09	0.00
339.48	214.30
339.86	213.75
340.24	217.25
340.63	217.55
341.01	225.50
341.39	220.35
341.78	222.70
342.16	225.00
342.54	222.65
342.93	212.53
343.31	223.20
343.69	223.75
344.07	224.25
344.46	224.64
344.84	225.04
345.22	225.04
345.60	225.34
345.99	225.48
346.37	225.55
346.75	225.71
347.13	225.74
347.52	225.89
347.90	226.09
348.28	226.04
348.66	226.22
349.05	226.12
349.43	226.26
349.81	226.31
350.19	226.35
350.57	226.45
350.96	226.54
351.34	226.70
351.72	226.70
352.10	226.87
352.48	226.92
352.87	226.95
353.25	227.02
353.63	227.02
354.01	227.02
354.39	227.07
354.77	227.14
355.15	227.33
355.54	227.39
355.92	227.35
356.30	227.52
356.68	227.89
357.06	227.93
357.44	227.86
357.82	227.98
358.20	228.41
358.58	228.43
358.97	228.52
359.35	228.62
359.73	228.85
360.11	228.87
360.49	229.00
360.87	229.01
361.25	229.09
361.63	229.33
362.01	229.51
362.39	229.49
362.77	229.55
363.15	229.57
363.53	229.60
363.91	229.60
364.29	229.61
364.67	229.14
365.05	229.30
365.43	229.38
365.81	229.46
366.19	229.30
366.57	229.48
366.95	229.43
367.33	229.36
367.71	229.32
368.09	229.40
368.47	229.34
368.85	229.39
369.23	229.50
369.61	229.31
369.99	229.44
370.37	229.54
370.75	229.78
371.13	229.67
371.51	229.62
371.89	229.63
372.27	229.70
372.65	229.68
373.03	229.52
373.41	229.52
373.78	229.36
374.16	229.07
374.54	228.88
374.92	228.83
375.30	228.80
375.68	228.72
376.06	228.66
376.44	228.59
376.82	228.62
377.19	228.49
377.57	228.50
377.95	228.31
378.33	228.22
378.71	227.85
379.09	227.85
379.47	227.79
379.84	227.59
380.22	227.44
380.60	227.32
380.98	227.33
381.36	227.19
381.73	227.07
382.11	227.16
382.49	227.15
382.87	227.04
383.25	226.96
383.62	227.33
384.00	227.15
384.38	227.12
384.76	227.09
385.13	227.27
385.51	227.13
385.89	226.93
386.27	226.90
386.64	226.92
387.02	226.75
387.40	226.65
387.78	226.73
388.15	226.68
388.53	226.63
388.91	226.56
389.29	226.49
389.66	226.57
390.04	226.44
390.42	226.50
390.79	226.54
391.17	226.55
391.55	226.08
391.92	226.10
392.30	226.15
392.68	226.04
393.05	226.02
393.43	226.08
393.81	226.17
394.18	226.12
394.56	226.18
394.94	226.40
395.31	226.51
395.69	226.64
396.06	226.77
396.44	226.84
396.82	226.89
397.19	227.19
397.57	227.12
397.95	227.24
398.32	227.17
398.70	227.25
399.07	227.41
399.45	227.45
399.82	227.54
400.20	227.62
400.58	227.77
400.95	227.63
401.33	227.82
401.70	228.25
402.08	228.44
402.45	228.54
402.83	228.72
403.20	228.83
403.58	229.02
403.95	229.24
404.33	229.49
404.71	229.66
405.08	230.07
405.46	230.37
405.83	230.69
406.21	230.90
406.58	231.20
406.96	231.46
407.33	231.83
407.70	232.26
408.08	232.95
408.45	233.35
408.83	233.87
409.20	234.26
409.58	234.45
409.95	234.92
410.33	235.49
410.70	235.92
411.08	236.59
411.45	237.21
411.82	237.69
412.20	238.50
412.57	239.54
412.95	239.91
413.32	240.83
413.69	241.63
414.07	242.55
414.44	243.58
414.82	244.60
415.19	245.80
415.56	246.94
415.94	248.01
416.31	249.37
416.68	250.86
417.06	252.52
417.43	254.16
417.81	255.93
418.18	257.77
418.55	259.72
418.93	261.75
419.30	263.84
419.67	266.12
420.04	268.33
420.42	270.66
420.79	273.85
421.16	276.65
421.54	279.71
421.91	282.82
422.28	285.90
422.66	289.21
423.03	292.62
423.40	296.03
423.77	299.55
424.15	303.26
424.52	306.93
424.89	311.12
425.26	315.14
425.64	318.92
426.01	323.16
426.38	327.53
426.75	331.98
427.13	336.52
427.50	341.38
427.87	346.37
428.24	351.25
428.61	355.60
428.99	360.99
429.36	366.54
429.73	372.01
430.10	377.54
430.47	383.24
430.85	389.04
431.22	395.27
431.59	402.09
431.96	408.30
432.33	415.26
432.70	421.94
433.08	429.76
433.45	437.36
433.82	444.74
434.19	453.08
434.56	461.29
434.93	469.05
435.30	476.90
435.68	485.53
436.05	494.04
436.42	502.57
436.79	510.15
437.16	518.50
437.53	527.31
437.90	536.12
438.27	544.73
438.64	553.43
439.01	561.77
439.38	569.06
439.75	576.46
440.13	584.66
440.50	592.25
440.87	598.43
441.24	604.75
441.61	611.67
441.98	616.72
442.35	622.57
442.72	628.68
443.09	634.58
443.46	638.06
443.83	640.50
444.20	642.36
444.57	645.08
444.94	646.29
445.31	647.40
445.68	648.63
446.05	648.77
446.42	647.64
446.79	646.25
447.16	644.59
447.53	643.06
447.90	639.30
448.27	635.44
448.64	630.49
449.01	626.83
449.37	620.67
449.74	614.57
450.11	607.57
450.48	599.60
450.85	591.49
451.22	584.42
451.59	577.72
451.96	571.39
452.33	563.25
452.70	555.72
453.07	547.04
453.43	537.90
453.80	529.52
454.17	521.36
454.54	513.50
454.91	505.21
455.28	497.15
455.65	489.67
456.02	482.92
456.38	476.51
456.75	468.64
457.12	462.12
457.49	455.82
457.86	449.42
458.23	444.25
458.59	438.43
458.96	432.68
459.33	427.38
459.70	422.35
460.07	418.31
460.43	413.48
460.80	409.20
461.17	405.45
461.54	401.30
461.91	397.54
462.27	393.68
462.64	390.43
463.01	386.99
463.38	383.54
463.74	379.40
464.11	376.38
464.48	373.77
464.85	370.92
465.21	368.69
465.58	366.42
465.95	363.64
466.32	361.38
466.68	359.15
467.05	357.07
467.42	354.78
467.78	352.40
468.15	350.36
468.52	348.68
468.88	346.46
469.25	344.55
469.62	343.05
469.98	341.44
470.35	339.79
470.72	338.31
471.08	336.61
471.45	335.52
471.82	334.33
472.18	332.73
472.55	331.63
472.92	330.33
473.28	329.21
473.65	328.16
474.02	327.12
474.38	326.27
474.75	325.47
475.11	324.59
475.48	323.87
475.85	323.24
476.21	322.57
476.58	322.13
476.94	321.84
477.31	321.49
477.67	321.03
478.04	320.76
478.41	320.57
478.77	320.91
479.14	320.47
479.50	320.32
479.87	320.51
480.23	320.55
480.60	320.64
480.96	320.64
481.33	321.00
481.69	321.21
482.06	321.47
482.42	321.68
482.79	322.17
483.15	322.66
483.52	323.35
483.88	323.87
484.25	324.40
484.61	325.03
484.98	325.55
485.34	326.53
485.71	327.43
486.07	328.38
486.44	328.96
486.80	330.12
487.17	331.33
487.53	332.70
487.90	334.10
488.26	335.69
488.62	337.39
488.99	338.94
489.35	340.69
489.72	342.53
490.08	344.53
490.44	346.44
490.81	348.72
491.17	350.88
491.54	353.38
491.90	355.94
492.26	358.66
492.63	361.53
492.99	364.46
493.36	367.63
493.72	370.94
494.08	374.45
494.45	378.05
494.81	381.88
495.17	385.75
495.54	389.84
495.90	394.03
496.26	398.46
496.63	403.12
496.99	407.89
497.35	412.95
497.72	418.19
498.08	423.68
498.44	429.19
498.80	435.21
499.17	441.19
499.53	447.53
499.89	454.01
500.26	460.74
500.62	467.57
500.98	475.06
501.34	482.46
501.71	490.10
502.07	498.05
502.43	506.36
502.79	514.67
503.16	523.51
503.52	532.53
503.88	541.71
504.24	551.31
504.60	561.37
504.97	571.65
505.33	582.08
505.69	593.26
506.05	604.43
506.41	615.71
506.78	627.50
507.14	639.57
507.50	652.03
507.86	664.63
508.22	677.75
508.59	690.67
508.95	704.39
509.31	718.65
509.67	732.99
510.03	747.00
510.39	761.88
510.75	776.81
511.12	791.91
511.48	807.67
511.84	823.62
512.20	839.58
512.56	855.88
512.92	872.76
513.28	889.54
513.64	906.95
514.00	924.75
514.37	942.46
514.73	960.45
515.09	978.77
515.45	997.35
515.81	1015.92
516.17	1034.74
516.53	1053.67
516.89	1072.60
517.25	1091.95
517.61	1112.45
517.97	1132.70
518.33	1152.95
518.69	1173.50
519.05	1194.07
519.41	1214.80
519.77	1235.95
520.13	1256.84
520.49	1277.39
520.85	1299.81
521.21	1320.77
521.57	1342.05
521.93	1362.95
522.29	1384.50
522.65	1405.13
523.01	1426.16
523.37	1446.82
523.73	1468.00
524.09	1488.61
524.45	1509.17
524.81	1530.24
525.17	1550.77
525.53	1571.26
525.89	1591.95
526.25	1612.86
526.61	1633.60
526.97	1654.74
527.33	1675.98
527.68	1697.94
528.04	1719.61
528.40	1739.16
528.76	1760.48
529.12	1780.79
529.48	1801.76
529.84	1821.60
530.20	1842.75
530.56	1863.66
530.91	1884.80
531.27	1905.42
531.63	1926.05
531.99	1946.83
532.35	1967.02
532.71	1987.33
533.07	2008.23
533.42	2028.21
533.78	2048.05
534.14	2067.69
534.50	2086.53
534.86	2105.81
535.21	2123.66
535.57	2142.05
535.93	2160.24
536.29	2177.74
536.65	2196.06
537.00	2213.57
537.36	2231.67
537.72	2248.53
538.08	2265.85
538.44	2282.50
538.79	2298.82
539.15	2315.00
539.51	2331.05
539.87	2346.33
540.22	2360.51
540.58	2375.03
540.94	2388.55
541.29	2401.34
541.65	2414.06
542.01	2426.97
542.37	2437.65
542.72	2448.37
543.08	2459.12
543.44	2470.54
543.79	2480.98
544.15	2490.94
544.51	2501.13
544.87	2510.68
545.22	2519.11
545.58	2526.72
545.94	2534.03
546.29	2540.68
546.65	2547.52
547.01	2553.47
547.36	2559.12
547.72	2564.70
548.07	2568.50
548.43	2573.93
548.79	2578.70
549.14	2582.69
549.50	2586.16
549.86	2590.21
550.21	2594.05
550.57	2597.32
550.92	2598.67
551.28	2599.93
551.64	2602.50
551.99	2604.51
552.35	2605.90
552.70	2608.16
553.06	2609.95
553.41	2611.18
553.77	2613.04
554.13	2614.38
554.48	2615.70
554.84	2617.13
555.19	2618.25
555.55	2619.92
555.90	2619.03
556.26	2618.36
556.61	2616.98
556.97	2615.16
557.32	2614.57
557.68	2613.46
558.03	2612.05
558.39	2610.88
558.74	2610.13
559.10	2606.52
559.45	2603.13
559.81	2598.69
560.16	2593.49
560.52	2588.50
560.87	2584.16
561.23	2578.58
561.58	2572.75
561.94	2565.80
562.29	2558.40
562.64	2551.52
563.00	2543.45
563.35	2536.94
563.71	2530.11
564.06	2524.23
564.42	2517.77
564.77	2510.75
565.12	2503.32
565.48	2495.87
565.83	2488.19
566.19	2480.24
566.54	2472.58
566.89	2464.15
567.25	2456.46
567.60	2449.47
567.96	2442.03
568.31	2434.16
568.66	2425.52
569.02	2416.42
569.37	2408.43
569.72	2400.64
570.08	2391.25
570.43	2381.63
570.78	2372.86
571.14	2363.62
571.49	2353.19
571.84	2343.55
572.20	2332.65
572.55	2322.36
572.90	2311.11
573.26	2300.53
573.61	2289.08
573.96	2277.69
574.31	2265.90
574.67	2253.95
575.02	2241.26
575.37	2228.23
575.72	2215.10
576.08	2203.02
576.43	2190.69
576.78	2177.13
577.13	2163.52
577.49	2150.93
577.84	2139.31
578.19	2126.85
578.54	2114.08
578.90	2101.90
579.25	2089.61
579.60	2077.13
579.95	2064.04
580.30	2051.24
580.66	2037.55
581.01	2024.20
581.36	2010.52
581.71	1998.02
582.06	1985.11
582.42	1972.71
582.77	1960.52
583.12	1948.15
583.47	1935.62
583.82	1923.41
584.17	1911.43
584.53	1899.35
584.88	1886.23
585.23	1872.64
585.58	1858.42
585.93	1845.15
586.28	1832.02
586.63	1817.83
586.98	1803.44
587.34	1790.15
587.69	1776.83
588.04	1764.39
588.39	1752.19
588.74	1739.72
589.09	1727.32
589.44	1714.49
589.79	1702.18
590.14	1689.93
590.49	1677.64
590.84	1665.48
591.19	1653.50
591.54	1641.29
591.89	1629.20
592.25	1618.96
592.60	1607.60
592.95	1596.40
593.30	1584.32
593.65	1572.07
594.00	1560.12
594.35	1550.50
594.70	1538.76
595.05	1527.24
595.40	1515.08
595.75	1503.08
596.10	1491.81
596.45	1480.22
596.80	1469.55
597.15	1457.90
597.50	1445.90
597.85	1434.55
598.19	1422.90
598.54	1411.26
598.89	1400.11
599.24	1389.60
599.59	1378.06
599.94	1366.96
600.29	1356.33
600.64	1345.84
600.99	1335.14
601.34	1325.49
601.69	1314.08
602.04	1304.32
602.39	1294.50
602.74	1285.44
603.08	1275.92
603.43	1266.71
603.78	1256.93
604.13	1247.17
604.48	1237.43
604.83	1227.74
605.18	1218.21
605.53	1208.73
605.87	1199.36
606.22	1190.63
606.57	1181.05
606.92	1171.19
607.27	1162.54
607.62	1153.62
607.96	1145.22
608.31	1137.34
608.66	1128.90
609.01	1120.28
609.36	1111.61
609.70	1102.84
610.05	1094.04
610.40	1085.57
610.75	1076.65
611.10	1068.40
611.44	1059.69
611.79	1051.61
612.14	1043.76
612.49	1035.68
612.83	1028.21
613.18	1020.45
613.53	1012.56
613.88	1004.77
614.22	997.42
614.57	989.26
614.92	981.40
615.27	973.96
615.61	965.95
615.96	958.35
616.31	950.83
616.65	943.68
617.00	936.52
617.35	929.20
617.70	922.00
618.04	914.70
618.39	907.62
618.74	901.37
619.08	894.42
619.43	887.37
619.78	880.28
620.12	873.14
620.47	866.10
620.82	858.92
621.16	851.98
621.51	845.49
621.85	839.31
622.20	832.81
622.55	825.99
622.89	819.65
623.24	813.12
623.59	806.73
623.93	800.33
624.28	794.20
624.62	788.60
624.97	782.91
625.32	777.36
625.66	771.33
626.01	765.07
626.35	759.36
626.70	753.84
627.04	748.62
627.39	742.96
627.73	737.59
628.08	732.49
628.43	727.14
628.77	721.54
629.12	716.11
629.46	711.12
629.81	706.31
630.15	701.47
630.50	696.48
630.84	691.89
631.19	687.05
631.53	682.34
631.88	676.87
632.22	671.88
632.57	667.38
632.91	662.76
633.26	658.34
633.60	653.67
633.95	648.97
634.29	644.04
634.64	639.72
634.98	635.08
635.32	630.71
635.67	626.68
636.01	622.56
636.36	618.19
636.70	614.08
637.05	609.90
637.39	605.69
637.73	601.83
638.08	597.51
638.42	593.41
638.77	589.07
639.11	584.80
639.45	580.55
639.80	576.12
640.14	572.02
640.49	567.89
640.83	564.02
641.17	560.26
641.52	556.60
641.86	552.78
642.20	549.52
642.55	545.65
642.89	541.92
643.23	538.41
643.58	535.34
643.92	531.66
644.26	528.20
644.61	525.07
644.95	521.54
645.29	518.19
645.64	514.93
645.98	511.79
646.32	509.04
646.66	505.89
647.01	502.95
647.35	500.10
647.69	497.23
648.04	494.53
648.38	491.74
648.72	488.82
649.06	486.01
649.41	482.88
649.75	479.91
650.09	476.97
650.43	474.00
650.78	470.89
651.12	468.21
651.46	465.37
651.80	462.61
652.14	459.80
652.49	457.22
652.83	454.59
653.17	452.01
653.51	449.34
653.85	446.95
654.20	444.37
654.54	441.89
654.88	439.39
655.22	437.03
655.56	434.53
655.90	432.22
656.25	429.78
656.59	427.68
656.93	425.60
657.27	423.60
657.61	421.21
657.95	419.08
658.29	416.86
658.64	414.88
658.98	412.55
659.32	410.44
659.66	408.17
660.00	406.18
660.34	404.21
660.68	402.15
661.02	400.06
661.36	398.19
661.70	396.14
662.05	394.17
662.39	392.20
662.73	390.32
663.07	388.68
663.41	386.82
663.75	384.80
664.09	382.88
664.43	380.88
664.77	379.24
665.11	377.47
665.45	375.74
665.79	373.97
666.13	372.21
666.47	370.51
666.81	369.01
667.15	367.28
667.49	365.76
667.83	364.40
668.17	362.80
668.51	361.17
668.85	359.81
669.19	358.68
669.53	357.12
669.87	355.57
670.21	353.98
670.55	352.66
670.89	351.54
671.23	350.21
671.57	348.84
671.91	347.40
672.25	346.02
672.58	344.91
672.92	343.54
673.26	342.33
673.60	341.18
673.94	339.95
674.28	338.75
674.62	337.44
674.96	336.09
675.30	335.07
675.64	333.87
675.97	332.62
676.31	331.16
676.65	330.07
676.99	329.25
677.33	328.07
677.67	327.05
678.01	325.74
678.34	324.69
678.68	323.77
679.02	322.78
679.36	321.85
679.70	320.73
680.04	319.73
680.37	318.79
680.71	317.78
681.05	316.90
681.39	315.98
681.73	315.05
682.06	314.12
682.40	313.19
682.74	312.38
683.08	311.68
683.42	310.77
683.75	309.93
684.09	308.93
684.43	308.17
684.77	307.32
685.10	306.53
685.44	305.77
685.78	304.84
686.12	303.98
686.45	303.12
686.79	302.26
687.13	301.59
687.46	300.75
687.80	300.06
688.14	299.25
688.48	298.52
688.81	297.71
689.15	297.11
689.49	296.25
689.82	295.62
690.16	294.73
690.50	294.09
690.83	293.28
691.17	292.56
691.51	291.89
691.84	291.17
692.18	290.40
692.52	289.63
692.85	289.06
693.19	288.66
693.52	288.10
693.86	287.38
694.20	286.77
694.53	286.18
694.87	285.48
695.21	284.79
695.54	284.15
695.88	283.65
696.21	282.83
696.55	282.31
696.88	281.58
697.22	280.89
697.56	280.32
697.89	279.69
698.23	279.18
698.56	278.48
698.90	278.00
699.23	277.48
699.57	277.08
699.90	276.45
700.24	275.80
700.58	275.30
700.91	274.98
701.25	274.86
701.58	274.69
701.92	274.41
702.25	273.97
702.59	273.52
702.92	273.04
703.26	272.70
703.59	272.27
703.93	272.29
704.26	272.01
704.60	271.56
704.93	271.15
705.26	270.58
705.60	270.33
705.93	269.76
706.27	269.56
706.60	269.24
706.94	269.01
707.27	268.52
707.61	268.11
707.94	267.69
708.27	266.86
708.61	266.18
708.94	265.68
709.28	265.30
709.61	264.91
709.94	264.57
710.28	264.23
710.61	263.83
710.95	263.01
711.28	262.91
711.61	262.57
711.95	262.45
712.28	262.10
712.61	261.74
712.95	261.68
713.28	261.49
713.61	261.06
713.95	260.66
714.28	260.48
714.61	260.10
714.95	259.74
715.28	259.42
715.61	259.11
715.95	258.78
716.28	258.43
716.61	258.13
716.95	257.70
717.28	257.36
717.61	257.11
717.94	256.87
718.28	256.27
718.61	255.95
718.94	255.48
719.27	255.28
719.61	255.02
719.94	254.60
720.27	254.08
720.60	253.84
720.94	253.61
721.27	253.34
721.60	253.22
721.93	252.99
722.27	252.91
722.60	252.71
722.93	252.49
723.26	252.39
723.59	252.18
723.93	252.07
724.26	251.81
724.59	251.56
724.92	251.41
725.25	251.32
725.59	251.19
725.92	251.14
726.25	250.84
726.58	250.69
726.91	250.55
727.24	250.46
727.57	250.17
727.91	249.85
728.24	249.70
728.57	249.47
728.90	249.32
729.23	248.91
729.56	248.92
729.89	248.74
730.22	248.51
730.55	248.27
730.89	248.15
731.22	248.00
731.55	247.83
731.88	247.62
732.21	247.29
732.54	247.01
732.87	246.77
733.20	246.69
733.53	246.47
733.86	246.28
734.19	245.95
734.52	245.90
734.85	246.08
735.18	245.85
735.51	245.78
735.84	245.63
736.17	245.62
736.50	245.21
736.83	245.62
737.16	245.40
737.49	245.26
737.82	245.04
738.15	244.96
738.48	244.72
738.81	244.53
739.14	244.43
739.47	244.29
739.80	244.10
740.13	243.94
740.46	243.70
740.79	243.52
741.12	243.36
741.45	243.12
741.78	242.72
742.11	242.65
742.44	242.42
742.77	242.34
743.10	242.16
743.43	242.03
743.75	241.40
744.08	241.95
744.41	241.72
744.74	241.55
745.07	241.32
745.40	241.40
745.73	241.45
746.06	241.32
746.39	241.25
746.71	241.11
747.04	240.92
747.37	240.77
747.70	240.73
748.03	240.71
748.36	240.66
748.68	240.50
749.01	240.28
749.34	240.15
749.67	239.98
750.00	239.91
750.33	240.15
750.65	240.07
750.98	239.33
751.31	239.32
751.64	239.25
751.97	239.40
752.29	239.24
752.62	238.95
752.95	238.80
753.28	238.63
753.60	238.59
753.93	238.66
754.26	238.63
754.59	238.35
754.91	238.18
755.24	238.09
755.57	238.00
755.90	237.88
756.22	237.73
756.55	237.60
756.88	237.43
757.20	237.07
757.53	236.82
757.86	236.69
758.19	236.62
758.51	236.50
758.84	236.21
759.17	236.02
759.49	235.89
759.82	236.09
760.15	236.08
760.47	235.89
760.80	235.66
761.13	235.69
761.45	235.61
761.78	235.56
762.11	235.49
762.43	235.37
762.76	235.33
763.08	235.39
763.41	235.35
763.74	235.27
764.06	235.13
764.39	235.08
764.71	234.99
765.04	234.88
765.37	234.72
765.69	234.66
766.02	234.58
766.34	234.54
766.67	234.25
767.00	234.26
767.32	234.49
767.65	234.72
767.97	234.52
768.30	234.52
768.62	234.42
768.95	234.27
769.27	234.20
769.60	234.20
769.92	234.02
770.25	233.87
770.57	233.70
770.90	233.60
771.22	233.52
771.55	233.48
771.87	233.37
772.20	233.29
772.52	233.61
772.85	234.14
773.17	234.04
773.50	233.97
773.82	233.83
774.15	233.52
774.47	233.15
774.80	233.07
775.12	232.98
775.45	232.89
775.77	232.85
776.09	232.82
776.42	232.79
776.74	232.87
777.07	232.83
777.39	232.86
777.72	232.79
778.04	232.75
778.36	232.57
778.69	232.51
779.01	232.53
779.33	232.01
779.66	231.39
779.98	231.37
780.31	231.31
780.63	231.50
780.95	231.48
781.28	231.36
781.60	231.29
781.92	231.21
782.25	231.19
782.57	231.09
782.89	230.99
783.22	230.84
783.54	230.64
783.86	230.57
784.19	230.51
784.51	230.58
784.83	230.45
785.16	230.46
785.48	230.44
785.80	230.47
786.12	230.49
786.45	230.51
786.77	230.46
787.09	230.40
787.42	230.10
787.74	230.15
788.06	230.18
788.38	230.09
788.71	230.07
789.03	230.03
789.35	230.13
789.67	230.01
789.99	229.99
790.32	229.96
790.64	229.98
790.96	230.34
791.28	230.22
791.61	230.21
791.93	230.23
792.25	230.14
792.57	230.46
792.89	230.33
793.21	230.26
793.54	230.25
793.86	230.20
794.18	230.19
794.50	230.13
794.82	230.09
795.14	230.14
795.47	230.21
795.79	230.20
796.11	230.09
796.43	230.10
796.75	230.06
797.07	230.13
797.39	230.14
797.71	229.76
798.04	229.73
798.36	229.80
798.68	229.77
799.00	229.88
799.32	229.56
799.64	229.68
799.96	229.64
800.28	229.61
800.60	229.63
800.92	229.69
801.24	229.57
801.56	229.67
801.89	229.67
802.21	229.62
802.53	229.62
802.85	229.74
803.17	229.90
803.49	229.90
803.81	229.80
804.13	229.74
804.45	229.67
804.77	229.75
805.09	229.77
805.41	229.75
805.73	229.71
806.05	229.61
806.37	229.62
806.69	229.54
807.01	229.69
807.33	229.68
807.65	229.54
807.97	229.81
808.28	229.72
808.60	229.69
808.92	229.64
809.24	229.92
809.56	229.72
809.88	229.67
810.20	229.63
810.52	229.73
810.84	229.62
811.16	229.61
811.48	229.48
811.80	229.48
812.12	229.43
812.43	229.47
812.75	229.48
813.07	229.36
813.39	229.45
813.71	229.19
814.03	229.10
814.35	229.11
814.67	228.87
814.98	228.82
815.30	228.88
815.62	228.82
815.94	228.46
816.26	228.68
816.58	228.56
816.89	228.62
817.21	228.44
817.53	228.54
817.85	228.60
818.17	228.64
818.48	228.58
818.80	228.71
819.12	228.56
819.44	228.41
819.76	228.36
820.07	228.31
820.39	228.37
820.71	228.40
821.03	228.28
821.34	228.30
821.66	228.37
821.98	228.26
822.30	228.19
822.61	228.49
822.93	228.29
823.25	228.29
823.57	228.20
823.88	228.32
824.20	228.25
824.52	228.25
824.83	228.21
825.15	228.03
825.47	227.93
825.79	228.04
826.10	228.10
826.42	228.06
826.74	228.12
827.05	228.03
827.37	228.14
827.69	228.23
828.00	228.19
828.32	228.11
828.64	228.05
828.95	228.33
829.27	228.19
829.58	228.22
829.90	228.26
830.22	228.35
830.53	228.22
830.85	228.18
831.17	228.10
831.48	228.09
831.80	228.11
832.11	228.12
832.43	228.02
832.75	228.02
833.06	228.35
833.38	228.23
833.69	228.24
834.01	228.20
834.32	228.14
834.64	228.07
834.96	228.16
835.27	228.26
835.59	228.15
835.90	228.19
836.22	228.15
836.53	228.10
836.85	228.01
837.16	228.54
837.48	228.54
837.79	228.68
838.11	228.79
838.42	228.81
838.74	228.86
839.05	228.79
839.37	228.75
839.68	228.42
840.00	228.41
840.31	228.51
840.63	228.45
840.94	228.41
841.26	228.46
841.57	228.39
841.88	228.37
842.20	228.29
842.51	228.07
842.83	228.03
843.14	228.37
843.46	228.38
843.77	228.10
844.08	228.06
844.40	227.93
844.71	227.77
845.03	227.76
845.34	227.72
845.65	227.72
845.97	227.74
846.28	227.80
846.60	227.87
846.91	227.80
847.22	227.81
847.54	227.97
847.85	227.89
848.16	227.84
848.48	227.81
848.79	228.03
849.10	228.18
849.42	228.20
849.73	227.81
850.04	227.79
850.36	227.60
850.67	227.71
850.98	227.73
851.30	227.79
851.61	227.77
851.92	227.75
852.23	227.93
852.55	227.99
852.86	227.95
853.17	227.92
853.49	227.96
853.80	228.00
854.11	227.97
854.42	228.00
854.74	227.97
855.05	227.92
855.36	227.65
855.67	227.61
855.99	227.60
856.30	228.17
856.61	228.15
856.92	228.17
857.23	228.17
857.55	228.05
857.86	228.01
858.17	228.08
858.48	227.97
858.79	227.78
859.11	227.75
859.42	227.72
859.73	227.65
860.04	227.69
860.35	227.48
860.66	227.37
860.98	227.43
861.29	227.41
861.60	227.31
861.91	227.40
862.22	227.29
862.53	227.29
862.84	226.68
863.16	226.82
863.47	226.80
863.78	226.66
864.09	226.80
864.40	226.84
864.71	226.80
865.02	226.89
865.33	226.90
865.64	226.81
865.95	226.85
866.27	227.19
866.58	227.08
866.89	227.21
867.20	227.18
867.51	227.08
867.82	227.09
868.13	227.33
868.44	227.22
868.75	227.27
869.06	227.20
869.37	227.25
869.68	227.04
869.99	227.04
870.30	227.14
870.61	227.15
870.92	227.08
871.23	227.06
871.54	227.12
871.85	227.21
872.16	227.31
872.47	227.36
872.78	227.08
873.09	227.15
873.40	227.13
873.71	227.18
874.02	227.18
874.33	227.11
874.64	226.93
874.95	226.97
875.26	226.93
875.56	226.92
875.87	226.93
876.18	227.00
876.49	227.43
876.80	227.35
877.11	227.23
877.42	227.25
877.73	227.21
878.04	227.11
878.35	227.11
878.66	227.12
878.96	227.04
879.27	227.00
879.58	226.96
879.89	226.89
880.20	227.01
880.51	227.04
880.82	227.17
881.12	227.24
881.43	227.23
881.74	227.13
882.05	227.11
882.36	227.15
882.67	227.12
882.97	226.69
883.28	226.70
883.59	226.65
883.90	226.70
884.21	226.88
884.51	226.92
884.82	226.82
885.13	226.80
885.44	226.83
885.74	226.90
886.05	226.89
886.36	226.96
886.67	226.81
886.98	226.99
887.28	226.99
887.59	226.91
887.90	226.83
888.20	226.80
888.51	226.91
888.82	226.78
889.13	226.83
889.43	227.19
889.74	227.18
890.05	227.23
890.35	227.17
890.66	227.03
890.97	227.00
891.28	226.95
891.58	226.92
891.89	226.87
892.20	226.71
892.50	226.64
892.81	226.61
893.12	226.61
893.42	226.34
893.73	226.36
894.04	226.42
894.34	226.48
894.65	226.61
894.95	226.45
895.26	226.43
895.57	226.64
895.87	226.20
896.18	226.25
896.48	226.27
896.79	226.22
897.10	226.30
897.40	226.34
897.71	226.35
898.01	226.33
898.32	226.40
898.63	226.51
898.93	226.65
899.24	226.62
899.54	226.59
899.85	226.65
900.15	226.61
900.46	226.58
900.76	226.65
901.07	226.60
901.38	226.64
901.68	226.80
901.99	226.56
902.29	226.59
902.60	226.55
902.90	226.55
903.21	226.58
903.51	226.55
903.82	226.57
904.12	226.68
904.43	226.79
904.73	226.80
905.03	226.74
905.34	227.10
905.64	227.09
905.95	227.03
906.25	227.11
906.56	227.09
906.86	227.12
907.17	227.08
907.47	227.07
907.77	227.08
908.08	226.92
908.38	226.92
908.69	227.01
908.99	227.14
909.30	227.09
909.60	227.13
909.90	227.17
910.21	227.04
910.51	226.87
910.81	226.82
911.12	226.75
911.42	226.78
911.73	226.27
912.03	226.40
912.33	226.56
912.64	226.45
912.94	226.42
913.24	226.41
913.55	226.36
913.85	226.33
914.15	226.44
914.46	226.54
914.76	226.45
915.06	226.33
915.37	226.22
915.67	226.19
915.97	226.16
916.27	226.08
916.58	226.10
916.88	226.14
917.18	226.13
917.49	226.49
917.79	226.52
918.09	226.60
918.39	226.59
918.70	226.58
919.00	226.58
919.30	226.79
919.60	226.72
919.91	226.71
920.21	226.77
920.51	226.65
920.81	226.65
921.12	226.84
921.42	226.83
921.72	226.87
922.02	226.89
922.32	226.95
922.63	226.93
922.93	227.23
923.23	227.23
923.53	227.15
923.83	226.81
924.13	226.82
924.44	226.85
924.74	226.95
925.04	227.01
925.34	227.01
925.64	226.82
925.94	226.84
926.24	227.11
926.55	227.04
926.85	227.15
927.15	227.07
927.45	227.01
927.75	227.07
928.05	227.09
928.35	227.06
928.65	227.04
928.95	227.07
929.26	226.81
929.56	226.94
929.86	227.09
930.16	227.07
930.46	227.06
930.76	227.06
931.06	226.81
931.36	226.68
931.66	226.80
931.96	226.90
932.26	226.88
932.56	226.61
932.86	226.65
933.16	226.58
933.46	226.58
933.76	226.54
934.06	226.61
934.36	226.79
934.66	226.72
934.96	226.73
935.26	226.71
935.56	226.69
935.86	226.54
936.16	226.45
936.46	226.39
936.76	226.27
937.06	226.18
937.36	226.24
937.66	226.23
937.96	226.19
938.26	226.05
938.56	226.03
938.86	226.10
939.16	226.21
939.46	226.28
939.76	226.35
940.06	226.38
940.35	226.25
940.65	225.94
940.95	226.00
941.25	225.91
941.55	225.86
941.85	225.87
942.15	225.91
942.45	225.99
942.75	225.99
943.04	226.07
943.34	226.12
943.64	226.08
943.94	226.01
944.24	226.05
944.54	226.12
944.84	226.12
945.13	225.99
945.43	225.85
945.73	225.81
946.03	225.72
946.33	225.66
946.62	225.60
946.92	225.66
947.22	225.77
947.52	225.83
947.82	225.93
948.11	225.87
948.41	225.87
948.71	225.71
949.01	225.76
949.31	225.70
949.60	225.68
949.90	225.78
950.20	225.84
950.50	225.67
950.79	225.58
951.09	225.62
951.39	225.66
951.69	225.66
951.98	225.75
952.28	225.78
952.58	225.77
952.87	225.84
953.17	225.87
953.47	225.80
953.76	225.75
954.06	225.66
954.36	225.70
954.66	225.67
954.95	225.82
955.25	225.84
955.55	225.88
955.84	225.90
956.14	225.87
956.44	225.90
956.73	225.94
957.03	226.01
957.32	226.02
957.62	225.99
957.92	226.11
958.21	226.05
958.51	226.58
958.81	226.61
959.10	226.61
959.40	226.72
959.69	226.71
959.99	226.77
960.29	226.84
960.58	226.79
960.88	226.96
961.17	226.90
961.47	226.96
961.76	226.89
962.06	226.90
962.36	226.92
962.65	226.95
962.95	226.97
963.24	226.89
963.54	226.88
963.83	227.00
964.13	226.92
964.42	226.88
964.72	226.51
965.01	226.59
965.31	226.63
965.60	226.50
965.90	226.80
966.19	226.73
966.49	226.69
966.78	226.72
967.08	226.69
967.37	226.75
967.67	226.67
967.96	226.78
968.26	226.73
968.55	226.83
968.85	226.80
969.14	226.87
969.43	226.90
969.73	226.94
970.02	226.88
970.32	226.90
970.61	226.78
970.91	226.62
971.20	226.49
971.49	226.43
971.79	226.50
972.08	226.20
972.38	226.24
972.67	226.20
972.96	226.23
973.26	226.10
973.55	226.20
973.85	226.19
974.14	226.17
974.43	226.29
974.73	226.13
975.02	226.10
975.31	226.06
975.61	226.04
975.90	226.02
976.19	225.97
976.49	226.03
976.78	226.18
977.07	226.25
977.37	226.37
977.66	226.34
977.95	226.28
978.24	226.33
978.54	226.46
978.83	226.44
979.12	226.44
979.42	226.47
979.71	226.39
980.00	226.36
980.29	226.36
980.59	226.28
980.88	226.46
981.17	226.40
981.46	226.43
981.76	226.50
982.05	226.64
982.34	226.68
982.63	226.62
982.93	226.57
983.22	226.73
983.51	226.64
983.80	226.79
984.09	226.79
984.39	226.69
984.68	226.59
984.97	226.70
985.26	226.68
985.55	226.73
985.85	226.65
986.14	226.84
986.43	226.85
986.72	226.77
987.01	226.63
987.30	226.70
987.59	226.65
987.89	226.63
988.18	226.45
988.47	226.41
988.76	226.42
989.05	226.38
989.34	226.27
989.63	226.39
989.92	226.26
990.22	226.28
990.51	226.39
990.80	226.36
991.09	226.28
991.38	226.36
991.67	226.25
991.96	226.24
992.25	226.10
992.54	226.07
992.83	226.12
993.12	226.08
993.41	226.17
993.70	226.31
993.99	226.32
994.28	226.37
994.58	226.41
994.87	226.33
995.16	226.36
995.45	226.30
995.74	226.17
996.03	226.33
996.32	226.35
996.61	226.42
996.90	226.36
997.19	226.32
997.48	226.29
997.77	226.31
998.06	226.32
998.34	226.32
998.63	226.34
998.92	226.34
999.21	226.40
999.50	226.38
999.79	226.23
1000.08	226.29
1000.37	226.34
1000.66	226.31
1000.95	226.47
1001.24	226.50
1001.53	226.52
1001.82	226.51
1002.11	226.31
1002.40	226.34
1002.68	226.44
1002.97	226.79
1003.26	226.76
1003.55	226.67
1003.84	226.65
1004.13	226.80
1004.42	226.80
1004.71	226.76
1004.99	226.76
1005.28	226.88
1005.57	226.79
1005.86	226.72
1006.15	226.67
1006.44	226.62
1006.72	226.61
1007.01	226.49
1007.30	226.44
1007.59	226.41
1007.88	226.48
1008.17	226.55
1008.45	226.44
1008.74	226.25
1009.03	226.06
1009.32	226.12
1009.60	226.11
1009.89	226.09
1010.18	225.84
1010.47	225.80
1010.76	225.83
1011.04	225.79
1011.33	225.78
1011.62	225.87
1011.91	225.90
1012.19	225.89
1012.48	225.82
1012.77	225.79
1013.05	226.02
1013.34	226.02
1013.63	225.95
1013.92	225.93
1014.20	225.92
1014.49	225.90
1014.78	225.86
1015.06	225.68
1015.35	225.69
1015.64	225.80
1015.92	225.86
1016.21	225.93
1016.50	225.90
1016.78	225.99
1017.07	226.04
1017.36	225.93
1017.64	225.87
1017.93	225.92
1018.22	225.86
1018.50	225.91
1018.79	225.93
1019.08	225.74
1019.36	225.77
1019.65	225.78
1019.93	225.86
1020.22	225.90
1020.51	226.13
1020.79	226.13
1021.08	224.80
1021.36	225.70
1021.65	225.65
1021.94	226.15
1022.22	226.30
1022.51	225.05
1022.79	227.90
1023.08	226.40
1023.36	230.30
1023.65	224.70
>>>>>End Processed Spectral Data<<<<<
