SpectraSuite Data File
++++++++++++++++++++++++++++++++++++
Date: Wed Sep 04 18:05:31 EDT 2013
User: lab3
Dark Spectrum Present: Yes
Reference Spectrum Present: No
Number of Sampled Component Spectra: 1
Spectrometers: USB2E7196
Integration Time (usec): 170000 (USB2E7196)
Spectra Averaged: 20 (USB2E7196)
Boxcar Smoothing: 10 (USB2E7196)
Correct for Electrical Dark: No (USB2E7196)
Strobe/Lamp Enabled: No (USB2E7196)
Correct for Detector Non-linearity: No (USB2E7196)
Correct for Stray Light: No (USB2E7196)
Number of Pixels in Processed Spectrum: 2048
>>>>>Begin Processed Spectral Data<<<<<
339.09	0.00
339.48	214.15
339.86	215.25
340.24	217.45
340.63	217.55
341.01	227.15
341.39	220.15
341.78	223.55
342.16	224.05
342.54	223.40
342.93	212.98
343.31	223.72
343.69	224.21
344.07	224.72
344.46	225.20
344.84	225.59
345.22	225.53
345.60	225.87
345.99	226.00
346.37	226.18
346.75	226.33
347.13	226.36
347.52	226.46
347.90	226.64
348.28	226.67
348.66	226.78
349.05	226.71
349.43	226.79
349.81	226.89
350.19	226.93
350.57	226.95
350.96	227.05
351.34	227.15
351.72	227.24
352.10	227.24
352.48	227.22
352.87	227.33
353.25	227.40
353.63	227.37
354.01	227.40
354.39	227.43
354.77	227.49
355.15	227.73
355.54	227.70
355.92	227.64
356.30	227.68
356.68	228.09
357.06	228.15
357.44	228.13
357.82	228.14
358.20	228.62
358.58	228.63
358.97	228.74
359.35	228.94
359.73	229.12
360.11	229.15
360.49	229.24
360.87	229.30
361.25	229.36
361.63	229.55
362.01	229.67
362.39	229.64
362.77	229.65
363.15	229.60
363.53	229.64
363.91	229.70
364.29	229.79
364.67	229.29
365.05	229.30
365.43	229.44
365.81	229.51
366.19	229.38
366.57	229.62
366.95	229.59
367.33	229.47
367.71	229.45
368.09	229.63
368.47	229.59
368.85	229.57
369.23	229.68
369.61	229.51
369.99	229.66
370.37	229.78
370.75	230.06
371.13	230.00
371.51	229.94
371.89	229.99
372.27	229.99
372.65	230.06
373.03	230.04
373.41	229.99
373.78	229.95
374.16	229.70
374.54	229.54
374.92	229.39
375.30	229.30
375.68	229.12
376.06	229.03
376.44	228.95
376.82	228.93
377.19	228.86
377.57	228.83
377.95	228.62
378.33	228.50
378.71	228.18
379.09	228.16
379.47	228.15
379.84	227.98
380.22	227.85
380.60	227.78
380.98	227.70
381.36	227.65
381.73	227.53
382.11	227.51
382.49	227.45
382.87	227.41
383.25	227.39
383.62	228.00
384.00	227.87
384.38	227.86
384.76	227.86
385.13	227.96
385.51	227.95
385.89	227.82
386.27	227.74
386.64	227.72
387.02	227.66
387.40	227.62
387.78	227.63
388.15	227.56
388.53	227.45
388.91	227.47
389.29	227.31
389.66	227.39
390.04	227.32
390.42	227.38
390.79	227.34
391.17	227.30
391.55	226.75
391.92	226.73
392.30	226.72
392.68	226.56
393.05	226.54
393.43	226.52
393.81	226.58
394.18	226.52
394.56	226.57
394.94	226.63
395.31	226.67
395.69	226.89
396.06	227.03
396.44	227.11
396.82	227.08
397.19	227.48
397.57	227.38
397.95	227.50
398.32	227.39
398.70	227.51
399.07	227.63
399.45	227.70
399.82	227.77
400.20	227.81
400.58	227.89
400.95	227.82
401.33	228.02
401.70	228.46
402.08	228.68
402.45	228.83
402.83	229.07
403.20	229.20
403.58	229.27
403.95	229.50
404.33	229.80
404.71	229.99
405.08	230.34
405.46	230.57
405.83	230.86
406.21	231.15
406.58	231.45
406.96	231.69
407.33	231.93
407.70	232.31
408.08	233.09
408.45	233.62
408.83	234.11
409.20	234.49
409.58	234.68
409.95	235.24
410.33	235.73
410.70	236.13
411.08	236.76
411.45	237.40
411.82	237.91
412.20	238.52
412.57	239.55
412.95	239.94
413.32	240.85
413.69	241.69
414.07	242.61
414.44	243.58
414.82	244.69
415.19	245.93
415.56	247.18
415.94	248.15
416.31	249.59
416.68	250.94
417.06	252.52
417.43	254.16
417.81	255.86
418.18	257.66
418.55	259.58
418.93	261.60
419.30	263.67
419.67	266.05
420.04	268.48
420.42	270.76
420.79	273.77
421.16	276.60
421.54	279.60
421.91	282.62
422.28	285.82
422.66	289.14
423.03	292.53
423.40	295.88
423.77	299.51
424.15	302.99
424.52	306.91
424.89	311.16
425.26	315.13
425.64	318.87
426.01	323.08
426.38	327.53
426.75	332.03
427.13	336.62
427.50	341.34
427.87	346.21
428.24	351.20
428.61	355.91
428.99	361.28
429.36	366.84
429.73	372.40
430.10	377.86
430.47	383.40
430.85	389.17
431.22	395.27
431.59	402.07
431.96	408.47
432.33	415.49
432.70	422.14
433.08	430.03
433.45	437.62
433.82	445.05
434.19	453.30
434.56	461.52
434.93	469.17
435.30	476.95
435.68	485.70
436.05	494.09
436.42	502.18
436.79	510.02
437.16	518.37
437.53	527.08
437.90	535.90
438.27	544.79
438.64	553.86
439.01	562.42
439.38	569.62
439.75	576.89
440.13	584.82
440.50	592.47
440.87	598.62
441.24	605.07
441.61	612.16
441.98	617.24
442.35	623.05
442.72	629.23
443.09	635.15
443.46	638.46
443.83	640.81
444.20	643.06
444.57	645.60
444.94	646.68
445.31	648.04
445.68	649.35
446.05	649.40
446.42	647.99
446.79	646.56
447.16	645.09
447.53	643.64
447.90	640.00
448.27	636.31
448.64	631.37
449.01	627.54
449.37	621.25
449.74	615.17
450.11	608.29
450.48	600.44
450.85	592.29
451.22	585.46
451.59	578.97
451.96	572.62
452.33	564.44
452.70	557.06
453.07	548.13
453.43	538.99
453.80	530.59
454.17	522.50
454.54	514.69
454.91	506.35
455.28	498.42
455.65	490.86
456.02	483.93
456.38	477.59
456.75	469.82
457.12	463.40
457.49	457.15
457.86	450.76
458.23	445.50
458.59	439.79
458.96	433.97
459.33	428.60
459.70	423.32
460.07	419.29
460.43	414.53
460.80	410.34
461.17	406.51
461.54	402.47
461.91	398.65
462.27	394.72
462.64	391.45
463.01	387.90
463.38	384.59
463.74	380.48
464.11	377.36
464.48	374.65
464.85	371.67
465.21	369.45
465.58	367.05
465.95	364.29
466.32	362.04
466.68	359.79
467.05	357.70
467.42	355.45
467.78	353.09
468.15	350.99
468.52	349.40
468.88	347.20
469.25	345.27
469.62	343.75
469.98	342.19
470.35	340.61
470.72	339.14
471.08	337.48
471.45	336.22
471.82	335.04
472.18	333.67
472.55	332.63
472.92	331.34
473.28	330.22
473.65	329.11
474.02	328.06
474.38	327.18
474.75	326.32
475.11	325.50
475.48	324.77
475.85	324.12
476.21	323.35
476.58	322.89
476.94	322.45
477.31	321.99
477.67	321.50
478.04	321.16
478.41	320.87
478.77	321.17
479.14	320.96
479.50	320.80
479.87	320.79
480.23	320.87
480.60	320.75
480.96	320.80
481.33	321.04
481.69	321.20
482.06	321.45
482.42	321.76
482.79	322.13
483.15	322.60
483.52	323.15
483.88	323.64
484.25	324.11
484.61	324.79
484.98	325.47
485.34	326.48
485.71	327.46
486.07	328.45
486.44	328.96
486.80	330.06
487.17	331.30
487.53	332.68
487.90	334.01
488.26	335.77
488.62	337.45
488.99	339.14
489.35	341.00
489.72	342.79
490.08	344.70
490.44	346.84
490.81	349.09
491.17	351.38
491.54	353.84
491.90	356.51
492.26	359.19
492.63	361.97
492.99	364.65
493.36	367.64
493.72	371.07
494.08	374.52
494.45	378.33
494.81	382.20
495.17	385.99
495.54	390.16
495.90	394.36
496.26	398.90
496.63	403.49
496.99	408.23
497.35	413.33
497.72	418.73
498.08	424.06
498.44	429.78
498.80	435.74
499.17	441.88
499.53	448.02
499.89	454.71
500.26	461.52
500.62	468.60
500.98	476.10
501.34	483.49
501.71	491.28
502.07	498.88
502.43	506.99
502.79	515.56
503.16	524.40
503.52	533.48
503.88	542.63
504.24	552.45
504.60	562.65
504.97	573.02
505.33	583.38
505.69	594.57
506.05	605.56
506.41	616.77
506.78	628.45
507.14	640.58
507.50	652.86
507.86	665.62
508.22	678.79
508.59	691.93
508.95	705.56
509.31	719.82
509.67	734.24
510.03	748.49
510.39	763.24
510.75	778.14
511.12	793.26
511.48	809.00
511.84	824.64
512.20	840.50
512.56	856.72
512.92	873.53
513.28	890.34
513.64	907.52
514.00	925.25
514.37	943.21
514.73	961.59
515.09	979.79
515.45	998.35
515.81	1016.76
516.17	1035.52
516.53	1054.30
516.89	1073.00
517.25	1092.42
517.61	1112.85
517.97	1133.22
518.33	1153.48
518.69	1174.05
519.05	1194.54
519.41	1215.21
519.77	1236.34
520.13	1257.26
520.49	1278.18
520.85	1300.61
521.21	1322.04
521.57	1343.42
521.93	1364.02
522.29	1385.20
522.65	1406.13
523.01	1426.97
523.37	1447.76
523.73	1469.12
524.09	1489.77
524.45	1510.66
524.81	1531.58
525.17	1552.22
525.53	1572.77
525.89	1593.72
526.25	1614.68
526.61	1635.45
526.97	1656.70
527.33	1678.14
527.68	1700.25
528.04	1720.99
528.40	1740.46
528.76	1761.54
529.12	1781.74
529.48	1802.83
529.84	1822.96
530.20	1844.37
530.56	1865.33
530.91	1886.50
531.27	1906.74
531.63	1927.44
531.99	1948.30
532.35	1968.55
532.71	1988.63
533.07	2009.46
533.42	2029.37
533.78	2049.21
534.14	2069.00
534.50	2088.40
534.86	2107.38
535.21	2125.03
535.57	2144.48
535.93	2162.60
536.29	2180.51
536.65	2199.42
537.00	2217.13
537.36	2234.90
537.72	2251.49
538.08	2269.05
538.44	2285.93
538.79	2302.64
539.15	2319.75
539.51	2335.42
539.87	2350.87
540.22	2365.23
540.58	2379.51
540.94	2393.17
541.29	2405.82
541.65	2418.66
542.01	2431.18
542.37	2442.18
542.72	2453.32
543.08	2463.85
543.44	2475.60
543.79	2486.01
544.15	2495.44
544.51	2505.91
544.87	2515.87
545.22	2524.71
545.58	2532.13
545.94	2539.70
546.29	2546.50
546.65	2552.40
547.01	2558.26
547.36	2563.85
547.72	2569.51
548.07	2573.77
548.43	2579.10
548.79	2584.09
549.14	2588.52
549.50	2592.35
549.86	2596.58
550.21	2600.30
550.57	2603.73
550.92	2605.25
551.28	2606.66
551.64	2609.17
551.99	2610.89
552.35	2612.16
552.70	2613.94
553.06	2615.97
553.41	2616.82
553.77	2618.55
554.13	2620.37
554.48	2622.00
554.84	2623.37
555.19	2624.80
555.55	2626.28
555.90	2625.69
556.26	2625.43
556.61	2623.82
556.97	2621.86
557.32	2621.11
557.68	2620.27
558.03	2619.21
558.39	2618.22
558.74	2617.45
559.10	2614.44
559.45	2610.90
559.81	2606.95
560.16	2602.54
560.52	2597.74
560.87	2593.71
561.23	2588.19
561.58	2582.00
561.94	2575.39
562.29	2568.29
562.64	2561.30
563.00	2553.66
563.35	2547.24
563.71	2540.22
564.06	2534.42
564.42	2527.95
564.77	2521.36
565.12	2513.48
565.48	2505.54
565.83	2497.91
566.19	2489.96
566.54	2481.96
566.89	2473.91
567.25	2466.26
567.60	2458.59
567.96	2451.12
568.31	2442.91
568.66	2434.67
569.02	2426.23
569.37	2418.04
569.72	2410.33
570.08	2401.10
570.43	2391.31
570.78	2381.82
571.14	2372.54
571.49	2361.95
571.84	2352.51
572.20	2341.27
572.55	2331.50
572.90	2320.58
573.26	2309.80
573.61	2298.44
573.96	2287.42
574.31	2275.51
574.67	2263.49
575.02	2251.02
575.37	2238.22
575.72	2224.92
576.08	2212.38
576.43	2199.76
576.78	2186.60
577.13	2172.84
577.49	2160.24
577.84	2148.20
578.19	2136.21
578.54	2123.77
578.90	2111.85
579.25	2099.41
579.60	2086.82
579.95	2073.53
580.30	2060.38
580.66	2046.75
581.01	2033.18
581.36	2019.37
581.71	2006.72
582.06	1993.92
582.42	1981.37
582.77	1968.34
583.12	1956.32
583.47	1944.22
583.82	1931.93
584.17	1919.86
584.53	1908.18
584.88	1895.16
585.23	1882.07
585.58	1867.85
585.93	1854.18
586.28	1840.41
586.63	1826.33
586.98	1812.20
587.34	1799.30
587.69	1786.14
588.04	1773.86
588.39	1761.65
588.74	1749.12
589.09	1736.84
589.44	1723.56
589.79	1711.27
590.14	1699.61
590.49	1687.42
590.84	1675.20
591.19	1662.95
591.54	1650.49
591.89	1637.87
592.25	1627.33
592.60	1615.82
592.95	1604.61
593.30	1592.71
593.65	1580.97
594.00	1568.75
594.35	1558.66
594.70	1546.32
595.05	1534.70
595.40	1522.26
595.75	1510.30
596.10	1499.07
596.45	1487.55
596.80	1476.91
597.15	1465.43
597.50	1453.19
597.85	1441.76
598.19	1429.65
598.54	1418.15
598.89	1406.94
599.24	1396.45
599.59	1384.75
599.94	1373.65
600.29	1362.67
600.64	1352.05
600.99	1340.95
601.34	1331.38
601.69	1320.38
602.04	1310.28
602.39	1300.69
602.74	1291.33
603.08	1282.08
603.43	1272.71
603.78	1262.73
604.13	1253.02
604.48	1243.15
604.83	1233.65
605.18	1223.55
605.53	1214.17
605.87	1204.65
606.22	1195.97
606.57	1186.65
606.92	1177.00
607.27	1168.14
607.62	1159.62
607.96	1151.10
608.31	1143.22
608.66	1134.73
609.01	1125.78
609.36	1117.32
609.70	1108.42
610.05	1099.78
610.40	1090.89
610.75	1082.08
611.10	1073.66
611.44	1064.60
611.79	1056.20
612.14	1048.24
612.49	1040.33
612.83	1032.78
613.18	1025.05
613.53	1017.12
613.88	1008.89
614.22	1001.14
614.57	993.03
614.92	984.93
615.27	977.30
615.61	969.47
615.96	961.69
616.31	954.25
616.65	947.14
617.00	939.81
617.35	932.41
617.70	925.29
618.04	918.15
618.39	911.39
618.74	905.20
619.08	898.26
619.43	891.09
619.78	884.12
620.12	876.94
620.47	870.07
620.82	862.72
621.16	855.96
621.51	849.68
621.85	843.33
622.20	836.72
622.55	829.90
622.89	823.30
623.24	816.82
623.59	810.54
623.93	804.17
624.28	798.00
624.62	792.16
624.97	786.23
625.32	780.27
625.66	774.01
626.01	767.67
626.35	762.12
626.70	756.39
627.04	751.07
627.39	745.36
627.73	739.89
628.08	734.65
628.43	729.08
628.77	723.54
629.12	718.07
629.46	713.06
629.81	708.32
630.15	703.58
630.50	698.73
630.84	693.63
631.19	688.87
631.53	684.10
631.88	679.04
632.22	674.12
632.57	669.57
632.91	664.91
633.26	660.54
633.60	655.86
633.95	651.13
634.29	646.30
634.64	641.79
634.98	637.05
635.32	632.73
635.67	628.76
636.01	624.55
636.36	620.17
636.70	616.04
637.05	611.75
637.39	607.53
637.73	603.30
638.08	599.25
638.42	594.85
638.77	590.49
639.11	585.89
639.45	581.50
639.80	577.21
640.14	573.17
640.49	569.10
640.83	565.32
641.17	561.74
641.52	558.05
641.86	554.48
642.20	551.16
642.55	547.44
642.89	543.77
643.23	540.10
643.58	536.99
643.92	533.31
644.26	529.81
644.61	526.54
644.95	523.19
645.29	519.83
645.64	516.77
645.98	513.68
646.32	510.82
646.66	507.79
647.01	504.65
647.35	501.83
647.69	498.91
648.04	495.94
648.38	492.99
648.72	489.99
649.06	486.94
649.41	483.83
649.75	480.88
650.09	478.00
650.43	475.05
650.78	472.12
651.12	469.21
651.46	466.50
651.80	463.65
652.14	460.92
652.49	458.31
652.83	455.62
653.17	452.86
653.51	450.14
653.85	447.65
654.20	445.30
654.54	442.60
654.88	439.92
655.22	437.63
655.56	435.11
655.90	432.80
656.25	430.52
656.59	428.32
656.93	426.09
657.27	423.98
657.61	421.58
657.95	419.27
658.29	417.16
658.64	415.06
658.98	412.81
659.32	410.45
659.66	408.20
660.00	406.01
660.34	404.01
660.68	402.06
661.02	400.02
661.36	397.94
661.70	395.91
662.05	393.97
662.39	391.88
662.73	390.15
663.07	388.48
663.41	386.57
663.75	384.65
664.09	382.75
664.43	380.71
664.77	379.14
665.11	377.34
665.45	375.66
665.79	374.03
666.13	372.26
666.47	370.67
666.81	369.10
667.15	367.44
667.49	365.90
667.83	364.55
668.17	363.08
668.51	361.50
668.85	360.29
669.19	359.22
669.53	357.73
669.87	356.12
670.21	354.49
670.55	353.20
670.89	352.06
671.23	350.70
671.57	349.35
671.91	348.05
672.25	346.73
672.58	345.63
672.92	344.10
673.26	342.86
673.60	341.64
673.94	340.44
674.28	339.32
674.62	338.27
674.96	336.86
675.30	335.54
675.64	334.36
675.97	333.05
676.31	331.65
676.65	330.47
676.99	329.54
677.33	328.47
677.67	327.25
678.01	325.93
678.34	324.89
678.68	323.90
679.02	322.73
679.36	321.75
679.70	320.64
680.04	319.76
680.37	318.81
680.71	317.86
681.05	316.95
681.39	315.99
681.73	314.96
682.06	314.12
682.40	313.31
682.74	312.55
683.08	311.83
683.42	310.86
683.75	310.03
684.09	309.02
684.43	308.20
684.77	307.44
685.10	306.71
685.44	305.92
685.78	305.10
686.12	304.40
686.45	303.56
686.79	302.66
687.13	301.96
687.46	301.22
687.80	300.52
688.14	299.69
688.48	298.95
688.81	298.13
689.15	297.37
689.49	296.57
689.82	295.84
690.16	294.87
690.50	294.15
690.83	293.39
691.17	292.61
691.51	291.96
691.84	291.30
692.18	290.48
692.52	289.81
692.85	289.25
693.19	288.77
693.52	288.20
693.86	287.56
694.20	286.78
694.53	286.14
694.87	285.51
695.21	284.82
695.54	284.24
695.88	283.53
696.21	282.85
696.55	282.23
696.88	281.55
697.22	280.99
697.56	280.45
697.89	279.88
698.23	279.42
698.56	278.73
698.90	278.22
699.23	277.65
699.57	277.10
699.90	276.45
700.24	275.73
700.58	275.26
700.91	274.87
701.25	274.72
701.58	274.53
701.92	274.15
702.25	273.72
702.59	273.20
702.92	272.84
703.26	272.51
703.59	272.11
703.93	272.14
704.26	271.75
704.60	271.40
704.93	271.00
705.26	270.58
705.60	270.22
705.93	269.69
706.27	269.44
706.60	269.08
706.94	268.84
707.27	268.47
707.61	268.13
707.94	267.72
708.27	267.13
708.61	266.39
708.94	265.86
709.28	265.54
709.61	265.19
709.94	264.94
710.28	264.46
710.61	264.14
710.95	263.27
711.28	263.22
711.61	262.81
711.95	262.54
712.28	262.20
712.61	261.93
712.95	261.90
713.28	261.80
713.61	261.47
713.95	261.05
714.28	260.75
714.61	260.35
714.95	259.95
715.28	259.49
715.61	259.28
715.95	259.06
716.28	258.67
716.61	258.40
716.95	257.97
717.28	257.72
717.61	257.38
717.94	257.14
718.28	256.53
718.61	256.21
718.94	255.88
719.27	255.61
719.61	255.36
719.94	254.93
720.27	254.41
720.60	254.10
720.94	253.85
721.27	253.68
721.60	253.51
721.93	253.32
722.27	253.17
722.60	252.99
722.93	252.71
723.26	252.57
723.59	252.30
723.93	252.11
724.26	251.97
724.59	251.75
724.92	251.60
725.25	251.56
725.59	251.30
725.92	251.13
726.25	250.88
726.58	250.59
726.91	250.34
727.24	250.23
727.57	250.01
727.91	249.69
728.24	249.55
728.57	249.25
728.90	249.09
729.23	248.84
729.56	248.82
729.89	248.62
730.22	248.33
730.55	248.09
730.89	248.00
731.22	247.76
731.55	247.58
731.88	247.41
732.21	247.04
732.54	246.97
732.87	246.77
733.20	246.69
733.53	246.60
733.86	246.51
734.19	246.17
734.52	246.20
734.85	246.39
735.18	246.11
735.51	246.08
735.84	245.90
736.17	245.90
736.50	245.50
736.83	245.95
737.16	245.89
737.49	245.83
737.82	245.61
738.15	245.54
738.48	245.35
738.81	245.15
739.14	244.95
739.47	244.79
739.80	244.72
740.13	244.56
740.46	244.36
740.79	244.11
741.12	244.00
741.45	243.70
741.78	243.28
742.11	243.31
742.44	243.08
742.77	242.99
743.10	242.80
743.43	242.60
743.75	241.88
744.08	242.33
744.41	242.06
744.74	241.87
745.07	241.60
745.40	241.55
745.73	241.55
746.06	241.47
746.39	241.34
746.71	241.13
747.04	240.89
747.37	240.72
747.70	240.67
748.03	240.56
748.36	240.55
748.68	240.38
749.01	240.11
749.34	240.00
749.67	239.87
750.00	239.84
750.33	240.11
750.65	240.05
750.98	239.37
751.31	239.32
751.64	239.18
751.97	239.36
752.29	239.25
752.62	238.93
752.95	238.85
753.28	238.70
753.60	238.50
753.93	238.52
754.26	238.47
754.59	238.25
754.91	238.13
755.24	238.02
755.57	237.93
755.90	237.78
756.22	237.67
756.55	237.56
756.88	237.25
757.20	236.85
757.53	236.64
757.86	236.46
758.19	236.42
758.51	236.44
758.84	236.08
759.17	235.92
759.49	235.94
759.82	236.05
760.15	235.98
760.47	235.99
760.80	235.79
761.13	235.80
761.45	235.79
761.78	235.76
762.11	235.60
762.43	235.54
762.76	235.52
763.08	235.57
763.41	235.57
763.74	235.58
764.06	235.47
764.39	235.45
764.71	235.34
765.04	235.20
765.37	235.07
765.69	235.04
766.02	234.97
766.34	234.90
766.67	234.65
767.00	234.64
767.32	234.80
767.65	235.03
767.97	234.92
768.30	234.80
768.62	234.73
768.95	234.70
769.27	234.60
769.60	234.58
769.92	234.37
770.25	234.16
770.57	234.04
770.90	234.06
771.22	233.95
771.55	233.92
771.87	233.87
772.20	233.84
772.52	234.19
772.85	234.72
773.17	234.62
773.50	234.57
773.82	234.56
774.15	234.26
774.47	233.93
774.80	233.83
775.12	233.75
775.45	233.70
775.77	233.58
776.09	233.56
776.42	233.47
776.74	233.56
777.07	233.56
777.39	233.54
777.72	233.38
778.04	233.39
778.36	233.39
778.69	233.33
779.01	233.23
779.33	232.71
779.66	232.12
779.98	232.06
780.31	231.97
780.63	232.03
780.95	232.04
781.28	231.99
781.60	231.95
781.92	231.92
782.25	231.85
782.57	231.73
782.89	231.70
783.22	231.60
783.54	231.42
783.86	231.32
784.19	231.16
784.51	231.21
784.83	231.15
785.16	231.06
785.48	231.04
785.80	231.01
786.12	231.05
786.45	230.96
786.77	230.99
787.09	230.94
787.42	230.79
787.74	230.69
788.06	230.63
788.38	230.50
788.71	230.39
789.03	230.30
789.35	230.34
789.67	230.18
789.99	230.19
790.32	230.11
790.64	230.12
790.96	230.56
791.28	230.39
791.61	230.20
791.93	230.24
792.25	230.21
792.57	230.50
792.89	230.35
793.21	230.36
793.54	230.26
793.86	230.14
794.18	230.05
794.50	230.04
794.82	229.99
795.14	230.05
795.47	230.16
795.79	230.19
796.11	230.14
796.43	230.13
796.75	230.18
797.07	230.17
797.39	230.16
797.71	229.82
798.04	229.82
798.36	229.95
798.68	229.87
799.00	229.85
799.32	229.65
799.64	229.74
799.96	229.72
800.28	229.78
800.60	229.88
800.92	229.98
801.24	229.97
801.56	229.99
801.89	229.92
802.21	229.90
802.53	229.82
802.85	229.90
803.17	230.15
803.49	229.98
803.81	229.94
804.13	229.93
804.45	229.91
804.77	230.00
805.09	229.99
805.41	229.97
805.73	229.91
806.05	229.75
806.37	229.71
806.69	229.65
807.01	229.61
807.33	229.64
807.65	229.39
807.97	229.58
808.28	229.57
808.60	229.60
808.92	229.53
809.24	229.80
809.56	229.75
809.88	229.56
810.20	229.59
810.52	229.71
810.84	229.63
811.16	229.52
811.48	229.50
811.80	229.67
812.12	229.70
812.43	229.79
812.75	229.83
813.07	229.86
813.39	229.92
813.71	229.81
814.03	229.72
814.35	229.80
814.67	229.62
814.98	229.63
815.30	229.60
815.62	229.49
815.94	229.24
816.26	229.43
816.58	229.30
816.89	229.29
817.21	229.12
817.53	229.14
817.85	229.15
818.17	229.09
818.48	228.86
818.80	228.94
819.12	228.83
819.44	228.74
819.76	228.69
820.07	228.65
820.39	228.61
820.71	228.63
821.03	228.63
821.34	228.60
821.66	228.56
821.98	228.59
822.30	228.56
822.61	228.85
822.93	228.59
823.25	228.63
823.57	228.60
823.88	228.65
824.20	228.60
824.52	228.62
824.83	228.58
825.15	228.52
825.47	228.44
825.79	228.55
826.10	228.51
826.42	228.45
826.74	228.43
827.05	228.45
827.37	228.41
827.69	228.31
828.00	228.25
828.32	228.24
828.64	228.18
828.95	228.54
829.27	228.23
829.58	228.14
829.90	228.24
830.22	228.21
830.53	228.08
830.85	228.04
831.17	227.93
831.48	227.93
831.80	227.91
832.11	227.83
832.43	227.73
832.75	227.68
833.06	227.94
833.38	227.77
833.69	227.81
834.01	227.79
834.32	227.76
834.64	227.77
834.96	227.78
835.27	227.69
835.59	227.44
835.90	227.43
836.22	227.46
836.53	227.34
836.85	227.29
837.16	227.85
837.48	227.82
837.79	227.98
838.11	227.97
838.42	227.99
838.74	228.04
839.05	228.00
839.37	227.98
839.68	227.71
840.00	227.69
840.31	227.69
840.63	227.67
840.94	227.64
841.26	227.56
841.57	227.57
841.88	227.67
842.20	227.59
842.51	227.57
842.83	227.53
843.14	227.93
843.46	228.02
843.77	227.64
844.08	227.71
844.40	227.53
844.71	227.48
845.03	227.46
845.34	227.42
845.65	227.36
845.97	227.38
846.28	227.45
846.60	227.53
846.91	227.41
847.22	227.36
847.54	227.52
847.85	227.61
848.16	227.55
848.48	227.50
848.79	227.66
849.10	227.71
849.42	227.86
849.73	227.49
850.04	227.46
850.36	227.41
850.67	227.46
850.98	227.48
851.30	227.58
851.61	227.52
851.92	227.51
852.23	227.70
852.55	227.77
852.86	227.81
853.17	227.93
853.49	228.05
853.80	228.20
854.11	228.26
854.42	228.27
854.74	228.28
855.05	228.26
855.36	228.10
855.67	228.09
855.99	228.06
856.30	228.60
856.61	228.63
856.92	228.56
857.23	228.55
857.55	228.56
857.86	228.55
858.17	228.63
858.48	228.59
858.79	228.52
859.11	228.52
859.42	228.41
859.73	228.32
860.04	228.36
860.35	228.27
860.66	228.06
860.98	228.03
861.29	228.02
861.60	228.00
861.91	228.09
862.22	228.05
862.53	227.91
862.84	227.33
863.16	227.38
863.47	227.34
863.78	227.23
864.09	227.24
864.40	227.21
864.71	227.26
865.02	227.28
865.33	227.13
865.64	227.07
865.95	227.11
866.27	227.35
866.58	227.25
866.89	227.27
867.20	227.33
867.51	227.30
867.82	227.30
868.13	227.48
868.44	227.33
868.75	227.34
869.06	227.41
869.37	227.44
869.68	227.30
869.99	227.35
870.30	227.38
870.61	227.46
870.92	227.46
871.23	227.36
871.54	227.43
871.85	227.59
872.16	227.62
872.47	227.52
872.78	227.26
873.09	227.32
873.40	227.24
873.71	227.23
874.02	227.25
874.33	227.15
874.64	227.06
874.95	227.17
875.26	227.09
875.56	227.05
875.87	227.04
876.18	227.04
876.49	227.54
876.80	227.52
877.11	227.38
877.42	227.33
877.73	227.35
878.04	227.25
878.35	227.28
878.66	227.27
878.96	227.31
879.27	227.35
879.58	227.31
879.89	227.30
880.20	227.47
880.51	227.44
880.82	227.50
881.12	227.50
881.43	227.47
881.74	227.46
882.05	227.42
882.36	227.45
882.67	227.49
882.97	227.00
883.28	227.02
883.59	227.07
883.90	227.10
884.21	227.22
884.51	227.29
884.82	227.19
885.13	227.17
885.44	227.15
885.74	227.13
886.05	227.13
886.36	227.16
886.67	226.89
886.98	227.15
887.28	227.26
887.59	227.16
887.90	227.17
888.20	227.21
888.51	227.35
888.82	227.35
889.13	227.35
889.43	227.69
889.74	227.63
890.05	227.61
890.35	227.61
890.66	227.48
890.97	227.44
891.28	227.44
891.58	227.44
891.89	227.43
892.20	227.37
892.50	227.33
892.81	227.30
893.12	227.35
893.42	227.12
893.73	227.08
894.04	227.17
894.34	227.21
894.65	227.19
894.95	227.13
895.26	227.16
895.57	227.42
895.87	227.03
896.18	227.10
896.48	227.12
896.79	227.03
897.10	227.12
897.40	227.10
897.71	227.07
898.01	227.08
898.32	227.19
898.63	227.19
898.93	227.25
899.24	227.27
899.54	227.30
899.85	227.37
900.15	227.32
900.46	227.28
900.76	227.28
901.07	227.26
901.38	227.23
901.68	227.24
901.99	226.99
902.29	226.96
902.60	226.95
902.90	226.97
903.21	227.05
903.51	227.04
903.82	227.18
904.12	227.22
904.43	227.21
904.73	227.18
905.03	227.22
905.34	227.63
905.64	227.55
905.95	227.48
906.25	227.41
906.56	227.37
906.86	227.41
907.17	227.39
907.47	227.43
907.77	227.40
908.08	227.26
908.38	227.31
908.69	227.42
908.99	227.51
909.30	227.50
909.60	227.51
909.90	227.55
910.21	227.37
910.51	227.30
910.81	227.34
911.12	227.32
911.42	227.34
911.73	226.82
912.03	226.90
912.33	227.02
912.64	227.04
912.94	227.04
913.24	226.95
913.55	226.85
913.85	226.81
914.15	226.90
914.46	227.01
914.76	226.94
915.06	226.87
915.37	226.75
915.67	226.72
915.97	226.73
916.27	226.56
916.58	226.55
916.88	226.53
917.18	226.49
917.49	226.82
917.79	226.71
918.09	226.84
918.39	226.95
918.70	226.91
919.00	226.88
919.30	227.08
919.60	227.08
919.91	227.11
920.21	227.17
920.51	227.05
920.81	227.01
921.12	227.10
921.42	227.05
921.72	227.10
922.02	227.08
922.32	227.08
922.63	227.18
922.93	227.49
923.23	227.49
923.53	227.44
923.83	227.10
924.13	227.14
924.44	227.12
924.74	227.21
925.04	227.32
925.34	227.35
925.64	227.19
925.94	227.16
926.24	227.40
926.55	227.33
926.85	227.38
927.15	227.41
927.45	227.50
927.75	227.45
928.05	227.44
928.35	227.44
928.65	227.53
928.95	227.53
929.26	227.34
929.56	227.42
929.86	227.51
930.16	227.49
930.46	227.55
930.76	227.51
931.06	227.25
931.36	227.19
931.66	227.27
931.96	227.33
932.26	227.38
932.56	227.20
932.86	227.21
933.16	227.23
933.46	227.13
933.76	226.98
934.06	227.14
934.36	227.36
934.66	227.37
934.96	227.26
935.26	227.27
935.56	227.35
935.86	227.27
936.16	227.22
936.46	227.16
936.76	227.13
937.06	227.13
937.36	227.17
937.66	227.15
937.96	227.10
938.26	227.05
938.56	227.02
938.86	227.08
939.16	227.25
939.46	227.36
939.76	227.40
940.06	227.40
940.35	227.33
940.65	227.01
940.95	227.08
941.25	227.04
941.55	227.03
941.85	226.94
942.15	227.00
942.45	227.13
942.75	227.20
943.04	227.24
943.34	227.31
943.64	227.29
943.94	227.20
944.24	227.22
944.54	227.19
944.84	227.24
945.13	227.08
945.43	226.95
945.73	226.84
946.03	226.83
946.33	226.80
946.62	226.68
946.92	226.75
947.22	226.76
947.52	226.76
947.82	226.79
948.11	226.85
948.41	226.78
948.71	226.64
949.01	226.67
949.31	226.64
949.60	226.63
949.90	226.66
950.20	226.62
950.50	226.54
950.79	226.46
951.09	226.49
951.39	226.47
951.69	226.42
951.98	226.56
952.28	226.55
952.58	226.51
952.87	226.55
953.17	226.56
953.47	226.50
953.76	226.47
954.06	226.38
954.36	226.19
954.66	226.17
954.95	226.28
955.25	226.25
955.55	226.27
955.84	226.15
956.14	226.22
956.44	226.31
956.73	226.24
957.03	226.22
957.32	226.18
957.62	226.14
957.92	226.24
958.21	226.12
958.51	226.61
958.81	226.63
959.10	226.62
959.40	226.70
959.69	226.73
959.99	226.79
960.29	226.80
960.58	226.78
960.88	226.98
961.17	226.88
961.47	227.02
961.76	226.91
962.06	226.97
962.36	226.90
962.65	226.87
962.95	226.93
963.24	226.95
963.54	226.96
963.83	227.00
964.13	226.95
964.42	226.90
964.72	226.59
965.01	226.58
965.31	226.60
965.60	226.51
965.90	226.82
966.19	226.69
966.49	226.70
966.78	226.71
967.08	226.59
967.37	226.60
967.67	226.41
967.96	226.52
968.26	226.53
968.55	226.61
968.85	226.64
969.14	226.74
969.43	226.66
969.73	226.64
970.02	226.72
970.32	226.69
970.61	226.67
970.91	226.60
971.20	226.55
971.49	226.50
971.79	226.60
972.08	226.29
972.38	226.45
972.67	226.44
972.96	226.54
973.26	226.50
973.55	226.70
973.85	226.68
974.14	226.64
974.43	226.70
974.73	226.58
975.02	226.52
975.31	226.39
975.61	226.50
975.90	226.48
976.19	226.45
976.49	226.50
976.78	226.50
977.07	226.45
977.37	226.54
977.66	226.65
977.95	226.58
978.24	226.59
978.54	226.61
978.83	226.56
979.12	226.53
979.42	226.55
979.71	226.53
980.00	226.58
980.29	226.64
980.59	226.59
980.88	226.75
981.17	226.77
981.46	226.81
981.76	226.74
982.05	226.96
982.34	226.90
982.63	226.94
982.93	226.98
983.22	227.12
983.51	227.14
983.80	227.22
984.09	227.28
984.39	227.23
984.68	227.21
984.97	227.26
985.26	227.28
985.55	227.32
985.85	227.17
986.14	227.21
986.43	227.25
986.72	227.20
987.01	227.04
987.30	227.10
987.59	227.04
987.89	227.15
988.18	226.90
988.47	226.91
988.76	226.90
989.05	226.81
989.34	226.68
989.63	226.75
989.92	226.58
990.22	226.48
990.51	226.48
990.80	226.47
991.09	226.54
991.38	226.57
991.67	226.51
991.96	226.47
992.25	226.52
992.54	226.44
992.83	226.45
993.12	226.43
993.41	226.42
993.70	226.69
993.99	226.69
994.28	226.83
994.58	226.86
994.87	226.75
995.16	226.79
995.45	226.79
995.74	226.70
996.03	226.77
996.32	226.86
996.61	226.93
996.90	226.86
997.19	226.83
997.48	226.84
997.77	226.77
998.06	226.78
998.34	226.72
998.63	226.69
998.92	226.66
999.21	226.77
999.50	226.76
999.79	226.57
1000.08	226.64
1000.37	226.56
1000.66	226.50
1000.95	226.60
1001.24	226.56
1001.53	226.58
1001.82	226.49
1002.11	226.40
1002.40	226.43
1002.68	226.56
1002.97	226.93
1003.26	226.88
1003.55	226.78
1003.84	226.85
1004.13	227.02
1004.42	226.95
1004.71	226.94
1004.99	226.96
1005.28	227.04
1005.57	226.98
1005.86	226.85
1006.15	226.74
1006.44	226.71
1006.72	226.75
1007.01	226.66
1007.30	226.74
1007.59	226.66
1007.88	226.66
1008.17	226.74
1008.45	226.63
1008.74	226.42
1009.03	226.16
1009.32	226.15
1009.60	226.22
1009.89	226.15
1010.18	226.02
1010.47	226.02
1010.76	226.02
1011.04	225.99
1011.33	226.03
1011.62	226.06
1011.91	226.14
1012.19	226.16
1012.48	226.12
1012.77	226.10
1013.05	226.36
1013.34	226.36
1013.63	226.35
1013.92	226.45
1014.20	226.41
1014.49	226.38
1014.78	226.46
1015.06	226.30
1015.35	226.26
1015.64	226.28
1015.92	226.38
1016.21	226.32
1016.50	226.34
1016.78	226.42
1017.07	226.47
1017.36	226.35
1017.64	226.30
1017.93	226.36
1018.22	226.35
1018.50	226.43
1018.79	226.47
1019.08	226.27
1019.36	226.30
1019.65	226.33
1019.93	226.47
1020.22	226.52
1020.51	226.81
1020.79	226.79
1021.08	225.90
1021.36	226.70
1021.65	226.45
1021.94	226.85
1022.22	227.25
1022.51	226.20
1022.79	229.05
1023.08	226.85
1023.36	231.90
1023.65	226.70
>>>>>End Processed Spectral Data<<<<<
