SpectraSuite Data File
++++++++++++++++++++++++++++++++++++
Date: Wed Sep 04 17:54:54 EDT 2013
User: lab3
Dark Spectrum Present: Yes
Reference Spectrum Present: No
Number of Sampled Component Spectra: 1
Spectrometers: USB2E7196
Integration Time (usec): 170000 (USB2E7196)
Spectra Averaged: 20 (USB2E7196)
Boxcar Smoothing: 10 (USB2E7196)
Correct for Electrical Dark: No (USB2E7196)
Strobe/Lamp Enabled: No (USB2E7196)
Correct for Detector Non-linearity: No (USB2E7196)
Correct for Stray Light: No (USB2E7196)
Number of Pixels in Processed Spectrum: 2048
>>>>>Begin Processed Spectral Data<<<<<
339.09	0.00
339.48	214.55
339.86	213.70
340.24	216.35
340.63	217.65
341.01	226.65
341.39	219.30
341.78	223.00
342.16	225.05
342.54	224.15
342.93	212.56
343.31	223.27
343.69	223.71
344.07	224.21
344.46	224.68
344.84	225.11
345.22	225.00
345.60	225.34
345.99	225.50
346.37	225.54
346.75	225.56
347.13	225.64
347.52	225.82
347.90	226.03
348.28	226.08
348.66	226.12
349.05	225.96
349.43	226.02
349.81	226.09
350.19	226.15
350.57	226.20
350.96	226.26
351.34	226.35
351.72	226.53
352.10	226.64
352.48	226.62
352.87	226.65
353.25	226.77
353.63	226.80
354.01	226.82
354.39	226.92
354.77	227.06
355.15	227.21
355.54	227.12
355.92	227.01
356.30	227.05
356.68	227.54
357.06	227.66
357.44	227.71
357.82	227.75
358.20	228.16
358.58	228.18
358.97	228.19
359.35	228.35
359.73	228.41
360.11	228.46
360.49	228.66
360.87	228.70
361.25	228.79
361.63	228.97
362.01	229.02
362.39	229.02
362.77	229.10
363.15	229.17
363.53	229.28
363.91	229.40
364.29	229.46
364.67	229.00
365.05	228.98
365.43	229.04
365.81	229.11
366.19	229.05
366.57	229.29
366.95	229.34
367.33	229.27
367.71	229.32
368.09	229.42
368.47	229.35
368.85	229.36
369.23	229.48
369.61	229.34
369.99	229.53
370.37	229.59
370.75	229.80
371.13	229.69
371.51	229.65
371.89	229.64
372.27	229.67
372.65	229.62
373.03	229.65
373.41	229.60
373.78	229.55
374.16	229.22
374.54	228.99
374.92	228.87
375.30	228.83
375.68	228.66
376.06	228.66
376.44	228.54
376.82	228.47
377.19	228.37
377.57	228.29
377.95	228.10
378.33	228.05
378.71	227.69
379.09	227.72
379.47	227.66
379.84	227.52
380.22	227.33
380.60	227.27
380.98	227.19
381.36	227.14
381.73	227.03
382.11	227.06
382.49	227.08
382.87	226.98
383.25	226.91
383.62	227.41
384.00	227.20
384.38	227.29
384.76	227.29
385.13	227.40
385.51	227.38
385.89	227.33
386.27	227.32
386.64	227.34
387.02	227.17
387.40	227.13
387.78	227.16
388.15	227.18
388.53	227.10
388.91	227.12
389.29	227.12
389.66	227.19
390.04	227.03
390.42	227.06
390.79	227.12
391.17	227.05
391.55	226.59
391.92	226.63
392.30	226.61
392.68	226.60
393.05	226.62
393.43	226.58
393.81	226.49
394.18	226.39
394.56	226.45
394.94	226.65
395.31	226.62
395.69	226.85
396.06	226.95
396.44	227.08
396.82	227.01
397.19	227.28
397.57	227.23
397.95	227.42
398.32	227.33
398.70	227.42
399.07	227.61
399.45	227.65
399.82	227.69
400.20	227.66
400.58	227.76
400.95	227.64
401.33	227.86
401.70	228.32
402.08	228.48
402.45	228.63
402.83	228.80
403.20	228.98
403.58	229.00
403.95	229.26
404.33	229.46
404.71	229.71
405.08	230.07
405.46	230.35
405.83	230.64
406.21	230.89
406.58	231.20
406.96	231.44
407.33	231.73
407.70	232.10
408.08	232.87
408.45	233.30
408.83	233.76
409.20	234.15
409.58	234.32
409.95	234.86
410.33	235.37
410.70	235.80
411.08	236.44
411.45	237.10
411.82	237.70
412.20	238.45
412.57	239.36
412.95	239.78
413.32	240.65
413.69	241.44
414.07	242.47
414.44	243.41
414.82	244.50
415.19	245.78
415.56	247.02
415.94	248.01
416.31	249.43
416.68	250.88
417.06	252.50
417.43	254.20
417.81	255.94
418.18	257.77
418.55	259.68
418.93	261.70
419.30	263.80
419.67	265.99
420.04	268.22
420.42	270.52
420.79	273.55
421.16	276.30
421.54	279.37
421.91	282.30
422.28	285.37
422.66	288.50
423.03	291.89
423.40	295.19
423.77	298.70
424.15	302.23
424.52	305.93
424.89	310.04
425.26	313.95
425.64	317.64
426.01	321.73
426.38	326.06
426.75	330.73
427.13	335.28
427.50	339.99
427.87	344.86
428.24	349.82
428.61	354.35
428.99	359.72
429.36	365.15
429.73	370.60
430.10	376.15
430.47	381.83
430.85	387.49
431.22	393.65
431.59	400.43
431.96	406.68
432.33	413.74
432.70	420.49
433.08	428.23
433.45	435.66
433.82	442.96
434.19	451.26
434.56	459.10
434.93	466.75
435.30	474.56
435.68	483.14
436.05	491.63
436.42	499.95
436.79	507.61
437.16	515.91
437.53	524.63
437.90	533.42
438.27	541.98
438.64	550.81
439.01	559.02
439.38	566.25
439.75	573.43
440.13	581.32
440.50	588.79
440.87	594.90
441.24	601.39
441.61	608.49
441.98	613.45
442.35	619.50
442.72	625.40
443.09	631.09
443.46	634.48
443.83	636.71
444.20	638.58
444.57	641.27
444.94	642.46
445.31	643.73
445.68	645.13
446.05	645.33
446.42	643.99
446.79	642.65
447.16	641.02
447.53	639.75
447.90	636.10
448.27	632.51
448.64	627.72
449.01	624.03
449.37	617.92
449.74	611.98
450.11	605.01
450.48	597.30
450.85	589.35
451.22	582.66
451.59	576.05
451.96	569.76
452.33	561.65
452.70	554.30
453.07	545.53
453.43	536.30
453.80	528.02
454.17	520.02
454.54	512.37
454.91	504.15
455.28	496.13
455.65	488.71
456.02	481.75
456.38	475.44
456.75	467.64
457.12	460.98
457.49	454.66
457.86	448.34
458.23	443.27
458.59	437.56
458.96	431.68
459.33	426.62
459.70	421.61
460.07	417.49
460.43	412.76
460.80	408.57
461.17	404.90
461.54	400.87
461.91	397.12
462.27	393.20
462.64	390.02
463.01	386.50
463.38	383.17
463.74	379.14
464.11	376.08
464.48	373.44
464.85	370.66
465.21	368.49
465.58	366.12
465.95	363.30
466.32	361.15
466.68	358.99
467.05	356.74
467.42	354.55
467.78	352.24
468.15	350.06
468.52	348.41
468.88	346.09
469.25	344.21
469.62	342.80
469.98	341.22
470.35	339.72
470.72	338.25
471.08	336.55
471.45	335.32
471.82	334.07
472.18	332.57
472.55	331.56
472.92	330.24
473.28	329.11
473.65	328.04
474.02	326.93
474.38	326.05
474.75	325.31
475.11	324.39
475.48	323.69
475.85	323.10
476.21	322.36
476.58	321.80
476.94	321.37
477.31	320.76
477.67	320.35
478.04	319.93
478.41	319.71
478.77	319.97
479.14	319.69
479.50	319.53
479.87	319.63
480.23	319.66
480.60	319.67
480.96	319.66
481.33	319.97
481.69	320.20
482.06	320.38
482.42	320.68
482.79	321.01
483.15	321.52
483.52	322.14
483.88	322.74
484.25	323.37
484.61	324.00
484.98	324.80
485.34	325.73
485.71	326.79
486.07	327.81
486.44	328.39
486.80	329.44
487.17	330.63
487.53	332.07
487.90	333.49
488.26	335.20
488.62	336.88
488.99	338.43
489.35	340.18
489.72	342.09
490.08	344.00
490.44	346.03
490.81	348.15
491.17	350.31
491.54	352.70
491.90	355.33
492.26	358.16
492.63	360.97
492.99	363.85
493.36	366.88
493.72	370.11
494.08	373.61
494.45	377.45
494.81	381.38
495.17	385.13
495.54	389.26
495.90	393.50
496.26	397.90
496.63	402.54
496.99	407.34
497.35	412.49
497.72	417.80
498.08	423.19
498.44	428.80
498.80	434.98
499.17	440.95
499.53	447.08
499.89	453.49
500.26	460.19
500.62	467.20
500.98	474.53
501.34	482.11
501.71	489.87
502.07	497.63
502.43	505.75
502.79	514.16
503.16	522.82
503.52	531.77
503.88	541.10
504.24	550.80
504.60	560.81
504.97	570.97
505.33	581.43
505.69	592.66
506.05	603.86
506.41	614.91
506.78	626.75
507.14	638.86
507.50	651.30
507.86	663.84
508.22	676.69
508.59	689.81
508.95	703.38
509.31	717.45
509.67	731.68
510.03	745.96
510.39	760.67
510.75	775.73
511.12	791.05
511.48	806.68
511.84	822.37
512.20	838.47
512.56	854.59
512.92	871.21
513.28	887.83
513.64	905.10
514.00	922.52
514.37	940.18
514.73	958.25
515.09	976.32
515.45	994.68
515.81	1013.12
516.17	1031.76
516.53	1050.57
516.89	1069.15
517.25	1088.67
517.61	1108.77
517.97	1129.05
518.33	1148.82
518.69	1168.93
519.05	1189.43
519.41	1209.98
519.77	1230.77
520.13	1251.56
520.49	1272.16
520.85	1294.64
521.21	1315.82
521.57	1337.20
521.93	1357.92
522.29	1379.21
522.65	1399.97
523.01	1420.88
523.37	1441.44
523.73	1462.20
524.09	1482.48
524.45	1503.17
524.81	1523.79
525.17	1544.24
525.53	1564.98
525.89	1586.20
526.25	1606.87
526.61	1627.21
526.97	1648.14
527.33	1669.51
527.68	1691.32
528.04	1712.76
528.40	1732.21
528.76	1753.03
529.12	1773.45
529.48	1794.21
529.84	1813.96
530.20	1835.14
530.56	1856.06
530.91	1877.22
531.27	1897.97
531.63	1918.89
531.99	1939.51
532.35	1959.44
532.71	1979.82
533.07	2000.26
533.42	2020.14
533.78	2039.93
534.14	2059.68
534.50	2078.62
534.86	2097.88
535.21	2115.27
535.57	2133.47
535.93	2151.13
536.29	2168.75
536.65	2187.01
537.00	2205.09
537.36	2222.75
537.72	2239.20
538.08	2256.10
538.44	2272.40
538.79	2288.92
539.15	2305.37
539.51	2321.37
539.87	2336.73
540.22	2350.59
540.58	2365.07
540.94	2378.15
541.29	2390.94
541.65	2403.60
542.01	2416.32
542.37	2426.71
542.72	2437.88
543.08	2448.74
543.44	2460.86
543.79	2471.21
544.15	2481.00
544.51	2490.87
544.87	2500.71
545.22	2509.19
545.58	2517.01
545.94	2524.29
546.29	2530.47
546.65	2536.40
547.01	2542.16
547.36	2547.46
547.72	2553.11
548.07	2556.54
548.43	2561.78
548.79	2566.25
549.14	2570.49
549.50	2574.33
549.86	2578.04
550.21	2581.75
550.57	2584.87
550.92	2585.54
551.28	2586.66
551.64	2589.00
551.99	2590.57
552.35	2592.04
552.70	2594.22
553.06	2596.04
553.41	2597.40
553.77	2599.09
554.13	2600.95
554.48	2602.02
554.84	2603.62
555.19	2604.65
555.55	2606.36
555.90	2605.90
556.26	2604.95
556.61	2603.11
556.97	2600.70
557.32	2600.29
557.68	2599.45
558.03	2598.06
558.39	2596.83
558.74	2595.68
559.10	2592.40
559.45	2589.00
559.81	2584.65
560.16	2579.48
560.52	2574.59
560.87	2570.06
561.23	2564.46
561.58	2558.22
561.94	2551.62
562.29	2544.30
562.64	2537.30
563.00	2529.01
563.35	2522.00
563.71	2515.94
564.06	2509.60
564.42	2503.38
564.77	2496.73
565.12	2488.67
565.48	2481.01
565.83	2473.28
566.19	2465.18
566.54	2457.18
566.89	2449.06
567.25	2441.11
567.60	2434.00
567.96	2426.14
568.31	2418.20
568.66	2409.73
569.02	2400.70
569.37	2392.49
569.72	2385.09
570.08	2376.00
570.43	2366.88
570.78	2357.97
571.14	2348.33
571.49	2338.41
571.84	2328.72
572.20	2317.46
572.55	2307.50
572.90	2296.40
573.26	2286.17
573.61	2275.58
573.96	2264.13
574.31	2251.98
574.67	2240.33
575.02	2227.53
575.37	2214.86
575.72	2201.77
576.08	2190.10
576.43	2178.00
576.78	2164.80
577.13	2150.83
577.49	2138.33
577.84	2126.25
578.19	2114.35
578.54	2101.54
578.90	2089.69
579.25	2077.42
579.60	2065.16
579.95	2052.53
580.30	2039.80
580.66	2026.26
581.01	2012.60
581.36	1998.83
581.71	1986.46
582.06	1973.49
582.42	1961.16
582.77	1948.70
583.12	1936.88
583.47	1924.25
583.82	1912.02
584.17	1900.25
584.53	1888.60
584.88	1875.45
585.23	1862.25
585.58	1847.99
585.93	1835.26
586.28	1821.74
586.63	1807.85
586.98	1793.36
587.34	1779.85
587.69	1766.67
588.04	1754.16
588.39	1742.12
588.74	1730.19
589.09	1718.03
589.44	1705.27
589.79	1693.16
590.14	1681.49
590.49	1669.13
590.84	1657.15
591.19	1645.06
591.54	1632.51
591.89	1620.14
592.25	1609.90
592.60	1598.74
592.95	1587.46
593.30	1575.39
593.65	1563.61
594.00	1551.55
594.35	1541.68
594.70	1529.76
595.05	1518.01
595.40	1506.12
595.75	1494.14
596.10	1482.84
596.45	1471.33
596.80	1460.59
597.15	1449.02
597.50	1436.92
597.85	1425.71
598.19	1414.18
598.54	1402.62
598.89	1391.72
599.24	1381.11
599.59	1369.46
599.94	1358.44
600.29	1347.93
600.64	1337.59
600.99	1326.72
601.34	1317.02
601.69	1305.94
602.04	1296.14
602.39	1286.49
602.74	1277.18
603.08	1268.09
603.43	1258.77
603.78	1248.99
604.13	1239.18
604.48	1229.50
604.83	1220.03
605.18	1210.20
605.53	1200.61
605.87	1191.62
606.22	1182.93
606.57	1173.68
606.92	1164.22
607.27	1155.34
607.62	1146.60
607.96	1138.00
608.31	1130.14
608.66	1121.89
609.01	1113.46
609.36	1105.07
609.70	1096.70
610.05	1088.01
610.40	1079.25
610.75	1070.76
611.10	1062.33
611.44	1054.01
611.79	1046.02
612.14	1038.02
612.49	1030.13
612.83	1022.67
613.18	1014.82
613.53	1007.20
613.88	999.30
614.22	991.82
614.57	983.91
614.92	975.99
615.27	968.47
615.61	960.85
615.96	953.25
616.31	945.75
616.65	938.64
617.00	931.39
617.35	924.25
617.70	917.32
618.04	910.18
618.39	903.48
618.74	897.07
619.08	890.24
619.43	883.17
619.78	876.14
620.12	868.90
620.47	862.00
620.82	854.70
621.16	847.95
621.51	841.50
621.85	835.24
622.20	828.58
622.55	821.96
622.89	815.34
623.24	809.11
623.59	802.82
623.93	796.58
624.28	790.45
624.62	784.79
624.97	778.81
625.32	773.03
625.66	766.91
626.01	760.79
626.35	755.19
626.70	749.79
627.04	744.68
627.39	739.18
627.73	734.01
628.08	728.81
628.43	723.50
628.77	717.99
629.12	712.86
629.46	708.20
629.81	703.51
630.15	698.81
630.50	693.94
630.84	689.15
631.19	684.21
631.53	679.55
631.88	674.28
632.22	669.45
632.57	664.93
632.91	660.34
633.26	655.91
633.60	651.22
633.95	646.51
634.29	641.66
634.64	637.27
634.98	632.40
635.32	628.04
635.67	623.99
636.01	619.82
636.36	615.32
636.70	611.20
637.05	606.96
637.39	602.79
637.73	598.65
638.08	594.49
638.42	590.53
638.77	586.17
639.11	581.83
639.45	577.48
639.80	573.06
640.14	568.96
640.49	564.83
640.83	561.15
641.17	557.54
641.52	553.83
641.86	550.25
642.20	547.03
642.55	543.46
642.89	539.76
643.23	536.23
643.58	533.11
643.92	529.47
644.26	525.99
644.61	522.71
644.95	519.31
645.29	516.11
645.64	512.86
645.98	509.98
646.32	507.05
646.66	503.96
647.01	500.98
647.35	498.30
647.69	495.39
648.04	492.51
648.38	489.57
648.72	486.68
649.06	483.65
649.41	480.60
649.75	477.52
650.09	474.68
650.43	471.92
650.78	468.88
651.12	466.05
651.46	463.31
651.80	460.49
652.14	457.81
652.49	455.22
652.83	452.58
653.17	449.88
653.51	447.28
653.85	444.97
654.20	442.55
654.54	439.94
654.88	437.48
655.22	435.15
655.56	432.83
655.90	430.39
656.25	428.10
656.59	425.90
656.93	423.76
657.27	421.67
657.61	419.17
657.95	417.10
658.29	414.95
658.64	412.96
658.98	410.80
659.32	408.48
659.66	406.30
660.00	404.28
660.34	402.28
660.68	400.26
661.02	398.22
661.36	396.24
661.70	394.20
662.05	392.34
662.39	390.35
662.73	388.53
663.07	387.03
663.41	385.28
663.75	383.42
664.09	381.65
664.43	379.77
664.77	378.25
665.11	376.44
665.45	374.80
665.79	373.14
666.13	371.51
666.47	369.92
666.81	368.28
667.15	366.47
667.49	365.07
667.83	363.73
668.17	362.24
668.51	360.72
668.85	359.53
669.19	358.38
669.53	356.90
669.87	355.38
670.21	353.86
670.55	352.53
670.89	351.36
671.23	350.07
671.57	348.69
671.91	347.39
672.25	346.11
672.58	344.88
672.92	343.40
673.26	342.05
673.60	340.96
673.94	339.72
674.28	338.71
674.62	337.42
674.96	336.19
675.30	334.97
675.64	333.79
675.97	332.43
676.31	331.03
676.65	329.83
676.99	328.82
677.33	327.62
677.67	326.58
678.01	325.24
678.34	324.14
678.68	323.23
679.02	322.18
679.36	321.23
679.70	320.13
680.04	319.22
680.37	318.34
680.71	317.25
681.05	316.44
681.39	315.46
681.73	314.46
682.06	313.46
682.40	312.64
682.74	311.84
683.08	311.10
683.42	310.20
683.75	309.36
684.09	308.44
684.43	307.51
684.77	306.52
685.10	305.73
685.44	304.90
685.78	303.95
686.12	303.08
686.45	302.17
686.79	301.39
687.13	300.69
687.46	299.84
687.80	299.21
688.14	298.29
688.48	297.53
688.81	296.72
689.15	296.10
689.49	295.28
689.82	294.57
690.16	293.67
690.50	293.04
690.83	292.36
691.17	291.62
691.51	291.06
691.84	290.41
692.18	289.70
692.52	288.96
692.85	288.38
693.19	287.94
693.52	287.37
693.86	286.66
694.20	285.95
694.53	285.45
694.87	284.78
695.21	284.12
695.54	283.51
695.88	282.90
696.21	282.10
696.55	281.53
696.88	280.89
697.22	280.32
697.56	279.72
697.89	279.06
698.23	278.56
698.56	277.94
698.90	277.45
699.23	276.99
699.57	276.54
699.90	275.97
700.24	275.29
700.58	274.82
700.91	274.49
701.25	274.48
701.58	274.32
701.92	273.96
702.25	273.63
702.59	273.20
702.92	272.74
703.26	272.40
703.59	272.02
703.93	272.10
704.26	271.84
704.60	271.40
704.93	271.02
705.26	270.54
705.60	270.19
705.93	269.66
706.27	269.32
706.60	269.07
706.94	268.87
707.27	268.49
707.61	268.14
707.94	267.75
708.27	266.99
708.61	266.25
708.94	265.82
709.28	265.44
709.61	265.08
709.94	264.88
710.28	264.49
710.61	264.15
710.95	263.30
711.28	263.11
711.61	262.75
711.95	262.60
712.28	262.27
712.61	261.96
712.95	261.92
713.28	261.77
713.61	261.36
713.95	260.90
714.28	260.55
714.61	260.15
714.95	259.79
715.28	259.37
715.61	259.03
715.95	258.73
716.28	258.33
716.61	258.03
716.95	257.64
717.28	257.30
717.61	256.95
717.94	256.63
718.28	256.05
718.61	255.75
718.94	255.33
719.27	255.02
719.61	254.82
719.94	254.44
720.27	254.00
720.60	253.67
720.94	253.45
721.27	253.34
721.60	253.15
721.93	252.87
722.27	252.79
722.60	252.66
722.93	252.39
723.26	252.21
723.59	251.94
723.93	251.76
724.26	251.57
724.59	251.32
724.92	251.14
725.25	251.08
725.59	250.86
725.92	250.70
726.25	250.50
726.58	250.29
726.91	250.08
727.24	249.82
727.57	249.68
727.91	249.44
728.24	249.23
728.57	249.03
728.90	248.90
729.23	248.52
729.56	248.47
729.89	248.25
730.22	248.04
730.55	247.77
730.89	247.60
731.22	247.46
731.55	247.25
731.88	247.11
732.21	246.78
732.54	246.60
732.87	246.44
733.20	246.34
733.53	246.05
733.86	245.89
734.19	245.63
734.52	245.53
734.85	245.61
735.18	245.32
735.51	245.28
735.84	245.14
736.17	245.16
736.50	244.77
736.83	245.20
737.16	245.06
737.49	245.02
737.82	244.87
738.15	244.78
738.48	244.69
738.81	244.45
739.14	244.31
739.47	244.13
739.80	243.91
740.13	243.83
740.46	243.69
740.79	243.42
741.12	243.36
741.45	243.16
741.78	242.77
742.11	242.85
742.44	242.59
742.77	242.43
743.10	242.20
743.43	242.06
743.75	241.46
744.08	241.97
744.41	241.78
744.74	241.59
745.07	241.28
745.40	241.22
745.73	241.41
746.06	241.30
746.39	241.27
746.71	241.19
747.04	240.99
747.37	240.90
747.70	240.87
748.03	240.79
748.36	240.78
748.68	240.70
749.01	240.44
749.34	240.34
749.67	240.31
750.00	240.35
750.33	240.57
750.65	240.51
750.98	239.74
751.31	239.69
751.64	239.61
751.97	239.89
752.29	239.77
752.62	239.35
752.95	239.23
753.28	239.02
753.60	238.90
753.93	238.89
754.26	238.83
754.59	238.65
754.91	238.47
755.24	238.31
755.57	238.23
755.90	238.13
756.22	237.94
756.55	237.79
756.88	237.53
757.20	237.17
757.53	236.88
757.86	236.81
758.19	236.74
758.51	236.69
758.84	236.30
759.17	236.08
759.49	236.04
759.82	236.13
760.15	236.15
760.47	236.06
760.80	235.85
761.13	235.78
761.45	235.68
761.78	235.66
762.11	235.52
762.43	235.32
762.76	235.11
763.08	235.13
763.41	235.04
763.74	235.01
764.06	234.95
764.39	234.90
764.71	234.82
765.04	234.66
765.37	234.50
765.69	234.43
766.02	234.40
766.34	234.30
766.67	234.08
767.00	234.02
767.32	234.22
767.65	234.39
767.97	234.25
768.30	234.21
768.62	234.12
768.95	233.99
769.27	233.93
769.60	234.03
769.92	233.86
770.25	233.68
770.57	233.54
770.90	233.41
771.22	233.27
771.55	233.18
771.87	233.13
772.20	233.03
772.52	233.41
772.85	233.90
773.17	233.84
773.50	233.75
773.82	233.67
774.15	233.26
774.47	232.90
774.80	232.82
775.12	232.72
775.45	232.68
775.77	232.66
776.09	232.60
776.42	232.56
776.74	232.67
777.07	232.64
777.39	232.64
777.72	232.56
778.04	232.65
778.36	232.62
778.69	232.61
779.01	232.60
779.33	232.11
779.66	231.56
779.98	231.56
780.31	231.53
780.63	231.63
780.95	231.73
781.28	231.70
781.60	231.64
781.92	231.61
782.25	231.55
782.57	231.52
782.89	231.44
783.22	231.34
783.54	231.16
783.86	231.19
784.19	231.07
784.51	231.21
784.83	231.09
785.16	231.03
785.48	230.95
785.80	230.98
786.12	230.90
786.45	230.80
786.77	230.77
787.09	230.68
787.42	230.46
787.74	230.38
788.06	230.35
788.38	230.28
788.71	230.23
789.03	230.21
789.35	230.23
789.67	230.18
789.99	230.23
790.32	230.24
790.64	230.26
790.96	230.62
791.28	230.39
791.61	230.31
791.93	230.31
792.25	230.30
792.57	230.65
792.89	230.58
793.21	230.62
793.54	230.49
793.86	230.51
794.18	230.55
794.50	230.45
794.82	230.42
795.14	230.51
795.47	230.59
795.79	230.60
796.11	230.45
796.43	230.45
796.75	230.43
797.07	230.37
797.39	230.32
797.71	230.01
798.04	230.00
798.36	230.10
798.68	230.07
799.00	230.11
799.32	229.76
799.64	229.87
799.96	229.82
800.28	229.88
800.60	229.75
800.92	229.75
801.24	229.77
801.56	229.81
801.89	229.79
802.21	229.71
802.53	229.55
802.85	229.71
803.17	229.92
803.49	229.70
803.81	229.63
804.13	229.56
804.45	229.43
804.77	229.42
805.09	229.30
805.41	229.29
805.73	229.16
806.05	229.04
806.37	228.98
806.69	228.94
807.01	228.99
807.33	229.00
807.65	228.79
807.97	228.90
808.28	228.80
808.60	228.71
808.92	228.62
809.24	228.90
809.56	228.75
809.88	228.57
810.20	228.58
810.52	228.66
810.84	228.61
811.16	228.48
811.48	228.46
811.80	228.55
812.12	228.43
812.43	228.49
812.75	228.47
813.07	228.42
813.39	228.43
813.71	228.31
814.03	228.27
814.35	228.33
814.67	228.20
814.98	228.23
815.30	228.19
815.62	228.19
815.94	227.89
816.26	228.13
816.58	228.00
816.89	228.11
817.21	227.96
817.53	227.99
817.85	228.06
818.17	228.08
818.48	227.96
818.80	228.15
819.12	228.09
819.44	228.06
819.76	228.00
820.07	228.00
820.39	227.98
820.71	228.00
821.03	228.01
821.34	227.90
821.66	227.95
821.98	227.94
822.30	227.88
822.61	228.19
822.93	227.90
823.25	227.91
823.57	227.80
823.88	227.87
824.20	227.85
824.52	227.97
824.83	227.87
825.15	227.81
825.47	227.78
825.79	227.78
826.10	227.82
826.42	227.85
826.74	227.90
827.05	227.87
827.37	227.95
827.69	227.87
828.00	227.95
828.32	227.93
828.64	227.94
828.95	228.23
829.27	228.06
829.58	228.10
829.90	228.22
830.22	228.30
830.53	228.24
830.85	228.23
831.17	228.10
831.48	228.15
831.80	228.25
832.11	228.19
832.43	228.21
832.75	228.11
833.06	228.30
833.38	228.13
833.69	228.12
834.01	228.14
834.32	228.15
834.64	228.12
834.96	228.08
835.27	228.07
835.59	227.91
835.90	227.83
836.22	227.79
836.53	227.65
836.85	227.56
837.16	228.07
837.48	228.07
837.79	228.21
838.11	228.20
838.42	228.16
838.74	228.22
839.05	228.18
839.37	228.16
839.68	227.90
840.00	227.89
840.31	227.90
840.63	227.85
840.94	227.75
841.26	227.67
841.57	227.62
841.88	227.64
842.20	227.52
842.51	227.49
842.83	227.48
843.14	227.92
843.46	227.90
843.77	227.53
844.08	227.43
844.40	227.22
844.71	227.15
845.03	227.06
845.34	226.97
845.65	226.91
845.97	226.89
846.28	226.98
846.60	227.07
846.91	227.00
847.22	226.96
847.54	227.09
847.85	227.12
848.16	227.21
848.48	227.11
848.79	227.41
849.10	227.45
849.42	227.45
849.73	227.00
850.04	226.97
850.36	226.83
850.67	226.96
850.98	226.95
851.30	227.02
851.61	227.06
851.92	227.02
852.23	227.17
852.55	227.22
852.86	227.14
853.17	227.08
853.49	227.19
853.80	227.23
854.11	227.30
854.42	227.39
854.74	227.26
855.05	227.25
855.36	226.95
855.67	226.95
855.99	226.91
856.30	227.49
856.61	227.53
856.92	227.58
857.23	227.50
857.55	227.54
857.86	227.45
858.17	227.49
858.48	227.44
858.79	227.35
859.11	227.45
859.42	227.45
859.73	227.46
860.04	227.42
860.35	227.30
860.66	227.09
860.98	226.99
861.29	227.06
861.60	227.08
861.91	227.18
862.22	227.08
862.53	227.09
862.84	226.54
863.16	226.62
863.47	226.59
863.78	226.55
864.09	226.57
864.40	226.69
864.71	226.75
865.02	226.83
865.33	226.68
865.64	226.54
865.95	226.58
866.27	226.90
866.58	226.84
866.89	226.96
867.20	226.99
867.51	226.96
867.82	226.98
868.13	227.17
868.44	227.06
868.75	227.19
869.06	227.21
869.37	227.27
869.68	227.17
869.99	227.25
870.30	227.36
870.61	227.42
870.92	227.28
871.23	227.21
871.54	227.23
871.85	227.46
872.16	227.51
872.47	227.42
872.78	227.15
873.09	227.26
873.40	227.20
873.71	227.25
874.02	227.31
874.33	227.17
874.64	227.05
874.95	227.15
875.26	227.07
875.56	227.03
875.87	227.00
876.18	226.90
876.49	227.40
876.80	227.26
877.11	227.13
877.42	227.20
877.73	227.26
878.04	227.25
878.35	227.22
878.66	227.21
878.96	227.25
879.27	227.23
879.58	227.20
879.89	227.24
880.20	227.35
880.51	227.31
880.82	227.38
881.12	227.35
881.43	227.19
881.74	227.12
882.05	227.08
882.36	227.11
882.67	227.22
882.97	226.70
883.28	226.69
883.59	226.79
883.90	226.80
884.21	226.87
884.51	226.85
884.82	226.74
885.13	226.76
885.44	226.70
885.74	226.75
886.05	226.63
886.36	226.58
886.67	226.40
886.98	226.64
887.28	226.65
887.59	226.65
887.90	226.72
888.20	226.84
888.51	227.02
888.82	226.87
889.13	226.90
889.43	227.22
889.74	227.16
890.05	227.15
890.35	227.10
890.66	226.96
890.97	226.90
891.28	226.84
891.58	226.84
891.89	226.89
892.20	226.73
892.50	226.79
892.81	226.75
893.12	226.82
893.42	226.58
893.73	226.64
894.04	226.64
894.34	226.65
894.65	226.51
894.95	226.37
895.26	226.40
895.57	226.57
895.87	226.11
896.18	226.28
896.48	226.29
896.79	226.30
897.10	226.40
897.40	226.48
897.71	226.57
898.01	226.49
898.32	226.48
898.63	226.53
898.93	226.57
899.24	226.63
899.54	226.53
899.85	226.46
900.15	226.42
900.46	226.48
900.76	226.56
901.07	226.62
901.38	226.59
901.68	226.65
901.99	226.42
902.29	226.50
902.60	226.46
902.90	226.45
903.21	226.50
903.51	226.41
903.82	226.46
904.12	226.44
904.43	226.45
904.73	226.43
905.03	226.46
905.34	226.91
905.64	226.90
905.95	226.93
906.25	226.99
906.56	227.03
906.86	227.03
907.17	226.96
907.47	226.91
907.77	226.90
908.08	226.82
908.38	226.86
908.69	226.92
908.99	227.00
909.30	226.98
909.60	226.92
909.90	226.96
910.21	226.83
910.51	226.78
910.81	226.82
911.12	226.90
911.42	226.92
911.73	226.36
912.03	226.35
912.33	226.47
912.64	226.47
912.94	226.37
913.24	226.24
913.55	226.18
913.85	226.19
914.15	226.36
914.46	226.42
914.76	226.38
915.06	226.38
915.37	226.31
915.67	226.25
915.97	226.26
916.27	226.20
916.58	226.25
916.88	226.28
917.18	226.21
917.49	226.57
917.79	226.54
918.09	226.64
918.39	226.76
918.70	226.77
919.00	226.76
919.30	226.98
919.60	226.96
919.91	226.96
920.21	226.98
920.51	226.77
920.81	226.73
921.12	226.84
921.42	226.77
921.72	226.73
922.02	226.84
922.32	226.90
922.63	226.92
922.93	227.09
923.23	227.05
923.53	227.06
923.83	226.69
924.13	226.72
924.44	226.71
924.74	226.79
925.04	226.89
925.34	226.88
925.64	226.74
925.94	226.78
926.24	227.04
926.55	226.97
926.85	227.08
927.15	227.06
927.45	227.06
927.75	227.07
928.05	227.09
928.35	226.98
928.65	227.10
928.95	227.11
929.26	226.94
929.56	227.10
929.86	227.17
930.16	227.17
930.46	227.16
930.76	227.15
931.06	226.93
931.36	226.77
931.66	226.84
931.96	226.85
932.26	226.82
932.56	226.56
932.86	226.62
933.16	226.57
933.46	226.55
933.76	226.46
934.06	226.52
934.36	226.72
934.66	226.68
934.96	226.55
935.26	226.61
935.56	226.71
935.86	226.56
936.16	226.49
936.46	226.35
936.76	226.34
937.06	226.30
937.36	226.30
937.66	226.32
937.96	226.31
938.26	226.16
938.56	226.23
938.86	226.25
939.16	226.37
939.46	226.47
939.76	226.56
940.06	226.57
940.35	226.47
940.65	226.16
940.95	226.22
941.25	226.12
941.55	225.98
941.85	225.89
942.15	225.94
942.45	226.05
942.75	226.06
943.04	226.08
943.34	226.12
943.64	226.12
943.94	226.05
944.24	226.04
944.54	226.13
944.84	226.10
945.13	226.13
945.43	226.00
945.73	225.98
946.03	225.88
946.33	225.83
946.62	225.80
946.92	225.86
947.22	225.91
947.52	225.96
947.82	226.09
948.11	226.03
948.41	226.00
948.71	225.89
949.01	226.00
949.31	225.89
949.60	225.85
949.90	225.84
950.20	225.86
950.50	225.85
950.79	225.80
951.09	225.85
951.39	225.73
951.69	225.70
951.98	225.80
952.28	225.85
952.58	225.81
952.87	225.88
953.17	225.96
953.47	225.87
953.76	225.83
954.06	225.70
954.36	225.73
954.66	225.67
954.95	225.83
955.25	225.84
955.55	225.93
955.84	225.96
956.14	226.01
956.44	226.07
956.73	226.04
957.03	226.14
957.32	226.15
957.62	226.19
957.92	226.29
958.21	226.22
958.51	226.78
958.81	226.86
959.10	226.89
959.40	226.97
959.69	227.05
959.99	227.16
960.29	227.14
960.58	227.06
960.88	227.36
961.17	227.32
961.47	227.36
961.76	227.34
962.06	227.40
962.36	227.40
962.65	227.30
962.95	227.33
963.24	227.30
963.54	227.36
963.83	227.45
964.13	227.42
964.42	227.29
964.72	226.89
965.01	226.94
965.31	226.93
965.60	226.78
965.90	227.03
966.19	226.94
966.49	227.09
966.78	227.14
967.08	227.04
967.37	226.99
967.67	226.90
967.96	227.04
968.26	227.00
968.55	227.05
968.85	227.10
969.14	227.13
969.43	227.11
969.73	227.02
970.02	226.97
970.32	227.01
970.61	227.04
970.91	226.89
971.20	226.76
971.49	226.71
971.79	226.84
972.08	226.61
972.38	226.65
972.67	226.55
972.96	226.57
973.26	226.46
973.55	226.63
973.85	226.64
974.14	226.49
974.43	226.48
974.73	226.45
975.02	226.43
975.31	226.33
975.61	226.27
975.90	226.21
976.19	226.13
976.49	226.19
976.78	226.18
977.07	226.16
977.37	226.22
977.66	226.21
977.95	226.14
978.24	226.07
978.54	226.16
978.83	226.15
979.12	226.09
979.42	226.14
979.71	225.98
980.00	225.90
980.29	225.89
980.59	225.73
980.88	225.76
981.17	225.72
981.46	225.76
981.76	225.76
982.05	225.87
982.34	225.90
982.63	225.77
982.93	225.80
983.22	225.93
983.51	225.90
983.80	225.89
984.09	225.89
984.39	225.88
984.68	225.71
984.97	225.72
985.26	225.76
985.55	225.75
985.85	225.72
986.14	225.80
986.43	225.88
986.72	225.90
987.01	225.79
987.30	225.77
987.59	225.75
987.89	225.77
988.18	225.73
988.47	225.70
988.76	225.68
989.05	225.63
989.34	225.57
989.63	225.72
989.92	225.73
990.22	225.65
990.51	225.69
990.80	225.66
991.09	225.74
991.38	225.82
991.67	225.76
991.96	225.73
992.25	225.74
992.54	225.63
992.83	225.75
993.12	225.76
993.41	225.89
993.70	226.11
993.99	226.19
994.28	226.18
994.58	226.32
994.87	226.19
995.16	226.23
995.45	226.21
995.74	226.06
996.03	226.14
996.32	226.25
996.61	226.31
996.90	226.40
997.19	226.34
997.48	226.35
997.77	226.30
998.06	226.37
998.34	226.39
998.63	226.45
998.92	226.42
999.21	226.43
999.50	226.39
999.79	226.25
1000.08	226.22
1000.37	226.23
1000.66	226.13
1000.95	226.39
1001.24	226.37
1001.53	226.43
1001.82	226.45
1002.11	226.41
1002.40	226.50
1002.68	226.65
1002.97	226.94
1003.26	226.82
1003.55	226.72
1003.84	226.82
1004.13	226.98
1004.42	226.94
1004.71	226.98
1004.99	226.99
1005.28	227.12
1005.57	227.11
1005.86	227.01
1006.15	226.98
1006.44	226.94
1006.72	226.98
1007.01	226.89
1007.30	226.95
1007.59	226.86
1007.88	226.81
1008.17	226.78
1008.45	226.66
1008.74	226.40
1009.03	226.15
1009.32	226.26
1009.60	226.26
1009.89	226.15
1010.18	225.90
1010.47	225.95
1010.76	225.90
1011.04	225.90
1011.33	225.94
1011.62	225.98
1011.91	226.04
1012.19	226.04
1012.48	226.05
1012.77	226.00
1013.05	226.15
1013.34	226.11
1013.63	226.08
1013.92	226.16
1014.20	226.18
1014.49	226.20
1014.78	226.24
1015.06	226.20
1015.35	226.13
1015.64	226.13
1015.92	226.29
1016.21	226.34
1016.50	226.26
1016.78	226.33
1017.07	226.36
1017.36	226.21
1017.64	226.19
1017.93	226.20
1018.22	226.19
1018.50	226.14
1018.79	226.23
1019.08	226.03
1019.36	226.00
1019.65	226.02
1019.93	226.10
1020.22	226.16
1020.51	226.38
1020.79	226.41
1021.08	225.50
1021.36	224.55
1021.65	226.90
1021.94	225.55
1022.22	225.30
1022.51	225.25
1022.79	228.30
1023.08	227.15
1023.36	231.90
1023.65	226.25
>>>>>End Processed Spectral Data<<<<<
