SpectraSuite Data File
++++++++++++++++++++++++++++++++++++
Date: Wed Sep 04 18:00:07 EDT 2013
User: lab3
Dark Spectrum Present: Yes
Reference Spectrum Present: No
Number of Sampled Component Spectra: 1
Spectrometers: USB2E7196
Integration Time (usec): 170000 (USB2E7196)
Spectra Averaged: 20 (USB2E7196)
Boxcar Smoothing: 10 (USB2E7196)
Correct for Electrical Dark: No (USB2E7196)
Strobe/Lamp Enabled: No (USB2E7196)
Correct for Detector Non-linearity: No (USB2E7196)
Correct for Stray Light: No (USB2E7196)
Number of Pixels in Processed Spectrum: 2048
>>>>>Begin Processed Spectral Data<<<<<
339.09	0.00
339.48	213.65
339.86	214.65
340.24	216.40
340.63	218.40
341.01	226.80
341.39	219.30
341.78	223.00
342.16	224.90
342.54	223.40
342.93	212.66
343.31	223.40
343.69	223.95
344.07	224.44
344.46	224.97
344.84	225.39
345.22	225.34
345.60	225.72
345.99	225.90
346.37	225.95
346.75	226.08
347.13	226.09
347.52	226.11
347.90	226.30
348.28	226.32
348.66	226.45
349.05	226.37
349.43	226.51
349.81	226.66
350.19	226.73
350.57	226.82
350.96	226.95
351.34	227.06
351.72	227.12
352.10	227.25
352.48	227.22
352.87	227.25
353.25	227.33
353.63	227.30
354.01	227.31
354.39	227.41
354.77	227.50
355.15	227.70
355.54	227.73
355.92	227.64
356.30	227.77
356.68	228.17
357.06	228.29
357.44	228.28
357.82	228.28
358.20	228.74
358.58	228.71
358.97	228.75
359.35	228.92
359.73	229.04
360.11	229.10
360.49	229.25
360.87	229.24
361.25	229.33
361.63	229.54
362.01	229.64
362.39	229.60
362.77	229.68
363.15	229.71
363.53	229.80
363.91	229.84
364.29	229.84
364.67	229.37
365.05	229.39
365.43	229.49
365.81	229.62
366.19	229.53
366.57	229.81
366.95	229.89
367.33	229.75
367.71	229.79
368.09	229.89
368.47	229.81
368.85	229.79
369.23	229.89
369.61	229.76
369.99	229.97
370.37	230.06
370.75	230.26
371.13	230.09
371.51	230.00
371.89	230.05
372.27	230.00
372.65	230.03
373.03	229.98
373.41	229.84
373.78	229.71
374.16	229.38
374.54	229.07
374.92	228.97
375.30	228.97
375.68	228.81
376.06	228.76
376.44	228.62
376.82	228.63
377.19	228.49
377.57	228.36
377.95	228.05
378.33	227.90
378.71	227.52
379.09	227.55
379.47	227.52
379.84	227.44
380.22	227.30
380.60	227.18
380.98	227.11
381.36	227.05
381.73	226.91
382.11	226.99
382.49	226.98
382.87	226.86
383.25	226.74
383.62	227.20
384.00	227.02
384.38	227.03
384.76	227.03
385.13	227.15
385.51	227.12
385.89	227.01
386.27	227.02
386.64	227.02
387.02	226.96
387.40	226.95
387.78	226.96
388.15	227.01
388.53	226.94
388.91	226.83
389.29	226.77
389.66	226.82
390.04	226.69
390.42	226.73
390.79	226.78
391.17	226.72
391.55	226.25
391.92	226.26
392.30	226.31
392.68	226.20
393.05	226.21
393.43	226.22
393.81	226.29
394.18	226.24
394.56	226.24
394.94	226.37
395.31	226.34
395.69	226.51
396.06	226.60
396.44	226.71
396.82	226.72
397.19	227.05
397.57	227.11
397.95	227.13
398.32	227.15
398.70	227.30
399.07	227.57
399.45	227.57
399.82	227.60
400.20	227.62
400.58	227.75
400.95	227.65
401.33	227.87
401.70	228.29
402.08	228.39
402.45	228.61
402.83	228.78
403.20	228.90
403.58	228.89
403.95	229.14
404.33	229.35
404.71	229.68
405.08	230.06
405.46	230.24
405.83	230.57
406.21	230.80
406.58	231.06
406.96	231.26
407.33	231.72
407.70	232.10
408.08	232.87
408.45	233.29
408.83	233.81
409.20	234.17
409.58	234.36
409.95	235.00
410.33	235.46
410.70	235.85
411.08	236.55
411.45	237.28
411.82	237.78
412.20	238.55
412.57	239.51
412.95	239.89
413.32	240.79
413.69	241.63
414.07	242.50
414.44	243.50
414.82	244.48
415.19	245.67
415.56	246.86
415.94	247.87
416.31	249.31
416.68	250.71
417.06	252.35
417.43	253.98
417.81	255.70
418.18	257.57
418.55	259.56
418.93	261.54
419.30	263.55
419.67	265.85
420.04	268.05
420.42	270.40
420.79	273.51
421.16	276.24
421.54	279.19
421.91	282.22
422.28	285.22
422.66	288.54
423.03	291.93
423.40	295.35
423.77	298.94
424.15	302.46
424.52	306.31
424.89	310.49
425.26	314.49
425.64	318.27
426.01	322.53
426.38	326.99
426.75	331.55
427.13	336.16
427.50	340.93
427.87	345.92
428.24	350.72
428.61	355.25
428.99	360.69
429.36	366.31
429.73	371.85
430.10	377.53
430.47	383.24
430.85	388.95
431.22	395.25
431.59	402.12
431.96	408.49
432.33	415.41
432.70	422.15
433.08	430.05
433.45	437.44
433.82	444.65
434.19	452.88
434.56	461.01
434.93	468.71
435.30	476.58
435.68	485.34
436.05	493.96
436.42	502.27
436.79	510.01
437.16	518.52
437.53	527.47
437.90	536.25
438.27	544.94
438.64	553.94
439.01	562.17
439.38	569.31
439.75	576.56
440.13	584.46
440.50	591.95
440.87	598.12
441.24	604.56
441.61	611.73
441.98	616.90
442.35	622.75
442.72	628.92
443.09	634.73
443.46	638.03
443.83	640.28
444.20	642.38
444.57	645.17
444.94	646.11
445.31	647.06
445.68	648.42
446.05	648.58
446.42	647.15
446.79	645.80
447.16	644.12
447.53	642.74
447.90	639.15
448.27	635.40
448.64	630.43
449.01	626.79
449.37	620.55
449.74	614.43
450.11	607.54
450.48	599.68
450.85	591.48
451.22	584.53
451.59	577.95
451.96	571.65
452.33	563.42
452.70	556.07
453.07	547.42
453.43	538.21
453.80	529.79
454.17	521.68
454.54	513.81
454.91	505.55
455.28	497.54
455.65	490.16
456.02	483.52
456.38	477.12
456.75	469.37
457.12	462.76
457.49	456.28
457.86	449.85
458.23	444.69
458.59	439.14
458.96	433.37
459.33	428.20
459.70	422.90
460.07	418.70
460.43	413.80
460.80	409.46
461.17	405.70
461.54	401.58
461.91	397.87
462.27	394.03
462.64	390.90
463.01	387.26
463.38	383.75
463.74	379.58
464.11	376.60
464.48	373.97
464.85	371.12
465.21	369.05
465.58	366.83
465.95	363.85
466.32	361.57
466.68	359.30
467.05	357.11
467.42	354.91
467.78	352.62
468.15	350.68
468.52	349.08
468.88	346.85
469.25	344.97
469.62	343.36
469.98	341.77
470.35	340.17
470.72	338.77
471.08	337.08
471.45	335.88
471.82	334.65
472.18	333.13
472.55	332.16
472.92	330.85
473.28	329.64
473.65	328.60
474.02	327.49
474.38	326.64
474.75	325.84
475.11	324.93
475.48	324.28
475.85	323.70
476.21	323.14
476.58	322.66
476.94	322.32
477.31	321.92
477.67	321.44
478.04	321.19
478.41	321.00
478.77	321.40
479.14	321.09
479.50	320.90
479.87	320.89
480.23	320.96
480.60	320.88
480.96	320.89
481.33	321.28
481.69	321.44
482.06	321.75
482.42	322.04
482.79	322.47
483.15	322.97
483.52	323.47
483.88	323.86
484.25	324.33
484.61	325.03
484.98	325.69
485.34	326.66
485.71	327.56
486.07	328.50
486.44	329.19
486.80	330.30
487.17	331.43
487.53	332.74
487.90	334.06
488.26	335.75
488.62	337.45
488.99	338.96
489.35	340.85
489.72	342.70
490.08	344.61
490.44	346.61
490.81	348.79
491.17	351.08
491.54	353.67
491.90	356.30
492.26	358.85
492.63	361.70
492.99	364.58
493.36	367.71
493.72	370.90
494.08	374.28
494.45	377.95
494.81	381.94
495.17	385.98
495.54	390.21
495.90	394.42
496.26	399.01
496.63	403.77
496.99	408.51
497.35	413.62
497.72	418.98
498.08	424.47
498.44	430.05
498.80	436.06
499.17	442.00
499.53	448.28
499.89	455.07
500.26	461.88
500.62	469.03
500.98	476.40
501.34	483.95
501.71	491.74
502.07	499.55
502.43	507.66
502.79	516.02
503.16	524.71
503.52	533.82
503.88	543.08
504.24	552.85
504.60	562.98
504.97	573.19
505.33	583.70
505.69	594.79
506.05	605.99
506.41	617.17
506.78	628.86
507.14	640.98
507.50	653.38
507.86	666.00
508.22	678.78
508.59	691.84
508.95	705.67
509.31	719.78
509.67	734.31
510.03	748.67
510.39	763.56
510.75	778.60
511.12	793.91
511.48	809.39
511.84	825.08
512.20	840.90
512.56	857.24
512.92	873.91
513.28	890.69
513.64	908.10
514.00	925.67
514.37	943.52
514.73	961.67
515.09	979.78
515.45	998.44
515.81	1017.03
516.17	1035.95
516.53	1054.57
516.89	1073.36
517.25	1092.53
517.61	1112.71
517.97	1132.93
518.33	1153.06
518.69	1173.29
519.05	1194.00
519.41	1214.67
519.77	1236.18
520.13	1257.05
520.49	1277.90
520.85	1300.40
521.21	1321.54
521.57	1343.05
521.93	1363.77
522.29	1385.05
522.65	1406.00
523.01	1426.93
523.37	1447.87
523.73	1469.01
524.09	1489.64
524.45	1510.67
524.81	1531.68
525.17	1552.35
525.53	1573.05
525.89	1593.80
526.25	1614.87
526.61	1635.37
526.97	1656.67
527.33	1677.84
527.68	1700.01
528.04	1721.41
528.40	1741.17
528.76	1762.16
529.12	1782.54
529.48	1803.75
529.84	1823.91
530.20	1845.04
530.56	1866.14
530.91	1886.92
531.27	1907.39
531.63	1928.20
531.99	1948.93
532.35	1969.19
532.71	1989.65
533.07	2010.19
533.42	2030.23
533.78	2050.07
534.14	2070.04
534.50	2089.34
534.86	2108.38
535.21	2125.82
535.57	2144.70
535.93	2162.57
536.29	2180.61
536.65	2198.90
537.00	2216.46
537.36	2234.40
537.72	2251.12
538.08	2268.20
538.44	2284.96
538.79	2301.66
539.15	2318.20
539.51	2333.98
539.87	2349.51
540.22	2363.95
540.58	2378.38
540.94	2392.00
541.29	2404.87
541.65	2417.75
542.01	2430.31
542.37	2441.15
542.72	2452.45
543.08	2462.89
543.44	2474.92
543.79	2485.20
544.15	2495.04
544.51	2505.21
544.87	2514.63
545.22	2523.45
545.58	2531.25
545.94	2538.64
546.29	2545.20
546.65	2551.53
547.01	2557.47
547.36	2563.02
547.72	2568.32
548.07	2572.51
548.43	2578.32
548.79	2583.09
549.14	2587.07
549.50	2590.82
549.86	2595.25
550.21	2598.63
550.57	2602.03
550.92	2603.21
551.28	2604.41
551.64	2606.84
551.99	2608.85
552.35	2610.79
552.70	2612.86
553.06	2614.51
553.41	2615.73
553.77	2617.43
554.13	2619.35
554.48	2620.84
554.84	2622.52
555.19	2623.52
555.55	2625.41
555.90	2624.40
556.26	2623.66
556.61	2622.18
556.97	2620.05
557.32	2619.17
557.68	2618.19
558.03	2616.83
558.39	2615.59
558.74	2614.92
559.10	2612.03
559.45	2608.54
559.81	2603.60
560.16	2598.60
560.52	2593.84
560.87	2589.52
561.23	2584.23
561.58	2578.20
561.94	2571.21
562.29	2563.65
562.64	2557.05
563.00	2548.52
563.35	2542.16
563.71	2535.56
564.06	2529.68
564.42	2523.36
564.77	2516.53
565.12	2509.05
565.48	2500.81
565.83	2493.11
566.19	2485.13
566.54	2477.20
566.89	2468.97
567.25	2461.70
567.60	2454.35
567.96	2446.59
568.31	2438.66
568.66	2430.00
569.02	2421.20
569.37	2413.29
569.72	2405.52
570.08	2395.91
570.43	2386.55
570.78	2377.40
571.14	2367.80
571.49	2357.38
571.84	2347.48
572.20	2336.33
572.55	2326.53
572.90	2315.92
573.26	2305.43
573.61	2294.10
573.96	2282.87
574.31	2270.86
574.67	2258.98
575.02	2246.29
575.37	2233.61
575.72	2220.29
576.08	2207.84
576.43	2195.33
576.78	2181.99
577.13	2167.97
577.49	2155.43
577.84	2143.50
578.19	2131.05
578.54	2118.37
578.90	2106.19
579.25	2094.04
579.60	2081.64
579.95	2068.61
580.30	2055.70
580.66	2042.11
581.01	2028.45
581.36	2014.28
581.71	2001.82
582.06	1988.87
582.42	1976.24
582.77	1963.54
583.12	1951.68
583.47	1939.65
583.82	1927.48
584.17	1915.53
584.53	1903.95
584.88	1890.85
585.23	1877.51
585.58	1863.25
585.93	1850.01
586.28	1836.44
586.63	1822.02
586.98	1807.82
587.34	1794.04
587.69	1780.71
588.04	1767.80
588.39	1755.78
588.74	1743.38
589.09	1731.07
589.44	1717.93
589.79	1705.65
590.14	1693.84
590.49	1681.66
590.84	1669.30
591.19	1657.12
591.54	1644.67
591.89	1632.53
592.25	1622.18
592.60	1610.97
592.95	1599.44
593.30	1587.44
593.65	1575.56
594.00	1563.68
594.35	1553.81
594.70	1542.26
595.05	1530.52
595.40	1518.72
595.75	1506.65
596.10	1495.72
596.45	1484.03
596.80	1473.24
597.15	1461.78
597.50	1449.78
597.85	1438.11
598.19	1426.23
598.54	1414.33
598.89	1403.15
599.24	1392.31
599.59	1380.63
599.94	1369.61
600.29	1359.16
600.64	1348.88
600.99	1338.06
601.34	1328.68
601.69	1317.35
602.04	1307.26
602.39	1297.80
602.74	1288.51
603.08	1279.07
603.43	1269.66
603.78	1259.88
604.13	1250.22
604.48	1240.68
604.83	1230.93
605.18	1221.17
605.53	1211.80
605.87	1202.65
606.22	1193.91
606.57	1184.48
606.92	1174.96
607.27	1165.79
607.62	1157.14
607.96	1148.45
608.31	1140.45
608.66	1131.81
609.01	1123.11
609.36	1114.43
609.70	1105.81
610.05	1096.89
610.40	1088.38
610.75	1079.33
611.10	1071.02
611.44	1062.26
611.79	1053.93
612.14	1046.00
612.49	1038.08
612.83	1030.40
613.18	1022.45
613.53	1014.64
613.88	1006.71
614.22	999.13
614.57	991.24
614.92	983.15
615.27	975.45
615.61	967.75
615.96	959.93
616.31	952.37
616.65	945.29
617.00	937.74
617.35	930.39
617.70	923.15
618.04	916.09
618.39	909.08
618.74	902.68
619.08	895.71
619.43	888.64
619.78	881.49
620.12	874.46
620.47	867.57
620.82	860.24
621.16	853.34
621.51	847.00
621.85	840.59
622.20	833.89
622.55	827.25
622.89	820.73
623.24	814.33
623.59	807.81
623.93	801.48
624.28	795.28
624.62	789.70
624.97	783.77
625.32	777.85
625.66	771.76
626.01	765.53
626.35	759.96
626.70	754.48
627.04	749.30
627.39	743.65
627.73	738.41
628.08	733.02
628.43	727.54
628.77	721.66
629.12	716.48
629.46	711.70
629.81	706.86
630.15	701.97
630.50	697.25
630.84	692.46
631.19	687.58
631.53	683.02
631.88	677.68
632.22	672.68
632.57	668.33
632.91	663.78
633.26	659.57
633.60	654.88
633.95	650.01
634.29	645.09
634.64	640.59
634.98	635.65
635.32	631.38
635.67	627.34
636.01	623.20
636.36	618.74
636.70	614.70
637.05	610.50
637.39	606.27
637.73	601.96
638.08	597.84
638.42	593.61
638.77	589.32
639.11	584.98
639.45	580.85
639.80	576.46
640.14	572.34
640.49	568.02
640.83	564.13
641.17	560.50
641.52	556.74
641.86	553.12
642.20	549.95
642.55	546.34
642.89	542.64
643.23	539.17
643.58	535.99
643.92	532.16
644.26	528.68
644.61	525.48
644.95	522.04
645.29	518.61
645.64	515.44
645.98	512.25
646.32	509.36
646.66	506.22
647.01	503.19
647.35	500.29
647.69	497.49
648.04	494.65
648.38	491.67
648.72	488.75
649.06	485.65
649.41	482.52
649.75	479.36
650.09	476.46
650.43	473.67
650.78	470.73
651.12	468.05
651.46	465.29
651.80	462.53
652.14	459.91
652.49	457.52
652.83	454.98
653.17	452.37
653.51	449.55
653.85	446.98
654.20	444.49
654.54	441.94
654.88	439.30
655.22	436.95
655.56	434.45
655.90	432.21
656.25	430.03
656.59	427.78
656.93	425.71
657.27	423.67
657.61	421.24
657.95	418.89
658.29	416.65
658.64	414.47
658.98	412.19
659.32	409.88
659.66	407.65
660.00	405.45
660.34	403.35
660.68	401.50
661.02	399.65
661.36	397.68
661.70	395.59
662.05	393.65
662.39	391.63
662.73	389.95
663.07	388.26
663.41	386.35
663.75	384.41
664.09	382.59
664.43	380.59
664.77	378.89
665.11	377.16
665.45	375.43
665.79	373.76
666.13	372.10
666.47	370.48
666.81	368.71
667.15	367.00
667.49	365.56
667.83	364.20
668.17	362.56
668.51	360.97
668.85	359.71
669.19	358.59
669.53	357.03
669.87	355.43
670.21	353.82
670.55	352.47
670.89	351.31
671.23	349.88
671.57	348.54
671.91	347.20
672.25	345.81
672.58	344.65
672.92	343.22
673.26	341.91
673.60	340.67
673.94	339.54
674.28	338.38
674.62	337.11
674.96	335.77
675.30	334.69
675.64	333.58
675.97	332.30
676.31	330.83
676.65	329.63
676.99	328.74
677.33	327.54
677.67	326.44
678.01	325.13
678.34	324.09
678.68	323.11
679.02	322.03
679.36	321.14
679.70	320.12
680.04	319.17
680.37	318.13
680.71	317.06
681.05	316.12
681.39	315.25
681.73	314.25
682.06	313.32
682.40	312.36
682.74	311.53
683.08	310.84
683.42	309.97
683.75	309.21
684.09	308.13
684.43	307.39
684.77	306.49
685.10	305.71
685.44	304.88
685.78	303.98
686.12	303.19
686.45	302.37
686.79	301.49
687.13	300.82
687.46	300.16
687.80	299.63
688.14	298.88
688.48	298.12
688.81	297.39
689.15	296.81
689.49	296.08
689.82	295.39
690.16	294.45
690.50	293.79
690.83	293.01
691.17	292.35
691.51	291.63
691.84	291.11
692.18	290.40
692.52	289.70
692.85	289.19
693.19	288.71
693.52	288.04
693.86	287.38
694.20	286.75
694.53	286.16
694.87	285.46
695.21	284.87
695.54	284.29
695.88	283.61
696.21	282.81
696.55	282.25
696.88	281.60
697.22	281.05
697.56	280.58
697.89	280.11
698.23	279.58
698.56	279.08
698.90	278.62
699.23	278.03
699.57	277.60
699.90	276.99
700.24	276.35
700.58	275.97
700.91	275.53
701.25	275.43
701.58	275.25
701.92	274.85
702.25	274.33
702.59	273.80
702.92	273.45
703.26	273.11
703.59	272.66
703.93	272.65
704.26	272.20
704.60	271.72
704.93	271.18
705.26	270.72
705.60	270.31
705.93	269.70
706.27	269.50
706.60	269.17
706.94	268.94
707.27	268.63
707.61	268.23
707.94	267.96
708.27	267.17
708.61	266.47
708.94	266.06
709.28	265.73
709.61	265.35
709.94	265.04
710.28	264.62
710.61	264.25
710.95	263.39
711.28	263.42
711.61	263.04
711.95	262.86
712.28	262.50
712.61	262.17
712.95	262.13
713.28	261.97
713.61	261.57
713.95	261.15
714.28	260.74
714.61	260.30
714.95	259.89
715.28	259.51
715.61	259.17
715.95	258.83
716.28	258.50
716.61	258.26
716.95	257.83
717.28	257.54
717.61	257.18
717.94	256.96
718.28	256.25
718.61	255.95
718.94	255.58
719.27	255.33
719.61	254.97
719.94	254.48
720.27	254.01
720.60	253.69
720.94	253.48
721.27	253.34
721.60	253.23
721.93	252.88
722.27	252.87
722.60	252.80
722.93	252.55
723.26	252.29
723.59	252.04
723.93	251.99
724.26	251.74
724.59	251.54
724.92	251.34
725.25	251.31
725.59	251.10
725.92	250.99
726.25	250.82
726.58	250.79
726.91	250.64
727.24	250.51
727.57	250.35
727.91	250.04
728.24	249.89
728.57	249.63
728.90	249.62
729.23	249.30
729.56	249.25
729.89	249.04
730.22	248.94
730.55	248.76
730.89	248.56
731.22	248.43
731.55	248.29
731.88	248.16
732.21	247.91
732.54	247.70
732.87	247.45
733.20	247.28
733.53	247.11
733.86	247.02
734.19	246.80
734.52	246.73
734.85	246.92
735.18	246.65
735.51	246.65
735.84	246.45
736.17	246.38
736.50	245.95
736.83	246.43
737.16	246.25
737.49	246.07
737.82	245.88
738.15	245.77
738.48	245.61
738.81	245.38
739.14	245.19
739.47	245.06
739.80	244.96
740.13	244.82
740.46	244.62
740.79	244.33
741.12	244.15
741.45	243.97
741.78	243.58
742.11	243.61
742.44	243.34
742.77	243.31
743.10	243.12
743.43	242.99
743.75	242.33
744.08	242.80
744.41	242.63
744.74	242.46
745.07	242.24
745.40	242.18
745.73	242.35
746.06	242.24
746.39	242.12
746.71	242.02
747.04	241.88
747.37	241.64
747.70	241.60
748.03	241.52
748.36	241.45
748.68	241.30
749.01	240.97
749.34	240.89
749.67	240.66
750.00	240.62
750.33	240.88
750.65	240.72
750.98	239.95
751.31	239.86
751.64	239.76
751.97	239.85
752.29	239.68
752.62	239.28
752.95	239.10
753.28	239.01
753.60	238.84
753.93	238.82
754.26	238.80
754.59	238.62
754.91	238.42
755.24	238.25
755.57	238.15
755.90	238.06
756.22	237.89
756.55	237.77
756.88	237.50
757.20	237.01
757.53	236.80
757.86	236.63
758.19	236.50
758.51	236.46
758.84	236.17
759.17	236.04
759.49	236.00
759.82	236.16
760.15	236.06
760.47	235.93
760.80	235.74
761.13	235.71
761.45	235.55
761.78	235.48
762.11	235.40
762.43	235.18
762.76	235.10
763.08	235.04
763.41	234.92
763.74	234.90
764.06	234.84
764.39	234.76
764.71	234.74
765.04	234.64
765.37	234.48
765.69	234.37
766.02	234.32
766.34	234.20
766.67	233.92
767.00	233.97
767.32	234.14
767.65	234.27
767.97	234.19
768.30	234.18
768.62	234.09
768.95	233.96
769.27	233.94
769.60	233.85
769.92	233.67
770.25	233.59
770.57	233.41
770.90	233.32
771.22	233.23
771.55	233.18
771.87	233.18
772.20	233.07
772.52	233.43
772.85	233.95
773.17	233.88
773.50	233.86
773.82	233.63
774.15	233.33
774.47	233.11
774.80	232.96
775.12	232.84
775.45	232.75
775.77	232.68
776.09	232.64
776.42	232.61
776.74	232.75
777.07	232.59
777.39	232.59
777.72	232.52
778.04	232.56
778.36	232.48
778.69	232.37
779.01	232.42
779.33	231.93
779.66	231.35
779.98	231.29
780.31	231.27
780.63	231.50
780.95	231.54
781.28	231.41
781.60	231.35
781.92	231.42
782.25	231.44
782.57	231.42
782.89	231.42
783.22	231.38
783.54	231.25
783.86	231.31
784.19	231.31
784.51	231.41
784.83	231.24
785.16	231.25
785.48	231.30
785.80	231.26
786.12	231.30
786.45	231.20
786.77	231.15
787.09	231.00
787.42	230.76
787.74	230.75
788.06	230.72
788.38	230.71
788.71	230.60
789.03	230.46
789.35	230.49
789.67	230.44
789.99	230.44
790.32	230.32
790.64	230.43
790.96	230.74
791.28	230.59
791.61	230.63
791.93	230.67
792.25	230.63
792.57	230.98
792.89	230.84
793.21	230.80
793.54	230.76
793.86	230.72
794.18	230.81
794.50	230.75
794.82	230.84
795.14	230.85
795.47	230.94
795.79	231.05
796.11	230.97
796.43	230.91
796.75	230.86
797.07	230.91
797.39	230.85
797.71	230.47
798.04	230.48
798.36	230.46
798.68	230.34
799.00	230.32
799.32	229.91
799.64	230.02
799.96	230.05
800.28	230.15
800.60	230.15
800.92	230.08
801.24	230.00
801.56	229.97
801.89	229.94
802.21	229.96
802.53	229.84
802.85	229.90
803.17	230.08
803.49	229.98
803.81	229.87
804.13	229.75
804.45	229.71
804.77	229.67
805.09	229.63
805.41	229.59
805.73	229.53
806.05	229.51
806.37	229.47
806.69	229.45
807.01	229.39
807.33	229.36
807.65	229.13
807.97	229.39
808.28	229.30
808.60	229.23
808.92	229.15
809.24	229.46
809.56	229.43
809.88	229.22
810.20	229.28
810.52	229.34
810.84	229.29
811.16	229.28
811.48	229.23
811.80	229.41
812.12	229.39
812.43	229.43
812.75	229.40
813.07	229.31
813.39	229.26
813.71	229.15
814.03	229.16
814.35	229.22
814.67	228.94
814.98	228.88
815.30	228.88
815.62	228.77
815.94	228.41
816.26	228.54
816.58	228.49
816.89	228.50
817.21	228.38
817.53	228.37
817.85	228.33
818.17	228.36
818.48	228.18
818.80	228.28
819.12	228.21
819.44	228.07
819.76	228.01
820.07	227.99
820.39	228.00
820.71	228.09
821.03	228.06
821.34	228.04
821.66	228.12
821.98	228.13
822.30	228.10
822.61	228.38
822.93	228.11
823.25	228.02
823.57	228.00
823.88	228.02
824.20	228.01
824.52	228.09
824.83	228.03
825.15	227.97
825.47	227.85
825.79	227.89
826.10	227.92
826.42	227.88
826.74	227.91
827.05	227.87
827.37	227.78
827.69	227.78
828.00	227.77
828.32	227.74
828.64	227.71
828.95	227.95
829.27	227.77
829.58	227.82
829.90	227.93
830.22	227.96
830.53	227.93
830.85	227.89
831.17	227.72
831.48	227.73
831.80	227.70
832.11	227.64
832.43	227.55
832.75	227.55
833.06	227.85
833.38	227.76
833.69	227.76
834.01	227.77
834.32	227.78
834.64	227.75
834.96	227.75
835.27	227.80
835.59	227.64
835.90	227.55
836.22	227.54
836.53	227.50
836.85	227.44
837.16	227.93
837.48	227.99
837.79	228.19
838.11	228.20
838.42	228.21
838.74	228.34
839.05	228.35
839.37	228.32
839.68	228.04
840.00	228.00
840.31	228.05
840.63	228.04
840.94	227.93
841.26	227.86
841.57	227.82
841.88	227.76
842.20	227.65
842.51	227.64
842.83	227.64
843.14	227.99
843.46	228.00
843.77	227.74
844.08	227.68
844.40	227.47
844.71	227.44
845.03	227.37
845.34	227.33
845.65	227.32
845.97	227.32
846.28	227.36
846.60	227.41
846.91	227.36
847.22	227.26
847.54	227.37
847.85	227.38
848.16	227.28
848.48	227.21
848.79	227.46
849.10	227.52
849.42	227.51
849.73	227.12
850.04	227.12
850.36	226.94
850.67	226.97
850.98	227.05
851.30	227.12
851.61	227.15
851.92	227.19
852.23	227.27
852.55	227.30
852.86	227.28
853.17	227.30
853.49	227.35
853.80	227.46
854.11	227.55
854.42	227.59
854.74	227.60
855.05	227.64
855.36	227.37
855.67	227.36
855.99	227.40
856.30	227.97
856.61	227.94
856.92	228.02
857.23	228.07
857.55	227.96
857.86	227.90
858.17	227.99
858.48	227.88
858.79	227.85
859.11	227.87
859.42	227.90
859.73	227.84
860.04	227.78
860.35	227.66
860.66	227.49
860.98	227.50
861.29	227.56
861.60	227.50
861.91	227.66
862.22	227.55
862.53	227.42
862.84	226.79
863.16	226.87
863.47	226.72
863.78	226.67
864.09	226.80
864.40	226.84
864.71	226.83
865.02	226.85
865.33	226.75
865.64	226.68
865.95	226.57
866.27	226.85
866.58	226.82
866.89	226.88
867.20	226.87
867.51	226.76
867.82	226.71
868.13	226.85
868.44	226.71
868.75	226.84
869.06	226.89
869.37	227.00
869.68	226.89
869.99	226.95
870.30	226.95
870.61	226.94
870.92	226.79
871.23	226.75
871.54	226.81
871.85	226.98
872.16	227.08
872.47	227.10
872.78	226.87
873.09	226.96
873.40	226.92
873.71	226.94
874.02	227.03
874.33	226.99
874.64	226.89
874.95	226.94
875.26	226.80
875.56	226.80
875.87	226.71
876.18	226.67
876.49	227.12
876.80	227.08
877.11	227.00
877.42	227.06
877.73	227.09
878.04	227.03
878.35	226.89
878.66	226.90
878.96	226.92
879.27	226.90
879.58	226.88
879.89	226.85
880.20	227.04
880.51	226.96
880.82	227.00
881.12	227.08
881.43	226.98
881.74	226.88
882.05	226.84
882.36	226.94
882.67	227.03
882.97	226.56
883.28	226.51
883.59	226.52
883.90	226.64
884.21	226.69
884.51	226.67
884.82	226.71
885.13	226.68
885.44	226.58
885.74	226.57
886.05	226.54
886.36	226.54
886.67	226.33
886.98	226.65
887.28	226.70
887.59	226.69
887.90	226.72
888.20	226.79
888.51	226.84
888.82	226.74
889.13	226.72
889.43	227.06
889.74	227.08
890.05	227.08
890.35	226.96
890.66	226.90
890.97	226.82
891.28	226.73
891.58	226.86
891.89	226.95
892.20	226.88
892.50	226.85
892.81	226.85
893.12	226.88
893.42	226.57
893.73	226.62
894.04	226.60
894.34	226.66
894.65	226.67
894.95	226.67
895.26	226.71
895.57	226.95
895.87	226.55
896.18	226.66
896.48	226.66
896.79	226.65
897.10	226.72
897.40	226.79
897.71	226.82
898.01	226.70
898.32	226.75
898.63	226.80
898.93	226.76
899.24	226.77
899.54	226.76
899.85	226.74
900.15	226.70
900.46	226.65
900.76	226.64
901.07	226.66
901.38	226.67
901.68	226.74
901.99	226.51
902.29	226.58
902.60	226.50
902.90	226.49
903.21	226.51
903.51	226.48
903.82	226.64
904.12	226.60
904.43	226.55
904.73	226.55
905.03	226.62
905.34	227.12
905.64	227.08
905.95	227.00
906.25	227.00
906.56	227.00
906.86	227.02
907.17	227.00
907.47	227.02
907.77	226.97
908.08	226.88
908.38	226.90
908.69	226.85
908.99	226.93
909.30	226.94
909.60	226.92
909.90	226.86
910.21	226.66
910.51	226.65
910.81	226.69
911.12	226.70
911.42	226.63
911.73	226.19
912.03	226.25
912.33	226.39
912.64	226.38
912.94	226.33
913.24	226.26
913.55	226.28
913.85	226.26
914.15	226.34
914.46	226.40
914.76	226.25
915.06	226.21
915.37	226.20
915.67	226.18
915.97	226.20
916.27	226.23
916.58	226.26
916.88	226.23
917.18	226.17
917.49	226.50
917.79	226.55
918.09	226.61
918.39	226.75
918.70	226.75
919.00	226.83
919.30	227.00
919.60	226.97
919.91	226.87
920.21	226.90
920.51	226.83
920.81	226.85
921.12	226.99
921.42	227.06
921.72	227.01
922.02	226.94
922.32	227.05
922.63	226.99
922.93	227.29
923.23	227.37
923.53	227.37
923.83	227.02
924.13	227.01
924.44	227.01
924.74	227.05
925.04	227.13
925.34	227.07
925.64	226.86
925.94	226.94
926.24	227.26
926.55	227.15
926.85	227.16
927.15	227.11
927.45	227.11
927.75	227.11
928.05	227.16
928.35	227.19
928.65	227.22
928.95	227.30
929.26	227.12
929.56	227.29
929.86	227.38
930.16	227.34
930.46	227.39
930.76	227.34
931.06	227.08
931.36	226.96
931.66	227.02
931.96	227.13
932.26	227.14
932.56	226.86
932.86	226.92
933.16	226.97
933.46	226.97
933.76	226.87
934.06	226.95
934.36	227.14
934.66	227.11
934.96	227.00
935.26	226.94
935.56	226.89
935.86	226.68
936.16	226.58
936.46	226.56
936.76	226.50
937.06	226.44
937.36	226.55
937.66	226.56
937.96	226.54
938.26	226.46
938.56	226.45
938.86	226.48
939.16	226.62
939.46	226.59
939.76	226.60
940.06	226.63
940.35	226.50
940.65	226.18
940.95	226.22
941.25	226.12
941.55	226.14
941.85	226.12
942.15	226.17
942.45	226.26
942.75	226.24
943.04	226.24
943.34	226.28
943.64	226.19
943.94	226.12
944.24	226.14
944.54	226.16
944.84	226.09
945.13	226.07
945.43	225.93
945.73	225.91
946.03	225.83
946.33	225.79
946.62	225.76
946.92	225.79
947.22	225.88
947.52	225.94
947.82	225.99
948.11	225.95
948.41	225.89
948.71	225.79
949.01	225.77
949.31	225.77
949.60	225.86
949.90	225.94
950.20	225.92
950.50	225.91
950.79	225.86
951.09	225.91
951.39	225.95
951.69	225.91
951.98	226.01
952.28	226.09
952.58	226.07
952.87	226.10
953.17	226.19
953.47	226.05
953.76	226.00
954.06	225.89
954.36	225.92
954.66	225.90
954.95	226.10
955.25	226.20
955.55	226.20
955.84	226.04
956.14	226.04
956.44	226.18
956.73	226.08
957.03	226.06
957.32	226.04
957.62	225.97
957.92	226.11
958.21	226.06
958.51	226.51
958.81	226.59
959.10	226.65
959.40	226.77
959.69	226.79
959.99	226.93
960.29	226.92
960.58	226.85
960.88	227.06
961.17	226.89
961.47	226.91
961.76	226.85
962.06	226.97
962.36	226.94
962.65	226.92
962.95	226.99
963.24	227.04
963.54	227.10
963.83	227.14
964.13	227.10
964.42	226.97
964.72	226.61
965.01	226.61
965.31	226.55
965.60	226.43
965.90	226.80
966.19	226.69
966.49	226.75
966.78	226.72
967.08	226.76
967.37	226.80
967.67	226.66
967.96	226.82
968.26	226.71
968.55	226.85
968.85	226.73
969.14	226.81
969.43	226.78
969.73	226.70
970.02	226.68
970.32	226.73
970.61	226.80
970.91	226.70
971.20	226.64
971.49	226.60
971.79	226.64
972.08	226.27
972.38	226.31
972.67	226.29
972.96	226.47
973.26	226.22
973.55	226.38
973.85	226.43
974.14	226.36
974.43	226.44
974.73	226.39
975.02	226.38
975.31	226.28
975.61	226.28
975.90	226.28
976.19	226.21
976.49	226.19
976.78	226.19
977.07	226.19
977.37	226.20
977.66	226.25
977.95	226.21
978.24	226.29
978.54	226.39
978.83	226.38
979.12	226.27
979.42	226.40
979.71	226.29
980.00	226.21
980.29	226.17
980.59	226.11
980.88	226.17
981.17	226.23
981.46	226.28
981.76	226.29
982.05	226.47
982.34	226.53
982.63	226.45
982.93	226.38
983.22	226.48
983.51	226.52
983.80	226.57
984.09	226.60
984.39	226.52
984.68	226.44
984.97	226.37
985.26	226.32
985.55	226.32
985.85	226.22
986.14	226.32
986.43	226.40
986.72	226.40
987.01	226.26
987.30	226.19
987.59	226.13
987.89	226.12
988.18	225.99
988.47	225.97
988.76	225.96
989.05	225.95
989.34	225.85
989.63	225.98
989.92	225.97
990.22	225.87
990.51	225.92
990.80	225.88
991.09	226.00
991.38	226.07
991.67	225.95
991.96	226.00
992.25	226.03
992.54	225.91
992.83	225.90
993.12	225.82
993.41	225.96
993.70	226.14
993.99	226.24
994.28	226.23
994.58	226.28
994.87	226.29
995.16	226.31
995.45	226.31
995.74	226.16
996.03	226.22
996.32	226.31
996.61	226.37
996.90	226.37
997.19	226.34
997.48	226.33
997.77	226.40
998.06	226.37
998.34	226.29
998.63	226.29
998.92	226.34
999.21	226.47
999.50	226.50
999.79	226.32
1000.08	226.31
1000.37	226.39
1000.66	226.32
1000.95	226.45
1001.24	226.44
1001.53	226.55
1001.82	226.53
1002.11	226.41
1002.40	226.46
1002.68	226.61
1002.97	226.93
1003.26	226.88
1003.55	226.82
1003.84	226.83
1004.13	227.00
1004.42	227.06
1004.71	227.08
1004.99	227.04
1005.28	227.09
1005.57	227.04
1005.86	227.12
1006.15	227.09
1006.44	226.92
1006.72	226.97
1007.01	226.88
1007.30	226.94
1007.59	226.81
1007.88	226.86
1008.17	226.84
1008.45	226.71
1008.74	226.46
1009.03	226.21
1009.32	226.21
1009.60	226.18
1009.89	226.16
1010.18	225.96
1010.47	225.87
1010.76	225.84
1011.04	225.80
1011.33	225.86
1011.62	225.82
1011.91	225.77
1012.19	225.74
1012.48	225.79
1012.77	225.79
1013.05	226.02
1013.34	226.00
1013.63	226.02
1013.92	225.95
1014.20	225.97
1014.49	225.99
1014.78	226.05
1015.06	225.90
1015.35	225.93
1015.64	226.00
1015.92	226.02
1016.21	226.06
1016.50	226.04
1016.78	226.13
1017.07	226.10
1017.36	225.93
1017.64	225.87
1017.93	225.87
1018.22	225.86
1018.50	225.86
1018.79	225.85
1019.08	225.52
1019.36	225.52
1019.65	225.46
1019.93	225.65
1020.22	225.73
1020.51	225.97
1020.79	225.93
1021.08	225.55
1021.36	224.75
1021.65	225.95
1021.94	224.60
1022.22	225.25
1022.51	225.15
1022.79	228.80
1023.08	227.05
1023.36	231.40
1023.65	225.30
>>>>>End Processed Spectral Data<<<<<
