SpectraSuite Data File
++++++++++++++++++++++++++++++++++++
Date: Wed Sep 04 17:43:42 EDT 2013
User: lab3
Dark Spectrum Present: Yes
Reference Spectrum Present: No
Number of Sampled Component Spectra: 1
Spectrometers: USB2E7196
Integration Time (usec): 170000 (USB2E7196)
Spectra Averaged: 20 (USB2E7196)
Boxcar Smoothing: 10 (USB2E7196)
Correct for Electrical Dark: No (USB2E7196)
Strobe/Lamp Enabled: No (USB2E7196)
Correct for Detector Non-linearity: No (USB2E7196)
Correct for Stray Light: No (USB2E7196)
Number of Pixels in Processed Spectrum: 2048
>>>>>Begin Processed Spectral Data<<<<<
339.09	0.00
339.48	213.00
339.86	214.80
340.24	216.20
340.63	216.35
341.01	226.40
341.39	220.10
341.78	221.75
342.16	224.30
342.54	222.25
342.93	212.18
343.31	222.89
343.69	223.47
344.07	223.90
344.46	224.39
344.84	224.87
345.22	224.83
345.60	225.06
345.99	225.25
346.37	225.37
346.75	225.50
347.13	225.61
347.52	225.67
347.90	225.82
348.28	225.91
348.66	226.05
349.05	225.97
349.43	226.01
349.81	226.12
350.19	226.16
350.57	226.21
350.96	226.39
351.34	226.46
351.72	226.45
352.10	226.56
352.48	226.55
352.87	226.49
353.25	226.53
353.63	226.60
354.01	226.68
354.39	226.70
354.77	226.73
355.15	226.81
355.54	226.86
355.92	226.83
356.30	226.83
356.68	227.21
357.06	227.25
357.44	227.23
357.82	227.22
358.20	227.62
358.58	227.67
358.97	227.63
359.35	227.81
359.73	228.03
360.11	228.03
360.49	228.18
360.87	228.27
361.25	228.41
361.63	228.60
362.01	228.66
362.39	228.65
362.77	228.76
363.15	228.79
363.53	228.83
363.91	228.85
364.29	228.95
364.67	228.57
365.05	228.68
365.43	228.76
365.81	228.80
366.19	228.70
366.57	228.88
366.95	228.90
367.33	228.83
367.71	228.75
368.09	228.91
368.47	228.83
368.85	228.87
369.23	228.91
369.61	228.71
369.99	228.79
370.37	228.85
370.75	229.13
371.13	229.08
371.51	228.99
371.89	228.97
372.27	228.97
372.65	228.96
373.03	228.93
373.41	228.90
373.78	228.92
374.16	228.70
374.54	228.47
374.92	228.40
375.30	228.33
375.68	228.24
376.06	228.19
376.44	228.11
376.82	228.10
377.19	228.01
377.57	227.96
377.95	227.82
378.33	227.69
378.71	227.32
379.09	227.38
379.47	227.38
379.84	227.30
380.22	227.17
380.60	227.04
380.98	226.89
381.36	226.76
381.73	226.58
382.11	226.62
382.49	226.62
382.87	226.55
383.25	226.47
383.62	227.00
384.00	226.88
384.38	226.90
384.76	226.96
385.13	227.08
385.51	227.05
385.89	226.97
386.27	226.93
386.64	226.93
387.02	226.76
387.40	226.65
387.78	226.71
388.15	226.70
388.53	226.64
388.91	226.64
389.29	226.68
389.66	226.72
390.04	226.59
390.42	226.61
390.79	226.65
391.17	226.63
391.55	226.05
391.92	226.00
392.30	226.00
392.68	225.89
393.05	225.84
393.43	225.91
393.81	225.86
394.18	225.86
394.56	225.83
394.94	225.90
395.31	225.89
395.69	226.06
396.06	226.12
396.44	226.19
396.82	226.19
397.19	226.47
397.57	226.56
397.95	226.68
398.32	226.63
398.70	226.70
399.07	226.88
399.45	226.94
399.82	227.03
400.20	227.12
400.58	227.15
400.95	227.03
401.33	227.19
401.70	227.73
402.08	227.84
402.45	228.00
402.83	228.28
403.20	228.52
403.58	228.49
403.95	228.73
404.33	229.00
404.71	229.27
405.08	229.72
405.46	229.96
405.83	230.17
406.21	230.44
406.58	230.62
406.96	230.89
407.33	231.16
407.70	231.53
408.08	232.15
408.45	232.59
408.83	233.13
409.20	233.50
409.58	233.60
409.95	234.10
410.33	234.66
410.70	235.07
411.08	235.66
411.45	236.33
411.82	236.89
412.20	237.54
412.57	238.48
412.95	238.77
413.32	239.63
413.69	240.47
414.07	241.30
414.44	242.34
414.82	243.33
415.19	244.65
415.56	245.77
415.94	246.77
416.31	248.24
416.68	249.57
417.06	251.16
417.43	252.74
417.81	254.44
418.18	256.17
418.55	258.01
418.93	259.84
419.30	261.89
419.67	264.04
420.04	266.25
420.42	268.37
420.79	271.32
421.16	273.88
421.54	276.73
421.91	279.57
422.28	282.50
422.66	285.59
423.03	288.84
423.40	292.07
423.77	295.41
424.15	298.77
424.52	302.40
424.89	306.37
425.26	310.27
425.64	313.87
426.01	317.89
426.38	322.07
426.75	326.52
427.13	330.86
427.50	335.50
427.87	340.25
428.24	345.10
428.61	349.32
428.99	354.46
429.36	359.70
429.73	365.03
430.10	370.35
430.47	375.87
430.85	381.13
431.22	387.11
431.59	393.61
431.96	399.59
432.33	406.31
432.70	412.79
433.08	420.23
433.45	427.35
433.82	434.31
434.19	442.06
434.56	449.81
434.93	457.13
435.30	464.46
435.68	472.75
436.05	480.69
436.42	488.76
436.79	496.06
437.16	504.16
437.53	512.58
437.90	520.86
438.27	528.98
438.64	537.46
439.01	545.40
439.38	552.41
439.75	559.21
440.13	566.77
440.50	573.87
440.87	579.66
441.24	585.84
441.61	592.75
441.98	597.71
442.35	603.27
442.72	609.06
443.09	614.77
443.46	617.91
443.83	620.30
444.20	622.21
444.57	624.81
444.94	625.78
445.31	627.00
445.68	628.41
446.05	628.59
446.42	627.51
446.79	626.09
447.16	624.44
447.53	623.39
447.90	619.95
448.27	616.44
448.64	611.86
449.01	608.24
449.37	602.35
449.74	596.61
450.11	590.10
450.48	582.68
450.85	574.96
451.22	568.40
451.59	562.00
451.96	555.90
452.33	548.17
452.70	541.12
453.07	532.75
453.43	523.91
453.80	515.91
454.17	508.15
454.54	500.76
454.91	492.95
455.28	485.18
455.65	477.96
456.02	471.44
456.38	465.31
456.75	458.00
457.12	451.62
457.49	445.52
457.86	439.41
458.23	434.55
458.59	429.09
458.96	423.62
459.33	418.65
459.70	413.87
460.07	410.01
460.43	405.48
460.80	401.41
461.17	397.84
461.54	394.00
461.91	390.39
462.27	386.82
462.64	383.66
463.01	380.27
463.38	377.19
463.74	373.33
464.11	370.49
464.48	368.01
464.85	365.34
465.21	363.34
465.58	361.08
465.95	358.34
466.32	356.15
466.68	353.92
467.05	351.85
467.42	349.75
467.78	347.47
468.15	345.49
468.52	343.95
468.88	341.90
469.25	340.06
469.62	338.67
469.98	337.00
470.35	335.57
470.72	334.18
471.08	332.55
471.45	331.50
471.82	330.34
472.18	328.93
472.55	327.97
472.92	326.73
473.28	325.72
473.65	324.69
474.02	323.68
474.38	322.89
474.75	322.21
475.11	321.31
475.48	320.74
475.85	320.24
476.21	319.51
476.58	319.05
476.94	318.74
477.31	318.26
477.67	317.96
478.04	317.70
478.41	317.61
478.77	317.92
479.14	317.47
479.50	317.35
479.87	317.39
480.23	317.37
480.60	317.35
480.96	317.28
481.33	317.66
481.69	317.85
482.06	318.19
482.42	318.40
482.79	318.78
483.15	319.20
483.52	319.89
483.88	320.47
484.25	321.11
484.61	321.75
484.98	322.39
485.34	323.30
485.71	324.35
486.07	325.17
486.44	325.78
486.80	326.95
487.17	327.97
487.53	329.32
487.90	330.75
488.26	332.30
488.62	334.07
488.99	335.51
489.35	337.26
489.72	339.04
490.08	340.98
490.44	342.95
490.81	345.08
491.17	347.05
491.54	349.51
491.90	351.93
492.26	354.54
492.63	357.23
492.99	359.97
493.36	362.84
493.72	366.21
494.08	369.51
494.45	373.24
494.81	377.11
495.17	380.88
495.54	384.93
495.90	389.13
496.26	393.35
496.63	397.88
496.99	402.58
497.35	407.56
497.72	412.85
498.08	418.23
498.44	423.81
498.80	429.75
499.17	435.63
499.53	441.83
499.89	448.35
500.26	455.07
500.62	461.94
500.98	469.27
501.34	476.39
501.71	484.02
502.07	491.51
502.43	499.50
502.79	507.67
503.16	516.13
503.52	524.90
503.88	534.02
504.24	543.52
504.60	553.27
504.97	563.17
505.33	573.28
505.69	584.14
506.05	594.87
506.41	606.06
506.78	617.37
507.14	629.25
507.50	641.33
507.86	653.74
508.22	666.51
508.59	679.16
508.95	692.72
509.31	706.48
509.67	720.39
510.03	734.28
510.39	748.60
510.75	763.27
511.12	778.07
511.48	793.27
511.84	808.73
512.20	824.31
512.56	840.24
512.92	856.53
513.28	873.02
513.64	889.87
514.00	906.67
514.37	923.91
514.73	941.39
515.09	959.11
515.45	976.93
515.81	994.67
516.17	1012.79
516.53	1030.55
516.89	1048.52
517.25	1067.35
517.61	1086.68
517.97	1106.48
518.33	1125.73
518.69	1145.33
519.05	1165.16
519.41	1184.87
519.77	1205.09
520.13	1225.20
520.49	1245.11
520.85	1265.06
521.21	1285.11
521.57	1305.72
521.93	1325.47
522.29	1345.48
522.65	1365.12
523.01	1385.24
523.37	1405.00
523.73	1425.15
524.09	1444.81
524.45	1464.68
524.81	1484.45
525.17	1504.17
525.53	1523.58
525.89	1543.63
526.25	1563.25
526.61	1582.52
526.97	1602.50
527.33	1622.73
527.68	1643.31
528.04	1663.48
528.40	1683.16
528.76	1703.39
529.12	1722.64
529.48	1742.67
529.84	1761.81
530.20	1781.84
530.56	1801.44
530.91	1821.44
531.27	1840.65
531.63	1860.34
531.99	1879.45
532.35	1898.11
532.71	1917.30
533.07	1936.65
533.42	1955.24
533.78	1974.27
534.14	1993.01
534.50	2010.95
534.86	2028.64
535.21	2045.02
535.57	2062.31
535.93	2078.80
536.29	2095.19
536.65	2112.10
537.00	2128.44
537.36	2144.90
537.72	2160.39
538.08	2176.28
538.44	2191.39
538.79	2206.59
539.15	2221.75
539.51	2236.97
539.87	2251.03
540.22	2263.50
540.58	2276.86
540.94	2289.39
541.29	2300.64
541.65	2311.79
542.01	2323.18
542.37	2332.93
542.72	2342.73
543.08	2352.10
543.44	2362.81
543.79	2371.73
544.15	2380.37
544.51	2389.13
544.87	2397.23
545.22	2404.65
545.58	2411.26
545.94	2417.37
546.29	2422.83
546.65	2428.16
547.01	2432.90
547.36	2437.87
547.72	2442.60
548.07	2445.21
548.43	2449.23
548.79	2452.99
549.14	2456.33
549.50	2458.92
549.86	2461.80
550.21	2464.67
550.57	2467.50
550.92	2468.08
551.28	2468.48
551.64	2469.94
551.99	2471.29
552.35	2472.19
552.70	2473.17
553.06	2474.25
553.41	2475.11
553.77	2476.10
554.13	2477.00
554.48	2477.27
554.84	2477.59
555.19	2478.10
555.55	2479.32
555.90	2477.88
556.26	2476.55
556.61	2474.62
556.97	2472.11
557.32	2471.02
557.68	2469.58
558.03	2467.20
558.39	2465.30
558.74	2463.93
559.10	2460.32
559.45	2455.87
559.81	2451.39
560.16	2446.15
560.52	2440.87
560.87	2436.03
561.23	2430.20
561.58	2424.01
561.94	2417.00
562.29	2409.75
562.64	2402.84
563.00	2394.61
563.35	2387.90
563.71	2380.74
564.06	2374.28
564.42	2367.77
564.77	2360.60
565.12	2352.84
565.48	2345.10
565.83	2337.40
566.19	2329.81
566.54	2321.88
566.89	2314.11
567.25	2306.41
567.60	2299.50
567.96	2292.03
568.31	2284.09
568.66	2275.91
569.02	2267.05
569.37	2259.10
569.72	2251.53
570.08	2242.25
570.43	2232.80
570.78	2223.78
571.14	2215.06
571.49	2204.82
571.84	2195.27
572.20	2184.85
572.55	2175.03
572.90	2164.49
573.26	2154.14
573.61	2142.90
573.96	2132.24
574.31	2120.61
574.67	2109.35
575.02	2096.72
575.37	2084.41
575.72	2071.75
576.08	2060.02
576.43	2048.13
576.78	2035.75
577.13	2022.70
577.49	2010.41
577.84	1999.05
578.19	1987.56
578.54	1975.30
578.90	1964.03
579.25	1952.40
579.60	1940.54
579.95	1928.28
580.30	1915.74
580.66	1902.85
581.01	1890.17
581.36	1876.87
581.71	1865.01
582.06	1852.57
582.42	1841.20
582.77	1829.33
583.12	1818.07
583.47	1806.33
583.82	1794.85
584.17	1783.27
584.53	1772.20
584.88	1760.21
585.23	1747.92
585.58	1734.47
585.93	1722.10
586.28	1709.70
586.63	1696.65
586.98	1683.22
587.34	1670.60
587.69	1658.55
588.04	1646.96
588.39	1635.78
588.74	1624.60
589.09	1613.32
589.44	1601.30
589.79	1589.66
590.14	1578.39
590.49	1566.84
590.84	1555.53
591.19	1544.21
591.54	1532.91
591.89	1521.35
592.25	1511.77
592.60	1501.01
592.95	1490.35
593.30	1479.49
593.65	1468.18
594.00	1457.19
594.35	1448.40
594.70	1437.49
595.05	1426.57
595.40	1415.30
595.75	1404.05
596.10	1393.38
596.45	1382.76
596.80	1372.68
597.15	1362.02
597.50	1350.90
597.85	1340.58
598.19	1329.95
598.54	1319.05
598.89	1308.55
599.24	1298.55
599.59	1287.72
599.94	1277.64
600.29	1268.16
600.64	1258.46
600.99	1248.60
601.34	1239.45
601.69	1228.76
602.04	1219.79
602.39	1211.01
602.74	1202.71
603.08	1194.23
603.43	1185.74
603.78	1176.69
604.13	1168.00
604.48	1159.05
604.83	1149.96
605.18	1140.60
605.53	1131.71
605.87	1123.37
606.22	1115.54
606.57	1107.01
606.92	1098.35
607.27	1090.27
607.62	1082.13
607.96	1074.39
608.31	1067.20
608.66	1059.62
609.01	1051.77
609.36	1043.78
609.70	1035.77
610.05	1027.72
610.40	1019.82
610.75	1011.76
611.10	1004.03
611.44	995.81
611.79	988.41
612.14	981.34
612.49	974.08
612.83	967.20
613.18	959.99
613.53	952.76
613.88	945.45
614.22	938.29
614.57	930.92
614.92	923.74
615.27	916.63
615.61	909.41
615.96	902.23
616.31	895.28
616.65	888.65
617.00	881.96
617.35	875.29
617.70	868.55
618.04	861.83
618.39	855.33
618.74	849.57
619.08	843.14
619.43	836.69
619.78	830.27
620.12	823.65
620.47	817.25
620.82	810.66
621.16	804.45
621.51	798.65
621.85	792.82
622.20	786.67
622.55	780.38
622.89	774.54
623.24	768.64
623.59	762.84
623.93	756.92
624.28	751.32
624.62	746.00
624.97	740.75
625.32	735.55
625.66	729.99
626.01	724.30
626.35	719.10
626.70	713.98
627.04	709.12
627.39	704.10
627.73	699.28
628.08	694.43
628.43	689.44
628.77	684.28
629.12	679.34
629.46	674.96
629.81	670.66
630.15	666.10
630.50	661.63
630.84	657.11
631.19	652.64
631.53	648.34
631.88	643.55
632.22	638.83
632.57	634.56
632.91	630.32
633.26	626.36
633.60	622.11
633.95	617.84
634.29	613.45
634.64	609.34
634.98	604.85
635.32	600.89
635.67	597.08
636.01	593.22
636.36	589.06
636.70	585.17
637.05	581.14
637.39	577.42
637.73	573.60
638.08	569.88
638.42	566.09
638.77	562.07
639.11	558.21
639.45	554.48
639.80	550.44
640.14	546.68
640.49	542.90
640.83	539.34
641.17	536.02
641.52	532.60
641.86	529.18
642.20	526.30
642.55	522.75
642.89	519.43
643.23	516.19
643.58	513.47
643.92	510.14
644.26	507.03
644.61	504.07
644.95	500.96
645.29	497.87
645.64	495.02
645.98	492.15
646.32	489.38
646.66	486.48
647.01	483.70
647.35	481.17
647.69	478.50
648.04	475.92
648.38	473.29
648.72	470.66
649.06	467.84
649.41	464.93
649.75	462.16
650.09	459.41
650.43	456.79
650.78	454.03
651.12	451.37
651.46	448.75
651.80	446.04
652.14	443.58
652.49	441.15
652.83	438.65
653.17	436.33
653.51	433.76
653.85	431.55
654.20	429.38
654.54	426.97
654.88	424.64
655.22	422.67
655.56	420.37
655.90	418.10
656.25	416.16
656.59	414.05
656.93	412.12
657.27	410.37
657.61	408.14
657.95	406.11
658.29	404.11
658.64	402.21
658.98	400.13
659.32	398.02
659.66	396.09
660.00	394.20
660.34	392.20
660.68	390.41
661.02	388.45
661.36	386.56
661.70	384.71
662.05	382.92
662.39	381.01
662.73	379.39
663.07	377.99
663.41	376.23
663.75	374.51
664.09	372.80
664.43	370.89
664.77	369.39
665.11	367.62
665.45	366.07
665.79	364.58
666.13	363.16
666.47	361.63
666.81	359.98
667.15	358.40
667.49	357.01
667.83	355.75
668.17	354.34
668.51	353.03
668.85	351.77
669.19	350.56
669.53	349.01
669.87	347.60
670.21	346.08
670.55	344.75
670.89	343.64
671.23	342.36
671.57	341.13
671.91	339.86
672.25	338.67
672.58	337.59
672.92	336.25
673.26	335.01
673.60	333.91
673.94	332.94
674.28	331.90
674.62	330.85
674.96	329.66
675.30	328.62
675.64	327.50
675.97	326.23
676.31	325.00
676.65	323.87
676.99	322.99
677.33	321.97
677.67	320.90
678.01	319.74
678.34	318.80
678.68	317.93
679.02	316.91
679.36	316.05
679.70	314.99
680.04	314.13
680.37	313.22
680.71	312.34
681.05	311.44
681.39	310.59
681.73	309.66
682.06	308.82
682.40	307.96
682.74	307.19
683.08	306.58
683.42	305.74
683.75	305.10
684.09	304.14
684.43	303.42
684.77	302.67
685.10	301.88
685.44	301.14
685.78	300.43
686.12	299.72
686.45	298.91
686.79	298.12
687.13	297.44
687.46	296.71
687.80	296.07
688.14	295.31
688.48	294.56
688.81	293.83
689.15	293.24
689.49	292.54
689.82	291.83
690.16	291.01
690.50	290.30
690.83	289.59
691.17	288.83
691.51	288.20
691.84	287.63
692.18	287.00
692.52	286.34
692.85	285.70
693.19	285.30
693.52	284.64
693.86	284.04
694.20	283.42
694.53	282.88
694.87	282.30
695.21	281.65
695.54	281.20
695.88	280.57
696.21	279.75
696.55	279.16
696.88	278.60
697.22	278.00
697.56	277.57
697.89	277.00
698.23	276.50
698.56	275.85
698.90	275.36
699.23	274.84
699.57	274.34
699.90	273.75
700.24	273.05
700.58	272.70
700.91	272.40
701.25	272.27
701.58	272.15
701.92	271.78
702.25	271.40
702.59	270.89
702.92	270.50
703.26	270.16
703.59	269.81
703.93	269.82
704.26	269.45
704.60	269.11
704.93	268.77
705.26	268.37
705.60	268.06
705.93	267.53
706.27	267.33
706.60	267.10
706.94	266.96
707.27	266.61
707.61	266.23
707.94	265.81
708.27	265.09
708.61	264.30
708.94	263.87
709.28	263.47
709.61	263.00
709.94	262.71
710.28	262.43
710.61	262.14
710.95	261.31
711.28	261.32
711.61	260.89
711.95	260.61
712.28	260.17
712.61	259.77
712.95	259.77
713.28	259.58
713.61	259.07
713.95	258.50
714.28	258.20
714.61	257.86
714.95	257.52
715.28	257.16
715.61	256.84
715.95	256.54
716.28	256.23
716.61	256.06
716.95	255.66
717.28	255.18
717.61	254.80
717.94	254.55
718.28	253.89
718.61	253.57
718.94	253.23
719.27	253.09
719.61	252.97
719.94	252.53
720.27	251.97
720.60	251.78
720.94	251.64
721.27	251.43
721.60	251.30
721.93	251.04
722.27	251.02
722.60	250.96
722.93	250.67
723.26	250.47
723.59	250.19
723.93	250.15
724.26	250.08
724.59	249.86
724.92	249.69
725.25	249.64
725.59	249.42
725.92	249.19
726.25	248.92
726.58	248.75
726.91	248.57
727.24	248.56
727.57	248.39
727.91	248.06
728.24	247.93
728.57	247.67
728.90	247.56
729.23	247.25
729.56	247.23
729.89	247.03
730.22	246.82
730.55	246.66
730.89	246.38
731.22	246.24
731.55	246.06
731.88	245.91
732.21	245.67
732.54	245.55
732.87	245.52
733.20	245.42
733.53	245.20
733.86	245.07
734.19	244.78
734.52	244.70
734.85	244.89
735.18	244.64
735.51	244.64
735.84	244.52
736.17	244.38
736.50	244.04
736.83	244.50
737.16	244.39
737.49	244.25
737.82	244.06
738.15	243.97
738.48	243.88
738.81	243.78
739.14	243.63
739.47	243.40
739.80	243.19
740.13	243.15
740.46	242.93
740.79	242.68
741.12	242.54
741.45	242.27
741.78	241.96
742.11	242.03
742.44	241.73
742.77	241.70
743.10	241.55
743.43	241.38
743.75	240.76
744.08	241.26
744.41	241.12
744.74	241.00
745.07	240.70
745.40	240.68
745.73	240.61
746.06	240.51
746.39	240.46
746.71	240.32
747.04	240.10
747.37	239.97
747.70	239.99
748.03	239.87
748.36	239.95
748.68	239.79
749.01	239.46
749.34	239.41
749.67	239.27
750.00	239.27
750.33	239.48
750.65	239.40
750.98	238.59
751.31	238.45
751.64	238.40
751.97	238.55
752.29	238.34
752.62	238.07
752.95	237.98
753.28	237.85
753.60	237.78
753.93	237.74
754.26	237.74
754.59	237.52
754.91	237.33
755.24	237.10
755.57	236.96
755.90	236.82
756.22	236.66
756.55	236.45
756.88	236.21
757.20	235.84
757.53	235.55
757.86	235.53
758.19	235.47
758.51	235.31
758.84	234.95
759.17	234.85
759.49	234.76
759.82	234.87
760.15	234.83
760.47	234.65
760.80	234.41
761.13	234.30
761.45	234.21
761.78	234.20
762.11	234.19
762.43	234.05
762.76	234.00
763.08	233.99
763.41	233.95
763.74	233.84
764.06	233.70
764.39	233.69
764.71	233.67
765.04	233.56
765.37	233.51
765.69	233.47
766.02	233.34
766.34	233.27
766.67	233.04
767.00	232.99
767.32	233.25
767.65	233.48
767.97	233.43
768.30	233.36
768.62	233.29
768.95	233.11
769.27	233.08
769.60	233.10
769.92	233.00
770.25	232.80
770.57	232.73
770.90	232.67
771.22	232.54
771.55	232.47
771.87	232.50
772.20	232.42
772.52	232.80
772.85	233.36
773.17	233.36
773.50	233.20
773.82	233.11
774.15	232.78
774.47	232.44
774.80	232.38
775.12	232.32
775.45	232.28
775.77	232.23
776.09	232.24
776.42	232.21
776.74	232.27
777.07	232.25
777.39	232.29
777.72	232.20
778.04	232.28
778.36	232.20
778.69	232.10
779.01	232.11
779.33	231.63
779.66	230.97
779.98	230.83
780.31	230.88
780.63	231.06
780.95	231.10
781.28	231.02
781.60	230.89
781.92	230.90
782.25	230.85
782.57	230.84
782.89	230.76
783.22	230.71
783.54	230.57
783.86	230.61
784.19	230.54
784.51	230.65
784.83	230.51
785.16	230.42
785.48	230.45
785.80	230.40
786.12	230.43
786.45	230.48
786.77	230.49
787.09	230.38
787.42	230.13
787.74	230.13
788.06	230.19
788.38	230.11
788.71	230.05
789.03	230.01
789.35	230.07
789.67	230.00
789.99	229.94
790.32	229.89
790.64	229.88
790.96	230.22
791.28	230.02
791.61	230.02
791.93	230.01
792.25	229.94
792.57	230.29
792.89	230.13
793.21	230.14
793.54	230.05
793.86	229.99
794.18	229.97
794.50	229.85
794.82	229.77
795.14	229.88
795.47	229.96
795.79	229.93
796.11	229.79
796.43	229.68
796.75	229.67
797.07	229.55
797.39	229.52
797.71	229.08
798.04	229.02
798.36	228.92
798.68	228.94
799.00	228.88
799.32	228.56
799.64	228.59
799.96	228.51
800.28	228.59
800.60	228.54
800.92	228.59
801.24	228.51
801.56	228.63
801.89	228.54
802.21	228.48
802.53	228.41
802.85	228.53
803.17	228.78
803.49	228.66
803.81	228.70
804.13	228.62
804.45	228.60
804.77	228.72
805.09	228.76
805.41	228.60
805.73	228.53
806.05	228.36
806.37	228.40
806.69	228.33
807.01	228.30
807.33	228.33
807.65	228.12
807.97	228.33
808.28	228.18
808.60	228.16
808.92	228.04
809.24	228.32
809.56	228.17
809.88	227.98
810.20	227.97
810.52	228.00
810.84	227.91
811.16	227.85
811.48	227.80
811.80	227.95
812.12	228.01
812.43	228.10
812.75	228.10
813.07	228.00
813.39	227.99
813.71	227.92
814.03	227.85
814.35	227.87
814.67	227.68
814.98	227.62
815.30	227.63
815.62	227.60
815.94	227.29
816.26	227.51
816.58	227.38
816.89	227.42
817.21	227.28
817.53	227.26
817.85	227.31
818.17	227.29
818.48	227.09
818.80	227.14
819.12	227.12
819.44	227.15
819.76	227.11
820.07	227.16
820.39	227.12
820.71	227.22
821.03	227.25
821.34	227.18
821.66	227.30
821.98	227.31
822.30	227.28
822.61	227.59
822.93	227.31
823.25	227.40
823.57	227.42
823.88	227.57
824.20	227.61
824.52	227.63
824.83	227.61
825.15	227.59
825.47	227.58
825.79	227.58
826.10	227.46
826.42	227.43
826.74	227.46
827.05	227.50
827.37	227.45
827.69	227.41
828.00	227.51
828.32	227.49
828.64	227.45
828.95	227.71
829.27	227.54
829.58	227.56
829.90	227.52
830.22	227.51
830.53	227.39
830.85	227.35
831.17	227.25
831.48	227.30
831.80	227.32
832.11	227.30
832.43	227.25
832.75	227.26
833.06	227.60
833.38	227.41
833.69	227.36
834.01	227.36
834.32	227.31
834.64	227.22
834.96	227.22
835.27	227.15
835.59	226.95
835.90	226.89
836.22	226.88
836.53	226.82
836.85	226.76
837.16	227.30
837.48	227.29
837.79	227.49
838.11	227.46
838.42	227.45
838.74	227.55
839.05	227.44
839.37	227.48
839.68	227.18
840.00	227.22
840.31	227.26
840.63	227.25
840.94	227.17
841.26	227.12
841.57	227.06
841.88	227.23
842.20	227.18
842.51	227.06
842.83	227.06
843.14	227.53
843.46	227.52
843.77	227.15
844.08	227.15
844.40	226.96
844.71	226.97
845.03	226.95
845.34	226.81
845.65	226.80
845.97	226.77
846.28	226.82
846.60	226.87
846.91	226.85
847.22	226.89
847.54	227.05
847.85	227.05
848.16	227.04
848.48	226.81
848.79	227.02
849.10	227.13
849.42	227.13
849.73	226.67
850.04	226.62
850.36	226.44
850.67	226.53
850.98	226.51
851.30	226.45
851.61	226.50
851.92	226.50
852.23	226.71
852.55	226.74
852.86	226.67
853.17	226.66
853.49	226.74
853.80	226.79
854.11	226.86
854.42	226.99
854.74	226.87
855.05	227.02
855.36	226.80
855.67	226.85
855.99	226.82
856.30	227.39
856.61	227.47
856.92	227.53
857.23	227.48
857.55	227.41
857.86	227.40
858.17	227.45
858.48	227.39
858.79	227.33
859.11	227.38
859.42	227.36
859.73	227.34
860.04	227.36
860.35	227.18
860.66	227.01
860.98	226.93
861.29	227.07
861.60	227.00
861.91	227.07
862.22	226.90
862.53	226.85
862.84	226.29
863.16	226.40
863.47	226.28
863.78	226.23
864.09	226.32
864.40	226.33
864.71	226.34
865.02	226.41
865.33	226.35
865.64	226.22
865.95	226.25
866.27	226.55
866.58	226.42
866.89	226.54
867.20	226.55
867.51	226.55
867.82	226.50
868.13	226.66
868.44	226.53
868.75	226.70
869.06	226.78
869.37	226.84
869.68	226.66
869.99	226.80
870.30	226.86
870.61	226.87
870.92	226.83
871.23	226.75
871.54	226.81
871.85	226.95
872.16	227.08
872.47	227.07
872.78	226.78
873.09	226.85
873.40	226.75
873.71	226.81
874.02	226.80
874.33	226.76
874.64	226.71
874.95	226.80
875.26	226.70
875.56	226.63
875.87	226.61
876.18	226.68
876.49	227.16
876.80	227.15
877.11	227.11
877.42	227.19
877.73	227.26
878.04	227.23
878.35	227.16
878.66	227.18
878.96	227.20
879.27	227.18
879.58	227.20
879.89	227.26
880.20	227.40
880.51	227.39
880.82	227.37
881.12	227.40
881.43	227.38
881.74	227.31
882.05	227.31
882.36	227.34
882.67	227.32
882.97	226.77
883.28	226.74
883.59	226.74
883.90	226.77
884.21	226.80
884.51	226.69
884.82	226.66
885.13	226.73
885.44	226.69
885.74	226.72
886.05	226.68
886.36	226.64
886.67	226.48
886.98	226.79
887.28	226.88
887.59	226.80
887.90	226.75
888.20	226.81
888.51	226.96
888.82	226.90
889.13	226.94
889.43	227.33
889.74	227.31
890.05	227.22
890.35	227.14
890.66	227.01
890.97	227.06
891.28	226.95
891.58	226.86
891.89	226.88
892.20	226.85
892.50	226.80
892.81	226.75
893.12	226.69
893.42	226.35
893.73	226.32
894.04	226.30
894.34	226.39
894.65	226.30
894.95	226.17
895.26	226.16
895.57	226.30
895.87	225.86
896.18	225.92
896.48	226.01
896.79	226.00
897.10	226.12
897.40	226.11
897.71	226.18
898.01	226.16
898.32	226.20
898.63	226.22
898.93	226.29
899.24	226.32
899.54	226.37
899.85	226.35
900.15	226.36
900.46	226.42
900.76	226.46
901.07	226.53
901.38	226.59
901.68	226.67
901.99	226.49
902.29	226.55
902.60	226.46
902.90	226.37
903.21	226.35
903.51	226.25
903.82	226.40
904.12	226.42
904.43	226.35
904.73	226.28
905.03	226.27
905.34	226.69
905.64	226.65
905.95	226.59
906.25	226.62
906.56	226.64
906.86	226.60
907.17	226.55
907.47	226.55
907.77	226.44
908.08	226.34
908.38	226.35
908.69	226.33
908.99	226.51
909.30	226.56
909.60	226.56
909.90	226.64
910.21	226.47
910.51	226.40
910.81	226.50
911.12	226.59
911.42	226.59
911.73	226.07
912.03	226.12
912.33	226.26
912.64	226.27
912.94	226.16
913.24	226.11
913.55	226.04
913.85	225.97
914.15	226.07
914.46	226.08
914.76	226.00
915.06	226.00
915.37	225.84
915.67	225.79
915.97	225.81
916.27	225.75
916.58	225.74
916.88	225.75
917.18	225.66
917.49	225.95
917.79	225.87
918.09	225.99
918.39	226.04
918.70	225.94
919.00	225.89
919.30	226.13
919.60	226.06
919.91	226.02
920.21	226.10
920.51	225.98
920.81	226.04
921.12	226.13
921.42	226.12
921.72	226.19
922.02	226.29
922.32	226.33
922.63	226.29
922.93	226.48
923.23	226.51
923.53	226.49
923.83	226.10
924.13	226.17
924.44	226.17
924.74	226.30
925.04	226.45
925.34	226.50
925.64	226.34
925.94	226.29
926.24	226.62
926.55	226.57
926.85	226.65
927.15	226.60
927.45	226.55
927.75	226.57
928.05	226.54
928.35	226.52
928.65	226.63
928.95	226.60
929.26	226.51
929.56	226.59
929.86	226.70
930.16	226.75
930.46	226.70
930.76	226.73
931.06	226.51
931.36	226.48
931.66	226.51
931.96	226.56
932.26	226.72
932.56	226.51
932.86	226.51
933.16	226.54
933.46	226.50
933.76	226.49
934.06	226.54
934.36	226.75
934.66	226.71
934.96	226.62
935.26	226.72
935.56	226.73
935.86	226.61
936.16	226.50
936.46	226.53
936.76	226.53
937.06	226.49
937.36	226.56
937.66	226.55
937.96	226.55
938.26	226.41
938.56	226.35
938.86	226.32
939.16	226.51
939.46	226.57
939.76	226.62
940.06	226.60
940.35	226.45
940.65	226.25
940.95	226.27
941.25	226.22
941.55	226.20
941.85	226.15
942.15	226.24
942.45	226.38
942.75	226.28
943.04	226.31
943.34	226.35
943.64	226.30
943.94	226.18
944.24	226.18
944.54	226.23
944.84	226.21
945.13	226.15
945.43	225.92
945.73	225.85
946.03	225.76
946.33	225.78
946.62	225.83
946.92	225.78
947.22	225.84
947.52	225.85
947.82	225.90
948.11	225.88
948.41	225.84
948.71	225.67
949.01	225.73
949.31	225.67
949.60	225.65
949.90	225.64
950.20	225.64
950.50	225.64
950.79	225.62
951.09	225.69
951.39	225.71
951.69	225.71
951.98	225.76
952.28	225.88
952.58	225.84
952.87	225.83
953.17	225.94
953.47	225.90
953.76	225.82
954.06	225.75
954.36	225.64
954.66	225.60
954.95	225.70
955.25	225.70
955.55	225.75
955.84	225.62
956.14	225.74
956.44	225.71
956.73	225.61
957.03	225.60
957.32	225.57
957.62	225.50
957.92	225.58
958.21	225.59
958.51	226.13
958.81	226.17
959.10	226.18
959.40	226.18
959.69	226.20
959.99	226.23
960.29	226.16
960.58	226.21
960.88	226.38
961.17	226.39
961.47	226.40
961.76	226.35
962.06	226.50
962.36	226.41
962.65	226.47
962.95	226.54
963.24	226.55
963.54	226.57
963.83	226.70
964.13	226.66
964.42	226.51
964.72	226.07
965.01	226.07
965.31	226.01
965.60	225.96
965.90	226.28
966.19	226.26
966.49	226.31
966.78	226.34
967.08	226.20
967.37	226.15
967.67	226.10
967.96	226.26
968.26	226.21
968.55	226.22
968.85	226.17
969.14	226.09
969.43	226.08
969.73	226.04
970.02	225.93
970.32	225.94
970.61	225.97
970.91	225.80
971.20	225.65
971.49	225.65
971.79	225.68
972.08	225.23
972.38	225.25
972.67	225.22
972.96	225.25
973.26	225.23
973.55	225.37
973.85	225.31
974.14	225.28
974.43	225.28
974.73	225.23
975.02	225.25
975.31	225.27
975.61	225.27
975.90	225.24
976.19	225.22
976.49	225.20
976.78	225.17
977.07	225.24
977.37	225.45
977.66	225.56
977.95	225.53
978.24	225.67
978.54	225.85
978.83	225.79
979.12	225.80
979.42	225.80
979.71	225.71
980.00	225.79
980.29	225.76
980.59	225.71
980.88	225.86
981.17	225.89
981.46	225.88
981.76	225.92
982.05	226.08
982.34	226.15
982.63	226.25
982.93	226.28
983.22	226.35
983.51	226.32
983.80	226.39
984.09	226.41
984.39	226.31
984.68	226.16
984.97	226.19
985.26	226.11
985.55	226.17
985.85	226.05
986.14	226.12
986.43	226.20
986.72	226.15
987.01	225.95
987.30	225.96
987.59	225.93
987.89	225.88
988.18	225.74
988.47	225.67
988.76	225.57
989.05	225.54
989.34	225.53
989.63	225.63
989.92	225.50
990.22	225.36
990.51	225.45
990.80	225.41
991.09	225.42
991.38	225.50
991.67	225.42
991.96	225.40
992.25	225.32
992.54	225.14
992.83	225.19
993.12	225.24
993.41	225.27
993.70	225.55
993.99	225.58
994.28	225.61
994.58	225.70
994.87	225.65
995.16	225.64
995.45	225.57
995.74	225.45
996.03	225.55
996.32	225.75
996.61	225.79
996.90	225.78
997.19	225.85
997.48	225.84
997.77	225.80
998.06	225.85
998.34	225.83
998.63	225.89
998.92	225.92
999.21	225.95
999.50	225.92
999.79	225.74
1000.08	225.79
1000.37	225.77
1000.66	225.71
1000.95	225.85
1001.24	225.96
1001.53	225.95
1001.82	225.93
1002.11	225.75
1002.40	225.75
1002.68	225.84
1002.97	226.23
1003.26	226.15
1003.55	226.11
1003.84	226.15
1004.13	226.38
1004.42	226.39
1004.71	226.37
1004.99	226.31
1005.28	226.45
1005.57	226.44
1005.86	226.36
1006.15	226.33
1006.44	226.30
1006.72	226.31
1007.01	226.21
1007.30	226.18
1007.59	226.20
1007.88	226.13
1008.17	226.25
1008.45	226.09
1008.74	225.84
1009.03	225.54
1009.32	225.52
1009.60	225.55
1009.89	225.50
1010.18	225.24
1010.47	225.19
1010.76	225.17
1011.04	225.17
1011.33	225.14
1011.62	225.16
1011.91	225.19
1012.19	225.18
1012.48	225.25
1012.77	225.30
1013.05	225.58
1013.34	225.57
1013.63	225.51
1013.92	225.59
1014.20	225.46
1014.49	225.52
1014.78	225.63
1015.06	225.51
1015.35	225.50
1015.64	225.50
1015.92	225.61
1016.21	225.71
1016.50	225.69
1016.78	225.77
1017.07	225.77
1017.36	225.68
1017.64	225.60
1017.93	225.69
1018.22	225.68
1018.50	225.62
1018.79	225.56
1019.08	225.28
1019.36	225.30
1019.65	225.20
1019.93	225.33
1020.22	225.44
1020.51	225.70
1020.79	225.68
1021.08	225.05
1021.36	224.70
1021.65	225.05
1021.94	225.10
1022.22	226.05
1022.51	223.20
1022.79	228.15
1023.08	225.85
1023.36	231.45
1023.65	224.95
>>>>>End Processed Spectral Data<<<<<
