SpectraSuite Data File
++++++++++++++++++++++++++++++++++++
Date: Wed Sep 04 18:01:30 EDT 2013
User: lab3
Dark Spectrum Present: Yes
Reference Spectrum Present: No
Number of Sampled Component Spectra: 1
Spectrometers: USB2E7196
Integration Time (usec): 170000 (USB2E7196)
Spectra Averaged: 20 (USB2E7196)
Boxcar Smoothing: 10 (USB2E7196)
Correct for Electrical Dark: No (USB2E7196)
Strobe/Lamp Enabled: No (USB2E7196)
Correct for Detector Non-linearity: No (USB2E7196)
Correct for Stray Light: No (USB2E7196)
Number of Pixels in Processed Spectrum: 2048
>>>>>Begin Processed Spectral Data<<<<<
339.09	0.00
339.48	213.05
339.86	214.70
340.24	216.65
340.63	216.50
341.01	225.95
341.39	220.60
341.78	222.95
342.16	224.15
342.54	224.20
342.93	212.61
343.31	223.30
343.69	223.83
344.07	224.32
344.46	224.80
344.84	225.28
345.22	225.31
345.60	225.57
345.99	225.70
346.37	225.80
346.75	225.90
347.13	225.98
347.52	226.05
347.90	226.32
348.28	226.39
348.66	226.60
349.05	226.52
349.43	226.56
349.81	226.68
350.19	226.68
350.57	226.70
350.96	226.79
351.34	226.94
351.72	227.05
352.10	227.10
352.48	227.17
352.87	227.20
353.25	227.23
353.63	227.27
354.01	227.32
354.39	227.38
354.77	227.48
355.15	227.66
355.54	227.69
355.92	227.55
356.30	227.59
356.68	227.96
357.06	228.04
357.44	228.03
357.82	227.96
358.20	228.49
358.58	228.52
358.97	228.61
359.35	228.76
359.73	228.90
360.11	229.00
360.49	229.04
360.87	229.08
361.25	229.15
361.63	229.35
362.01	229.51
362.39	229.51
362.77	229.55
363.15	229.59
363.53	229.60
363.91	229.64
364.29	229.67
364.67	229.24
365.05	229.29
365.43	229.46
365.81	229.65
366.19	229.50
366.57	229.74
366.95	229.71
367.33	229.64
367.71	229.61
368.09	229.65
368.47	229.63
368.85	229.58
369.23	229.70
369.61	229.53
369.99	229.64
370.37	229.77
370.75	229.95
371.13	229.90
371.51	229.88
371.89	229.91
372.27	229.88
372.65	229.87
373.03	229.87
373.41	229.77
373.78	229.72
374.16	229.43
374.54	229.21
374.92	229.10
375.30	229.08
375.68	228.97
376.06	228.96
376.44	228.92
376.82	228.86
377.19	228.86
377.57	228.80
377.95	228.58
378.33	228.45
378.71	228.11
379.09	228.01
379.47	227.98
379.84	227.91
380.22	227.82
380.60	227.60
380.98	227.49
381.36	227.36
381.73	227.14
382.11	227.19
382.49	227.12
382.87	227.00
383.25	226.86
383.62	227.37
384.00	227.23
384.38	227.17
384.76	227.27
385.13	227.28
385.51	227.20
385.89	227.06
386.27	226.91
386.64	227.00
387.02	226.93
387.40	226.80
387.78	226.73
388.15	226.74
388.53	226.75
388.91	226.79
389.29	226.68
389.66	226.75
390.04	226.57
390.42	226.62
390.79	226.70
391.17	226.74
391.55	226.14
391.92	226.12
392.30	226.15
392.68	226.03
393.05	225.99
393.43	226.00
393.81	226.05
394.18	226.08
394.56	226.04
394.94	226.18
395.31	226.16
395.69	226.38
396.06	226.41
396.44	226.46
396.82	226.41
397.19	226.83
397.57	226.89
397.95	227.14
398.32	227.11
398.70	227.13
399.07	227.23
399.45	227.35
399.82	227.40
400.20	227.49
400.58	227.66
400.95	227.54
401.33	227.76
401.70	228.29
402.08	228.41
402.45	228.58
402.83	228.85
403.20	229.06
403.58	229.10
403.95	229.40
404.33	229.68
404.71	229.99
405.08	230.38
405.46	230.56
405.83	230.79
406.21	230.98
406.58	231.30
406.96	231.59
407.33	231.97
407.70	232.40
408.08	233.09
408.45	233.50
408.83	234.05
409.20	234.39
409.58	234.50
409.95	235.10
410.33	235.63
410.70	235.93
411.08	236.59
411.45	237.22
411.82	237.74
412.20	238.56
412.57	239.49
412.95	239.87
413.32	240.79
413.69	241.64
414.07	242.61
414.44	243.62
414.82	244.64
415.19	245.85
415.56	246.95
415.94	247.99
416.31	249.44
416.68	250.88
417.06	252.53
417.43	254.14
417.81	255.90
418.18	257.76
418.55	259.69
418.93	261.66
419.30	263.78
419.67	266.03
420.04	268.31
420.42	270.58
420.79	273.73
421.16	276.48
421.54	279.56
421.91	282.61
422.28	285.78
422.66	289.10
423.03	292.55
423.40	295.95
423.77	299.48
424.15	303.06
424.52	306.88
424.89	311.12
425.26	315.06
425.64	318.84
426.01	323.04
426.38	327.54
426.75	332.07
427.13	336.66
427.50	341.45
427.87	346.32
428.24	351.34
428.61	355.86
428.99	361.36
429.36	366.82
429.73	372.35
430.10	377.82
430.47	383.48
430.85	389.13
431.22	395.44
431.59	402.30
431.96	408.73
432.33	415.75
432.70	422.44
433.08	430.42
433.45	438.02
433.82	445.43
434.19	453.69
434.56	462.01
434.93	469.77
435.30	477.66
435.68	486.31
436.05	494.75
436.42	503.19
436.79	510.80
437.16	519.14
437.53	528.01
437.90	536.82
438.27	545.49
438.64	554.52
439.01	562.82
439.38	570.01
439.75	576.98
440.13	585.11
440.50	592.68
440.87	598.80
441.24	605.17
441.61	612.18
441.98	617.22
442.35	622.98
442.72	629.05
443.09	634.79
443.46	638.23
443.83	640.54
444.20	642.33
444.57	645.08
444.94	646.23
445.31	647.23
445.68	648.52
446.05	648.58
446.42	647.27
446.79	645.97
447.16	644.39
447.53	643.16
447.90	639.33
448.27	635.60
448.64	630.76
449.01	627.05
449.37	620.90
449.74	614.84
450.11	607.90
450.48	600.04
450.85	592.13
451.22	585.20
451.59	578.65
451.96	572.32
452.33	564.14
452.70	556.74
453.07	548.07
453.43	538.96
453.80	530.51
454.17	522.36
454.54	514.54
454.91	506.30
455.28	498.23
455.65	490.77
456.02	483.80
456.38	477.29
456.75	469.37
457.12	462.73
457.49	456.42
457.86	450.02
458.23	444.94
458.59	439.12
458.96	433.35
459.33	428.06
459.70	423.01
460.07	418.87
460.43	414.09
460.80	409.75
461.17	405.90
461.54	402.02
461.91	398.27
462.27	394.35
462.64	391.07
463.01	387.53
463.38	384.13
463.74	380.16
464.11	377.25
464.48	374.59
464.85	371.72
465.21	369.57
465.58	367.20
465.95	364.32
466.32	362.15
466.68	359.85
467.05	357.74
467.42	355.48
467.78	353.19
468.15	351.03
468.52	349.57
468.88	347.35
469.25	345.35
469.62	343.76
469.98	342.12
470.35	340.62
470.72	339.18
471.08	337.56
471.45	336.35
471.82	335.04
472.18	333.62
472.55	332.66
472.92	331.25
473.28	330.17
473.65	329.11
474.02	327.91
474.38	327.09
474.75	326.26
475.11	325.39
475.48	324.72
475.85	324.13
476.21	323.38
476.58	322.92
476.94	322.58
477.31	322.08
477.67	321.64
478.04	321.29
478.41	321.10
478.77	321.35
479.14	321.08
479.50	320.91
479.87	321.00
480.23	320.87
480.60	320.92
480.96	320.93
481.33	321.26
481.69	321.45
482.06	321.65
482.42	321.90
482.79	322.21
483.15	322.59
483.52	323.17
483.88	323.64
484.25	324.15
484.61	324.75
484.98	325.46
485.34	326.39
485.71	327.27
486.07	328.14
486.44	328.66
486.80	329.71
487.17	330.81
487.53	332.23
487.90	333.73
488.26	335.48
488.62	337.13
488.99	338.53
489.35	340.36
489.72	342.31
490.08	344.31
490.44	346.37
490.81	348.60
491.17	350.69
491.54	353.21
491.90	355.83
492.26	358.53
492.63	361.31
492.99	364.06
493.36	367.21
493.72	370.54
494.08	374.06
494.45	377.75
494.81	381.74
495.17	385.59
495.54	389.76
495.90	393.86
496.26	398.27
496.63	403.06
496.99	407.81
497.35	412.86
497.72	418.23
498.08	423.78
498.44	429.35
498.80	435.59
499.17	441.61
499.53	448.01
499.89	454.64
500.26	461.35
500.62	468.36
500.98	475.61
501.34	483.00
501.71	490.69
502.07	498.61
502.43	506.64
502.79	514.89
503.16	523.53
503.52	532.60
503.88	541.86
504.24	551.50
504.60	561.52
504.97	571.74
505.33	582.18
505.69	593.26
506.05	604.49
506.41	615.65
506.78	627.27
507.14	639.28
507.50	651.59
507.86	664.30
508.22	677.47
508.59	690.68
508.95	704.50
509.31	718.62
509.67	732.86
510.03	747.40
510.39	762.25
510.75	777.39
511.12	792.56
511.48	808.37
511.84	824.44
512.20	840.57
512.56	856.93
512.92	873.78
513.28	890.57
513.64	907.77
514.00	925.39
514.37	943.34
514.73	961.43
515.09	979.92
515.45	998.52
515.81	1017.18
516.17	1036.11
516.53	1054.76
516.89	1073.52
517.25	1092.93
517.61	1112.98
517.97	1133.55
518.33	1153.73
518.69	1174.26
519.05	1194.70
519.41	1215.27
519.77	1236.12
520.13	1257.10
520.49	1277.61
520.85	1300.17
521.21	1321.29
521.57	1342.69
521.93	1363.65
522.29	1385.00
522.65	1405.75
523.01	1426.45
523.37	1446.98
523.73	1467.99
524.09	1488.80
524.45	1509.88
524.81	1531.11
525.17	1551.85
525.53	1572.40
525.89	1593.24
526.25	1613.99
526.61	1634.70
526.97	1655.80
527.33	1677.50
527.68	1699.28
528.04	1720.77
528.40	1740.38
528.76	1761.66
529.12	1781.78
529.48	1802.61
529.84	1822.68
530.20	1844.02
530.56	1865.33
530.91	1886.55
531.27	1907.15
531.63	1927.83
531.99	1948.39
532.35	1968.51
532.71	1989.10
533.07	2009.58
533.42	2029.51
533.78	2049.90
534.14	2069.67
534.50	2088.92
534.86	2107.92
535.21	2125.56
535.57	2144.33
535.93	2162.17
536.29	2180.35
536.65	2199.21
537.00	2216.76
537.36	2234.53
537.72	2251.06
538.08	2268.00
538.44	2284.95
538.79	2301.25
539.15	2317.97
539.51	2333.83
539.87	2349.09
540.22	2363.31
540.58	2378.05
540.94	2391.63
541.29	2404.07
541.65	2416.77
542.01	2429.47
542.37	2440.34
542.72	2451.69
543.08	2462.35
543.44	2473.94
543.79	2483.75
544.15	2493.28
544.51	2503.87
544.87	2513.52
545.22	2522.07
545.58	2529.82
545.94	2537.00
546.29	2544.14
546.65	2550.06
547.01	2555.98
547.36	2561.58
547.72	2567.02
548.07	2570.81
548.43	2575.84
548.79	2580.58
549.14	2584.64
549.50	2588.42
549.86	2592.48
550.21	2596.37
550.57	2599.52
550.92	2600.99
551.28	2602.73
551.64	2605.06
551.99	2606.93
552.35	2608.41
552.70	2610.61
553.06	2612.56
553.41	2613.68
553.77	2615.21
554.13	2617.26
554.48	2618.78
554.84	2620.37
555.19	2621.35
555.55	2623.17
555.90	2622.96
556.26	2622.29
556.61	2620.88
556.97	2618.73
557.32	2618.16
557.68	2616.77
558.03	2615.76
558.39	2614.65
558.74	2613.78
559.10	2610.67
559.45	2607.19
559.81	2603.36
560.16	2598.43
560.52	2593.78
560.87	2589.58
561.23	2584.22
561.58	2578.35
561.94	2571.56
562.29	2564.02
562.64	2557.19
563.00	2549.01
563.35	2542.73
563.71	2536.24
564.06	2530.11
564.42	2523.47
564.77	2516.50
565.12	2508.95
565.48	2501.05
565.83	2493.36
566.19	2485.40
566.54	2477.80
566.89	2469.23
567.25	2461.15
567.60	2454.04
567.96	2446.42
568.31	2438.21
568.66	2429.56
569.02	2420.41
569.37	2412.16
569.72	2404.41
570.08	2395.14
570.43	2385.66
570.78	2376.15
571.14	2366.72
571.49	2356.66
571.84	2347.26
572.20	2336.37
572.55	2326.25
572.90	2315.25
573.26	2304.63
573.61	2293.34
573.96	2281.99
574.31	2270.40
574.67	2258.54
575.02	2245.87
575.37	2233.02
575.72	2219.79
576.08	2207.68
576.43	2194.98
576.78	2181.83
577.13	2168.09
577.49	2155.41
577.84	2143.45
578.19	2131.23
578.54	2118.47
578.90	2106.22
579.25	2093.87
579.60	2081.15
579.95	2068.22
580.30	2055.12
580.66	2041.77
581.01	2028.16
581.36	2014.34
581.71	2001.87
582.06	1989.05
582.42	1976.22
582.77	1963.64
583.12	1951.60
583.47	1939.21
583.82	1927.49
584.17	1915.31
584.53	1903.65
584.88	1890.67
585.23	1877.42
585.58	1863.09
585.93	1849.90
586.28	1836.61
586.63	1822.30
586.98	1808.29
587.34	1795.03
587.69	1781.58
588.04	1768.96
588.39	1756.77
588.74	1744.46
589.09	1731.96
589.44	1718.90
589.79	1707.13
590.14	1695.03
590.49	1682.77
590.84	1670.45
591.19	1658.38
591.54	1646.29
591.89	1633.95
592.25	1623.59
592.60	1612.28
592.95	1600.95
593.30	1588.71
593.65	1576.75
594.00	1565.00
594.35	1555.20
594.70	1543.23
595.05	1531.97
595.40	1519.65
595.75	1507.44
596.10	1496.19
596.45	1484.45
596.80	1473.47
597.15	1461.65
597.50	1449.72
597.85	1438.52
598.19	1426.93
598.54	1415.00
598.89	1403.59
599.24	1392.85
599.59	1381.15
599.94	1370.06
600.29	1359.76
600.64	1349.38
600.99	1338.52
601.34	1328.74
601.69	1317.25
602.04	1307.03
602.39	1297.34
602.74	1288.28
603.08	1279.15
603.43	1269.93
603.78	1260.46
604.13	1251.02
604.48	1241.20
604.83	1231.38
605.18	1221.40
605.53	1211.90
605.87	1202.81
606.22	1194.11
606.57	1184.96
606.92	1175.27
607.27	1166.18
607.62	1157.32
607.96	1148.74
608.31	1140.73
608.66	1132.51
609.01	1124.01
609.36	1115.65
609.70	1106.88
610.05	1097.95
610.40	1089.23
610.75	1080.23
611.10	1071.55
611.44	1062.78
611.79	1054.51
612.14	1046.82
612.49	1038.92
612.83	1031.12
613.18	1023.39
613.53	1015.73
613.88	1007.61
614.22	1000.07
614.57	992.05
614.92	984.17
615.27	976.70
615.61	968.99
615.96	961.02
616.31	953.42
616.65	946.37
617.00	939.11
617.35	931.81
617.70	924.63
618.04	917.59
618.39	910.67
618.74	904.23
619.08	897.33
619.43	890.08
619.78	883.08
620.12	875.94
620.47	868.82
620.82	861.41
621.16	854.59
621.51	848.26
621.85	841.92
622.20	834.98
622.55	828.02
622.89	821.46
623.24	815.15
623.59	808.67
623.93	802.15
624.28	795.93
624.62	790.30
624.97	784.48
625.32	778.57
625.66	772.55
626.01	766.40
626.35	760.81
626.70	755.34
627.04	749.76
627.39	744.23
627.73	738.92
628.08	733.90
628.43	728.35
628.77	722.53
629.12	717.14
629.46	712.28
629.81	707.57
630.15	702.70
630.50	697.70
630.84	692.76
631.19	688.01
631.53	683.29
631.88	678.02
632.22	672.99
632.57	668.40
632.91	663.75
633.26	659.28
633.60	654.51
633.95	649.73
634.29	645.13
634.64	640.50
634.98	635.55
635.32	631.00
635.67	627.00
636.01	622.86
636.36	618.66
636.70	614.60
637.05	610.32
637.39	606.24
637.73	602.04
638.08	598.14
638.42	593.88
638.77	589.59
639.11	585.16
639.45	580.85
639.80	576.50
640.14	572.35
640.49	568.32
640.83	564.53
641.17	560.77
641.52	556.92
641.86	553.34
642.20	550.07
642.55	546.30
642.89	542.57
643.23	539.09
643.58	535.91
643.92	532.25
644.26	528.84
644.61	525.50
644.95	522.24
645.29	518.68
645.64	515.62
645.98	512.62
646.32	509.72
646.66	506.72
647.01	503.70
647.35	500.99
647.69	498.07
648.04	495.23
648.38	492.41
648.72	489.52
649.06	486.59
649.41	483.59
649.75	480.70
650.09	477.73
650.43	474.79
650.78	471.76
651.12	468.93
651.46	466.24
651.80	463.38
652.14	460.55
652.49	458.11
652.83	455.44
653.17	452.70
653.51	450.02
653.85	447.62
654.20	445.19
654.54	442.45
654.88	439.96
655.22	437.68
655.56	435.26
655.90	432.98
656.25	430.72
656.59	428.55
656.93	426.35
657.27	424.40
657.61	422.10
657.95	419.89
658.29	417.65
658.64	415.34
658.98	413.06
659.32	410.89
659.66	408.64
660.00	406.45
660.34	404.33
660.68	402.20
661.02	400.05
661.36	397.97
661.70	395.95
662.05	393.92
662.39	391.82
662.73	389.99
663.07	388.29
663.41	386.40
663.75	384.43
664.09	382.59
664.43	380.60
664.77	378.97
665.11	377.23
665.45	375.65
665.79	374.08
666.13	372.43
666.47	370.69
666.81	369.02
667.15	367.21
667.49	365.71
667.83	364.49
668.17	363.07
668.51	361.58
668.85	360.20
669.19	358.97
669.53	357.49
669.87	355.97
670.21	354.38
670.55	353.02
670.89	351.82
671.23	350.42
671.57	349.00
671.91	347.64
672.25	346.30
672.58	345.00
672.92	343.65
673.26	342.32
673.60	341.08
673.94	339.88
674.28	338.91
674.62	337.80
674.96	336.41
675.30	335.19
675.64	334.00
675.97	332.76
676.31	331.37
676.65	330.25
676.99	329.28
677.33	328.20
677.67	327.09
678.01	325.75
678.34	324.67
678.68	323.70
679.02	322.60
679.36	321.57
679.70	320.54
680.04	319.56
680.37	318.63
680.71	317.77
681.05	316.85
681.39	315.90
681.73	314.83
682.06	313.92
682.40	312.99
682.74	312.14
683.08	311.40
683.42	310.57
683.75	309.75
684.09	308.79
684.43	307.93
684.77	307.02
685.10	306.25
685.44	305.47
685.78	304.66
686.12	303.90
686.45	303.10
686.79	302.19
687.13	301.56
687.46	300.81
687.80	300.08
688.14	299.25
688.48	298.46
688.81	297.80
689.15	297.11
689.49	296.39
689.82	295.72
690.16	294.87
690.50	294.20
690.83	293.43
691.17	292.64
691.51	291.95
691.84	291.40
692.18	290.82
692.52	290.15
692.85	289.58
693.19	289.15
693.52	288.47
693.86	287.83
694.20	286.98
694.53	286.41
694.87	285.68
695.21	285.11
695.54	284.53
695.88	283.86
696.21	283.14
696.55	282.56
696.88	282.02
697.22	281.41
697.56	280.94
697.89	280.41
698.23	279.89
698.56	279.32
698.90	278.80
699.23	278.16
699.57	277.59
699.90	276.99
700.24	276.28
700.58	275.91
700.91	275.57
701.25	275.54
701.58	275.38
701.92	275.07
702.25	274.61
702.59	274.05
702.92	273.62
703.26	273.17
703.59	272.67
703.93	272.55
704.26	272.11
704.60	271.63
704.93	271.11
705.26	270.63
705.60	270.30
705.93	269.77
706.27	269.57
706.60	269.36
706.94	269.19
707.27	268.75
707.61	268.33
707.94	267.89
708.27	267.20
708.61	266.46
708.94	266.06
709.28	265.63
709.61	265.29
709.94	264.93
710.28	264.65
710.61	264.32
710.95	263.45
711.28	263.48
711.61	263.03
711.95	262.83
712.28	262.45
712.61	262.08
712.95	261.96
713.28	261.74
713.61	261.27
713.95	260.82
714.28	260.54
714.61	260.06
714.95	259.66
715.28	259.21
715.61	258.86
715.95	258.52
716.28	258.17
716.61	257.88
716.95	257.53
717.28	257.19
717.61	256.88
717.94	256.66
718.28	255.98
718.61	255.78
718.94	255.35
719.27	255.10
719.61	254.89
719.94	254.52
720.27	254.04
720.60	253.73
720.94	253.44
721.27	253.23
721.60	253.11
721.93	252.96
722.27	252.95
722.60	252.70
722.93	252.42
723.26	252.26
723.59	252.05
723.93	251.96
724.26	251.85
724.59	251.58
724.92	251.42
725.25	251.37
725.59	251.07
725.92	251.01
726.25	250.83
726.58	250.60
726.91	250.32
727.24	250.19
727.57	250.07
727.91	249.85
728.24	249.66
728.57	249.36
728.90	249.18
729.23	248.84
729.56	248.98
729.89	248.87
730.22	248.68
730.55	248.46
730.89	248.26
731.22	247.93
731.55	247.77
731.88	247.63
732.21	247.38
732.54	247.18
732.87	246.91
733.20	246.71
733.53	246.47
733.86	246.37
734.19	246.15
734.52	245.98
734.85	246.11
735.18	245.88
735.51	245.98
735.84	245.91
736.17	245.82
736.50	245.35
736.83	245.76
737.16	245.62
737.49	245.46
737.82	245.27
738.15	245.28
738.48	245.17
738.81	244.94
739.14	244.74
739.47	244.65
739.80	244.52
740.13	244.39
740.46	244.27
740.79	243.96
741.12	243.75
741.45	243.56
741.78	243.14
742.11	243.10
742.44	242.79
742.77	242.66
743.10	242.50
743.43	242.27
743.75	241.58
744.08	242.10
744.41	241.89
744.74	241.68
745.07	241.40
745.40	241.29
745.73	241.33
746.06	241.15
746.39	241.05
746.71	240.86
747.04	240.70
747.37	240.52
747.70	240.60
748.03	240.50
748.36	240.43
748.68	240.35
749.01	240.11
749.34	240.00
749.67	239.80
750.00	239.78
750.33	240.10
750.65	240.04
750.98	239.22
751.31	239.21
751.64	239.15
751.97	239.26
752.29	239.06
752.62	238.79
752.95	238.65
753.28	238.39
753.60	238.31
753.93	238.30
754.26	238.26
754.59	237.95
754.91	237.85
755.24	237.64
755.57	237.50
755.90	237.36
756.22	237.14
756.55	236.96
756.88	236.70
757.20	236.20
757.53	235.93
757.86	235.85
758.19	235.73
758.51	235.60
758.84	235.26
759.17	235.17
759.49	235.16
759.82	235.35
760.15	235.36
760.47	235.27
760.80	235.09
761.13	235.06
761.45	235.00
761.78	234.88
762.11	234.85
762.43	234.69
762.76	234.60
763.08	234.66
763.41	234.65
763.74	234.57
764.06	234.56
764.39	234.49
764.71	234.40
765.04	234.32
765.37	234.33
765.69	234.28
766.02	234.25
766.34	234.08
766.67	233.81
767.00	233.83
767.32	234.02
767.65	234.26
767.97	234.16
768.30	234.15
768.62	234.16
768.95	234.04
769.27	233.98
769.60	234.10
769.92	233.93
770.25	233.79
770.57	233.73
770.90	233.65
771.22	233.61
771.55	233.65
771.87	233.63
772.20	233.51
772.52	233.88
772.85	234.38
773.17	234.35
773.50	234.31
773.82	234.21
774.15	233.92
774.47	233.56
774.80	233.45
775.12	233.35
775.45	233.27
775.77	233.31
776.09	233.32
776.42	233.16
776.74	233.33
777.07	233.34
777.39	233.27
777.72	233.20
778.04	233.26
778.36	233.11
778.69	233.09
779.01	233.04
779.33	232.69
779.66	232.09
779.98	232.00
780.31	231.95
780.63	232.08
780.95	232.13
781.28	232.13
781.60	232.05
781.92	232.02
782.25	231.96
782.57	231.85
782.89	231.82
783.22	231.68
783.54	231.50
783.86	231.50
784.19	231.39
784.51	231.52
784.83	231.29
785.16	231.23
785.48	231.09
785.80	231.04
786.12	230.87
786.45	230.85
786.77	230.83
787.09	230.75
787.42	230.54
787.74	230.54
788.06	230.46
788.38	230.36
788.71	230.29
789.03	230.17
789.35	230.20
789.67	230.05
789.99	230.09
790.32	229.98
790.64	229.90
790.96	230.30
791.28	230.08
791.61	230.06
791.93	230.01
792.25	229.97
792.57	230.22
792.89	230.18
793.21	230.12
793.54	230.06
793.86	229.97
794.18	229.90
794.50	229.71
794.82	229.64
795.14	229.71
795.47	229.77
795.79	229.85
796.11	229.73
796.43	229.67
796.75	229.68
797.07	229.74
797.39	229.65
797.71	229.24
798.04	229.35
798.36	229.41
798.68	229.40
799.00	229.44
799.32	229.26
799.64	229.25
799.96	229.26
800.28	229.28
800.60	229.32
800.92	229.37
801.24	229.33
801.56	229.40
801.89	229.34
802.21	229.30
802.53	229.21
802.85	229.35
803.17	229.64
803.49	229.54
803.81	229.40
804.13	229.43
804.45	229.44
804.77	229.42
805.09	229.40
805.41	229.42
805.73	229.31
806.05	229.15
806.37	229.17
806.69	229.10
807.01	229.11
807.33	229.10
807.65	228.95
807.97	229.27
808.28	229.17
808.60	229.20
808.92	229.17
809.24	229.40
809.56	229.33
809.88	229.17
810.20	229.29
810.52	229.38
810.84	229.32
811.16	229.23
811.48	229.12
811.80	229.27
812.12	229.19
812.43	229.30
812.75	229.37
813.07	229.33
813.39	229.37
813.71	229.29
814.03	229.26
814.35	229.31
814.67	228.99
814.98	229.02
815.30	229.02
815.62	228.91
815.94	228.60
816.26	228.80
816.58	228.71
816.89	228.68
817.21	228.55
817.53	228.59
817.85	228.63
818.17	228.62
818.48	228.43
818.80	228.55
819.12	228.49
819.44	228.32
819.76	228.21
820.07	228.21
820.39	228.21
820.71	228.20
821.03	228.08
821.34	228.07
821.66	228.13
821.98	228.18
822.30	228.16
822.61	228.45
822.93	228.22
823.25	228.17
823.57	228.02
823.88	228.14
824.20	228.09
824.52	228.18
824.83	228.15
825.15	228.08
825.47	228.06
825.79	228.02
826.10	228.04
826.42	228.09
826.74	228.03
827.05	227.97
827.37	228.00
827.69	228.03
828.00	228.05
828.32	227.97
828.64	227.87
828.95	228.10
829.27	227.95
829.58	227.92
829.90	227.94
830.22	228.00
830.53	227.91
830.85	227.79
831.17	227.63
831.48	227.70
831.80	227.66
832.11	227.58
832.43	227.59
832.75	227.50
833.06	227.72
833.38	227.64
833.69	227.64
834.01	227.62
834.32	227.56
834.64	227.51
834.96	227.59
835.27	227.55
835.59	227.40
835.90	227.30
836.22	227.25
836.53	227.15
836.85	227.10
837.16	227.49
837.48	227.56
837.79	227.67
838.11	227.65
838.42	227.64
838.74	227.66
839.05	227.61
839.37	227.69
839.68	227.37
840.00	227.32
840.31	227.38
840.63	227.40
840.94	227.41
841.26	227.36
841.57	227.31
841.88	227.34
842.20	227.26
842.51	227.27
842.83	227.26
843.14	227.70
843.46	227.79
843.77	227.52
844.08	227.50
844.40	227.39
844.71	227.24
845.03	227.24
845.34	227.24
845.65	227.22
845.97	227.21
846.28	227.29
846.60	227.36
846.91	227.25
847.22	227.16
847.54	227.23
847.85	227.31
848.16	227.33
848.48	227.29
848.79	227.48
849.10	227.52
849.42	227.57
849.73	227.16
850.04	227.06
850.36	226.96
850.67	227.07
850.98	227.14
851.30	227.24
851.61	227.29
851.92	227.26
852.23	227.39
852.55	227.42
852.86	227.46
853.17	227.48
853.49	227.66
853.80	227.85
854.11	227.97
854.42	228.00
854.74	227.87
855.05	227.92
855.36	227.67
855.67	227.73
855.99	227.77
856.30	228.29
856.61	228.34
856.92	228.36
857.23	228.31
857.55	228.28
857.86	228.26
858.17	228.36
858.48	228.36
858.79	228.30
859.11	228.35
859.42	228.26
859.73	228.24
860.04	228.18
860.35	227.98
860.66	227.81
860.98	227.78
861.29	227.89
861.60	227.81
861.91	227.94
862.22	227.84
862.53	227.71
862.84	227.21
863.16	227.29
863.47	227.26
863.78	227.25
864.09	227.30
864.40	227.33
864.71	227.31
865.02	227.40
865.33	227.34
865.64	227.26
865.95	227.20
866.27	227.45
866.58	227.42
866.89	227.44
867.20	227.41
867.51	227.34
867.82	227.24
868.13	227.36
868.44	227.25
868.75	227.32
869.06	227.37
869.37	227.38
869.68	227.21
869.99	227.21
870.30	227.24
870.61	227.24
870.92	227.11
871.23	227.08
871.54	227.02
871.85	227.09
872.16	227.08
872.47	227.15
872.78	226.88
873.09	226.90
873.40	226.87
873.71	226.90
874.02	226.97
874.33	226.99
874.64	226.90
874.95	227.00
875.26	226.92
875.56	226.89
875.87	226.85
876.18	226.79
876.49	227.34
876.80	227.24
877.11	227.15
877.42	227.16
877.73	227.08
878.04	227.01
878.35	227.08
878.66	227.12
878.96	227.08
879.27	227.02
879.58	227.05
879.89	227.00
880.20	227.16
880.51	227.08
880.82	227.05
881.12	227.06
881.43	227.00
881.74	226.94
882.05	226.98
882.36	227.02
882.67	227.15
882.97	226.56
883.28	226.58
883.59	226.58
883.90	226.74
884.21	226.79
884.51	226.84
884.82	226.77
885.13	226.77
885.44	226.68
885.74	226.79
886.05	226.71
886.36	226.76
886.67	226.60
886.98	226.88
887.28	226.93
887.59	226.92
887.90	226.94
888.20	226.89
888.51	226.88
888.82	226.77
889.13	226.75
889.43	227.13
889.74	227.12
890.05	227.08
890.35	226.97
890.66	226.89
890.97	226.87
891.28	226.80
891.58	226.89
891.89	227.04
892.20	226.99
892.50	226.94
892.81	226.88
893.12	226.89
893.42	226.64
893.73	226.74
894.04	226.70
894.34	226.67
894.65	226.72
894.95	226.70
895.26	226.84
895.57	227.09
895.87	226.65
896.18	226.72
896.48	226.76
896.79	226.80
897.10	226.94
897.40	226.90
897.71	226.98
898.01	226.84
898.32	226.88
898.63	226.84
898.93	226.93
899.24	226.98
899.54	226.94
899.85	226.95
900.15	226.85
900.46	226.87
900.76	226.94
901.07	226.89
901.38	226.91
901.68	226.98
901.99	226.71
902.29	226.80
902.60	226.71
902.90	226.66
903.21	226.61
903.51	226.58
903.82	226.74
904.12	226.77
904.43	226.77
904.73	226.74
905.03	226.75
905.34	227.16
905.64	227.15
905.95	227.21
906.25	227.12
906.56	227.11
906.86	227.10
907.17	227.06
907.47	227.09
907.77	227.06
908.08	226.87
908.38	226.92
908.69	226.88
908.99	226.99
909.30	227.06
909.60	227.04
909.90	227.08
910.21	226.91
910.51	226.83
910.81	226.88
911.12	226.85
911.42	226.92
911.73	226.45
912.03	226.53
912.33	226.60
912.64	226.70
912.94	226.62
913.24	226.60
913.55	226.57
913.85	226.64
914.15	226.70
914.46	226.76
914.76	226.69
915.06	226.70
915.37	226.61
915.67	226.60
915.97	226.58
916.27	226.45
916.58	226.49
916.88	226.48
917.18	226.45
917.49	226.81
917.79	226.78
918.09	226.81
918.39	226.84
918.70	226.80
919.00	226.85
919.30	227.11
919.60	227.10
919.91	227.06
920.21	227.04
920.51	226.99
920.81	226.97
921.12	227.10
921.42	227.05
921.72	227.10
922.02	227.09
922.32	227.25
922.63	227.30
922.93	227.44
923.23	227.46
923.53	227.42
923.83	227.14
924.13	227.14
924.44	227.15
924.74	227.22
925.04	227.36
925.34	227.29
925.64	227.10
925.94	227.15
926.24	227.46
926.55	227.41
926.85	227.43
927.15	227.46
927.45	227.33
927.75	227.41
928.05	227.51
928.35	227.41
928.65	227.43
928.95	227.43
929.26	227.33
929.56	227.38
929.86	227.43
930.16	227.34
930.46	227.32
930.76	227.31
931.06	227.12
931.36	226.94
931.66	227.04
931.96	227.09
932.26	227.07
932.56	226.82
932.86	226.95
933.16	226.93
933.46	226.84
933.76	226.85
934.06	227.01
934.36	227.10
934.66	227.19
934.96	227.13
935.26	227.15
935.56	227.13
935.86	227.03
936.16	226.92
936.46	226.91
936.76	226.92
937.06	226.94
937.36	227.04
937.66	227.02
937.96	226.95
938.26	226.86
938.56	226.88
938.86	226.94
939.16	227.04
939.46	227.11
939.76	227.24
940.06	227.27
940.35	227.05
940.65	226.82
940.95	226.78
941.25	226.75
941.55	226.70
941.85	226.67
942.15	226.79
942.45	226.97
942.75	226.98
943.04	226.98
943.34	227.04
943.64	226.97
943.94	226.96
944.24	226.96
944.54	227.04
944.84	226.98
945.13	226.90
945.43	226.71
945.73	226.71
946.03	226.56
946.33	226.49
946.62	226.56
946.92	226.53
947.22	226.62
947.52	226.61
947.82	226.68
948.11	226.73
948.41	226.59
948.71	226.48
949.01	226.54
949.31	226.49
949.60	226.42
949.90	226.52
950.20	226.52
950.50	226.54
950.79	226.48
951.09	226.58
951.39	226.54
951.69	226.52
951.98	226.62
952.28	226.71
952.58	226.72
952.87	226.67
953.17	226.77
953.47	226.71
953.76	226.75
954.06	226.64
954.36	226.58
954.66	226.64
954.95	226.74
955.25	226.79
955.55	226.80
955.84	226.76
956.14	226.69
956.44	226.78
956.73	226.82
957.03	226.87
957.32	226.82
957.62	226.88
957.92	226.92
958.21	226.84
958.51	227.36
958.81	227.42
959.10	227.46
959.40	227.57
959.69	227.63
959.99	227.70
960.29	227.68
960.58	227.66
960.88	227.87
961.17	227.74
961.47	227.71
961.76	227.73
962.06	227.81
962.36	227.77
962.65	227.74
962.95	227.65
963.24	227.59
963.54	227.56
963.83	227.56
964.13	227.57
964.42	227.45
964.72	227.06
965.01	227.05
965.31	227.01
965.60	226.84
965.90	227.08
966.19	226.92
966.49	227.00
966.78	226.98
967.08	226.89
967.37	226.97
967.67	226.87
967.96	226.94
968.26	226.87
968.55	226.90
968.85	226.89
969.14	226.88
969.43	226.86
969.73	226.85
970.02	226.84
970.32	226.80
970.61	226.78
970.91	226.60
971.20	226.53
971.49	226.51
971.79	226.60
972.08	226.25
972.38	226.26
972.67	226.23
972.96	226.34
973.26	226.22
973.55	226.34
973.85	226.35
974.14	226.27
974.43	226.33
974.73	226.23
975.02	226.21
975.31	226.19
975.61	226.20
975.90	226.21
976.19	226.18
976.49	226.19
976.78	226.21
977.07	226.31
977.37	226.36
977.66	226.41
977.95	226.34
978.24	226.43
978.54	226.49
978.83	226.49
979.12	226.36
979.42	226.32
979.71	226.26
980.00	226.22
980.29	226.28
980.59	226.18
980.88	226.43
981.17	226.40
981.46	226.40
981.76	226.34
982.05	226.49
982.34	226.52
982.63	226.52
982.93	226.59
983.22	226.67
983.51	226.70
983.80	226.71
984.09	226.78
984.39	226.70
984.68	226.68
984.97	226.68
985.26	226.70
985.55	226.88
985.85	226.78
986.14	226.91
986.43	226.97
986.72	226.94
987.01	226.71
987.30	226.65
987.59	226.63
987.89	226.74
988.18	226.59
988.47	226.53
988.76	226.55
989.05	226.45
989.34	226.38
989.63	226.49
989.92	226.38
990.22	226.30
990.51	226.32
990.80	226.30
991.09	226.32
991.38	226.41
991.67	226.32
991.96	226.28
992.25	226.30
992.54	226.15
992.83	226.20
993.12	226.23
993.41	226.38
993.70	226.60
993.99	226.63
994.28	226.66
994.58	226.80
994.87	226.75
995.16	226.81
995.45	226.73
995.74	226.51
996.03	226.69
996.32	226.82
996.61	226.88
996.90	226.83
997.19	226.85
997.48	226.78
997.77	226.65
998.06	226.63
998.34	226.57
998.63	226.56
998.92	226.54
999.21	226.60
999.50	226.53
999.79	226.34
1000.08	226.34
1000.37	226.34
1000.66	226.25
1000.95	226.34
1001.24	226.28
1001.53	226.42
1001.82	226.41
1002.11	226.25
1002.40	226.23
1002.68	226.40
1002.97	226.75
1003.26	226.72
1003.55	226.69
1003.84	226.73
1004.13	226.92
1004.42	226.91
1004.71	226.98
1004.99	226.92
1005.28	227.06
1005.57	227.05
1005.86	226.98
1006.15	226.93
1006.44	226.85
1006.72	226.89
1007.01	226.80
1007.30	226.79
1007.59	226.72
1007.88	226.79
1008.17	226.80
1008.45	226.68
1008.74	226.42
1009.03	226.24
1009.32	226.19
1009.60	226.14
1009.89	226.10
1010.18	225.96
1010.47	225.96
1010.76	225.97
1011.04	225.98
1011.33	225.99
1011.62	226.06
1011.91	226.13
1012.19	226.12
1012.48	226.14
1012.77	226.13
1013.05	226.35
1013.34	226.43
1013.63	226.36
1013.92	226.35
1014.20	226.30
1014.49	226.39
1014.78	226.40
1015.06	226.19
1015.35	226.25
1015.64	226.34
1015.92	226.39
1016.21	226.32
1016.50	226.31
1016.78	226.26
1017.07	226.30
1017.36	226.23
1017.64	226.08
1017.93	226.14
1018.22	226.09
1018.50	226.07
1018.79	226.00
1019.08	225.80
1019.36	225.75
1019.65	225.75
1019.93	225.88
1020.22	226.05
1020.51	226.27
1020.79	226.26
1021.08	225.05
1021.36	224.90
1021.65	225.55
1021.94	226.30
1022.22	225.75
1022.51	225.30
1022.79	228.65
1023.08	227.95
1023.36	232.25
1023.65	225.25
>>>>>End Processed Spectral Data<<<<<
