SpectraSuite Data File
++++++++++++++++++++++++++++++++++++
Date: Wed Sep 04 18:00:52 EDT 2013
User: lab3
Dark Spectrum Present: Yes
Reference Spectrum Present: No
Number of Sampled Component Spectra: 1
Spectrometers: USB2E7196
Integration Time (usec): 170000 (USB2E7196)
Spectra Averaged: 20 (USB2E7196)
Boxcar Smoothing: 10 (USB2E7196)
Correct for Electrical Dark: No (USB2E7196)
Strobe/Lamp Enabled: No (USB2E7196)
Correct for Detector Non-linearity: No (USB2E7196)
Correct for Stray Light: No (USB2E7196)
Number of Pixels in Processed Spectrum: 2048
>>>>>Begin Processed Spectral Data<<<<<
339.09	0.00
339.48	213.70
339.86	215.30
340.24	215.85
340.63	217.85
341.01	226.30
341.39	220.10
341.78	222.55
342.16	223.45
342.54	222.75
342.93	212.50
343.31	223.19
343.69	223.75
344.07	224.20
344.46	224.74
344.84	225.14
345.22	225.11
345.60	225.42
345.99	225.64
346.37	225.81
346.75	225.92
347.13	225.95
347.52	226.00
347.90	226.23
348.28	226.27
348.66	226.46
349.05	226.34
349.43	226.46
349.81	226.50
350.19	226.63
350.57	226.69
350.96	226.80
351.34	226.92
351.72	226.97
352.10	227.08
352.48	227.08
352.87	227.12
353.25	227.18
353.63	227.15
354.01	227.12
354.39	227.22
354.77	227.38
355.15	227.64
355.54	227.63
355.92	227.45
356.30	227.52
356.68	227.80
357.06	227.90
357.44	227.87
357.82	227.93
358.20	228.39
358.58	228.37
358.97	228.46
359.35	228.62
359.73	228.81
360.11	228.90
360.49	228.98
360.87	229.00
361.25	229.15
361.63	229.39
362.01	229.56
362.39	229.53
362.77	229.60
363.15	229.58
363.53	229.61
363.91	229.74
364.29	229.78
364.67	229.38
365.05	229.43
365.43	229.54
365.81	229.61
366.19	229.45
366.57	229.70
366.95	229.74
367.33	229.58
367.71	229.56
368.09	229.55
368.47	229.55
368.85	229.52
369.23	229.57
369.61	229.34
369.99	229.40
370.37	229.45
370.75	229.66
371.13	229.56
371.51	229.54
371.89	229.56
372.27	229.59
372.65	229.66
373.03	229.57
373.41	229.47
373.78	229.40
374.16	229.07
374.54	228.86
374.92	228.75
375.30	228.75
375.68	228.65
376.06	228.70
376.44	228.66
376.82	228.70
377.19	228.66
377.57	228.70
377.95	228.54
378.33	228.42
378.71	228.04
379.09	228.09
379.47	228.11
379.84	228.04
380.22	227.94
380.60	227.74
380.98	227.68
381.36	227.65
381.73	227.49
382.11	227.49
382.49	227.49
382.87	227.39
383.25	227.36
383.62	227.80
384.00	227.55
384.38	227.50
384.76	227.49
385.13	227.57
385.51	227.50
385.89	227.35
386.27	227.30
386.64	227.34
387.02	227.21
387.40	227.09
387.78	226.98
388.15	226.88
388.53	226.79
388.91	226.76
389.29	226.67
389.66	226.77
390.04	226.65
390.42	226.67
390.79	226.64
391.17	226.62
391.55	226.13
391.92	226.15
392.30	226.21
392.68	226.16
393.05	226.13
393.43	226.10
393.81	226.14
394.18	226.16
394.56	226.18
394.94	226.31
395.31	226.30
395.69	226.54
396.06	226.71
396.44	226.87
396.82	226.88
397.19	227.18
397.57	227.08
397.95	227.25
398.32	227.14
398.70	227.27
399.07	227.43
399.45	227.45
399.82	227.56
400.20	227.55
400.58	227.54
400.95	227.43
401.33	227.64
401.70	228.11
402.08	228.24
402.45	228.35
402.83	228.59
403.20	228.77
403.58	228.83
403.95	229.04
404.33	229.28
404.71	229.60
405.08	230.04
405.46	230.35
405.83	230.63
406.21	230.91
406.58	231.26
406.96	231.48
407.33	231.89
407.70	232.30
408.08	233.07
408.45	233.56
408.83	234.08
409.20	234.43
409.58	234.58
409.95	235.14
410.33	235.68
410.70	236.02
411.08	236.67
411.45	237.25
411.82	237.76
412.20	238.52
412.57	239.45
412.95	239.79
413.32	240.68
413.69	241.49
414.07	242.37
414.44	243.32
414.82	244.42
415.19	245.58
415.56	246.74
415.94	247.75
416.31	249.25
416.68	250.60
417.06	252.26
417.43	253.88
417.81	255.55
418.18	257.41
418.55	259.40
418.93	261.46
419.30	263.59
419.67	265.93
420.04	268.27
420.42	270.50
420.79	273.57
421.16	276.36
421.54	279.50
421.91	282.61
422.28	285.68
422.66	288.96
423.03	292.43
423.40	295.86
423.77	299.42
424.15	302.96
424.52	306.86
424.89	311.08
425.26	315.11
425.64	319.01
426.01	323.26
426.38	327.69
426.75	332.17
427.13	336.82
427.50	341.67
427.87	346.60
428.24	351.65
428.61	356.17
428.99	361.53
429.36	366.97
429.73	372.55
430.10	378.16
430.47	383.92
430.85	389.67
431.22	395.81
431.59	402.67
431.96	409.01
432.33	415.95
432.70	422.60
433.08	430.53
433.45	438.02
433.82	445.40
434.19	453.65
434.56	462.01
434.93	469.58
435.30	477.38
435.68	485.97
436.05	494.39
436.42	502.95
436.79	510.70
437.16	519.10
437.53	527.81
437.90	536.52
438.27	545.16
438.64	554.20
439.01	562.54
439.38	569.71
439.75	576.93
440.13	585.03
440.50	592.65
440.87	598.71
441.24	605.06
441.61	612.22
441.98	617.31
442.35	623.08
442.72	629.33
443.09	635.06
443.46	638.46
443.83	640.65
444.20	642.55
444.57	645.26
444.94	646.34
445.31	647.55
445.68	649.09
446.05	649.25
446.42	647.57
446.79	646.11
447.16	644.57
447.53	643.21
447.90	639.40
448.27	635.56
448.64	630.78
449.01	626.98
449.37	620.58
449.74	614.34
450.11	607.29
450.48	599.41
450.85	591.36
451.22	584.50
451.59	577.96
451.96	571.50
452.33	563.22
452.70	555.88
453.07	547.05
453.43	537.73
453.80	529.28
454.17	521.38
454.54	513.58
454.91	505.28
455.28	497.23
455.65	489.71
456.02	482.97
456.38	476.52
456.75	468.76
457.12	462.28
457.49	456.02
457.86	449.60
458.23	444.37
458.59	438.70
458.96	432.85
459.33	427.67
459.70	422.50
460.07	418.51
460.43	413.86
460.80	409.63
461.17	405.85
461.54	401.74
461.91	397.94
462.27	394.09
462.64	390.73
463.01	387.22
463.38	383.94
463.74	379.91
464.11	376.84
464.48	374.24
464.85	371.34
465.21	369.21
465.58	366.94
465.95	364.14
466.32	361.76
466.68	359.49
467.05	357.32
467.42	355.14
467.78	352.75
468.15	350.50
468.52	348.91
468.88	346.67
469.25	344.89
469.62	343.42
469.98	341.84
470.35	340.44
470.72	339.00
471.08	337.40
471.45	336.07
471.82	334.85
472.18	333.32
472.55	332.30
472.92	331.05
473.28	329.88
473.65	328.80
474.02	327.77
474.38	326.91
474.75	326.11
475.11	325.24
475.48	324.70
475.85	324.10
476.21	323.43
476.58	322.92
476.94	322.41
477.31	321.99
477.67	321.60
478.04	321.22
478.41	320.97
478.77	321.20
479.14	320.93
479.50	320.72
479.87	320.81
480.23	320.80
480.60	320.81
480.96	320.90
481.33	321.22
481.69	321.48
482.06	321.74
482.42	322.02
482.79	322.47
483.15	322.75
483.52	323.35
483.88	323.84
484.25	324.48
484.61	325.13
484.98	325.67
485.34	326.64
485.71	327.59
486.07	328.53
486.44	329.16
486.80	330.27
487.17	331.37
487.53	332.77
487.90	334.21
488.26	335.79
488.62	337.46
488.99	338.91
489.35	340.64
489.72	342.44
490.08	344.42
490.44	346.28
490.81	348.51
491.17	350.60
491.54	353.01
491.90	355.46
492.26	358.09
492.63	360.85
492.99	363.61
493.36	366.71
493.72	370.04
494.08	373.44
494.45	377.21
494.81	381.20
495.17	385.03
495.54	389.18
495.90	393.36
496.26	397.74
496.63	402.49
496.99	407.36
497.35	412.54
497.72	417.88
498.08	423.58
498.44	429.33
498.80	435.42
499.17	441.46
499.53	447.82
499.89	454.55
500.26	461.46
500.62	468.53
500.98	475.88
501.34	483.43
501.71	491.17
502.07	498.81
502.43	506.86
502.79	515.21
503.16	523.95
503.52	532.88
503.88	542.31
504.24	552.06
504.60	562.08
504.97	572.27
505.33	582.64
505.69	593.62
506.05	604.65
506.41	616.07
506.78	627.80
507.14	639.80
507.50	652.10
507.86	664.65
508.22	677.79
508.59	690.66
508.95	704.27
509.31	718.46
509.67	733.00
510.03	747.39
510.39	762.36
510.75	777.42
511.12	792.76
511.48	808.48
511.84	824.42
512.20	840.15
512.56	856.50
512.92	873.37
513.28	890.35
513.64	907.82
514.00	925.35
514.37	943.36
514.73	961.70
515.09	980.12
515.45	998.68
515.81	1017.12
516.17	1036.25
516.53	1054.90
516.89	1073.59
517.25	1092.99
517.61	1113.20
517.97	1133.27
518.33	1153.36
518.69	1173.77
519.05	1194.19
519.41	1214.65
519.77	1236.16
520.13	1257.11
520.49	1277.77
520.85	1299.92
521.21	1320.99
521.57	1342.47
521.93	1363.14
522.29	1384.50
522.65	1405.26
523.01	1426.38
523.37	1447.30
523.73	1468.38
524.09	1489.15
524.45	1510.04
524.81	1530.93
525.17	1551.58
525.53	1572.30
525.89	1593.37
526.25	1614.53
526.61	1635.17
526.97	1656.40
527.33	1677.77
527.68	1699.66
528.04	1721.17
528.40	1741.00
528.76	1762.22
529.12	1782.59
529.48	1803.61
529.84	1823.57
530.20	1844.63
530.56	1865.37
530.91	1886.17
531.27	1906.75
531.63	1927.57
531.99	1948.34
532.35	1968.62
532.71	1989.15
533.07	2010.14
533.42	2030.03
533.78	2050.01
534.14	2069.87
534.50	2088.98
534.86	2107.78
535.21	2125.62
535.57	2144.49
535.93	2162.40
536.29	2180.26
536.65	2198.31
537.00	2216.02
537.36	2233.87
537.72	2250.43
538.08	2267.75
538.44	2284.46
538.79	2301.06
539.15	2317.50
539.51	2333.42
539.87	2348.50
540.22	2362.84
540.58	2376.93
540.94	2390.62
541.29	2403.14
541.65	2415.77
542.01	2428.61
542.37	2439.43
542.72	2450.39
543.08	2461.00
543.44	2472.58
543.79	2482.69
544.15	2492.68
544.51	2502.95
544.87	2512.48
545.22	2521.56
545.58	2529.19
545.94	2536.86
546.29	2543.31
546.65	2549.79
547.01	2555.34
547.36	2561.12
547.72	2566.45
548.07	2570.58
548.43	2575.71
548.79	2580.56
549.14	2584.72
549.50	2588.33
549.86	2592.49
550.21	2596.16
550.57	2599.74
550.92	2601.38
551.28	2603.06
551.64	2605.48
551.99	2607.44
552.35	2609.42
552.70	2611.18
553.06	2613.14
553.41	2614.21
553.77	2616.16
554.13	2617.99
554.48	2619.72
554.84	2621.38
555.19	2622.64
555.55	2624.33
555.90	2623.51
556.26	2622.84
556.61	2621.49
556.97	2619.63
557.32	2619.25
557.68	2618.65
558.03	2616.80
558.39	2615.68
558.74	2614.85
559.10	2612.21
559.45	2608.52
559.81	2604.02
560.16	2599.30
560.52	2594.29
560.87	2589.97
561.23	2584.68
561.58	2578.48
561.94	2571.83
562.29	2564.25
562.64	2557.26
563.00	2549.18
563.35	2543.00
563.71	2536.23
564.06	2529.98
564.42	2523.37
564.77	2516.50
565.12	2508.39
565.48	2500.64
565.83	2492.77
566.19	2484.51
566.54	2476.39
566.89	2468.52
567.25	2461.06
567.60	2453.81
567.96	2446.35
568.31	2438.00
568.66	2429.17
569.02	2420.29
569.37	2412.07
569.72	2404.55
570.08	2395.40
570.43	2385.53
570.78	2376.05
571.14	2366.73
571.49	2356.83
571.84	2347.27
572.20	2335.92
572.55	2326.15
572.90	2315.26
573.26	2304.77
573.61	2293.60
573.96	2282.32
574.31	2270.19
574.67	2258.25
575.02	2245.49
575.37	2232.78
575.72	2219.94
576.08	2207.65
576.43	2195.06
576.78	2181.69
577.13	2168.03
577.49	2155.07
577.84	2143.36
578.19	2131.27
578.54	2118.72
578.90	2106.47
579.25	2094.16
579.60	2081.95
579.95	2068.73
580.30	2055.77
580.66	2042.18
581.01	2028.40
581.36	2014.41
581.71	2001.62
582.06	1988.40
582.42	1975.70
582.77	1962.78
583.12	1950.67
583.47	1938.45
583.82	1926.34
584.17	1914.44
584.53	1902.44
584.88	1889.79
585.23	1876.67
585.58	1862.35
585.93	1848.94
586.28	1835.39
586.63	1821.13
586.98	1806.79
587.34	1793.48
587.69	1780.07
588.04	1767.63
588.39	1755.63
588.74	1743.22
589.09	1731.12
589.44	1718.45
589.79	1706.36
590.14	1694.71
590.49	1682.33
590.84	1669.85
591.19	1657.81
591.54	1645.65
591.89	1633.30
592.25	1622.73
592.60	1611.49
592.95	1600.28
593.30	1588.34
593.65	1576.36
594.00	1564.62
594.35	1554.70
594.70	1542.91
595.05	1531.50
595.40	1519.31
595.75	1507.31
596.10	1496.20
596.45	1484.41
596.80	1473.34
597.15	1461.76
597.50	1449.66
597.85	1438.25
598.19	1426.66
598.54	1414.78
598.89	1403.21
599.24	1392.67
599.59	1381.02
599.94	1369.91
600.29	1359.27
600.64	1348.63
600.99	1337.86
601.34	1328.14
601.69	1317.13
602.04	1307.05
602.39	1297.38
602.74	1288.01
603.08	1278.59
603.43	1269.09
603.78	1259.37
604.13	1249.65
604.48	1239.93
604.83	1230.39
605.18	1220.53
605.53	1211.09
605.87	1201.93
606.22	1193.40
606.57	1183.78
606.92	1174.51
607.27	1165.48
607.62	1156.58
607.96	1148.05
608.31	1139.92
608.66	1131.38
609.01	1122.65
609.36	1114.11
609.70	1105.48
610.05	1096.84
610.40	1088.30
610.75	1079.69
611.10	1071.48
611.44	1062.84
611.79	1054.81
612.14	1046.82
612.49	1038.77
612.83	1031.26
613.18	1023.63
613.53	1015.83
613.88	1007.80
614.22	999.80
614.57	991.86
614.92	983.95
615.27	976.48
615.61	968.83
615.96	961.03
616.31	953.49
616.65	946.44
617.00	938.95
617.35	931.57
617.70	924.45
618.04	917.19
618.39	910.17
618.74	903.77
619.08	896.64
619.43	889.55
619.78	882.71
620.12	875.57
620.47	868.66
620.82	861.43
621.16	854.84
621.51	848.52
621.85	842.20
622.20	835.58
622.55	828.87
622.89	822.29
623.24	815.95
623.59	809.48
623.93	803.06
624.28	797.00
624.62	791.27
624.97	785.45
625.32	779.51
625.66	773.34
626.01	767.04
626.35	761.51
626.70	755.95
627.04	750.76
627.39	745.02
627.73	739.54
628.08	734.26
628.43	728.71
628.77	723.09
629.12	717.63
629.46	712.71
629.81	707.92
630.15	703.18
630.50	698.10
630.84	693.15
631.19	688.23
631.53	683.48
631.88	678.21
632.22	673.08
632.57	668.49
632.91	663.97
633.26	659.55
633.60	654.72
633.95	649.88
634.29	644.92
634.64	640.39
634.98	635.65
635.32	631.24
635.67	627.25
636.01	623.09
636.36	618.79
636.70	614.90
637.05	610.46
637.39	606.37
637.73	602.28
638.08	598.28
638.42	594.07
638.77	589.75
639.11	585.34
639.45	581.18
639.80	576.96
640.14	572.81
640.49	568.68
640.83	564.88
641.17	561.39
641.52	557.71
641.86	554.19
642.20	550.91
642.55	547.18
642.89	543.47
643.23	540.02
643.58	536.87
643.92	533.12
644.26	529.94
644.61	526.58
644.95	523.12
645.29	519.61
645.64	516.54
645.98	513.52
646.32	510.71
646.66	507.50
647.01	504.47
647.35	501.61
647.69	498.75
648.04	495.92
648.38	492.99
648.72	489.99
649.06	486.92
649.41	483.75
649.75	480.82
650.09	477.91
650.43	474.85
650.78	471.85
651.12	469.03
651.46	466.04
651.80	463.15
652.14	460.51
652.49	458.10
652.83	455.44
653.17	452.70
653.51	449.83
653.85	447.45
654.20	444.89
654.54	442.33
654.88	439.73
655.22	437.45
655.56	434.99
655.90	432.63
656.25	430.36
656.59	428.02
656.93	425.70
657.27	423.72
657.61	421.33
657.95	419.05
658.29	416.75
658.64	414.70
658.98	412.41
659.32	410.27
659.66	408.02
660.00	405.86
660.34	403.74
660.68	401.84
661.02	399.78
661.36	397.86
661.70	395.83
662.05	393.86
662.39	391.82
662.73	390.05
663.07	388.45
663.41	386.58
663.75	384.65
664.09	382.84
664.43	380.88
664.77	379.22
665.11	377.41
665.45	375.77
665.79	374.10
666.13	372.35
666.47	370.63
666.81	368.90
667.15	367.18
667.49	365.72
667.83	364.32
668.17	362.78
668.51	361.37
668.85	360.05
669.19	358.96
669.53	357.43
669.87	355.80
670.21	354.25
670.55	352.89
670.89	351.91
671.23	350.64
671.57	349.18
671.91	347.91
672.25	346.60
672.58	345.45
672.92	343.96
673.26	342.71
673.60	341.44
673.94	340.30
674.28	339.21
674.62	338.08
674.96	336.80
675.30	335.63
675.64	334.34
675.97	333.05
676.31	331.54
676.65	330.32
676.99	329.36
677.33	328.11
677.67	327.06
678.01	325.75
678.34	324.61
678.68	323.67
679.02	322.48
679.36	321.38
679.70	320.19
680.04	319.27
680.37	318.42
680.71	317.56
681.05	316.63
681.39	315.64
681.73	314.57
682.06	313.60
682.40	312.71
682.74	311.89
683.08	311.20
683.42	310.33
683.75	309.57
684.09	308.63
684.43	307.88
684.77	306.90
685.10	306.08
685.44	305.30
685.78	304.43
686.12	303.72
686.45	302.95
686.79	302.18
687.13	301.52
687.46	300.73
687.80	300.00
688.14	299.13
688.48	298.36
688.81	297.60
689.15	296.98
689.49	296.21
689.82	295.49
690.16	294.52
690.50	293.84
690.83	293.01
691.17	292.24
691.51	291.48
691.84	290.92
692.18	290.22
692.52	289.49
692.85	288.90
693.19	288.45
693.52	287.89
693.86	287.19
694.20	286.51
694.53	285.90
694.87	285.23
695.21	284.59
695.54	284.14
695.88	283.52
696.21	282.75
696.55	282.12
696.88	281.49
697.22	280.95
697.56	280.44
697.89	279.80
698.23	279.25
698.56	278.60
698.90	278.11
699.23	277.56
699.57	277.13
699.90	276.56
700.24	275.91
700.58	275.35
700.91	274.95
701.25	274.81
701.58	274.64
701.92	274.27
702.25	273.94
702.59	273.33
702.92	272.91
703.26	272.60
703.59	272.23
703.93	272.20
704.26	271.84
704.60	271.41
704.93	271.09
705.26	270.66
705.60	270.42
705.93	269.87
706.27	269.69
706.60	269.37
706.94	269.16
707.27	268.78
707.61	268.50
707.94	268.18
708.27	267.46
708.61	266.73
708.94	266.32
709.28	265.90
709.61	265.49
709.94	265.20
710.28	264.83
710.61	264.51
710.95	263.76
711.28	263.69
711.61	263.33
711.95	263.04
712.28	262.62
712.61	262.23
712.95	262.19
713.28	261.98
713.61	261.53
713.95	261.03
714.28	260.65
714.61	260.19
714.95	259.77
715.28	259.40
715.61	259.06
715.95	258.73
716.28	258.36
716.61	258.11
716.95	257.69
717.28	257.35
717.61	257.02
717.94	256.66
718.28	256.09
718.61	255.78
718.94	255.53
719.27	255.35
719.61	255.15
719.94	254.74
720.27	254.25
720.60	254.08
720.94	253.90
721.27	253.71
721.60	253.65
721.93	253.42
722.27	253.32
722.60	253.17
722.93	252.89
723.26	252.76
723.59	252.51
723.93	252.40
724.26	252.17
724.59	251.81
724.92	251.69
725.25	251.60
725.59	251.42
725.92	251.27
726.25	251.03
726.58	250.80
726.91	250.53
727.24	250.40
727.57	250.16
727.91	249.86
728.24	249.68
728.57	249.36
728.90	249.23
729.23	248.86
729.56	248.92
729.89	248.77
730.22	248.55
730.55	248.36
730.89	248.15
731.22	247.95
731.55	247.86
731.88	247.66
732.21	247.31
732.54	247.09
732.87	246.85
733.20	246.75
733.53	246.60
733.86	246.47
734.19	246.29
734.52	246.25
734.85	246.35
735.18	246.10
735.51	246.11
735.84	245.99
736.17	246.00
736.50	245.58
736.83	245.90
737.16	245.71
737.49	245.64
737.82	245.37
738.15	245.33
738.48	245.17
738.81	244.96
739.14	244.83
739.47	244.66
739.80	244.47
740.13	244.34
740.46	244.13
740.79	243.92
741.12	243.62
741.45	243.36
741.78	243.00
742.11	243.00
742.44	242.70
742.77	242.58
743.10	242.38
743.43	242.22
743.75	241.65
744.08	242.19
744.41	241.95
744.74	241.93
745.07	241.60
745.40	241.54
745.73	241.65
746.06	241.51
746.39	241.44
746.71	241.26
747.04	241.03
747.37	240.81
747.70	240.74
748.03	240.75
748.36	240.65
748.68	240.49
749.01	240.21
749.34	240.09
749.67	239.98
750.00	239.96
750.33	240.20
750.65	240.10
750.98	239.43
751.31	239.32
751.64	239.17
751.97	239.43
752.29	239.36
752.62	239.08
752.95	238.97
753.28	238.74
753.60	238.65
753.93	238.75
754.26	238.77
754.59	238.58
754.91	238.34
755.24	238.20
755.57	238.12
755.90	238.02
756.22	237.92
756.55	237.76
756.88	237.51
757.20	237.08
757.53	236.92
757.86	236.73
758.19	236.67
758.51	236.63
758.84	236.19
759.17	236.00
759.49	235.88
759.82	236.02
760.15	236.04
760.47	236.02
760.80	235.77
761.13	235.75
761.45	235.67
761.78	235.63
762.11	235.52
762.43	235.39
762.76	235.31
763.08	235.25
763.41	235.16
763.74	235.11
764.06	235.03
764.39	234.93
764.71	234.91
765.04	234.76
765.37	234.60
765.69	234.57
766.02	234.50
766.34	234.45
766.67	234.08
767.00	234.11
767.32	234.27
767.65	234.47
767.97	234.31
768.30	234.27
768.62	234.25
768.95	234.20
769.27	234.15
769.60	234.13
769.92	234.05
770.25	233.89
770.57	233.70
770.90	233.63
771.22	233.48
771.55	233.42
771.87	233.38
772.20	233.31
772.52	233.70
772.85	234.13
773.17	234.02
773.50	234.09
773.82	233.92
774.15	233.58
774.47	233.20
774.80	233.09
775.12	232.99
775.45	232.82
775.77	232.78
776.09	232.77
776.42	232.77
776.74	232.81
777.07	232.69
777.39	232.72
777.72	232.67
778.04	232.68
778.36	232.54
778.69	232.59
779.01	232.57
779.33	232.08
779.66	231.54
779.98	231.50
780.31	231.39
780.63	231.53
780.95	231.58
781.28	231.54
781.60	231.50
781.92	231.49
782.25	231.48
782.57	231.44
782.89	231.36
783.22	231.27
783.54	231.17
783.86	231.25
784.19	231.25
784.51	231.31
784.83	231.23
785.16	231.21
785.48	231.14
785.80	231.10
786.12	231.07
786.45	231.00
786.77	230.96
787.09	230.99
787.42	230.79
787.74	230.76
788.06	230.77
788.38	230.69
788.71	230.59
789.03	230.55
789.35	230.54
789.67	230.43
789.99	230.39
790.32	230.26
790.64	230.30
790.96	230.59
791.28	230.35
791.61	230.37
791.93	230.30
792.25	230.24
792.57	230.52
792.89	230.42
793.21	230.49
793.54	230.51
793.86	230.32
794.18	230.39
794.50	230.28
794.82	230.25
795.14	230.27
795.47	230.34
795.79	230.35
796.11	230.23
796.43	230.17
796.75	230.23
797.07	230.21
797.39	230.10
797.71	229.76
798.04	229.80
798.36	229.76
798.68	229.77
799.00	229.77
799.32	229.55
799.64	229.62
799.96	229.52
800.28	229.49
800.60	229.50
800.92	229.35
801.24	229.30
801.56	229.32
801.89	229.30
802.21	229.28
802.53	229.24
802.85	229.35
803.17	229.61
803.49	229.47
803.81	229.48
804.13	229.42
804.45	229.35
804.77	229.35
805.09	229.30
805.41	229.20
805.73	229.08
806.05	228.94
806.37	228.90
806.69	228.90
807.01	228.92
807.33	228.91
807.65	228.79
807.97	229.01
808.28	228.93
808.60	228.98
808.92	228.88
809.24	229.13
809.56	228.97
809.88	228.76
810.20	228.81
810.52	228.89
810.84	228.85
811.16	228.72
811.48	228.76
811.80	228.97
812.12	228.98
812.43	229.09
812.75	229.11
813.07	229.04
813.39	229.03
813.71	228.94
814.03	228.93
814.35	229.00
814.67	228.80
814.98	228.75
815.30	228.67
815.62	228.58
815.94	228.31
816.26	228.53
816.58	228.45
816.89	228.43
817.21	228.29
817.53	228.35
817.85	228.38
818.17	228.30
818.48	228.08
818.80	228.19
819.12	228.08
819.44	228.04
819.76	227.93
820.07	227.96
820.39	227.95
820.71	228.00
821.03	227.92
821.34	227.85
821.66	227.88
821.98	227.90
822.30	227.96
822.61	228.25
822.93	228.03
823.25	227.95
823.57	227.87
823.88	228.00
824.20	227.94
824.52	228.02
824.83	227.99
825.15	227.95
825.47	227.93
825.79	228.01
826.10	227.98
826.42	228.05
826.74	228.07
827.05	228.00
827.37	227.99
827.69	227.99
828.00	227.99
828.32	228.05
828.64	227.97
828.95	228.24
829.27	228.04
829.58	228.02
829.90	228.18
830.22	228.31
830.53	228.17
830.85	228.16
831.17	228.10
831.48	228.14
831.80	228.24
832.11	228.19
832.43	228.10
832.75	228.08
833.06	228.34
833.38	228.20
833.69	228.25
834.01	228.29
834.32	228.28
834.64	228.34
834.96	228.29
835.27	228.37
835.59	228.19
835.90	228.14
836.22	228.13
836.53	228.01
836.85	227.87
837.16	228.36
837.48	228.34
837.79	228.44
838.11	228.53
838.42	228.48
838.74	228.55
839.05	228.48
839.37	228.45
839.68	228.18
840.00	228.14
840.31	228.13
840.63	228.04
840.94	228.06
841.26	227.98
841.57	227.94
841.88	227.97
842.20	227.91
842.51	227.83
842.83	227.84
843.14	228.25
843.46	228.28
843.77	227.97
844.08	227.95
844.40	227.78
844.71	227.67
845.03	227.52
845.34	227.44
845.65	227.44
845.97	227.47
846.28	227.45
846.60	227.52
846.91	227.42
847.22	227.46
847.54	227.55
847.85	227.58
848.16	227.53
848.48	227.42
848.79	227.54
849.10	227.56
849.42	227.52
849.73	227.10
850.04	227.08
850.36	226.93
850.67	227.00
850.98	227.05
851.30	227.07
851.61	227.11
851.92	227.06
852.23	227.24
852.55	227.25
852.86	227.26
853.17	227.27
853.49	227.42
853.80	227.46
854.11	227.43
854.42	227.44
854.74	227.45
855.05	227.40
855.36	227.12
855.67	227.15
855.99	227.19
856.30	227.73
856.61	227.67
856.92	227.72
857.23	227.71
857.55	227.62
857.86	227.62
858.17	227.73
858.48	227.65
858.79	227.50
859.11	227.58
859.42	227.62
859.73	227.52
860.04	227.50
860.35	227.39
860.66	227.27
860.98	227.30
861.29	227.35
861.60	227.39
861.91	227.52
862.22	227.41
862.53	227.34
862.84	226.82
863.16	226.94
863.47	226.81
863.78	226.84
864.09	226.87
864.40	226.83
864.71	226.86
865.02	227.01
865.33	227.01
865.64	226.91
865.95	226.88
866.27	227.22
866.58	227.14
866.89	227.18
867.20	227.16
867.51	227.09
867.82	227.05
868.13	227.21
868.44	227.15
868.75	227.34
869.06	227.40
869.37	227.47
869.68	227.34
869.99	227.48
870.30	227.44
870.61	227.53
870.92	227.51
871.23	227.41
871.54	227.48
871.85	227.60
872.16	227.69
872.47	227.65
872.78	227.37
873.09	227.49
873.40	227.50
873.71	227.58
874.02	227.57
874.33	227.53
874.64	227.41
874.95	227.45
875.26	227.31
875.56	227.26
875.87	227.15
876.18	227.16
876.49	227.60
876.80	227.55
877.11	227.45
877.42	227.49
877.73	227.56
878.04	227.46
878.35	227.44
878.66	227.39
878.96	227.43
879.27	227.47
879.58	227.42
879.89	227.33
880.20	227.46
880.51	227.44
880.82	227.45
881.12	227.44
881.43	227.38
881.74	227.32
882.05	227.31
882.36	227.34
882.67	227.36
882.97	226.81
883.28	226.81
883.59	226.83
883.90	226.88
884.21	226.93
884.51	226.92
884.82	226.82
885.13	226.83
885.44	226.76
885.74	226.80
886.05	226.80
886.36	226.90
886.67	226.74
886.98	227.03
887.28	227.07
887.59	227.10
887.90	227.11
888.20	227.10
888.51	227.24
888.82	227.19
889.13	227.23
889.43	227.55
889.74	227.53
890.05	227.50
890.35	227.42
890.66	227.37
890.97	227.31
891.28	227.22
891.58	227.20
891.89	227.25
892.20	227.13
892.50	227.04
892.81	226.94
893.12	226.87
893.42	226.59
893.73	226.52
894.04	226.41
894.34	226.44
894.65	226.41
894.95	226.24
895.26	226.35
895.57	226.54
895.87	226.21
896.18	226.24
896.48	226.29
896.79	226.30
897.10	226.29
897.40	226.28
897.71	226.47
898.01	226.43
898.32	226.46
898.63	226.44
898.93	226.50
899.24	226.50
899.54	226.49
899.85	226.48
900.15	226.53
900.46	226.62
900.76	226.67
901.07	226.71
901.38	226.76
901.68	226.73
901.99	226.45
902.29	226.45
902.60	226.45
902.90	226.44
903.21	226.43
903.51	226.39
903.82	226.49
904.12	226.48
904.43	226.55
904.73	226.50
905.03	226.54
905.34	226.99
905.64	226.98
905.95	227.04
906.25	227.17
906.56	227.16
906.86	227.17
907.17	227.17
907.47	227.20
907.77	227.17
908.08	227.02
908.38	227.11
908.69	227.18
908.99	227.28
909.30	227.30
909.60	227.31
909.90	227.37
910.21	227.29
910.51	227.22
910.81	227.19
911.12	227.26
911.42	227.27
911.73	226.81
912.03	226.91
912.33	227.00
912.64	226.95
912.94	226.93
913.24	226.81
913.55	226.82
913.85	226.76
914.15	226.85
914.46	227.02
914.76	226.99
915.06	226.98
915.37	226.93
915.67	226.89
915.97	226.90
916.27	226.81
916.58	226.85
916.88	226.83
917.18	226.81
917.49	227.14
917.79	227.19
918.09	227.18
918.39	227.30
918.70	227.27
919.00	227.25
919.30	227.48
919.60	227.52
919.91	227.46
920.21	227.53
920.51	227.46
920.81	227.35
921.12	227.47
921.42	227.45
921.72	227.44
922.02	227.45
922.32	227.54
922.63	227.54
922.93	227.71
923.23	227.72
923.53	227.64
923.83	227.26
924.13	227.25
924.44	227.26
924.74	227.34
925.04	227.36
925.34	227.41
925.64	227.24
925.94	227.23
926.24	227.45
926.55	227.34
926.85	227.40
927.15	227.47
927.45	227.38
927.75	227.42
928.05	227.40
928.35	227.42
928.65	227.42
928.95	227.46
929.26	227.31
929.56	227.35
929.86	227.47
930.16	227.47
930.46	227.34
930.76	227.39
931.06	227.06
931.36	226.96
931.66	226.94
931.96	226.88
932.26	226.91
932.56	226.71
932.86	226.80
933.16	226.78
933.46	226.63
933.76	226.55
934.06	226.59
934.36	226.77
934.66	226.75
934.96	226.67
935.26	226.73
935.56	226.80
935.86	226.72
936.16	226.59
936.46	226.59
936.76	226.61
937.06	226.51
937.36	226.59
937.66	226.65
937.96	226.60
938.26	226.54
938.56	226.51
938.86	226.52
939.16	226.68
939.46	226.73
939.76	226.87
940.06	226.84
940.35	226.78
940.65	226.47
940.95	226.45
941.25	226.32
941.55	226.23
941.85	226.13
942.15	226.29
942.45	226.46
942.75	226.39
943.04	226.45
943.34	226.54
943.64	226.54
943.94	226.39
944.24	226.44
944.54	226.48
944.84	226.44
945.13	226.45
945.43	226.34
945.73	226.27
946.03	226.23
946.33	226.15
946.62	226.15
946.92	226.23
947.22	226.27
947.52	226.32
947.82	226.38
948.11	226.39
948.41	226.23
948.71	226.11
949.01	226.19
949.31	226.13
949.60	226.11
949.90	226.12
950.20	226.12
950.50	226.10
950.79	226.07
951.09	226.20
951.39	226.20
951.69	226.10
951.98	226.17
952.28	226.22
952.58	226.33
952.87	226.32
953.17	226.40
953.47	226.38
953.76	226.37
954.06	226.25
954.36	226.22
954.66	226.26
954.95	226.35
955.25	226.36
955.55	226.36
955.84	226.32
956.14	226.39
956.44	226.46
956.73	226.41
957.03	226.49
957.32	226.41
957.62	226.40
957.92	226.53
958.21	226.52
958.51	226.97
958.81	227.00
959.10	226.99
959.40	227.07
959.69	227.06
959.99	227.18
960.29	227.27
960.58	227.26
960.88	227.45
961.17	227.38
961.47	227.39
961.76	227.41
962.06	227.48
962.36	227.36
962.65	227.28
962.95	227.30
963.24	227.22
963.54	227.21
963.83	227.19
964.13	227.13
964.42	227.00
964.72	226.66
965.01	226.65
965.31	226.63
965.60	226.53
965.90	226.82
966.19	226.66
966.49	226.70
966.78	226.60
967.08	226.45
967.37	226.45
967.67	226.36
967.96	226.42
968.26	226.37
968.55	226.45
968.85	226.51
969.14	226.51
969.43	226.49
969.73	226.51
970.02	226.46
970.32	226.41
970.61	226.39
970.91	226.30
971.20	226.23
971.49	226.14
971.79	226.13
972.08	225.80
972.38	225.87
972.67	225.81
972.96	225.94
973.26	225.85
973.55	226.03
973.85	226.05
974.14	225.97
974.43	226.01
974.73	225.85
975.02	225.80
975.31	225.79
975.61	225.83
975.90	225.75
976.19	225.79
976.49	225.86
976.78	225.91
977.07	225.84
977.37	225.90
977.66	226.02
977.95	226.01
978.24	225.99
978.54	226.04
978.83	225.95
979.12	225.91
979.42	225.96
979.71	225.77
980.00	225.76
980.29	225.81
980.59	225.72
980.88	225.87
981.17	225.87
981.46	225.85
981.76	225.80
982.05	225.92
982.34	225.85
982.63	225.89
982.93	225.88
983.22	226.04
983.51	226.06
983.80	226.06
984.09	226.08
984.39	226.05
984.68	226.03
984.97	226.07
985.26	226.04
985.55	226.07
985.85	226.10
986.14	226.23
986.43	226.31
986.72	226.34
987.01	226.20
987.30	226.26
987.59	226.22
987.89	226.30
988.18	226.19
988.47	226.23
988.76	226.18
989.05	226.16
989.34	226.03
989.63	226.14
989.92	226.12
990.22	226.06
990.51	226.14
990.80	226.11
991.09	226.15
991.38	226.33
991.67	226.32
991.96	226.22
992.25	226.22
992.54	226.08
992.83	226.03
993.12	226.05
993.41	226.05
993.70	226.28
993.99	226.38
994.28	226.43
994.58	226.40
994.87	226.40
995.16	226.45
995.45	226.39
995.74	226.25
996.03	226.28
996.32	226.43
996.61	226.45
996.90	226.48
997.19	226.49
997.48	226.35
997.77	226.24
998.06	226.31
998.34	226.20
998.63	226.19
998.92	226.26
999.21	226.36
999.50	226.39
999.79	226.23
1000.08	226.13
1000.37	226.22
1000.66	226.19
1000.95	226.18
1001.24	226.15
1001.53	226.30
1001.82	226.28
1002.11	226.21
1002.40	226.19
1002.68	226.40
1002.97	226.71
1003.26	226.61
1003.55	226.53
1003.84	226.64
1004.13	226.80
1004.42	226.79
1004.71	226.79
1004.99	226.69
1005.28	226.76
1005.57	226.71
1005.86	226.67
1006.15	226.67
1006.44	226.50
1006.72	226.60
1007.01	226.59
1007.30	226.65
1007.59	226.52
1007.88	226.52
1008.17	226.52
1008.45	226.38
1008.74	226.07
1009.03	225.81
1009.32	225.89
1009.60	225.87
1009.89	225.76
1010.18	225.53
1010.47	225.54
1010.76	225.64
1011.04	225.70
1011.33	225.73
1011.62	225.83
1011.91	225.89
1012.19	225.92
1012.48	225.95
1012.77	225.96
1013.05	226.24
1013.34	226.15
1013.63	226.21
1013.92	226.27
1014.20	226.24
1014.49	226.32
1014.78	226.39
1015.06	226.21
1015.35	226.17
1015.64	226.27
1015.92	226.38
1016.21	226.45
1016.50	226.43
1016.78	226.46
1017.07	226.51
1017.36	226.40
1017.64	226.34
1017.93	226.41
1018.22	226.41
1018.50	226.46
1018.79	226.44
1019.08	226.18
1019.36	226.28
1019.65	226.18
1019.93	226.29
1020.22	226.40
1020.51	226.62
1020.79	226.63
1021.08	226.10
1021.36	226.25
1021.65	226.30
1021.94	226.45
1022.22	227.15
1022.51	224.50
1022.79	228.90
1023.08	227.40
1023.36	231.70
1023.65	226.20
>>>>>End Processed Spectral Data<<<<<
