SpectraSuite Data File
++++++++++++++++++++++++++++++++++++
Date: Wed Sep 04 17:51:07 EDT 2013
User: lab3
Dark Spectrum Present: Yes
Reference Spectrum Present: No
Number of Sampled Component Spectra: 1
Spectrometers: USB2E7196
Integration Time (usec): 170000 (USB2E7196)
Spectra Averaged: 20 (USB2E7196)
Boxcar Smoothing: 10 (USB2E7196)
Correct for Electrical Dark: No (USB2E7196)
Strobe/Lamp Enabled: No (USB2E7196)
Correct for Detector Non-linearity: No (USB2E7196)
Correct for Stray Light: No (USB2E7196)
Number of Pixels in Processed Spectrum: 2048
>>>>>Begin Processed Spectral Data<<<<<
339.09	0.00
339.48	213.00
339.86	213.75
340.24	216.60
340.63	217.25
341.01	226.55
341.39	220.00
341.78	221.75
342.16	224.95
342.54	222.15
342.93	212.25
343.31	222.89
343.69	223.46
344.07	223.96
344.46	224.36
344.84	224.78
345.22	224.75
345.60	225.05
345.99	225.24
346.37	225.26
346.75	225.41
347.13	225.46
347.52	225.60
347.90	225.89
348.28	225.91
348.66	226.10
349.05	226.05
349.43	226.21
349.81	226.28
350.19	226.33
350.57	226.35
350.96	226.40
351.34	226.53
351.72	226.50
352.10	226.61
352.48	226.68
352.87	226.69
353.25	226.70
353.63	226.71
354.01	226.75
354.39	226.86
354.77	226.91
355.15	227.12
355.54	227.04
355.92	226.92
356.30	226.96
356.68	227.25
357.06	227.27
357.44	227.20
357.82	227.24
358.20	227.75
358.58	227.79
358.97	227.80
359.35	228.00
359.73	228.23
360.11	228.30
360.49	228.36
360.87	228.50
361.25	228.64
361.63	228.79
362.01	228.88
362.39	228.89
362.77	229.03
363.15	229.03
363.53	229.14
363.91	229.14
364.29	229.17
364.67	228.73
365.05	228.83
365.43	228.97
365.81	229.02
366.19	228.82
366.57	229.04
366.95	229.11
367.33	229.02
367.71	229.04
368.09	229.16
368.47	229.20
368.85	229.18
369.23	229.26
369.61	229.14
369.99	229.28
370.37	229.34
370.75	229.60
371.13	229.54
371.51	229.53
371.89	229.58
372.27	229.65
372.65	229.73
373.03	229.73
373.41	229.61
373.78	229.54
374.16	229.25
374.54	229.09
374.92	228.99
375.30	228.99
375.68	228.83
376.06	228.78
376.44	228.70
376.82	228.62
377.19	228.51
377.57	228.50
377.95	228.27
378.33	228.21
378.71	227.81
379.09	227.77
379.47	227.74
379.84	227.67
380.22	227.42
380.60	227.25
380.98	227.09
381.36	227.06
381.73	226.91
382.11	227.05
382.49	226.94
382.87	226.82
383.25	226.69
383.62	227.19
384.00	227.04
384.38	226.90
384.76	226.95
385.13	227.14
385.51	227.01
385.89	226.90
386.27	226.85
386.64	226.88
387.02	226.77
387.40	226.60
387.78	226.54
388.15	226.63
388.53	226.56
388.91	226.56
389.29	226.47
389.66	226.59
390.04	226.41
390.42	226.48
390.79	226.52
391.17	226.55
391.55	226.05
391.92	226.03
392.30	226.17
392.68	226.04
393.05	225.92
393.43	226.00
393.81	226.02
394.18	225.92
394.56	225.89
394.94	226.02
395.31	226.05
395.69	226.24
396.06	226.33
396.44	226.45
396.82	226.49
397.19	226.77
397.57	226.77
397.95	226.90
398.32	226.84
398.70	226.92
399.07	227.07
399.45	227.05
399.82	227.11
400.20	227.13
400.58	227.28
400.95	227.21
401.33	227.38
401.70	227.86
402.08	228.03
402.45	228.22
402.83	228.44
403.20	228.64
403.58	228.70
403.95	228.94
404.33	229.16
404.71	229.35
405.08	229.83
405.46	230.01
405.83	230.29
406.21	230.62
406.58	230.87
406.96	231.17
407.33	231.59
407.70	232.04
408.08	232.83
408.45	233.24
408.83	233.71
409.20	234.12
409.58	234.26
409.95	234.85
410.33	235.31
410.70	235.67
411.08	236.32
411.45	236.95
411.82	237.47
412.20	238.22
412.57	239.32
412.95	239.66
413.32	240.61
413.69	241.40
414.07	242.33
414.44	243.34
414.82	244.30
415.19	245.49
415.56	246.63
415.94	247.60
416.31	249.01
416.68	250.39
417.06	251.92
417.43	253.55
417.81	255.22
418.18	257.08
418.55	259.07
418.93	261.00
419.30	263.03
419.67	265.31
420.04	267.46
420.42	269.63
420.79	272.68
421.16	275.43
421.54	278.51
421.91	281.40
422.28	284.49
422.66	287.75
423.03	291.12
423.40	294.45
423.77	297.89
424.15	301.37
424.52	305.20
424.89	309.38
425.26	313.24
425.64	317.09
426.01	321.14
426.38	325.46
426.75	330.08
427.13	334.69
427.50	339.34
427.87	344.20
428.24	349.06
428.61	353.50
428.99	358.76
429.36	364.09
429.73	369.63
430.10	375.13
430.47	380.83
430.85	386.45
431.22	392.49
431.59	399.32
431.96	405.71
432.33	412.49
432.70	419.04
433.08	426.90
433.45	434.14
433.82	441.52
434.19	449.75
434.56	457.72
434.93	465.31
435.30	473.06
435.68	481.72
436.05	490.14
436.42	498.45
436.79	506.12
437.16	514.50
437.53	523.24
437.90	531.65
438.27	540.17
438.64	549.07
439.01	557.53
439.38	564.65
439.75	571.54
440.13	579.61
440.50	587.34
440.87	593.41
441.24	599.84
441.61	606.80
441.98	611.74
442.35	617.70
442.72	623.72
443.09	629.60
443.46	632.95
443.83	635.21
444.20	637.18
444.57	639.83
444.94	640.85
445.31	641.91
445.68	643.48
446.05	643.60
446.42	642.32
446.79	640.82
447.16	639.11
447.53	638.00
447.90	634.30
448.27	630.52
448.64	625.75
449.01	622.08
449.37	616.03
449.74	609.96
450.11	603.04
450.48	595.28
450.85	587.20
451.22	580.38
451.59	573.82
451.96	567.52
452.33	559.41
452.70	552.13
453.07	543.47
453.43	534.43
453.80	526.06
454.17	518.15
454.54	510.47
454.91	502.48
455.28	494.46
455.65	487.07
456.02	480.18
456.38	473.80
456.75	466.05
457.12	459.53
457.49	453.42
457.86	447.05
458.23	441.94
458.59	436.27
458.96	430.50
459.33	425.35
459.70	420.25
460.07	416.26
460.43	411.59
460.80	407.34
461.17	403.57
461.54	399.56
461.91	395.74
462.27	391.88
462.64	388.65
463.01	385.11
463.38	381.83
463.74	377.87
464.11	374.90
464.48	372.30
464.85	369.49
465.21	367.35
465.58	365.10
465.95	362.31
466.32	360.12
466.68	357.91
467.05	355.73
467.42	353.60
467.78	351.22
468.15	349.10
468.52	347.48
468.88	345.31
469.25	343.40
469.62	341.95
469.98	340.30
470.35	338.75
470.72	337.34
471.08	335.77
471.45	334.52
471.82	333.20
472.18	331.77
472.55	330.74
472.92	329.41
473.28	328.30
473.65	327.18
474.02	326.23
474.38	325.46
474.75	324.78
475.11	323.94
475.48	323.35
475.85	322.73
476.21	322.15
476.58	321.70
476.94	321.39
477.31	320.75
477.67	320.40
478.04	320.01
478.41	319.83
478.77	319.96
479.14	319.70
479.50	319.71
479.87	319.87
480.23	319.91
480.60	319.86
480.96	319.83
481.33	320.16
481.69	320.22
482.06	320.43
482.42	320.70
482.79	321.06
483.15	321.43
483.52	322.10
483.88	322.55
484.25	323.01
484.61	323.59
484.98	324.20
485.34	325.17
485.71	326.15
486.07	327.00
486.44	327.57
486.80	328.70
487.17	329.87
487.53	331.11
487.90	332.45
488.26	334.12
488.62	335.80
488.99	337.38
489.35	339.16
489.72	340.98
490.08	342.91
490.44	344.86
490.81	347.10
491.17	349.19
491.54	351.69
491.90	354.38
492.26	357.02
492.63	359.88
492.99	362.75
493.36	365.82
493.72	369.26
494.08	372.81
494.45	376.46
494.81	380.24
495.17	384.09
495.54	388.28
495.90	392.31
496.26	396.78
496.63	401.37
496.99	406.09
497.35	411.17
497.72	416.54
498.08	421.98
498.44	427.55
498.80	433.67
499.17	439.76
499.53	445.95
499.89	452.62
500.26	459.46
500.62	466.37
500.98	473.75
501.34	481.19
501.71	488.90
502.07	496.68
502.43	504.56
502.79	512.97
503.16	521.70
503.52	530.85
503.88	540.01
504.24	549.59
504.60	559.77
504.97	570.05
505.33	580.40
505.69	591.40
506.05	602.38
506.41	613.48
506.78	625.02
507.14	637.03
507.50	649.34
507.86	662.05
508.22	675.03
508.59	687.85
508.95	701.38
509.31	715.42
509.67	729.69
510.03	744.19
510.39	758.72
510.75	773.63
511.12	788.83
511.48	804.32
511.84	820.14
512.20	835.82
512.56	851.97
512.92	868.61
513.28	885.44
513.64	902.66
514.00	920.15
514.37	937.95
514.73	956.13
515.09	974.20
515.45	992.40
515.81	1010.48
516.17	1029.40
516.53	1047.89
516.89	1066.28
517.25	1085.62
517.61	1105.54
517.97	1125.76
518.33	1145.88
518.69	1166.05
519.05	1186.68
519.41	1207.14
519.77	1228.32
520.13	1249.00
520.49	1269.39
520.85	1291.46
521.21	1312.78
521.57	1334.14
521.93	1354.53
522.29	1375.21
522.65	1395.55
523.01	1416.30
523.37	1437.19
523.73	1458.04
524.09	1478.87
524.45	1499.86
524.81	1520.64
525.17	1541.20
525.53	1561.70
525.89	1582.35
526.25	1602.82
526.61	1622.79
526.97	1643.61
527.33	1664.55
527.68	1686.38
528.04	1707.84
528.40	1727.55
528.76	1748.36
529.12	1768.66
529.48	1789.52
529.84	1809.64
530.20	1830.89
530.56	1851.75
530.91	1872.59
531.27	1892.78
531.63	1913.20
531.99	1933.47
532.35	1953.08
532.71	1973.19
533.07	1993.66
533.42	2013.05
533.78	2033.08
534.14	2053.02
534.50	2072.10
534.86	2091.30
535.21	2108.55
535.57	2126.83
535.93	2144.35
536.29	2161.54
536.65	2179.41
537.00	2196.78
537.36	2214.38
537.72	2230.63
538.08	2247.11
538.44	2263.46
538.79	2279.80
539.15	2296.12
539.51	2311.82
539.87	2327.10
540.22	2341.12
540.58	2355.00
540.94	2368.73
541.29	2381.23
541.65	2393.71
542.01	2405.97
542.37	2416.06
542.72	2426.94
543.08	2437.40
543.44	2449.01
543.79	2459.14
544.15	2468.86
544.51	2478.88
544.87	2488.11
545.22	2497.02
545.58	2504.75
545.94	2511.51
546.29	2517.96
546.65	2523.89
547.01	2529.46
547.36	2534.91
547.72	2539.96
548.07	2544.06
548.43	2548.92
548.79	2553.12
549.14	2557.18
549.50	2560.85
549.86	2564.64
550.21	2568.18
550.57	2571.19
550.92	2572.34
551.28	2573.68
551.64	2575.68
551.99	2577.35
552.35	2578.91
552.70	2580.67
553.06	2582.47
553.41	2583.98
553.77	2585.61
554.13	2587.28
554.48	2588.41
554.84	2589.74
555.19	2591.13
555.55	2592.75
555.90	2592.14
556.26	2591.75
556.61	2590.00
556.97	2587.69
557.32	2587.26
557.68	2586.03
558.03	2584.60
558.39	2582.83
558.74	2581.65
559.10	2578.44
559.45	2574.62
559.81	2570.22
560.16	2564.73
560.52	2559.46
560.87	2554.93
561.23	2549.27
561.58	2542.89
561.94	2536.25
562.29	2528.80
562.64	2521.76
563.00	2513.34
563.35	2506.62
563.71	2499.59
564.06	2493.17
564.42	2486.94
564.77	2479.90
565.12	2472.50
565.48	2464.70
565.83	2457.11
566.19	2448.92
566.54	2441.04
566.89	2433.09
567.25	2425.10
567.60	2418.43
567.96	2411.35
568.31	2403.51
568.66	2395.03
569.02	2386.22
569.37	2378.15
569.72	2370.34
570.08	2361.09
570.43	2351.87
570.78	2342.99
571.14	2333.63
571.49	2323.19
571.84	2313.59
572.20	2302.84
572.55	2292.35
572.90	2281.50
573.26	2271.19
573.61	2260.61
573.96	2249.53
574.31	2237.35
574.67	2225.85
575.02	2213.08
575.37	2200.01
575.72	2186.83
576.08	2174.73
576.43	2162.40
576.78	2149.23
577.13	2135.65
577.49	2122.86
577.84	2111.05
578.19	2098.76
578.54	2086.33
578.90	2074.66
579.25	2062.33
579.60	2049.69
579.95	2036.99
580.30	2024.01
580.66	2010.52
581.01	1996.83
581.36	1982.92
581.71	1970.66
582.06	1957.63
582.42	1945.35
582.77	1932.98
583.12	1920.99
583.47	1908.78
583.82	1896.90
584.17	1885.06
584.53	1873.34
584.88	1860.67
585.23	1847.31
585.58	1833.20
585.93	1819.97
586.28	1807.14
586.63	1793.21
586.98	1779.42
587.34	1766.52
587.69	1753.58
588.04	1740.96
588.39	1729.21
588.74	1717.31
589.09	1705.58
589.44	1693.21
589.79	1680.89
590.14	1668.95
590.49	1657.00
590.84	1644.87
591.19	1633.10
591.54	1620.82
591.89	1608.86
592.25	1598.46
592.60	1587.33
592.95	1575.89
593.30	1564.30
593.65	1552.20
594.00	1540.43
594.35	1530.54
594.70	1518.62
595.05	1507.13
595.40	1495.54
595.75	1483.52
596.10	1472.29
596.45	1460.58
596.80	1449.56
597.15	1438.20
597.50	1426.60
597.85	1415.20
598.19	1403.75
598.54	1391.91
598.89	1380.76
599.24	1370.19
599.59	1358.81
599.94	1347.96
600.29	1337.94
600.64	1327.56
600.99	1316.86
601.34	1307.20
601.69	1296.09
602.04	1286.26
602.39	1276.70
602.74	1267.59
603.08	1258.47
603.43	1249.32
603.78	1239.85
604.13	1230.65
604.48	1221.13
604.83	1211.67
605.18	1202.06
605.53	1192.77
605.87	1183.48
606.22	1175.09
606.57	1165.93
606.92	1156.61
607.27	1147.77
607.62	1138.95
607.96	1130.55
608.31	1122.75
608.66	1114.47
609.01	1106.20
609.36	1097.97
609.70	1089.79
610.05	1081.16
610.40	1072.67
610.75	1063.95
611.10	1055.71
611.44	1046.92
611.79	1038.91
612.14	1031.16
612.49	1023.32
612.83	1015.75
613.18	1008.41
613.53	1000.59
613.88	992.67
614.22	985.02
614.57	977.29
614.92	969.62
615.27	962.01
615.61	954.53
615.96	947.07
616.31	939.51
616.65	932.38
617.00	925.02
617.35	917.83
617.70	910.81
618.04	903.86
618.39	896.83
618.74	890.67
619.08	883.78
619.43	876.69
619.78	869.67
620.12	862.58
620.47	855.60
620.82	848.51
621.16	841.94
621.51	835.72
621.85	829.51
622.20	822.70
622.55	816.26
622.89	809.78
623.24	803.39
623.59	796.92
623.93	790.69
624.28	784.54
624.62	779.10
624.97	773.36
625.32	767.65
625.66	761.82
626.01	755.80
626.35	750.27
626.70	744.68
627.04	739.55
627.39	734.10
627.73	729.08
628.08	724.20
628.43	718.72
628.77	713.15
629.12	707.92
629.46	703.32
629.81	698.56
630.15	693.94
630.50	689.09
630.84	684.42
631.19	679.81
631.53	675.35
631.88	670.00
632.22	665.15
632.57	660.61
632.91	656.12
633.26	651.65
633.60	647.12
633.95	642.64
634.29	638.02
634.64	633.68
634.98	628.81
635.32	624.43
635.67	620.44
636.01	616.55
636.36	612.10
636.70	607.98
637.05	603.81
637.39	599.62
637.73	595.73
638.08	591.76
638.42	587.50
638.77	583.12
639.11	578.99
639.45	574.66
639.80	570.27
640.14	566.19
640.49	562.22
640.83	558.34
641.17	554.84
641.52	551.06
641.86	547.58
642.20	544.42
642.55	540.73
642.89	537.31
643.23	533.61
643.58	530.61
643.92	527.03
644.26	523.57
644.61	520.25
644.95	516.90
645.29	513.67
645.64	510.54
645.98	507.42
646.32	504.61
646.66	501.58
647.01	498.77
647.35	496.06
647.69	493.15
648.04	490.49
648.38	487.72
648.72	484.94
649.06	481.84
649.41	478.94
649.75	476.01
650.09	473.09
650.43	470.37
650.78	467.38
651.12	464.56
651.46	461.87
651.80	459.22
652.14	456.39
652.49	453.83
652.83	451.27
653.17	448.82
653.51	446.07
653.85	443.72
654.20	441.26
654.54	438.60
654.88	436.08
655.22	433.73
655.56	431.23
655.90	428.91
656.25	426.70
656.59	424.46
656.93	422.38
657.27	420.33
657.61	417.95
657.95	415.70
658.29	413.66
658.64	411.67
658.98	409.50
659.32	407.45
659.66	405.24
660.00	403.24
660.34	401.11
660.68	399.05
661.02	396.97
661.36	394.96
661.70	392.99
662.05	391.08
662.39	389.15
662.73	387.45
663.07	385.86
663.41	384.08
663.75	382.01
664.09	380.14
664.43	378.24
664.77	376.64
665.11	375.00
665.45	373.25
665.79	371.49
666.13	369.75
666.47	368.05
666.81	366.43
667.15	364.73
667.49	363.30
667.83	362.05
668.17	360.63
668.51	359.21
668.85	358.05
669.19	356.93
669.53	355.43
669.87	353.90
670.21	352.34
670.55	351.00
670.89	349.98
671.23	348.64
671.57	347.18
671.91	345.81
672.25	344.40
672.58	343.29
672.92	341.93
673.26	340.75
673.60	339.67
673.94	338.54
674.28	337.37
674.62	336.18
674.96	334.76
675.30	333.53
675.64	332.40
675.97	331.11
676.31	329.67
676.65	328.46
676.99	327.41
677.33	326.22
677.67	325.05
678.01	323.80
678.34	322.80
678.68	321.95
679.02	320.90
679.36	319.95
679.70	318.83
680.04	317.97
680.37	316.92
680.71	315.84
681.05	314.90
681.39	314.07
681.73	313.10
682.06	312.20
682.40	311.34
682.74	310.47
683.08	309.71
683.42	308.85
683.75	308.18
684.09	307.26
684.43	306.44
684.77	305.69
685.10	304.88
685.44	304.10
685.78	303.20
686.12	302.49
686.45	301.63
686.79	300.88
687.13	300.15
687.46	299.40
687.80	298.79
688.14	297.93
688.48	297.10
688.81	296.38
689.15	295.84
689.49	295.15
689.82	294.48
690.16	293.58
690.50	292.77
690.83	291.97
691.17	291.21
691.51	290.55
691.84	289.85
692.18	289.06
692.52	288.35
692.85	287.73
693.19	287.25
693.52	286.71
693.86	286.08
694.20	285.40
694.53	284.85
694.87	284.22
695.21	283.64
695.54	283.11
695.88	282.43
696.21	281.64
696.55	281.02
696.88	280.40
697.22	279.72
697.56	279.30
697.89	278.65
698.23	278.23
698.56	277.68
698.90	277.30
699.23	276.78
699.57	276.28
699.90	275.74
700.24	275.07
700.58	274.62
700.91	274.23
701.25	274.10
701.58	273.94
701.92	273.52
702.25	273.16
702.59	272.60
702.92	272.23
703.26	271.94
703.59	271.52
703.93	271.44
704.26	271.19
704.60	270.86
704.93	270.45
705.26	269.92
705.60	269.58
705.93	268.99
706.27	268.77
706.60	268.51
706.94	268.37
707.27	267.89
707.61	267.53
707.94	267.13
708.27	266.35
708.61	265.62
708.94	265.22
709.28	264.84
709.61	264.47
709.94	264.10
710.28	263.60
710.61	263.25
710.95	262.47
711.28	262.39
711.61	261.94
711.95	261.75
712.28	261.35
712.61	260.94
712.95	260.86
713.28	260.68
713.61	260.25
713.95	259.68
714.28	259.45
714.61	259.04
714.95	258.59
715.28	258.25
715.61	257.91
715.95	257.59
716.28	257.16
716.61	256.91
716.95	256.59
717.28	256.30
717.61	255.98
717.94	255.65
718.28	255.01
718.61	254.73
718.94	254.34
719.27	254.09
719.61	253.81
719.94	253.38
720.27	252.85
720.60	252.59
720.94	252.33
721.27	252.07
721.60	251.87
721.93	251.66
722.27	251.63
722.60	251.45
722.93	251.17
723.26	250.95
723.59	250.67
723.93	250.50
724.26	250.30
724.59	250.06
724.92	249.95
725.25	249.88
725.59	249.66
725.92	249.44
726.25	249.23
726.58	249.15
726.91	248.94
727.24	248.85
727.57	248.64
727.91	248.38
728.24	248.28
728.57	248.11
728.90	247.98
729.23	247.67
729.56	247.69
729.89	247.55
730.22	247.40
730.55	247.21
730.89	247.09
731.22	246.98
731.55	246.82
731.88	246.64
732.21	246.42
732.54	246.22
732.87	246.12
733.20	246.00
733.53	245.84
733.86	245.77
734.19	245.57
734.52	245.52
734.85	245.75
735.18	245.48
735.51	245.44
735.84	245.38
736.17	245.34
736.50	245.04
736.83	245.43
737.16	245.32
737.49	245.28
737.82	245.13
738.15	245.02
738.48	244.88
738.81	244.76
739.14	244.54
739.47	244.42
739.80	244.31
740.13	244.19
740.46	243.91
740.79	243.71
741.12	243.50
741.45	243.27
741.78	242.84
742.11	242.88
742.44	242.69
742.77	242.54
743.10	242.30
743.43	242.13
743.75	241.53
744.08	241.97
744.41	241.80
744.74	241.60
745.07	241.41
745.40	241.35
745.73	241.39
746.06	241.26
746.39	241.17
746.71	240.89
747.04	240.73
747.37	240.63
747.70	240.57
748.03	240.51
748.36	240.45
748.68	240.24
749.01	239.89
749.34	239.75
749.67	239.65
750.00	239.58
750.33	239.74
750.65	239.57
750.98	238.87
751.31	238.72
751.64	238.60
751.97	238.78
752.29	238.55
752.62	238.27
752.95	238.19
753.28	237.95
753.60	237.88
753.93	237.90
754.26	237.87
754.59	237.63
754.91	237.43
755.24	237.27
755.57	237.26
755.90	237.25
756.22	236.99
756.55	236.80
756.88	236.54
757.20	236.15
757.53	235.96
757.86	235.87
758.19	235.87
758.51	235.75
758.84	235.33
759.17	235.26
759.49	235.18
759.82	235.30
760.15	235.28
760.47	235.23
760.80	235.00
761.13	234.93
761.45	234.90
761.78	234.93
762.11	234.85
762.43	234.70
762.76	234.60
763.08	234.75
763.41	234.74
763.74	234.80
764.06	234.70
764.39	234.64
764.71	234.55
765.04	234.33
765.37	234.25
765.69	234.16
766.02	234.12
766.34	234.01
766.67	233.84
767.00	233.93
767.32	234.12
767.65	234.39
767.97	234.31
768.30	234.20
768.62	234.15
768.95	234.01
769.27	234.01
769.60	233.94
769.92	233.67
770.25	233.49
770.57	233.40
770.90	233.35
771.22	233.34
771.55	233.37
771.87	233.33
772.20	233.31
772.52	233.72
772.85	234.20
773.17	234.17
773.50	234.09
773.82	233.96
774.15	233.65
774.47	233.29
774.80	233.20
775.12	233.12
775.45	233.00
775.77	233.09
776.09	233.01
776.42	233.10
776.74	233.20
777.07	233.15
777.39	233.06
777.72	232.99
778.04	232.98
778.36	232.85
778.69	232.79
779.01	232.77
779.33	232.29
779.66	231.69
779.98	231.59
780.31	231.44
780.63	231.60
780.95	231.62
781.28	231.53
781.60	231.42
781.92	231.41
782.25	231.45
782.57	231.35
782.89	231.25
783.22	231.06
783.54	230.95
783.86	230.98
784.19	230.92
784.51	230.97
784.83	230.82
785.16	230.74
785.48	230.77
785.80	230.71
786.12	230.70
786.45	230.73
786.77	230.72
787.09	230.71
787.42	230.39
787.74	230.37
788.06	230.38
788.38	230.28
788.71	230.18
789.03	230.00
789.35	230.06
789.67	229.96
789.99	229.97
790.32	229.87
790.64	229.82
790.96	230.14
791.28	229.96
791.61	229.89
791.93	229.87
792.25	229.77
792.57	230.02
792.89	229.91
793.21	229.88
793.54	229.79
793.86	229.73
794.18	229.76
794.50	229.65
794.82	229.57
795.14	229.66
795.47	229.69
795.79	229.71
796.11	229.51
796.43	229.48
796.75	229.50
797.07	229.48
797.39	229.45
797.71	229.03
798.04	229.02
798.36	229.06
798.68	229.04
799.00	229.01
799.32	228.70
799.64	228.83
799.96	228.76
800.28	228.83
800.60	228.76
800.92	228.77
801.24	228.73
801.56	228.70
801.89	228.63
802.21	228.64
802.53	228.60
802.85	228.68
803.17	228.92
803.49	228.76
803.81	228.70
804.13	228.73
804.45	228.72
804.77	228.80
805.09	228.76
805.41	228.73
805.73	228.72
806.05	228.75
806.37	228.71
806.69	228.69
807.01	228.65
807.33	228.65
807.65	228.50
807.97	228.77
808.28	228.86
808.60	228.84
808.92	228.78
809.24	229.02
809.56	228.96
809.88	228.73
810.20	228.81
810.52	228.99
810.84	228.85
811.16	228.85
811.48	228.83
811.80	229.00
812.12	228.95
812.43	229.05
812.75	229.01
813.07	228.90
813.39	228.91
813.71	228.89
814.03	228.87
814.35	228.85
814.67	228.58
814.98	228.45
815.30	228.49
815.62	228.35
815.94	228.02
816.26	228.23
816.58	228.18
816.89	228.19
817.21	227.99
817.53	228.01
817.85	228.05
818.17	227.99
818.48	227.77
818.80	227.90
819.12	227.79
819.44	227.68
819.76	227.66
820.07	227.64
820.39	227.58
820.71	227.61
821.03	227.69
821.34	227.66
821.66	227.78
821.98	227.81
822.30	227.95
822.61	228.32
822.93	228.06
823.25	228.12
823.57	228.06
823.88	228.13
824.20	228.12
824.52	228.12
824.83	228.17
825.15	228.14
825.47	228.06
825.79	228.17
826.10	228.17
826.42	228.15
826.74	228.12
827.05	228.09
827.37	228.08
827.69	227.91
828.00	227.95
828.32	227.88
828.64	227.77
828.95	227.93
829.27	227.72
829.58	227.69
829.90	227.69
830.22	227.75
830.53	227.65
830.85	227.59
831.17	227.48
831.48	227.43
831.80	227.43
832.11	227.37
832.43	227.10
832.75	227.05
833.06	227.36
833.38	227.34
833.69	227.34
834.01	227.35
834.32	227.47
834.64	227.37
834.96	227.32
835.27	227.35
835.59	227.14
835.90	227.01
836.22	226.95
836.53	226.84
836.85	226.76
837.16	227.22
837.48	227.29
837.79	227.44
838.11	227.40
838.42	227.39
838.74	227.43
839.05	227.52
839.37	227.53
839.68	227.17
840.00	227.06
840.31	227.06
840.63	226.95
840.94	226.90
841.26	226.85
841.57	226.85
841.88	226.89
842.20	226.84
842.51	226.85
842.83	226.91
843.14	227.45
843.46	227.43
843.77	227.16
844.08	227.08
844.40	226.95
844.71	226.90
845.03	226.89
845.34	226.94
845.65	226.88
845.97	226.89
846.28	226.95
846.60	227.05
846.91	227.01
847.22	227.00
847.54	227.07
847.85	227.15
848.16	227.08
848.48	226.99
848.79	227.22
849.10	227.24
849.42	227.32
849.73	226.81
850.04	226.83
850.36	226.67
850.67	226.84
850.98	226.89
851.30	227.00
851.61	226.94
851.92	226.86
852.23	227.05
852.55	227.11
852.86	227.12
853.17	227.19
853.49	227.28
853.80	227.46
854.11	227.54
854.42	227.65
854.74	227.65
855.05	227.73
855.36	227.47
855.67	227.45
855.99	227.43
856.30	227.99
856.61	228.00
856.92	227.96
857.23	227.90
857.55	227.83
857.86	227.76
858.17	227.85
858.48	227.82
858.79	227.74
859.11	227.80
859.42	227.79
859.73	227.68
860.04	227.69
860.35	227.50
860.66	227.27
860.98	227.18
861.29	227.29
861.60	227.22
861.91	227.35
862.22	227.25
862.53	227.16
862.84	226.60
863.16	226.71
863.47	226.71
863.78	226.66
864.09	226.68
864.40	226.76
864.71	226.77
865.02	226.80
865.33	226.75
865.64	226.62
865.95	226.67
866.27	226.99
866.58	226.95
866.89	227.08
867.20	227.10
867.51	227.01
867.82	227.00
868.13	227.08
868.44	227.00
868.75	227.21
869.06	227.28
869.37	227.35
869.68	227.13
869.99	227.18
870.30	227.20
870.61	227.20
870.92	227.10
871.23	227.07
871.54	227.10
871.85	227.20
872.16	227.29
872.47	227.21
872.78	226.89
873.09	226.94
873.40	226.81
873.71	226.85
874.02	226.83
874.33	226.67
874.64	226.62
874.95	226.64
875.26	226.43
875.56	226.33
875.87	226.27
876.18	226.33
876.49	226.78
876.80	226.72
877.11	226.65
877.42	226.73
877.73	226.67
878.04	226.64
878.35	226.59
878.66	226.54
878.96	226.50
879.27	226.50
879.58	226.39
879.89	226.38
880.20	226.51
880.51	226.58
880.82	226.62
881.12	226.62
881.43	226.60
881.74	226.60
882.05	226.59
882.36	226.64
882.67	226.68
882.97	226.15
883.28	226.13
883.59	226.12
883.90	226.07
884.21	226.17
884.51	226.12
884.82	226.05
885.13	226.07
885.44	226.04
885.74	226.00
886.05	225.98
886.36	226.04
886.67	225.85
886.98	226.07
887.28	226.13
887.59	226.14
887.90	226.12
888.20	226.13
888.51	226.25
888.82	226.12
889.13	226.14
889.43	226.59
889.74	226.55
890.05	226.60
890.35	226.57
890.66	226.45
890.97	226.46
891.28	226.43
891.58	226.41
891.89	226.45
892.20	226.47
892.50	226.42
892.81	226.38
893.12	226.38
893.42	226.10
893.73	226.15
894.04	226.18
894.34	226.23
894.65	226.23
894.95	226.16
895.26	226.20
895.57	226.48
895.87	226.06
896.18	226.17
896.48	226.20
896.79	226.22
897.10	226.37
897.40	226.43
897.71	226.54
898.01	226.51
898.32	226.54
898.63	226.49
898.93	226.62
899.24	226.66
899.54	226.65
899.85	226.69
900.15	226.66
900.46	226.59
900.76	226.58
901.07	226.55
901.38	226.50
901.68	226.63
901.99	226.29
902.29	226.25
902.60	226.18
902.90	226.10
903.21	226.10
903.51	226.09
903.82	226.16
904.12	226.12
904.43	226.16
904.73	226.18
905.03	226.27
905.34	226.70
905.64	226.71
905.95	226.73
906.25	226.72
906.56	226.72
906.86	226.71
907.17	226.64
907.47	226.72
907.77	226.75
908.08	226.64
908.38	226.64
908.69	226.72
908.99	226.81
909.30	226.90
909.60	226.88
909.90	226.87
910.21	226.71
910.51	226.65
910.81	226.69
911.12	226.68
911.42	226.64
911.73	226.11
912.03	226.12
912.33	226.24
912.64	226.26
912.94	226.20
913.24	226.15
913.55	226.19
913.85	226.11
914.15	226.20
914.46	226.28
914.76	226.25
915.06	226.21
915.37	226.15
915.67	226.08
915.97	226.08
916.27	225.97
916.58	225.97
916.88	225.95
917.18	225.82
917.49	226.15
917.79	226.13
918.09	226.20
918.39	226.32
918.70	226.29
919.00	226.30
919.30	226.51
919.60	226.51
919.91	226.55
920.21	226.58
920.51	226.55
920.81	226.44
921.12	226.54
921.42	226.57
921.72	226.59
922.02	226.63
922.32	226.68
922.63	226.70
922.93	227.00
923.23	227.05
923.53	227.08
923.83	226.81
924.13	226.93
924.44	226.98
924.74	227.09
925.04	227.12
925.34	227.12
925.64	226.95
925.94	226.95
926.24	227.12
926.55	227.10
926.85	227.16
927.15	227.20
927.45	227.20
927.75	227.16
928.05	227.15
928.35	227.09
928.65	227.16
928.95	227.20
929.26	226.98
929.56	227.04
929.86	227.11
930.16	227.03
930.46	226.93
930.76	226.91
931.06	226.65
931.36	226.55
931.66	226.65
931.96	226.69
932.26	226.70
932.56	226.49
932.86	226.49
933.16	226.43
933.46	226.40
933.76	226.28
934.06	226.29
934.36	226.48
934.66	226.46
934.96	226.50
935.26	226.48
935.56	226.50
935.86	226.39
936.16	226.35
936.46	226.30
936.76	226.31
937.06	226.29
937.36	226.29
937.66	226.35
937.96	226.29
938.26	226.21
938.56	226.22
938.86	226.25
939.16	226.35
939.46	226.38
939.76	226.43
940.06	226.49
940.35	226.44
940.65	226.14
940.95	226.24
941.25	226.00
941.55	225.95
941.85	225.94
942.15	225.96
942.45	226.04
942.75	226.05
943.04	226.03
943.34	226.13
943.64	226.15
943.94	226.04
944.24	226.10
944.54	226.15
944.84	226.14
945.13	226.07
945.43	226.02
945.73	225.95
946.03	225.95
946.33	225.95
946.62	225.93
946.92	225.98
947.22	226.03
947.52	226.14
947.82	226.24
948.11	226.27
948.41	226.26
948.71	226.13
949.01	226.15
949.31	226.12
949.60	226.03
949.90	226.03
950.20	226.07
950.50	225.99
950.79	226.00
951.09	226.04
951.39	226.06
951.69	226.08
951.98	226.26
952.28	226.29
952.58	226.28
952.87	226.37
953.17	226.45
953.47	226.32
953.76	226.28
954.06	226.20
954.36	226.05
954.66	226.02
954.95	226.15
955.25	226.20
955.55	226.26
955.84	226.16
956.14	226.24
956.44	226.26
956.73	226.22
957.03	226.21
957.32	226.23
957.62	226.19
957.92	226.23
958.21	226.17
958.51	226.65
958.81	226.66
959.10	226.69
959.40	226.75
959.69	226.84
959.99	226.88
960.29	226.90
960.58	226.91
960.88	227.05
961.17	226.98
961.47	226.99
961.76	226.92
962.06	227.02
962.36	226.91
962.65	226.92
962.95	226.92
963.24	226.81
963.54	226.80
963.83	226.84
964.13	226.76
964.42	226.64
964.72	226.23
965.01	226.32
965.31	226.21
965.60	226.09
965.90	226.38
966.19	226.32
966.49	226.32
966.78	226.32
967.08	226.30
967.37	226.32
967.67	226.26
967.96	226.35
968.26	226.32
968.55	226.40
968.85	226.41
969.14	226.37
969.43	226.39
969.73	226.28
970.02	226.25
970.32	226.26
970.61	226.25
970.91	226.10
971.20	225.93
971.49	225.98
971.79	226.04
972.08	225.71
972.38	225.75
972.67	225.74
972.96	225.80
973.26	225.68
973.55	225.80
973.85	225.79
974.14	225.76
974.43	225.85
974.73	225.78
975.02	225.72
975.31	225.72
975.61	225.70
975.90	225.69
976.19	225.66
976.49	225.66
976.78	225.65
977.07	225.70
977.37	225.75
977.66	225.78
977.95	225.70
978.24	225.73
978.54	225.84
978.83	225.80
979.12	225.79
979.42	225.84
979.71	225.80
980.00	225.81
980.29	225.83
980.59	225.70
980.88	225.84
981.17	225.77
981.46	225.80
981.76	225.85
982.05	226.04
982.34	226.12
982.63	226.12
982.93	226.12
983.22	226.22
983.51	226.25
983.80	226.29
984.09	226.36
984.39	226.28
984.68	226.18
984.97	226.23
985.26	226.25
985.55	226.30
985.85	226.23
986.14	226.32
986.43	226.38
986.72	226.39
987.01	226.16
987.30	226.20
987.59	226.20
987.89	226.19
988.18	226.02
988.47	225.98
988.76	226.02
989.05	226.03
989.34	225.94
989.63	226.07
989.92	226.03
990.22	225.96
990.51	225.94
990.80	225.88
991.09	225.95
991.38	225.97
991.67	225.90
991.96	225.85
992.25	225.81
992.54	225.70
992.83	225.65
993.12	225.68
993.41	225.85
993.70	226.00
993.99	226.09
994.28	226.20
994.58	226.22
994.87	226.12
995.16	226.09
995.45	226.02
995.74	225.82
996.03	225.90
996.32	226.01
996.61	226.12
996.90	226.08
997.19	225.93
997.48	225.87
997.77	225.80
998.06	225.79
998.34	225.74
998.63	225.73
998.92	225.76
999.21	225.90
999.50	225.80
999.79	225.60
1000.08	225.52
1000.37	225.44
1000.66	225.39
1000.95	225.48
1001.24	225.50
1001.53	225.54
1001.82	225.50
1002.11	225.35
1002.40	225.35
1002.68	225.50
1002.97	225.84
1003.26	225.89
1003.55	225.82
1003.84	225.81
1004.13	225.94
1004.42	225.91
1004.71	225.84
1004.99	225.83
1005.28	225.88
1005.57	225.82
1005.86	225.79
1006.15	225.79
1006.44	225.74
1006.72	225.84
1007.01	225.73
1007.30	225.69
1007.59	225.67
1007.88	225.69
1008.17	225.71
1008.45	225.54
1008.74	225.31
1009.03	225.12
1009.32	225.07
1009.60	225.16
1009.89	225.11
1010.18	224.93
1010.47	224.89
1010.76	224.92
1011.04	224.88
1011.33	224.81
1011.62	224.87
1011.91	224.90
1012.19	224.98
1012.48	224.97
1012.77	224.90
1013.05	225.15
1013.34	225.23
1013.63	225.22
1013.92	225.24
1014.20	225.20
1014.49	225.22
1014.78	225.26
1015.06	225.11
1015.35	225.14
1015.64	225.14
1015.92	225.25
1016.21	225.31
1016.50	225.36
1016.78	225.38
1017.07	225.48
1017.36	225.40
1017.64	225.36
1017.93	225.46
1018.22	225.41
1018.50	225.42
1018.79	225.43
1019.08	225.23
1019.36	225.25
1019.65	225.22
1019.93	225.40
1020.22	225.53
1020.51	225.83
1020.79	225.84
1021.08	225.80
1021.36	224.15
1021.65	225.65
1021.94	225.45
1022.22	226.15
1022.51	225.00
1022.79	228.50
1023.08	227.10
1023.36	231.05
1023.65	225.65
>>>>>End Processed Spectral Data<<<<<
