SpectraSuite Data File
++++++++++++++++++++++++++++++++++++
Date: Wed Sep 04 17:49:58 EDT 2013
User: lab3
Dark Spectrum Present: Yes
Reference Spectrum Present: No
Number of Sampled Component Spectra: 1
Spectrometers: USB2E7196
Integration Time (usec): 170000 (USB2E7196)
Spectra Averaged: 20 (USB2E7196)
Boxcar Smoothing: 10 (USB2E7196)
Correct for Electrical Dark: No (USB2E7196)
Strobe/Lamp Enabled: No (USB2E7196)
Correct for Detector Non-linearity: No (USB2E7196)
Correct for Stray Light: No (USB2E7196)
Number of Pixels in Processed Spectrum: 2048
>>>>>Begin Processed Spectral Data<<<<<
339.09	0.00
339.48	213.80
339.86	215.25
340.24	215.45
340.63	217.80
341.01	226.20
341.39	220.45
341.78	222.65
342.16	224.05
342.54	222.15
342.93	212.45
343.31	223.16
343.69	223.69
344.07	224.15
344.46	224.69
344.84	225.05
345.22	225.00
345.60	225.24
345.99	225.44
346.37	225.54
346.75	225.65
347.13	225.78
347.52	225.92
347.90	226.12
348.28	226.15
348.66	226.27
349.05	226.14
349.43	226.22
349.81	226.34
350.19	226.30
350.57	226.32
350.96	226.40
351.34	226.49
351.72	226.57
352.10	226.64
352.48	226.69
352.87	226.72
353.25	226.77
353.63	226.77
354.01	226.77
354.39	226.81
354.77	226.92
355.15	227.09
355.54	227.09
355.92	226.97
356.30	227.07
356.68	227.46
357.06	227.57
357.44	227.57
357.82	227.56
358.20	228.10
358.58	228.11
358.97	228.15
359.35	228.30
359.73	228.43
360.11	228.43
360.49	228.46
360.87	228.48
361.25	228.60
361.63	228.85
362.01	228.93
362.39	228.92
362.77	228.96
363.15	228.92
363.53	228.92
363.91	228.99
364.29	228.98
364.67	228.51
365.05	228.57
365.43	228.64
365.81	228.79
366.19	228.58
366.57	228.85
366.95	228.87
367.33	228.71
367.71	228.68
368.09	228.83
368.47	228.80
368.85	228.83
369.23	228.98
369.61	228.80
369.99	228.96
370.37	229.09
370.75	229.34
371.13	229.26
371.51	229.24
371.89	229.24
372.27	229.21
372.65	229.19
373.03	229.17
373.41	229.11
373.78	229.09
374.16	228.82
374.54	228.55
374.92	228.49
375.30	228.51
375.68	228.39
376.06	228.33
376.44	228.21
376.82	228.19
377.19	228.06
377.57	227.99
377.95	227.73
378.33	227.59
378.71	227.27
379.09	227.27
379.47	227.29
379.84	227.15
380.22	227.06
380.60	226.95
380.98	226.81
381.36	226.73
381.73	226.50
382.11	226.58
382.49	226.51
382.87	226.37
383.25	226.23
383.62	226.75
384.00	226.56
384.38	226.54
384.76	226.56
385.13	226.58
385.51	226.51
385.89	226.43
386.27	226.43
386.64	226.40
387.02	226.27
387.40	226.12
387.78	226.13
388.15	226.14
388.53	226.12
388.91	226.10
389.29	226.01
389.66	226.08
390.04	225.99
390.42	226.12
390.79	226.08
391.17	226.10
391.55	225.49
391.92	225.54
392.30	225.65
392.68	225.56
393.05	225.56
393.43	225.66
393.81	225.70
394.18	225.64
394.56	225.59
394.94	225.79
395.31	225.80
395.69	226.01
396.06	226.04
396.44	226.11
396.82	226.13
397.19	226.48
397.57	226.49
397.95	226.55
398.32	226.41
398.70	226.67
399.07	226.88
399.45	227.00
399.82	227.04
400.20	227.05
400.58	227.17
400.95	227.15
401.33	227.33
401.70	227.81
402.08	227.97
402.45	228.22
402.83	228.38
403.20	228.59
403.58	228.67
403.95	228.95
404.33	229.14
404.71	229.42
405.08	229.86
405.46	230.10
405.83	230.43
406.21	230.74
406.58	230.95
406.96	231.20
407.33	231.54
407.70	231.96
408.08	232.69
408.45	233.12
408.83	233.60
409.20	233.91
409.58	234.03
409.95	234.60
410.33	235.09
410.70	235.55
411.08	236.20
411.45	236.78
411.82	237.34
412.20	238.14
412.57	239.12
412.95	239.45
413.32	240.35
413.69	241.20
414.07	242.09
414.44	243.05
414.82	244.14
415.19	245.33
415.56	246.52
415.94	247.54
416.31	248.90
416.68	250.29
417.06	251.96
417.43	253.67
417.81	255.42
418.18	257.20
418.55	259.04
418.93	260.98
419.30	263.07
419.67	265.32
420.04	267.57
420.42	269.87
420.79	272.92
421.16	275.60
421.54	278.52
421.91	281.53
422.28	284.57
422.66	287.79
423.03	291.19
423.40	294.58
423.77	298.04
424.15	301.62
424.52	305.34
424.89	309.55
425.26	313.44
425.64	317.04
426.01	321.19
426.38	325.66
426.75	330.20
427.13	334.67
427.50	339.46
427.87	344.33
428.24	349.26
428.61	353.67
428.99	358.97
429.36	364.42
429.73	369.86
430.10	375.30
430.47	380.95
430.85	386.60
431.22	392.74
431.59	399.59
431.96	405.68
432.33	412.55
432.70	419.06
433.08	426.83
433.45	434.25
433.82	441.58
434.19	449.63
434.56	457.69
434.93	465.25
435.30	472.98
435.68	481.54
436.05	489.80
436.42	498.02
436.79	505.74
437.16	513.88
437.53	522.53
437.90	531.23
438.27	539.69
438.64	548.46
439.01	556.59
439.38	563.59
439.75	570.92
440.13	578.80
440.50	586.20
440.87	592.30
441.24	598.62
441.61	605.56
441.98	610.45
442.35	615.97
442.72	622.04
443.09	627.65
443.46	631.08
443.83	633.33
444.20	635.37
444.57	637.98
444.94	639.23
445.31	640.48
445.68	641.77
446.05	642.05
446.42	640.80
446.79	639.46
447.16	637.91
447.53	636.48
447.90	632.85
448.27	629.19
448.64	624.27
449.01	620.64
449.37	614.50
449.74	608.57
450.11	602.03
450.48	594.39
450.85	586.43
451.22	579.48
451.59	572.98
451.96	566.63
452.33	558.61
452.70	551.35
453.07	542.64
453.43	533.60
453.80	525.14
454.17	517.06
454.54	509.31
454.91	501.23
455.28	493.37
455.65	485.99
456.02	479.19
456.38	472.88
456.75	465.23
457.12	458.74
457.49	452.60
457.86	446.24
458.23	441.13
458.59	435.49
458.96	429.90
459.33	424.88
459.70	419.84
460.07	415.75
460.43	410.95
460.80	406.83
461.17	403.18
461.54	399.25
461.91	395.58
462.27	391.80
462.64	388.69
463.01	385.13
463.38	381.96
463.74	378.12
464.11	375.22
464.48	372.63
464.85	369.79
465.21	367.66
465.58	365.35
465.95	362.47
466.32	360.39
466.68	358.16
467.05	355.94
467.42	353.87
467.78	351.57
468.15	349.59
468.52	347.97
468.88	345.74
469.25	343.88
469.62	342.38
469.98	340.73
470.35	339.01
470.72	337.60
471.08	335.80
471.45	334.57
471.82	333.35
472.18	331.87
472.55	330.87
472.92	329.49
473.28	328.42
473.65	327.35
474.02	326.20
474.38	325.25
474.75	324.50
475.11	323.54
475.48	322.98
475.85	322.37
476.21	321.63
476.58	321.15
476.94	320.68
477.31	320.20
477.67	319.86
478.04	319.61
478.41	319.43
478.77	319.80
479.14	319.47
479.50	319.26
479.87	319.37
480.23	319.36
480.60	319.41
480.96	319.47
481.33	319.83
481.69	320.09
482.06	320.35
482.42	320.62
482.79	321.09
483.15	321.47
483.52	322.09
483.88	322.61
484.25	323.19
484.61	323.93
484.98	324.64
485.34	325.57
485.71	326.44
486.07	327.39
486.44	327.94
486.80	329.05
487.17	330.18
487.53	331.49
487.90	332.93
488.26	334.61
488.62	336.31
488.99	337.83
489.35	339.55
489.72	341.38
490.08	343.32
490.44	345.20
490.81	347.36
491.17	349.53
491.54	351.99
491.90	354.55
492.26	357.09
492.63	359.80
492.99	362.64
493.36	365.75
493.72	369.11
494.08	372.63
494.45	376.25
494.81	380.10
495.17	383.82
495.54	387.93
495.90	392.05
496.26	396.31
496.63	401.01
496.99	405.76
497.35	410.91
497.72	416.17
498.08	421.75
498.44	427.45
498.80	433.43
499.17	439.52
499.53	445.59
499.89	452.37
500.26	459.20
500.62	466.14
500.98	473.49
501.34	480.85
501.71	488.52
502.07	496.37
502.43	504.46
502.79	512.97
503.16	521.61
503.52	530.58
503.88	539.89
504.24	549.39
504.60	559.42
504.97	569.55
505.33	579.81
505.69	590.72
506.05	601.59
506.41	612.65
506.78	624.28
507.14	636.40
507.50	648.72
507.86	661.36
508.22	674.26
508.59	687.35
508.95	700.93
509.31	714.97
509.67	729.23
510.03	743.67
510.39	758.24
510.75	773.29
511.12	788.30
511.48	803.99
511.84	819.79
512.20	835.54
512.56	851.79
512.92	868.51
513.28	885.14
513.64	902.47
514.00	920.04
514.37	937.70
514.73	955.78
515.09	973.71
515.45	992.00
515.81	1010.33
516.17	1028.93
516.53	1047.42
516.89	1066.01
517.25	1085.32
517.61	1105.33
517.97	1125.58
518.33	1145.33
518.69	1165.82
519.05	1186.18
519.41	1206.57
519.77	1227.49
520.13	1248.14
520.49	1268.77
520.85	1291.23
521.21	1311.88
521.57	1333.00
521.93	1353.62
522.29	1374.86
522.65	1395.24
523.01	1416.07
523.37	1436.47
523.73	1457.45
524.09	1477.94
524.45	1498.26
524.81	1519.01
525.17	1539.34
525.53	1559.79
525.89	1580.60
526.25	1601.09
526.61	1621.01
526.97	1641.86
527.33	1662.98
527.68	1684.55
528.04	1705.74
528.40	1724.91
528.76	1746.30
529.12	1766.50
529.48	1787.11
529.84	1806.73
530.20	1827.89
530.56	1848.44
530.91	1869.44
531.27	1889.68
531.63	1910.15
531.99	1930.53
532.35	1949.91
532.71	1970.04
533.07	1990.34
533.42	2010.01
533.78	2029.76
534.14	2049.65
534.50	2068.90
534.86	2087.56
535.21	2104.87
535.57	2123.13
535.93	2140.62
536.29	2158.05
536.65	2176.13
537.00	2193.65
537.36	2210.95
537.72	2227.07
538.08	2243.86
538.44	2260.28
538.79	2276.24
539.15	2292.70
539.51	2308.50
539.87	2323.71
540.22	2337.21
540.58	2351.40
540.94	2364.53
541.29	2376.56
541.65	2388.97
542.01	2400.98
542.37	2411.45
542.72	2422.01
543.08	2432.42
543.44	2444.20
543.79	2453.80
544.15	2463.36
544.51	2473.08
544.87	2482.93
545.22	2491.39
545.58	2499.02
545.94	2505.74
546.29	2512.22
546.65	2517.87
547.01	2523.44
547.36	2529.21
547.72	2534.89
548.07	2538.31
548.43	2543.33
548.79	2548.45
549.14	2552.41
549.50	2555.90
549.86	2559.97
550.21	2563.70
550.57	2566.86
550.92	2567.62
551.28	2568.79
551.64	2570.94
551.99	2572.29
552.35	2573.29
552.70	2575.33
553.06	2576.86
553.41	2577.90
553.77	2579.44
554.13	2580.94
554.48	2582.36
554.84	2582.99
555.19	2583.81
555.55	2585.65
555.90	2584.64
556.26	2583.20
556.61	2581.41
556.97	2579.14
557.32	2578.17
557.68	2576.91
558.03	2574.95
558.39	2574.23
558.74	2573.18
559.10	2569.82
559.45	2566.29
559.81	2561.83
560.16	2556.44
560.52	2551.37
560.87	2547.14
561.23	2541.56
561.58	2535.86
561.94	2528.88
562.29	2521.82
562.64	2514.74
563.00	2506.30
563.35	2499.83
563.71	2493.52
564.06	2487.21
564.42	2481.16
564.77	2474.14
565.12	2466.69
565.48	2459.45
565.83	2450.85
566.19	2442.83
566.54	2435.02
566.89	2427.42
567.25	2419.72
567.60	2412.85
567.96	2405.25
568.31	2397.19
568.66	2388.86
569.02	2379.51
569.37	2371.40
569.72	2363.76
570.08	2354.41
570.43	2345.05
570.78	2336.23
571.14	2326.80
571.49	2316.47
571.84	2306.51
572.20	2295.85
572.55	2285.78
572.90	2274.71
573.26	2264.67
573.61	2253.73
573.96	2242.56
574.31	2230.38
574.67	2218.43
575.02	2205.62
575.37	2193.12
575.72	2180.00
576.08	2167.97
576.43	2155.53
576.78	2142.45
577.13	2128.99
577.49	2116.38
577.84	2104.89
578.19	2092.60
578.54	2079.82
578.90	2068.29
579.25	2056.22
579.60	2043.81
579.95	2030.90
580.30	2018.00
580.66	2004.56
581.01	1991.19
581.36	1977.52
581.71	1965.04
582.06	1952.41
582.42	1940.53
582.77	1927.96
583.12	1916.00
583.47	1903.34
583.82	1891.65
584.17	1879.74
584.53	1868.05
584.88	1855.55
585.23	1842.43
585.58	1828.52
585.93	1815.62
586.28	1802.48
586.63	1788.50
586.98	1774.42
587.34	1761.51
587.69	1748.38
588.04	1736.01
588.39	1724.15
588.74	1711.97
589.09	1700.07
589.44	1687.62
589.79	1675.10
590.14	1663.45
590.49	1651.77
590.84	1639.97
591.19	1628.31
591.54	1616.30
591.89	1604.13
592.25	1593.88
592.60	1582.34
592.95	1571.10
593.30	1559.38
593.65	1547.36
594.00	1535.31
594.35	1525.69
594.70	1513.94
595.05	1502.67
595.40	1490.90
595.75	1479.19
596.10	1468.01
596.45	1456.49
596.80	1445.69
597.15	1434.72
597.50	1423.16
597.85	1411.73
598.19	1400.23
598.54	1388.45
598.89	1377.21
599.24	1366.79
599.59	1355.39
599.94	1344.93
600.29	1334.90
600.64	1324.70
600.99	1314.29
601.34	1305.23
601.69	1294.26
602.04	1284.59
602.39	1275.11
602.74	1265.99
603.08	1256.51
603.43	1247.44
603.78	1237.74
604.13	1228.29
604.48	1218.50
604.83	1208.77
605.18	1199.27
605.53	1190.14
605.87	1181.10
606.22	1172.90
606.57	1163.54
606.92	1154.34
607.27	1145.47
607.62	1136.59
607.96	1128.14
608.31	1120.31
608.66	1111.76
609.01	1103.39
609.36	1095.04
609.70	1086.67
610.05	1078.20
610.40	1069.99
610.75	1061.36
611.10	1053.33
611.44	1044.83
611.79	1036.83
612.14	1029.06
612.49	1021.38
612.83	1013.83
613.18	1006.39
613.53	998.47
613.88	990.90
614.22	983.18
614.57	975.40
614.92	967.71
615.27	960.24
615.61	952.57
615.96	945.16
616.31	937.57
616.65	930.54
617.00	923.19
617.35	915.88
617.70	908.80
618.04	901.82
618.39	894.79
618.74	888.35
619.08	881.61
619.43	874.69
619.78	867.55
620.12	860.65
620.47	853.70
620.82	846.74
621.16	839.83
621.51	833.60
621.85	827.22
622.20	820.61
622.55	814.07
622.89	807.75
623.24	801.64
623.59	795.43
623.93	789.18
624.28	783.19
624.62	777.81
624.97	772.13
625.32	766.42
625.66	760.65
626.01	754.64
626.35	749.13
626.70	743.73
627.04	738.58
627.39	733.04
627.73	727.81
628.08	722.70
628.43	717.52
628.77	712.06
629.12	706.89
629.46	702.34
629.81	697.70
630.15	692.80
630.50	687.77
630.84	682.97
631.19	678.20
631.53	673.55
631.88	668.27
632.22	663.43
632.57	658.96
632.91	654.33
633.26	650.09
633.60	645.42
633.95	640.90
634.29	636.14
634.64	631.85
634.98	627.20
635.32	623.00
635.67	619.05
636.01	615.02
636.36	610.66
636.70	606.53
637.05	602.26
637.39	598.30
637.73	594.40
638.08	590.51
638.42	586.34
638.77	582.11
639.11	577.97
639.45	573.68
639.80	569.38
640.14	565.63
640.49	561.75
640.83	558.15
641.17	554.60
641.52	550.96
641.86	547.38
642.20	544.28
642.55	540.69
642.89	537.00
643.23	533.45
643.58	530.45
643.92	526.80
644.26	523.45
644.61	520.21
644.95	516.85
645.29	513.39
645.64	510.19
645.98	507.08
646.32	504.12
646.66	501.12
647.01	498.22
647.35	495.43
647.69	492.44
648.04	489.63
648.38	486.63
648.72	483.84
649.06	480.95
649.41	477.79
649.75	474.81
650.09	471.93
650.43	469.11
650.78	466.20
651.12	463.43
651.46	460.67
651.80	457.88
652.14	455.21
652.49	452.82
652.83	450.30
653.17	447.89
653.51	445.19
653.85	442.83
654.20	440.48
654.54	437.88
654.88	435.30
655.22	433.07
655.56	430.70
655.90	428.52
656.25	426.19
656.59	424.00
656.93	421.90
657.27	419.91
657.61	417.66
657.95	415.46
658.29	413.34
658.64	411.31
658.98	409.10
659.32	406.94
659.66	404.73
660.00	402.78
660.34	400.68
660.68	398.81
661.02	396.79
661.36	394.72
661.70	392.75
662.05	391.04
662.39	389.07
662.73	387.38
663.07	385.64
663.41	383.79
663.75	381.94
664.09	380.17
664.43	378.24
664.77	376.62
665.11	374.81
665.45	373.17
665.79	371.55
666.13	369.90
666.47	368.29
666.81	366.75
667.15	364.98
667.49	363.56
667.83	362.21
668.17	360.81
668.51	359.36
668.85	358.04
669.19	356.74
669.53	355.16
669.87	353.63
670.21	352.12
670.55	350.81
670.89	349.75
671.23	348.40
671.57	347.10
671.91	345.76
672.25	344.54
672.58	343.43
672.92	342.04
673.26	340.80
673.60	339.65
673.94	338.55
674.28	337.50
674.62	336.42
674.96	335.03
675.30	333.75
675.64	332.58
675.97	331.37
676.31	330.08
676.65	328.88
676.99	327.87
677.33	326.69
677.67	325.52
678.01	324.10
678.34	322.99
678.68	322.02
679.02	321.00
679.36	320.01
679.70	318.81
680.04	317.87
680.37	316.99
680.71	315.96
681.05	314.96
681.39	314.04
681.73	312.95
682.06	312.10
682.40	311.25
682.74	310.42
683.08	309.67
683.42	308.75
683.75	308.00
684.09	307.08
684.43	306.36
684.77	305.57
685.10	304.82
685.44	304.11
685.78	303.24
686.12	302.40
686.45	301.57
686.79	300.86
687.13	300.23
687.46	299.42
687.80	298.75
688.14	298.04
688.48	297.25
688.81	296.49
689.15	295.86
689.49	295.19
689.82	294.50
690.16	293.65
690.50	293.01
690.83	292.33
691.17	291.57
691.51	290.90
691.84	290.40
692.18	289.75
692.52	289.03
692.85	288.47
693.19	288.08
693.52	287.52
693.86	286.84
694.20	286.15
694.53	285.67
694.87	284.99
695.21	284.25
695.54	283.64
695.88	282.99
696.21	282.26
696.55	281.61
696.88	281.02
697.22	280.39
697.56	279.84
697.89	279.22
698.23	278.78
698.56	278.20
698.90	277.65
699.23	277.11
699.57	276.60
699.90	276.04
700.24	275.35
700.58	274.89
700.91	274.55
701.25	274.49
701.58	274.25
701.92	273.93
702.25	273.55
702.59	273.03
702.92	272.66
703.26	272.27
703.59	271.86
703.93	271.85
704.26	271.58
704.60	271.17
704.93	270.75
705.26	270.24
705.60	269.86
705.93	269.32
706.27	269.09
706.60	268.83
706.94	268.65
707.27	268.24
707.61	267.86
707.94	267.42
708.27	266.63
708.61	265.88
708.94	265.48
709.28	265.14
709.61	264.77
709.94	264.45
710.28	264.20
710.61	263.82
710.95	263.03
711.28	262.91
711.61	262.50
711.95	262.26
712.28	261.80
712.61	261.47
712.95	261.36
713.28	261.15
713.61	260.70
713.95	260.16
714.28	259.92
714.61	259.46
714.95	259.05
715.28	258.64
715.61	258.33
715.95	257.94
716.28	257.57
716.61	257.35
716.95	256.98
717.28	256.51
717.61	256.24
717.94	256.01
718.28	255.42
718.61	255.03
718.94	254.64
719.27	254.45
719.61	254.15
719.94	253.71
720.27	253.20
720.60	252.90
720.94	252.63
721.27	252.38
721.60	252.29
721.93	252.01
722.27	251.97
722.60	251.84
722.93	251.61
723.26	251.36
723.59	251.13
723.93	250.92
724.26	250.80
724.59	250.50
724.92	250.26
725.25	250.19
725.59	250.02
725.92	249.88
726.25	249.60
726.58	249.47
726.91	249.30
727.24	249.18
727.57	248.94
727.91	248.63
728.24	248.45
728.57	248.25
728.90	248.15
729.23	247.71
729.56	247.71
729.89	247.50
730.22	247.32
730.55	247.11
730.89	246.93
731.22	246.73
731.55	246.54
731.88	246.42
732.21	246.06
732.54	245.81
732.87	245.61
733.20	245.54
733.53	245.39
733.86	245.22
734.19	245.03
734.52	244.97
734.85	245.22
735.18	245.00
735.51	244.91
735.84	244.77
736.17	244.81
736.50	244.32
736.83	244.77
737.16	244.71
737.49	244.58
737.82	244.41
738.15	244.32
738.48	244.19
738.81	243.98
739.14	243.83
739.47	243.79
739.80	243.70
740.13	243.57
740.46	243.34
740.79	243.15
741.12	243.00
741.45	242.79
741.78	242.34
742.11	242.33
742.44	242.08
742.77	242.08
743.10	241.96
743.43	241.90
743.75	241.28
744.08	241.75
744.41	241.60
744.74	241.49
745.07	241.24
745.40	241.26
745.73	241.40
746.06	241.34
746.39	241.30
746.71	241.09
747.04	240.95
747.37	240.77
747.70	240.76
748.03	240.62
748.36	240.60
748.68	240.48
749.01	240.21
749.34	240.18
749.67	239.97
750.00	239.85
750.33	240.16
750.65	240.02
750.98	239.36
751.31	239.27
751.64	239.18
751.97	239.31
752.29	239.13
752.62	238.77
752.95	238.61
753.28	238.37
753.60	238.25
753.93	238.23
754.26	238.17
754.59	237.89
754.91	237.76
755.24	237.60
755.57	237.53
755.90	237.44
756.22	237.26
756.55	237.11
756.88	236.95
757.20	236.50
757.53	236.31
757.86	236.03
758.19	235.95
758.51	235.82
758.84	235.43
759.17	235.23
759.49	235.14
759.82	235.30
760.15	235.32
760.47	235.25
760.80	235.00
761.13	234.99
761.45	234.93
761.78	234.84
762.11	234.78
762.43	234.65
762.76	234.58
763.08	234.44
763.41	234.38
763.74	234.28
764.06	234.15
764.39	234.07
764.71	234.00
765.04	233.90
765.37	233.77
765.69	233.76
766.02	233.67
766.34	233.47
766.67	233.22
767.00	233.15
767.32	233.34
767.65	233.61
767.97	233.44
768.30	233.42
768.62	233.42
768.95	233.25
769.27	233.11
769.60	233.07
769.92	233.00
770.25	232.78
770.57	232.64
770.90	232.58
771.22	232.42
771.55	232.46
771.87	232.38
772.20	232.26
772.52	232.65
772.85	233.19
773.17	233.28
773.50	233.17
773.82	233.05
774.15	232.75
774.47	232.37
774.80	232.31
775.12	232.22
775.45	232.06
775.77	232.04
776.09	232.03
776.42	231.92
776.74	231.96
777.07	231.96
777.39	231.94
777.72	231.82
778.04	231.92
778.36	231.78
778.69	231.68
779.01	231.74
779.33	231.25
779.66	230.71
779.98	230.61
780.31	230.63
780.63	230.75
780.95	230.77
781.28	230.71
781.60	230.65
781.92	230.64
782.25	230.67
782.57	230.61
782.89	230.54
783.22	230.59
783.54	230.50
783.86	230.47
784.19	230.39
784.51	230.57
784.83	230.46
785.16	230.39
785.48	230.47
785.80	230.46
786.12	230.50
786.45	230.43
786.77	230.45
787.09	230.34
787.42	230.20
787.74	230.24
788.06	230.26
788.38	230.26
788.71	230.21
789.03	230.20
789.35	230.32
789.67	230.25
789.99	230.18
790.32	230.07
790.64	230.10
790.96	230.47
791.28	230.24
791.61	230.15
791.93	230.21
792.25	230.17
792.57	230.46
792.89	230.37
793.21	230.43
793.54	230.38
793.86	230.35
794.18	230.34
794.50	230.22
794.82	230.25
795.14	230.30
795.47	230.40
795.79	230.34
796.11	230.18
796.43	230.17
796.75	230.22
797.07	230.29
797.39	230.27
797.71	229.92
798.04	229.89
798.36	229.91
798.68	229.93
799.00	229.99
799.32	229.63
799.64	229.64
799.96	229.51
800.28	229.56
800.60	229.47
800.92	229.48
801.24	229.39
801.56	229.38
801.89	229.27
802.21	229.22
802.53	229.13
802.85	229.17
803.17	229.42
803.49	229.25
803.81	229.15
804.13	229.20
804.45	229.12
804.77	229.20
805.09	229.18
805.41	229.13
805.73	228.90
806.05	228.86
806.37	228.83
806.69	228.87
807.01	228.80
807.33	228.83
807.65	228.63
807.97	228.86
808.28	228.81
808.60	228.73
808.92	228.64
809.24	228.90
809.56	228.92
809.88	228.72
810.20	228.75
810.52	228.83
810.84	228.65
811.16	228.69
811.48	228.55
811.80	228.64
812.12	228.57
812.43	228.67
812.75	228.70
813.07	228.65
813.39	228.61
813.71	228.54
814.03	228.49
814.35	228.54
814.67	228.29
814.98	228.23
815.30	228.25
815.62	228.12
815.94	227.86
816.26	228.07
816.58	228.01
816.89	228.05
817.21	227.94
817.53	227.94
817.85	227.89
818.17	227.97
818.48	227.85
818.80	227.96
819.12	227.90
819.44	227.80
819.76	227.73
820.07	227.76
820.39	227.75
820.71	227.80
821.03	227.84
821.34	227.78
821.66	227.82
821.98	227.87
822.30	227.90
822.61	228.15
822.93	227.79
823.25	227.76
823.57	227.74
823.88	227.81
824.20	227.85
824.52	227.92
824.83	227.95
825.15	227.88
825.47	227.79
825.79	227.87
826.10	227.85
826.42	227.80
826.74	227.81
827.05	227.75
827.37	227.81
827.69	227.76
828.00	227.81
828.32	227.84
828.64	227.78
828.95	228.03
829.27	227.87
829.58	227.87
829.90	227.87
830.22	227.88
830.53	227.75
830.85	227.73
831.17	227.56
831.48	227.53
831.80	227.57
832.11	227.67
832.43	227.56
832.75	227.61
833.06	227.98
833.38	227.80
833.69	227.88
834.01	227.88
834.32	227.79
834.64	227.75
834.96	227.69
835.27	227.68
835.59	227.52
835.90	227.50
836.22	227.54
836.53	227.52
836.85	227.46
837.16	227.97
837.48	227.94
837.79	228.16
838.11	228.10
838.42	228.03
838.74	227.96
839.05	227.90
839.37	227.82
839.68	227.45
840.00	227.43
840.31	227.42
840.63	227.39
840.94	227.37
841.26	227.34
841.57	227.34
841.88	227.39
842.20	227.33
842.51	227.17
842.83	227.11
843.14	227.55
843.46	227.57
843.77	227.27
844.08	227.17
844.40	227.04
844.71	227.02
845.03	226.99
845.34	226.94
845.65	226.94
845.97	227.04
846.28	227.06
846.60	227.07
846.91	227.00
847.22	226.90
847.54	227.03
847.85	227.04
848.16	227.00
848.48	226.88
848.79	227.02
849.10	227.04
849.42	227.03
849.73	226.51
850.04	226.51
850.36	226.34
850.67	226.44
850.98	226.42
851.30	226.46
851.61	226.51
851.92	226.48
852.23	226.62
852.55	226.57
852.86	226.61
853.17	226.69
853.49	226.78
853.80	226.89
854.11	226.90
854.42	227.00
854.74	226.89
855.05	226.88
855.36	226.69
855.67	226.75
855.99	226.81
856.30	227.44
856.61	227.38
856.92	227.40
857.23	227.40
857.55	227.40
857.86	227.42
858.17	227.47
858.48	227.41
858.79	227.32
859.11	227.31
859.42	227.26
859.73	227.18
860.04	227.11
860.35	226.92
860.66	226.75
860.98	226.64
861.29	226.77
861.60	226.84
861.91	226.91
862.22	226.84
862.53	226.79
862.84	226.19
863.16	226.23
863.47	226.16
863.78	226.16
864.09	226.14
864.40	226.13
864.71	226.13
865.02	226.19
865.33	226.12
865.64	226.00
865.95	226.09
866.27	226.40
866.58	226.47
866.89	226.63
867.20	226.69
867.51	226.67
867.82	226.63
868.13	226.69
868.44	226.58
868.75	226.74
869.06	226.70
869.37	226.72
869.68	226.67
869.99	226.73
870.30	226.74
870.61	226.80
870.92	226.71
871.23	226.72
871.54	226.78
871.85	226.92
872.16	227.03
872.47	226.91
872.78	226.73
873.09	226.75
873.40	226.68
873.71	226.68
874.02	226.71
874.33	226.68
874.64	226.61
874.95	226.72
875.26	226.64
875.56	226.63
875.87	226.66
876.18	226.70
876.49	227.17
876.80	227.10
877.11	226.94
877.42	226.94
877.73	226.96
878.04	226.91
878.35	226.97
878.66	226.97
878.96	226.99
879.27	226.91
879.58	226.81
879.89	226.73
880.20	226.85
880.51	226.85
880.82	226.83
881.12	226.82
881.43	226.73
881.74	226.61
882.05	226.58
882.36	226.61
882.67	226.64
882.97	226.17
883.28	226.18
883.59	226.20
883.90	226.26
884.21	226.20
884.51	226.11
884.82	226.01
885.13	225.90
885.44	225.81
885.74	225.79
886.05	225.77
886.36	225.73
886.67	225.57
886.98	225.80
887.28	225.86
887.59	225.85
887.90	225.87
888.20	225.88
888.51	226.03
888.82	225.95
889.13	225.92
889.43	226.23
889.74	226.14
890.05	226.18
890.35	226.14
890.66	226.11
890.97	226.11
891.28	226.03
891.58	226.10
891.89	226.19
892.20	226.10
892.50	226.05
892.81	226.06
893.12	225.95
893.42	225.69
893.73	225.66
894.04	225.67
894.34	225.63
894.65	225.60
894.95	225.47
895.26	225.51
895.57	225.68
895.87	225.24
896.18	225.32
896.48	225.37
896.79	225.38
897.10	225.46
897.40	225.47
897.71	225.53
898.01	225.55
898.32	225.59
898.63	225.61
898.93	225.67
899.24	225.74
899.54	225.85
899.85	225.91
900.15	225.87
900.46	225.89
900.76	225.97
901.07	226.02
901.38	226.06
901.68	226.07
901.99	225.84
902.29	225.94
902.60	225.91
902.90	225.87
903.21	225.85
903.51	225.83
903.82	225.92
904.12	225.92
904.43	225.95
904.73	225.94
905.03	226.00
905.34	226.47
905.64	226.43
905.95	226.46
906.25	226.41
906.56	226.45
906.86	226.46
907.17	226.43
907.47	226.38
907.77	226.33
908.08	226.26
908.38	226.34
908.69	226.37
908.99	226.47
909.30	226.45
909.60	226.48
909.90	226.42
910.21	226.30
910.51	226.23
910.81	226.20
911.12	226.23
911.42	226.24
911.73	225.78
912.03	225.82
912.33	225.88
912.64	225.87
912.94	225.82
913.24	225.68
913.55	225.61
913.85	225.68
914.15	225.82
914.46	225.90
914.76	225.87
915.06	225.84
915.37	225.77
915.67	225.76
915.97	225.70
916.27	225.66
916.58	225.73
916.88	225.75
917.18	225.74
917.49	226.06
917.79	226.02
918.09	226.12
918.39	226.22
918.70	226.26
919.00	226.31
919.30	226.57
919.60	226.62
919.91	226.66
920.21	226.71
920.51	226.57
920.81	226.55
921.12	226.67
921.42	226.69
921.72	226.74
922.02	226.75
922.32	226.85
922.63	226.91
922.93	227.13
923.23	227.18
923.53	227.10
923.83	226.75
924.13	226.83
924.44	226.76
924.74	226.91
925.04	226.98
925.34	227.00
925.64	226.76
925.94	226.75
926.24	227.04
926.55	226.92
926.85	227.00
927.15	227.03
927.45	226.90
927.75	226.87
928.05	226.93
928.35	226.91
928.65	227.01
928.95	227.03
929.26	226.82
929.56	226.88
929.86	226.95
930.16	226.95
930.46	226.84
930.76	226.86
931.06	226.52
931.36	226.39
931.66	226.44
931.96	226.48
932.26	226.54
932.56	226.26
932.86	226.38
933.16	226.41
933.46	226.31
933.76	226.37
934.06	226.53
934.36	226.65
934.66	226.62
934.96	226.47
935.26	226.49
935.56	226.68
935.86	226.51
936.16	226.46
936.46	226.46
936.76	226.48
937.06	226.41
937.36	226.53
937.66	226.53
937.96	226.47
938.26	226.36
938.56	226.32
938.86	226.39
939.16	226.50
939.46	226.50
939.76	226.53
940.06	226.50
940.35	226.32
940.65	226.04
940.95	226.09
941.25	226.02
941.55	225.96
941.85	225.85
942.15	226.00
942.45	226.15
942.75	226.10
943.04	226.09
943.34	226.19
943.64	226.10
943.94	226.06
944.24	226.07
944.54	226.16
944.84	226.18
945.13	226.10
945.43	226.00
945.73	225.91
946.03	225.85
946.33	225.82
946.62	225.81
946.92	225.82
947.22	225.87
947.52	225.90
947.82	225.90
948.11	225.89
948.41	225.75
948.71	225.63
949.01	225.64
949.31	225.63
949.60	225.61
949.90	225.70
950.20	225.63
950.50	225.60
950.79	225.55
951.09	225.62
951.39	225.60
951.69	225.54
951.98	225.70
952.28	225.78
952.58	225.76
952.87	225.74
953.17	225.77
953.47	225.72
953.76	225.72
954.06	225.67
954.36	225.55
954.66	225.57
954.95	225.67
955.25	225.68
955.55	225.72
955.84	225.68
956.14	225.70
956.44	225.74
956.73	225.72
957.03	225.79
957.32	225.83
957.62	225.80
957.92	225.86
958.21	225.75
958.51	226.27
958.81	226.34
959.10	226.47
959.40	226.62
959.69	226.64
959.99	226.72
960.29	226.74
960.58	226.80
960.88	226.99
961.17	226.90
961.47	227.01
961.76	227.00
962.06	227.05
962.36	227.02
962.65	227.12
962.95	227.12
963.24	227.02
963.54	226.95
963.83	226.98
964.13	226.97
964.42	226.95
964.72	226.57
965.01	226.60
965.31	226.53
965.60	226.43
965.90	226.74
966.19	226.67
966.49	226.67
966.78	226.59
967.08	226.55
967.37	226.58
967.67	226.39
967.96	226.47
968.26	226.47
968.55	226.51
968.85	226.46
969.14	226.38
969.43	226.39
969.73	226.36
970.02	226.33
970.32	226.24
970.61	226.23
970.91	226.07
971.20	225.88
971.49	225.84
971.79	225.89
972.08	225.50
972.38	225.53
972.67	225.55
972.96	225.63
973.26	225.54
973.55	225.66
973.85	225.63
974.14	225.62
974.43	225.58
974.73	225.45
975.02	225.36
975.31	225.45
975.61	225.44
975.90	225.39
976.19	225.36
976.49	225.44
976.78	225.44
977.07	225.45
977.37	225.55
977.66	225.60
977.95	225.50
978.24	225.61
978.54	225.70
978.83	225.61
979.12	225.61
979.42	225.59
979.71	225.46
980.00	225.58
980.29	225.56
980.59	225.54
980.88	225.71
981.17	225.73
981.46	225.72
981.76	225.73
982.05	225.90
982.34	225.96
982.63	225.95
982.93	225.96
983.22	226.03
983.51	226.04
983.80	226.08
984.09	226.12
984.39	226.06
984.68	225.96
984.97	226.09
985.26	226.07
985.55	226.14
985.85	226.13
986.14	226.16
986.43	226.20
986.72	226.14
987.01	225.94
987.30	225.98
987.59	225.91
987.89	225.90
988.18	225.78
988.47	225.76
988.76	225.73
989.05	225.62
989.34	225.53
989.63	225.69
989.92	225.56
990.22	225.56
990.51	225.56
990.80	225.52
991.09	225.54
991.38	225.55
991.67	225.51
991.96	225.45
992.25	225.43
992.54	225.34
992.83	225.35
993.12	225.39
993.41	225.47
993.70	225.78
993.99	225.91
994.28	225.96
994.58	226.06
994.87	226.05
995.16	226.11
995.45	226.13
995.74	225.91
996.03	226.05
996.32	226.12
996.61	226.27
996.90	226.25
997.19	226.26
997.48	226.29
997.77	226.22
998.06	226.21
998.34	226.20
998.63	226.23
998.92	226.25
999.21	226.34
999.50	226.30
999.79	226.05
1000.08	226.02
1000.37	226.05
1000.66	225.99
1000.95	226.12
1001.24	226.16
1001.53	226.17
1001.82	226.14
1002.11	226.01
1002.40	226.03
1002.68	226.09
1002.97	226.45
1003.26	226.42
1003.55	226.33
1003.84	226.35
1004.13	226.58
1004.42	226.51
1004.71	226.51
1004.99	226.55
1005.28	226.67
1005.57	226.61
1005.86	226.62
1006.15	226.62
1006.44	226.55
1006.72	226.60
1007.01	226.50
1007.30	226.54
1007.59	226.57
1007.88	226.68
1008.17	226.71
1008.45	226.55
1008.74	226.31
1009.03	226.07
1009.32	226.03
1009.60	225.99
1009.89	225.94
1010.18	225.70
1010.47	225.72
1010.76	225.73
1011.04	225.68
1011.33	225.61
1011.62	225.66
1011.91	225.64
1012.19	225.61
1012.48	225.58
1012.77	225.54
1013.05	225.76
1013.34	225.73
1013.63	225.65
1013.92	225.65
1014.20	225.57
1014.49	225.67
1014.78	225.71
1015.06	225.59
1015.35	225.59
1015.64	225.70
1015.92	225.85
1016.21	225.90
1016.50	225.87
1016.78	225.87
1017.07	225.90
1017.36	225.82
1017.64	225.75
1017.93	225.89
1018.22	225.83
1018.50	225.84
1018.79	225.79
1019.08	225.54
1019.36	225.54
1019.65	225.50
1019.93	225.59
1020.22	225.67
1020.51	225.90
1020.79	225.85
1021.08	224.80
1021.36	224.80
1021.65	225.20
1021.94	225.35
1022.22	225.95
1022.51	224.45
1022.79	227.85
1023.08	225.40
1023.36	231.30
1023.65	224.50
>>>>>End Processed Spectral Data<<<<<
