SpectraSuite Data File
++++++++++++++++++++++++++++++++++++
Date: Wed Sep 04 17:56:07 EDT 2013
User: lab3
Dark Spectrum Present: Yes
Reference Spectrum Present: No
Number of Sampled Component Spectra: 1
Spectrometers: USB2E7196
Integration Time (usec): 170000 (USB2E7196)
Spectra Averaged: 20 (USB2E7196)
Boxcar Smoothing: 10 (USB2E7196)
Correct for Electrical Dark: No (USB2E7196)
Strobe/Lamp Enabled: No (USB2E7196)
Correct for Detector Non-linearity: No (USB2E7196)
Correct for Stray Light: No (USB2E7196)
Number of Pixels in Processed Spectrum: 2048
>>>>>Begin Processed Spectral Data<<<<<
339.09	0.00
339.48	212.30
339.86	214.20
340.24	215.40
340.63	217.20
341.01	225.80
341.39	220.90
341.78	222.60
342.16	223.45
342.54	224.15
342.93	212.49
343.31	223.27
343.69	223.83
344.07	224.33
344.46	224.88
344.84	225.36
345.22	225.37
345.60	225.65
345.99	225.78
346.37	225.88
346.75	225.96
347.13	226.04
347.52	226.16
347.90	226.41
348.28	226.45
348.66	226.60
349.05	226.40
349.43	226.39
349.81	226.48
350.19	226.46
350.57	226.57
350.96	226.63
351.34	226.66
351.72	226.80
352.10	226.92
352.48	226.91
352.87	226.88
353.25	226.94
353.63	226.94
354.01	227.01
354.39	227.15
354.77	227.23
355.15	227.39
355.54	227.41
355.92	227.26
356.30	227.35
356.68	227.71
357.06	227.84
357.44	227.91
357.82	227.93
358.20	228.38
358.58	228.37
358.97	228.53
359.35	228.68
359.73	228.81
360.11	228.84
360.49	228.90
360.87	228.91
361.25	229.02
361.63	229.23
362.01	229.36
362.39	229.36
362.77	229.45
363.15	229.50
363.53	229.56
363.91	229.63
364.29	229.65
364.67	229.24
365.05	229.25
365.43	229.32
365.81	229.36
366.19	229.30
366.57	229.49
366.95	229.42
367.33	229.33
367.71	229.35
368.09	229.46
368.47	229.47
368.85	229.55
369.23	229.62
369.61	229.45
369.99	229.58
370.37	229.66
370.75	229.81
371.13	229.68
371.51	229.56
371.89	229.62
372.27	229.64
372.65	229.69
373.03	229.74
373.41	229.60
373.78	229.59
374.16	229.27
374.54	229.14
374.92	229.07
375.30	229.10
375.68	228.96
376.06	228.91
376.44	228.85
376.82	228.81
377.19	228.71
377.57	228.64
377.95	228.41
378.33	228.22
378.71	227.86
379.09	227.84
379.47	227.86
379.84	227.66
380.22	227.53
380.60	227.30
380.98	227.20
381.36	227.18
381.73	227.02
382.11	227.06
382.49	226.95
382.87	226.80
383.25	226.73
383.62	227.20
384.00	227.07
384.38	227.04
384.76	227.11
385.13	227.21
385.51	227.15
385.89	227.04
386.27	226.98
386.64	227.08
387.02	227.06
387.40	226.98
387.78	226.95
388.15	226.92
388.53	226.92
388.91	226.82
389.29	226.75
389.66	226.82
390.04	226.70
390.42	226.71
390.79	226.76
391.17	226.73
391.55	226.13
391.92	226.09
392.30	226.05
392.68	225.83
393.05	225.81
393.43	225.83
393.81	225.88
394.18	225.90
394.56	225.93
394.94	225.93
395.31	225.92
395.69	226.11
396.06	226.22
396.44	226.27
396.82	226.29
397.19	226.63
397.57	226.64
397.95	226.76
398.32	226.74
398.70	226.83
399.07	226.96
399.45	227.04
399.82	227.14
400.20	227.25
400.58	227.43
400.95	227.32
401.33	227.52
401.70	227.98
402.08	228.14
402.45	228.18
402.83	228.50
403.20	228.66
403.58	228.74
403.95	228.95
404.33	229.22
404.71	229.46
405.08	229.87
405.46	230.00
405.83	230.31
406.21	230.62
406.58	230.93
406.96	231.22
407.33	231.65
407.70	232.04
408.08	232.76
408.45	233.20
408.83	233.73
409.20	234.00
409.58	234.15
409.95	234.69
410.33	235.31
410.70	235.68
411.08	236.38
411.45	237.07
411.82	237.66
412.20	238.40
412.57	239.41
412.95	239.76
413.32	240.73
413.69	241.52
414.07	242.44
414.44	243.43
414.82	244.41
415.19	245.51
415.56	246.69
415.94	247.75
416.31	249.19
416.68	250.54
417.06	252.22
417.43	253.83
417.81	255.63
418.18	257.43
418.55	259.40
418.93	261.40
419.30	263.49
419.67	265.77
420.04	268.10
420.42	270.46
420.79	273.52
421.16	276.23
421.54	279.29
421.91	282.33
422.28	285.42
422.66	288.73
423.03	292.27
423.40	295.67
423.77	299.17
424.15	302.75
424.52	306.49
424.89	310.75
425.26	314.72
425.64	318.41
426.01	322.59
426.38	326.91
426.75	331.48
427.13	336.05
427.50	340.76
427.87	345.67
428.24	350.50
428.61	355.04
428.99	360.44
429.36	365.94
429.73	371.39
430.10	376.88
430.47	382.50
430.85	388.09
431.22	394.28
431.59	400.98
431.96	407.21
432.33	414.18
432.70	420.77
433.08	428.72
433.45	436.17
433.82	443.62
434.19	451.92
434.56	460.05
434.93	467.80
435.30	475.52
435.68	484.20
436.05	492.71
436.42	501.10
436.79	508.72
437.16	517.10
437.53	525.86
437.90	534.72
438.27	543.53
438.64	552.38
439.01	560.58
439.38	567.94
439.75	575.10
440.13	583.22
440.50	590.81
440.87	596.86
441.24	603.34
441.61	610.23
441.98	615.22
442.35	621.00
442.72	626.97
443.09	632.84
443.46	636.24
443.83	638.45
444.20	640.24
444.57	642.88
444.94	643.97
445.31	645.10
445.68	646.39
446.05	646.40
446.42	645.14
446.79	643.68
447.16	641.88
447.53	640.60
447.90	636.91
448.27	633.29
448.64	628.43
449.01	624.65
449.37	618.40
449.74	612.36
450.11	605.48
450.48	597.74
450.85	589.57
451.22	582.61
451.59	576.02
451.96	569.80
452.33	561.70
452.70	554.26
453.07	545.67
453.43	536.45
453.80	528.06
454.17	520.02
454.54	512.40
454.91	504.29
455.28	496.31
455.65	488.88
456.02	481.95
456.38	475.46
456.75	467.68
457.12	461.25
457.49	454.97
457.86	448.60
458.23	443.33
458.59	437.77
458.96	431.95
459.33	426.85
459.70	421.71
460.07	417.56
460.43	412.80
460.80	408.46
461.17	404.76
461.54	400.67
461.91	396.88
462.27	392.97
462.64	389.68
463.01	386.20
463.38	382.86
463.74	378.79
464.11	375.90
464.48	373.19
464.85	370.31
465.21	368.06
465.58	365.76
465.95	362.96
466.32	360.79
466.68	358.60
467.05	356.36
467.42	354.19
467.78	352.09
468.15	350.08
468.52	348.51
468.88	346.21
469.25	344.35
469.62	342.95
469.98	341.34
470.35	339.89
470.72	338.42
471.08	336.78
471.45	335.56
471.82	334.25
472.18	332.95
472.55	332.01
472.92	330.75
473.28	329.63
473.65	328.53
474.02	327.48
474.38	326.70
474.75	325.98
475.11	325.14
475.48	324.42
475.85	323.77
476.21	323.14
476.58	322.75
476.94	322.37
477.31	321.79
477.67	321.43
478.04	321.16
478.41	320.82
478.77	321.06
479.14	320.85
479.50	320.72
479.87	320.71
480.23	320.67
480.60	320.63
480.96	320.57
481.33	320.98
481.69	321.17
482.06	321.32
482.42	321.50
482.79	321.88
483.15	322.30
483.52	323.00
483.88	323.43
484.25	323.93
484.61	324.59
484.98	325.35
485.34	326.28
485.71	327.13
486.07	328.10
486.44	328.74
486.80	329.79
487.17	330.97
487.53	332.38
487.90	333.79
488.26	335.52
488.62	337.21
488.99	338.70
489.35	340.45
489.72	342.19
490.08	344.28
490.44	346.19
490.81	348.48
491.17	350.59
491.54	353.11
491.90	355.70
492.26	358.41
492.63	361.09
492.99	363.94
493.36	366.97
493.72	370.41
494.08	373.78
494.45	377.59
494.81	381.50
495.17	385.33
495.54	389.46
495.90	393.60
496.26	398.09
496.63	402.79
496.99	407.55
497.35	412.69
497.72	417.87
498.08	423.40
498.44	429.08
498.80	435.18
499.17	441.09
499.53	447.45
499.89	454.17
500.26	461.08
500.62	468.04
500.98	475.46
501.34	482.85
501.71	490.69
502.07	498.38
502.43	506.45
502.79	514.80
503.16	523.57
503.52	532.55
503.88	541.77
504.24	551.45
504.60	561.43
504.97	571.74
505.33	582.25
505.69	593.44
506.05	604.38
506.41	615.56
506.78	627.30
507.14	639.18
507.50	651.50
507.86	664.14
508.22	677.12
508.59	690.05
508.95	703.67
509.31	717.63
509.67	732.04
510.03	746.39
510.39	761.10
510.75	776.21
511.12	791.59
511.48	807.35
511.84	823.14
512.20	839.04
512.56	855.40
512.92	872.10
513.28	888.56
513.64	905.94
514.00	923.51
514.37	941.26
514.73	959.37
515.09	977.45
515.45	995.84
515.81	1014.33
516.17	1033.54
516.53	1052.15
516.89	1070.86
517.25	1090.31
517.61	1110.54
517.97	1130.90
518.33	1150.97
518.69	1171.25
519.05	1191.58
519.41	1212.18
519.77	1233.22
520.13	1253.93
520.49	1274.72
520.85	1297.27
521.21	1318.37
521.57	1339.41
521.93	1360.10
522.29	1381.57
522.65	1402.22
523.01	1423.31
523.37	1443.84
523.73	1464.69
524.09	1485.36
524.45	1506.40
524.81	1527.03
525.17	1547.62
525.53	1567.95
525.89	1588.40
526.25	1609.11
526.61	1629.84
526.97	1650.77
527.33	1672.08
527.68	1693.89
528.04	1715.15
528.40	1735.12
528.76	1756.20
529.12	1777.19
529.48	1798.46
529.84	1818.17
530.20	1839.54
530.56	1860.26
530.91	1881.22
531.27	1901.44
531.63	1922.18
531.99	1942.65
532.35	1962.90
532.71	1983.09
533.07	2004.20
533.42	2024.32
533.78	2044.69
534.14	2064.42
534.50	2083.80
534.86	2102.82
535.21	2120.52
535.57	2139.12
535.93	2156.43
536.29	2174.12
536.65	2192.10
537.00	2209.40
537.36	2227.30
537.72	2243.43
538.08	2260.54
538.44	2277.38
538.79	2294.03
539.15	2310.36
539.51	2326.36
539.87	2341.40
540.22	2355.63
540.58	2369.69
540.94	2383.02
541.29	2395.50
541.65	2408.00
542.01	2420.58
542.37	2431.04
542.72	2441.67
543.08	2451.97
543.44	2463.62
543.79	2473.48
544.15	2483.09
544.51	2493.18
544.87	2502.54
545.22	2511.65
545.58	2519.35
545.94	2526.56
546.29	2532.82
546.65	2539.28
547.01	2544.94
547.36	2550.60
547.72	2556.15
548.07	2559.79
548.43	2565.11
548.79	2569.49
549.14	2573.49
549.50	2577.20
549.86	2581.48
550.21	2585.58
550.57	2589.21
550.92	2590.62
551.28	2592.36
551.64	2594.91
551.99	2596.40
552.35	2598.56
552.70	2600.56
553.06	2602.24
553.41	2603.53
553.77	2605.24
554.13	2606.85
554.48	2608.25
554.84	2609.57
555.19	2610.39
555.55	2612.50
555.90	2611.85
556.26	2611.07
556.61	2609.44
556.97	2607.26
557.32	2606.38
557.68	2605.37
558.03	2603.89
558.39	2602.54
558.74	2601.71
559.10	2598.14
559.45	2594.76
559.81	2590.08
560.16	2584.77
560.52	2580.09
560.87	2575.35
561.23	2570.33
561.58	2564.43
561.94	2557.37
562.29	2549.73
562.64	2543.03
563.00	2534.83
563.35	2528.22
563.71	2521.69
564.06	2515.66
564.42	2509.10
564.77	2502.59
565.12	2494.90
565.48	2487.30
565.83	2479.52
566.19	2471.28
566.54	2463.57
566.89	2455.64
567.25	2447.69
567.60	2440.81
567.96	2433.04
568.31	2425.31
568.66	2416.47
569.02	2407.44
569.37	2399.60
569.72	2392.44
570.08	2383.06
570.43	2373.22
570.78	2364.05
571.14	2354.63
571.49	2344.54
571.84	2334.93
572.20	2323.56
572.55	2313.44
572.90	2302.50
573.26	2292.21
573.61	2281.46
573.96	2270.39
574.31	2258.40
574.67	2246.86
575.02	2233.82
575.37	2221.16
575.72	2207.91
576.08	2196.04
576.43	2183.27
576.78	2169.89
577.13	2155.99
577.49	2143.21
577.84	2131.81
578.19	2119.77
578.54	2107.16
578.90	2095.21
579.25	2082.63
579.60	2070.50
579.95	2057.12
580.30	2044.13
580.66	2030.70
581.01	2016.86
581.36	2002.75
581.71	1990.22
582.06	1976.90
582.42	1964.40
582.77	1952.18
583.12	1940.30
583.47	1927.73
583.82	1915.79
584.17	1903.89
584.53	1892.04
584.88	1879.07
585.23	1865.70
585.58	1851.48
585.93	1838.25
586.28	1824.90
586.63	1811.01
586.98	1796.79
587.34	1783.87
587.69	1770.68
588.04	1758.15
588.39	1745.83
588.74	1733.83
589.09	1721.70
589.44	1709.39
589.79	1697.42
590.14	1685.02
590.49	1672.90
590.84	1660.76
591.19	1648.55
591.54	1636.22
591.89	1624.14
592.25	1613.96
592.60	1602.54
592.95	1591.10
593.30	1579.34
593.65	1567.35
594.00	1555.38
594.35	1545.48
594.70	1533.55
595.05	1521.80
595.40	1509.52
595.75	1497.41
596.10	1486.00
596.45	1474.48
596.80	1463.61
597.15	1452.24
597.50	1440.38
597.85	1428.93
598.19	1417.40
598.54	1405.90
598.89	1394.56
599.24	1383.71
599.59	1372.15
599.94	1361.32
600.29	1351.14
600.64	1340.74
600.99	1329.91
601.34	1320.41
601.69	1309.41
602.04	1299.70
602.39	1290.10
602.74	1281.03
603.08	1271.90
603.43	1262.73
603.78	1253.12
604.13	1243.19
604.48	1233.37
604.83	1223.70
605.18	1213.90
605.53	1204.47
605.87	1195.56
606.22	1187.10
606.57	1177.85
606.92	1168.36
607.27	1159.32
607.62	1150.29
607.96	1141.63
608.31	1133.77
608.66	1125.32
609.01	1116.77
609.36	1108.06
609.70	1099.75
610.05	1091.09
610.40	1082.70
610.75	1074.01
611.10	1065.65
611.44	1057.01
611.79	1048.80
612.14	1041.07
612.49	1033.13
612.83	1025.41
613.18	1017.37
613.53	1009.52
613.88	1001.80
614.22	994.03
614.57	986.12
614.92	978.36
615.27	970.70
615.61	962.88
615.96	955.39
616.31	947.90
616.65	940.94
617.00	933.58
617.35	926.11
617.70	918.81
618.04	911.60
618.39	904.58
618.74	898.34
619.08	891.61
619.43	884.47
619.78	877.30
620.12	870.20
620.47	863.45
620.82	856.49
621.16	849.52
621.51	843.30
621.85	837.04
622.20	830.33
622.55	823.64
622.89	817.20
623.24	810.56
623.59	804.13
623.93	797.93
624.28	791.72
624.62	786.15
624.97	780.43
625.32	774.67
625.66	768.75
626.01	762.60
626.35	756.89
626.70	751.47
627.04	746.36
627.39	740.80
627.73	735.35
628.08	730.23
628.43	724.91
628.77	719.41
629.12	714.16
629.46	709.50
629.81	704.84
630.15	700.09
630.50	695.43
630.84	690.59
631.19	685.73
631.53	681.00
631.88	675.88
632.22	670.92
632.57	666.41
632.91	661.73
633.26	657.33
633.60	652.65
633.95	647.84
634.29	643.12
634.64	638.72
634.98	633.95
635.32	629.21
635.67	625.20
636.01	621.00
636.36	616.64
636.70	612.51
637.05	608.37
637.39	604.28
637.73	600.19
638.08	596.10
638.42	591.72
638.77	587.43
639.11	583.13
639.45	578.80
639.80	574.38
640.14	570.18
640.49	566.15
640.83	562.40
641.17	558.77
641.52	555.02
641.86	551.46
642.20	548.42
642.55	544.93
642.89	541.36
643.23	537.83
643.58	534.62
643.92	530.90
644.26	527.52
644.61	524.24
644.95	520.83
645.29	517.41
645.64	514.40
645.98	511.30
646.32	508.38
646.66	505.46
647.01	502.58
647.35	499.92
647.69	496.92
648.04	493.97
648.38	491.19
648.72	488.32
649.06	485.27
649.41	482.20
649.75	479.23
650.09	476.32
650.43	473.40
650.78	470.36
651.12	467.62
651.46	464.61
651.80	461.78
652.14	459.04
652.49	456.53
652.83	453.80
653.17	451.12
653.51	448.43
653.85	446.05
654.20	443.47
654.54	440.85
654.88	438.41
655.22	436.17
655.56	433.72
655.90	431.34
656.25	429.08
656.59	426.79
656.93	424.60
657.27	422.50
657.61	420.08
657.95	417.83
658.29	415.67
658.64	413.74
658.98	411.61
659.32	409.33
659.66	407.12
660.00	405.07
660.34	403.07
660.68	401.02
661.02	398.95
661.36	397.10
661.70	395.06
662.05	393.00
662.39	391.04
662.73	389.20
663.07	387.65
663.41	385.80
663.75	383.88
664.09	382.04
664.43	380.09
664.77	378.60
665.11	376.95
665.45	375.22
665.79	373.59
666.13	371.81
666.47	370.25
666.81	368.65
667.15	367.02
667.49	365.55
667.83	364.31
668.17	362.73
668.51	361.20
668.85	359.85
669.19	358.72
669.53	357.17
669.87	355.70
670.21	354.12
670.55	352.77
670.89	351.64
671.23	350.29
671.57	348.90
671.91	347.39
672.25	346.04
672.58	344.81
672.92	343.32
673.26	342.16
673.60	340.94
673.94	339.81
674.28	338.66
674.62	337.42
674.96	336.07
675.30	334.98
675.64	333.85
675.97	332.68
676.31	331.35
676.65	330.22
676.99	329.29
677.33	328.05
677.67	327.02
678.01	325.66
678.34	324.70
678.68	323.71
679.02	322.71
679.36	321.72
679.70	320.72
680.04	319.70
680.37	318.60
680.71	317.69
681.05	316.75
681.39	315.80
681.73	314.87
682.06	313.89
682.40	312.98
682.74	312.06
683.08	311.28
683.42	310.42
683.75	309.51
684.09	308.46
684.43	307.70
684.77	306.84
685.10	305.93
685.44	305.01
685.78	304.14
686.12	303.40
686.45	302.53
686.79	301.63
687.13	301.02
687.46	300.36
687.80	299.58
688.14	298.72
688.48	298.05
688.81	297.25
689.15	296.59
689.49	295.80
689.82	295.10
690.16	294.23
690.50	293.46
690.83	292.80
691.17	291.98
691.51	291.21
691.84	290.52
692.18	289.92
692.52	289.33
692.85	288.78
693.19	288.29
693.52	287.73
693.86	287.07
694.20	286.41
694.53	285.80
694.87	285.09
695.21	284.43
695.54	283.72
695.88	283.07
696.21	282.31
696.55	281.75
696.88	281.14
697.22	280.51
697.56	280.01
697.89	279.42
698.23	279.01
698.56	278.40
698.90	277.92
699.23	277.47
699.57	276.91
699.90	276.29
700.24	275.67
700.58	275.15
700.91	274.77
701.25	274.54
701.58	274.35
701.92	274.04
702.25	273.62
702.59	273.21
702.92	272.84
703.26	272.59
703.59	272.14
703.93	272.13
704.26	271.82
704.60	271.49
704.93	271.06
705.26	270.59
705.60	270.24
705.93	269.76
706.27	269.48
706.60	269.31
706.94	269.12
707.27	268.73
707.61	268.47
707.94	268.06
708.27	267.36
708.61	266.67
708.94	266.27
709.28	265.89
709.61	265.50
709.94	265.16
710.28	264.72
710.61	264.32
710.95	263.48
711.28	263.42
711.61	263.00
711.95	262.77
712.28	262.42
712.61	262.10
712.95	262.02
713.28	261.80
713.61	261.28
713.95	260.81
714.28	260.51
714.61	260.05
714.95	259.75
715.28	259.37
715.61	259.00
715.95	258.65
716.28	258.36
716.61	258.10
716.95	257.76
717.28	257.49
717.61	257.24
717.94	257.02
718.28	256.32
718.61	255.98
718.94	255.61
719.27	255.26
719.61	254.99
719.94	254.54
720.27	254.10
720.60	253.85
720.94	253.56
721.27	253.32
721.60	253.20
721.93	252.88
722.27	252.83
722.60	252.64
722.93	252.39
723.26	252.15
723.59	251.76
723.93	251.55
724.26	251.34
724.59	251.13
724.92	250.89
725.25	250.80
725.59	250.58
725.92	250.42
726.25	250.26
726.58	250.14
726.91	249.89
727.24	249.67
727.57	249.42
727.91	249.23
728.24	248.97
728.57	248.70
728.90	248.57
729.23	248.28
729.56	248.31
729.89	248.10
730.22	247.85
730.55	247.70
730.89	247.53
731.22	247.34
731.55	247.06
731.88	246.87
732.21	246.62
732.54	246.39
732.87	246.18
733.20	245.95
733.53	245.74
733.86	245.67
734.19	245.52
734.52	245.40
734.85	245.52
735.18	245.32
735.51	245.33
735.84	245.20
736.17	245.13
736.50	244.71
736.83	245.08
737.16	245.06
737.49	244.87
737.82	244.67
738.15	244.58
738.48	244.52
738.81	244.43
739.14	244.24
739.47	244.12
739.80	243.98
740.13	243.98
740.46	243.77
740.79	243.44
741.12	243.15
741.45	243.01
741.78	242.63
742.11	242.63
742.44	242.33
742.77	242.25
743.10	241.97
743.43	241.82
743.75	241.23
744.08	241.67
744.41	241.53
744.74	241.40
745.07	241.10
745.40	241.00
745.73	241.03
746.06	240.91
746.39	240.84
746.71	240.67
747.04	240.51
747.37	240.43
747.70	240.47
748.03	240.55
748.36	240.54
748.68	240.44
749.01	240.15
749.34	240.12
749.67	239.99
750.00	240.01
750.33	240.36
750.65	240.34
750.98	239.61
751.31	239.55
751.64	239.45
751.97	239.66
752.29	239.55
752.62	239.17
752.95	239.04
753.28	238.90
753.60	238.71
753.93	238.70
754.26	238.65
754.59	238.43
754.91	238.15
755.24	237.90
755.57	237.82
755.90	237.80
756.22	237.64
756.55	237.50
756.88	237.32
757.20	236.80
757.53	236.54
757.86	236.39
758.19	236.37
758.51	236.37
758.84	235.96
759.17	235.75
759.49	235.75
759.82	235.92
760.15	235.85
760.47	235.79
760.80	235.59
761.13	235.55
761.45	235.45
761.78	235.43
762.11	235.41
762.43	235.29
762.76	235.18
763.08	235.10
763.41	234.99
763.74	234.93
764.06	234.87
764.39	234.77
764.71	234.73
765.04	234.61
765.37	234.45
765.69	234.42
766.02	234.41
766.34	234.28
766.67	233.95
767.00	234.00
767.32	234.19
767.65	234.41
767.97	234.26
768.30	234.16
768.62	234.06
768.95	233.93
769.27	233.75
769.60	233.73
769.92	233.61
770.25	233.52
770.57	233.39
770.90	233.30
771.22	233.19
771.55	233.03
771.87	232.93
772.20	232.82
772.52	233.17
772.85	233.65
773.17	233.64
773.50	233.65
773.82	233.49
774.15	233.23
774.47	232.81
774.80	232.70
775.12	232.70
775.45	232.60
775.77	232.55
776.09	232.65
776.42	232.56
776.74	232.65
777.07	232.63
777.39	232.58
777.72	232.45
778.04	232.53
778.36	232.51
778.69	232.44
779.01	232.41
779.33	231.96
779.66	231.40
779.98	231.30
780.31	231.21
780.63	231.35
780.95	231.45
781.28	231.47
781.60	231.41
781.92	231.35
782.25	231.31
782.57	231.25
782.89	231.17
783.22	231.11
783.54	230.99
783.86	230.91
784.19	230.83
784.51	230.98
784.83	230.88
785.16	230.82
785.48	230.80
785.80	230.78
786.12	230.80
786.45	230.74
786.77	230.78
787.09	230.77
787.42	230.56
787.74	230.45
788.06	230.46
788.38	230.40
788.71	230.30
789.03	230.36
789.35	230.50
789.67	230.36
789.99	230.32
790.32	230.22
790.64	230.31
790.96	230.68
791.28	230.50
791.61	230.38
791.93	230.43
792.25	230.44
792.57	230.80
792.89	230.62
793.21	230.63
793.54	230.55
793.86	230.50
794.18	230.48
794.50	230.38
794.82	230.35
795.14	230.45
795.47	230.59
795.79	230.54
796.11	230.33
796.43	230.28
796.75	230.27
797.07	230.33
797.39	230.29
797.71	229.92
798.04	229.93
798.36	229.97
798.68	229.92
799.00	229.93
799.32	229.65
799.64	229.78
799.96	229.79
800.28	229.91
800.60	229.82
800.92	229.86
801.24	229.88
801.56	229.89
801.89	229.87
802.21	229.85
802.53	229.74
802.85	229.87
803.17	230.15
803.49	230.06
803.81	229.98
804.13	229.91
804.45	229.86
804.77	229.88
805.09	229.91
805.41	229.90
805.73	229.79
806.05	229.70
806.37	229.63
806.69	229.50
807.01	229.42
807.33	229.45
807.65	229.26
807.97	229.45
808.28	229.35
808.60	229.28
808.92	229.19
809.24	229.52
809.56	229.36
809.88	229.21
810.20	229.25
810.52	229.34
810.84	229.18
811.16	229.16
811.48	229.15
811.80	229.26
812.12	229.25
812.43	229.27
812.75	229.30
813.07	229.26
813.39	229.28
813.71	229.14
814.03	229.09
814.35	229.08
814.67	228.82
814.98	228.71
815.30	228.66
815.62	228.52
815.94	228.11
816.26	228.39
816.58	228.24
816.89	228.26
817.21	228.13
817.53	228.17
817.85	228.16
818.17	228.13
818.48	227.90
818.80	227.92
819.12	227.83
819.44	227.66
819.76	227.63
820.07	227.61
820.39	227.59
820.71	227.52
821.03	227.54
821.34	227.55
821.66	227.64
821.98	227.63
822.30	227.66
822.61	227.97
822.93	227.65
823.25	227.66
823.57	227.56
823.88	227.67
824.20	227.63
824.52	227.60
824.83	227.56
825.15	227.59
825.47	227.60
825.79	227.69
826.10	227.73
826.42	227.74
826.74	227.80
827.05	227.85
827.37	227.90
827.69	227.87
828.00	227.83
828.32	227.82
828.64	227.87
828.95	228.08
829.27	227.98
829.58	228.02
829.90	228.10
830.22	228.09
830.53	227.95
830.85	227.91
831.17	227.84
831.48	227.85
831.80	227.83
832.11	227.78
832.43	227.72
832.75	227.65
833.06	227.85
833.38	227.76
833.69	227.74
834.01	227.78
834.32	227.80
834.64	227.79
834.96	227.77
835.27	227.71
835.59	227.62
835.90	227.52
836.22	227.46
836.53	227.35
836.85	227.35
837.16	227.81
837.48	227.88
837.79	228.08
838.11	228.08
838.42	228.11
838.74	228.06
839.05	227.99
839.37	228.03
839.68	227.77
840.00	227.72
840.31	227.76
840.63	227.78
840.94	227.73
841.26	227.62
841.57	227.62
841.88	227.64
842.20	227.56
842.51	227.47
842.83	227.50
843.14	227.83
843.46	227.85
843.77	227.64
844.08	227.57
844.40	227.40
844.71	227.29
845.03	227.20
845.34	227.29
845.65	227.25
845.97	227.27
846.28	227.27
846.60	227.24
846.91	227.23
847.22	227.18
847.54	227.29
847.85	227.40
848.16	227.31
848.48	227.20
848.79	227.40
849.10	227.41
849.42	227.46
849.73	227.10
850.04	227.09
850.36	226.95
850.67	227.07
850.98	227.05
851.30	227.15
851.61	227.15
851.92	227.13
852.23	227.27
852.55	227.28
852.86	227.40
853.17	227.45
853.49	227.49
853.80	227.60
854.11	227.58
854.42	227.62
854.74	227.69
855.05	227.74
855.36	227.47
855.67	227.53
855.99	227.51
856.30	228.12
856.61	228.11
856.92	228.06
857.23	228.01
857.55	228.00
857.86	227.93
858.17	228.05
858.48	227.98
858.79	227.95
859.11	227.92
859.42	227.82
859.73	227.81
860.04	227.73
860.35	227.55
860.66	227.46
860.98	227.46
861.29	227.59
861.60	227.57
861.91	227.71
862.22	227.72
862.53	227.69
862.84	227.05
863.16	227.23
863.47	227.15
863.78	227.15
864.09	227.25
864.40	227.31
864.71	227.34
865.02	227.37
865.33	227.33
865.64	227.30
865.95	227.34
866.27	227.61
866.58	227.65
866.89	227.66
867.20	227.63
867.51	227.61
867.82	227.50
868.13	227.72
868.44	227.57
868.75	227.58
869.06	227.53
869.37	227.64
869.68	227.43
869.99	227.51
870.30	227.53
870.61	227.50
870.92	227.41
871.23	227.29
871.54	227.31
871.85	227.40
872.16	227.45
872.47	227.36
872.78	227.10
873.09	227.15
873.40	227.16
873.71	227.15
874.02	227.12
874.33	227.08
874.64	226.90
874.95	227.00
875.26	226.88
875.56	226.91
875.87	226.81
876.18	226.72
876.49	227.11
876.80	227.06
877.11	226.94
877.42	226.99
877.73	227.01
878.04	226.97
878.35	226.97
878.66	226.98
878.96	226.95
879.27	226.85
879.58	226.75
879.89	226.68
880.20	226.81
880.51	226.76
880.82	226.72
881.12	226.70
881.43	226.51
881.74	226.53
882.05	226.48
882.36	226.52
882.67	226.61
882.97	226.15
883.28	226.08
883.59	226.06
883.90	226.08
884.21	226.14
884.51	226.09
884.82	225.97
885.13	225.91
885.44	225.94
885.74	225.98
886.05	225.98
886.36	226.02
886.67	225.92
886.98	226.15
887.28	226.19
887.59	226.15
887.90	226.25
888.20	226.25
888.51	226.33
888.82	226.26
889.13	226.34
889.43	226.73
889.74	226.70
890.05	226.67
890.35	226.58
890.66	226.44
890.97	226.41
891.28	226.36
891.58	226.38
891.89	226.37
892.20	226.33
892.50	226.27
892.81	226.31
893.12	226.35
893.42	226.17
893.73	226.15
894.04	226.21
894.34	226.27
894.65	226.20
894.95	226.16
895.26	226.17
895.57	226.35
895.87	225.89
896.18	226.01
896.48	226.10
896.79	226.17
897.10	226.28
897.40	226.35
897.71	226.47
898.01	226.45
898.32	226.52
898.63	226.61
898.93	226.72
899.24	226.65
899.54	226.55
899.85	226.48
900.15	226.55
900.46	226.59
900.76	226.59
901.07	226.67
901.38	226.66
901.68	226.84
901.99	226.60
902.29	226.70
902.60	226.67
902.90	226.66
903.21	226.69
903.51	226.70
903.82	226.73
904.12	226.76
904.43	226.80
904.73	226.81
905.03	226.80
905.34	227.25
905.64	227.27
905.95	227.36
906.25	227.35
906.56	227.25
906.86	227.24
907.17	227.21
907.47	227.30
907.77	227.25
908.08	227.07
908.38	227.17
908.69	227.19
908.99	227.29
909.30	227.34
909.60	227.27
909.90	227.32
910.21	227.21
910.51	227.09
910.81	227.07
911.12	227.07
911.42	227.07
911.73	226.52
912.03	226.56
912.33	226.54
912.64	226.59
912.94	226.59
913.24	226.51
913.55	226.54
913.85	226.43
914.15	226.58
914.46	226.72
914.76	226.60
915.06	226.53
915.37	226.48
915.67	226.46
915.97	226.48
916.27	226.38
916.58	226.45
916.88	226.44
917.18	226.42
917.49	226.72
917.79	226.70
918.09	226.78
918.39	226.89
918.70	226.89
919.00	226.95
919.30	227.17
919.60	227.10
919.91	227.00
920.21	227.05
920.51	226.89
920.81	226.74
921.12	226.80
921.42	226.82
921.72	226.77
922.02	226.70
922.32	226.82
922.63	226.78
922.93	226.93
923.23	226.99
923.53	226.98
923.83	226.69
924.13	226.73
924.44	226.78
924.74	226.80
925.04	226.95
925.34	226.90
925.64	226.65
925.94	226.70
926.24	226.96
926.55	226.86
926.85	226.93
927.15	226.94
927.45	226.99
927.75	226.92
928.05	226.98
928.35	226.99
928.65	227.00
928.95	227.02
929.26	226.91
929.56	226.99
929.86	227.02
930.16	226.98
930.46	226.87
930.76	226.86
931.06	226.69
931.36	226.56
931.66	226.63
931.96	226.67
932.26	226.73
932.56	226.51
932.86	226.63
933.16	226.64
933.46	226.57
933.76	226.45
934.06	226.61
934.36	226.74
934.66	226.75
934.96	226.66
935.26	226.76
935.56	226.84
935.86	226.72
936.16	226.65
936.46	226.62
936.76	226.60
937.06	226.54
937.36	226.56
937.66	226.57
937.96	226.52
938.26	226.47
938.56	226.43
938.86	226.53
939.16	226.56
939.46	226.62
939.76	226.69
940.06	226.69
940.35	226.60
940.65	226.33
940.95	226.42
941.25	226.29
941.55	226.18
941.85	226.08
942.15	226.20
942.45	226.35
942.75	226.30
943.04	226.37
943.34	226.42
943.64	226.44
943.94	226.39
944.24	226.39
944.54	226.37
944.84	226.35
945.13	226.22
945.43	226.15
945.73	226.07
946.03	226.08
946.33	226.03
946.62	226.02
946.92	226.05
947.22	226.05
947.52	226.12
947.82	226.19
948.11	226.16
948.41	226.01
948.71	225.89
949.01	225.94
949.31	225.92
949.60	225.93
949.90	225.98
950.20	226.00
950.50	225.98
950.79	226.00
951.09	226.07
951.39	226.03
951.69	226.01
951.98	226.21
952.28	226.19
952.58	226.23
952.87	226.24
953.17	226.34
953.47	226.28
953.76	226.30
954.06	226.24
954.36	226.14
954.66	226.24
954.95	226.35
955.25	226.33
955.55	226.38
955.84	226.34
956.14	226.26
956.44	226.28
956.73	226.30
957.03	226.32
957.32	226.38
957.62	226.40
957.92	226.50
958.21	226.35
958.51	226.93
958.81	227.00
959.10	227.06
959.40	227.23
959.69	227.22
959.99	227.29
960.29	227.31
960.58	227.39
960.88	227.50
961.17	227.43
961.47	227.60
961.76	227.57
962.06	227.63
962.36	227.67
962.65	227.72
962.95	227.74
963.24	227.78
963.54	227.72
963.83	227.75
964.13	227.76
964.42	227.71
964.72	227.30
965.01	227.34
965.31	227.28
965.60	227.02
965.90	227.35
966.19	227.28
966.49	227.33
966.78	227.28
967.08	227.28
967.37	227.31
967.67	227.22
967.96	227.25
968.26	227.25
968.55	227.32
968.85	227.24
969.14	227.21
969.43	227.20
969.73	227.22
970.02	227.24
970.32	227.18
970.61	227.14
970.91	227.03
971.20	226.97
971.49	226.94
971.79	226.99
972.08	226.68
972.38	226.64
972.67	226.58
972.96	226.71
973.26	226.60
973.55	226.72
973.85	226.66
974.14	226.64
974.43	226.65
974.73	226.53
975.02	226.51
975.31	226.52
975.61	226.45
975.90	226.37
976.19	226.36
976.49	226.34
976.78	226.37
977.07	226.33
977.37	226.27
977.66	226.35
977.95	226.32
978.24	226.31
978.54	226.43
978.83	226.35
979.12	226.25
979.42	226.20
979.71	226.04
980.00	226.05
980.29	226.06
980.59	225.97
980.88	226.12
981.17	226.02
981.46	225.98
981.76	225.97
982.05	226.11
982.34	226.09
982.63	226.14
982.93	226.18
983.22	226.34
983.51	226.40
983.80	226.42
984.09	226.53
984.39	226.58
984.68	226.47
984.97	226.56
985.26	226.54
985.55	226.63
985.85	226.57
986.14	226.57
986.43	226.63
986.72	226.60
987.01	226.45
987.30	226.51
987.59	226.49
987.89	226.51
988.18	226.39
988.47	226.39
988.76	226.35
989.05	226.33
989.34	226.26
989.63	226.37
989.92	226.23
990.22	226.06
990.51	226.04
990.80	226.05
991.09	226.09
991.38	226.18
991.67	226.09
991.96	226.12
992.25	226.18
992.54	226.09
992.83	226.07
993.12	226.12
993.41	226.21
993.70	226.41
993.99	226.50
994.28	226.60
994.58	226.65
994.87	226.53
995.16	226.47
995.45	226.41
995.74	226.27
996.03	226.44
996.32	226.59
996.61	226.62
996.90	226.60
997.19	226.60
997.48	226.64
997.77	226.61
998.06	226.61
998.34	226.55
998.63	226.58
998.92	226.63
999.21	226.60
999.50	226.61
999.79	226.48
1000.08	226.46
1000.37	226.36
1000.66	226.30
1000.95	226.51
1001.24	226.52
1001.53	226.60
1001.82	226.58
1002.11	226.41
1002.40	226.44
1002.68	226.51
1002.97	226.87
1003.26	226.74
1003.55	226.62
1003.84	226.65
1004.13	226.81
1004.42	226.79
1004.71	226.75
1004.99	226.76
1005.28	226.89
1005.57	226.89
1005.86	226.85
1006.15	226.73
1006.44	226.65
1006.72	226.71
1007.01	226.58
1007.30	226.64
1007.59	226.58
1007.88	226.55
1008.17	226.64
1008.45	226.54
1008.74	226.41
1009.03	226.19
1009.32	226.22
1009.60	226.26
1009.89	226.19
1010.18	225.98
1010.47	226.03
1010.76	226.06
1011.04	225.99
1011.33	226.00
1011.62	226.04
1011.91	226.08
1012.19	226.15
1012.48	226.20
1012.77	226.17
1013.05	226.35
1013.34	226.32
1013.63	226.30
1013.92	226.29
1014.20	226.26
1014.49	226.25
1014.78	226.25
1015.06	226.18
1015.35	226.18
1015.64	226.20
1015.92	226.34
1016.21	226.40
1016.50	226.42
1016.78	226.41
1017.07	226.43
1017.36	226.30
1017.64	226.14
1017.93	226.13
1018.22	226.13
1018.50	226.10
1018.79	226.03
1019.08	225.86
1019.36	225.87
1019.65	225.80
1019.93	225.96
1020.22	225.91
1020.51	226.21
1020.79	226.24
1021.08	225.75
1021.36	224.40
1021.65	224.75
1021.94	226.05
1022.22	225.95
1022.51	225.15
1022.79	228.00
1023.08	225.10
1023.36	232.75
1023.65	226.10
>>>>>End Processed Spectral Data<<<<<
