SpectraSuite Data File
++++++++++++++++++++++++++++++++++++
Date: Wed Sep 04 18:05:27 EDT 2013
User: lab3
Dark Spectrum Present: Yes
Reference Spectrum Present: No
Number of Sampled Component Spectra: 1
Spectrometers: USB2E7196
Integration Time (usec): 170000 (USB2E7196)
Spectra Averaged: 20 (USB2E7196)
Boxcar Smoothing: 10 (USB2E7196)
Correct for Electrical Dark: No (USB2E7196)
Strobe/Lamp Enabled: No (USB2E7196)
Correct for Detector Non-linearity: No (USB2E7196)
Correct for Stray Light: No (USB2E7196)
Number of Pixels in Processed Spectrum: 2048
>>>>>Begin Processed Spectral Data<<<<<
339.09	0.00
339.48	213.50
339.86	213.70
340.24	216.60
340.63	218.40
341.01	225.70
341.39	220.35
341.78	222.75
342.16	224.20
342.54	223.95
342.93	212.74
343.31	223.40
343.69	224.00
344.07	224.56
344.46	225.07
344.84	225.42
345.22	225.45
345.60	225.74
345.99	225.92
346.37	226.00
346.75	226.13
347.13	226.19
347.52	226.33
347.90	226.55
348.28	226.58
348.66	226.77
349.05	226.59
349.43	226.69
349.81	226.73
350.19	226.75
350.57	226.78
350.96	226.93
351.34	227.15
351.72	227.15
352.10	227.19
352.48	227.20
352.87	227.28
353.25	227.26
353.63	227.26
354.01	227.27
354.39	227.31
354.77	227.35
355.15	227.62
355.54	227.59
355.92	227.52
356.30	227.57
356.68	227.86
357.06	227.90
357.44	227.81
357.82	227.87
358.20	228.36
358.58	228.39
358.97	228.40
359.35	228.52
359.73	228.64
360.11	228.70
360.49	228.82
360.87	228.82
361.25	228.98
361.63	229.20
362.01	229.33
362.39	229.44
362.77	229.57
363.15	229.55
363.53	229.69
363.91	229.77
364.29	229.89
364.67	229.54
365.05	229.66
365.43	229.82
365.81	229.94
366.19	229.79
366.57	229.97
366.95	230.02
367.33	229.88
367.71	229.92
368.09	230.10
368.47	230.04
368.85	230.07
369.23	230.15
369.61	230.01
369.99	230.08
370.37	230.15
370.75	230.29
371.13	230.19
371.51	230.02
371.89	230.09
372.27	230.07
372.65	230.06
373.03	229.98
373.41	229.91
373.78	229.76
374.16	229.54
374.54	229.35
374.92	229.22
375.30	229.15
375.68	229.02
376.06	228.92
376.44	228.84
376.82	228.89
377.19	228.82
377.57	228.78
377.95	228.61
378.33	228.44
378.71	228.11
379.09	228.09
379.47	228.15
379.84	227.97
380.22	227.86
380.60	227.70
380.98	227.66
381.36	227.51
381.73	227.43
382.11	227.38
382.49	227.32
382.87	227.14
383.25	227.09
383.62	227.66
384.00	227.45
384.38	227.38
384.76	227.38
385.13	227.51
385.51	227.36
385.89	227.22
386.27	227.18
386.64	227.26
387.02	227.18
387.40	226.98
387.78	226.95
388.15	226.84
388.53	226.78
388.91	226.72
389.29	226.70
389.66	226.75
390.04	226.68
390.42	226.70
390.79	226.78
391.17	226.85
391.55	226.21
391.92	226.29
392.30	226.31
392.68	226.15
393.05	226.05
393.43	226.10
393.81	226.21
394.18	226.21
394.56	226.19
394.94	226.26
395.31	226.35
395.69	226.52
396.06	226.66
396.44	226.81
396.82	226.85
397.19	227.06
397.57	227.07
397.95	227.22
398.32	227.14
398.70	227.22
399.07	227.31
399.45	227.39
399.82	227.45
400.20	227.49
400.58	227.54
400.95	227.46
401.33	227.62
401.70	228.01
402.08	228.23
402.45	228.31
402.83	228.60
403.20	228.74
403.58	228.85
403.95	229.08
404.33	229.28
404.71	229.48
405.08	230.03
405.46	230.22
405.83	230.42
406.21	230.73
406.58	231.08
406.96	231.32
407.33	231.67
407.70	232.04
408.08	232.78
408.45	233.27
408.83	233.81
409.20	234.36
409.58	234.57
409.95	235.09
410.33	235.67
410.70	236.09
411.08	236.74
411.45	237.38
411.82	237.98
412.20	238.75
412.57	239.78
412.95	240.07
413.32	241.01
413.69	241.92
414.07	242.89
414.44	243.88
414.82	244.96
415.19	246.25
415.56	247.47
415.94	248.56
416.31	250.06
416.68	251.42
417.06	252.99
417.43	254.60
417.81	256.34
418.18	258.17
418.55	260.10
418.93	262.05
419.30	264.06
419.67	266.28
420.04	268.58
420.42	270.90
420.79	274.02
421.16	276.84
421.54	279.87
421.91	282.83
422.28	286.00
422.66	289.29
423.03	292.63
423.40	296.05
423.77	299.60
424.15	303.26
424.52	307.12
424.89	311.29
425.26	315.26
425.64	319.17
426.01	323.34
426.38	327.71
426.75	332.32
427.13	336.98
427.50	341.79
427.87	346.76
428.24	351.71
428.61	356.25
428.99	361.68
429.36	367.17
429.73	372.76
430.10	378.31
430.47	384.18
430.85	389.97
431.22	396.15
431.59	403.05
431.96	409.37
432.33	416.57
432.70	423.27
433.08	431.28
433.45	438.63
433.82	446.20
434.19	454.65
434.56	462.80
434.93	470.49
435.30	478.31
435.68	486.87
436.05	495.34
436.42	503.75
436.79	511.33
437.16	519.76
437.53	528.67
437.90	537.41
438.27	545.93
438.64	554.86
439.01	563.29
439.38	570.45
439.75	577.52
440.13	585.49
440.50	593.17
440.87	599.20
441.24	605.59
441.61	612.51
441.98	617.44
442.35	623.12
442.72	629.33
443.09	635.23
443.46	638.70
443.83	640.91
444.20	642.90
444.57	645.62
444.94	646.87
445.31	647.87
445.68	649.26
446.05	649.50
446.42	648.18
446.79	646.70
447.16	645.15
447.53	643.90
447.90	639.98
448.27	636.31
448.64	631.46
449.01	627.72
449.37	621.49
449.74	615.44
450.11	608.67
450.48	600.67
450.85	592.55
451.22	585.74
451.59	579.22
451.96	572.79
452.33	564.70
452.70	557.14
453.07	548.54
453.43	539.38
453.80	530.80
454.17	522.70
454.54	514.96
454.91	506.69
455.28	498.61
455.65	491.18
456.02	484.08
456.38	477.65
456.75	469.85
457.12	463.26
457.49	456.87
457.86	450.52
458.23	445.43
458.59	439.75
458.96	433.90
459.33	428.74
459.70	423.76
460.07	419.59
460.43	414.91
460.80	410.52
461.17	406.65
461.54	402.65
461.91	398.83
462.27	394.95
462.64	391.66
463.01	388.09
463.38	384.80
463.74	380.93
464.11	377.93
464.48	375.36
464.85	372.56
465.21	370.49
465.58	368.18
465.95	365.31
466.32	363.08
466.68	360.69
467.05	358.45
467.42	356.11
467.78	353.82
468.15	351.64
468.52	350.00
468.88	347.81
469.25	345.83
469.62	344.36
469.98	342.75
470.35	341.13
470.72	339.61
471.08	337.91
471.45	336.63
471.82	335.37
472.18	333.95
472.55	332.88
472.92	331.49
473.28	330.39
473.65	329.37
474.02	328.27
474.38	327.45
474.75	326.72
475.11	325.85
475.48	325.18
475.85	324.60
476.21	323.96
476.58	323.56
476.94	323.28
477.31	322.74
477.67	322.26
478.04	321.91
478.41	321.80
478.77	322.00
479.14	321.59
479.50	321.39
479.87	321.42
480.23	321.48
480.60	321.44
480.96	321.36
481.33	321.61
481.69	321.85
482.06	322.07
482.42	322.30
482.79	322.76
483.15	323.23
483.52	323.77
483.88	324.26
484.25	324.67
484.61	325.17
484.98	325.82
485.34	326.83
485.71	327.83
486.07	328.74
486.44	329.37
486.80	330.55
487.17	331.74
487.53	333.07
487.90	334.45
488.26	336.16
488.62	337.89
488.99	339.50
489.35	341.26
489.72	343.18
490.08	345.14
490.44	347.14
490.81	349.30
491.17	351.51
491.54	353.93
491.90	356.46
492.26	359.27
492.63	362.17
492.99	364.96
493.36	368.05
493.72	371.43
494.08	374.94
494.45	378.56
494.81	382.52
495.17	386.44
495.54	390.65
495.90	394.91
496.26	399.42
496.63	404.05
496.99	408.76
497.35	413.83
497.72	419.06
498.08	424.51
498.44	430.16
498.80	436.20
499.17	442.33
499.53	448.64
499.89	455.30
500.26	462.16
500.62	469.13
500.98	476.61
501.34	484.03
501.71	491.74
502.07	499.55
502.43	507.59
502.79	515.93
503.16	524.67
503.52	533.51
503.88	542.78
504.24	552.35
504.60	562.41
504.97	572.71
505.33	583.34
505.69	594.38
506.05	605.49
506.41	616.82
506.78	628.52
507.14	640.68
507.50	652.97
507.86	665.72
508.22	678.71
508.59	691.67
508.95	705.39
509.31	719.47
509.67	733.78
510.03	748.18
510.39	762.98
510.75	778.08
511.12	793.39
511.48	809.11
511.84	824.97
512.20	841.05
512.56	857.39
512.92	874.17
513.28	890.90
513.64	908.25
514.00	925.73
514.37	943.59
514.73	961.70
515.09	979.97
515.45	998.23
515.81	1016.98
516.17	1035.96
516.53	1054.65
516.89	1073.40
517.25	1093.04
517.61	1113.03
517.97	1133.41
518.33	1153.41
518.69	1173.95
519.05	1194.35
519.41	1215.00
519.77	1236.17
520.13	1256.72
520.49	1277.70
520.85	1300.11
521.21	1321.16
521.57	1342.70
521.93	1363.61
522.29	1385.14
522.65	1405.94
523.01	1427.10
523.37	1447.53
523.73	1468.45
524.09	1489.18
524.45	1510.22
524.81	1531.34
525.17	1552.25
525.53	1572.65
525.89	1593.59
526.25	1614.49
526.61	1635.19
526.97	1656.42
527.33	1677.90
527.68	1700.22
528.04	1721.19
528.40	1740.96
528.76	1762.26
529.12	1782.45
529.48	1803.12
529.84	1822.97
530.20	1844.23
530.56	1864.94
530.91	1886.38
531.27	1907.04
531.63	1927.80
531.99	1948.82
532.35	1968.82
532.71	1989.29
533.07	2010.35
533.42	2030.34
533.78	2050.37
534.14	2070.52
534.50	2089.87
534.86	2108.62
535.21	2126.24
535.57	2145.10
535.93	2163.03
536.29	2181.06
536.65	2199.61
537.00	2217.48
537.36	2235.44
537.72	2252.15
538.08	2269.48
538.44	2285.95
538.79	2302.83
539.15	2319.72
539.51	2334.98
539.87	2350.35
540.22	2364.59
540.58	2378.87
540.94	2392.40
541.29	2405.02
541.65	2417.38
542.01	2430.27
542.37	2441.28
542.72	2452.35
543.08	2463.10
543.44	2475.07
543.79	2485.01
544.15	2494.75
544.51	2505.10
544.87	2514.64
545.22	2523.66
545.58	2531.52
545.94	2538.96
546.29	2545.62
546.65	2552.01
547.01	2557.78
547.36	2563.54
547.72	2569.12
548.07	2573.61
548.43	2579.16
548.79	2583.93
549.14	2588.06
549.50	2591.74
549.86	2595.85
550.21	2600.11
550.57	2603.56
550.92	2604.77
551.28	2606.49
551.64	2608.97
551.99	2610.94
552.35	2612.94
552.70	2614.85
553.06	2616.25
553.41	2617.71
553.77	2619.50
554.13	2621.11
554.48	2622.99
554.84	2624.19
555.19	2625.37
555.55	2626.98
555.90	2626.25
556.26	2625.65
556.61	2624.40
556.97	2622.39
557.32	2622.14
557.68	2620.82
558.03	2619.60
558.39	2618.76
558.74	2618.02
559.10	2615.06
559.45	2611.79
559.81	2607.15
560.16	2602.19
560.52	2597.93
560.87	2593.46
561.23	2587.99
561.58	2581.96
561.94	2575.26
562.29	2567.78
562.64	2561.15
563.00	2552.76
563.35	2546.71
563.71	2540.29
564.06	2534.26
564.42	2527.86
564.77	2520.72
565.12	2513.16
565.48	2504.95
565.83	2496.71
566.19	2488.57
566.54	2480.82
566.89	2472.54
567.25	2465.17
567.60	2457.88
567.96	2450.07
568.31	2442.11
568.66	2433.45
569.02	2424.28
569.37	2416.20
569.72	2409.06
570.08	2399.54
570.43	2389.97
570.78	2380.48
571.14	2370.94
571.49	2360.92
571.84	2351.20
572.20	2339.90
572.55	2329.89
572.90	2319.18
573.26	2308.87
573.61	2297.68
573.96	2286.32
574.31	2274.44
574.67	2262.57
575.02	2250.23
575.37	2237.51
575.72	2224.35
576.08	2212.04
576.43	2199.54
576.78	2186.41
577.13	2172.39
577.49	2159.55
577.84	2147.72
578.19	2135.49
578.54	2122.70
578.90	2110.46
579.25	2098.08
579.60	2085.77
579.95	2072.50
580.30	2059.64
580.66	2045.94
581.01	2032.13
581.36	2018.39
581.71	2005.50
582.06	1992.41
582.42	1979.71
582.77	1967.23
583.12	1955.10
583.47	1942.62
583.82	1930.78
584.17	1919.00
584.53	1907.40
584.88	1894.55
585.23	1881.42
585.58	1867.29
585.93	1854.24
586.28	1840.45
586.63	1826.20
586.98	1812.31
587.34	1799.24
587.69	1786.10
588.04	1773.65
588.39	1761.81
588.74	1749.42
589.09	1737.24
589.44	1724.35
589.79	1711.89
590.14	1699.78
590.49	1687.74
590.84	1675.52
591.19	1663.29
591.54	1650.61
591.89	1638.04
592.25	1627.69
592.60	1616.31
592.95	1604.80
593.30	1592.52
593.65	1580.80
594.00	1569.01
594.35	1558.89
594.70	1546.98
595.05	1535.13
595.40	1522.84
595.75	1510.60
596.10	1499.28
596.45	1487.52
596.80	1476.61
597.15	1465.06
597.50	1453.26
597.85	1441.46
598.19	1429.85
598.54	1417.98
598.89	1406.65
599.24	1396.11
599.59	1384.41
599.94	1373.23
600.29	1362.50
600.64	1352.05
600.99	1341.17
601.34	1331.42
601.69	1320.10
602.04	1309.85
602.39	1300.05
602.74	1290.75
603.08	1281.46
603.43	1272.17
603.78	1262.56
604.13	1252.90
604.48	1243.32
604.83	1233.50
605.18	1224.12
605.53	1214.65
605.87	1205.56
606.22	1196.90
606.57	1187.49
606.92	1177.80
607.27	1168.78
607.62	1159.95
607.96	1151.19
608.31	1143.23
608.66	1134.95
609.01	1126.44
609.36	1117.80
609.70	1109.01
610.05	1100.26
610.40	1091.55
610.75	1082.54
611.10	1073.95
611.44	1065.05
611.79	1056.78
612.14	1048.93
612.49	1040.70
612.83	1032.97
613.18	1025.11
613.53	1017.21
613.88	1009.07
614.22	1001.41
614.57	993.29
614.92	985.31
615.27	977.88
615.61	969.99
615.96	961.92
616.31	954.19
616.65	947.36
617.00	939.99
617.35	932.88
617.70	925.77
618.04	918.66
618.39	911.72
618.74	905.43
619.08	898.28
619.43	891.02
619.78	883.84
620.12	876.67
620.47	869.67
620.82	862.42
621.16	855.62
621.51	849.26
621.85	843.01
622.20	836.41
622.55	829.75
622.89	823.21
623.24	817.00
623.59	810.60
623.93	803.96
624.28	797.97
624.62	792.26
624.97	786.32
625.32	780.53
625.66	774.46
626.01	768.22
626.35	762.63
626.70	757.01
627.04	751.70
627.39	746.02
627.73	740.57
628.08	735.22
628.43	729.71
628.77	724.17
629.12	718.78
629.46	713.93
629.81	709.00
630.15	704.10
630.50	699.13
630.84	694.01
631.19	689.25
631.53	684.46
631.88	679.04
632.22	674.07
632.57	669.35
632.91	664.71
633.26	660.20
633.60	655.50
633.95	650.67
634.29	645.81
634.64	641.44
634.98	636.56
635.32	632.13
635.67	628.11
636.01	623.74
636.36	619.42
636.70	615.29
637.05	611.11
637.39	607.09
637.73	602.75
638.08	598.90
638.42	594.50
638.77	590.14
639.11	585.85
639.45	581.57
639.80	577.35
640.14	573.28
640.49	569.22
640.83	565.31
641.17	561.67
641.52	557.87
641.86	554.12
642.20	550.88
642.55	547.24
642.89	543.61
643.23	540.02
643.58	536.77
643.92	533.03
644.26	529.70
644.61	526.40
644.95	523.05
645.29	519.56
645.64	516.38
645.98	513.19
646.32	510.35
646.66	507.12
647.01	504.02
647.35	501.18
647.69	498.17
648.04	495.40
648.38	492.59
648.72	489.70
649.06	486.77
649.41	483.69
649.75	480.70
650.09	477.83
650.43	474.96
650.78	472.00
651.12	469.12
651.46	466.14
651.80	463.32
652.14	460.62
652.49	458.12
652.83	455.63
653.17	453.05
653.51	450.24
653.85	447.90
654.20	445.35
654.54	442.69
654.88	440.21
655.22	437.96
655.56	435.46
655.90	433.09
656.25	430.77
656.59	428.57
656.93	426.31
657.27	424.13
657.61	421.66
657.95	419.47
658.29	417.24
658.64	415.22
658.98	412.92
659.32	410.63
659.66	408.40
660.00	406.22
660.34	404.16
660.68	402.21
661.02	400.07
661.36	398.14
661.70	396.15
662.05	394.16
662.39	391.97
662.73	390.20
663.07	388.64
663.41	386.80
663.75	384.82
664.09	383.00
664.43	381.13
664.77	379.64
665.11	377.82
665.45	376.25
665.79	374.58
666.13	372.85
666.47	371.27
666.81	369.60
667.15	367.92
667.49	366.38
667.83	364.96
668.17	363.53
668.51	362.02
668.85	360.64
669.19	359.42
669.53	358.00
669.87	356.46
670.21	354.88
670.55	353.45
670.89	352.44
671.23	351.10
671.57	349.56
671.91	348.07
672.25	346.72
672.58	345.55
672.92	344.03
673.26	342.77
673.60	341.56
673.94	340.36
674.28	339.18
674.62	338.05
674.96	336.75
675.30	335.53
675.64	334.35
675.97	333.20
676.31	331.81
676.65	330.55
676.99	329.57
677.33	328.35
677.67	327.31
678.01	325.94
678.34	324.87
678.68	324.04
679.02	323.02
679.36	322.10
679.70	321.00
680.04	320.11
680.37	319.08
680.71	318.03
681.05	317.09
681.39	316.22
681.73	315.22
682.06	314.25
682.40	313.33
682.74	312.48
683.08	311.67
683.42	310.76
683.75	309.98
684.09	308.89
684.43	308.07
684.77	307.14
685.10	306.34
685.44	305.58
685.78	304.70
686.12	303.95
686.45	303.08
686.79	302.24
687.13	301.57
687.46	300.84
687.80	300.22
688.14	299.39
688.48	298.57
688.81	297.77
689.15	297.21
689.49	296.46
689.82	295.65
690.16	294.74
690.50	293.96
690.83	293.20
691.17	292.48
691.51	291.86
691.84	291.32
692.18	290.66
692.52	289.86
692.85	289.21
693.19	288.73
693.52	288.06
693.86	287.44
694.20	286.68
694.53	286.09
694.87	285.43
695.21	284.83
695.54	284.29
695.88	283.71
696.21	282.95
696.55	282.31
696.88	281.80
697.22	281.23
697.56	280.78
697.89	280.19
698.23	279.73
698.56	279.17
698.90	278.59
699.23	278.02
699.57	277.54
699.90	276.91
700.24	276.16
700.58	275.63
700.91	275.16
701.25	274.99
701.58	274.92
701.92	274.56
702.25	274.13
702.59	273.61
702.92	273.17
703.26	272.83
703.59	272.49
703.93	272.45
704.26	272.02
704.60	271.64
704.93	271.25
705.26	270.84
705.60	270.55
705.93	270.00
706.27	269.72
706.60	269.50
706.94	269.43
707.27	269.05
707.61	268.79
707.94	268.39
708.27	267.65
708.61	266.87
708.94	266.44
709.28	266.11
709.61	265.71
709.94	265.40
710.28	264.95
710.61	264.57
710.95	263.81
711.28	263.76
711.61	263.34
711.95	263.13
712.28	262.72
712.61	262.30
712.95	262.29
713.28	262.20
713.61	261.71
713.95	261.18
714.28	260.96
714.61	260.56
714.95	260.18
715.28	259.86
715.61	259.48
715.95	259.19
716.28	258.81
716.61	258.64
716.95	258.24
717.28	257.95
717.61	257.63
717.94	257.29
718.28	256.66
718.61	256.40
718.94	256.05
719.27	255.77
719.61	255.50
719.94	255.08
720.27	254.55
720.60	254.31
720.94	254.01
721.27	253.76
721.60	253.51
721.93	253.29
722.27	253.30
722.60	253.22
722.93	252.86
723.26	252.66
723.59	252.34
723.93	252.15
724.26	251.86
724.59	251.61
724.92	251.44
725.25	251.27
725.59	251.05
725.92	250.86
726.25	250.70
726.58	250.47
726.91	250.30
727.24	250.09
727.57	249.90
727.91	249.68
728.24	249.56
728.57	249.38
728.90	249.20
729.23	248.79
729.56	248.72
729.89	248.56
730.22	248.26
730.55	248.04
730.89	247.99
731.22	247.86
731.55	247.62
731.88	247.47
732.21	247.27
732.54	247.02
732.87	246.83
733.20	246.65
733.53	246.44
733.86	246.25
734.19	246.00
734.52	245.90
734.85	246.11
735.18	245.81
735.51	245.83
735.84	245.65
736.17	245.60
736.50	245.25
736.83	245.69
737.16	245.59
737.49	245.55
737.82	245.28
738.15	245.25
738.48	245.15
738.81	245.00
739.14	244.88
739.47	244.74
739.80	244.52
740.13	244.47
740.46	244.36
740.79	244.17
741.12	244.11
741.45	243.89
741.78	243.53
742.11	243.55
742.44	243.29
742.77	243.25
743.10	243.09
743.43	242.89
743.75	242.25
744.08	242.81
744.41	242.63
744.74	242.49
745.07	242.17
745.40	242.21
745.73	242.30
746.06	242.19
746.39	242.18
746.71	242.03
747.04	241.76
747.37	241.65
747.70	241.65
748.03	241.51
748.36	241.49
748.68	241.37
749.01	241.08
749.34	240.95
749.67	240.89
750.00	240.91
750.33	241.23
750.65	241.18
750.98	240.46
751.31	240.34
751.64	240.25
751.97	240.45
752.29	240.31
752.62	239.97
752.95	239.73
753.28	239.51
753.60	239.49
753.93	239.60
754.26	239.49
754.59	239.22
754.91	239.10
755.24	238.90
755.57	238.70
755.90	238.56
756.22	238.40
756.55	238.22
756.88	237.96
757.20	237.56
757.53	237.27
757.86	237.14
758.19	237.00
758.51	236.89
758.84	236.54
759.17	236.35
759.49	236.28
759.82	236.47
760.15	236.49
760.47	236.34
760.80	236.01
761.13	235.99
761.45	235.82
761.78	235.75
762.11	235.75
762.43	235.67
762.76	235.56
763.08	235.55
763.41	235.42
763.74	235.42
764.06	235.29
764.39	235.22
764.71	235.15
765.04	235.08
765.37	234.96
765.69	234.88
766.02	234.85
766.34	234.61
766.67	234.32
767.00	234.28
767.32	234.43
767.65	234.72
767.97	234.58
768.30	234.54
768.62	234.38
768.95	234.14
769.27	234.06
769.60	234.14
769.92	233.96
770.25	233.89
770.57	233.66
770.90	233.50
771.22	233.40
771.55	233.28
771.87	233.29
772.20	233.19
772.52	233.55
772.85	233.95
773.17	233.97
773.50	233.89
773.82	233.76
774.15	233.50
774.47	233.04
774.80	232.92
775.12	232.93
775.45	232.91
775.77	232.98
776.09	232.94
776.42	232.88
776.74	233.04
777.07	232.93
777.39	232.88
777.72	232.88
778.04	232.91
778.36	232.83
778.69	232.75
779.01	232.73
779.33	232.28
779.66	231.69
779.98	231.71
780.31	231.67
780.63	231.85
780.95	231.86
781.28	231.85
781.60	231.80
781.92	231.76
782.25	231.71
782.57	231.64
782.89	231.52
783.22	231.42
783.54	231.29
783.86	231.36
784.19	231.34
784.51	231.41
784.83	231.31
785.16	231.32
785.48	231.30
785.80	231.34
786.12	231.32
786.45	231.35
786.77	231.30
787.09	231.38
787.42	231.13
787.74	231.15
788.06	231.21
788.38	231.19
788.71	231.10
789.03	231.13
789.35	231.21
789.67	231.18
789.99	231.14
790.32	231.05
790.64	231.03
790.96	231.38
791.28	231.26
791.61	231.24
791.93	231.23
792.25	231.24
792.57	231.56
792.89	231.41
793.21	231.44
793.54	231.39
793.86	231.20
794.18	231.23
794.50	231.19
794.82	231.15
795.14	231.19
795.47	231.28
795.79	231.30
796.11	231.18
796.43	231.14
796.75	231.18
797.07	231.17
797.39	231.08
797.71	230.61
798.04	230.61
798.36	230.66
798.68	230.63
799.00	230.59
799.32	230.31
799.64	230.42
799.96	230.38
800.28	230.45
800.60	230.46
800.92	230.51
801.24	230.38
801.56	230.38
801.89	230.32
802.21	230.34
802.53	230.19
802.85	230.19
803.17	230.41
803.49	230.31
803.81	230.20
804.13	230.15
804.45	230.14
804.77	230.06
805.09	230.01
805.41	229.96
805.73	229.86
806.05	229.79
806.37	229.81
806.69	229.72
807.01	229.62
807.33	229.65
807.65	229.39
807.97	229.59
808.28	229.57
808.60	229.57
808.92	229.46
809.24	229.73
809.56	229.64
809.88	229.43
810.20	229.36
810.52	229.50
810.84	229.51
811.16	229.47
811.48	229.45
811.80	229.64
812.12	229.56
812.43	229.61
812.75	229.52
813.07	229.29
813.39	229.32
813.71	229.27
814.03	229.22
814.35	229.26
814.67	229.06
814.98	228.94
815.30	228.89
815.62	228.80
815.94	228.50
816.26	228.64
816.58	228.53
816.89	228.56
817.21	228.40
817.53	228.43
817.85	228.39
818.17	228.39
818.48	228.08
818.80	228.18
819.12	228.07
819.44	227.95
819.76	227.97
820.07	227.96
820.39	227.89
820.71	227.89
821.03	227.82
821.34	227.77
821.66	227.87
821.98	227.90
822.30	227.82
822.61	228.10
822.93	227.91
823.25	227.90
823.57	227.83
823.88	227.94
824.20	227.87
824.52	228.04
824.83	227.99
825.15	227.99
825.47	227.89
825.79	227.96
826.10	227.99
826.42	228.02
826.74	228.05
827.05	228.04
827.37	228.01
827.69	228.11
828.00	228.06
828.32	227.99
828.64	227.96
828.95	228.24
829.27	228.06
829.58	228.12
829.90	228.20
830.22	228.28
830.53	228.13
830.85	228.13
831.17	228.03
831.48	228.02
831.80	228.06
832.11	228.10
832.43	228.01
832.75	228.05
833.06	228.29
833.38	228.18
833.69	228.17
834.01	228.25
834.32	228.21
834.64	228.25
834.96	228.29
835.27	228.22
835.59	228.05
835.90	228.02
836.22	227.95
836.53	227.83
836.85	227.75
837.16	228.25
837.48	228.24
837.79	228.41
838.11	228.45
838.42	228.47
838.74	228.51
839.05	228.50
839.37	228.50
839.68	228.21
840.00	228.28
840.31	228.38
840.63	228.33
840.94	228.24
841.26	228.16
841.57	228.18
841.88	228.25
842.20	228.21
842.51	228.14
842.83	228.25
843.14	228.76
843.46	228.80
843.77	228.45
844.08	228.43
844.40	228.22
844.71	228.18
845.03	228.07
845.34	227.96
845.65	227.93
845.97	227.88
846.28	227.88
846.60	227.82
846.91	227.76
847.22	227.70
847.54	227.83
847.85	227.95
848.16	227.87
848.48	227.75
848.79	228.02
849.10	228.06
849.42	228.06
849.73	227.63
850.04	227.60
850.36	227.51
850.67	227.60
850.98	227.63
851.30	227.66
851.61	227.63
851.92	227.65
852.23	227.84
852.55	227.97
852.86	227.99
853.17	228.00
853.49	228.06
853.80	228.17
854.11	228.12
854.42	228.20
854.74	228.18
855.05	228.20
855.36	227.87
855.67	227.89
855.99	227.86
856.30	228.46
856.61	228.43
856.92	228.49
857.23	228.51
857.55	228.40
857.86	228.34
858.17	228.53
858.48	228.48
858.79	228.37
859.11	228.35
859.42	228.30
859.73	228.19
860.04	228.13
860.35	227.94
860.66	227.87
860.98	227.82
861.29	227.83
861.60	227.86
861.91	227.93
862.22	227.85
862.53	227.78
862.84	227.16
863.16	227.26
863.47	227.10
863.78	227.00
864.09	227.15
864.40	227.17
864.71	227.14
865.02	227.18
865.33	227.13
865.64	227.07
865.95	227.07
866.27	227.40
866.58	227.39
866.89	227.56
867.20	227.59
867.51	227.45
867.82	227.50
868.13	227.66
868.44	227.56
868.75	227.68
869.06	227.70
869.37	227.76
869.68	227.63
869.99	227.71
870.30	227.74
870.61	227.73
870.92	227.69
871.23	227.59
871.54	227.70
871.85	227.80
872.16	227.83
872.47	227.85
872.78	227.58
873.09	227.64
873.40	227.54
873.71	227.60
874.02	227.64
874.33	227.56
874.64	227.40
874.95	227.52
875.26	227.36
875.56	227.34
875.87	227.34
876.18	227.31
876.49	227.85
876.80	227.80
877.11	227.66
877.42	227.76
877.73	227.75
878.04	227.65
878.35	227.62
878.66	227.60
878.96	227.55
879.27	227.56
879.58	227.53
879.89	227.48
880.20	227.59
880.51	227.53
880.82	227.60
881.12	227.65
881.43	227.61
881.74	227.60
882.05	227.60
882.36	227.63
882.67	227.66
882.97	227.13
883.28	227.16
883.59	227.20
883.90	227.20
884.21	227.30
884.51	227.29
884.82	227.14
885.13	227.09
885.44	227.15
885.74	227.18
886.05	227.15
886.36	227.22
886.67	227.01
886.98	227.32
887.28	227.33
887.59	227.32
887.90	227.30
888.20	227.25
888.51	227.28
888.82	227.18
889.13	227.27
889.43	227.68
889.74	227.59
890.05	227.56
890.35	227.53
890.66	227.41
890.97	227.35
891.28	227.38
891.58	227.42
891.89	227.37
892.20	227.33
892.50	227.28
892.81	227.29
893.12	227.29
893.42	227.00
893.73	226.99
894.04	226.99
894.34	227.01
894.65	227.00
894.95	226.96
895.26	226.97
895.57	227.11
895.87	226.60
896.18	226.71
896.48	226.79
896.79	226.77
897.10	226.84
897.40	226.92
897.71	226.97
898.01	226.98
898.32	227.06
898.63	227.01
898.93	227.07
899.24	227.01
899.54	226.97
899.85	226.90
900.15	226.87
900.46	226.83
900.76	226.82
901.07	226.85
901.38	226.81
901.68	226.95
901.99	226.81
902.29	226.88
902.60	226.85
902.90	226.75
903.21	226.68
903.51	226.72
903.82	226.75
904.12	226.79
904.43	226.80
904.73	226.77
905.03	226.81
905.34	227.24
905.64	227.19
905.95	227.21
906.25	227.29
906.56	227.21
906.86	227.21
907.17	227.16
907.47	227.19
907.77	227.21
908.08	227.01
908.38	226.92
908.69	226.97
908.99	227.03
909.30	227.10
909.60	227.11
909.90	227.11
910.21	226.98
910.51	226.89
910.81	226.88
911.12	226.85
911.42	226.90
911.73	226.35
912.03	226.45
912.33	226.59
912.64	226.54
912.94	226.56
913.24	226.53
913.55	226.58
913.85	226.54
914.15	226.62
914.46	226.74
914.76	226.69
915.06	226.67
915.37	226.63
915.67	226.57
915.97	226.63
916.27	226.49
916.58	226.55
916.88	226.53
917.18	226.49
917.49	226.82
917.79	226.77
918.09	226.87
918.39	226.94
918.70	226.88
919.00	226.95
919.30	227.15
919.60	227.15
919.91	227.11
920.21	227.15
920.51	226.99
920.81	226.99
921.12	227.12
921.42	227.04
921.72	227.04
922.02	227.08
922.32	227.12
922.63	227.18
922.93	227.44
923.23	227.49
923.53	227.48
923.83	227.18
924.13	227.24
924.44	227.25
924.74	227.32
925.04	227.40
925.34	227.37
925.64	227.17
925.94	227.15
926.24	227.38
926.55	227.35
926.85	227.42
927.15	227.34
927.45	227.31
927.75	227.33
928.05	227.26
928.35	227.20
928.65	227.34
928.95	227.40
929.26	227.16
929.56	227.17
929.86	227.19
930.16	227.22
930.46	227.06
930.76	227.09
931.06	226.89
931.36	226.74
931.66	226.73
931.96	226.83
932.26	226.84
932.56	226.60
932.86	226.62
933.16	226.61
933.46	226.65
933.76	226.54
934.06	226.64
934.36	226.88
934.66	226.87
934.96	226.69
935.26	226.64
935.56	226.69
935.86	226.58
936.16	226.48
936.46	226.42
936.76	226.51
937.06	226.34
937.36	226.41
937.66	226.50
937.96	226.51
938.26	226.35
938.56	226.32
938.86	226.39
939.16	226.52
939.46	226.56
939.76	226.52
940.06	226.63
940.35	226.50
940.65	226.29
940.95	226.31
941.25	226.29
941.55	226.26
941.85	226.19
942.15	226.38
942.45	226.61
942.75	226.57
943.04	226.58
943.34	226.72
943.64	226.66
943.94	226.59
944.24	226.61
944.54	226.69
944.84	226.69
945.13	226.58
945.43	226.48
945.73	226.50
946.03	226.46
946.33	226.33
946.62	226.35
946.92	226.31
947.22	226.40
947.52	226.36
947.82	226.42
948.11	226.46
948.41	226.21
948.71	226.05
949.01	226.16
949.31	226.10
949.60	226.05
949.90	226.17
950.20	226.12
950.50	226.10
950.79	226.10
951.09	226.19
951.39	226.13
951.69	226.01
951.98	226.08
952.28	226.11
952.58	226.10
952.87	226.07
953.17	226.10
953.47	226.04
953.76	226.11
954.06	226.05
954.36	226.01
954.66	226.12
954.95	226.26
955.25	226.27
955.55	226.38
955.84	226.31
956.14	226.28
956.44	226.33
956.73	226.21
957.03	226.25
957.32	226.22
957.62	226.27
957.92	226.37
958.21	226.35
958.51	226.92
958.81	227.00
959.10	227.12
959.40	227.26
959.69	227.26
959.99	227.32
960.29	227.40
960.58	227.32
960.88	227.50
961.17	227.38
961.47	227.34
961.76	227.24
962.06	227.35
962.36	227.30
962.65	227.31
962.95	227.42
963.24	227.33
963.54	227.40
963.83	227.50
964.13	227.50
964.42	227.36
964.72	226.97
965.01	226.98
965.31	226.95
965.60	226.81
965.90	227.10
966.19	227.00
966.49	226.90
966.78	226.91
967.08	226.88
967.37	226.91
967.67	226.92
967.96	226.98
968.26	226.98
968.55	227.08
968.85	227.08
969.14	227.06
969.43	227.12
969.73	227.10
970.02	227.03
970.32	227.00
970.61	227.00
970.91	226.90
971.20	226.85
971.49	226.78
971.79	226.88
972.08	226.53
972.38	226.51
972.67	226.55
972.96	226.66
973.26	226.54
973.55	226.68
973.85	226.68
974.14	226.62
974.43	226.63
974.73	226.50
975.02	226.45
975.31	226.49
975.61	226.41
975.90	226.29
976.19	226.26
976.49	226.32
976.78	226.37
977.07	226.36
977.37	226.40
977.66	226.47
977.95	226.29
978.24	226.35
978.54	226.45
978.83	226.40
979.12	226.30
979.42	226.32
979.71	226.20
980.00	226.17
980.29	226.21
980.59	226.10
980.88	226.24
981.17	226.22
981.46	226.18
981.76	226.21
982.05	226.31
982.34	226.38
982.63	226.35
982.93	226.33
983.22	226.41
983.51	226.40
983.80	226.46
984.09	226.58
984.39	226.56
984.68	226.51
984.97	226.53
985.26	226.52
985.55	226.51
985.85	226.47
986.14	226.52
986.43	226.63
986.72	226.67
987.01	226.50
987.30	226.55
987.59	226.56
987.89	226.57
988.18	226.40
988.47	226.32
988.76	226.36
989.05	226.36
989.34	226.26
989.63	226.35
989.92	226.26
990.22	226.24
990.51	226.31
990.80	226.27
991.09	226.34
991.38	226.45
991.67	226.41
991.96	226.40
992.25	226.43
992.54	226.25
992.83	226.22
993.12	226.20
993.41	226.21
993.70	226.43
993.99	226.48
994.28	226.66
994.58	226.74
994.87	226.63
995.16	226.68
995.45	226.69
995.74	226.58
996.03	226.64
996.32	226.73
996.61	226.76
996.90	226.78
997.19	226.69
997.48	226.70
997.77	226.64
998.06	226.63
998.34	226.55
998.63	226.62
998.92	226.73
999.21	226.80
999.50	226.78
999.79	226.53
1000.08	226.50
1000.37	226.43
1000.66	226.35
1000.95	226.52
1001.24	226.52
1001.53	226.58
1001.82	226.50
1002.11	226.39
1002.40	226.41
1002.68	226.55
1002.97	226.91
1003.26	226.93
1003.55	226.81
1003.84	226.93
1004.13	227.05
1004.42	227.07
1004.71	227.07
1004.99	226.98
1005.28	227.18
1005.57	227.18
1005.86	227.21
1006.15	227.23
1006.44	227.25
1006.72	227.36
1007.01	227.25
1007.30	227.32
1007.59	227.30
1007.88	227.37
1008.17	227.40
1008.45	227.29
1008.74	227.03
1009.03	226.75
1009.32	226.79
1009.60	226.79
1009.89	226.75
1010.18	226.64
1010.47	226.57
1010.76	226.51
1011.04	226.44
1011.33	226.35
1011.62	226.46
1011.91	226.51
1012.19	226.55
1012.48	226.48
1012.77	226.42
1013.05	226.64
1013.34	226.58
1013.63	226.54
1013.92	226.58
1014.20	226.52
1014.49	226.59
1014.78	226.70
1015.06	226.59
1015.35	226.54
1015.64	226.58
1015.92	226.60
1016.21	226.56
1016.50	226.58
1016.78	226.71
1017.07	226.84
1017.36	226.75
1017.64	226.56
1017.93	226.59
1018.22	226.51
1018.50	226.50
1018.79	226.50
1019.08	226.29
1019.36	226.37
1019.65	226.35
1019.93	226.47
1020.22	226.55
1020.51	226.76
1020.79	226.66
1021.08	225.45
1021.36	225.10
1021.65	226.45
1021.94	226.25
1022.22	228.60
1022.51	226.05
1022.79	229.15
1023.08	226.80
1023.36	232.45
1023.65	225.15
>>>>>End Processed Spectral Data<<<<<
