SpectraSuite Data File
++++++++++++++++++++++++++++++++++++
Date: Wed Sep 04 18:03:08 EDT 2013
User: lab3
Dark Spectrum Present: Yes
Reference Spectrum Present: No
Number of Sampled Component Spectra: 1
Spectrometers: USB2E7196
Integration Time (usec): 170000 (USB2E7196)
Spectra Averaged: 20 (USB2E7196)
Boxcar Smoothing: 10 (USB2E7196)
Correct for Electrical Dark: No (USB2E7196)
Strobe/Lamp Enabled: No (USB2E7196)
Correct for Detector Non-linearity: No (USB2E7196)
Correct for Stray Light: No (USB2E7196)
Number of Pixels in Processed Spectrum: 2048
>>>>>Begin Processed Spectral Data<<<<<
339.09	0.00
339.48	214.05
339.86	213.70
340.24	216.00
340.63	216.75
341.01	226.70
341.39	221.65
341.78	221.95
342.16	223.55
342.54	222.75
342.93	212.78
343.31	223.47
343.69	224.02
344.07	224.51
344.46	224.96
344.84	225.43
345.22	225.39
345.60	225.58
345.99	225.80
346.37	225.92
346.75	226.11
347.13	226.14
347.52	226.30
347.90	226.48
348.28	226.47
348.66	226.62
349.05	226.39
349.43	226.51
349.81	226.51
350.19	226.51
350.57	226.62
350.96	226.72
351.34	226.78
351.72	226.87
352.10	226.98
352.48	227.07
352.87	227.08
353.25	227.14
353.63	227.27
354.01	227.27
354.39	227.41
354.77	227.43
355.15	227.59
355.54	227.50
355.92	227.40
356.30	227.43
356.68	227.78
357.06	227.93
357.44	227.82
357.82	227.85
358.20	228.34
358.58	228.40
358.97	228.52
359.35	228.76
359.73	228.92
360.11	228.99
360.49	229.02
360.87	229.06
361.25	229.16
361.63	229.35
362.01	229.49
362.39	229.41
362.77	229.52
363.15	229.59
363.53	229.64
363.91	229.82
364.29	229.86
364.67	229.38
365.05	229.43
365.43	229.52
365.81	229.64
366.19	229.46
366.57	229.56
366.95	229.50
367.33	229.43
367.71	229.41
368.09	229.50
368.47	229.49
368.85	229.50
369.23	229.60
369.61	229.43
369.99	229.54
370.37	229.64
370.75	229.84
371.13	229.69
371.51	229.67
371.89	229.63
372.27	229.66
372.65	229.68
373.03	229.59
373.41	229.63
373.78	229.55
374.16	229.25
374.54	229.15
374.92	229.09
375.30	229.03
375.68	228.85
376.06	228.78
376.44	228.71
376.82	228.71
377.19	228.60
377.57	228.51
377.95	228.30
378.33	228.17
378.71	227.79
379.09	227.79
379.47	227.70
379.84	227.55
380.22	227.40
380.60	227.28
380.98	227.20
381.36	227.12
381.73	226.99
382.11	227.04
382.49	226.92
382.87	226.80
383.25	226.70
383.62	227.18
384.00	227.07
384.38	227.06
384.76	227.06
385.13	227.17
385.51	227.10
385.89	227.05
386.27	227.06
386.64	227.11
387.02	227.06
387.40	227.00
387.78	226.98
388.15	226.94
388.53	226.90
388.91	226.88
389.29	226.75
389.66	226.80
390.04	226.70
390.42	226.78
390.79	226.82
391.17	226.84
391.55	226.28
391.92	226.27
392.30	226.32
392.68	226.23
393.05	226.17
393.43	226.16
393.81	226.12
394.18	226.05
394.56	226.06
394.94	226.10
395.31	226.14
395.69	226.38
396.06	226.55
396.44	226.60
396.82	226.59
397.19	226.91
397.57	226.93
397.95	227.05
398.32	226.97
398.70	227.18
399.07	227.37
399.45	227.48
399.82	227.60
400.20	227.66
400.58	227.80
400.95	227.72
401.33	227.92
401.70	228.43
402.08	228.60
402.45	228.73
402.83	229.02
403.20	229.17
403.58	229.15
403.95	229.33
404.33	229.64
404.71	229.88
405.08	230.33
405.46	230.64
405.83	230.92
406.21	231.17
406.58	231.34
406.96	231.54
407.33	231.97
407.70	232.31
408.08	233.01
408.45	233.45
408.83	234.02
409.20	234.43
409.58	234.56
409.95	235.12
410.33	235.72
410.70	236.15
411.08	236.85
411.45	237.48
411.82	238.12
412.20	238.87
412.57	239.90
412.95	240.30
413.32	241.12
413.69	241.94
414.07	242.95
414.44	243.96
414.82	244.96
415.19	246.10
415.56	247.23
415.94	248.20
416.31	249.67
416.68	251.05
417.06	252.68
417.43	254.33
417.81	256.06
418.18	257.83
418.55	259.77
418.93	261.72
419.30	263.92
419.67	266.15
420.04	268.46
420.42	270.72
420.79	273.77
421.16	276.52
421.54	279.63
421.91	282.58
422.28	285.64
422.66	288.99
423.03	292.41
423.40	295.78
423.77	299.42
424.15	302.98
424.52	306.79
424.89	310.99
425.26	314.92
425.64	318.72
426.01	323.00
426.38	327.39
426.75	331.97
427.13	336.44
427.50	341.13
427.87	345.97
428.24	350.95
428.61	355.40
428.99	360.78
429.36	366.19
429.73	371.82
430.10	377.39
430.47	383.15
430.85	388.79
431.22	395.10
431.59	401.95
431.96	408.37
432.33	415.36
432.70	422.07
433.08	430.07
433.45	437.43
433.82	444.74
434.19	452.97
434.56	461.08
434.93	468.84
435.30	476.67
435.68	485.30
436.05	493.83
436.42	502.27
436.79	510.04
437.16	518.49
437.53	527.28
437.90	536.05
438.27	544.73
438.64	553.73
439.01	562.01
439.38	569.24
439.75	576.33
440.13	584.33
440.50	591.80
440.87	597.83
441.24	604.44
441.61	611.51
441.98	616.62
442.35	622.51
442.72	628.60
443.09	634.62
443.46	638.14
443.83	640.42
444.20	642.40
444.57	645.22
444.94	646.38
445.31	647.45
445.68	648.81
446.05	648.88
446.42	647.43
446.79	646.01
447.16	644.28
447.53	642.97
447.90	639.31
448.27	635.74
448.64	630.85
449.01	627.14
449.37	620.94
449.74	614.82
450.11	607.84
450.48	600.04
450.85	591.91
451.22	584.88
451.59	578.33
451.96	571.91
452.33	563.57
452.70	556.10
453.07	547.42
453.43	538.29
453.80	529.92
454.17	521.98
454.54	514.32
454.91	506.00
455.28	497.92
455.65	490.50
456.02	483.58
456.38	477.19
456.75	469.33
457.12	462.75
457.49	456.41
457.86	450.12
458.23	444.92
458.59	439.17
458.96	433.38
459.33	428.13
459.70	423.05
460.07	418.91
460.43	414.16
460.80	409.90
461.17	406.16
461.54	402.08
461.91	398.18
462.27	394.21
462.64	391.04
463.01	387.47
463.38	384.03
463.74	379.98
464.11	376.94
464.48	374.29
464.85	371.53
465.21	369.37
465.58	367.01
465.95	364.24
466.32	361.93
466.68	359.68
467.05	357.36
467.42	355.20
467.78	352.90
468.15	350.76
468.52	349.14
468.88	346.81
469.25	344.90
469.62	343.45
469.98	341.78
470.35	340.26
470.72	338.80
471.08	337.12
471.45	335.89
471.82	334.63
472.18	333.11
472.55	332.05
472.92	330.71
473.28	329.58
473.65	328.45
474.02	327.39
474.38	326.58
474.75	325.99
475.11	325.10
475.48	324.44
475.85	323.86
476.21	323.17
476.58	322.70
476.94	322.34
477.31	321.95
477.67	321.58
478.04	321.26
478.41	321.01
478.77	321.35
479.14	320.99
479.50	320.90
479.87	321.01
480.23	321.07
480.60	321.05
480.96	321.06
481.33	321.39
481.69	321.60
482.06	321.76
482.42	321.97
482.79	322.34
483.15	322.77
483.52	323.34
483.88	323.83
484.25	324.40
484.61	325.06
484.98	325.71
485.34	326.69
485.71	327.66
486.07	328.64
486.44	329.25
486.80	330.35
487.17	331.46
487.53	332.81
487.90	334.15
488.26	335.85
488.62	337.59
488.99	339.15
489.35	340.95
489.72	342.86
490.08	344.91
490.44	346.97
490.81	349.12
491.17	351.35
491.54	353.87
491.90	356.57
492.26	359.25
492.63	362.16
492.99	365.04
493.36	368.12
493.72	371.45
494.08	374.92
494.45	378.65
494.81	382.52
495.17	386.36
495.54	390.50
495.90	394.63
496.26	399.14
496.63	403.75
496.99	408.59
497.35	413.70
497.72	418.92
498.08	424.35
498.44	430.11
498.80	436.12
499.17	442.19
499.53	448.39
499.89	454.97
500.26	461.69
500.62	468.67
500.98	476.04
501.34	483.50
501.71	491.14
502.07	498.98
502.43	507.13
502.79	515.58
503.16	524.28
503.52	533.45
503.88	542.56
504.24	552.34
504.60	562.24
504.97	572.64
505.33	582.92
505.69	594.02
506.05	605.14
506.41	616.33
506.78	627.94
507.14	640.11
507.50	652.64
507.86	665.16
508.22	678.20
508.59	691.29
508.95	705.00
509.31	719.19
509.67	733.57
510.03	747.81
510.39	762.61
510.75	777.74
511.12	792.91
511.48	808.65
511.84	824.51
512.20	840.61
512.56	856.82
512.92	873.90
513.28	890.64
513.64	907.85
514.00	925.55
514.37	943.24
514.73	961.17
515.09	979.34
515.45	997.88
515.81	1016.41
516.17	1035.13
516.53	1054.03
516.89	1072.68
517.25	1092.15
517.61	1112.45
517.97	1132.82
518.33	1152.87
518.69	1173.21
519.05	1193.75
519.41	1214.59
519.77	1235.64
520.13	1256.58
520.49	1277.32
520.85	1299.95
521.21	1321.19
521.57	1342.52
521.93	1363.65
522.29	1385.06
522.65	1405.95
523.01	1427.01
523.37	1447.76
523.73	1468.99
524.09	1489.49
524.45	1510.41
524.81	1531.16
525.17	1552.06
525.53	1572.58
525.89	1593.66
526.25	1614.69
526.61	1635.32
526.97	1656.06
527.33	1677.39
527.68	1699.45
528.04	1720.72
528.40	1740.13
528.76	1761.27
529.12	1781.58
529.48	1802.76
529.84	1822.75
530.20	1843.99
530.56	1864.83
530.91	1885.70
531.27	1906.40
531.63	1927.04
531.99	1947.87
532.35	1968.25
532.71	1988.54
533.07	2009.20
533.42	2029.26
533.78	2049.30
534.14	2069.10
534.50	2088.84
534.86	2108.14
535.21	2125.37
535.57	2144.35
535.93	2162.59
536.29	2180.31
536.65	2198.84
537.00	2216.48
537.36	2234.47
537.72	2251.24
538.08	2268.43
538.44	2285.54
538.79	2302.20
539.15	2319.24
539.51	2335.27
539.87	2350.65
540.22	2365.07
540.58	2379.89
540.94	2393.33
541.29	2405.91
541.65	2418.90
542.01	2431.27
542.37	2441.91
542.72	2453.33
543.08	2463.83
543.44	2475.29
543.79	2485.77
544.15	2495.74
544.51	2505.84
544.87	2515.64
545.22	2524.19
545.58	2532.13
545.94	2539.28
546.29	2545.80
546.65	2552.06
547.01	2557.87
547.36	2563.33
547.72	2568.71
548.07	2572.60
548.43	2577.93
548.79	2582.95
549.14	2586.94
549.50	2590.83
549.86	2595.05
550.21	2598.82
550.57	2602.32
550.92	2603.77
551.28	2605.15
551.64	2607.57
551.99	2609.74
552.35	2611.32
552.70	2613.29
553.06	2614.94
553.41	2616.05
553.77	2617.67
554.13	2619.26
554.48	2620.85
554.84	2622.82
555.19	2623.92
555.55	2625.50
555.90	2624.69
556.26	2623.89
556.61	2622.31
556.97	2620.35
557.32	2619.70
557.68	2618.53
558.03	2616.92
558.39	2616.12
558.74	2615.48
559.10	2612.24
559.45	2608.55
559.81	2604.25
560.16	2599.52
560.52	2595.18
560.87	2591.07
561.23	2585.64
561.58	2579.60
561.94	2572.76
562.29	2565.05
562.64	2558.12
563.00	2550.11
563.35	2543.75
563.71	2536.90
564.06	2531.04
564.42	2524.37
564.77	2517.77
565.12	2510.09
565.48	2502.71
565.83	2494.70
566.19	2486.87
566.54	2479.14
566.89	2470.88
567.25	2463.47
567.60	2456.28
567.96	2448.82
568.31	2440.58
568.66	2432.03
569.02	2423.52
569.37	2415.25
569.72	2407.74
570.08	2398.42
570.43	2389.07
570.78	2379.81
571.14	2370.65
571.49	2360.58
571.84	2351.03
572.20	2339.87
572.55	2330.06
572.90	2319.05
573.26	2308.72
573.61	2297.31
573.96	2286.21
574.31	2274.61
574.67	2262.40
575.02	2249.56
575.37	2236.38
575.72	2223.50
576.08	2211.44
576.43	2198.47
576.78	2185.23
577.13	2171.26
577.49	2158.87
577.84	2146.43
578.19	2134.29
578.54	2121.72
578.90	2109.64
579.25	2097.26
579.60	2084.99
579.95	2071.89
580.30	2058.65
580.66	2045.04
581.01	2031.33
581.36	2017.51
581.71	2004.49
582.06	1991.27
582.42	1978.80
582.77	1966.07
583.12	1953.92
583.47	1941.44
583.82	1929.28
584.17	1917.24
584.53	1905.31
584.88	1892.11
585.23	1879.31
585.58	1865.30
585.93	1851.85
586.28	1837.97
586.63	1823.81
586.98	1809.12
587.34	1795.75
587.69	1782.55
588.04	1769.75
588.39	1757.69
588.74	1745.15
589.09	1732.75
589.44	1720.07
589.79	1707.89
590.14	1696.11
590.49	1684.03
590.84	1671.88
591.19	1659.82
591.54	1647.59
591.89	1635.33
592.25	1625.01
592.60	1613.30
592.95	1601.58
593.30	1589.72
593.65	1577.92
594.00	1565.87
594.35	1556.04
594.70	1544.36
595.05	1532.60
595.40	1520.56
595.75	1508.31
596.10	1497.07
596.45	1485.60
596.80	1474.68
597.15	1463.10
597.50	1450.93
597.85	1439.32
598.19	1427.72
598.54	1415.94
598.89	1404.71
599.24	1394.41
599.59	1382.48
599.94	1371.60
600.29	1360.93
600.64	1350.41
600.99	1339.49
601.34	1329.87
601.69	1318.59
602.04	1308.44
602.39	1298.83
602.74	1289.70
603.08	1280.13
603.43	1270.64
603.78	1260.88
604.13	1251.09
604.48	1241.19
604.83	1231.73
605.18	1221.81
605.53	1212.03
605.87	1202.84
606.22	1194.12
606.57	1184.52
606.92	1174.94
607.27	1165.99
607.62	1157.42
607.96	1148.68
608.31	1140.64
608.66	1132.17
609.01	1123.69
609.36	1115.14
609.70	1106.44
610.05	1097.48
610.40	1089.03
610.75	1080.03
611.10	1071.47
611.44	1062.86
611.79	1054.66
612.14	1046.49
612.49	1038.54
612.83	1031.03
613.18	1023.05
613.53	1015.23
613.88	1007.17
614.22	999.75
614.57	991.67
614.92	983.88
615.27	976.42
615.61	968.91
615.96	961.14
616.31	953.55
616.65	946.35
617.00	938.84
617.35	931.54
617.70	924.40
618.04	917.52
618.39	910.73
618.74	904.37
619.08	897.46
619.43	890.33
619.78	883.36
620.12	876.24
620.47	869.43
620.82	862.18
621.16	855.37
621.51	849.00
621.85	842.70
622.20	835.90
622.55	829.13
622.89	822.34
623.24	816.03
623.59	809.65
623.93	803.29
624.28	797.17
624.62	791.55
624.97	785.71
625.32	779.93
625.66	773.83
626.01	767.57
626.35	761.90
626.70	756.29
627.04	750.99
627.39	745.31
627.73	739.98
628.08	734.63
628.43	729.05
628.77	723.41
629.12	718.04
629.46	713.19
629.81	708.36
630.15	703.62
630.50	698.71
630.84	693.85
631.19	688.97
631.53	684.48
631.88	679.05
632.22	674.00
632.57	669.46
632.91	664.83
633.26	660.44
633.60	655.70
633.95	651.11
634.29	646.15
634.64	641.71
634.98	636.95
635.32	632.66
635.67	628.65
636.01	624.39
636.36	620.05
636.70	615.83
637.05	611.52
637.39	607.38
637.73	603.10
638.08	599.05
638.42	594.89
638.77	590.36
639.11	586.10
639.45	581.69
639.80	577.12
640.14	572.90
640.49	568.73
640.83	564.85
641.17	561.09
641.52	557.35
641.86	553.81
642.20	550.48
642.55	546.68
642.89	542.98
643.23	539.46
643.58	536.26
643.92	532.53
644.26	529.22
644.61	525.95
644.95	522.68
645.29	519.03
645.64	515.79
645.98	512.77
646.32	509.91
646.66	506.95
647.01	504.00
647.35	501.25
647.69	498.27
648.04	495.39
648.38	492.60
648.72	489.76
649.06	486.58
649.41	483.47
649.75	480.55
650.09	477.82
650.43	474.84
650.78	471.75
651.12	468.99
651.46	466.10
651.80	463.32
652.14	460.59
652.49	458.14
652.83	455.58
653.17	452.90
653.51	450.18
653.85	447.86
654.20	445.37
654.54	442.70
654.88	440.26
655.22	438.09
655.56	435.55
655.90	433.19
656.25	430.99
656.59	428.82
656.93	426.59
657.27	424.45
657.61	422.09
657.95	419.91
658.29	417.69
658.64	415.52
658.98	413.17
659.32	410.91
659.66	408.81
660.00	406.64
660.34	404.57
660.68	402.49
661.02	400.35
661.36	398.47
661.70	396.43
662.05	394.41
662.39	392.46
662.73	390.67
663.07	388.97
663.41	387.08
663.75	385.06
664.09	383.17
664.43	381.15
664.77	379.64
665.11	377.98
665.45	376.34
665.79	374.75
666.13	373.07
666.47	371.28
666.81	369.62
667.15	367.87
667.49	366.39
667.83	364.99
668.17	363.35
668.51	361.79
668.85	360.48
669.19	359.35
669.53	357.75
669.87	356.22
670.21	354.71
670.55	353.28
670.89	352.22
671.23	350.90
671.57	349.51
671.91	347.91
672.25	346.47
672.58	345.25
672.92	343.76
673.26	342.46
673.60	341.37
673.94	340.15
674.28	339.04
674.62	337.92
674.96	336.63
675.30	335.59
675.64	334.36
675.97	333.09
676.31	331.70
676.65	330.46
676.99	329.51
677.33	328.24
677.67	327.24
678.01	325.85
678.34	324.70
678.68	323.75
679.02	322.76
679.36	321.70
679.70	320.63
680.04	319.67
680.37	318.77
680.71	317.75
681.05	316.79
681.39	315.83
681.73	314.69
682.06	313.76
682.40	312.87
682.74	312.03
683.08	311.30
683.42	310.35
683.75	309.61
684.09	308.52
684.43	307.76
684.77	306.76
685.10	305.95
685.44	305.21
685.78	304.33
686.12	303.60
686.45	302.79
686.79	301.91
687.13	301.21
687.46	300.40
687.80	299.68
688.14	298.87
688.48	298.17
688.81	297.48
689.15	296.85
689.49	296.09
689.82	295.39
690.16	294.53
690.50	293.81
690.83	293.01
691.17	292.31
691.51	291.65
691.84	291.13
692.18	290.49
692.52	289.78
692.85	289.22
693.19	288.77
693.52	288.16
693.86	287.46
694.20	286.76
694.53	286.24
694.87	285.59
695.21	284.96
695.54	284.34
695.88	283.71
696.21	282.93
696.55	282.35
696.88	281.69
697.22	281.01
697.56	280.57
697.89	279.96
698.23	279.56
698.56	278.95
698.90	278.45
699.23	277.91
699.57	277.44
699.90	276.89
700.24	276.20
700.58	275.71
700.91	275.37
701.25	275.31
701.58	275.13
701.92	274.84
702.25	274.41
702.59	273.93
702.92	273.55
703.26	273.20
703.59	272.77
703.93	272.80
704.26	272.49
704.60	272.02
704.93	271.58
705.26	271.06
705.60	270.73
705.93	270.16
706.27	269.94
706.60	269.66
706.94	269.43
707.27	269.03
707.61	268.72
707.94	268.33
708.27	267.51
708.61	266.72
708.94	266.26
709.28	265.88
709.61	265.44
709.94	265.02
710.28	264.64
710.61	264.24
710.95	263.35
711.28	263.29
711.61	262.85
711.95	262.64
712.28	262.27
712.61	261.94
712.95	261.93
713.28	261.70
713.61	261.23
713.95	260.72
714.28	260.41
714.61	260.03
714.95	259.66
715.28	259.38
715.61	259.11
715.95	258.82
716.28	258.41
716.61	258.22
716.95	257.91
717.28	257.57
717.61	257.26
717.94	257.07
718.28	256.35
718.61	256.07
718.94	255.72
719.27	255.48
719.61	255.15
719.94	254.70
720.27	254.18
720.60	253.87
720.94	253.68
721.27	253.42
721.60	253.25
721.93	253.04
722.27	252.97
722.60	252.79
722.93	252.42
723.26	252.24
723.59	251.94
723.93	251.78
724.26	251.60
724.59	251.36
724.92	251.10
725.25	251.12
725.59	250.89
725.92	250.79
726.25	250.54
726.58	250.38
726.91	250.09
727.24	250.01
727.57	249.87
727.91	249.51
728.24	249.40
728.57	249.15
728.90	248.95
729.23	248.53
729.56	248.56
729.89	248.40
730.22	248.26
730.55	248.07
730.89	247.83
731.22	247.68
731.55	247.47
731.88	247.35
732.21	247.05
732.54	246.86
732.87	246.66
733.20	246.49
733.53	246.39
733.86	246.33
734.19	246.03
734.52	245.97
734.85	246.16
735.18	245.84
735.51	245.83
735.84	245.67
736.17	245.61
736.50	245.20
736.83	245.66
737.16	245.46
737.49	245.31
737.82	245.20
738.15	245.07
738.48	244.95
738.81	244.78
739.14	244.63
739.47	244.48
739.80	244.25
740.13	244.07
740.46	243.83
740.79	243.58
741.12	243.47
741.45	243.21
741.78	242.78
742.11	242.86
742.44	242.63
742.77	242.62
743.10	242.45
743.43	242.33
743.75	241.62
744.08	242.14
744.41	241.92
744.74	241.74
745.07	241.51
745.40	241.50
745.73	241.55
746.06	241.37
746.39	241.35
746.71	241.22
747.04	241.12
747.37	240.92
747.70	240.88
748.03	240.77
748.36	240.71
748.68	240.58
749.01	240.25
749.34	240.10
749.67	239.96
750.00	239.93
750.33	240.17
750.65	240.16
750.98	239.47
751.31	239.48
751.64	239.41
751.97	239.57
752.29	239.43
752.62	239.13
752.95	239.02
753.28	238.78
753.60	238.65
753.93	238.69
754.26	238.64
754.59	238.49
754.91	238.35
755.24	238.21
755.57	238.18
755.90	238.13
756.22	237.99
756.55	237.83
756.88	237.67
757.20	237.19
757.53	236.88
757.86	236.75
758.19	236.66
758.51	236.52
758.84	236.23
759.17	236.06
759.49	235.99
759.82	236.15
760.15	236.20
760.47	236.11
760.80	235.85
761.13	235.85
761.45	235.71
761.78	235.65
762.11	235.61
762.43	235.48
762.76	235.37
763.08	235.35
763.41	235.30
763.74	235.22
764.06	235.21
764.39	235.15
764.71	235.07
765.04	234.94
765.37	234.87
765.69	234.74
766.02	234.66
766.34	234.52
766.67	234.23
767.00	234.29
767.32	234.45
767.65	234.72
767.97	234.56
768.30	234.48
768.62	234.42
768.95	234.27
769.27	234.17
769.60	234.18
769.92	233.97
770.25	233.74
770.57	233.59
770.90	233.46
771.22	233.44
771.55	233.35
771.87	233.26
772.20	233.14
772.52	233.42
772.85	233.91
773.17	233.88
773.50	233.71
773.82	233.51
774.15	233.23
774.47	232.79
774.80	232.69
775.12	232.67
775.45	232.56
775.77	232.49
776.09	232.40
776.42	232.31
776.74	232.37
777.07	232.34
777.39	232.25
777.72	232.11
778.04	232.05
778.36	231.92
778.69	231.86
779.01	231.85
779.33	231.42
779.66	230.83
779.98	230.69
780.31	230.78
780.63	230.90
780.95	230.95
781.28	230.97
781.60	230.86
781.92	230.79
782.25	230.76
782.57	230.73
782.89	230.72
783.22	230.60
783.54	230.45
783.86	230.45
784.19	230.46
784.51	230.61
784.83	230.46
785.16	230.45
785.48	230.44
785.80	230.40
786.12	230.41
786.45	230.40
786.77	230.46
787.09	230.32
787.42	230.11
787.74	230.05
788.06	229.98
788.38	229.99
788.71	229.93
789.03	229.91
789.35	229.95
789.67	229.82
789.99	229.85
790.32	229.83
790.64	229.91
790.96	230.25
791.28	230.08
791.61	230.15
791.93	230.18
792.25	230.23
792.57	230.56
792.89	230.44
793.21	230.46
793.54	230.36
793.86	230.33
794.18	230.37
794.50	230.28
794.82	230.25
795.14	230.38
795.47	230.37
795.79	230.36
796.11	230.23
796.43	230.25
796.75	230.20
797.07	230.24
797.39	230.16
797.71	229.75
798.04	229.80
798.36	229.75
798.68	229.65
799.00	229.56
799.32	229.30
799.64	229.45
799.96	229.46
800.28	229.56
800.60	229.51
800.92	229.53
801.24	229.51
801.56	229.64
801.89	229.50
802.21	229.61
802.53	229.51
802.85	229.65
803.17	229.87
803.49	229.82
803.81	229.79
804.13	229.76
804.45	229.73
804.77	229.76
805.09	229.74
805.41	229.75
805.73	229.82
806.05	229.68
806.37	229.60
806.69	229.50
807.01	229.54
807.33	229.56
807.65	229.33
807.97	229.53
808.28	229.42
808.60	229.47
808.92	229.42
809.24	229.75
809.56	229.63
809.88	229.48
810.20	229.58
810.52	229.64
810.84	229.55
811.16	229.55
811.48	229.51
811.80	229.73
812.12	229.71
812.43	229.66
812.75	229.75
813.07	229.71
813.39	229.78
813.71	229.66
814.03	229.66
814.35	229.66
814.67	229.54
814.98	229.50
815.30	229.45
815.62	229.36
815.94	228.94
816.26	229.15
816.58	228.95
816.89	228.91
817.21	228.82
817.53	228.91
817.85	228.91
818.17	228.88
818.48	228.71
818.80	228.75
819.12	228.69
819.44	228.60
819.76	228.51
820.07	228.49
820.39	228.46
820.71	228.46
821.03	228.47
821.34	228.37
821.66	228.44
821.98	228.45
822.30	228.45
822.61	228.82
822.93	228.63
823.25	228.68
823.57	228.61
823.88	228.66
824.20	228.62
824.52	228.66
824.83	228.62
825.15	228.48
825.47	228.55
825.79	228.64
826.10	228.56
826.42	228.52
826.74	228.52
827.05	228.49
827.37	228.47
827.69	228.51
828.00	228.50
828.32	228.42
828.64	228.28
828.95	228.47
829.27	228.34
829.58	228.31
829.90	228.39
830.22	228.44
830.53	228.34
830.85	228.26
831.17	228.14
831.48	228.12
831.80	228.17
832.11	228.06
832.43	227.98
832.75	228.01
833.06	228.35
833.38	228.19
833.69	228.21
834.01	228.25
834.32	228.19
834.64	228.12
834.96	228.19
835.27	228.25
835.59	228.12
835.90	227.97
836.22	227.99
836.53	227.88
836.85	227.85
837.16	228.29
837.48	228.32
837.79	228.51
838.11	228.54
838.42	228.57
838.74	228.60
839.05	228.46
839.37	228.46
839.68	228.16
840.00	228.19
840.31	228.23
840.63	228.17
840.94	228.12
841.26	228.12
841.57	228.11
841.88	228.15
842.20	228.04
842.51	227.97
842.83	227.91
843.14	228.39
843.46	228.38
843.77	228.05
844.08	227.94
844.40	227.77
844.71	227.71
845.03	227.62
845.34	227.52
845.65	227.59
845.97	227.53
846.28	227.53
846.60	227.48
846.91	227.34
847.22	227.31
847.54	227.41
847.85	227.40
848.16	227.34
848.48	227.25
848.79	227.42
849.10	227.51
849.42	227.46
849.73	227.03
850.04	227.01
850.36	226.88
850.67	227.02
850.98	227.02
851.30	227.03
851.61	227.05
851.92	227.10
852.23	227.22
852.55	227.23
852.86	227.20
853.17	227.29
853.49	227.43
853.80	227.56
854.11	227.68
854.42	227.75
854.74	227.65
855.05	227.70
855.36	227.49
855.67	227.45
855.99	227.50
856.30	227.98
856.61	227.99
856.92	227.99
857.23	227.99
857.55	227.88
857.86	227.86
858.17	227.92
858.48	227.87
858.79	227.76
859.11	227.80
859.42	227.73
859.73	227.70
860.04	227.72
860.35	227.55
860.66	227.34
860.98	227.35
861.29	227.50
861.60	227.46
861.91	227.55
862.22	227.55
862.53	227.52
862.84	226.96
863.16	227.07
863.47	227.00
863.78	226.92
864.09	226.97
864.40	227.02
864.71	227.09
865.02	227.18
865.33	227.07
865.64	227.04
865.95	227.13
866.27	227.38
866.58	227.29
866.89	227.35
867.20	227.35
867.51	227.22
867.82	227.11
868.13	227.27
868.44	227.18
868.75	227.22
869.06	227.26
869.37	227.34
869.68	227.18
869.99	227.34
870.30	227.38
870.61	227.45
870.92	227.36
871.23	227.22
871.54	227.21
871.85	227.40
872.16	227.43
872.47	227.39
872.78	227.09
873.09	227.16
873.40	227.09
873.71	227.08
874.02	227.14
874.33	227.10
874.64	226.94
874.95	227.08
875.26	227.00
875.56	226.99
875.87	226.99
876.18	226.97
876.49	227.39
876.80	227.37
877.11	227.33
877.42	227.40
877.73	227.46
878.04	227.49
878.35	227.45
878.66	227.51
878.96	227.48
879.27	227.51
879.58	227.47
879.89	227.49
880.20	227.62
880.51	227.62
880.82	227.61
881.12	227.64
881.43	227.47
881.74	227.41
882.05	227.33
882.36	227.35
882.67	227.33
882.97	226.78
883.28	226.73
883.59	226.66
883.90	226.74
884.21	226.80
884.51	226.72
884.82	226.65
885.13	226.63
885.44	226.65
885.74	226.65
886.05	226.66
886.36	226.69
886.67	226.53
886.98	226.81
887.28	226.89
887.59	226.89
887.90	226.91
888.20	226.91
888.51	227.04
888.82	226.98
889.13	227.02
889.43	227.47
889.74	227.45
890.05	227.46
890.35	227.36
890.66	227.25
890.97	227.16
891.28	227.10
891.58	227.17
891.89	227.14
892.20	227.05
892.50	227.04
892.81	226.99
893.12	227.02
893.42	226.75
893.73	226.82
894.04	226.90
894.34	227.01
894.65	226.97
894.95	226.89
895.26	226.88
895.57	227.07
895.87	226.64
896.18	226.69
896.48	226.69
896.79	226.69
897.10	226.83
897.40	226.93
897.71	227.01
898.01	226.92
898.32	226.96
898.63	226.92
898.93	226.89
899.24	226.97
899.54	226.99
899.85	227.02
900.15	226.96
900.46	226.92
900.76	226.94
901.07	226.95
901.38	226.94
901.68	226.98
901.99	226.80
902.29	226.79
902.60	226.85
902.90	226.86
903.21	226.86
903.51	226.80
903.82	226.87
904.12	226.89
904.43	226.90
904.73	226.97
905.03	227.09
905.34	227.60
905.64	227.49
905.95	227.41
906.25	227.38
906.56	227.25
906.86	227.19
907.17	227.08
907.47	227.15
907.77	227.09
908.08	227.05
908.38	227.06
908.69	227.09
908.99	227.14
909.30	227.20
909.60	227.25
909.90	227.19
910.21	227.05
910.51	226.95
910.81	226.95
911.12	226.96
911.42	226.88
911.73	226.34
912.03	226.45
912.33	226.64
912.64	226.60
912.94	226.66
913.24	226.58
913.55	226.61
913.85	226.52
914.15	226.63
914.46	226.68
914.76	226.67
915.06	226.68
915.37	226.54
915.67	226.57
915.97	226.56
916.27	226.47
916.58	226.53
916.88	226.48
917.18	226.48
917.49	226.77
917.79	226.82
918.09	226.91
918.39	226.91
918.70	226.83
919.00	226.84
919.30	227.04
919.60	227.08
919.91	227.00
920.21	227.10
920.51	226.99
920.81	226.93
921.12	227.00
921.42	227.00
921.72	227.07
922.02	227.01
922.32	227.00
922.63	227.06
922.93	227.31
923.23	227.36
923.53	227.25
923.83	226.94
924.13	226.99
924.44	226.97
924.74	227.12
925.04	227.22
925.34	227.20
925.64	227.06
925.94	227.10
926.24	227.43
926.55	227.32
926.85	227.41
927.15	227.43
927.45	227.40
927.75	227.35
928.05	227.36
928.35	227.35
928.65	227.50
928.95	227.54
929.26	227.30
929.56	227.37
929.86	227.51
930.16	227.42
930.46	227.34
930.76	227.39
931.06	227.15
931.36	227.10
931.66	227.15
931.96	227.16
932.26	227.12
932.56	226.88
932.86	226.89
933.16	226.93
933.46	226.83
933.76	226.78
934.06	226.92
934.36	227.03
934.66	226.98
934.96	226.95
935.26	227.00
935.56	227.09
935.86	227.01
936.16	226.89
936.46	226.87
936.76	226.87
937.06	226.77
937.36	226.86
937.66	226.82
937.96	226.83
938.26	226.74
938.56	226.73
938.86	226.79
939.16	226.99
939.46	227.01
939.76	227.11
940.06	227.09
940.35	226.95
940.65	226.75
940.95	226.81
941.25	226.59
941.55	226.53
941.85	226.51
942.15	226.65
942.45	226.80
942.75	226.84
943.04	226.93
943.34	227.11
943.64	227.01
943.94	226.93
944.24	226.94
944.54	226.96
944.84	227.00
945.13	226.88
945.43	226.79
945.73	226.79
946.03	226.71
946.33	226.71
946.62	226.70
946.92	226.75
947.22	226.75
947.52	226.90
947.82	226.97
948.11	226.90
948.41	226.73
948.71	226.62
949.01	226.65
949.31	226.58
949.60	226.49
949.90	226.60
950.20	226.66
950.50	226.62
950.79	226.64
951.09	226.68
951.39	226.66
951.69	226.59
951.98	226.60
952.28	226.68
952.58	226.65
952.87	226.69
953.17	226.67
953.47	226.59
953.76	226.55
954.06	226.41
954.36	226.36
954.66	226.35
954.95	226.52
955.25	226.54
955.55	226.54
955.84	226.43
956.14	226.40
956.44	226.40
956.73	226.35
957.03	226.32
957.32	226.37
957.62	226.34
957.92	226.42
958.21	226.35
958.51	226.84
958.81	226.86
959.10	226.94
959.40	227.04
959.69	227.11
959.99	227.09
960.29	227.15
960.58	227.21
960.88	227.39
961.17	227.28
961.47	227.29
961.76	227.27
962.06	227.35
962.36	227.35
962.65	227.39
962.95	227.42
963.24	227.40
963.54	227.34
963.83	227.42
964.13	227.34
964.42	227.27
964.72	226.82
965.01	226.89
965.31	226.82
965.60	226.66
965.90	226.89
966.19	226.81
966.49	226.79
966.78	226.73
967.08	226.72
967.37	226.74
967.67	226.66
967.96	226.75
968.26	226.70
968.55	226.77
968.85	226.70
969.14	226.70
969.43	226.74
969.73	226.65
970.02	226.59
970.32	226.57
970.61	226.60
970.91	226.54
971.20	226.50
971.49	226.48
971.79	226.57
972.08	226.25
972.38	226.28
972.67	226.31
972.96	226.39
973.26	226.32
973.55	226.40
973.85	226.44
974.14	226.34
974.43	226.45
974.73	226.36
975.02	226.35
975.31	226.33
975.61	226.28
975.90	226.32
976.19	226.35
976.49	226.46
976.78	226.49
977.07	226.51
977.37	226.51
977.66	226.61
977.95	226.48
978.24	226.60
978.54	226.70
978.83	226.62
979.12	226.58
979.42	226.51
979.71	226.44
980.00	226.35
980.29	226.42
980.59	226.31
980.88	226.33
981.17	226.38
981.46	226.35
981.76	226.39
982.05	226.57
982.34	226.64
982.63	226.67
982.93	226.68
983.22	226.85
983.51	226.74
983.80	226.73
984.09	226.86
984.39	226.81
984.68	226.74
984.97	226.80
985.26	226.74
985.55	226.85
985.85	226.81
986.14	226.87
986.43	226.89
986.72	226.90
987.01	226.77
987.30	226.75
987.59	226.79
987.89	226.76
988.18	226.55
988.47	226.51
988.76	226.45
989.05	226.43
989.34	226.32
989.63	226.53
989.92	226.49
990.22	226.45
990.51	226.40
990.80	226.38
991.09	226.39
991.38	226.51
991.67	226.45
991.96	226.41
992.25	226.56
992.54	226.54
992.83	226.54
993.12	226.60
993.41	226.68
993.70	226.92
993.99	227.08
994.28	227.18
994.58	227.22
994.87	227.16
995.16	227.15
995.45	227.10
995.74	226.94
996.03	226.95
996.32	227.00
996.61	227.13
996.90	227.14
997.19	227.15
997.48	227.11
997.77	227.00
998.06	227.04
998.34	226.90
998.63	226.87
998.92	226.90
999.21	226.90
999.50	226.89
999.79	226.68
1000.08	226.65
1000.37	226.64
1000.66	226.51
1000.95	226.63
1001.24	226.61
1001.53	226.63
1001.82	226.58
1002.11	226.47
1002.40	226.55
1002.68	226.66
1002.97	227.02
1003.26	226.92
1003.55	226.85
1003.84	226.98
1004.13	227.10
1004.42	227.10
1004.71	227.17
1004.99	227.13
1005.28	227.28
1005.57	227.19
1005.86	227.09
1006.15	226.97
1006.44	226.91
1006.72	227.05
1007.01	226.88
1007.30	226.91
1007.59	226.92
1007.88	227.03
1008.17	227.11
1008.45	226.98
1008.74	226.80
1009.03	226.55
1009.32	226.60
1009.60	226.58
1009.89	226.51
1010.18	226.29
1010.47	226.25
1010.76	226.17
1011.04	226.13
1011.33	226.05
1011.62	226.12
1011.91	226.20
1012.19	226.30
1012.48	226.31
1012.77	226.31
1013.05	226.55
1013.34	226.58
1013.63	226.57
1013.92	226.51
1014.20	226.49
1014.49	226.48
1014.78	226.53
1015.06	226.43
1015.35	226.40
1015.64	226.52
1015.92	226.56
1016.21	226.60
1016.50	226.59
1016.78	226.58
1017.07	226.66
1017.36	226.61
1017.64	226.50
1017.93	226.48
1018.22	226.43
1018.50	226.35
1018.79	226.31
1019.08	226.03
1019.36	226.00
1019.65	225.96
1019.93	226.09
1020.22	226.08
1020.51	226.26
1020.79	226.15
1021.08	225.80
1021.36	224.40
1021.65	226.35
1021.94	224.45
1022.22	226.05
1022.51	226.30
1022.79	227.95
1023.08	226.05
1023.36	230.25
1023.65	224.80
>>>>>End Processed Spectral Data<<<<<
