SpectraSuite Data File
++++++++++++++++++++++++++++++++++++
Date: Wed Sep 04 17:44:24 EDT 2013
User: lab3
Dark Spectrum Present: Yes
Reference Spectrum Present: No
Number of Sampled Component Spectra: 1
Spectrometers: USB2E7196
Integration Time (usec): 170000 (USB2E7196)
Spectra Averaged: 20 (USB2E7196)
Boxcar Smoothing: 10 (USB2E7196)
Correct for Electrical Dark: No (USB2E7196)
Strobe/Lamp Enabled: No (USB2E7196)
Correct for Detector Non-linearity: No (USB2E7196)
Correct for Stray Light: No (USB2E7196)
Number of Pixels in Processed Spectrum: 2048
>>>>>Begin Processed Spectral Data<<<<<
339.09	0.00
339.48	213.55
339.86	213.65
340.24	214.30
340.63	217.85
341.01	224.65
341.39	219.40
341.78	220.85
342.16	223.70
342.54	223.45
342.93	211.91
343.31	222.53
343.69	222.97
344.07	223.45
344.46	223.99
344.84	224.33
345.22	224.30
345.60	224.61
345.99	224.81
346.37	224.98
346.75	225.04
347.13	225.12
347.52	225.17
347.90	225.39
348.28	225.40
348.66	225.54
349.05	225.38
349.43	225.47
349.81	225.55
350.19	225.69
350.57	225.77
350.96	225.84
351.34	225.95
351.72	226.05
352.10	226.15
352.48	226.12
352.87	226.16
353.25	226.29
353.63	226.37
354.01	226.47
354.39	226.48
354.77	226.53
355.15	226.77
355.54	226.75
355.92	226.65
356.30	226.72
356.68	227.11
357.06	227.25
357.44	227.32
357.82	227.38
358.20	227.84
358.58	227.83
358.97	227.87
359.35	228.06
359.73	228.28
360.11	228.29
360.49	228.45
360.87	228.53
361.25	228.62
361.63	228.73
362.01	228.75
362.39	228.74
362.77	228.84
363.15	228.89
363.53	228.88
363.91	228.99
364.29	229.08
364.67	228.61
365.05	228.63
365.43	228.66
365.81	228.77
366.19	228.58
366.57	228.88
366.95	228.95
367.33	228.88
367.71	228.90
368.09	229.00
368.47	228.96
368.85	228.96
369.23	228.98
369.61	228.85
369.99	229.05
370.37	229.14
370.75	229.40
371.13	229.21
371.51	229.25
371.89	229.26
372.27	229.24
372.65	229.27
373.03	229.19
373.41	229.07
373.78	229.00
374.16	228.69
374.54	228.52
374.92	228.44
375.30	228.40
375.68	228.22
376.06	228.34
376.44	228.24
376.82	228.29
377.19	228.28
377.57	228.26
377.95	228.00
378.33	227.85
378.71	227.48
379.09	227.48
379.47	227.45
379.84	227.30
380.22	227.19
380.60	227.03
380.98	227.03
381.36	226.99
381.73	226.90
382.11	226.95
382.49	226.86
382.87	226.70
383.25	226.62
383.62	227.14
384.00	226.84
384.38	226.89
384.76	226.90
385.13	227.08
385.51	226.93
385.89	226.89
386.27	226.86
386.64	226.99
387.02	226.88
387.40	226.85
387.78	226.84
388.15	226.77
388.53	226.74
388.91	226.66
389.29	226.56
389.66	226.57
390.04	226.55
390.42	226.56
390.79	226.55
391.17	226.58
391.55	226.02
391.92	226.10
392.30	226.03
392.68	225.91
393.05	225.82
393.43	225.94
393.81	226.01
394.18	226.00
394.56	225.88
394.94	226.00
395.31	225.94
395.69	226.07
396.06	226.16
396.44	226.27
396.82	226.33
397.19	226.64
397.57	226.59
397.95	226.63
398.32	226.60
398.70	226.72
399.07	226.86
399.45	226.94
399.82	226.92
400.20	227.01
400.58	227.02
400.95	226.90
401.33	227.07
401.70	227.41
402.08	227.48
402.45	227.64
402.83	227.86
403.20	228.04
403.58	228.13
403.95	228.33
404.33	228.53
404.71	228.70
405.08	229.12
405.46	229.41
405.83	229.68
406.21	229.95
406.58	230.20
406.96	230.44
407.33	230.85
407.70	231.29
408.08	231.92
408.45	232.38
408.83	232.86
409.20	233.17
409.58	233.34
409.95	233.96
410.33	234.48
410.70	234.91
411.08	235.53
411.45	236.09
411.82	236.68
412.20	237.35
412.57	238.24
412.95	238.55
413.32	239.36
413.69	240.14
414.07	240.99
414.44	242.08
414.82	243.08
415.19	244.20
415.56	245.29
415.94	246.40
416.31	247.76
416.68	249.01
417.06	250.66
417.43	252.30
417.81	253.87
418.18	255.64
418.55	257.41
418.93	259.33
419.30	261.43
419.67	263.55
420.04	265.79
420.42	268.01
420.79	270.99
421.16	273.76
421.54	276.75
421.91	279.57
422.28	282.45
422.66	285.66
423.03	288.99
423.40	292.19
423.77	295.64
424.15	299.09
424.52	302.82
424.89	306.70
425.26	310.48
425.64	314.17
426.01	318.20
426.38	322.47
426.75	326.85
427.13	331.23
427.50	335.84
427.87	340.51
428.24	345.30
428.61	349.60
428.99	354.68
429.36	359.88
429.73	365.34
430.10	370.76
430.47	376.26
430.85	381.58
431.22	387.72
431.59	394.25
431.96	400.30
432.33	407.00
432.70	413.45
433.08	421.08
433.45	428.16
433.82	435.35
434.19	443.32
434.56	451.16
434.93	458.58
435.30	466.10
435.68	474.55
436.05	482.86
436.42	491.10
436.79	498.53
437.16	506.74
437.53	515.32
437.90	523.66
438.27	531.89
438.64	540.71
439.01	548.69
439.38	555.83
439.75	562.77
440.13	570.54
440.50	577.86
440.87	583.77
441.24	590.06
441.61	596.86
441.98	601.75
442.35	607.30
442.72	613.23
443.09	618.96
443.46	622.21
443.83	624.36
444.20	626.25
444.57	628.89
444.94	629.91
445.31	630.97
445.68	632.31
446.05	632.46
446.42	631.16
446.79	629.79
447.16	628.15
447.53	627.05
447.90	623.44
448.27	620.01
448.64	615.40
449.01	611.97
449.37	606.08
449.74	600.31
450.11	593.85
450.48	586.21
450.85	578.48
451.22	571.84
451.59	565.39
451.96	559.38
452.33	551.59
452.70	544.44
453.07	536.04
453.43	527.26
453.80	519.24
454.17	511.50
454.54	504.01
454.91	496.04
455.28	488.20
455.65	481.19
456.02	474.50
456.38	468.25
456.75	460.63
457.12	454.22
457.49	448.08
457.86	441.90
458.23	437.00
458.59	431.38
458.96	425.76
459.33	420.83
459.70	415.76
460.07	411.72
460.43	407.12
460.80	402.90
461.17	399.31
461.54	395.43
461.91	391.69
462.27	387.98
462.64	384.77
463.01	381.33
463.38	378.08
463.74	374.15
464.11	371.17
464.48	368.60
464.85	365.89
465.21	363.89
465.58	361.65
465.95	358.82
466.32	356.60
466.68	354.41
467.05	352.32
467.42	350.23
467.78	348.03
468.15	346.00
468.52	344.46
468.88	342.25
469.25	340.39
469.62	338.98
469.98	337.35
470.35	335.88
470.72	334.53
471.08	332.84
471.45	331.67
471.82	330.50
472.18	329.15
472.55	328.15
472.92	326.75
473.28	325.59
473.65	324.65
474.02	323.74
474.38	322.99
474.75	322.21
475.11	321.30
475.48	320.73
475.85	320.21
476.21	319.58
476.58	319.18
476.94	318.80
477.31	318.25
477.67	317.90
478.04	317.55
478.41	317.38
478.77	317.70
479.14	317.46
479.50	317.39
479.87	317.50
480.23	317.47
480.60	317.54
480.96	317.65
481.33	318.00
481.69	318.29
482.06	318.62
482.42	318.89
482.79	319.30
483.15	319.67
483.52	320.24
483.88	320.73
484.25	321.20
484.61	321.86
484.98	322.61
485.34	323.70
485.71	324.75
486.07	325.66
486.44	326.30
486.80	327.36
487.17	328.46
487.53	329.63
487.90	331.05
488.26	332.67
488.62	334.34
488.99	335.74
489.35	337.44
489.72	339.18
490.08	341.16
490.44	343.26
490.81	345.42
491.17	347.54
491.54	349.99
491.90	352.57
492.26	355.24
492.63	357.99
492.99	360.62
493.36	363.54
493.72	366.85
494.08	370.18
494.45	373.88
494.81	377.76
495.17	381.68
495.54	385.81
495.90	389.95
496.26	394.30
496.63	399.04
496.99	403.75
497.35	408.79
497.72	414.17
498.08	419.44
498.44	425.09
498.80	431.04
499.17	437.08
499.53	443.33
499.89	449.81
500.26	456.46
500.62	463.46
500.98	470.83
501.34	478.10
501.71	485.59
502.07	493.24
502.43	501.32
502.79	509.48
503.16	518.02
503.52	526.95
503.88	535.99
504.24	545.46
504.60	555.19
504.97	565.34
505.33	575.40
505.69	586.50
506.05	597.32
506.41	608.41
506.78	619.83
507.14	631.63
507.50	643.82
507.86	656.30
508.22	668.90
508.59	681.80
508.95	695.15
509.31	709.15
509.67	723.15
510.03	737.06
510.39	751.68
510.75	766.43
511.12	781.25
511.48	796.52
511.84	811.91
512.20	827.55
512.56	843.17
512.92	859.75
513.28	875.88
513.64	892.68
514.00	909.83
514.37	926.92
514.73	944.55
515.09	962.27
515.45	980.20
515.81	998.19
516.17	1016.37
516.53	1034.50
516.89	1052.68
517.25	1071.49
517.61	1091.21
517.97	1110.74
518.33	1130.29
518.69	1150.40
519.05	1170.42
519.41	1190.61
519.77	1211.19
520.13	1231.70
520.49	1251.62
520.85	1272.08
521.21	1292.61
521.57	1313.20
521.93	1333.64
522.29	1354.41
522.65	1374.33
523.01	1394.56
523.37	1414.58
523.73	1434.82
524.09	1454.66
524.45	1474.85
524.81	1494.98
525.17	1514.93
525.53	1534.78
525.89	1555.14
526.25	1574.92
526.61	1594.46
526.97	1614.66
527.33	1634.86
527.68	1655.55
528.04	1676.00
528.40	1696.21
528.76	1716.45
529.12	1736.28
529.48	1756.37
529.84	1775.29
530.20	1795.66
530.56	1815.49
530.91	1835.29
531.27	1854.82
531.63	1874.72
531.99	1894.33
532.35	1913.56
532.71	1932.88
533.07	1952.91
533.42	1971.65
533.78	1990.41
534.14	2009.51
534.50	2027.78
534.86	2046.19
535.21	2063.23
535.57	2080.71
535.93	2097.44
536.29	2114.28
536.65	2131.35
537.00	2147.98
537.36	2164.74
537.72	2180.33
538.08	2196.48
538.44	2212.54
538.79	2227.90
539.15	2243.65
539.51	2258.60
539.87	2273.08
540.22	2286.06
540.58	2299.32
540.94	2311.74
541.29	2323.81
541.65	2335.67
542.01	2347.00
542.37	2356.59
542.72	2366.41
543.08	2376.22
543.44	2387.09
543.79	2396.29
544.15	2405.54
544.51	2415.03
544.87	2423.82
545.22	2431.47
545.58	2438.70
545.94	2444.89
546.29	2450.81
546.65	2456.12
547.01	2461.31
547.36	2465.89
547.72	2470.69
548.07	2473.85
548.43	2478.09
548.79	2481.77
549.14	2484.92
549.50	2488.43
549.86	2491.77
550.21	2495.15
550.57	2498.13
550.92	2498.91
551.28	2499.49
551.64	2500.66
551.99	2501.52
552.35	2502.25
552.70	2504.22
553.06	2505.30
553.41	2506.10
553.77	2507.12
554.13	2508.25
554.48	2509.10
554.84	2509.89
555.19	2510.88
555.55	2512.05
555.90	2511.04
556.26	2510.10
556.61	2508.15
556.97	2505.31
557.32	2504.27
557.68	2502.70
558.03	2500.56
558.39	2498.92
558.74	2497.59
559.10	2494.13
559.45	2489.96
559.81	2485.28
560.16	2479.23
560.52	2473.86
560.87	2469.22
561.23	2463.55
561.58	2457.62
561.94	2450.47
562.29	2443.07
562.64	2435.55
563.00	2427.29
563.35	2420.59
563.71	2413.52
564.06	2407.21
564.42	2400.59
564.77	2393.39
565.12	2385.76
565.48	2378.11
565.83	2369.87
566.19	2361.86
566.54	2354.11
566.89	2346.30
567.25	2338.63
567.60	2331.80
567.96	2324.53
568.31	2316.43
568.66	2308.02
569.02	2298.96
569.37	2290.86
569.72	2283.21
570.08	2274.15
570.43	2264.63
570.78	2255.70
571.14	2246.33
571.49	2236.10
571.84	2226.98
572.20	2216.42
572.55	2206.36
572.90	2195.59
573.26	2185.55
573.61	2174.93
573.96	2164.10
574.31	2152.68
574.67	2141.53
575.02	2129.60
575.37	2117.04
575.72	2104.46
576.08	2092.99
576.43	2080.80
576.78	2068.09
577.13	2055.22
577.49	2042.83
577.84	2031.60
578.19	2020.09
578.54	2008.04
578.90	1996.90
579.25	1984.91
579.60	1973.20
579.95	1960.76
580.30	1948.30
580.66	1935.25
581.01	1922.20
581.36	1908.76
581.71	1896.47
582.06	1883.95
582.42	1871.68
582.77	1859.92
583.12	1848.48
583.47	1836.13
583.82	1824.57
584.17	1813.26
584.53	1801.56
584.88	1789.22
585.23	1776.46
585.58	1762.75
585.93	1750.07
586.28	1737.17
586.63	1723.90
586.98	1710.21
587.34	1697.42
587.69	1684.87
588.04	1673.04
588.39	1661.64
588.74	1650.14
589.09	1638.54
589.44	1626.17
589.79	1614.58
590.14	1602.90
590.49	1591.17
590.84	1580.17
591.19	1568.77
591.54	1556.82
591.89	1545.28
592.25	1535.55
592.60	1524.41
592.95	1513.71
593.30	1502.44
593.65	1490.92
594.00	1479.49
594.35	1470.31
594.70	1459.34
595.05	1448.40
595.40	1437.07
595.75	1425.55
596.10	1414.60
596.45	1403.83
596.80	1393.68
597.15	1382.93
597.50	1371.58
597.85	1361.01
598.19	1349.83
598.54	1338.72
598.89	1328.01
599.24	1318.17
599.59	1307.09
599.94	1297.09
600.29	1287.14
600.64	1277.71
600.99	1267.85
601.34	1258.65
601.69	1247.86
602.04	1238.39
602.39	1229.27
602.74	1220.50
603.08	1211.69
603.43	1203.31
603.78	1194.20
604.13	1185.25
604.48	1176.17
604.83	1167.02
605.18	1157.61
605.53	1148.56
605.87	1140.09
606.22	1132.25
606.57	1123.54
606.92	1114.86
607.27	1106.57
607.62	1098.41
607.96	1090.36
608.31	1082.84
608.66	1074.88
609.01	1067.00
609.36	1059.28
609.70	1051.22
610.05	1043.12
610.40	1035.15
610.75	1026.78
611.10	1018.86
611.44	1010.63
611.79	1002.89
612.14	995.79
612.49	988.57
612.83	981.69
613.18	974.27
613.53	966.79
613.88	959.31
614.22	951.99
614.57	944.49
614.92	936.91
615.27	929.63
615.61	922.16
615.96	914.88
616.31	907.58
616.65	900.63
617.00	893.64
617.35	886.80
617.70	880.07
618.04	873.37
618.39	866.73
618.74	860.79
619.08	854.15
619.43	847.37
619.78	840.66
620.12	833.67
620.47	827.04
620.82	820.39
621.16	813.90
621.51	808.02
621.85	802.11
622.20	796.04
622.55	789.70
622.89	783.89
623.24	777.99
623.59	772.15
623.93	766.25
624.28	760.61
624.62	755.28
624.97	749.92
625.32	744.50
625.66	738.74
626.01	732.95
626.35	727.87
626.70	722.82
627.04	717.94
627.39	712.85
627.73	708.09
628.08	703.19
628.43	698.08
628.77	692.95
629.12	687.84
629.46	683.38
629.81	679.10
630.15	674.39
630.50	669.94
630.84	665.37
631.19	660.80
631.53	656.41
631.88	651.49
632.22	646.81
632.57	642.60
632.91	638.39
633.26	634.19
633.60	629.64
633.95	625.08
634.29	620.48
634.64	616.37
634.98	611.72
635.32	607.43
635.67	603.64
636.01	599.60
636.36	595.57
636.70	591.55
637.05	587.47
637.39	583.58
637.73	579.53
638.08	575.60
638.42	571.59
638.77	567.45
639.11	563.35
639.45	559.14
639.80	554.95
640.14	551.07
640.49	547.27
640.83	543.87
641.17	540.51
641.52	537.03
641.86	533.57
642.20	530.58
642.55	527.23
642.89	523.77
643.23	520.42
643.58	517.51
643.92	514.00
644.26	510.66
644.61	507.66
644.95	504.63
645.29	501.51
645.64	498.64
645.98	495.85
646.32	493.22
646.66	490.58
647.01	487.65
647.35	485.02
647.69	482.30
648.04	479.53
648.38	476.82
648.72	474.14
649.06	471.24
649.41	468.34
649.75	465.61
650.09	462.95
650.43	460.24
650.78	457.38
651.12	454.82
651.46	452.16
651.80	449.43
652.14	446.84
652.49	444.42
652.83	441.89
653.17	439.44
653.51	436.77
653.85	434.45
654.20	432.31
654.54	429.96
654.88	427.61
655.22	425.40
655.56	423.12
655.90	420.94
656.25	418.83
656.59	416.70
656.93	414.60
657.27	412.56
657.61	410.39
657.95	408.32
658.29	406.33
658.64	404.48
658.98	402.43
659.32	400.34
659.66	398.24
660.00	396.29
660.34	394.19
660.68	392.45
661.02	390.49
661.36	388.57
661.70	386.63
662.05	384.78
662.39	382.98
662.73	381.38
663.07	379.83
663.41	378.22
663.75	376.49
664.09	374.83
664.43	373.07
664.77	371.52
665.11	369.80
665.45	368.13
665.79	366.54
666.13	364.94
666.47	363.40
666.81	361.94
667.15	360.46
667.49	359.23
667.83	357.89
668.17	356.44
668.51	355.05
668.85	353.79
669.19	352.81
669.53	351.31
669.87	349.75
670.21	348.25
670.55	346.87
670.89	345.78
671.23	344.51
671.57	343.19
671.91	341.91
672.25	340.70
672.58	339.57
672.92	338.17
673.26	337.12
673.60	335.96
673.94	334.89
674.28	333.75
674.62	332.65
674.96	331.36
675.30	330.29
675.64	329.13
675.97	327.90
676.31	326.48
676.65	325.43
676.99	324.60
677.33	323.46
677.67	322.46
678.01	321.21
678.34	320.20
678.68	319.36
679.02	318.30
679.36	317.33
679.70	316.29
680.04	315.41
680.37	314.40
680.71	313.40
681.05	312.51
681.39	311.63
681.73	310.70
682.06	309.85
682.40	308.94
682.74	308.13
683.08	307.53
683.42	306.65
683.75	305.89
684.09	304.96
684.43	304.30
684.77	303.38
685.10	302.63
685.44	301.79
685.78	300.90
686.12	300.11
686.45	299.32
686.79	298.49
687.13	297.83
687.46	297.07
687.80	296.58
688.14	295.78
688.48	294.96
688.81	294.13
689.15	293.54
689.49	292.85
689.82	292.18
690.16	291.23
690.50	290.56
690.83	289.81
691.17	288.97
691.51	288.30
691.84	287.72
692.18	287.02
692.52	286.28
692.85	285.76
693.19	285.42
693.52	284.88
693.86	284.29
694.20	283.74
694.53	283.13
694.87	282.40
695.21	281.79
695.54	281.29
695.88	280.68
696.21	279.96
696.55	279.41
696.88	278.87
697.22	278.33
697.56	277.81
697.89	277.18
698.23	276.80
698.56	276.21
698.90	275.81
699.23	275.30
699.57	274.90
699.90	274.26
700.24	273.56
700.58	273.06
700.91	272.79
701.25	272.66
701.58	272.55
701.92	272.22
702.25	271.78
702.59	271.35
702.92	270.99
703.26	270.71
703.59	270.30
703.93	270.24
704.26	269.94
704.60	269.63
704.93	269.29
705.26	268.83
705.60	268.53
705.93	268.03
706.27	267.90
706.60	267.66
706.94	267.48
707.27	267.10
707.61	266.74
707.94	266.33
708.27	265.55
708.61	264.86
708.94	264.40
709.28	264.05
709.61	263.67
709.94	263.37
710.28	262.89
710.61	262.55
710.95	261.75
711.28	261.67
711.61	261.25
711.95	261.06
712.28	260.70
712.61	260.34
712.95	260.21
713.28	260.00
713.61	259.59
713.95	259.14
714.28	258.81
714.61	258.49
714.95	258.09
715.28	257.72
715.61	257.43
715.95	257.20
716.28	256.88
716.61	256.60
716.95	256.19
717.28	255.90
717.61	255.60
717.94	255.38
718.28	254.76
718.61	254.44
718.94	254.06
719.27	253.88
719.61	253.68
719.94	253.29
720.27	252.78
720.60	252.47
720.94	252.26
721.27	252.08
721.60	251.91
721.93	251.70
722.27	251.66
722.60	251.51
722.93	251.23
723.26	251.05
723.59	250.75
723.93	250.61
724.26	250.49
724.59	250.26
724.92	250.14
725.25	250.10
725.59	249.91
725.92	249.77
726.25	249.54
726.58	249.26
726.91	249.08
727.24	249.00
727.57	248.88
727.91	248.60
728.24	248.50
728.57	248.14
728.90	247.98
729.23	247.64
729.56	247.63
729.89	247.53
730.22	247.26
730.55	247.17
730.89	246.94
731.22	246.68
731.55	246.52
731.88	246.25
732.21	245.92
732.54	245.75
732.87	245.58
733.20	245.44
733.53	245.37
733.86	245.22
734.19	244.90
734.52	244.79
734.85	244.93
735.18	244.69
735.51	244.79
735.84	244.67
736.17	244.66
736.50	244.26
736.83	244.58
737.16	244.53
737.49	244.35
737.82	244.27
738.15	244.16
738.48	244.00
738.81	243.80
739.14	243.60
739.47	243.45
739.80	243.22
740.13	243.10
740.46	242.86
740.79	242.70
741.12	242.59
741.45	242.37
741.78	242.00
742.11	241.95
742.44	241.70
742.77	241.56
743.10	241.33
743.43	241.15
743.75	240.50
744.08	241.00
744.41	240.86
744.74	240.63
745.07	240.45
745.40	240.41
745.73	240.49
746.06	240.42
746.39	240.32
746.71	240.24
747.04	240.03
747.37	239.93
747.70	239.87
748.03	239.81
748.36	239.70
748.68	239.59
749.01	239.41
749.34	239.27
749.67	239.17
750.00	239.18
750.33	239.51
750.65	239.44
750.98	238.64
751.31	238.49
751.64	238.46
751.97	238.66
752.29	238.53
752.62	238.23
752.95	238.12
753.28	238.02
753.60	237.82
753.93	237.89
754.26	237.80
754.59	237.56
754.91	237.34
755.24	237.25
755.57	237.11
755.90	237.00
756.22	236.87
756.55	236.69
756.88	236.48
757.20	236.00
757.53	235.79
757.86	235.78
758.19	235.79
758.51	235.66
758.84	235.26
759.17	235.12
759.49	235.07
759.82	235.23
760.15	235.12
760.47	235.12
760.80	234.88
761.13	234.77
761.45	234.69
761.78	234.61
762.11	234.54
762.43	234.50
762.76	234.36
763.08	234.30
763.41	234.31
763.74	234.22
764.06	234.13
764.39	234.02
764.71	233.92
765.04	233.70
765.37	233.62
765.69	233.55
766.02	233.41
766.34	233.29
766.67	232.96
767.00	232.98
767.32	233.10
767.65	233.33
767.97	233.18
768.30	233.15
768.62	233.11
768.95	232.99
769.27	232.85
769.60	232.77
769.92	232.55
770.25	232.37
770.57	232.17
770.90	232.10
771.22	232.09
771.55	232.03
771.87	232.05
772.20	232.01
772.52	232.37
772.85	232.96
773.17	232.91
773.50	232.92
773.82	232.88
774.15	232.56
774.47	232.21
774.80	232.16
775.12	232.10
775.45	232.01
775.77	231.99
776.09	232.00
776.42	232.05
776.74	232.21
777.07	232.14
777.39	232.18
777.72	232.14
778.04	232.06
778.36	231.98
778.69	231.92
779.01	231.85
779.33	231.39
779.66	230.75
779.98	230.69
780.31	230.65
780.63	230.74
780.95	230.79
781.28	230.73
781.60	230.70
781.92	230.68
782.25	230.64
782.57	230.61
782.89	230.52
783.22	230.42
783.54	230.29
783.86	230.37
784.19	230.33
784.51	230.37
784.83	230.27
785.16	230.19
785.48	230.24
785.80	230.21
786.12	230.25
786.45	230.28
786.77	230.30
787.09	230.25
787.42	229.99
787.74	229.94
788.06	229.94
788.38	229.93
788.71	229.79
789.03	229.82
789.35	229.84
789.67	229.77
789.99	229.80
790.32	229.71
790.64	229.71
790.96	230.03
791.28	229.90
791.61	229.88
791.93	229.91
792.25	229.78
792.57	230.09
792.89	230.04
793.21	229.96
793.54	229.90
793.86	229.76
794.18	229.80
794.50	229.66
794.82	229.60
795.14	229.55
795.47	229.64
795.79	229.57
796.11	229.45
796.43	229.38
796.75	229.36
797.07	229.42
797.39	229.36
797.71	228.97
798.04	228.94
798.36	229.03
798.68	229.03
799.00	229.11
799.32	228.83
799.64	228.74
799.96	228.72
800.28	228.78
800.60	228.79
800.92	228.76
801.24	228.79
801.56	228.80
801.89	228.83
802.21	228.83
802.53	228.82
802.85	228.92
803.17	229.21
803.49	229.13
803.81	229.03
804.13	229.02
804.45	229.07
804.77	229.16
805.09	229.12
805.41	229.01
805.73	228.90
806.05	228.78
806.37	228.82
806.69	228.76
807.01	228.68
807.33	228.71
807.65	228.60
807.97	228.82
808.28	228.79
808.60	228.75
808.92	228.70
809.24	228.98
809.56	228.90
809.88	228.66
810.20	228.61
810.52	228.76
810.84	228.58
811.16	228.49
811.48	228.45
811.80	228.64
812.12	228.67
812.43	228.76
812.75	228.73
813.07	228.71
813.39	228.79
813.71	228.74
814.03	228.65
814.35	228.67
814.67	228.43
814.98	228.32
815.30	228.30
815.62	228.22
815.94	227.84
816.26	228.01
816.58	227.94
816.89	228.02
817.21	227.92
817.53	228.01
817.85	228.03
818.17	227.99
818.48	227.76
818.80	227.80
819.12	227.67
819.44	227.65
819.76	227.56
820.07	227.45
820.39	227.41
820.71	227.46
821.03	227.41
821.34	227.39
821.66	227.50
821.98	227.57
822.30	227.46
822.61	227.73
822.93	227.50
823.25	227.45
823.57	227.38
823.88	227.39
824.20	227.32
824.52	227.35
824.83	227.33
825.15	227.27
825.47	227.20
825.79	227.30
826.10	227.28
826.42	227.28
826.74	227.36
827.05	227.34
827.37	227.32
827.69	227.28
828.00	227.22
828.32	227.21
828.64	227.08
828.95	227.37
829.27	227.22
829.58	227.15
829.90	227.18
830.22	227.20
830.53	227.05
830.85	227.05
831.17	226.91
831.48	226.82
831.80	226.74
832.11	226.72
832.43	226.65
832.75	226.62
833.06	226.89
833.38	226.76
833.69	226.80
834.01	226.85
834.32	226.88
834.64	226.89
834.96	226.87
835.27	226.88
835.59	226.77
835.90	226.74
836.22	226.70
836.53	226.67
836.85	226.62
837.16	227.16
837.48	227.15
837.79	227.29
838.11	227.34
838.42	227.50
838.74	227.56
839.05	227.50
839.37	227.53
839.68	227.23
840.00	227.24
840.31	227.23
840.63	227.14
840.94	227.06
841.26	227.06
841.57	227.07
841.88	227.14
842.20	227.04
842.51	227.10
842.83	227.16
843.14	227.66
843.46	227.66
843.77	227.38
844.08	227.33
844.40	227.18
844.71	227.21
845.03	227.13
845.34	227.05
845.65	227.03
845.97	227.09
846.28	227.15
846.60	227.17
846.91	227.15
847.22	227.19
847.54	227.33
847.85	227.37
848.16	227.35
848.48	227.23
848.79	227.42
849.10	227.38
849.42	227.39
849.73	226.86
850.04	226.87
850.36	226.72
850.67	226.91
850.98	226.96
851.30	227.00
851.61	226.96
851.92	226.98
852.23	227.09
852.55	227.05
852.86	227.00
853.17	227.03
853.49	227.17
853.80	227.21
854.11	227.20
854.42	227.27
854.74	227.17
855.05	227.24
855.36	226.99
855.67	226.95
855.99	226.94
856.30	227.56
856.61	227.54
856.92	227.53
857.23	227.47
857.55	227.38
857.86	227.29
858.17	227.32
858.48	227.25
858.79	227.18
859.11	227.16
859.42	227.07
859.73	226.99
860.04	226.87
860.35	226.70
860.66	226.58
860.98	226.50
861.29	226.55
861.60	226.49
861.91	226.60
862.22	226.57
862.53	226.50
862.84	225.91
863.16	226.03
863.47	225.90
863.78	225.85
864.09	225.92
864.40	225.96
864.71	226.01
865.02	226.17
865.33	226.11
865.64	226.08
865.95	226.14
866.27	226.42
866.58	226.43
866.89	226.55
867.20	226.54
867.51	226.45
867.82	226.39
868.13	226.50
868.44	226.37
868.75	226.49
869.06	226.53
869.37	226.55
869.68	226.42
869.99	226.49
870.30	226.55
870.61	226.60
870.92	226.49
871.23	226.37
871.54	226.28
871.85	226.44
872.16	226.57
872.47	226.60
872.78	226.34
873.09	226.35
873.40	226.29
873.71	226.34
874.02	226.36
874.33	226.34
874.64	226.29
874.95	226.42
875.26	226.26
875.56	226.25
875.87	226.26
876.18	226.25
876.49	226.74
876.80	226.69
877.11	226.63
877.42	226.70
877.73	226.79
878.04	226.79
878.35	226.78
878.66	226.69
878.96	226.65
879.27	226.66
879.58	226.65
879.89	226.63
880.20	226.81
880.51	226.86
880.82	226.94
881.12	226.91
881.43	226.80
881.74	226.75
882.05	226.78
882.36	226.83
882.67	226.85
882.97	226.39
883.28	226.35
883.59	226.35
883.90	226.48
884.21	226.59
884.51	226.59
884.82	226.47
885.13	226.43
885.44	226.43
885.74	226.43
886.05	226.39
886.36	226.44
886.67	226.23
886.98	226.50
887.28	226.55
887.59	226.55
887.90	226.60
888.20	226.69
888.51	226.80
888.82	226.73
889.13	226.76
889.43	227.16
889.74	227.13
890.05	227.06
890.35	226.98
890.66	226.86
890.97	226.81
891.28	226.77
891.58	226.78
891.89	226.77
892.20	226.72
892.50	226.67
892.81	226.65
893.12	226.70
893.42	226.42
893.73	226.39
894.04	226.43
894.34	226.43
894.65	226.39
894.95	226.34
895.26	226.36
895.57	226.54
895.87	226.06
896.18	226.10
896.48	226.15
896.79	226.14
897.10	226.26
897.40	226.34
897.71	226.38
898.01	226.34
898.32	226.40
898.63	226.45
898.93	226.50
899.24	226.47
899.54	226.41
899.85	226.39
900.15	226.39
900.46	226.37
900.76	226.41
901.07	226.42
901.38	226.35
901.68	226.39
901.99	226.16
902.29	226.21
902.60	226.24
902.90	226.24
903.21	226.22
903.51	226.15
903.82	226.15
904.12	226.18
904.43	226.24
904.73	226.26
905.03	226.26
905.34	226.70
905.64	226.65
905.95	226.69
906.25	226.68
906.56	226.63
906.86	226.62
907.17	226.55
907.47	226.56
907.77	226.48
908.08	226.46
908.38	226.54
908.69	226.60
908.99	226.70
909.30	226.73
909.60	226.74
909.90	226.72
910.21	226.66
910.51	226.58
910.81	226.61
911.12	226.64
911.42	226.60
911.73	226.13
912.03	226.24
912.33	226.33
912.64	226.34
912.94	226.27
913.24	226.22
913.55	226.27
913.85	226.16
914.15	226.30
914.46	226.24
914.76	226.15
915.06	226.09
915.37	225.96
915.67	225.86
915.97	225.89
916.27	225.68
916.58	225.66
916.88	225.70
917.18	225.65
917.49	225.93
917.79	225.94
918.09	226.02
918.39	226.13
918.70	226.09
919.00	226.12
919.30	226.40
919.60	226.35
919.91	226.30
920.21	226.39
920.51	226.28
920.81	226.33
921.12	226.48
921.42	226.45
921.72	226.46
922.02	226.52
922.32	226.60
922.63	226.78
922.93	227.02
923.23	227.06
923.53	227.04
923.83	226.77
924.13	226.88
924.44	226.95
924.74	226.98
925.04	227.02
925.34	227.02
925.64	226.85
925.94	226.90
926.24	227.15
926.55	227.08
926.85	227.13
927.15	227.09
927.45	227.11
927.75	227.12
928.05	227.15
928.35	227.09
928.65	227.07
928.95	227.10
929.26	226.90
929.56	226.99
929.86	227.06
930.16	226.98
930.46	226.86
930.76	226.81
931.06	226.58
931.36	226.53
931.66	226.58
931.96	226.64
932.26	226.59
932.56	226.32
932.86	226.37
933.16	226.39
933.46	226.35
933.76	226.23
934.06	226.33
934.36	226.45
934.66	226.46
934.96	226.41
935.26	226.44
935.56	226.53
935.86	226.31
936.16	226.21
936.46	226.16
936.76	226.15
937.06	226.09
937.36	226.14
937.66	226.11
937.96	226.00
938.26	225.85
938.56	225.82
938.86	225.84
939.16	225.94
939.46	225.89
939.76	225.86
940.06	225.85
940.35	225.66
940.65	225.37
940.95	225.41
941.25	225.28
941.55	225.17
941.85	225.06
942.15	225.22
942.45	225.34
942.75	225.31
943.04	225.37
943.34	225.47
943.64	225.38
943.94	225.25
944.24	225.27
944.54	225.31
944.84	225.35
945.13	225.31
945.43	225.17
945.73	225.16
946.03	225.08
946.33	225.03
946.62	225.09
946.92	225.16
947.22	225.16
947.52	225.20
947.82	225.25
948.11	225.22
948.41	225.09
948.71	224.98
949.01	224.95
949.31	224.85
949.60	224.75
949.90	224.86
950.20	224.86
950.50	224.82
950.79	224.77
951.09	224.80
951.39	224.80
951.69	224.75
951.98	224.85
952.28	224.96
952.58	224.91
952.87	224.89
953.17	224.92
953.47	224.83
953.76	224.78
954.06	224.62
954.36	224.55
954.66	224.63
954.95	224.75
955.25	224.84
955.55	224.88
955.84	224.87
956.14	224.85
956.44	224.91
956.73	224.91
957.03	224.93
957.32	224.90
957.62	224.87
957.92	225.05
958.21	224.97
958.51	225.50
958.81	225.57
959.10	225.59
959.40	225.67
959.69	225.84
959.99	226.00
960.29	226.08
960.58	226.10
960.88	226.22
961.17	226.15
961.47	226.21
961.76	226.23
962.06	226.26
962.36	226.28
962.65	226.33
962.95	226.34
963.24	226.43
963.54	226.50
963.83	226.66
964.13	226.57
964.42	226.55
964.72	226.17
965.01	226.23
965.31	226.25
965.60	226.17
965.90	226.41
966.19	226.24
966.49	226.31
966.78	226.34
967.08	226.31
967.37	226.30
967.67	226.25
967.96	226.31
968.26	226.31
968.55	226.35
968.85	226.29
969.14	226.28
969.43	226.18
969.73	226.16
970.02	226.10
970.32	226.05
970.61	226.03
970.91	225.96
971.20	225.90
971.49	225.85
971.79	225.91
972.08	225.56
972.38	225.65
972.67	225.57
972.96	225.61
973.26	225.52
973.55	225.65
973.85	225.57
974.14	225.58
974.43	225.61
974.73	225.53
975.02	225.51
975.31	225.58
975.61	225.61
975.90	225.50
976.19	225.48
976.49	225.61
976.78	225.62
977.07	225.55
977.37	225.55
977.66	225.56
977.95	225.52
978.24	225.57
978.54	225.73
978.83	225.68
979.12	225.63
979.42	225.64
979.71	225.55
980.00	225.52
980.29	225.46
980.59	225.38
980.88	225.48
981.17	225.51
981.46	225.43
981.76	225.42
982.05	225.64
982.34	225.65
982.63	225.62
982.93	225.68
983.22	225.78
983.51	225.78
983.80	225.90
984.09	225.89
984.39	225.85
984.68	225.75
984.97	225.79
985.26	225.72
985.55	225.76
985.85	225.64
986.14	225.76
986.43	225.89
986.72	225.85
987.01	225.64
987.30	225.63
987.59	225.65
987.89	225.67
988.18	225.47
988.47	225.37
988.76	225.28
989.05	225.16
989.34	225.10
989.63	225.26
989.92	225.12
990.22	225.07
990.51	225.00
990.80	224.91
991.09	224.96
991.38	225.05
991.67	224.93
991.96	224.93
992.25	224.95
992.54	224.84
992.83	224.83
993.12	224.93
993.41	224.99
993.70	225.11
993.99	225.21
994.28	225.34
994.58	225.42
994.87	225.48
995.16	225.56
995.45	225.50
995.74	225.34
996.03	225.47
996.32	225.64
996.61	225.78
996.90	225.77
997.19	225.79
997.48	225.86
997.77	225.89
998.06	225.94
998.34	225.85
998.63	225.89
998.92	226.00
999.21	226.07
999.50	226.19
999.79	226.10
1000.08	226.08
1000.37	226.08
1000.66	226.01
1000.95	226.07
1001.24	226.06
1001.53	226.17
1001.82	226.17
1002.11	226.07
1002.40	226.05
1002.68	226.21
1002.97	226.59
1003.26	226.53
1003.55	226.43
1003.84	226.45
1004.13	226.63
1004.42	226.73
1004.71	226.68
1004.99	226.60
1005.28	226.70
1005.57	226.59
1005.86	226.54
1006.15	226.50
1006.44	226.41
1006.72	226.51
1007.01	226.46
1007.30	226.48
1007.59	226.39
1007.88	226.43
1008.17	226.46
1008.45	226.37
1008.74	226.12
1009.03	225.81
1009.32	225.85
1009.60	225.79
1009.89	225.71
1010.18	225.52
1010.47	225.37
1010.76	225.40
1011.04	225.39
1011.33	225.37
1011.62	225.38
1011.91	225.37
1012.19	225.36
1012.48	225.40
1012.77	225.35
1013.05	225.55
1013.34	225.63
1013.63	225.59
1013.92	225.56
1014.20	225.49
1014.49	225.51
1014.78	225.57
1015.06	225.47
1015.35	225.43
1015.64	225.52
1015.92	225.62
1016.21	225.62
1016.50	225.67
1016.78	225.74
1017.07	225.80
1017.36	225.72
1017.64	225.62
1017.93	225.70
1018.22	225.75
1018.50	225.69
1018.79	225.68
1019.08	225.44
1019.36	225.42
1019.65	225.39
1019.93	225.53
1020.22	225.66
1020.51	225.86
1020.79	225.77
1021.08	226.40
1021.36	224.00
1021.65	225.55
1021.94	224.80
1022.22	226.70
1022.51	224.45
1022.79	227.75
1023.08	227.25
1023.36	230.40
1023.65	223.85
>>>>>End Processed Spectral Data<<<<<
