SpectraSuite Data File
++++++++++++++++++++++++++++++++++++
Date: Wed Sep 04 17:51:39 EDT 2013
User: lab3
Dark Spectrum Present: Yes
Reference Spectrum Present: No
Number of Sampled Component Spectra: 1
Spectrometers: USB2E7196
Integration Time (usec): 170000 (USB2E7196)
Spectra Averaged: 20 (USB2E7196)
Boxcar Smoothing: 10 (USB2E7196)
Correct for Electrical Dark: No (USB2E7196)
Strobe/Lamp Enabled: No (USB2E7196)
Correct for Detector Non-linearity: No (USB2E7196)
Correct for Stray Light: No (USB2E7196)
Number of Pixels in Processed Spectrum: 2048
>>>>>Begin Processed Spectral Data<<<<<
339.09	0.00
339.48	213.25
339.86	214.70
340.24	214.85
340.63	217.45
341.01	224.50
341.39	219.60
341.78	222.90
342.16	223.25
342.54	222.10
342.93	212.02
343.31	222.68
343.69	223.19
344.07	223.62
344.46	224.16
344.84	224.56
345.22	224.62
345.60	224.91
345.99	225.02
346.37	225.18
346.75	225.40
347.13	225.39
347.52	225.47
347.90	225.70
348.28	225.81
348.66	225.98
349.05	225.84
349.43	225.89
349.81	225.96
350.19	226.04
350.57	226.15
350.96	226.32
351.34	226.52
351.72	226.65
352.10	226.75
352.48	226.80
352.87	226.83
353.25	226.95
353.63	226.96
354.01	227.03
354.39	227.11
354.77	227.12
355.15	227.35
355.54	227.33
355.92	227.20
356.30	227.19
356.68	227.48
357.06	227.61
357.44	227.64
357.82	227.65
358.20	228.14
358.58	228.15
358.97	228.12
359.35	228.26
359.73	228.40
360.11	228.48
360.49	228.57
360.87	228.59
361.25	228.64
361.63	228.88
362.01	228.94
362.39	228.94
362.77	229.02
363.15	229.01
363.53	229.03
363.91	229.07
364.29	229.11
364.67	228.72
365.05	228.82
365.43	228.94
365.81	229.10
366.19	228.94
366.57	229.12
366.95	229.17
367.33	228.99
367.71	228.93
368.09	229.02
368.47	228.98
368.85	228.98
369.23	229.11
369.61	228.90
369.99	229.10
370.37	229.13
370.75	229.36
371.13	229.24
371.51	229.28
371.89	229.29
372.27	229.30
372.65	229.31
373.03	229.19
373.41	229.11
373.78	228.96
374.16	228.68
374.54	228.59
374.92	228.48
375.30	228.49
375.68	228.41
376.06	228.42
376.44	228.38
376.82	228.38
377.19	228.26
377.57	228.23
377.95	228.04
378.33	227.96
378.71	227.60
379.09	227.67
379.47	227.64
379.84	227.50
380.22	227.39
380.60	227.27
380.98	227.22
381.36	227.13
381.73	227.07
382.11	227.13
382.49	227.05
382.87	226.95
383.25	226.85
383.62	227.33
384.00	227.14
384.38	227.05
384.76	227.12
385.13	227.19
385.51	227.10
385.89	226.95
386.27	226.92
386.64	226.88
387.02	226.73
387.40	226.60
387.78	226.60
388.15	226.60
388.53	226.50
388.91	226.49
389.29	226.35
389.66	226.38
390.04	226.25
390.42	226.26
390.79	226.28
391.17	226.30
391.55	225.74
391.92	225.73
392.30	225.83
392.68	225.70
393.05	225.60
393.43	225.62
393.81	225.67
394.18	225.63
394.56	225.72
394.94	225.80
395.31	225.85
395.69	226.07
396.06	226.19
396.44	226.31
396.82	226.30
397.19	226.61
397.57	226.61
397.95	226.66
398.32	226.55
398.70	226.63
399.07	226.74
399.45	226.87
399.82	226.96
400.20	226.94
400.58	227.06
400.95	227.00
401.33	227.21
401.70	227.64
402.08	227.71
402.45	227.82
402.83	228.08
403.20	228.23
403.58	228.30
403.95	228.56
404.33	228.76
404.71	228.96
405.08	229.47
405.46	229.72
405.83	230.07
406.21	230.35
406.58	230.71
406.96	231.05
407.33	231.39
407.70	231.78
408.08	232.50
408.45	232.91
408.83	233.48
409.20	233.91
409.58	234.09
409.95	234.67
410.33	235.29
410.70	235.73
411.08	236.32
411.45	236.87
411.82	237.37
412.20	238.25
412.57	239.20
412.95	239.48
413.32	240.38
413.69	241.22
414.07	242.16
414.44	243.05
414.82	243.96
415.19	245.04
415.56	246.15
415.94	247.15
416.31	248.53
416.68	249.89
417.06	251.46
417.43	253.10
417.81	254.86
418.18	256.55
418.55	258.42
418.93	260.46
419.30	262.57
419.67	264.77
420.04	266.89
420.42	269.17
420.79	272.20
421.16	274.87
421.54	277.87
421.91	280.78
422.28	283.86
422.66	287.17
423.03	290.63
423.40	294.03
423.77	297.62
424.15	301.26
424.52	305.08
424.89	309.25
425.26	313.16
425.64	316.82
426.01	320.97
426.38	325.33
426.75	329.89
427.13	334.49
427.50	339.28
427.87	344.29
428.24	349.30
428.61	353.82
428.99	359.17
429.36	364.67
429.73	370.16
430.10	375.69
430.47	381.29
430.85	387.03
431.22	393.22
431.59	399.91
431.96	406.06
432.33	412.92
432.70	419.47
433.08	427.22
433.45	434.72
433.82	442.25
434.19	450.40
434.56	458.31
434.93	465.89
435.30	473.47
435.68	481.87
436.05	490.21
436.42	498.61
436.79	506.19
437.16	514.43
437.53	523.33
437.90	532.02
438.27	540.72
438.64	549.57
439.01	557.70
439.38	564.77
439.75	571.92
440.13	579.90
440.50	587.57
440.87	593.74
441.24	600.22
441.61	607.12
441.98	612.12
442.35	617.87
442.72	623.95
443.09	629.80
443.46	633.24
443.83	635.55
444.20	637.42
444.57	640.20
444.94	641.18
445.31	642.14
445.68	643.60
446.05	643.69
446.42	642.35
446.79	641.05
447.16	639.53
447.53	638.26
447.90	634.57
448.27	630.78
448.64	625.91
449.01	622.17
449.37	616.00
449.74	610.10
450.11	603.40
450.48	595.64
450.85	587.67
451.22	580.90
451.59	574.27
451.96	568.04
452.33	559.97
452.70	552.74
453.07	544.16
453.43	534.95
453.80	526.62
454.17	518.61
454.54	510.89
454.91	502.84
455.28	494.83
455.65	487.41
456.02	480.50
456.38	474.15
456.75	466.30
457.12	459.82
457.49	453.53
457.86	447.21
458.23	442.19
458.59	436.57
458.96	430.83
459.33	425.79
459.70	420.76
460.07	416.71
460.43	412.10
460.80	407.84
461.17	404.05
461.54	399.94
461.91	396.08
462.27	392.25
462.64	388.95
463.01	385.47
463.38	382.27
463.74	378.46
464.11	375.46
464.48	372.80
464.85	369.87
465.21	367.63
465.58	365.36
465.95	362.47
466.32	360.27
466.68	357.99
467.05	355.76
467.42	353.46
467.78	351.11
468.15	348.97
468.52	347.34
468.88	345.17
469.25	343.31
469.62	341.92
469.98	340.31
470.35	338.84
470.72	337.30
471.08	335.50
471.45	334.10
471.82	332.81
472.18	331.51
472.55	330.52
472.92	329.23
473.28	328.06
473.65	326.90
474.02	325.88
474.38	325.07
474.75	324.39
475.11	323.54
475.48	322.90
475.85	322.29
476.21	321.65
476.58	321.22
476.94	320.88
477.31	320.37
477.67	319.89
478.04	319.56
478.41	319.48
478.77	319.83
479.14	319.59
479.50	319.48
479.87	319.47
480.23	319.60
480.60	319.64
480.96	319.67
481.33	320.10
481.69	320.24
482.06	320.40
482.42	320.69
482.79	321.06
483.15	321.55
483.52	322.12
483.88	322.63
484.25	323.22
484.61	323.92
484.98	324.65
485.34	325.71
485.71	326.65
486.07	327.56
486.44	328.17
486.80	329.23
487.17	330.39
487.53	331.82
487.90	333.11
488.26	334.80
488.62	336.48
488.99	338.02
489.35	339.81
489.72	341.75
490.08	343.67
490.44	345.64
490.81	347.85
491.17	350.09
491.54	352.57
491.90	355.12
492.26	357.69
492.63	360.45
492.99	363.15
493.36	366.17
493.72	369.50
494.08	372.92
494.45	376.60
494.81	380.47
495.17	384.29
495.54	388.48
495.90	392.56
496.26	397.12
496.63	401.88
496.99	406.67
497.35	411.65
497.72	416.98
498.08	422.52
498.44	428.17
498.80	434.14
499.17	440.15
499.53	446.44
499.89	453.27
500.26	459.91
500.62	467.01
500.98	474.46
501.34	481.91
501.71	489.68
502.07	497.60
502.43	505.58
502.79	513.93
503.16	522.52
503.52	531.56
503.88	540.64
504.24	550.33
504.60	560.20
504.97	570.39
505.33	580.58
505.69	591.60
506.05	602.60
506.41	613.84
506.78	625.40
507.14	637.35
507.50	649.61
507.86	662.40
508.22	675.30
508.59	688.25
508.95	701.82
509.31	716.06
509.67	730.30
510.03	744.55
510.39	759.21
510.75	774.32
511.12	789.36
511.48	804.90
511.84	820.51
512.20	836.37
512.56	852.61
512.92	869.49
513.28	886.36
513.64	903.38
514.00	920.83
514.37	938.75
514.73	956.73
515.09	974.92
515.45	993.06
515.81	1011.39
516.17	1030.20
516.53	1048.66
516.89	1067.17
517.25	1086.39
517.61	1106.43
517.97	1126.73
518.33	1146.57
518.69	1166.92
519.05	1187.62
519.41	1208.07
519.77	1229.19
520.13	1249.72
520.49	1270.35
520.85	1292.38
521.21	1313.54
521.57	1334.67
521.93	1355.20
522.29	1376.33
522.65	1396.54
523.01	1417.53
523.37	1438.07
523.73	1458.82
524.09	1479.70
524.45	1500.30
524.81	1520.96
525.17	1541.66
525.53	1562.29
525.89	1583.14
526.25	1603.91
526.61	1624.15
526.97	1645.13
527.33	1666.10
527.68	1687.59
528.04	1708.70
528.40	1728.26
528.76	1749.04
529.12	1769.23
529.48	1789.74
529.84	1809.72
530.20	1830.83
530.56	1851.45
530.91	1872.35
531.27	1892.56
531.63	1912.78
531.99	1933.05
532.35	1953.19
532.71	1973.21
533.07	1993.42
533.42	2013.08
533.78	2032.81
534.14	2052.25
534.50	2071.06
534.86	2090.03
535.21	2107.60
535.57	2125.98
535.93	2143.83
536.29	2161.50
536.65	2179.77
537.00	2197.19
537.36	2214.66
537.72	2231.12
538.08	2248.24
538.44	2264.68
538.79	2281.27
539.15	2297.69
539.51	2313.69
539.87	2328.60
540.22	2342.53
540.58	2356.92
540.94	2369.97
541.29	2382.65
541.65	2395.23
542.01	2407.79
542.37	2418.35
542.72	2429.44
543.08	2439.92
543.44	2451.28
543.79	2461.47
544.15	2471.07
544.51	2480.87
544.87	2490.17
545.22	2498.61
545.58	2506.18
545.94	2513.29
546.29	2519.68
546.65	2525.41
547.01	2530.73
547.36	2535.99
547.72	2541.63
548.07	2544.97
548.43	2550.15
548.79	2554.58
549.14	2558.63
549.50	2561.98
549.86	2565.96
550.21	2569.73
550.57	2572.84
550.92	2574.34
551.28	2575.18
551.64	2577.24
551.99	2579.42
552.35	2580.77
552.70	2582.78
553.06	2584.28
553.41	2585.26
553.77	2586.87
554.13	2588.71
554.48	2590.64
554.84	2592.17
555.19	2593.02
555.55	2594.69
555.90	2594.17
556.26	2592.95
556.61	2591.26
556.97	2589.39
557.32	2588.60
557.68	2587.32
558.03	2585.89
558.39	2584.20
558.74	2583.46
559.10	2580.17
559.45	2576.24
559.81	2572.07
560.16	2566.98
560.52	2562.02
560.87	2557.69
561.23	2552.07
561.58	2545.90
561.94	2538.63
562.29	2531.12
562.64	2524.15
563.00	2515.79
563.35	2509.10
563.71	2502.52
564.06	2495.95
564.42	2489.35
564.77	2482.29
565.12	2474.59
565.48	2466.79
565.83	2458.86
566.19	2450.87
566.54	2443.32
566.89	2435.50
567.25	2427.44
567.60	2420.20
567.96	2412.60
568.31	2404.48
568.66	2396.19
569.02	2387.46
569.37	2379.09
569.72	2371.64
570.08	2362.40
570.43	2353.04
570.78	2344.01
571.14	2334.75
571.49	2324.80
571.84	2314.89
572.20	2303.97
572.55	2293.95
572.90	2282.82
573.26	2272.04
573.61	2260.87
573.96	2249.45
574.31	2237.66
574.67	2226.33
575.02	2213.53
575.37	2201.02
575.72	2188.00
576.08	2175.57
576.43	2163.26
576.78	2150.35
577.13	2136.74
577.49	2123.85
577.84	2112.27
578.19	2100.06
578.54	2087.57
578.90	2075.68
579.25	2063.71
579.60	2051.45
579.95	2038.60
580.30	2025.82
580.66	2013.00
581.01	1999.48
581.36	1985.96
581.71	1973.36
582.06	1960.00
582.42	1947.56
582.77	1934.90
583.12	1923.13
583.47	1911.02
583.82	1898.94
584.17	1886.87
584.53	1875.24
584.88	1862.38
585.23	1849.27
585.58	1835.28
585.93	1822.19
586.28	1809.14
586.63	1795.35
586.98	1781.22
587.34	1768.16
587.69	1755.16
588.04	1742.57
588.39	1730.74
588.74	1718.48
589.09	1706.21
589.44	1694.02
589.79	1682.38
590.14	1670.48
590.49	1658.39
590.84	1646.28
591.19	1634.28
591.54	1622.36
591.89	1610.13
592.25	1600.01
592.60	1588.76
592.95	1577.55
593.30	1565.52
593.65	1553.52
594.00	1541.57
594.35	1531.90
594.70	1519.89
595.05	1508.58
595.40	1496.57
595.75	1484.77
596.10	1473.63
596.45	1462.45
596.80	1451.56
597.15	1439.96
597.50	1428.38
597.85	1417.13
598.19	1405.72
598.54	1394.05
598.89	1382.96
599.24	1372.50
599.59	1361.26
599.94	1350.35
600.29	1339.95
600.64	1329.92
600.99	1319.25
601.34	1309.89
601.69	1298.88
602.04	1289.30
602.39	1279.50
602.74	1270.50
603.08	1261.24
603.43	1251.97
603.78	1242.43
604.13	1233.21
604.48	1223.65
604.83	1213.87
605.18	1204.08
605.53	1194.65
605.87	1185.79
606.22	1177.20
606.57	1167.99
606.92	1158.61
607.27	1149.88
607.62	1141.22
607.96	1132.77
608.31	1125.04
608.66	1116.54
609.01	1107.71
609.36	1099.37
609.70	1091.01
610.05	1082.50
610.40	1074.03
610.75	1065.45
611.10	1056.87
611.44	1048.02
611.79	1040.03
612.14	1032.33
612.49	1024.62
612.83	1017.02
613.18	1009.25
613.53	1001.65
613.88	993.65
614.22	985.98
614.57	978.18
614.92	970.37
615.27	962.68
615.61	955.05
615.96	947.61
616.31	940.37
616.65	933.33
617.00	926.17
617.35	918.87
617.70	911.75
618.04	904.75
618.39	898.04
618.74	891.66
619.08	884.75
619.43	877.87
619.78	870.83
620.12	863.92
620.47	857.23
620.82	849.96
621.16	843.18
621.51	836.92
621.85	830.47
622.20	823.97
622.55	817.51
622.89	811.22
623.24	804.93
623.59	798.78
623.93	792.32
624.28	786.08
624.62	780.49
624.97	774.72
625.32	768.77
625.66	762.66
626.01	756.65
626.35	751.14
626.70	745.65
627.04	740.60
627.39	735.07
627.73	729.73
628.08	724.67
628.43	719.32
628.77	713.85
629.12	708.58
629.46	703.71
629.81	698.92
630.15	694.04
630.50	689.21
630.84	684.37
631.19	679.67
631.53	675.16
631.88	669.93
632.22	665.11
632.57	660.71
632.91	656.32
633.26	651.97
633.60	647.42
633.95	642.82
634.29	637.97
634.64	633.66
634.98	628.99
635.32	624.66
635.67	620.77
636.01	616.62
636.36	612.41
636.70	608.45
637.05	604.40
637.39	600.34
637.73	596.25
638.08	592.37
638.42	588.22
638.77	584.03
639.11	579.88
639.45	575.50
639.80	571.26
640.14	567.28
640.49	563.33
640.83	559.45
641.17	555.86
641.52	552.18
641.86	548.53
642.20	545.37
642.55	541.76
642.89	538.29
643.23	534.89
643.58	531.89
643.92	528.21
644.26	524.80
644.61	521.56
644.95	518.23
645.29	514.75
645.64	511.76
645.98	508.67
646.32	505.92
646.66	503.00
647.01	500.16
647.35	497.30
647.69	494.42
648.04	491.72
648.38	488.92
648.72	486.11
649.06	483.11
649.41	479.85
649.75	476.82
650.09	474.02
650.43	471.19
650.78	468.15
651.12	465.38
651.46	462.61
651.80	459.88
652.14	457.23
652.49	454.80
652.83	452.21
653.17	449.70
653.51	446.87
653.85	444.58
654.20	442.05
654.54	439.48
654.88	436.90
655.22	434.61
655.56	432.15
655.90	429.80
656.25	427.53
656.59	425.44
656.93	423.38
657.27	421.20
657.61	418.76
657.95	416.66
658.29	414.55
658.64	412.41
658.98	410.07
659.32	407.74
659.66	405.49
660.00	403.35
660.34	401.29
660.68	399.25
661.02	397.17
661.36	395.20
661.70	393.27
662.05	391.47
662.39	389.57
662.73	387.82
663.07	386.25
663.41	384.47
663.75	382.60
664.09	380.71
664.43	378.74
664.77	377.18
665.11	375.36
665.45	373.62
665.79	372.08
666.13	370.49
666.47	368.86
666.81	367.29
667.15	365.60
667.49	363.96
667.83	362.70
668.17	361.24
668.51	359.76
668.85	358.47
669.19	357.24
669.53	355.76
669.87	354.21
670.21	352.53
670.55	351.11
670.89	349.84
671.23	348.51
671.57	347.07
671.91	345.67
672.25	344.34
672.58	343.15
672.92	341.64
673.26	340.36
673.60	339.25
673.94	338.01
674.28	336.93
674.62	335.95
674.96	334.54
675.30	333.25
675.64	332.09
675.97	330.81
676.31	329.42
676.65	328.01
676.99	327.00
677.33	325.86
677.67	324.84
678.01	323.60
678.34	322.59
678.68	321.77
679.02	320.71
679.36	319.75
679.70	318.74
680.04	317.90
680.37	316.93
680.71	315.92
681.05	315.09
681.39	314.15
681.73	313.13
682.06	312.28
682.40	311.35
682.74	310.59
683.08	309.88
683.42	309.00
683.75	308.39
684.09	307.43
684.43	306.69
684.77	305.78
685.10	305.05
685.44	304.16
685.78	303.33
686.12	302.60
686.45	301.76
686.79	300.91
687.13	300.22
687.46	299.54
687.80	298.90
688.14	297.98
688.48	297.29
688.81	296.49
689.15	295.91
689.49	295.22
689.82	294.41
690.16	293.49
690.50	292.91
690.83	292.20
691.17	291.44
691.51	290.78
691.84	290.18
692.18	289.47
692.52	288.95
692.85	288.30
693.19	287.85
693.52	287.25
693.86	286.56
694.20	285.83
694.53	285.21
694.87	284.51
695.21	283.98
695.54	283.27
695.88	282.65
696.21	281.81
696.55	281.34
696.88	280.76
697.22	280.17
697.56	279.62
697.89	278.94
698.23	278.48
698.56	277.90
698.90	277.42
699.23	276.88
699.57	276.25
699.90	275.66
700.24	275.02
700.58	274.50
700.91	274.15
701.25	274.10
701.58	273.88
701.92	273.51
702.25	273.10
702.59	272.65
702.92	272.24
703.26	271.95
703.59	271.47
703.93	271.45
704.26	271.06
704.60	270.60
704.93	270.16
705.26	269.70
705.60	269.34
705.93	268.85
706.27	268.52
706.60	268.27
706.94	268.18
707.27	267.79
707.61	267.49
707.94	267.11
708.27	266.31
708.61	265.61
708.94	265.23
709.28	264.80
709.61	264.41
709.94	264.09
710.28	263.72
710.61	263.37
710.95	262.65
711.28	262.66
711.61	262.26
711.95	262.14
712.28	261.74
712.61	261.35
712.95	261.27
713.28	261.19
713.61	260.75
713.95	260.09
714.28	259.74
714.61	259.38
714.95	258.99
715.28	258.66
715.61	258.32
715.95	257.95
716.28	257.63
716.61	257.50
716.95	257.10
717.28	256.78
717.61	256.45
717.94	256.12
718.28	255.50
718.61	255.22
718.94	254.77
719.27	254.57
719.61	254.35
719.94	253.96
720.27	253.45
720.60	253.17
720.94	253.10
721.27	252.89
721.60	252.73
721.93	252.46
722.27	252.39
722.60	252.29
722.93	251.99
723.26	251.81
723.59	251.39
723.93	251.21
724.26	251.05
724.59	250.79
724.92	250.58
725.25	250.45
725.59	250.18
725.92	250.05
726.25	249.81
726.58	249.60
726.91	249.36
727.24	249.20
727.57	249.00
727.91	248.67
728.24	248.50
728.57	248.26
728.90	248.19
729.23	247.87
729.56	247.86
729.89	247.74
730.22	247.51
730.55	247.50
730.89	247.38
731.22	247.12
731.55	246.94
731.88	246.80
732.21	246.63
732.54	246.48
732.87	246.29
733.20	246.13
733.53	245.99
733.86	245.86
734.19	245.66
734.52	245.59
734.85	245.80
735.18	245.55
735.51	245.56
735.84	245.42
736.17	245.30
736.50	244.91
736.83	245.31
737.16	245.14
737.49	244.93
737.82	244.75
738.15	244.65
738.48	244.51
738.81	244.38
739.14	244.09
739.47	243.99
739.80	243.83
740.13	243.82
740.46	243.60
740.79	243.44
741.12	243.27
741.45	243.08
741.78	242.63
742.11	242.63
742.44	242.27
742.77	242.15
743.10	241.98
743.43	241.77
743.75	241.09
744.08	241.65
744.41	241.40
744.74	241.15
745.07	240.94
745.40	240.92
745.73	241.04
746.06	241.01
746.39	240.85
746.71	240.65
747.04	240.39
747.37	240.27
747.70	240.27
748.03	240.16
748.36	240.13
748.68	240.04
749.01	239.81
749.34	239.76
749.67	239.70
750.00	239.65
750.33	239.96
750.65	239.93
750.98	239.18
751.31	239.13
751.64	239.08
751.97	239.20
752.29	239.07
752.62	238.62
752.95	238.42
753.28	238.31
753.60	238.25
753.93	238.25
754.26	238.19
754.59	237.88
754.91	237.80
755.24	237.60
755.57	237.48
755.90	237.34
756.22	237.23
756.55	237.05
756.88	236.84
757.20	236.44
757.53	236.22
757.86	236.18
758.19	236.11
758.51	236.06
758.84	235.75
759.17	235.56
759.49	235.52
759.82	235.69
760.15	235.69
760.47	235.58
760.80	235.45
761.13	235.47
761.45	235.38
761.78	235.36
762.11	235.35
762.43	235.13
762.76	235.05
763.08	235.03
763.41	234.97
763.74	234.94
764.06	234.84
764.39	234.74
764.71	234.62
765.04	234.54
765.37	234.36
765.69	234.32
766.02	234.26
766.34	234.20
766.67	233.91
767.00	233.90
767.32	234.10
767.65	234.32
767.97	234.16
768.30	234.16
768.62	234.04
768.95	233.96
769.27	234.01
769.60	234.07
769.92	233.84
770.25	233.67
770.57	233.52
770.90	233.48
771.22	233.40
771.55	233.33
771.87	233.26
772.20	233.31
772.52	233.60
772.85	234.15
773.17	234.10
773.50	234.03
773.82	233.86
774.15	233.52
774.47	233.05
774.80	232.95
775.12	232.79
775.45	232.65
775.77	232.59
776.09	232.54
776.42	232.40
776.74	232.57
777.07	232.53
777.39	232.48
777.72	232.33
778.04	232.35
778.36	232.25
778.69	232.26
779.01	232.20
779.33	231.76
779.66	231.16
779.98	231.01
780.31	230.99
780.63	231.13
780.95	231.21
781.28	231.19
781.60	231.10
781.92	231.07
782.25	231.05
782.57	230.96
782.89	230.86
783.22	230.76
783.54	230.55
783.86	230.53
784.19	230.46
784.51	230.53
784.83	230.40
785.16	230.30
785.48	230.18
785.80	230.12
786.12	230.15
786.45	230.07
786.77	230.05
787.09	230.02
787.42	229.83
787.74	229.78
788.06	229.79
788.38	229.70
788.71	229.64
789.03	229.60
789.35	229.63
789.67	229.43
789.99	229.52
790.32	229.45
790.64	229.43
790.96	229.78
791.28	229.64
791.61	229.58
791.93	229.64
792.25	229.62
792.57	229.94
792.89	229.81
793.21	229.83
793.54	229.77
793.86	229.61
794.18	229.61
794.50	229.50
794.82	229.46
795.14	229.52
795.47	229.64
795.79	229.62
796.11	229.49
796.43	229.63
796.75	229.52
797.07	229.50
797.39	229.51
797.71	229.23
798.04	229.26
798.36	229.31
798.68	229.28
799.00	229.36
799.32	229.09
799.64	229.15
799.96	229.11
800.28	229.22
800.60	229.20
800.92	229.23
801.24	229.16
801.56	229.25
801.89	229.25
802.21	229.21
802.53	229.15
802.85	229.23
803.17	229.44
803.49	229.29
803.81	229.22
804.13	229.16
804.45	229.04
804.77	229.05
805.09	229.04
805.41	228.99
805.73	228.82
806.05	228.77
806.37	228.73
806.69	228.72
807.01	228.63
807.33	228.78
807.65	228.60
807.97	228.82
808.28	228.74
808.60	228.69
808.92	228.63
809.24	228.90
809.56	228.85
809.88	228.66
810.20	228.72
810.52	228.87
810.84	228.79
811.16	228.73
811.48	228.63
811.80	228.75
812.12	228.66
812.43	228.78
812.75	228.70
813.07	228.65
813.39	228.69
813.71	228.69
814.03	228.52
814.35	228.53
814.67	228.35
814.98	228.33
815.30	228.32
815.62	228.23
815.94	227.91
816.26	228.06
816.58	228.00
816.89	227.96
817.21	227.87
817.53	227.86
817.85	227.96
818.17	227.98
818.48	227.72
818.80	227.85
819.12	227.68
819.44	227.64
819.76	227.56
820.07	227.54
820.39	227.55
820.71	227.59
821.03	227.58
821.34	227.53
821.66	227.58
821.98	227.62
822.30	227.60
822.61	227.87
822.93	227.63
823.25	227.52
823.57	227.53
823.88	227.58
824.20	227.61
824.52	227.63
824.83	227.67
825.15	227.67
825.47	227.55
825.79	227.69
826.10	227.73
826.42	227.71
826.74	227.72
827.05	227.71
827.37	227.72
827.69	227.65
828.00	227.67
828.32	227.61
828.64	227.53
828.95	227.83
829.27	227.64
829.58	227.64
829.90	227.70
830.22	227.73
830.53	227.56
830.85	227.46
831.17	227.32
831.48	227.25
831.80	227.30
832.11	227.27
832.43	227.14
832.75	227.08
833.06	227.35
833.38	227.20
833.69	227.08
834.01	227.10
834.32	227.15
834.64	227.05
834.96	227.05
835.27	227.07
835.59	226.84
835.90	226.83
836.22	226.81
836.53	226.75
836.85	226.67
837.16	227.17
837.48	227.22
837.79	227.33
838.11	227.41
838.42	227.44
838.74	227.54
839.05	227.49
839.37	227.46
839.68	227.21
840.00	227.20
840.31	227.28
840.63	227.15
840.94	227.06
841.26	227.10
841.57	227.09
841.88	227.07
842.20	227.03
842.51	226.95
842.83	226.94
843.14	227.37
843.46	227.45
843.77	227.09
844.08	227.08
844.40	226.94
844.71	226.88
845.03	226.77
845.34	226.66
845.65	226.67
845.97	226.61
846.28	226.66
846.60	226.71
846.91	226.63
847.22	226.66
847.54	226.74
847.85	226.70
848.16	226.64
848.48	226.57
848.79	226.77
849.10	226.82
849.42	226.87
849.73	226.45
850.04	226.36
850.36	226.27
850.67	226.35
850.98	226.34
851.30	226.33
851.61	226.35
851.92	226.36
852.23	226.50
852.55	226.56
852.86	226.50
853.17	226.51
853.49	226.61
853.80	226.68
854.11	226.75
854.42	226.85
854.74	226.76
855.05	226.74
855.36	226.49
855.67	226.53
855.99	226.41
856.30	226.98
856.61	227.02
856.92	227.07
857.23	226.97
857.55	226.97
857.86	226.92
858.17	227.02
858.48	226.96
858.79	226.93
859.11	227.02
859.42	226.98
859.73	226.95
860.04	226.90
860.35	226.75
860.66	226.68
860.98	226.61
861.29	226.73
861.60	226.69
861.91	226.82
862.22	226.75
862.53	226.84
862.84	226.28
863.16	226.40
863.47	226.29
863.78	226.36
864.09	226.37
864.40	226.43
864.71	226.43
865.02	226.52
865.33	226.45
865.64	226.36
865.95	226.42
866.27	226.71
866.58	226.69
866.89	226.74
867.20	226.71
867.51	226.68
867.82	226.64
868.13	226.83
868.44	226.69
868.75	226.74
869.06	226.76
869.37	226.83
869.68	226.70
869.99	226.74
870.30	226.74
870.61	226.81
870.92	226.75
871.23	226.67
871.54	226.74
871.85	226.76
872.16	226.80
872.47	226.75
872.78	226.53
873.09	226.56
873.40	226.55
873.71	226.53
874.02	226.57
874.33	226.53
874.64	226.43
874.95	226.60
875.26	226.50
875.56	226.47
875.87	226.40
876.18	226.43
876.49	226.99
876.80	226.89
877.11	226.84
877.42	226.85
877.73	226.91
878.04	226.85
878.35	226.90
878.66	226.98
878.96	227.01
879.27	226.93
879.58	226.96
879.89	227.01
880.20	227.19
880.51	227.18
880.82	227.23
881.12	227.26
881.43	227.13
881.74	227.09
882.05	227.02
882.36	227.12
882.67	227.10
882.97	226.55
883.28	226.52
883.59	226.45
883.90	226.49
884.21	226.50
884.51	226.40
884.82	226.32
885.13	226.24
885.44	226.19
885.74	226.25
886.05	226.21
886.36	226.21
886.67	226.00
886.98	226.18
887.28	226.17
887.59	226.18
887.90	226.19
888.20	226.25
888.51	226.34
888.82	226.19
889.13	226.21
889.43	226.62
889.74	226.64
890.05	226.68
890.35	226.64
890.66	226.65
890.97	226.65
891.28	226.59
891.58	226.63
891.89	226.59
892.20	226.49
892.50	226.44
892.81	226.40
893.12	226.40
893.42	226.16
893.73	226.21
894.04	226.21
894.34	226.23
894.65	226.13
894.95	226.11
895.26	226.11
895.57	226.30
895.87	225.85
896.18	225.84
896.48	225.86
896.79	225.86
897.10	225.86
897.40	225.90
897.71	226.00
898.01	226.00
898.32	226.10
898.63	226.06
898.93	226.15
899.24	226.13
899.54	226.13
899.85	226.18
900.15	226.15
900.46	226.15
900.76	226.15
901.07	226.21
901.38	226.16
901.68	226.29
901.99	226.03
902.29	226.06
902.60	226.11
902.90	226.10
903.21	226.08
903.51	226.03
903.82	226.12
904.12	226.12
904.43	226.14
904.73	226.10
905.03	226.17
905.34	226.61
905.64	226.64
905.95	226.64
906.25	226.60
906.56	226.61
906.86	226.60
907.17	226.61
907.47	226.61
907.77	226.64
908.08	226.49
908.38	226.61
908.69	226.71
908.99	226.79
909.30	226.79
909.60	226.83
909.90	226.89
910.21	226.79
910.51	226.70
910.81	226.68
911.12	226.81
911.42	226.86
911.73	226.34
912.03	226.31
912.33	226.46
912.64	226.51
912.94	226.46
913.24	226.35
913.55	226.28
913.85	226.23
914.15	226.26
914.46	226.37
914.76	226.29
915.06	226.25
915.37	226.15
915.67	226.14
915.97	226.07
916.27	225.96
916.58	226.03
916.88	226.06
917.18	225.97
917.49	226.18
917.79	226.10
918.09	226.16
918.39	226.36
918.70	226.25
919.00	226.25
919.30	226.41
919.60	226.42
919.91	226.39
920.21	226.48
920.51	226.42
920.81	226.36
921.12	226.42
921.42	226.38
921.72	226.43
922.02	226.41
922.32	226.52
922.63	226.53
922.93	226.72
923.23	226.70
923.53	226.67
923.83	226.38
924.13	226.44
924.44	226.42
924.74	226.45
925.04	226.57
925.34	226.55
925.64	226.41
925.94	226.43
926.24	226.67
926.55	226.60
926.85	226.61
927.15	226.59
927.45	226.60
927.75	226.56
928.05	226.62
928.35	226.63
928.65	226.70
928.95	226.77
929.26	226.56
929.56	226.66
929.86	226.72
930.16	226.71
930.46	226.62
930.76	226.67
931.06	226.44
931.36	226.31
931.66	226.37
931.96	226.42
932.26	226.40
932.56	226.25
932.86	226.29
933.16	226.29
933.46	226.23
933.76	226.16
934.06	226.34
934.36	226.45
934.66	226.42
934.96	226.30
935.26	226.34
935.56	226.45
935.86	226.30
936.16	226.23
936.46	226.20
936.76	226.21
937.06	226.12
937.36	226.14
937.66	226.13
937.96	226.13
938.26	225.98
938.56	226.03
938.86	226.00
939.16	226.11
939.46	226.18
939.76	226.30
940.06	226.33
940.35	226.20
940.65	225.93
940.95	226.05
941.25	225.95
941.55	225.87
941.85	225.79
942.15	225.95
942.45	226.16
942.75	226.14
943.04	226.23
943.34	226.35
943.64	226.35
943.94	226.34
944.24	226.35
944.54	226.38
944.84	226.47
945.13	226.41
945.43	226.29
945.73	226.32
946.03	226.24
946.33	226.22
946.62	226.17
946.92	226.20
947.22	226.13
947.52	226.22
947.82	226.29
948.11	226.24
948.41	226.15
948.71	225.98
949.01	226.02
949.31	225.97
949.60	225.89
949.90	225.99
950.20	225.99
950.50	225.98
950.79	226.00
951.09	225.98
951.39	226.04
951.69	226.02
951.98	226.08
952.28	226.07
952.58	226.08
952.87	226.15
953.17	226.19
953.47	226.16
953.76	226.17
954.06	226.10
954.36	226.05
954.66	226.11
954.95	226.21
955.25	226.28
955.55	226.27
955.84	226.25
956.14	226.27
956.44	226.29
956.73	226.17
957.03	226.23
957.32	226.23
957.62	226.21
957.92	226.25
958.21	226.13
958.51	226.69
958.81	226.74
959.10	226.79
959.40	226.90
959.69	226.91
959.99	226.99
960.29	226.96
960.58	226.90
960.88	226.99
961.17	226.96
961.47	226.96
961.76	226.94
962.06	227.01
962.36	226.90
962.65	226.89
962.95	226.94
963.24	226.84
963.54	226.85
963.83	226.85
964.13	226.91
964.42	226.77
964.72	226.39
965.01	226.35
965.31	226.31
965.60	226.18
965.90	226.53
966.19	226.38
966.49	226.46
966.78	226.47
967.08	226.35
967.37	226.29
967.67	226.15
967.96	226.23
968.26	226.20
968.55	226.34
968.85	226.29
969.14	226.31
969.43	226.36
969.73	226.33
970.02	226.27
970.32	226.17
970.61	226.18
970.91	226.06
971.20	226.05
971.49	225.94
971.79	225.93
972.08	225.59
972.38	225.66
972.67	225.55
972.96	225.69
973.26	225.61
973.55	225.74
973.85	225.75
974.14	225.66
974.43	225.62
974.73	225.49
975.02	225.60
975.31	225.60
975.61	225.47
975.90	225.47
976.19	225.43
976.49	225.46
976.78	225.62
977.07	225.56
977.37	225.54
977.66	225.59
977.95	225.57
978.24	225.60
978.54	225.68
978.83	225.59
979.12	225.54
979.42	225.60
979.71	225.55
980.00	225.51
980.29	225.52
980.59	225.48
980.88	225.57
981.17	225.46
981.46	225.47
981.76	225.56
982.05	225.64
982.34	225.69
982.63	225.76
982.93	225.62
983.22	225.83
983.51	225.84
983.80	225.89
984.09	225.99
984.39	225.90
984.68	225.85
984.97	226.02
985.26	226.00
985.55	225.98
985.85	225.89
986.14	225.96
986.43	226.10
986.72	226.09
987.01	225.89
987.30	225.89
987.59	225.86
987.89	225.85
988.18	225.63
988.47	225.59
988.76	225.50
989.05	225.53
989.34	225.40
989.63	225.50
989.92	225.44
990.22	225.30
990.51	225.31
990.80	225.28
991.09	225.26
991.38	225.27
991.67	225.30
991.96	225.27
992.25	225.33
992.54	225.23
992.83	225.20
993.12	225.25
993.41	225.26
993.70	225.36
993.99	225.48
994.28	225.57
994.58	225.65
994.87	225.60
995.16	225.57
995.45	225.55
995.74	225.43
996.03	225.51
996.32	225.62
996.61	225.65
996.90	225.60
997.19	225.53
997.48	225.49
997.77	225.42
998.06	225.45
998.34	225.43
998.63	225.40
998.92	225.41
999.21	225.52
999.50	225.62
999.79	225.53
1000.08	225.53
1000.37	225.60
1000.66	225.54
1000.95	225.71
1001.24	225.73
1001.53	225.82
1001.82	225.75
1002.11	225.64
1002.40	225.62
1002.68	225.84
1002.97	226.18
1003.26	226.15
1003.55	226.08
1003.84	226.07
1004.13	226.20
1004.42	226.19
1004.71	226.17
1004.99	226.19
1005.28	226.26
1005.57	226.19
1005.86	226.14
1006.15	226.05
1006.44	225.93
1006.72	226.01
1007.01	225.92
1007.30	225.90
1007.59	225.79
1007.88	225.83
1008.17	225.85
1008.45	225.76
1008.74	225.51
1009.03	225.32
1009.32	225.40
1009.60	225.46
1009.89	225.45
1010.18	225.32
1010.47	225.26
1010.76	225.34
1011.04	225.30
1011.33	225.31
1011.62	225.35
1011.91	225.36
1012.19	225.40
1012.48	225.47
1012.77	225.42
1013.05	225.65
1013.34	225.70
1013.63	225.71
1013.92	225.77
1014.20	225.76
1014.49	225.87
1014.78	225.95
1015.06	225.82
1015.35	225.85
1015.64	225.92
1015.92	226.01
1016.21	226.04
1016.50	226.03
1016.78	226.04
1017.07	226.17
1017.36	226.00
1017.64	225.94
1017.93	226.06
1018.22	226.06
1018.50	226.05
1018.79	226.13
1019.08	225.84
1019.36	225.88
1019.65	225.83
1019.93	225.90
1020.22	226.02
1020.51	226.28
1020.79	226.21
1021.08	225.55
1021.36	225.50
1021.65	227.25
1021.94	224.65
1022.22	226.10
1022.51	224.35
1022.79	227.85
1023.08	227.45
1023.36	232.05
1023.65	224.45
>>>>>End Processed Spectral Data<<<<<
