SpectraSuite Data File
++++++++++++++++++++++++++++++++++++
Date: Wed Sep 04 17:58:33 EDT 2013
User: lab3
Dark Spectrum Present: Yes
Reference Spectrum Present: No
Number of Sampled Component Spectra: 1
Spectrometers: USB2E7196
Integration Time (usec): 170000 (USB2E7196)
Spectra Averaged: 20 (USB2E7196)
Boxcar Smoothing: 10 (USB2E7196)
Correct for Electrical Dark: No (USB2E7196)
Strobe/Lamp Enabled: No (USB2E7196)
Correct for Detector Non-linearity: No (USB2E7196)
Correct for Stray Light: No (USB2E7196)
Number of Pixels in Processed Spectrum: 2048
>>>>>Begin Processed Spectral Data<<<<<
339.09	0.00
339.48	212.55
339.86	214.00
340.24	215.45
340.63	217.85
341.01	225.95
341.39	219.75
341.78	222.75
342.16	223.75
342.54	223.15
342.93	212.32
343.31	223.01
343.69	223.60
344.07	224.09
344.46	224.58
344.84	224.96
345.22	224.90
345.60	225.20
345.99	225.41
346.37	225.49
346.75	225.73
347.13	225.82
347.52	225.92
347.90	226.04
348.28	226.12
348.66	226.32
349.05	226.23
349.43	226.39
349.81	226.47
350.19	226.55
350.57	226.58
350.96	226.73
351.34	226.85
351.72	226.94
352.10	227.06
352.48	227.12
352.87	227.19
353.25	227.30
353.63	227.37
354.01	227.35
354.39	227.48
354.77	227.37
355.15	227.53
355.54	227.52
355.92	227.48
356.30	227.56
356.68	227.88
357.06	227.97
357.44	227.95
357.82	228.01
358.20	228.45
358.58	228.51
358.97	228.57
359.35	228.71
359.73	228.92
360.11	228.95
360.49	228.95
360.87	229.01
361.25	229.12
361.63	229.33
362.01	229.45
362.39	229.44
362.77	229.56
363.15	229.54
363.53	229.55
363.91	229.56
364.29	229.54
364.67	229.09
365.05	229.10
365.43	229.16
365.81	229.20
366.19	229.06
366.57	229.26
366.95	229.25
367.33	229.20
367.71	229.11
368.09	229.19
368.47	229.27
368.85	229.24
369.23	229.35
369.61	229.10
369.99	229.25
370.37	229.30
370.75	229.55
371.13	229.48
371.51	229.41
371.89	229.46
372.27	229.51
372.65	229.57
373.03	229.57
373.41	229.52
373.78	229.52
374.16	229.29
374.54	229.15
374.92	229.07
375.30	229.00
375.68	228.86
376.06	228.80
376.44	228.71
376.82	228.66
377.19	228.49
377.57	228.49
377.95	228.27
378.33	228.20
378.71	227.84
379.09	227.80
379.47	227.79
379.84	227.64
380.22	227.48
380.60	227.28
380.98	227.16
381.36	227.10
381.73	226.88
382.11	226.86
382.49	226.74
382.87	226.64
383.25	226.53
383.62	227.05
384.00	226.95
384.38	226.84
384.76	226.88
385.13	226.98
385.51	226.83
385.89	226.64
386.27	226.64
386.64	226.64
387.02	226.55
387.40	226.57
387.78	226.55
388.15	226.53
388.53	226.53
388.91	226.49
389.29	226.31
389.66	226.35
390.04	226.20
390.42	226.23
390.79	226.23
391.17	226.17
391.55	225.65
391.92	225.59
392.30	225.73
392.68	225.60
393.05	225.63
393.43	225.77
393.81	225.90
394.18	225.69
394.56	225.69
394.94	225.80
395.31	225.65
395.69	225.83
396.06	225.92
396.44	225.95
396.82	225.97
397.19	226.33
397.57	226.37
397.95	226.57
398.32	226.51
398.70	226.59
399.07	226.90
399.45	226.86
399.82	226.99
400.20	226.93
400.58	227.11
400.95	227.06
401.33	227.20
401.70	227.59
402.08	227.89
402.45	228.05
402.83	228.34
403.20	228.60
403.58	228.69
403.95	228.91
404.33	229.20
404.71	229.41
405.08	229.84
405.46	230.06
405.83	230.33
406.21	230.65
406.58	230.93
406.96	231.15
407.33	231.54
407.70	231.95
408.08	232.81
408.45	233.20
408.83	233.63
409.20	234.00
409.58	234.16
409.95	234.69
410.33	235.20
410.70	235.59
411.08	236.16
411.45	236.85
411.82	237.41
412.20	238.24
412.57	239.28
412.95	239.67
413.32	240.52
413.69	241.33
414.07	242.25
414.44	243.28
414.82	244.25
415.19	245.46
415.56	246.69
415.94	247.59
416.31	249.06
416.68	250.54
417.06	252.16
417.43	253.81
417.81	255.51
418.18	257.44
418.55	259.38
418.93	261.40
419.30	263.42
419.67	265.74
420.04	267.97
420.42	270.28
420.79	273.36
421.16	276.24
421.54	279.36
421.91	282.42
422.28	285.55
422.66	288.95
423.03	292.45
423.40	295.71
423.77	299.31
424.15	302.95
424.52	306.70
424.89	310.97
425.26	314.96
425.64	318.86
426.01	322.91
426.38	327.24
426.75	331.87
427.13	336.54
427.50	341.20
427.87	346.13
428.24	350.99
428.61	355.53
428.99	360.84
429.36	366.25
429.73	371.76
430.10	377.35
430.47	383.04
430.85	388.71
431.22	395.02
431.59	401.89
431.96	408.09
432.33	415.06
432.70	421.75
433.08	429.71
433.45	437.16
433.82	444.80
434.19	453.19
434.56	461.28
434.93	469.04
435.30	476.99
435.68	485.75
436.05	494.26
436.42	502.75
436.79	510.49
437.16	518.91
437.53	527.87
437.90	536.66
438.27	545.22
438.64	554.17
439.01	562.38
439.38	569.58
439.75	576.85
440.13	584.99
440.50	592.56
440.87	598.64
441.24	605.11
441.61	612.05
441.98	617.06
442.35	622.96
442.72	628.94
443.09	634.71
443.46	637.97
443.83	640.37
444.20	642.14
444.57	644.76
444.94	645.84
445.31	646.80
445.68	647.90
446.05	648.02
446.42	646.65
446.79	645.25
447.16	643.54
447.53	642.11
447.90	638.41
448.27	634.69
448.64	629.75
449.01	625.82
449.37	619.50
449.74	613.45
450.11	606.50
450.48	598.61
450.85	590.57
451.22	583.75
451.59	577.07
451.96	570.85
452.33	562.70
452.70	555.34
453.07	546.61
453.43	537.53
453.80	529.13
454.17	521.04
454.54	513.40
454.91	505.27
455.28	497.26
455.65	489.66
456.02	482.71
456.38	476.31
456.75	468.59
457.12	462.12
457.49	455.77
457.86	449.38
458.23	444.26
458.59	438.50
458.96	432.65
459.33	427.48
459.70	422.21
460.07	418.11
460.43	413.30
460.80	409.04
461.17	405.32
461.54	401.28
461.91	397.49
462.27	393.55
462.64	390.22
463.01	386.74
463.38	383.42
463.74	379.45
464.11	376.42
464.48	373.85
464.85	370.86
465.21	368.64
465.58	366.30
465.95	363.36
466.32	361.16
466.68	358.86
467.05	356.67
467.42	354.50
467.78	352.22
468.15	350.14
468.52	348.44
468.88	346.24
469.25	344.38
469.62	342.90
469.98	341.24
470.35	339.74
470.72	338.21
471.08	336.53
471.45	335.23
471.82	334.04
472.18	332.54
472.55	331.63
472.92	330.35
473.28	329.27
473.65	328.31
474.02	327.27
474.38	326.54
474.75	325.80
475.11	324.93
475.48	324.36
475.85	323.71
476.21	323.14
476.58	322.69
476.94	322.34
477.31	321.80
477.67	321.37
478.04	321.03
478.41	320.81
478.77	321.06
479.14	320.75
479.50	320.56
479.87	320.58
480.23	320.63
480.60	320.64
480.96	320.67
481.33	321.00
481.69	321.12
482.06	321.29
482.42	321.51
482.79	321.91
483.15	322.26
483.52	322.96
483.88	323.45
484.25	323.98
484.61	324.72
484.98	325.41
485.34	326.50
485.71	327.51
486.07	328.51
486.44	329.20
486.80	330.33
487.17	331.48
487.53	332.87
487.90	334.18
488.26	335.83
488.62	337.55
488.99	339.09
489.35	340.91
489.72	342.78
490.08	344.71
490.44	346.80
490.81	349.02
491.17	351.11
491.54	353.55
491.90	356.16
492.26	358.75
492.63	361.58
492.99	364.36
493.36	367.35
493.72	370.60
494.08	374.06
494.45	377.83
494.81	381.71
495.17	385.61
495.54	389.73
495.90	393.96
496.26	398.22
496.63	402.96
496.99	407.67
497.35	412.69
497.72	418.11
498.08	423.56
498.44	429.27
498.80	435.41
499.17	441.47
499.53	447.74
499.89	454.25
500.26	461.07
500.62	468.10
500.98	475.55
501.34	483.03
501.71	490.65
502.07	498.40
502.43	506.44
502.79	514.89
503.16	523.75
503.52	532.82
503.88	542.16
504.24	551.75
504.60	561.79
504.97	572.09
505.33	582.49
505.69	593.57
506.05	604.54
506.41	615.71
506.78	627.56
507.14	639.65
507.50	652.27
507.86	664.86
508.22	677.83
508.59	690.90
508.95	704.63
509.31	718.80
509.67	733.24
510.03	747.54
510.39	762.20
510.75	777.21
511.12	792.51
511.48	808.28
511.84	824.28
512.20	840.25
512.56	856.51
512.92	873.20
513.28	889.84
513.64	906.94
514.00	924.75
514.37	942.46
514.73	960.64
515.09	978.84
515.45	997.36
515.81	1015.58
516.17	1034.40
516.53	1052.97
516.89	1071.89
517.25	1091.20
517.61	1111.71
517.97	1132.15
518.33	1152.41
518.69	1172.46
519.05	1192.77
519.41	1213.31
519.77	1234.68
520.13	1255.84
520.49	1276.86
520.85	1298.10
521.21	1319.58
521.57	1340.89
521.93	1361.57
522.29	1382.45
522.65	1403.06
523.01	1424.40
523.37	1445.35
523.73	1466.43
524.09	1487.28
524.45	1507.95
524.81	1529.04
525.17	1549.72
525.53	1570.08
525.89	1590.77
526.25	1611.95
526.61	1632.98
526.97	1654.12
527.33	1675.33
527.68	1696.98
528.04	1718.34
528.40	1739.31
528.76	1760.45
529.12	1780.82
529.48	1801.83
529.84	1821.93
530.20	1843.33
530.56	1864.00
530.91	1885.14
531.27	1905.74
531.63	1926.41
531.99	1947.45
532.35	1967.56
532.71	1987.81
533.07	2008.75
533.42	2029.03
533.78	2048.90
534.14	2068.58
534.50	2087.82
534.86	2107.09
535.21	2124.79
535.57	2143.06
535.93	2161.10
536.29	2178.80
536.65	2197.20
537.00	2215.09
537.36	2233.27
537.72	2249.94
538.08	2266.92
538.44	2283.68
538.79	2300.45
539.15	2317.07
539.51	2332.98
539.87	2348.18
540.22	2362.20
540.58	2376.68
540.94	2389.90
541.29	2402.65
541.65	2415.45
542.01	2428.12
542.37	2438.63
542.72	2449.60
543.08	2460.37
543.44	2471.89
543.79	2482.17
544.15	2492.12
544.51	2502.16
544.87	2511.75
545.22	2520.19
545.58	2528.13
545.94	2535.40
546.29	2541.86
546.65	2547.99
547.01	2553.58
547.36	2559.40
547.72	2565.22
548.07	2569.06
548.43	2574.43
548.79	2579.40
549.14	2583.43
549.50	2587.05
549.86	2591.41
550.21	2595.20
550.57	2598.49
550.92	2600.06
551.28	2601.76
551.64	2603.99
551.99	2605.89
552.35	2607.63
552.70	2609.71
553.06	2611.18
553.41	2612.51
553.77	2614.15
554.13	2616.02
554.48	2617.52
554.84	2618.93
555.19	2620.21
555.55	2621.99
555.90	2621.25
556.26	2620.34
556.61	2618.61
556.97	2616.58
557.32	2615.85
557.68	2614.88
558.03	2613.49
558.39	2612.37
558.74	2611.16
559.10	2607.74
559.45	2604.02
559.81	2599.17
560.16	2594.17
560.52	2589.60
560.87	2584.94
561.23	2579.33
561.58	2573.34
561.94	2566.19
562.29	2558.80
562.64	2551.64
563.00	2543.45
563.35	2537.10
563.71	2530.40
564.06	2524.46
564.42	2517.73
564.77	2510.54
565.12	2503.05
565.48	2495.56
565.83	2487.48
566.19	2479.64
566.54	2471.90
566.89	2463.98
567.25	2456.57
567.60	2449.86
567.96	2442.17
568.31	2434.39
568.66	2425.93
569.02	2416.92
569.37	2409.06
569.72	2401.31
570.08	2392.02
570.43	2382.53
570.78	2373.31
571.14	2363.93
571.49	2353.60
571.84	2344.03
572.20	2333.20
572.55	2322.97
572.90	2311.97
573.26	2301.66
573.61	2290.53
573.96	2279.48
574.31	2267.63
574.67	2255.63
575.02	2242.56
575.37	2229.79
575.72	2216.60
576.08	2204.68
576.43	2191.95
576.78	2178.78
577.13	2164.93
577.49	2151.95
577.84	2140.20
578.19	2127.92
578.54	2115.31
578.90	2103.34
579.25	2091.23
579.60	2078.78
579.95	2065.66
580.30	2052.76
580.66	2039.43
581.01	2025.95
581.36	2012.09
581.71	1999.15
582.06	1986.27
582.42	1973.70
582.77	1961.15
583.12	1949.24
583.47	1936.61
583.82	1924.86
584.17	1912.74
584.53	1901.02
584.88	1888.25
585.23	1875.12
585.58	1861.04
585.93	1847.70
586.28	1834.33
586.63	1820.25
586.98	1805.71
587.34	1792.64
587.69	1779.07
588.04	1766.06
588.39	1753.67
588.74	1741.08
589.09	1728.93
589.44	1716.40
589.79	1704.27
590.14	1692.26
590.49	1679.73
590.84	1667.66
591.19	1655.34
591.54	1643.09
591.89	1630.85
592.25	1620.71
592.60	1609.05
592.95	1597.75
593.30	1585.68
593.65	1573.71
594.00	1561.44
594.35	1551.80
594.70	1539.82
595.05	1528.49
595.40	1516.43
595.75	1504.40
596.10	1493.28
596.45	1481.71
596.80	1470.45
597.15	1458.64
597.50	1446.62
597.85	1435.46
598.19	1423.54
598.54	1411.92
598.89	1400.61
599.24	1389.97
599.59	1378.02
599.94	1366.92
600.29	1356.18
600.64	1345.88
600.99	1334.92
601.34	1325.53
601.69	1314.26
602.04	1304.32
602.39	1294.38
602.74	1285.08
603.08	1275.68
603.43	1266.41
603.78	1256.44
604.13	1246.62
604.48	1237.15
604.83	1227.64
605.18	1217.70
605.53	1208.28
605.87	1199.24
606.22	1190.41
606.57	1181.09
606.92	1171.58
607.27	1162.51
607.62	1153.78
607.96	1144.99
608.31	1137.03
608.66	1128.58
609.01	1119.98
609.36	1111.15
609.70	1102.59
610.05	1094.00
610.40	1085.48
610.75	1076.58
611.10	1068.31
611.44	1059.93
611.79	1051.58
612.14	1043.61
612.49	1035.58
612.83	1027.96
613.18	1019.99
613.53	1012.30
613.88	1004.16
614.22	996.56
614.57	988.76
614.92	980.67
615.27	973.23
615.61	965.38
615.96	957.55
616.31	950.12
616.65	943.14
617.00	935.95
617.35	928.54
617.70	921.28
618.04	914.09
618.39	907.23
618.74	900.96
619.08	894.21
619.43	887.23
619.78	880.23
620.12	873.19
620.47	866.27
620.82	859.09
621.16	852.42
621.51	846.09
621.85	839.75
622.20	833.30
622.55	826.69
622.89	820.23
623.24	813.92
623.59	807.54
623.93	801.33
624.28	795.05
624.62	789.49
624.97	783.66
625.32	777.95
625.66	771.85
626.01	765.35
626.35	759.74
626.70	754.07
627.04	748.89
627.39	743.20
627.73	738.00
628.08	732.91
628.43	727.37
628.77	721.71
629.12	716.36
629.46	711.36
629.81	706.39
630.15	701.78
630.50	696.84
630.84	691.92
631.19	687.04
631.53	682.44
631.88	677.00
632.22	672.06
632.57	667.57
632.91	663.12
633.26	658.94
633.60	654.14
633.95	649.48
634.29	644.59
634.64	640.25
634.98	635.33
635.32	630.90
635.67	626.91
636.01	622.78
636.36	618.47
636.70	614.50
637.05	610.33
637.39	606.06
637.73	601.93
638.08	597.92
638.42	593.79
638.77	589.38
639.11	585.24
639.45	580.92
639.80	576.50
640.14	572.33
640.49	568.18
640.83	564.47
641.17	560.83
641.52	557.23
641.86	553.54
642.20	550.37
642.55	546.59
642.89	542.92
643.23	539.30
643.58	536.29
643.92	532.46
644.26	529.02
644.61	525.59
644.95	522.25
645.29	518.72
645.64	515.50
645.98	512.40
646.32	509.47
646.66	506.38
647.01	503.35
647.35	500.46
647.69	497.58
648.04	494.70
648.38	491.66
648.72	488.63
649.06	485.64
649.41	482.45
649.75	479.44
650.09	476.47
650.43	473.66
650.78	470.50
651.12	467.73
651.46	464.89
651.80	462.21
652.14	459.53
652.49	457.11
652.83	454.46
653.17	451.79
653.51	448.99
653.85	446.57
654.20	444.06
654.54	441.46
654.88	438.85
655.22	436.48
655.56	434.05
655.90	431.71
656.25	429.37
656.59	427.31
656.93	425.15
657.27	423.12
657.61	420.64
657.95	418.31
658.29	416.18
658.64	414.14
658.98	411.82
659.32	409.54
659.66	407.31
660.00	405.24
660.34	403.24
660.68	401.38
661.02	399.36
661.36	397.46
661.70	395.51
662.05	393.55
662.39	391.60
662.73	389.81
663.07	388.25
663.41	386.43
663.75	384.29
664.09	382.47
664.43	380.44
664.77	378.94
665.11	377.23
665.45	375.45
665.79	373.79
666.13	372.11
666.47	370.51
666.81	368.82
667.15	367.03
667.49	365.50
667.83	364.05
668.17	362.55
668.51	361.08
668.85	359.71
669.19	358.47
669.53	356.97
669.87	355.43
670.21	353.78
670.55	352.33
670.89	351.30
671.23	349.97
671.57	348.68
671.91	347.23
672.25	345.92
672.58	344.82
672.92	343.44
673.26	342.14
673.60	340.92
673.94	339.84
674.28	338.77
674.62	337.62
674.96	336.21
675.30	335.06
675.64	333.79
675.97	332.52
676.31	331.19
676.65	329.93
676.99	329.04
677.33	327.88
677.67	326.90
678.01	325.58
678.34	324.53
678.68	323.53
679.02	322.46
679.36	321.42
679.70	320.33
680.04	319.34
680.37	318.43
680.71	317.41
681.05	316.44
681.39	315.54
681.73	314.68
682.06	313.83
682.40	312.93
682.74	312.16
683.08	311.48
683.42	310.62
683.75	309.94
684.09	308.88
684.43	308.21
684.77	307.33
685.10	306.50
685.44	305.60
685.78	304.77
686.12	304.03
686.45	303.27
686.79	302.35
687.13	301.66
687.46	300.97
687.80	300.40
688.14	299.49
688.48	298.79
688.81	297.93
689.15	297.35
689.49	296.59
689.82	295.85
690.16	294.94
690.50	294.32
690.83	293.54
691.17	292.87
691.51	292.08
691.84	291.41
692.18	290.66
692.52	290.04
692.85	289.43
693.19	288.97
693.52	288.32
693.86	287.74
694.20	287.02
694.53	286.38
694.87	285.65
695.21	285.08
695.54	284.40
695.88	283.77
696.21	283.00
696.55	282.45
696.88	281.76
697.22	281.17
697.56	280.52
697.89	279.90
698.23	279.37
698.56	278.75
698.90	278.20
699.23	277.79
699.57	277.26
699.90	276.67
700.24	275.99
700.58	275.59
700.91	275.21
701.25	275.17
701.58	275.04
701.92	274.70
702.25	274.25
702.59	273.73
702.92	273.29
703.26	272.95
703.59	272.48
703.93	272.54
704.26	272.19
704.60	271.76
704.93	271.38
705.26	270.87
705.60	270.46
705.93	269.98
706.27	269.62
706.60	269.35
706.94	269.20
707.27	268.84
707.61	268.45
707.94	268.03
708.27	267.32
708.61	266.53
708.94	266.02
709.28	265.66
709.61	265.25
709.94	264.90
710.28	264.49
710.61	264.14
710.95	263.32
711.28	263.20
711.61	262.82
711.95	262.57
712.28	262.18
712.61	261.89
712.95	261.81
713.28	261.77
713.61	261.26
713.95	260.70
714.28	260.34
714.61	259.93
714.95	259.57
715.28	259.04
715.61	258.67
715.95	258.39
716.28	258.05
716.61	257.86
716.95	257.47
717.28	257.15
717.61	256.80
717.94	256.49
718.28	255.86
718.61	255.61
718.94	255.25
719.27	255.04
719.61	254.81
719.94	254.44
720.27	253.82
720.60	253.64
720.94	253.42
721.27	253.22
721.60	253.03
721.93	252.78
722.27	252.78
722.60	252.68
722.93	252.40
723.26	252.23
723.59	251.88
723.93	251.79
724.26	251.63
724.59	251.36
724.92	251.18
725.25	251.11
725.59	250.89
725.92	250.72
726.25	250.55
726.58	250.38
726.91	250.20
727.24	250.16
727.57	249.96
727.91	249.78
728.24	249.65
728.57	249.38
728.90	249.24
729.23	248.93
729.56	248.99
729.89	248.84
730.22	248.59
730.55	248.43
730.89	248.25
731.22	248.06
731.55	247.87
731.88	247.73
732.21	247.43
732.54	247.23
732.87	247.10
733.20	246.97
733.53	246.78
733.86	246.64
734.19	246.31
734.52	246.22
734.85	246.36
735.18	246.10
735.51	246.08
735.84	245.95
736.17	245.96
736.50	245.55
736.83	245.97
737.16	245.78
737.49	245.65
737.82	245.43
738.15	245.33
738.48	245.20
738.81	244.98
739.14	244.78
739.47	244.58
739.80	244.43
740.13	244.26
740.46	243.92
740.79	243.62
741.12	243.46
741.45	243.13
741.78	242.63
742.11	242.59
742.44	242.41
742.77	242.36
743.10	242.09
743.43	241.93
743.75	241.25
744.08	241.78
744.41	241.59
744.74	241.45
745.07	241.23
745.40	241.18
745.73	241.25
746.06	241.23
746.39	241.15
746.71	240.85
747.04	240.72
747.37	240.71
747.70	240.71
748.03	240.70
748.36	240.75
748.68	240.60
749.01	240.32
749.34	240.14
749.67	239.96
750.00	239.91
750.33	240.13
750.65	240.10
750.98	239.36
751.31	239.30
751.64	239.25
751.97	239.39
752.29	239.25
752.62	238.89
752.95	238.76
753.28	238.64
753.60	238.60
753.93	238.62
754.26	238.57
754.59	238.39
754.91	238.16
755.24	237.99
755.57	237.94
755.90	237.86
756.22	237.73
756.55	237.61
756.88	237.45
757.20	237.06
757.53	236.78
757.86	236.69
758.19	236.66
758.51	236.54
758.84	236.21
759.17	236.10
759.49	236.10
759.82	236.20
760.15	236.16
760.47	236.05
760.80	235.80
761.13	235.68
761.45	235.65
761.78	235.56
762.11	235.51
762.43	235.45
762.76	235.33
763.08	235.30
763.41	235.28
763.74	235.23
764.06	235.08
764.39	235.05
764.71	235.00
765.04	234.83
765.37	234.71
765.69	234.61
766.02	234.45
766.34	234.29
766.67	234.04
767.00	234.07
767.32	234.23
767.65	234.47
767.97	234.38
768.30	234.26
768.62	234.20
768.95	234.05
769.27	233.92
769.60	233.99
769.92	233.86
770.25	233.69
770.57	233.44
770.90	233.37
771.22	233.22
771.55	233.13
771.87	233.12
772.20	233.06
772.52	233.45
772.85	234.07
773.17	234.07
773.50	234.00
773.82	233.87
774.15	233.61
774.47	233.26
774.80	233.21
775.12	233.15
775.45	233.14
775.77	233.16
776.09	233.16
776.42	233.15
776.74	233.30
777.07	233.25
777.39	233.34
777.72	233.25
778.04	233.32
778.36	233.26
778.69	233.22
779.01	233.16
779.33	232.73
779.66	232.08
779.98	232.03
780.31	231.99
780.63	232.10
780.95	232.12
781.28	231.99
781.60	231.96
781.92	231.84
782.25	231.75
782.57	231.64
782.89	231.60
783.22	231.45
783.54	231.25
783.86	231.25
784.19	231.12
784.51	231.24
784.83	231.08
785.16	230.98
785.48	230.95
785.80	230.91
786.12	230.87
786.45	230.84
786.77	230.82
787.09	230.73
787.42	230.43
787.74	230.35
788.06	230.40
788.38	230.28
788.71	230.24
789.03	230.18
789.35	230.24
789.67	230.12
789.99	230.10
790.32	229.99
790.64	229.89
790.96	230.27
791.28	230.13
791.61	230.15
791.93	230.23
792.25	230.09
792.57	230.42
792.89	230.27
793.21	230.29
793.54	230.23
793.86	230.21
794.18	230.28
794.50	230.18
794.82	230.15
795.14	230.14
795.47	230.23
795.79	230.19
796.11	230.02
796.43	229.93
796.75	229.93
797.07	229.99
797.39	229.96
797.71	229.55
798.04	229.49
798.36	229.52
798.68	229.45
799.00	229.53
799.32	229.25
799.64	229.34
799.96	229.33
800.28	229.40
800.60	229.34
800.92	229.41
801.24	229.45
801.56	229.46
801.89	229.44
802.21	229.45
802.53	229.48
802.85	229.60
803.17	229.90
803.49	229.83
803.81	229.76
804.13	229.76
804.45	229.71
804.77	229.80
805.09	229.75
805.41	229.64
805.73	229.51
806.05	229.38
806.37	229.33
806.69	229.25
807.01	229.23
807.33	229.28
807.65	229.03
807.97	229.20
808.28	229.18
808.60	229.16
808.92	229.07
809.24	229.31
809.56	229.18
809.88	229.03
810.20	229.08
810.52	229.18
810.84	229.08
811.16	229.10
811.48	229.02
811.80	229.13
812.12	229.16
812.43	229.35
812.75	229.33
813.07	229.23
813.39	229.24
813.71	229.15
814.03	229.08
814.35	229.08
814.67	228.87
814.98	228.76
815.30	228.81
815.62	228.68
815.94	228.42
816.26	228.63
816.58	228.45
816.89	228.46
817.21	228.34
817.53	228.43
817.85	228.40
818.17	228.42
818.48	228.27
818.80	228.40
819.12	228.26
819.44	228.26
819.76	228.22
820.07	228.16
820.39	228.13
820.71	228.20
821.03	228.23
821.34	228.21
821.66	228.33
821.98	228.37
822.30	228.42
822.61	228.66
822.93	228.46
823.25	228.54
823.57	228.39
823.88	228.52
824.20	228.41
824.52	228.49
824.83	228.38
825.15	228.36
825.47	228.28
825.79	228.31
826.10	228.20
826.42	228.23
826.74	228.39
827.05	228.33
827.37	228.30
827.69	228.24
828.00	228.31
828.32	228.22
828.64	228.10
828.95	228.36
829.27	228.23
829.58	228.21
829.90	228.23
830.22	228.38
830.53	228.22
830.85	228.26
831.17	228.11
831.48	228.14
831.80	228.10
832.11	228.00
832.43	227.87
832.75	227.90
833.06	228.18
833.38	227.93
833.69	227.98
834.01	227.98
834.32	227.98
834.64	227.86
834.96	227.84
835.27	227.86
835.59	227.68
835.90	227.54
836.22	227.49
836.53	227.37
836.85	227.24
837.16	227.72
837.48	227.69
837.79	227.92
838.11	227.92
838.42	227.91
838.74	228.02
839.05	228.01
839.37	228.05
839.68	227.71
840.00	227.77
840.31	227.75
840.63	227.65
840.94	227.59
841.26	227.52
841.57	227.53
841.88	227.49
842.20	227.41
842.51	227.40
842.83	227.45
843.14	227.88
843.46	227.86
843.77	227.57
844.08	227.54
844.40	227.31
844.71	227.22
845.03	227.13
845.34	227.03
845.65	227.01
845.97	227.05
846.28	227.12
846.60	227.05
846.91	227.01
847.22	227.05
847.54	227.20
847.85	227.26
848.16	227.26
848.48	227.20
848.79	227.40
849.10	227.47
849.42	227.44
849.73	226.99
850.04	226.99
850.36	226.89
850.67	226.98
850.98	227.04
851.30	227.11
851.61	227.18
851.92	227.22
852.23	227.29
852.55	227.19
852.86	227.20
853.17	227.32
853.49	227.46
853.80	227.59
854.11	227.60
854.42	227.68
854.74	227.66
855.05	227.76
855.36	227.52
855.67	227.48
855.99	227.54
856.30	228.09
856.61	228.07
856.92	227.99
857.23	227.91
857.55	227.85
857.86	227.87
858.17	228.00
858.48	227.92
858.79	227.90
859.11	227.97
859.42	227.93
859.73	227.81
860.04	227.80
860.35	227.57
860.66	227.41
860.98	227.40
861.29	227.48
861.60	227.39
861.91	227.50
862.22	227.42
862.53	227.31
862.84	226.78
863.16	226.94
863.47	226.84
863.78	226.89
864.09	226.97
864.40	226.99
864.71	226.87
865.02	226.87
865.33	226.77
865.64	226.70
865.95	226.73
866.27	227.06
866.58	226.98
866.89	227.05
867.20	227.04
867.51	226.91
867.82	226.86
868.13	226.95
868.44	226.79
868.75	226.96
869.06	226.99
869.37	227.06
869.68	226.89
869.99	226.99
870.30	226.96
870.61	226.95
870.92	226.88
871.23	226.90
871.54	226.99
871.85	227.12
872.16	227.21
872.47	227.14
872.78	226.83
873.09	226.90
873.40	226.84
873.71	226.92
874.02	227.03
874.33	226.93
874.64	226.81
874.95	226.89
875.26	226.70
875.56	226.64
875.87	226.60
876.18	226.60
876.49	227.00
876.80	226.92
877.11	226.83
877.42	226.87
877.73	226.84
878.04	226.76
878.35	226.77
878.66	226.70
878.96	226.73
879.27	226.74
879.58	226.65
879.89	226.67
880.20	226.77
880.51	226.62
880.82	226.71
881.12	226.83
881.43	226.75
881.74	226.70
882.05	226.78
882.36	226.75
882.67	226.76
882.97	226.34
883.28	226.34
883.59	226.35
883.90	226.33
884.21	226.49
884.51	226.50
884.82	226.45
885.13	226.55
885.44	226.54
885.74	226.56
886.05	226.58
886.36	226.49
886.67	226.34
886.98	226.66
887.28	226.64
887.59	226.60
887.90	226.61
888.20	226.62
888.51	226.70
888.82	226.65
889.13	226.69
889.43	227.03
889.74	227.09
890.05	227.02
890.35	227.05
890.66	226.95
890.97	226.86
891.28	226.82
891.58	226.76
891.89	226.79
892.20	226.75
892.50	226.67
892.81	226.83
893.12	226.84
893.42	226.63
893.73	226.60
894.04	226.59
894.34	226.69
894.65	226.72
894.95	226.65
895.26	226.75
895.57	227.01
895.87	226.65
896.18	226.68
896.48	226.77
896.79	226.77
897.10	226.90
897.40	226.97
897.71	227.07
898.01	227.04
898.32	227.07
898.63	227.07
898.93	227.16
899.24	227.03
899.54	226.96
899.85	226.92
900.15	226.99
900.46	227.01
900.76	227.02
901.07	227.04
901.38	227.12
901.68	227.12
901.99	226.75
902.29	226.81
902.60	226.79
902.90	226.76
903.21	226.70
903.51	226.60
903.82	226.70
904.12	226.68
904.43	226.71
904.73	226.69
905.03	226.76
905.34	227.21
905.64	227.26
905.95	227.32
906.25	227.29
906.56	227.16
906.86	227.14
907.17	227.05
907.47	227.01
907.77	226.86
908.08	226.74
908.38	226.85
908.69	226.82
908.99	226.90
909.30	226.92
909.60	226.94
909.90	226.91
910.21	226.75
910.51	226.70
910.81	226.72
911.12	226.71
911.42	226.71
911.73	226.20
912.03	226.22
912.33	226.30
912.64	226.29
912.94	226.38
913.24	226.38
913.55	226.40
913.85	226.42
914.15	226.58
914.46	226.71
914.76	226.66
915.06	226.65
915.37	226.59
915.67	226.61
915.97	226.63
916.27	226.56
916.58	226.59
916.88	226.56
917.18	226.50
917.49	226.80
917.79	226.83
918.09	226.85
918.39	227.02
918.70	226.98
919.00	227.08
919.30	227.25
919.60	227.20
919.91	227.14
920.21	227.11
920.51	226.92
920.81	226.88
921.12	226.97
921.42	226.89
921.72	226.93
922.02	226.88
922.32	226.94
922.63	227.00
922.93	227.25
923.23	227.32
923.53	227.26
923.83	226.94
924.13	226.92
924.44	226.98
924.74	226.99
925.04	227.07
925.34	227.05
925.64	226.85
925.94	226.87
926.24	227.14
926.55	227.10
926.85	227.18
927.15	227.15
927.45	227.15
927.75	227.22
928.05	227.15
928.35	227.18
928.65	227.23
928.95	227.31
929.26	227.10
929.56	227.17
929.86	227.30
930.16	227.30
930.46	227.26
930.76	227.22
931.06	226.95
931.36	226.79
931.66	226.75
931.96	226.82
932.26	226.80
932.56	226.61
932.86	226.64
933.16	226.65
933.46	226.60
933.76	226.49
934.06	226.63
934.36	226.82
934.66	226.79
934.96	226.71
935.26	226.67
935.56	226.70
935.86	226.60
936.16	226.51
936.46	226.51
936.76	226.48
937.06	226.47
937.36	226.61
937.66	226.69
937.96	226.71
938.26	226.62
938.56	226.63
938.86	226.66
939.16	226.81
939.46	226.89
939.76	226.90
940.06	226.89
940.35	226.72
940.65	226.49
940.95	226.51
941.25	226.33
941.55	226.20
941.85	226.25
942.15	226.34
942.45	226.45
942.75	226.42
943.04	226.43
943.34	226.54
943.64	226.48
943.94	226.37
944.24	226.40
944.54	226.38
944.84	226.40
945.13	226.32
945.43	226.24
945.73	226.20
946.03	226.26
946.33	226.22
946.62	226.19
946.92	226.13
947.22	226.18
947.52	226.32
947.82	226.48
948.11	226.38
948.41	226.35
948.71	226.17
949.01	226.15
949.31	226.08
949.60	226.02
949.90	226.12
950.20	226.16
950.50	226.16
950.79	226.14
951.09	226.13
951.39	226.19
951.69	226.16
951.98	226.28
952.28	226.21
952.58	226.24
952.87	226.19
953.17	226.33
953.47	226.26
953.76	226.26
954.06	226.15
954.36	226.12
954.66	226.06
954.95	226.27
955.25	226.33
955.55	226.41
955.84	226.40
956.14	226.32
956.44	226.43
956.73	226.37
957.03	226.50
957.32	226.50
957.62	226.44
957.92	226.55
958.21	226.45
958.51	226.98
958.81	227.04
959.10	227.11
959.40	227.22
959.69	227.24
959.99	227.32
960.29	227.36
960.58	227.35
960.88	227.47
961.17	227.36
961.47	227.43
961.76	227.38
962.06	227.39
962.36	227.35
962.65	227.30
962.95	227.26
963.24	227.14
963.54	227.19
963.83	227.22
964.13	227.12
964.42	227.03
964.72	226.64
965.01	226.64
965.31	226.66
965.60	226.55
965.90	226.86
966.19	226.74
966.49	226.68
966.78	226.62
967.08	226.57
967.37	226.59
967.67	226.45
967.96	226.53
968.26	226.51
968.55	226.55
968.85	226.52
969.14	226.54
969.43	226.58
969.73	226.52
970.02	226.53
970.32	226.56
970.61	226.51
970.91	226.38
971.20	226.32
971.49	226.30
971.79	226.30
972.08	225.90
972.38	225.90
972.67	225.86
972.96	226.07
973.26	225.98
973.55	226.09
973.85	226.15
974.14	226.10
974.43	226.16
974.73	226.14
975.02	226.11
975.31	226.10
975.61	226.03
975.90	226.02
976.19	225.94
976.49	225.98
976.78	226.04
977.07	226.06
977.37	226.10
977.66	226.13
977.95	226.11
978.24	226.20
978.54	226.32
978.83	226.33
979.12	226.20
979.42	226.23
979.71	226.16
980.00	226.11
980.29	226.18
980.59	226.07
980.88	226.16
981.17	226.16
981.46	226.23
981.76	226.27
982.05	226.42
982.34	226.46
982.63	226.45
982.93	226.47
983.22	226.63
983.51	226.63
983.80	226.65
984.09	226.71
984.39	226.71
984.68	226.66
984.97	226.73
985.26	226.71
985.55	226.70
985.85	226.61
986.14	226.70
986.43	226.70
986.72	226.67
987.01	226.55
987.30	226.59
987.59	226.46
987.89	226.53
988.18	226.37
988.47	226.28
988.76	226.22
989.05	226.26
989.34	226.13
989.63	226.23
989.92	226.23
990.22	226.16
990.51	226.18
990.80	226.05
991.09	226.06
991.38	226.08
991.67	226.05
991.96	226.07
992.25	226.05
992.54	225.97
992.83	225.97
993.12	225.96
993.41	225.90
993.70	226.12
993.99	226.14
994.28	226.18
994.58	226.29
994.87	226.20
995.16	226.13
995.45	226.07
995.74	225.88
996.03	225.87
996.32	225.92
996.61	225.97
996.90	225.98
997.19	225.93
997.48	225.95
997.77	225.88
998.06	225.86
998.34	225.83
998.63	225.80
998.92	225.83
999.21	225.90
999.50	225.94
999.79	225.71
1000.08	225.70
1000.37	225.66
1000.66	225.59
1000.95	225.76
1001.24	225.76
1001.53	225.84
1001.82	225.91
1002.11	225.84
1002.40	225.90
1002.68	226.02
1002.97	226.41
1003.26	226.36
1003.55	226.32
1003.84	226.43
1004.13	226.59
1004.42	226.56
1004.71	226.60
1004.99	226.62
1005.28	226.75
1005.57	226.73
1005.86	226.79
1006.15	226.69
1006.44	226.60
1006.72	226.68
1007.01	226.63
1007.30	226.64
1007.59	226.67
1007.88	226.65
1008.17	226.71
1008.45	226.61
1008.74	226.38
1009.03	226.14
1009.32	226.19
1009.60	226.19
1009.89	226.21
1010.18	226.01
1010.47	226.00
1010.76	225.99
1011.04	225.97
1011.33	225.89
1011.62	226.01
1011.91	226.07
1012.19	226.11
1012.48	226.21
1012.77	226.22
1013.05	226.44
1013.34	226.41
1013.63	226.35
1013.92	226.36
1014.20	226.31
1014.49	226.34
1014.78	226.41
1015.06	226.20
1015.35	226.15
1015.64	226.19
1015.92	226.15
1016.21	226.22
1016.50	226.18
1016.78	226.25
1017.07	226.33
1017.36	226.28
1017.64	226.15
1017.93	226.14
1018.22	226.16
1018.50	226.13
1018.79	226.08
1019.08	225.80
1019.36	225.85
1019.65	225.79
1019.93	225.91
1020.22	226.02
1020.51	226.24
1020.79	226.22
1021.08	226.50
1021.36	225.15
1021.65	225.40
1021.94	225.50
1022.22	225.95
1022.51	225.25
1022.79	228.40
1023.08	227.75
1023.36	231.55
1023.65	225.85
>>>>>End Processed Spectral Data<<<<<
