SpectraSuite Data File
++++++++++++++++++++++++++++++++++++
Date: Wed Sep 04 17:43:28 EDT 2013
User: lab3
Dark Spectrum Present: Yes
Reference Spectrum Present: No
Number of Sampled Component Spectra: 1
Spectrometers: USB2E7196
Integration Time (usec): 170000 (USB2E7196)
Spectra Averaged: 20 (USB2E7196)
Boxcar Smoothing: 10 (USB2E7196)
Correct for Electrical Dark: No (USB2E7196)
Strobe/Lamp Enabled: No (USB2E7196)
Correct for Detector Non-linearity: No (USB2E7196)
Correct for Stray Light: No (USB2E7196)
Number of Pixels in Processed Spectrum: 2048
>>>>>Begin Processed Spectral Data<<<<<
339.09	0.00
339.48	213.15
339.86	214.70
340.24	217.00
340.63	216.80
341.01	225.25
341.39	219.70
341.78	222.65
342.16	223.25
342.54	221.70
342.93	212.09
343.31	222.79
343.69	223.30
344.07	223.76
344.46	224.21
344.84	224.72
345.22	224.71
345.60	225.01
345.99	225.19
346.37	225.31
346.75	225.47
347.13	225.59
347.52	225.69
347.90	225.97
348.28	226.04
348.66	226.25
349.05	226.18
349.43	226.28
349.81	226.29
350.19	226.43
350.57	226.45
350.96	226.45
351.34	226.58
351.72	226.62
352.10	226.74
352.48	226.75
352.87	226.74
353.25	226.73
353.63	226.78
354.01	226.83
354.39	226.91
354.77	227.00
355.15	227.13
355.54	227.10
355.92	226.90
356.30	226.95
356.68	227.31
357.06	227.44
357.44	227.42
357.82	227.47
358.20	227.89
358.58	227.90
358.97	227.99
359.35	228.08
359.73	228.36
360.11	228.36
360.49	228.44
360.87	228.49
361.25	228.64
361.63	228.82
362.01	228.89
362.39	228.89
362.77	229.02
363.15	228.96
363.53	229.03
363.91	229.16
364.29	229.17
364.67	228.72
365.05	228.71
365.43	228.76
365.81	228.86
366.19	228.73
366.57	228.97
366.95	228.96
367.33	228.88
367.71	228.80
368.09	228.92
368.47	229.00
368.85	228.96
369.23	229.02
369.61	228.89
369.99	229.06
370.37	229.20
370.75	229.36
371.13	229.31
371.51	229.27
371.89	229.24
372.27	229.28
372.65	229.28
373.03	229.28
373.41	229.28
373.78	229.26
374.16	228.93
374.54	228.71
374.92	228.70
375.30	228.65
375.68	228.57
376.06	228.54
376.44	228.39
376.82	228.36
377.19	228.32
377.57	228.16
377.95	227.90
378.33	227.75
378.71	227.41
379.09	227.43
379.47	227.37
379.84	227.28
380.22	227.20
380.60	227.11
380.98	226.98
381.36	226.93
381.73	226.78
382.11	226.84
382.49	226.84
382.87	226.64
383.25	226.56
383.62	227.06
384.00	226.87
384.38	226.83
384.76	226.84
385.13	226.94
385.51	226.88
385.89	226.77
386.27	226.76
386.64	226.75
387.02	226.67
387.40	226.60
387.78	226.56
388.15	226.50
388.53	226.38
388.91	226.39
389.29	226.27
389.66	226.34
390.04	226.32
390.42	226.26
390.79	226.29
391.17	226.24
391.55	225.61
391.92	225.63
392.30	225.68
392.68	225.52
393.05	225.48
393.43	225.48
393.81	225.55
394.18	225.47
394.56	225.49
394.94	225.58
395.31	225.62
395.69	225.80
396.06	225.89
396.44	225.98
396.82	226.02
397.19	226.30
397.57	226.25
397.95	226.33
398.32	226.35
398.70	226.48
399.07	226.68
399.45	226.77
399.82	226.85
400.20	226.86
400.58	227.05
400.95	226.93
401.33	227.20
401.70	227.61
402.08	227.78
402.45	227.92
402.83	228.15
403.20	228.30
403.58	228.32
403.95	228.55
404.33	228.79
404.71	228.97
405.08	229.44
405.46	229.68
405.83	229.88
406.21	230.11
406.58	230.40
406.96	230.64
407.33	230.99
407.70	231.34
408.08	231.99
408.45	232.38
408.83	232.92
409.20	233.26
409.58	233.37
409.95	233.80
410.33	234.31
410.70	234.68
411.08	235.28
411.45	235.92
411.82	236.50
412.20	237.18
412.57	238.14
412.95	238.40
413.32	239.30
413.69	240.14
414.07	241.00
414.44	241.92
414.82	242.92
415.19	244.03
415.56	245.18
415.94	246.22
416.31	247.59
416.68	248.85
417.06	250.37
417.43	251.96
417.81	253.66
418.18	255.45
418.55	257.29
418.93	259.28
419.30	261.24
419.67	263.40
420.04	265.64
420.42	267.78
420.79	270.73
421.16	273.37
421.54	276.33
421.91	279.24
422.28	282.20
422.66	285.39
423.03	288.66
423.40	291.90
423.77	295.31
424.15	298.70
424.52	302.35
424.89	306.45
425.26	310.15
425.64	313.72
426.01	317.66
426.38	321.85
426.75	326.14
427.13	330.51
427.50	334.99
427.87	339.59
428.24	344.38
428.61	348.69
428.99	353.74
429.36	358.94
429.73	364.24
430.10	369.53
430.47	374.84
430.85	380.29
431.22	386.19
431.59	392.67
431.96	398.68
432.33	405.40
432.70	411.70
433.08	419.38
433.45	426.52
433.82	433.52
434.19	441.33
434.56	448.98
434.93	456.42
435.30	463.84
435.68	472.16
436.05	480.18
436.42	488.12
436.79	495.43
437.16	503.35
437.53	511.65
437.90	520.03
438.27	528.40
438.64	536.91
439.01	544.77
439.38	551.65
439.75	558.53
440.13	566.28
440.50	573.57
440.87	579.36
441.24	585.50
441.61	592.31
441.98	597.33
442.35	602.84
442.72	608.71
443.09	614.35
443.46	617.67
443.83	619.90
444.20	621.91
444.57	624.62
444.94	625.72
445.31	626.82
445.68	628.12
446.05	628.25
446.42	627.14
446.79	625.85
447.16	624.37
447.53	623.21
447.90	619.57
448.27	616.00
448.64	611.42
449.01	607.85
449.37	601.89
449.74	596.08
450.11	589.59
450.48	582.04
450.85	574.34
451.22	567.77
451.59	561.45
451.96	555.35
452.33	547.58
452.70	540.60
453.07	532.38
453.43	523.57
453.80	515.51
454.17	507.71
454.54	500.36
454.91	492.47
455.28	484.86
455.65	477.77
456.02	471.27
456.38	465.14
456.75	457.75
457.12	451.51
457.49	445.46
457.86	439.43
458.23	434.47
458.59	429.07
458.96	423.57
459.33	418.68
459.70	413.77
460.07	409.82
460.43	405.24
460.80	401.15
461.17	397.65
461.54	393.86
461.91	390.18
462.27	386.50
462.64	383.37
463.01	379.94
463.38	376.78
463.74	372.83
464.11	369.90
464.48	367.49
464.85	364.81
465.21	362.68
465.58	360.45
465.95	357.81
466.32	355.66
466.68	353.45
467.05	351.23
467.42	349.17
467.78	346.96
468.15	345.01
468.52	343.48
468.88	341.29
469.25	339.36
469.62	338.01
469.98	336.40
470.35	334.99
470.72	333.49
471.08	331.87
471.45	330.75
471.82	329.50
472.18	327.99
472.55	326.90
472.92	325.62
473.28	324.68
473.65	323.71
474.02	322.63
474.38	321.85
474.75	321.24
475.11	320.35
475.48	319.72
475.85	319.07
476.21	318.45
476.58	318.04
476.94	317.84
477.31	317.43
477.67	317.20
478.04	316.89
478.41	316.77
478.77	317.00
479.14	316.80
479.50	316.81
479.87	316.92
480.23	317.05
480.60	317.15
480.96	317.04
481.33	317.27
481.69	317.56
482.06	317.82
482.42	318.13
482.79	318.59
483.15	319.04
483.52	319.62
483.88	320.14
484.25	320.75
484.61	321.30
484.98	321.94
485.34	322.85
485.71	323.85
486.07	324.73
486.44	325.30
486.80	326.37
487.17	327.45
487.53	328.81
487.90	330.11
488.26	331.82
488.62	333.62
488.99	335.07
489.35	336.71
489.72	338.47
490.08	340.28
490.44	342.26
490.81	344.49
491.17	346.72
491.54	349.09
491.90	351.55
492.26	354.19
492.63	356.97
492.99	359.64
493.36	362.57
493.72	365.94
494.08	369.41
494.45	373.00
494.81	376.83
495.17	380.60
495.54	384.77
495.90	388.80
496.26	393.11
496.63	397.82
496.99	402.65
497.35	407.58
497.72	412.84
498.08	418.19
498.44	423.65
498.80	429.53
499.17	435.48
499.53	441.63
499.89	448.05
500.26	454.73
500.62	461.63
500.98	468.89
501.34	476.14
501.71	483.75
502.07	491.36
502.43	499.19
502.79	507.41
503.16	515.89
503.52	524.70
503.88	533.79
504.24	543.29
504.60	553.01
504.97	563.13
505.33	573.30
505.69	584.04
506.05	594.88
506.41	605.75
506.78	617.03
507.14	628.73
507.50	640.69
507.86	652.95
508.22	665.45
508.59	678.08
508.95	691.49
509.31	704.98
509.67	719.01
510.03	732.96
510.39	747.22
510.75	761.68
511.12	776.54
511.48	791.57
511.84	806.64
512.20	822.02
512.56	837.78
512.92	854.07
513.28	870.53
513.64	887.04
514.00	903.95
514.37	921.40
514.73	938.91
515.09	956.85
515.45	974.51
515.81	992.49
516.17	1010.55
516.53	1028.21
516.89	1046.25
517.25	1064.83
517.61	1084.23
517.97	1103.72
518.33	1123.21
518.69	1142.62
519.05	1162.26
519.41	1182.21
519.77	1202.52
520.13	1222.09
520.49	1241.79
520.85	1261.79
521.21	1282.07
521.57	1302.42
521.93	1322.21
522.29	1342.41
522.65	1361.91
523.01	1382.11
523.37	1401.46
523.73	1421.65
524.09	1441.30
524.45	1461.08
524.81	1480.57
525.17	1500.24
525.53	1519.68
525.89	1539.34
526.25	1559.03
526.61	1578.45
526.97	1598.70
527.33	1618.63
527.68	1639.48
528.04	1659.54
528.40	1679.16
528.76	1699.05
529.12	1718.47
529.48	1737.99
529.84	1756.93
530.20	1776.76
530.56	1796.29
530.91	1816.07
531.27	1834.80
531.63	1854.16
531.99	1873.37
532.35	1892.37
532.71	1910.99
533.07	1930.21
533.42	1948.65
533.78	1967.03
534.14	1985.64
534.50	2002.62
534.86	2020.40
535.21	2036.49
535.57	2053.46
535.93	2069.81
536.29	2085.79
536.65	2102.30
537.00	2118.33
537.36	2134.39
537.72	2149.45
538.08	2164.72
538.44	2179.83
538.79	2195.03
539.15	2210.17
539.51	2224.95
539.87	2238.82
540.22	2251.64
540.58	2264.81
540.94	2276.96
541.29	2288.49
541.65	2299.41
542.01	2310.76
542.37	2320.10
542.72	2329.91
543.08	2339.44
543.44	2349.84
543.79	2359.00
544.15	2367.40
544.51	2376.20
544.87	2384.65
545.22	2392.13
545.58	2398.89
545.94	2404.92
546.29	2410.03
546.65	2414.87
547.01	2418.99
547.36	2423.35
547.72	2427.78
548.07	2430.17
548.43	2434.19
548.79	2437.38
549.14	2440.43
549.50	2443.12
549.86	2446.15
550.21	2449.23
550.57	2451.56
550.92	2452.10
551.28	2452.44
551.64	2454.14
551.99	2455.03
552.35	2455.67
552.70	2456.90
553.06	2457.73
553.41	2458.16
553.77	2459.36
554.13	2460.38
554.48	2461.16
554.84	2461.52
555.19	2461.80
555.55	2463.41
555.90	2461.86
556.26	2460.61
556.61	2458.55
556.97	2456.01
557.32	2454.34
557.68	2452.47
558.03	2450.31
558.39	2448.35
558.74	2446.98
559.10	2443.12
559.45	2439.12
559.81	2434.28
560.16	2428.69
560.52	2423.65
560.87	2419.06
561.23	2413.60
561.58	2407.69
561.94	2400.84
562.29	2393.33
562.64	2386.07
563.00	2377.46
563.35	2370.57
563.71	2363.50
564.06	2357.18
564.42	2350.31
564.77	2343.40
565.12	2335.27
565.48	2327.64
565.83	2319.73
566.19	2311.67
566.54	2303.86
566.89	2295.96
567.25	2288.20
567.60	2280.97
567.96	2273.33
568.31	2265.30
568.66	2256.64
569.02	2247.30
569.37	2238.93
569.72	2231.79
570.08	2222.83
570.43	2213.27
570.78	2204.54
571.14	2195.61
571.49	2185.57
571.84	2176.20
572.20	2165.61
572.55	2156.14
572.90	2145.59
573.26	2135.62
573.61	2124.94
573.96	2114.21
574.31	2102.68
574.67	2091.45
575.02	2079.26
575.37	2066.83
575.72	2054.53
576.08	2043.06
576.43	2031.22
576.78	2018.81
577.13	2005.59
577.49	1993.43
577.84	1982.47
578.19	1970.95
578.54	1959.32
578.90	1948.14
579.25	1936.86
579.60	1925.01
579.95	1912.52
580.30	1900.48
580.66	1887.73
581.01	1874.88
581.36	1861.95
581.71	1849.94
582.06	1837.68
582.42	1825.82
582.77	1813.99
583.12	1802.68
583.47	1790.96
583.82	1779.87
584.17	1768.73
584.53	1757.99
584.88	1746.11
585.23	1733.74
585.58	1720.66
585.93	1708.15
586.28	1695.63
586.63	1682.39
586.98	1669.46
587.34	1657.20
587.69	1644.61
588.04	1632.78
588.39	1621.66
588.74	1610.37
589.09	1599.13
589.44	1587.28
589.79	1576.25
590.14	1565.27
590.49	1553.86
590.84	1542.64
591.19	1531.51
591.54	1520.05
591.89	1508.54
592.25	1499.05
592.60	1488.37
592.95	1478.09
593.30	1467.07
593.65	1456.20
594.00	1445.24
594.35	1436.31
594.70	1425.65
595.05	1415.16
595.40	1403.94
595.75	1392.80
596.10	1382.51
596.45	1372.04
596.80	1362.25
597.15	1351.76
597.50	1340.94
597.85	1330.74
598.19	1319.94
598.54	1308.99
598.89	1298.84
599.24	1288.93
599.59	1278.31
599.94	1268.29
600.29	1258.63
600.64	1249.17
600.99	1238.98
601.34	1230.23
601.69	1219.62
602.04	1210.52
602.39	1201.49
602.74	1193.23
603.08	1184.68
603.43	1176.14
603.78	1167.26
604.13	1158.25
604.48	1149.32
604.83	1140.49
605.18	1131.40
605.53	1122.80
605.87	1114.51
606.22	1106.59
606.57	1098.31
606.92	1089.51
607.27	1081.61
607.62	1073.54
607.96	1065.75
608.31	1058.69
608.66	1050.84
609.01	1043.05
609.36	1035.41
609.70	1027.77
610.05	1019.81
610.40	1012.03
610.75	1003.93
611.10	996.42
611.44	988.60
611.79	981.20
612.14	973.79
612.49	966.51
612.83	959.71
613.18	952.87
613.53	945.82
613.88	938.39
614.22	931.30
614.57	924.05
614.92	916.76
615.27	909.91
615.61	902.82
615.96	895.85
616.31	888.97
616.65	882.31
617.00	875.43
617.35	868.92
617.70	862.42
618.04	855.88
618.39	849.30
618.74	843.33
619.08	836.99
619.43	830.74
619.78	824.32
620.12	817.66
620.47	811.19
620.82	804.58
621.16	798.42
621.51	792.82
621.85	786.86
622.20	780.78
622.55	774.36
622.89	768.42
623.24	762.56
623.59	756.79
623.93	751.05
624.28	745.47
624.62	740.29
624.97	735.02
625.32	729.78
625.66	724.40
626.01	718.89
626.35	713.89
626.70	708.89
627.04	704.08
627.39	699.08
627.73	694.30
628.08	689.63
628.43	684.52
628.77	679.37
629.12	674.52
629.46	670.29
629.81	666.30
630.15	661.88
630.50	657.55
630.84	653.20
631.19	648.87
631.53	644.72
631.88	640.00
632.22	635.55
632.57	631.38
632.91	627.20
633.26	623.34
633.60	619.05
633.95	614.64
634.29	610.25
634.64	606.13
634.98	601.63
635.32	597.61
635.67	594.13
636.01	590.39
636.36	586.42
636.70	582.68
637.05	578.70
637.39	574.85
637.73	570.97
638.08	567.37
638.42	563.48
638.77	559.54
639.11	555.57
639.45	551.56
639.80	547.50
640.14	543.78
640.49	540.02
640.83	536.46
641.17	533.24
641.52	529.80
641.86	526.64
642.20	523.74
642.55	520.31
642.89	516.97
643.23	513.79
643.58	510.97
643.92	507.50
644.26	504.50
644.61	501.64
644.95	498.71
645.29	495.62
645.64	492.79
645.98	489.87
646.32	487.20
646.66	484.41
647.01	481.80
647.35	479.22
647.69	476.50
648.04	473.87
648.38	471.35
648.72	468.85
649.06	465.93
649.41	463.05
649.75	460.33
650.09	457.66
650.43	454.95
650.78	452.23
651.12	449.77
651.46	447.08
651.80	444.52
652.14	442.06
652.49	439.73
652.83	437.30
653.17	434.90
653.51	432.45
653.85	430.30
654.20	428.10
654.54	425.67
654.88	423.41
655.22	421.42
655.56	419.13
655.90	416.99
656.25	414.99
656.59	413.01
656.93	411.04
657.27	409.30
657.61	407.02
657.95	404.96
658.29	402.93
658.64	401.07
658.98	399.08
659.32	397.01
659.66	395.02
660.00	393.12
660.34	391.27
660.68	389.40
661.02	387.48
661.36	385.54
661.70	383.68
662.05	381.82
662.39	379.98
662.73	378.23
663.07	376.75
663.41	374.99
663.75	373.16
664.09	371.40
664.43	369.44
664.77	368.05
665.11	366.45
665.45	364.88
665.79	363.35
666.13	361.74
666.47	360.19
666.81	358.60
667.15	356.91
667.49	355.56
667.83	354.46
668.17	353.17
668.51	351.81
668.85	350.61
669.19	349.58
669.53	348.20
669.87	346.80
670.21	345.29
670.55	344.09
670.89	343.14
671.23	341.95
671.57	340.68
671.91	339.45
672.25	338.20
672.58	337.22
672.92	335.87
673.26	334.70
673.60	333.74
673.94	332.67
674.28	331.81
674.62	330.81
674.96	329.49
675.30	328.35
675.64	327.22
675.97	326.05
676.31	324.85
676.65	323.66
676.99	322.77
677.33	321.73
677.67	320.79
678.01	319.49
678.34	318.57
678.68	317.77
679.02	316.77
679.36	315.85
679.70	314.75
680.04	313.88
680.37	312.98
680.71	311.98
681.05	311.21
681.39	310.25
681.73	309.27
682.06	308.32
682.40	307.66
682.74	306.95
683.08	306.31
683.42	305.42
683.75	304.74
684.09	303.87
684.43	303.18
684.77	302.32
685.10	301.62
685.44	300.88
685.78	300.03
686.12	299.40
686.45	298.68
686.79	297.95
687.13	297.30
687.46	296.65
687.80	296.11
688.14	295.34
688.48	294.65
688.81	293.97
689.15	293.49
689.49	292.58
689.82	292.02
690.16	291.10
690.50	290.38
690.83	289.76
691.17	289.04
691.51	288.33
691.84	287.72
692.18	287.10
692.52	286.37
692.85	285.87
693.19	285.42
693.52	284.79
693.86	284.24
694.20	283.59
694.53	283.03
694.87	282.41
695.21	281.81
695.54	281.25
695.88	280.65
696.21	279.92
696.55	279.46
696.88	278.79
697.22	278.30
697.56	277.85
697.89	277.21
698.23	276.77
698.56	276.20
698.90	275.77
699.23	275.21
699.57	274.81
699.90	274.21
700.24	273.57
700.58	273.21
700.91	272.72
701.25	272.64
701.58	272.50
701.92	272.06
702.25	271.69
702.59	271.26
702.92	270.85
703.26	270.45
703.59	270.06
703.93	270.03
704.26	269.74
704.60	269.43
704.93	269.11
705.26	268.59
705.60	268.31
705.93	267.79
706.27	267.58
706.60	267.26
706.94	267.14
707.27	266.72
707.61	266.34
707.94	265.89
708.27	265.09
708.61	264.38
708.94	263.96
709.28	263.60
709.61	263.17
709.94	262.87
710.28	262.62
710.61	262.21
710.95	261.41
711.28	261.32
711.61	260.90
711.95	260.57
712.28	260.29
712.61	259.87
712.95	259.80
713.28	259.63
713.61	259.26
713.95	258.71
714.28	258.44
714.61	258.08
714.95	257.80
715.28	257.52
715.61	257.23
715.95	256.97
716.28	256.59
716.61	256.40
716.95	256.00
717.28	255.72
717.61	255.37
717.94	255.06
718.28	254.42
718.61	254.20
718.94	253.91
719.27	253.68
719.61	253.48
719.94	253.13
720.27	252.70
720.60	252.45
720.94	252.27
721.27	251.98
721.60	251.83
721.93	251.58
722.27	251.58
722.60	251.39
722.93	251.15
723.26	250.95
723.59	250.62
723.93	250.53
724.26	250.30
724.59	250.09
724.92	249.97
725.25	249.95
725.59	249.78
725.92	249.64
726.25	249.46
726.58	249.26
726.91	249.04
727.24	248.88
727.57	248.72
727.91	248.48
728.24	248.37
728.57	248.13
728.90	248.07
729.23	247.71
729.56	247.75
729.89	247.59
730.22	247.43
730.55	247.25
730.89	247.00
731.22	246.73
731.55	246.63
731.88	246.48
732.21	246.19
732.54	245.92
732.87	245.66
733.20	245.43
733.53	245.36
733.86	245.21
734.19	245.00
734.52	244.83
734.85	244.91
735.18	244.75
735.51	244.78
735.84	244.63
736.17	244.65
736.50	244.17
736.83	244.54
737.16	244.32
737.49	244.27
737.82	244.08
738.15	244.05
738.48	243.91
738.81	243.76
739.14	243.62
739.47	243.49
739.80	243.43
740.13	243.32
740.46	243.06
740.79	242.82
741.12	242.66
741.45	242.45
741.78	242.10
742.11	242.03
742.44	241.70
742.77	241.60
743.10	241.31
743.43	241.13
743.75	240.40
744.08	240.87
744.41	240.61
744.74	240.54
745.07	240.35
745.40	240.24
745.73	240.25
746.06	240.03
746.39	239.94
746.71	239.74
747.04	239.58
747.37	239.40
747.70	239.38
748.03	239.23
748.36	239.15
748.68	238.95
749.01	238.71
749.34	238.52
749.67	238.40
750.00	238.38
750.33	238.74
750.65	238.69
750.98	237.99
751.31	238.00
751.64	237.85
751.97	237.94
752.29	237.81
752.62	237.52
752.95	237.45
753.28	237.21
753.60	237.04
753.93	237.09
754.26	237.14
754.59	236.89
754.91	236.76
755.24	236.69
755.57	236.65
755.90	236.49
756.22	236.48
756.55	236.35
756.88	236.14
757.20	235.66
757.53	235.50
757.86	235.45
758.19	235.33
758.51	235.23
758.84	234.89
759.17	234.71
759.49	234.66
759.82	234.82
760.15	234.81
760.47	234.78
760.80	234.53
761.13	234.40
761.45	234.31
761.78	234.26
762.11	234.19
762.43	234.08
762.76	233.99
763.08	233.96
763.41	233.80
763.74	233.78
764.06	233.70
764.39	233.65
764.71	233.50
765.04	233.43
765.37	233.35
765.69	233.27
766.02	233.25
766.34	233.11
766.67	232.84
767.00	232.90
767.32	233.08
767.65	233.35
767.97	233.28
768.30	233.26
768.62	233.24
768.95	233.07
769.27	233.01
769.60	233.10
769.92	232.93
770.25	232.81
770.57	232.63
770.90	232.57
771.22	232.36
771.55	232.37
771.87	232.33
772.20	232.28
772.52	232.62
772.85	233.13
773.17	233.14
773.50	233.07
773.82	232.90
774.15	232.68
774.47	232.32
774.80	232.26
775.12	232.20
775.45	232.15
775.77	232.16
776.09	232.10
776.42	232.02
776.74	232.15
777.07	232.14
777.39	232.17
777.72	232.15
778.04	232.25
778.36	232.16
778.69	232.11
779.01	232.13
779.33	231.72
779.66	231.12
779.98	231.03
780.31	230.98
780.63	231.23
780.95	231.22
781.28	231.17
781.60	231.04
781.92	231.03
782.25	230.98
782.57	230.97
782.89	230.90
783.22	230.84
783.54	230.67
783.86	230.67
784.19	230.56
784.51	230.60
784.83	230.51
785.16	230.42
785.48	230.37
785.80	230.24
786.12	230.23
786.45	230.27
786.77	230.22
787.09	230.20
787.42	229.89
787.74	229.85
788.06	229.81
788.38	229.80
788.71	229.70
789.03	229.62
789.35	229.59
789.67	229.55
789.99	229.45
790.32	229.35
790.64	229.42
790.96	229.76
791.28	229.61
791.61	229.58
791.93	229.56
792.25	229.56
792.57	229.91
792.89	229.80
793.21	229.77
793.54	229.72
793.86	229.63
794.18	229.64
794.50	229.53
794.82	229.55
795.14	229.51
795.47	229.61
795.79	229.59
796.11	229.44
796.43	229.40
796.75	229.45
797.07	229.47
797.39	229.40
797.71	229.08
798.04	228.98
798.36	228.98
798.68	228.99
799.00	228.95
799.32	228.66
799.64	228.67
799.96	228.62
800.28	228.69
800.60	228.66
800.92	228.63
801.24	228.55
801.56	228.48
801.89	228.47
802.21	228.40
802.53	228.32
802.85	228.41
803.17	228.55
803.49	228.38
803.81	228.31
804.13	228.23
804.45	228.19
804.77	228.27
805.09	228.26
805.41	228.22
805.73	228.02
806.05	227.85
806.37	227.84
806.69	227.76
807.01	227.75
807.33	227.75
807.65	227.59
807.97	227.76
808.28	227.76
808.60	227.76
808.92	227.74
809.24	228.10
809.56	228.10
809.88	227.99
810.20	228.04
810.52	228.15
810.84	228.06
811.16	227.95
811.48	227.91
811.80	228.05
812.12	228.07
812.43	228.23
812.75	228.33
813.07	228.25
813.39	228.31
813.71	228.20
814.03	228.15
814.35	228.26
814.67	228.15
814.98	228.05
815.30	228.07
815.62	227.95
815.94	227.59
816.26	227.71
816.58	227.60
816.89	227.67
817.21	227.55
817.53	227.62
817.85	227.64
818.17	227.65
818.48	227.54
818.80	227.62
819.12	227.58
819.44	227.49
819.76	227.52
820.07	227.54
820.39	227.56
820.71	227.66
821.03	227.60
821.34	227.52
821.66	227.67
821.98	227.64
822.30	227.74
822.61	228.04
822.93	227.84
823.25	227.86
823.57	227.85
823.88	227.96
824.20	227.90
824.52	227.99
824.83	228.02
825.15	227.88
825.47	227.80
825.79	227.86
826.10	227.85
826.42	227.84
826.74	227.80
827.05	227.81
827.37	227.80
827.69	227.78
828.00	227.90
828.32	227.85
828.64	227.82
828.95	228.00
829.27	227.83
829.58	227.85
829.90	227.96
830.22	227.95
830.53	227.78
830.85	227.75
831.17	227.67
831.48	227.63
831.80	227.75
832.11	227.80
832.43	227.73
832.75	227.67
833.06	227.91
833.38	227.81
833.69	227.77
834.01	227.73
834.32	227.70
834.64	227.62
834.96	227.60
835.27	227.58
835.59	227.34
835.90	227.30
836.22	227.22
836.53	227.09
836.85	227.01
837.16	227.51
837.48	227.54
837.79	227.68
838.11	227.67
838.42	227.55
838.74	227.50
839.05	227.48
839.37	227.52
839.68	227.20
840.00	227.23
840.31	227.23
840.63	227.21
840.94	227.17
841.26	227.11
841.57	227.02
841.88	227.06
842.20	227.08
842.51	226.94
842.83	226.97
843.14	227.36
843.46	227.36
843.77	227.10
844.08	227.02
844.40	226.86
844.71	226.79
845.03	226.74
845.34	226.72
845.65	226.65
845.97	226.62
846.28	226.64
846.60	226.61
846.91	226.58
847.22	226.53
847.54	226.57
847.85	226.53
848.16	226.56
848.48	226.44
848.79	226.57
849.10	226.63
849.42	226.61
849.73	226.19
850.04	226.15
850.36	226.01
850.67	226.06
850.98	226.04
851.30	226.13
851.61	226.09
851.92	226.09
852.23	226.23
852.55	226.25
852.86	226.32
853.17	226.36
853.49	226.41
853.80	226.55
854.11	226.62
854.42	226.71
854.74	226.65
855.05	226.71
855.36	226.50
855.67	226.55
855.99	226.63
856.30	227.25
856.61	227.29
856.92	227.34
857.23	227.40
857.55	227.37
857.86	227.44
858.17	227.60
858.48	227.54
858.79	227.41
859.11	227.55
859.42	227.46
859.73	227.43
860.04	227.45
860.35	227.31
860.66	227.15
860.98	227.14
861.29	227.15
861.60	227.12
861.91	227.24
862.22	227.25
862.53	227.12
862.84	226.57
863.16	226.75
863.47	226.64
863.78	226.62
864.09	226.70
864.40	226.66
864.71	226.61
865.02	226.66
865.33	226.63
865.64	226.50
865.95	226.57
866.27	226.87
866.58	226.80
866.89	226.90
867.20	226.87
867.51	226.79
867.82	226.82
868.13	227.01
868.44	226.91
868.75	226.93
869.06	226.99
869.37	226.99
869.68	226.68
869.99	226.79
870.30	226.78
870.61	226.84
870.92	226.72
871.23	226.67
871.54	226.74
871.85	226.82
872.16	226.85
872.47	226.81
872.78	226.50
873.09	226.59
873.40	226.53
873.71	226.63
874.02	226.69
874.33	226.65
874.64	226.57
874.95	226.66
875.26	226.62
875.56	226.58
875.87	226.57
876.18	226.65
876.49	227.09
876.80	227.12
877.11	226.95
877.42	226.95
877.73	227.05
878.04	226.98
878.35	227.05
878.66	227.10
878.96	227.11
879.27	227.15
879.58	227.08
879.89	227.04
880.20	227.16
880.51	227.15
880.82	227.19
881.12	227.20
881.43	227.13
881.74	226.98
882.05	226.92
882.36	226.95
882.67	227.03
882.97	226.52
883.28	226.42
883.59	226.46
883.90	226.52
884.21	226.60
884.51	226.53
884.82	226.41
885.13	226.31
885.44	226.30
885.74	226.28
886.05	226.29
886.36	226.35
886.67	226.17
886.98	226.39
887.28	226.46
887.59	226.44
887.90	226.47
888.20	226.50
888.51	226.67
888.82	226.52
889.13	226.54
889.43	226.93
889.74	226.90
890.05	226.86
890.35	226.79
890.66	226.67
890.97	226.67
891.28	226.65
891.58	226.67
891.89	226.66
892.20	226.65
892.50	226.65
892.81	226.64
893.12	226.67
893.42	226.38
893.73	226.35
894.04	226.30
894.34	226.32
894.65	226.29
894.95	226.20
895.26	226.26
895.57	226.44
895.87	225.93
896.18	225.99
896.48	226.05
896.79	226.04
897.10	226.05
897.40	226.10
897.71	226.13
898.01	226.17
898.32	226.28
898.63	226.25
898.93	226.20
899.24	226.17
899.54	226.15
899.85	226.14
900.15	226.10
900.46	226.13
900.76	226.20
901.07	226.19
901.38	226.18
901.68	226.26
901.99	226.02
902.29	226.16
902.60	226.15
902.90	226.12
903.21	226.18
903.51	226.18
903.82	226.23
904.12	226.30
904.43	226.25
904.73	226.13
905.03	226.12
905.34	226.60
905.64	226.57
905.95	226.56
906.25	226.61
906.56	226.59
906.86	226.55
907.17	226.45
907.47	226.49
907.77	226.44
908.08	226.38
908.38	226.37
908.69	226.39
908.99	226.46
909.30	226.50
909.60	226.49
909.90	226.47
910.21	226.35
910.51	226.29
910.81	226.31
911.12	226.39
911.42	226.43
911.73	225.94
912.03	225.98
912.33	226.10
912.64	226.09
912.94	226.14
913.24	226.11
913.55	226.04
913.85	226.05
914.15	226.16
914.46	226.20
914.76	226.16
915.06	226.10
915.37	226.01
915.67	226.00
915.97	226.03
916.27	226.01
916.58	226.06
916.88	226.01
917.18	225.97
917.49	226.24
917.79	226.20
918.09	226.34
918.39	226.44
918.70	226.35
919.00	226.35
919.30	226.46
919.60	226.46
919.91	226.44
920.21	226.44
920.51	226.30
920.81	226.23
921.12	226.33
921.42	226.36
921.72	226.39
922.02	226.37
922.32	226.41
922.63	226.35
922.93	226.56
923.23	226.63
923.53	226.66
923.83	226.35
924.13	226.49
924.44	226.34
924.74	226.44
925.04	226.59
925.34	226.59
925.64	226.43
925.94	226.36
926.24	226.63
926.55	226.64
926.85	226.66
927.15	226.66
927.45	226.67
927.75	226.65
928.05	226.68
928.35	226.61
928.65	226.66
928.95	226.77
929.26	226.54
929.56	226.54
929.86	226.53
930.16	226.47
930.46	226.34
930.76	226.42
931.06	226.11
931.36	225.90
931.66	225.98
931.96	226.05
932.26	226.08
932.56	225.88
932.86	225.88
933.16	225.96
933.46	225.94
933.76	225.84
934.06	225.98
934.36	226.06
934.66	226.09
934.96	226.07
935.26	226.06
935.56	226.22
935.86	226.14
936.16	226.07
936.46	226.10
936.76	226.11
937.06	226.03
937.36	226.14
937.66	226.14
937.96	226.12
938.26	226.01
938.56	226.00
938.86	226.03
939.16	226.13
939.46	226.15
939.76	226.21
940.06	226.26
940.35	226.11
940.65	225.86
940.95	225.93
941.25	225.75
941.55	225.67
941.85	225.55
942.15	225.72
942.45	225.89
942.75	225.85
943.04	225.90
943.34	225.99
943.64	225.94
943.94	225.99
944.24	225.97
944.54	226.03
944.84	225.99
945.13	225.93
945.43	225.90
945.73	225.95
946.03	225.88
946.33	225.80
946.62	225.79
946.92	225.89
947.22	225.86
947.52	225.96
947.82	226.04
948.11	226.05
948.41	225.91
948.71	225.79
949.01	225.89
949.31	225.83
949.60	225.80
949.90	225.81
950.20	225.75
950.50	225.78
950.79	225.72
951.09	225.87
951.39	225.91
951.69	225.85
951.98	225.83
952.28	225.92
952.58	225.90
952.87	225.93
953.17	225.95
953.47	225.95
953.76	225.95
954.06	225.90
954.36	225.83
954.66	225.83
954.95	225.95
955.25	225.99
955.55	226.07
955.84	226.03
956.14	226.14
956.44	226.11
956.73	226.03
957.03	226.15
957.32	226.17
957.62	226.13
957.92	226.17
958.21	226.21
958.51	226.66
958.81	226.83
959.10	226.87
959.40	226.99
959.69	227.05
959.99	227.05
960.29	227.00
960.58	226.94
960.88	227.08
961.17	226.97
961.47	226.96
961.76	226.82
962.06	226.88
962.36	226.75
962.65	226.88
962.95	226.88
963.24	226.82
963.54	226.79
963.83	226.77
964.13	226.77
964.42	226.58
964.72	226.17
965.01	226.08
965.31	226.00
965.60	225.87
965.90	226.11
966.19	225.99
966.49	226.09
966.78	226.15
967.08	226.15
967.37	226.17
967.67	226.10
967.96	226.19
968.26	226.17
968.55	226.33
968.85	226.22
969.14	226.25
969.43	226.18
969.73	226.12
970.02	226.10
970.32	226.09
970.61	226.12
970.91	225.92
971.20	225.93
971.49	225.85
971.79	225.91
972.08	225.57
972.38	225.62
972.67	225.58
972.96	225.60
973.26	225.48
973.55	225.63
973.85	225.60
974.14	225.58
974.43	225.64
974.73	225.49
975.02	225.46
975.31	225.50
975.61	225.55
975.90	225.53
976.19	225.50
976.49	225.54
976.78	225.57
977.07	225.61
977.37	225.57
977.66	225.68
977.95	225.60
978.24	225.66
978.54	225.73
978.83	225.68
979.12	225.67
979.42	225.63
979.71	225.53
980.00	225.52
980.29	225.58
980.59	225.47
980.88	225.60
981.17	225.61
981.46	225.59
981.76	225.57
982.05	225.77
982.34	225.79
982.63	225.82
982.93	225.85
983.22	226.05
983.51	226.11
983.80	226.27
984.09	226.38
984.39	226.37
984.68	226.33
984.97	226.37
985.26	226.41
985.55	226.52
985.85	226.47
986.14	226.55
986.43	226.59
986.72	226.61
987.01	226.43
987.30	226.35
987.59	226.32
987.89	226.30
988.18	226.13
988.47	226.15
988.76	226.09
989.05	226.02
989.34	225.86
989.63	225.95
989.92	225.75
990.22	225.70
990.51	225.70
990.80	225.73
991.09	225.77
991.38	225.75
991.67	225.66
991.96	225.63
992.25	225.61
992.54	225.53
992.83	225.52
993.12	225.56
993.41	225.68
993.70	225.80
993.99	225.89
994.28	225.97
994.58	225.97
994.87	225.90
995.16	225.93
995.45	225.95
995.74	225.83
996.03	225.89
996.32	225.89
996.61	225.94
996.90	225.86
997.19	225.86
997.48	225.85
997.77	225.80
998.06	225.85
998.34	225.81
998.63	225.76
998.92	225.85
999.21	225.91
999.50	225.93
999.79	225.80
1000.08	225.80
1000.37	225.74
1000.66	225.77
1000.95	225.88
1001.24	225.90
1001.53	225.91
1001.82	225.84
1002.11	225.81
1002.40	225.86
1002.68	225.97
1002.97	226.35
1003.26	226.28
1003.55	226.24
1003.84	226.35
1004.13	226.43
1004.42	226.42
1004.71	226.44
1004.99	226.38
1005.28	226.47
1005.57	226.43
1005.86	226.42
1006.15	226.30
1006.44	226.27
1006.72	226.36
1007.01	226.25
1007.30	226.21
1007.59	226.20
1007.88	226.29
1008.17	226.25
1008.45	226.10
1008.74	225.93
1009.03	225.63
1009.32	225.57
1009.60	225.59
1009.89	225.53
1010.18	225.36
1010.47	225.35
1010.76	225.36
1011.04	225.33
1011.33	225.37
1011.62	225.39
1011.91	225.40
1012.19	225.50
1012.48	225.50
1012.77	225.43
1013.05	225.71
1013.34	225.70
1013.63	225.63
1013.92	225.61
1014.20	225.62
1014.49	225.65
1014.78	225.58
1015.06	225.46
1015.35	225.55
1015.64	225.56
1015.92	225.59
1016.21	225.59
1016.50	225.55
1016.78	225.58
1017.07	225.60
1017.36	225.46
1017.64	225.31
1017.93	225.38
1018.22	225.37
1018.50	225.31
1018.79	225.23
1019.08	224.96
1019.36	224.99
1019.65	224.99
1019.93	225.16
1020.22	225.25
1020.51	225.52
1020.79	225.55
1021.08	225.70
1021.36	224.00
1021.65	224.50
1021.94	225.05
1022.22	225.30
1022.51	224.80
1022.79	228.95
1023.08	226.95
1023.36	230.60
1023.65	224.80
>>>>>End Processed Spectral Data<<<<<
