SpectraSuite Data File
++++++++++++++++++++++++++++++++++++
Date: Wed Sep 04 17:40:51 EDT 2013
User: lab3
Dark Spectrum Present: Yes
Reference Spectrum Present: No
Number of Sampled Component Spectra: 1
Spectrometers: USB2E7196
Integration Time (usec): 170000 (USB2E7196)
Spectra Averaged: 20 (USB2E7196)
Boxcar Smoothing: 10 (USB2E7196)
Correct for Electrical Dark: No (USB2E7196)
Strobe/Lamp Enabled: No (USB2E7196)
Correct for Detector Non-linearity: No (USB2E7196)
Correct for Stray Light: No (USB2E7196)
Number of Pixels in Processed Spectrum: 2048
>>>>>Begin Processed Spectral Data<<<<<
339.09	0.00
339.48	212.50
339.86	213.60
340.24	214.90
340.63	216.95
341.01	224.90
341.39	219.70
341.78	221.40
342.16	223.80
342.54	222.65
342.93	211.87
343.31	222.56
343.69	223.13
344.07	223.62
344.46	224.11
344.84	224.50
345.22	224.49
345.60	224.82
345.99	225.00
346.37	225.01
346.75	225.10
347.13	225.14
347.52	225.20
347.90	225.50
348.28	225.45
348.66	225.57
349.05	225.42
349.43	225.52
349.81	225.59
350.19	225.65
350.57	225.65
350.96	225.69
351.34	225.76
351.72	225.82
352.10	225.86
352.48	225.85
352.87	225.89
353.25	225.97
353.63	225.95
354.01	226.04
354.39	226.21
354.77	226.26
355.15	226.47
355.54	226.54
355.92	226.37
356.30	226.55
356.68	226.89
357.06	227.05
357.44	226.96
357.82	227.00
358.20	227.46
358.58	227.50
358.97	227.63
359.35	227.70
359.73	227.86
360.11	227.94
360.49	228.09
360.87	228.16
361.25	228.15
361.63	228.36
362.01	228.40
362.39	228.42
362.77	228.49
363.15	228.45
363.53	228.40
363.91	228.46
364.29	228.47
364.67	228.12
365.05	228.17
365.43	228.25
365.81	228.32
366.19	228.23
366.57	228.49
366.95	228.47
367.33	228.44
367.71	228.41
368.09	228.52
368.47	228.48
368.85	228.44
369.23	228.58
369.61	228.43
369.99	228.58
370.37	228.61
370.75	228.82
371.13	228.67
371.51	228.60
371.89	228.64
372.27	228.61
372.65	228.59
373.03	228.48
373.41	228.40
373.78	228.26
374.16	227.90
374.54	227.67
374.92	227.53
375.30	227.51
375.68	227.37
376.06	227.29
376.44	227.16
376.82	227.11
377.19	227.03
377.57	226.90
377.95	226.60
378.33	226.41
378.71	226.07
379.09	226.09
379.47	226.08
379.84	225.90
380.22	225.75
380.60	225.61
380.98	225.48
381.36	225.39
381.73	225.28
382.11	225.30
382.49	225.24
382.87	225.19
383.25	225.03
383.62	225.52
384.00	225.36
384.38	225.29
384.76	225.32
385.13	225.47
385.51	225.41
385.89	225.32
386.27	225.32
386.64	225.34
387.02	225.23
387.40	225.07
387.78	225.02
388.15	225.05
388.53	224.95
388.91	224.95
389.29	224.91
389.66	224.96
390.04	224.83
390.42	224.91
390.79	224.87
391.17	224.91
391.55	224.45
391.92	224.46
392.30	224.59
392.68	224.42
393.05	224.31
393.43	224.36
393.81	224.44
394.18	224.39
394.56	224.43
394.94	224.53
395.31	224.61
395.69	224.86
396.06	224.93
396.44	225.00
396.82	225.06
397.19	225.41
397.57	225.41
397.95	225.59
398.32	225.46
398.70	225.64
399.07	225.80
399.45	225.79
399.82	225.89
400.20	225.87
400.58	226.02
400.95	225.99
401.33	226.15
401.70	226.63
402.08	226.83
402.45	226.96
402.83	227.30
403.20	227.44
403.58	227.46
403.95	227.73
404.33	227.97
404.71	228.15
405.08	228.49
405.46	228.69
405.83	228.85
406.21	229.12
406.58	229.38
406.96	229.68
407.33	229.95
407.70	230.27
408.08	231.03
408.45	231.53
408.83	231.95
409.20	232.30
409.58	232.37
409.95	232.83
410.33	233.32
410.70	233.58
411.08	234.13
411.45	234.70
411.82	235.14
412.20	235.81
412.57	236.63
412.95	236.92
413.32	237.75
413.69	238.50
414.07	239.29
414.44	240.20
414.82	241.01
415.19	242.05
415.56	243.03
415.94	243.81
416.31	244.94
416.68	246.12
417.06	247.44
417.43	248.82
417.81	250.27
418.18	251.66
418.55	253.30
418.93	255.02
419.30	256.76
419.67	258.70
420.04	260.49
420.42	262.39
420.79	265.03
421.16	267.30
421.54	269.87
421.91	272.38
422.28	274.80
422.66	277.45
423.03	280.36
423.40	283.15
423.77	286.01
424.15	289.03
424.52	292.14
424.89	295.64
425.26	298.93
425.64	302.11
426.01	305.54
426.38	309.15
426.75	312.91
427.13	316.72
427.50	320.53
427.87	324.71
428.24	328.82
428.61	332.40
428.99	336.79
429.36	341.24
429.73	345.70
430.10	350.31
430.47	355.11
430.85	359.63
431.22	364.77
431.59	370.56
431.96	375.63
432.33	381.52
432.70	387.03
433.08	393.54
433.45	399.64
433.82	405.87
434.19	412.67
434.56	419.35
434.93	425.69
435.30	432.18
435.68	439.33
436.05	446.27
436.42	453.14
436.79	459.48
437.16	466.36
437.53	473.69
437.90	480.93
438.27	487.87
438.64	495.32
439.01	502.41
439.38	508.29
439.75	514.34
440.13	520.89
440.50	527.20
440.87	532.29
441.24	537.71
441.61	543.54
441.98	547.79
442.35	552.70
442.72	557.73
443.09	562.70
443.46	565.45
443.83	567.39
444.20	569.19
444.57	571.37
444.94	572.36
445.31	573.37
445.68	574.70
446.05	575.18
446.42	574.14
446.79	572.93
447.16	571.58
447.53	570.51
447.90	567.50
448.27	564.45
448.64	560.45
449.01	557.49
449.37	552.46
449.74	547.65
450.11	542.04
450.48	535.61
450.85	528.89
451.22	523.37
451.59	518.05
451.96	512.97
452.33	506.46
452.70	500.47
453.07	493.30
453.43	485.64
453.80	478.63
454.17	472.05
454.54	465.60
454.91	458.90
455.28	452.30
455.65	446.12
456.02	440.62
456.38	435.45
456.75	428.85
457.12	423.57
457.49	418.18
457.86	412.73
458.23	408.64
458.59	403.97
458.96	399.20
459.33	395.06
459.70	390.71
460.07	387.39
460.43	383.53
460.80	379.99
461.17	376.99
461.54	373.61
461.91	370.54
462.27	367.31
462.64	364.68
463.01	361.71
463.38	359.05
463.74	355.59
464.11	353.15
464.48	351.05
464.85	348.57
465.21	346.80
465.58	345.02
465.95	342.57
466.32	340.71
466.68	338.85
467.05	336.97
467.42	335.19
467.78	333.23
468.15	331.44
468.52	330.20
468.88	328.23
469.25	326.65
469.62	325.51
469.98	324.20
470.35	322.93
470.72	321.76
471.08	320.33
471.45	319.30
471.82	318.20
472.18	317.00
472.55	316.14
472.92	315.07
473.28	314.15
473.65	313.30
474.02	312.52
474.38	311.83
474.75	311.21
475.11	310.54
475.48	310.10
475.85	309.68
476.21	309.17
476.58	308.91
476.94	308.68
477.31	308.29
477.67	308.05
478.04	307.82
478.41	307.78
478.77	308.14
479.14	307.97
479.50	307.90
479.87	308.00
480.23	308.09
480.60	308.16
480.96	308.28
481.33	308.61
481.69	308.83
482.06	309.07
482.42	309.36
482.79	309.75
483.15	310.11
483.52	310.75
483.88	311.23
484.25	311.83
484.61	312.49
484.98	313.09
485.34	314.00
485.71	314.82
486.07	315.70
486.44	316.31
486.80	317.37
487.17	318.35
487.53	319.69
487.90	320.99
488.26	322.59
488.62	324.21
488.99	325.68
489.35	327.31
489.72	329.05
490.08	330.79
490.44	332.60
490.81	334.72
491.17	336.64
491.54	338.98
491.90	341.30
492.26	343.78
492.63	346.47
492.99	349.03
493.36	351.91
493.72	354.96
494.08	358.11
494.45	361.51
494.81	365.12
495.17	368.60
495.54	372.33
495.90	376.16
496.26	380.12
496.63	384.27
496.99	388.57
497.35	393.17
497.72	398.01
498.08	402.87
498.44	407.91
498.80	413.36
499.17	418.79
499.53	424.34
499.89	430.31
500.26	436.10
500.62	442.35
500.98	448.95
501.34	455.54
501.71	462.33
502.07	469.25
502.43	476.48
502.79	483.84
503.16	491.40
503.52	499.36
503.88	507.47
504.24	516.05
504.60	524.93
504.97	533.99
505.33	543.01
505.69	552.68
506.05	562.30
506.41	572.12
506.78	582.09
507.14	592.59
507.50	603.20
507.86	614.40
508.22	625.69
508.59	636.95
508.95	648.72
509.31	660.95
509.67	673.19
510.03	685.32
510.39	697.85
510.75	710.84
511.12	723.62
511.48	736.86
511.84	750.05
512.20	763.33
512.56	776.95
512.92	790.97
513.28	805.34
513.64	819.79
514.00	834.19
514.37	849.14
514.73	864.04
515.09	879.31
515.45	894.36
515.81	909.43
516.17	924.63
516.53	939.83
516.89	954.85
517.25	970.52
517.61	987.08
517.97	1003.42
518.33	1019.55
518.69	1036.00
519.05	1052.53
519.41	1069.21
519.77	1086.18
520.13	1102.96
520.49	1119.46
520.85	1137.34
521.21	1153.86
521.57	1170.70
521.93	1186.90
522.29	1203.77
522.65	1219.60
523.01	1236.07
523.37	1252.02
523.73	1268.53
524.09	1284.28
524.45	1300.40
524.81	1316.45
525.17	1332.10
525.53	1347.89
525.89	1363.83
526.25	1379.50
526.61	1394.83
526.97	1410.56
527.33	1426.28
527.68	1442.56
528.04	1458.30
528.40	1472.21
528.76	1487.97
529.12	1503.14
529.48	1518.60
529.84	1532.89
530.20	1548.47
530.56	1563.45
530.91	1578.72
531.27	1593.32
531.63	1608.42
531.99	1622.95
532.35	1637.25
532.71	1651.70
533.07	1666.33
533.42	1680.30
533.78	1694.37
534.14	1708.07
534.50	1720.92
534.86	1733.90
535.21	1745.42
535.57	1758.13
535.93	1770.15
536.29	1781.84
536.65	1793.99
537.00	1805.52
537.36	1817.00
537.72	1827.72
538.08	1838.87
538.44	1849.52
538.79	1859.99
539.15	1870.47
539.51	1880.85
539.87	1890.41
540.22	1898.91
540.58	1907.68
540.94	1915.51
541.29	1922.80
541.65	1930.08
542.01	1937.75
542.37	1943.96
542.72	1950.26
543.08	1955.90
543.44	1962.53
543.79	1967.83
544.15	1972.48
544.51	1977.71
544.87	1982.61
545.22	1986.50
545.58	1989.74
545.94	1992.80
546.29	1995.31
546.65	1997.35
547.01	1998.95
547.36	2000.38
547.72	2001.99
548.07	2002.03
548.43	2003.27
548.79	2004.15
549.14	2004.71
549.50	2004.88
549.86	2005.01
550.21	2005.31
550.57	2005.21
550.92	2003.31
551.28	2001.74
551.64	2001.30
551.99	2000.06
552.35	1999.05
552.70	1997.88
553.06	1996.71
553.41	1995.18
553.77	1994.22
554.13	1993.00
554.48	1991.73
554.84	1990.35
555.19	1988.64
555.55	1987.77
555.90	1985.25
556.26	1982.35
556.61	1978.98
556.97	1975.40
557.32	1972.72
557.68	1969.66
558.03	1966.42
558.39	1963.42
558.74	1960.88
559.10	1956.33
559.45	1951.59
559.81	1946.43
560.16	1941.06
560.52	1935.67
560.87	1930.57
561.23	1924.53
561.58	1918.61
561.94	1911.81
562.29	1904.74
562.64	1898.40
563.00	1890.77
563.35	1884.52
563.71	1878.06
564.06	1871.97
564.42	1865.72
564.77	1859.26
565.12	1852.27
565.48	1845.69
565.83	1838.74
566.19	1831.55
566.54	1824.53
566.89	1817.56
567.25	1810.61
567.60	1804.35
567.96	1797.85
568.31	1790.99
568.66	1783.75
569.02	1776.00
569.37	1769.15
569.72	1762.55
570.08	1754.57
570.43	1746.54
570.78	1738.53
571.14	1730.83
571.49	1722.75
571.84	1714.80
572.20	1706.04
572.55	1697.93
572.90	1689.01
573.26	1680.82
573.61	1671.67
573.96	1663.02
574.31	1653.60
574.67	1644.14
575.02	1633.96
575.37	1624.07
575.72	1613.77
576.08	1604.33
576.43	1594.92
576.78	1584.80
577.13	1574.58
577.49	1564.82
577.84	1555.96
578.19	1546.90
578.54	1537.53
578.90	1528.53
579.25	1519.10
579.60	1509.71
579.95	1499.92
580.30	1490.03
580.66	1479.84
581.01	1470.05
581.36	1459.70
581.71	1450.56
582.06	1441.34
582.42	1432.32
582.77	1422.93
583.12	1414.51
583.47	1405.29
583.82	1396.49
584.17	1387.90
584.53	1379.41
584.88	1369.99
585.23	1360.82
585.58	1350.90
585.93	1341.22
586.28	1331.48
586.63	1321.48
586.98	1311.42
587.34	1302.17
587.69	1292.86
588.04	1284.34
588.39	1275.80
588.74	1266.99
589.09	1258.44
589.44	1249.25
589.79	1240.74
590.14	1232.20
590.49	1223.37
590.84	1214.99
591.19	1206.27
591.54	1197.69
591.89	1188.93
592.25	1181.95
592.60	1173.68
592.95	1165.47
593.30	1157.29
593.65	1148.95
594.00	1140.75
594.35	1134.70
594.70	1126.36
595.05	1118.51
595.40	1109.85
595.75	1101.56
596.10	1093.99
596.45	1085.89
596.80	1078.30
597.15	1070.35
597.50	1062.19
597.85	1054.30
598.19	1046.29
598.54	1038.39
598.89	1030.52
599.24	1023.27
599.59	1015.07
599.94	1007.62
600.29	1000.65
600.64	993.52
600.99	986.36
601.34	979.82
601.69	971.36
602.04	964.70
602.39	957.98
602.74	951.83
603.08	945.34
603.43	939.10
603.78	932.58
604.13	926.22
604.48	919.75
604.83	913.42
605.18	906.87
605.53	900.57
605.87	894.44
606.22	888.59
606.57	882.25
606.92	875.98
607.27	869.94
607.62	864.05
607.96	858.39
608.31	852.95
608.66	847.20
609.01	841.43
609.36	835.75
609.70	830.01
610.05	824.13
610.40	818.57
610.75	812.65
611.10	806.80
611.44	800.93
611.79	795.47
612.14	790.13
612.49	784.88
612.83	779.69
613.18	774.40
613.53	769.19
613.88	763.94
614.22	758.68
614.57	753.25
614.92	747.85
615.27	742.68
615.61	737.43
615.96	732.30
616.31	727.38
616.65	722.47
617.00	717.42
617.35	712.42
617.70	707.44
618.04	702.64
618.39	697.97
618.74	693.74
619.08	689.00
619.43	684.11
619.78	679.20
620.12	674.46
620.47	669.83
620.82	664.95
621.16	660.32
621.51	656.15
621.85	651.89
622.20	647.47
622.55	642.90
622.89	638.66
623.24	634.27
623.59	629.86
623.93	625.54
624.28	621.54
624.62	618.00
624.97	614.20
625.32	610.17
625.66	606.13
626.01	601.95
626.35	598.22
626.70	594.50
627.04	591.07
627.39	587.23
627.73	583.69
628.08	580.14
628.43	576.36
628.77	572.57
629.12	569.08
629.46	565.80
629.81	562.83
630.15	559.49
630.50	556.25
630.84	552.96
631.19	549.82
631.53	546.59
631.88	542.80
632.22	539.29
632.57	536.32
632.91	533.24
633.26	530.21
633.60	527.00
633.95	523.89
634.29	520.58
634.64	517.64
634.98	514.41
635.32	511.50
635.67	508.91
636.01	506.11
636.36	503.04
636.70	500.29
637.05	497.22
637.39	494.49
637.73	491.79
638.08	489.18
638.42	486.26
638.77	483.28
639.11	480.40
639.45	477.56
639.80	474.48
640.14	471.75
640.49	469.04
640.83	466.49
641.17	464.00
641.52	461.50
641.86	459.07
642.20	456.93
642.55	454.45
642.89	452.00
643.23	449.58
643.58	447.59
643.92	444.99
644.26	442.62
644.61	440.32
644.95	437.99
645.29	435.60
645.64	433.48
645.98	431.43
646.32	429.42
646.66	427.34
647.01	425.35
647.35	423.35
647.69	421.15
648.04	419.20
648.38	417.18
648.72	415.15
649.06	412.97
649.41	410.77
649.75	408.63
650.09	406.65
650.43	404.70
650.78	402.48
651.12	400.45
651.46	398.52
651.80	396.57
652.14	394.63
652.49	392.85
652.83	391.04
653.17	389.20
653.51	387.34
653.85	385.73
654.20	384.04
654.54	382.20
654.88	380.55
655.22	378.97
655.56	377.30
655.90	375.64
656.25	374.16
656.59	372.55
656.93	371.21
657.27	369.72
657.61	368.05
657.95	366.65
658.29	365.21
658.64	363.82
658.98	362.24
659.32	360.66
659.66	359.18
660.00	357.72
660.34	356.27
660.68	354.84
661.02	353.41
661.36	352.05
661.70	350.75
662.05	349.49
662.39	348.11
662.73	346.95
663.07	345.98
663.41	344.69
663.75	343.38
664.09	342.09
664.43	340.70
664.77	339.53
665.11	338.27
665.45	337.13
665.79	336.04
666.13	334.83
666.47	333.65
666.81	332.54
667.15	331.20
667.49	330.18
667.83	329.38
668.17	328.26
668.51	327.22
668.85	326.29
669.19	325.47
669.53	324.29
669.87	323.10
670.21	321.85
670.55	320.82
670.89	320.21
671.23	319.15
671.57	318.28
671.91	317.35
672.25	316.46
672.58	315.66
672.92	314.55
673.26	313.77
673.60	313.09
673.94	312.24
674.28	311.57
674.62	310.77
674.96	309.68
675.30	308.96
675.64	308.16
675.97	307.30
676.31	306.25
676.65	305.51
676.99	304.90
677.33	304.03
677.67	303.31
678.01	302.24
678.34	301.53
678.68	300.82
679.02	300.06
679.36	299.32
679.70	298.53
680.04	297.91
680.37	297.17
680.71	296.37
681.05	295.72
681.39	295.06
681.73	294.40
682.06	293.80
682.40	293.07
682.74	292.48
683.08	291.99
683.42	291.36
683.75	290.82
684.09	290.15
684.43	289.63
684.77	289.00
685.10	288.40
685.44	287.80
685.78	287.19
686.12	286.65
686.45	285.97
686.79	285.34
687.13	284.91
687.46	284.36
687.80	283.91
688.14	283.20
688.48	282.65
688.81	282.09
689.15	281.68
689.49	281.16
689.82	280.71
690.16	280.02
690.50	279.53
690.83	278.89
691.17	278.30
691.51	277.86
691.84	277.39
692.18	276.88
692.52	276.38
692.85	275.89
693.19	275.61
693.52	275.15
693.86	274.67
694.20	274.15
694.53	273.70
694.87	273.20
695.21	272.79
695.54	272.25
695.88	271.74
696.21	271.13
696.55	270.70
696.88	270.16
697.22	269.64
697.56	269.32
697.89	268.88
698.23	268.51
698.56	268.06
698.90	267.76
699.23	267.36
699.57	266.93
699.90	266.48
700.24	265.91
700.58	265.60
700.91	265.30
701.25	265.35
701.58	265.37
701.92	265.10
702.25	264.78
702.59	264.45
702.92	264.16
703.26	263.86
703.59	263.51
703.93	263.67
704.26	263.43
704.60	263.14
704.93	262.83
705.26	262.49
705.60	262.21
705.93	261.75
706.27	261.53
706.60	261.40
706.94	261.30
707.27	260.98
707.61	260.77
707.94	260.42
708.27	259.68
708.61	258.96
708.94	258.55
709.28	258.24
709.61	257.92
709.94	257.68
710.28	257.38
710.61	257.20
710.95	256.40
711.28	256.49
711.61	256.17
711.95	255.99
712.28	255.55
712.61	255.20
712.95	255.14
713.28	255.17
713.61	254.76
713.95	254.30
714.28	254.09
714.61	253.73
714.95	253.48
715.28	253.22
715.61	252.96
715.95	252.80
716.28	252.56
716.61	252.42
716.95	252.13
717.28	251.92
717.61	251.60
717.94	251.36
718.28	250.82
718.61	250.56
718.94	250.28
719.27	250.16
719.61	250.00
719.94	249.73
720.27	249.18
720.60	249.03
720.94	248.83
721.27	248.67
721.60	248.52
721.93	248.32
722.27	248.26
722.60	248.19
722.93	247.97
723.26	247.79
723.59	247.53
723.93	247.40
724.26	247.23
724.59	246.98
724.92	246.80
725.25	246.71
725.59	246.51
725.92	246.38
726.25	246.22
726.58	246.10
726.91	245.89
727.24	245.87
727.57	245.67
727.91	245.51
728.24	245.32
728.57	245.10
728.90	244.98
729.23	244.63
729.56	244.64
729.89	244.40
730.22	244.20
730.55	244.00
730.89	243.84
731.22	243.69
731.55	243.55
731.88	243.42
732.21	243.15
732.54	242.89
732.87	242.74
733.20	242.53
733.53	242.38
733.86	242.28
734.19	241.94
734.52	241.87
734.85	242.02
735.18	241.83
735.51	241.87
735.84	241.76
736.17	241.86
736.50	241.47
736.83	241.99
737.16	241.85
737.49	241.83
737.82	241.58
738.15	241.57
738.48	241.45
738.81	241.36
739.14	241.15
739.47	241.00
739.80	240.82
740.13	240.79
740.46	240.64
740.79	240.41
741.12	240.38
741.45	240.11
741.78	239.79
742.11	239.88
742.44	239.59
742.77	239.52
743.10	239.27
743.43	239.19
743.75	238.56
744.08	239.07
744.41	238.86
744.74	238.82
745.07	238.50
745.40	238.48
745.73	238.55
746.06	238.50
746.39	238.47
746.71	238.37
747.04	238.26
747.37	238.05
747.70	238.06
748.03	237.93
748.36	237.97
748.68	237.81
749.01	237.49
749.34	237.48
749.67	237.41
750.00	237.32
750.33	237.60
750.65	237.47
750.98	236.88
751.31	236.84
751.64	236.75
751.97	236.96
752.29	236.89
752.62	236.61
752.95	236.51
753.28	236.42
753.60	236.36
753.93	236.41
754.26	236.43
754.59	236.17
754.91	236.07
755.24	235.93
755.57	235.91
755.90	235.80
756.22	235.58
756.55	235.45
756.88	235.32
757.20	234.89
757.53	234.66
757.86	234.54
758.19	234.43
758.51	234.38
758.84	234.08
759.17	233.93
759.49	233.83
759.82	234.01
760.15	233.99
760.47	233.95
760.80	233.66
761.13	233.62
761.45	233.65
761.78	233.60
762.11	233.57
762.43	233.42
762.76	233.41
763.08	233.45
763.41	233.35
763.74	233.31
764.06	233.18
764.39	233.20
764.71	233.10
765.04	233.03
765.37	232.89
765.69	232.75
766.02	232.76
766.34	232.67
766.67	232.42
767.00	232.47
767.32	232.62
767.65	232.86
767.97	232.70
768.30	232.60
768.62	232.50
768.95	232.40
769.27	232.34
769.60	232.35
769.92	232.26
770.25	232.13
770.57	231.99
770.90	231.98
771.22	231.85
771.55	231.77
771.87	231.72
772.20	231.71
772.52	232.05
772.85	232.51
773.17	232.51
773.50	232.41
773.82	232.28
774.15	232.00
774.47	231.62
774.80	231.54
775.12	231.47
775.45	231.37
775.77	231.29
776.09	231.28
776.42	231.22
776.74	231.22
777.07	231.13
777.39	231.15
777.72	231.05
778.04	231.10
778.36	230.97
778.69	230.95
779.01	230.87
779.33	230.45
779.66	229.85
779.98	229.74
780.31	229.78
780.63	229.92
780.95	229.96
781.28	229.96
781.60	229.92
781.92	229.91
782.25	229.93
782.57	229.96
782.89	229.82
783.22	229.72
783.54	229.67
783.86	229.74
784.19	229.60
784.51	229.68
784.83	229.61
785.16	229.61
785.48	229.55
785.80	229.61
786.12	229.63
786.45	229.58
786.77	229.63
787.09	229.50
787.42	229.26
787.74	229.22
788.06	229.27
788.38	229.29
788.71	229.21
789.03	229.22
789.35	229.21
789.67	229.24
789.99	229.25
790.32	229.17
790.64	229.22
790.96	229.63
791.28	229.47
791.61	229.42
791.93	229.48
792.25	229.50
792.57	229.74
792.89	229.61
793.21	229.64
793.54	229.57
793.86	229.54
794.18	229.59
794.50	229.51
794.82	229.49
795.14	229.50
795.47	229.64
795.79	229.55
796.11	229.43
796.43	229.40
796.75	229.38
797.07	229.35
797.39	229.26
797.71	228.94
798.04	228.91
798.36	228.96
798.68	228.92
799.00	228.93
799.32	228.71
799.64	228.82
799.96	228.80
800.28	228.85
800.60	228.76
800.92	228.73
801.24	228.70
801.56	228.70
801.89	228.63
802.21	228.59
802.53	228.58
802.85	228.66
803.17	228.88
803.49	228.73
803.81	228.72
804.13	228.74
804.45	228.65
804.77	228.74
805.09	228.66
805.41	228.56
805.73	228.39
806.05	228.27
806.37	228.20
806.69	228.13
807.01	228.11
807.33	228.16
807.65	227.92
807.97	228.13
808.28	227.97
808.60	227.89
808.92	227.81
809.24	228.12
809.56	228.07
809.88	227.87
810.20	227.95
810.52	228.01
810.84	227.91
811.16	227.85
811.48	227.75
811.80	227.89
812.12	227.90
812.43	228.03
812.75	227.99
813.07	227.99
813.39	227.96
813.71	227.88
814.03	227.88
814.35	228.00
814.67	227.79
814.98	227.79
815.30	227.79
815.62	227.65
815.94	227.33
816.26	227.46
816.58	227.40
816.89	227.43
817.21	227.34
817.53	227.36
817.85	227.41
818.17	227.48
818.48	227.32
818.80	227.42
819.12	227.36
819.44	227.30
819.76	227.22
820.07	227.24
820.39	227.20
820.71	227.27
821.03	227.33
821.34	227.30
821.66	227.40
821.98	227.54
822.30	227.60
822.61	227.88
822.93	227.65
823.25	227.55
823.57	227.50
823.88	227.60
824.20	227.57
824.52	227.65
824.83	227.58
825.15	227.56
825.47	227.54
825.79	227.58
826.10	227.54
826.42	227.52
826.74	227.47
827.05	227.45
827.37	227.40
827.69	227.30
828.00	227.31
828.32	227.34
828.64	227.25
828.95	227.50
829.27	227.37
829.58	227.48
829.90	227.59
830.22	227.61
830.53	227.41
830.85	227.38
831.17	227.19
831.48	227.26
831.80	227.27
832.11	227.27
832.43	227.19
832.75	227.21
833.06	227.51
833.38	227.47
833.69	227.45
834.01	227.49
834.32	227.50
834.64	227.45
834.96	227.44
835.27	227.38
835.59	227.21
835.90	227.10
836.22	226.97
836.53	226.93
836.85	226.85
837.16	227.35
837.48	227.36
837.79	227.54
838.11	227.44
838.42	227.42
838.74	227.45
839.05	227.39
839.37	227.31
839.68	226.97
840.00	226.97
840.31	227.13
840.63	227.07
840.94	227.03
841.26	226.96
841.57	226.87
841.88	226.94
842.20	226.84
842.51	226.70
842.83	226.77
843.14	227.17
843.46	227.22
843.77	227.06
844.08	226.94
844.40	226.80
844.71	226.75
845.03	226.70
845.34	226.60
845.65	226.61
845.97	226.71
846.28	226.79
846.60	226.80
846.91	226.64
847.22	226.61
847.54	226.72
847.85	226.74
848.16	226.80
848.48	226.71
848.79	226.93
849.10	227.03
849.42	227.00
849.73	226.50
850.04	226.47
850.36	226.18
850.67	226.33
850.98	226.36
851.30	226.41
851.61	226.46
851.92	226.47
852.23	226.59
852.55	226.61
852.86	226.59
853.17	226.62
853.49	226.76
853.80	226.80
854.11	226.83
854.42	226.93
854.74	226.83
855.05	226.85
855.36	226.52
855.67	226.55
855.99	226.52
856.30	227.17
856.61	227.11
856.92	227.18
857.23	227.18
857.55	227.10
857.86	227.09
858.17	227.14
858.48	227.10
858.79	227.05
859.11	227.04
859.42	227.01
859.73	226.95
860.04	226.90
860.35	226.83
860.66	226.69
860.98	226.64
861.29	226.65
861.60	226.63
861.91	226.82
862.22	226.73
862.53	226.74
862.84	226.18
863.16	226.32
863.47	226.27
863.78	226.27
864.09	226.34
864.40	226.32
864.71	226.30
865.02	226.33
865.33	226.28
865.64	226.25
865.95	226.29
866.27	226.58
866.58	226.55
866.89	226.57
867.20	226.58
867.51	226.51
867.82	226.56
868.13	226.71
868.44	226.56
868.75	226.67
869.06	226.62
869.37	226.66
869.68	226.49
869.99	226.46
870.30	226.41
870.61	226.50
870.92	226.51
871.23	226.47
871.54	226.50
871.85	226.66
872.16	226.72
872.47	226.66
872.78	226.49
873.09	226.44
873.40	226.45
873.71	226.49
874.02	226.50
874.33	226.40
874.64	226.30
874.95	226.40
875.26	226.32
875.56	226.36
875.87	226.32
876.18	226.37
876.49	226.93
876.80	226.79
877.11	226.66
877.42	226.72
877.73	226.79
878.04	226.75
878.35	226.62
878.66	226.55
878.96	226.53
879.27	226.41
879.58	226.44
879.89	226.35
880.20	226.48
880.51	226.49
880.82	226.52
881.12	226.55
881.43	226.46
881.74	226.31
882.05	226.29
882.36	226.33
882.67	226.36
882.97	225.83
883.28	225.94
883.59	225.89
883.90	225.84
884.21	225.78
884.51	225.74
884.82	225.68
885.13	225.69
885.44	225.69
885.74	225.66
886.05	225.60
886.36	225.68
886.67	225.49
886.98	225.74
887.28	225.77
887.59	225.80
887.90	225.83
888.20	225.89
888.51	225.91
888.82	225.85
889.13	225.89
889.43	226.26
889.74	226.22
890.05	226.20
890.35	226.19
890.66	226.24
890.97	226.22
891.28	226.22
891.58	226.28
891.89	226.31
892.20	226.38
892.50	226.39
892.81	226.33
893.12	226.39
893.42	226.14
893.73	226.13
894.04	226.11
894.34	226.15
894.65	226.12
894.95	226.06
895.26	226.07
895.57	226.24
895.87	225.75
896.18	225.81
896.48	225.82
896.79	225.78
897.10	225.81
897.40	225.89
897.71	225.93
898.01	225.82
898.32	225.88
898.63	225.84
898.93	225.84
899.24	225.81
899.54	225.76
899.85	225.65
900.15	225.65
900.46	225.60
900.76	225.61
901.07	225.67
901.38	225.69
901.68	225.77
901.99	225.57
902.29	225.62
902.60	225.53
902.90	225.51
903.21	225.54
903.51	225.38
903.82	225.46
904.12	225.39
904.43	225.49
904.73	225.40
905.03	225.40
905.34	225.85
905.64	225.76
905.95	225.78
906.25	225.81
906.56	225.80
906.86	225.84
907.17	225.81
907.47	225.77
907.77	225.74
908.08	225.59
908.38	225.53
908.69	225.54
908.99	225.69
909.30	225.75
909.60	225.73
909.90	225.79
910.21	225.68
910.51	225.75
910.81	225.71
911.12	225.70
911.42	225.80
911.73	225.27
912.03	225.40
912.33	225.45
912.64	225.50
912.94	225.45
913.24	225.38
913.55	225.38
913.85	225.43
914.15	225.57
914.46	225.67
914.76	225.69
915.06	225.69
915.37	225.62
915.67	225.56
915.97	225.60
916.27	225.51
916.58	225.50
916.88	225.49
917.18	225.48
917.49	225.90
917.79	225.88
918.09	225.99
918.39	226.09
918.70	226.04
919.00	226.04
919.30	226.26
919.60	226.23
919.91	226.12
920.21	226.15
920.51	226.00
920.81	225.96
921.12	226.00
921.42	225.99
921.72	226.04
922.02	226.10
922.32	226.08
922.63	226.13
922.93	226.37
923.23	226.37
923.53	226.32
923.83	225.95
924.13	225.95
924.44	225.95
924.74	226.02
925.04	226.17
925.34	226.17
925.64	226.01
925.94	226.03
926.24	226.34
926.55	226.32
926.85	226.42
927.15	226.38
927.45	226.37
927.75	226.36
928.05	226.28
928.35	226.24
928.65	226.32
928.95	226.35
929.26	226.19
929.56	226.22
929.86	226.24
930.16	226.20
930.46	226.12
930.76	226.16
931.06	225.98
931.36	225.82
931.66	225.90
931.96	225.92
932.26	225.90
932.56	225.66
932.86	225.60
933.16	225.53
933.46	225.55
933.76	225.54
934.06	225.67
934.36	225.90
934.66	225.87
934.96	225.82
935.26	225.88
935.56	225.87
935.86	225.77
936.16	225.76
936.46	225.73
936.76	225.75
937.06	225.66
937.36	225.67
937.66	225.75
937.96	225.66
938.26	225.54
938.56	225.53
938.86	225.54
939.16	225.70
939.46	225.74
939.76	225.72
940.06	225.65
940.35	225.54
940.65	225.25
940.95	225.35
941.25	225.27
941.55	225.17
941.85	225.12
942.15	225.27
942.45	225.35
942.75	225.34
943.04	225.31
943.34	225.40
943.64	225.35
943.94	225.28
944.24	225.23
944.54	225.25
944.84	225.24
945.13	225.20
945.43	225.09
945.73	225.11
946.03	225.12
946.33	225.06
946.62	225.06
946.92	225.06
947.22	225.00
947.52	224.98
947.82	225.09
948.11	225.10
948.41	224.96
948.71	224.82
949.01	224.83
949.31	224.82
949.60	224.77
949.90	224.79
950.20	224.76
950.50	224.83
950.79	224.88
951.09	224.89
951.39	224.88
951.69	224.77
951.98	224.84
952.28	224.92
952.58	224.98
952.87	225.01
953.17	225.13
953.47	225.05
953.76	225.08
954.06	224.99
954.36	224.90
954.66	224.91
954.95	225.07
955.25	225.16
955.55	225.15
955.84	225.08
956.14	225.22
956.44	225.18
956.73	225.06
957.03	225.07
957.32	225.13
957.62	225.13
957.92	225.37
958.21	225.32
958.51	225.86
958.81	225.90
959.10	225.89
959.40	225.96
959.69	226.16
959.99	226.27
960.29	226.29
960.58	226.36
960.88	226.50
961.17	226.38
961.47	226.43
961.76	226.49
962.06	226.64
962.36	226.52
962.65	226.64
962.95	226.69
963.24	226.63
963.54	226.67
963.83	226.67
964.13	226.63
964.42	226.53
964.72	226.11
965.01	226.16
965.31	226.12
965.60	226.00
965.90	226.21
966.19	226.09
966.49	226.10
966.78	226.02
967.08	225.94
967.37	226.04
967.67	225.92
967.96	225.94
968.26	225.87
968.55	225.93
968.85	225.79
969.14	225.79
969.43	225.82
969.73	225.80
970.02	225.82
970.32	225.69
970.61	225.66
970.91	225.47
971.20	225.39
971.49	225.40
971.79	225.42
972.08	225.01
972.38	225.02
972.67	224.95
972.96	224.99
973.26	225.00
973.55	225.16
973.85	225.13
974.14	225.14
974.43	225.18
974.73	225.08
975.02	225.05
975.31	225.03
975.61	224.96
975.90	224.86
976.19	224.76
976.49	224.84
976.78	224.86
977.07	224.84
977.37	224.81
977.66	224.82
977.95	224.82
978.24	224.87
978.54	225.00
978.83	225.01
979.12	224.95
979.42	224.96
979.71	224.76
980.00	224.76
980.29	224.74
980.59	224.68
980.88	224.84
981.17	224.86
981.46	224.88
981.76	224.85
982.05	224.98
982.34	225.04
982.63	225.09
982.93	225.08
983.22	225.26
983.51	225.34
983.80	225.45
984.09	225.47
984.39	225.47
984.68	225.32
984.97	225.29
985.26	225.27
985.55	225.28
985.85	225.19
986.14	225.25
986.43	225.31
986.72	225.29
987.01	225.15
987.30	225.15
987.59	225.10
987.89	225.17
988.18	225.00
988.47	224.98
988.76	224.85
989.05	224.83
989.34	224.72
989.63	224.79
989.92	224.68
990.22	224.67
990.51	224.65
990.80	224.70
991.09	224.82
991.38	224.97
991.67	224.94
991.96	224.92
992.25	224.94
992.54	224.77
992.83	224.78
993.12	224.78
993.41	224.95
993.70	225.17
993.99	225.26
994.28	225.43
994.58	225.50
994.87	225.48
995.16	225.48
995.45	225.50
995.74	225.36
996.03	225.44
996.32	225.55
996.61	225.61
996.90	225.65
997.19	225.62
997.48	225.60
997.77	225.53
998.06	225.55
998.34	225.53
998.63	225.60
998.92	225.57
999.21	225.70
999.50	225.58
999.79	225.46
1000.08	225.43
1000.37	225.39
1000.66	225.29
1000.95	225.45
1001.24	225.53
1001.53	225.60
1001.82	225.63
1002.11	225.48
1002.40	225.50
1002.68	225.70
1002.97	225.99
1003.26	225.87
1003.55	225.79
1003.84	225.87
1004.13	226.11
1004.42	226.07
1004.71	226.08
1004.99	226.15
1005.28	226.16
1005.57	226.20
1005.86	226.14
1006.15	226.14
1006.44	226.07
1006.72	226.19
1007.01	226.14
1007.30	226.13
1007.59	226.06
1007.88	225.98
1008.17	226.09
1008.45	225.96
1008.74	225.75
1009.03	225.50
1009.32	225.53
1009.60	225.58
1009.89	225.49
1010.18	225.29
1010.47	225.35
1010.76	225.33
1011.04	225.21
1011.33	225.26
1011.62	225.27
1011.91	225.33
1012.19	225.29
1012.48	225.29
1012.77	225.26
1013.05	225.52
1013.34	225.55
1013.63	225.55
1013.92	225.72
1014.20	225.62
1014.49	225.63
1014.78	225.69
1015.06	225.51
1015.35	225.54
1015.64	225.57
1015.92	225.64
1016.21	225.66
1016.50	225.61
1016.78	225.68
1017.07	225.84
1017.36	225.72
1017.64	225.63
1017.93	225.66
1018.22	225.70
1018.50	225.66
1018.79	225.67
1019.08	225.34
1019.36	225.37
1019.65	225.27
1019.93	225.32
1020.22	225.43
1020.51	225.67
1020.79	225.63
1021.08	225.50
1021.36	223.45
1021.65	225.55
1021.94	224.65
1022.22	226.85
1022.51	223.90
1022.79	227.60
1023.08	226.45
1023.36	230.45
1023.65	225.70
>>>>>End Processed Spectral Data<<<<<
