SpectraSuite Data File
++++++++++++++++++++++++++++++++++++
Date: Wed Sep 04 17:39:28 EDT 2013
User: lab3
Dark Spectrum Present: Yes
Reference Spectrum Present: No
Number of Sampled Component Spectra: 1
Spectrometers: USB2E7196
Integration Time (usec): 170000 (USB2E7196)
Spectra Averaged: 20 (USB2E7196)
Boxcar Smoothing: 10 (USB2E7196)
Correct for Electrical Dark: No (USB2E7196)
Strobe/Lamp Enabled: No (USB2E7196)
Correct for Detector Non-linearity: No (USB2E7196)
Correct for Stray Light: No (USB2E7196)
Number of Pixels in Processed Spectrum: 2048
>>>>>Begin Processed Spectral Data<<<<<
339.09	0.00
339.48	212.40
339.86	212.65
340.24	216.40
340.63	216.80
341.01	225.10
341.39	218.80
341.78	221.60
342.16	223.35
342.54	222.90
342.93	211.75
343.31	222.42
343.69	222.98
344.07	223.60
344.46	223.99
344.84	224.39
345.22	224.36
345.60	224.68
345.99	224.87
346.37	224.95
346.75	225.02
347.13	225.10
347.52	225.15
347.90	225.32
348.28	225.39
348.66	225.51
349.05	225.35
349.43	225.43
349.81	225.46
350.19	225.55
350.57	225.62
350.96	225.70
351.34	225.80
351.72	225.84
352.10	225.88
352.48	225.86
352.87	225.91
353.25	226.06
353.63	226.08
354.01	226.10
354.39	226.17
354.77	226.26
355.15	226.40
355.54	226.40
355.92	226.25
356.30	226.33
356.68	226.66
357.06	226.75
357.44	226.74
357.82	226.81
358.20	227.28
358.58	227.36
358.97	227.45
359.35	227.54
359.73	227.77
360.11	227.84
360.49	227.98
360.87	228.02
361.25	228.09
361.63	228.40
362.01	228.50
362.39	228.53
362.77	228.61
363.15	228.67
363.53	228.69
363.91	228.82
364.29	228.84
364.67	228.45
365.05	228.58
365.43	228.69
365.81	228.73
366.19	228.60
366.57	228.79
366.95	228.78
367.33	228.73
367.71	228.65
368.09	228.67
368.47	228.68
368.85	228.67
369.23	228.76
369.61	228.49
369.99	228.66
370.37	228.71
370.75	229.00
371.13	228.88
371.51	228.81
371.89	228.76
372.27	228.81
372.65	228.83
373.03	228.78
373.41	228.80
373.78	228.79
374.16	228.49
374.54	228.35
374.92	228.30
375.30	228.33
375.68	228.24
376.06	228.23
376.44	228.21
376.82	228.26
377.19	228.15
377.57	228.15
377.95	227.93
378.33	227.81
378.71	227.40
379.09	227.43
379.47	227.53
379.84	227.43
380.22	227.21
380.60	227.02
380.98	226.85
381.36	226.71
381.73	226.47
382.11	226.45
382.49	226.35
382.87	226.19
383.25	226.05
383.62	226.54
384.00	226.33
384.38	226.19
384.76	226.15
385.13	226.25
385.51	226.19
385.89	225.97
386.27	225.99
386.64	225.95
387.02	225.87
387.40	225.68
387.78	225.69
388.15	225.60
388.53	225.60
388.91	225.57
389.29	225.51
389.66	225.69
390.04	225.62
390.42	225.68
390.79	225.71
391.17	225.67
391.55	225.11
391.92	225.15
392.30	225.24
392.68	225.09
393.05	224.99
393.43	224.96
393.81	225.05
394.18	224.96
394.56	225.00
394.94	225.05
395.31	225.02
395.69	225.15
396.06	225.40
396.44	225.46
396.82	225.48
397.19	225.75
397.57	225.68
397.95	225.79
398.32	225.67
398.70	225.85
399.07	226.03
399.45	226.09
399.82	226.18
400.20	226.24
400.58	226.43
400.95	226.36
401.33	226.54
401.70	226.96
402.08	227.12
402.45	227.26
402.83	227.51
403.20	227.68
403.58	227.75
403.95	227.96
404.33	228.22
404.71	228.48
405.08	228.87
405.46	229.05
405.83	229.29
406.21	229.57
406.58	229.76
406.96	230.02
407.33	230.27
407.70	230.62
408.08	231.30
408.45	231.68
408.83	232.14
409.20	232.44
409.58	232.57
409.95	233.01
410.33	233.50
410.70	233.78
411.08	234.34
411.45	234.89
411.82	235.26
412.20	235.85
412.57	236.73
412.95	236.95
413.32	237.75
413.69	238.41
414.07	239.25
414.44	240.05
414.82	240.85
415.19	241.88
415.56	242.83
415.94	243.61
416.31	244.81
416.68	245.96
417.06	247.31
417.43	248.71
417.81	250.15
418.18	251.63
418.55	253.23
418.93	254.90
419.30	256.66
419.67	258.66
420.04	260.46
420.42	262.35
420.79	265.06
421.16	267.38
421.54	270.02
421.91	272.59
422.28	275.14
422.66	277.89
423.03	280.84
423.40	283.72
423.77	286.58
424.15	289.55
424.52	292.70
424.89	296.27
425.26	299.48
425.64	302.66
426.01	306.08
426.38	309.76
426.75	313.56
427.13	317.31
427.50	321.20
427.87	325.35
428.24	329.39
428.61	332.92
428.99	337.41
429.36	341.82
429.73	346.26
430.10	350.83
430.47	355.57
430.85	360.20
431.22	365.17
431.59	370.97
431.96	376.14
432.33	381.89
432.70	387.25
433.08	393.84
433.45	399.85
433.82	405.91
434.19	412.72
434.56	419.44
434.93	425.75
435.30	432.22
435.68	439.29
436.05	446.25
436.42	453.14
436.79	459.51
437.16	466.50
437.53	473.66
437.90	480.93
438.27	488.02
438.64	495.35
439.01	502.32
439.38	508.12
439.75	514.09
440.13	520.74
440.50	527.12
440.87	532.05
441.24	537.47
441.61	543.44
441.98	547.72
442.35	552.48
442.72	557.54
443.09	562.38
443.46	565.32
443.83	567.21
444.20	569.01
444.57	571.20
444.94	572.18
445.31	573.30
445.68	574.56
446.05	574.72
446.42	573.64
446.79	572.52
447.16	571.23
447.53	570.22
447.90	567.20
448.27	564.15
448.64	560.31
449.01	557.30
449.37	552.21
449.74	547.25
450.11	541.76
450.48	535.47
450.85	528.84
451.22	523.08
451.59	517.80
451.96	512.50
452.33	505.78
452.70	499.75
453.07	492.53
453.43	484.88
453.80	478.07
454.17	471.47
454.54	465.16
454.91	458.43
455.28	451.70
455.65	445.59
456.02	440.02
456.38	434.67
456.75	428.39
457.12	422.89
457.49	417.74
457.86	412.34
458.23	408.11
458.59	403.46
458.96	398.76
459.33	394.54
459.70	390.40
460.07	387.04
460.43	383.11
460.80	379.67
461.17	376.72
461.54	373.36
461.91	370.26
462.27	367.08
462.64	364.45
463.01	361.59
463.38	358.88
463.74	355.46
464.11	353.02
464.48	350.77
464.85	348.60
465.21	346.87
465.58	345.06
465.95	342.61
466.32	340.76
466.68	338.93
467.05	337.10
467.42	335.32
467.78	333.48
468.15	331.67
468.52	330.34
468.88	328.48
469.25	326.96
469.62	325.80
469.98	324.53
470.35	323.34
470.72	322.20
471.08	320.80
471.45	319.78
471.82	318.78
472.18	317.61
472.55	316.67
472.92	315.53
473.28	314.63
473.65	313.90
474.02	313.08
474.38	312.45
474.75	311.86
475.11	311.23
475.48	310.73
475.85	310.28
476.21	309.78
476.58	309.50
476.94	309.20
477.31	308.92
477.67	308.40
478.04	308.13
478.41	308.00
478.77	308.43
479.14	308.32
479.50	308.33
479.87	308.50
480.23	308.61
480.60	308.64
480.96	308.67
481.33	309.01
481.69	309.29
482.06	309.52
482.42	309.80
482.79	310.16
483.15	310.60
483.52	311.25
483.88	311.71
484.25	312.26
484.61	312.85
484.98	313.38
485.34	314.47
485.71	315.34
486.07	316.30
486.44	316.81
486.80	317.87
487.17	318.93
487.53	320.17
487.90	321.57
488.26	323.16
488.62	324.80
488.99	326.24
489.35	327.74
489.72	329.52
490.08	331.33
490.44	333.02
490.81	335.10
491.17	337.15
491.54	339.36
491.90	341.73
492.26	344.19
492.63	346.88
492.99	349.42
493.36	352.18
493.72	355.20
494.08	358.33
494.45	361.66
494.81	365.22
495.17	368.69
495.54	372.31
495.90	376.09
496.26	380.10
496.63	384.24
496.99	388.59
497.35	393.15
497.72	397.79
498.08	402.74
498.44	407.77
498.80	413.13
499.17	418.70
499.53	424.17
499.89	430.10
500.26	436.01
500.62	442.38
500.98	449.06
501.34	455.65
501.71	462.50
502.07	469.45
502.43	476.66
502.79	484.04
503.16	491.85
503.52	499.71
503.88	507.71
504.24	516.23
504.60	524.99
504.97	534.01
505.33	543.35
505.69	553.09
506.05	562.59
506.41	572.32
506.78	582.39
507.14	592.90
507.50	603.67
507.86	614.66
508.22	625.78
508.59	636.90
508.95	648.62
509.31	660.65
509.67	672.82
510.03	684.95
510.39	697.48
510.75	710.10
511.12	723.02
511.48	736.37
511.84	749.61
512.20	763.05
512.56	776.58
512.92	790.54
513.28	804.68
513.64	819.23
514.00	833.85
514.37	848.55
514.73	863.62
515.09	878.75
515.45	893.95
515.81	909.01
516.17	924.54
516.53	939.69
516.89	955.02
517.25	970.79
517.61	987.29
517.97	1003.79
518.33	1020.07
518.69	1036.30
519.05	1052.68
519.41	1069.30
519.77	1086.50
520.13	1103.16
520.49	1119.57
520.85	1137.40
521.21	1154.09
521.57	1170.95
521.93	1187.20
522.29	1203.48
522.65	1219.46
523.01	1235.58
523.37	1251.71
523.73	1267.90
524.09	1283.78
524.45	1299.39
524.81	1315.44
525.17	1331.02
525.53	1346.53
525.89	1362.49
526.25	1378.22
526.61	1393.58
526.97	1409.27
527.33	1424.85
527.68	1441.25
528.04	1457.20
528.40	1471.30
528.76	1487.00
529.12	1501.94
529.48	1517.35
529.84	1532.16
530.20	1547.59
530.56	1562.79
530.91	1577.98
531.27	1592.89
531.63	1608.06
531.99	1622.86
532.35	1636.99
532.71	1651.56
533.07	1666.10
533.42	1680.07
533.78	1694.18
534.14	1708.35
534.50	1721.42
534.86	1734.61
535.21	1746.32
535.57	1758.76
535.93	1770.56
536.29	1782.28
536.65	1794.57
537.00	1806.14
537.36	1817.81
537.72	1828.42
538.08	1839.59
538.44	1850.28
538.79	1860.39
539.15	1870.72
539.51	1881.39
539.87	1890.92
540.22	1899.16
540.58	1907.84
540.94	1915.39
541.29	1922.69
541.65	1929.58
542.01	1936.79
542.37	1942.16
542.72	1948.12
543.08	1953.45
543.44	1960.21
543.79	1965.43
544.15	1970.26
544.51	1975.51
544.87	1980.11
545.22	1984.27
545.58	1987.26
545.94	1989.89
546.29	1992.52
546.65	1994.48
547.01	1995.95
547.36	1997.47
547.72	1999.33
548.07	1999.69
548.43	2001.13
548.79	2002.00
549.14	2002.53
549.50	2002.88
549.86	2003.62
550.21	2003.93
550.57	2004.37
550.92	2002.60
551.28	2001.16
551.64	2000.59
551.99	1999.47
552.35	1998.21
552.70	1997.52
553.06	1996.46
553.41	1994.88
553.77	1993.63
554.13	1992.54
554.48	1991.15
554.84	1989.71
555.19	1988.09
555.55	1987.39
555.90	1984.69
556.26	1982.00
556.61	1978.69
556.97	1974.85
557.32	1971.90
557.68	1968.90
558.03	1965.48
558.39	1962.39
558.74	1959.70
559.10	1954.98
559.45	1950.25
559.81	1945.12
560.16	1938.94
560.52	1933.53
560.87	1928.74
561.23	1922.85
561.58	1916.95
561.94	1910.06
562.29	1903.19
562.64	1896.51
563.00	1888.57
563.35	1882.06
563.71	1875.21
564.06	1869.00
564.42	1862.98
564.77	1856.36
565.12	1849.64
565.48	1842.78
565.83	1835.68
566.19	1828.41
566.54	1821.60
566.89	1814.47
567.25	1807.77
567.60	1801.85
567.96	1795.46
568.31	1788.43
568.66	1781.14
569.02	1773.10
569.37	1766.20
569.72	1759.44
570.08	1751.47
570.43	1743.63
570.78	1736.03
571.14	1728.59
571.49	1720.15
571.84	1712.08
572.20	1703.41
572.55	1694.76
572.90	1685.88
573.26	1677.62
573.61	1668.55
573.96	1659.56
574.31	1650.02
574.67	1640.57
575.02	1630.38
575.37	1620.52
575.72	1610.45
576.08	1601.29
576.43	1591.92
576.78	1581.70
577.13	1571.58
577.49	1562.10
577.84	1553.35
578.19	1544.31
578.54	1534.90
578.90	1526.07
579.25	1516.88
579.60	1507.57
579.95	1498.56
580.30	1488.91
580.66	1479.13
581.01	1469.36
581.36	1459.14
581.71	1449.85
582.06	1440.64
582.42	1431.56
582.77	1421.99
583.12	1413.38
583.47	1404.29
583.82	1395.61
584.17	1387.02
584.53	1378.29
584.88	1368.75
585.23	1358.97
585.58	1348.83
585.93	1339.14
586.28	1329.58
586.63	1319.63
586.98	1309.74
587.34	1299.89
587.69	1290.38
588.04	1281.35
588.39	1272.47
588.74	1264.05
589.09	1255.77
589.44	1246.59
589.79	1237.92
590.14	1229.70
590.49	1220.64
590.84	1211.83
591.19	1203.52
591.54	1194.99
591.89	1186.45
592.25	1179.56
592.60	1171.66
592.95	1163.73
593.30	1155.52
593.65	1147.16
594.00	1138.71
594.35	1132.42
594.70	1124.29
595.05	1116.39
595.40	1107.95
595.75	1099.84
596.10	1091.93
596.45	1083.81
596.80	1076.07
597.15	1068.33
597.50	1060.29
597.85	1052.98
598.19	1045.28
598.54	1037.01
598.89	1029.28
599.24	1021.90
599.59	1013.79
599.94	1006.37
600.29	999.44
600.64	992.50
600.99	985.24
601.34	978.95
601.69	970.65
602.04	963.94
602.39	957.30
602.74	951.12
603.08	944.81
603.43	938.44
603.78	931.79
604.13	925.40
604.48	918.91
604.83	912.12
605.18	905.33
605.53	898.81
605.87	892.84
606.22	887.10
606.57	880.98
606.92	874.70
607.27	868.58
607.62	862.56
607.96	856.88
608.31	851.65
608.66	845.96
609.01	840.37
609.36	834.64
609.70	829.12
610.05	823.47
610.40	817.93
610.75	812.13
611.10	806.66
611.44	800.94
611.79	795.20
612.14	790.11
612.49	784.76
612.83	779.92
613.18	774.55
613.53	769.25
613.88	763.86
614.22	758.50
614.57	753.17
614.92	747.68
615.27	742.45
615.61	737.10
615.96	731.97
616.31	726.79
616.65	722.08
617.00	716.99
617.35	711.92
617.70	706.90
618.04	702.01
618.39	697.20
618.74	692.98
619.08	688.49
619.43	683.68
619.78	678.90
620.12	673.97
620.47	669.28
620.82	664.42
621.16	659.87
621.51	655.70
621.85	651.53
622.20	647.29
622.55	642.80
622.89	638.65
623.24	634.43
623.59	630.15
623.93	625.71
624.28	621.57
624.62	618.02
624.97	614.20
625.32	610.36
625.66	606.48
626.01	602.37
626.35	598.51
626.70	594.82
627.04	591.33
627.39	587.63
627.73	584.16
628.08	580.75
628.43	577.09
628.77	573.36
629.12	569.80
629.46	566.55
629.81	563.38
630.15	560.03
630.50	556.69
630.84	553.46
631.19	550.35
631.53	547.30
631.88	543.45
632.22	540.15
632.57	537.24
632.91	534.09
633.26	531.00
633.60	527.96
633.95	524.74
634.29	521.60
634.64	518.51
634.98	515.15
635.32	512.08
635.67	509.40
636.01	506.64
636.36	503.57
636.70	500.78
637.05	497.78
637.39	494.99
637.73	492.07
638.08	489.37
638.42	486.45
638.77	483.47
639.11	480.66
639.45	477.58
639.80	474.42
640.14	471.58
640.49	468.83
640.83	466.09
641.17	463.69
641.52	460.93
641.86	458.48
642.20	456.46
642.55	454.03
642.89	451.43
643.23	448.90
643.58	446.92
643.92	444.28
644.26	441.99
644.61	439.76
644.95	437.53
645.29	435.14
645.64	433.02
645.98	430.88
646.32	428.98
646.66	426.92
647.01	424.85
647.35	422.99
647.69	420.94
648.04	419.06
648.38	417.03
648.72	415.18
649.06	413.02
649.41	410.77
649.75	408.60
650.09	406.71
650.43	404.78
650.78	402.61
651.12	400.72
651.46	398.75
651.80	396.77
652.14	394.84
652.49	393.21
652.83	391.46
653.17	389.65
653.51	387.66
653.85	386.16
654.20	384.59
654.54	382.73
654.88	380.95
655.22	379.44
655.56	377.88
655.90	376.27
656.25	374.70
656.59	373.18
656.93	371.75
657.27	370.30
657.61	368.64
657.95	367.20
658.29	365.70
658.64	364.40
658.98	362.87
659.32	361.33
659.66	359.76
660.00	358.27
660.34	356.86
660.68	355.48
661.02	353.94
661.36	352.48
661.70	351.11
662.05	349.85
662.39	348.41
662.73	347.04
663.07	346.03
663.41	344.87
663.75	343.50
664.09	342.36
664.43	341.00
664.77	339.83
665.11	338.56
665.45	337.43
665.79	336.18
666.13	335.05
666.47	333.88
666.81	332.78
667.15	331.63
667.49	330.58
667.83	329.69
668.17	328.63
668.51	327.61
668.85	326.69
669.19	325.93
669.53	324.88
669.87	323.82
670.21	322.65
670.55	321.71
670.89	320.94
671.23	319.91
671.57	318.93
671.91	318.04
672.25	317.02
672.58	316.18
672.92	315.07
673.26	314.20
673.60	313.40
673.94	312.53
674.28	311.72
674.62	310.96
674.96	309.95
675.30	309.16
675.64	308.39
675.97	307.54
676.31	306.43
676.65	305.56
676.99	304.97
677.33	304.12
677.67	303.25
678.01	302.33
678.34	301.55
678.68	300.90
679.02	300.14
679.36	299.47
679.70	298.64
680.04	298.10
680.37	297.47
680.71	296.80
681.05	296.12
681.39	295.50
681.73	294.79
682.06	294.16
682.40	293.42
682.74	292.77
683.08	292.29
683.42	291.70
683.75	291.20
684.09	290.48
684.43	289.92
684.77	289.35
685.10	288.78
685.44	288.28
685.78	287.62
686.12	287.03
686.45	286.44
686.79	285.76
687.13	285.29
687.46	284.67
687.80	284.15
688.14	283.60
688.48	282.97
688.81	282.40
689.15	281.97
689.49	281.48
689.82	281.00
690.16	280.31
690.50	279.82
690.83	279.24
691.17	278.63
691.51	278.16
691.84	277.74
692.18	277.13
692.52	276.47
692.85	276.08
693.19	275.75
693.52	275.22
693.86	274.86
694.20	274.35
694.53	273.85
694.87	273.38
695.21	272.88
695.54	272.49
695.88	271.98
696.21	271.38
696.55	271.04
696.88	270.52
697.22	270.00
697.56	269.63
697.89	269.17
698.23	268.80
698.56	268.34
698.90	267.94
699.23	267.68
699.57	267.38
699.90	266.95
700.24	266.44
700.58	266.17
700.91	265.93
701.25	265.91
701.58	265.94
701.92	265.73
702.25	265.38
702.59	264.98
702.92	264.78
703.26	264.52
703.59	264.14
703.93	264.30
704.26	264.10
704.60	263.83
704.93	263.46
705.26	263.15
705.60	262.87
705.93	262.50
706.27	262.29
706.60	262.13
706.94	262.02
707.27	261.67
707.61	261.40
707.94	260.95
708.27	260.32
708.61	259.64
708.94	259.25
709.28	259.01
709.61	258.73
709.94	258.40
710.28	258.05
710.61	257.76
710.95	257.03
711.28	257.04
711.61	256.63
711.95	256.55
712.28	256.26
712.61	255.95
712.95	255.86
713.28	255.67
713.61	255.28
713.95	254.87
714.28	254.68
714.61	254.36
714.95	254.10
715.28	253.65
715.61	253.36
715.95	253.06
716.28	252.77
716.61	252.57
716.95	252.29
717.28	252.08
717.61	251.76
717.94	251.45
718.28	250.83
718.61	250.54
718.94	250.10
719.27	249.79
719.61	249.59
719.94	249.25
720.27	248.80
720.60	248.52
720.94	248.35
721.27	248.14
721.60	248.00
721.93	247.83
722.27	247.87
722.60	247.76
722.93	247.48
723.26	247.31
723.59	246.96
723.93	246.82
724.26	246.64
724.59	246.39
724.92	246.29
725.25	246.25
725.59	246.14
725.92	246.08
726.25	245.95
726.58	245.78
726.91	245.62
727.24	245.55
727.57	245.32
727.91	245.04
728.24	244.86
728.57	244.61
728.90	244.53
729.23	244.19
729.56	244.23
729.89	244.09
730.22	243.91
730.55	243.75
730.89	243.55
731.22	243.34
731.55	243.24
731.88	243.10
732.21	242.81
732.54	242.57
732.87	242.42
733.20	242.33
733.53	242.18
733.86	242.03
734.19	241.78
734.52	241.79
734.85	241.93
735.18	241.76
735.51	241.78
735.84	241.55
736.17	241.57
736.50	241.23
736.83	241.70
737.16	241.55
737.49	241.53
737.82	241.46
738.15	241.44
738.48	241.33
738.81	241.11
739.14	241.07
739.47	240.97
739.80	240.82
740.13	240.72
740.46	240.56
740.79	240.38
741.12	240.29
741.45	240.11
741.78	239.76
742.11	239.77
742.44	239.64
742.77	239.72
743.10	239.57
743.43	239.30
743.75	238.65
744.08	239.14
744.41	239.02
744.74	238.79
745.07	238.52
745.40	238.46
745.73	238.60
746.06	238.48
746.39	238.47
746.71	238.35
747.04	238.18
747.37	238.03
747.70	238.02
748.03	237.98
748.36	237.99
748.68	237.94
749.01	237.69
749.34	237.58
749.67	237.46
750.00	237.42
750.33	237.76
750.65	237.81
750.98	237.18
751.31	237.04
751.64	236.97
751.97	237.26
752.29	237.24
752.62	236.93
752.95	236.81
753.28	236.60
753.60	236.52
753.93	236.51
754.26	236.57
754.59	236.41
754.91	236.27
755.24	236.05
755.57	235.92
755.90	235.83
756.22	235.67
756.55	235.52
756.88	235.32
757.20	234.95
757.53	234.74
757.86	234.61
758.19	234.60
758.51	234.51
758.84	234.16
759.17	233.93
759.49	233.91
759.82	234.01
760.15	234.06
760.47	233.95
760.80	233.76
761.13	233.70
761.45	233.49
761.78	233.42
762.11	233.41
762.43	233.33
762.76	233.29
763.08	233.25
763.41	233.16
763.74	233.11
764.06	233.09
764.39	232.97
764.71	232.86
765.04	232.75
765.37	232.69
765.69	232.63
766.02	232.63
766.34	232.52
766.67	232.28
767.00	232.25
767.32	232.44
767.65	232.63
767.97	232.54
768.30	232.55
768.62	232.45
768.95	232.36
769.27	232.27
769.60	232.28
769.92	232.19
770.25	232.05
770.57	231.91
770.90	231.83
771.22	231.74
771.55	231.69
771.87	231.70
772.20	231.58
772.52	231.93
772.85	232.38
773.17	232.36
773.50	232.28
773.82	232.17
774.15	231.89
774.47	231.61
774.80	231.52
775.12	231.48
775.45	231.41
775.77	231.36
776.09	231.29
776.42	231.22
776.74	231.29
777.07	231.26
777.39	231.23
777.72	231.06
778.04	231.03
778.36	230.97
778.69	230.82
779.01	230.87
779.33	230.43
779.66	229.90
779.98	229.79
780.31	229.79
780.63	229.90
780.95	229.94
781.28	229.88
781.60	229.81
781.92	229.76
782.25	229.83
782.57	229.80
782.89	229.78
783.22	229.75
783.54	229.62
783.86	229.62
784.19	229.60
784.51	229.76
784.83	229.67
785.16	229.67
785.48	229.70
785.80	229.65
786.12	229.72
786.45	229.68
786.77	229.68
787.09	229.65
787.42	229.48
787.74	229.40
788.06	229.42
788.38	229.38
788.71	229.35
789.03	229.30
789.35	229.30
789.67	229.18
789.99	229.20
790.32	229.13
790.64	229.13
790.96	229.51
791.28	229.34
791.61	229.33
791.93	229.30
792.25	229.25
792.57	229.47
792.89	229.25
793.21	229.26
793.54	229.25
793.86	229.13
794.18	229.15
794.50	229.10
794.82	229.04
795.14	229.10
795.47	229.18
795.79	229.20
796.11	229.09
796.43	229.12
796.75	229.12
797.07	229.12
797.39	229.10
797.71	228.75
798.04	228.80
798.36	228.86
798.68	228.84
799.00	228.90
799.32	228.70
799.64	228.81
799.96	228.79
800.28	228.86
800.60	228.86
800.92	228.87
801.24	228.82
801.56	228.89
801.89	228.75
802.21	228.80
802.53	228.67
802.85	228.83
803.17	229.07
803.49	228.93
803.81	228.87
804.13	228.84
804.45	228.79
804.77	228.76
805.09	228.72
805.41	228.71
805.73	228.58
806.05	228.53
806.37	228.46
806.69	228.43
807.01	228.30
807.33	228.36
807.65	228.22
807.97	228.42
808.28	228.37
808.60	228.40
808.92	228.29
809.24	228.51
809.56	228.37
809.88	228.11
810.20	228.19
810.52	228.33
810.84	228.23
811.16	228.14
811.48	228.11
811.80	228.29
812.12	228.26
812.43	228.35
812.75	228.28
813.07	228.20
813.39	228.25
813.71	228.23
814.03	228.14
814.35	228.17
814.67	228.02
814.98	227.97
815.30	227.97
815.62	227.80
815.94	227.46
816.26	227.66
816.58	227.59
816.89	227.59
817.21	227.45
817.53	227.50
817.85	227.50
818.17	227.50
818.48	227.28
818.80	227.37
819.12	227.35
819.44	227.36
819.76	227.33
820.07	227.25
820.39	227.24
820.71	227.30
821.03	227.27
821.34	227.20
821.66	227.21
821.98	227.29
822.30	227.30
822.61	227.63
822.93	227.34
823.25	227.34
823.57	227.29
823.88	227.35
824.20	227.33
824.52	227.38
824.83	227.35
825.15	227.31
825.47	227.24
825.79	227.28
826.10	227.19
826.42	227.18
826.74	227.23
827.05	227.21
827.37	227.23
827.69	227.18
828.00	227.20
828.32	227.24
828.64	227.15
828.95	227.41
829.27	227.22
829.58	227.34
829.90	227.40
830.22	227.39
830.53	227.31
830.85	227.22
831.17	227.14
831.48	227.15
831.80	227.21
832.11	227.16
832.43	227.11
832.75	227.11
833.06	227.42
833.38	227.32
833.69	227.30
834.01	227.29
834.32	227.31
834.64	227.26
834.96	227.22
835.27	227.21
835.59	227.04
835.90	227.06
836.22	226.95
836.53	226.83
836.85	226.76
837.16	227.19
837.48	227.25
837.79	227.35
838.11	227.34
838.42	227.26
838.74	227.39
839.05	227.38
839.37	227.33
839.68	227.04
840.00	227.01
840.31	227.06
840.63	226.98
840.94	226.89
841.26	226.86
841.57	226.84
841.88	226.90
842.20	226.82
842.51	226.70
842.83	226.78
843.14	227.22
843.46	227.25
843.77	227.01
844.08	226.96
844.40	226.83
844.71	226.79
845.03	226.81
845.34	226.74
845.65	226.64
845.97	226.72
846.28	226.69
846.60	226.75
846.91	226.70
847.22	226.77
847.54	226.90
847.85	226.93
848.16	226.88
848.48	226.76
848.79	226.92
849.10	226.98
849.42	226.93
849.73	226.45
850.04	226.45
850.36	226.29
850.67	226.39
850.98	226.45
851.30	226.47
851.61	226.37
851.92	226.30
852.23	226.47
852.55	226.43
852.86	226.52
853.17	226.56
853.49	226.62
853.80	226.62
854.11	226.63
854.42	226.63
854.74	226.61
855.05	226.72
855.36	226.57
855.67	226.56
855.99	226.60
856.30	227.24
856.61	227.16
856.92	227.18
857.23	227.12
857.55	227.08
857.86	227.05
858.17	227.18
858.48	227.14
858.79	227.06
859.11	227.16
859.42	227.12
859.73	227.05
860.04	227.07
860.35	226.96
860.66	226.85
860.98	226.85
861.29	226.87
861.60	226.76
861.91	226.87
862.22	226.80
862.53	226.73
862.84	226.15
863.16	226.34
863.47	226.25
863.78	226.25
864.09	226.28
864.40	226.32
864.71	226.33
865.02	226.42
865.33	226.35
865.64	226.20
865.95	226.25
866.27	226.59
866.58	226.51
866.89	226.59
867.20	226.54
867.51	226.48
867.82	226.45
868.13	226.55
868.44	226.42
868.75	226.51
869.06	226.56
869.37	226.68
869.68	226.48
869.99	226.65
870.30	226.74
870.61	226.75
870.92	226.65
871.23	226.57
871.54	226.56
871.85	226.64
872.16	226.69
872.47	226.56
872.78	226.28
873.09	226.35
873.40	226.30
873.71	226.42
874.02	226.53
874.33	226.50
874.64	226.48
874.95	226.66
875.26	226.55
875.56	226.57
875.87	226.45
876.18	226.51
876.49	226.88
876.80	226.74
877.11	226.64
877.42	226.64
877.73	226.69
878.04	226.62
878.35	226.61
878.66	226.68
878.96	226.78
879.27	226.70
879.58	226.64
879.89	226.54
880.20	226.70
880.51	226.57
880.82	226.58
881.12	226.61
881.43	226.42
881.74	226.42
882.05	226.39
882.36	226.36
882.67	226.39
882.97	225.89
883.28	225.87
883.59	225.85
883.90	225.96
884.21	226.03
884.51	226.04
884.82	225.97
885.13	225.98
885.44	225.90
885.74	225.90
886.05	225.91
886.36	225.97
886.67	225.72
886.98	225.98
887.28	226.08
887.59	226.03
887.90	226.09
888.20	226.08
888.51	226.10
888.82	226.11
889.13	226.15
889.43	226.55
889.74	226.51
890.05	226.50
890.35	226.41
890.66	226.29
890.97	226.24
891.28	226.26
891.58	226.20
891.89	226.16
892.20	226.10
892.50	226.08
892.81	226.04
893.12	226.04
893.42	225.86
893.73	225.80
894.04	225.78
894.34	225.79
894.65	225.68
894.95	225.63
895.26	225.61
895.57	225.75
895.87	225.25
896.18	225.42
896.48	225.45
896.79	225.44
897.10	225.59
897.40	225.62
897.71	225.69
898.01	225.67
898.32	225.76
898.63	225.75
898.93	225.78
899.24	225.82
899.54	225.87
899.85	225.82
900.15	225.80
900.46	225.82
900.76	225.81
901.07	225.90
901.38	225.91
901.68	226.00
901.99	225.83
902.29	225.90
902.60	225.83
902.90	225.82
903.21	225.85
903.51	225.77
903.82	225.94
904.12	225.91
904.43	225.98
904.73	225.97
905.03	226.03
905.34	226.48
905.64	226.55
905.95	226.55
906.25	226.51
906.56	226.54
906.86	226.58
907.17	226.61
907.47	226.64
907.77	226.62
908.08	226.57
908.38	226.53
908.69	226.51
908.99	226.57
909.30	226.60
909.60	226.60
909.90	226.58
910.21	226.41
910.51	226.33
910.81	226.31
911.12	226.35
911.42	226.31
911.73	225.81
912.03	225.73
912.33	225.80
912.64	225.81
912.94	225.73
913.24	225.66
913.55	225.59
913.85	225.51
914.15	225.64
914.46	225.63
914.76	225.56
915.06	225.53
915.37	225.42
915.67	225.37
915.97	225.41
916.27	225.34
916.58	225.31
916.88	225.29
917.18	225.32
917.49	225.64
917.79	225.59
918.09	225.61
918.39	225.79
918.70	225.70
919.00	225.75
919.30	225.98
919.60	225.93
919.91	225.87
920.21	225.95
920.51	225.80
920.81	225.82
921.12	225.95
921.42	226.03
921.72	226.11
922.02	226.12
922.32	226.14
922.63	226.15
922.93	226.35
923.23	226.34
923.53	226.26
923.83	225.96
924.13	226.06
924.44	226.07
924.74	226.12
925.04	226.24
925.34	226.15
925.64	225.98
925.94	225.93
926.24	226.26
926.55	226.22
926.85	226.30
927.15	226.28
927.45	226.24
927.75	226.21
928.05	226.26
928.35	226.23
928.65	226.38
928.95	226.48
929.26	226.27
929.56	226.44
929.86	226.53
930.16	226.50
930.46	226.44
930.76	226.40
931.06	226.19
931.36	226.07
931.66	226.22
931.96	226.28
932.26	226.37
932.56	226.10
932.86	226.16
933.16	226.16
933.46	226.19
933.76	226.20
934.06	226.30
934.36	226.33
934.66	226.35
934.96	226.21
935.26	226.20
935.56	226.36
935.86	226.23
936.16	226.13
936.46	226.01
936.76	226.00
937.06	225.94
937.36	225.94
937.66	225.96
937.96	225.89
938.26	225.75
938.56	225.72
938.86	225.74
939.16	225.79
939.46	225.78
939.76	225.73
940.06	225.64
940.35	225.54
940.65	225.40
940.95	225.45
941.25	225.33
941.55	225.27
941.85	225.17
942.15	225.27
942.45	225.38
942.75	225.45
943.04	225.44
943.34	225.56
943.64	225.54
943.94	225.50
944.24	225.55
944.54	225.60
944.84	225.57
945.13	225.51
945.43	225.44
945.73	225.49
946.03	225.46
946.33	225.44
946.62	225.36
946.92	225.37
947.22	225.34
947.52	225.36
947.82	225.43
948.11	225.41
948.41	225.29
948.71	225.10
949.01	225.08
949.31	225.08
949.60	225.00
949.90	225.08
950.20	225.03
950.50	225.07
950.79	225.06
951.09	225.13
951.39	225.12
951.69	225.08
951.98	225.12
952.28	225.09
952.58	225.14
952.87	225.21
953.17	225.27
953.47	225.27
953.76	225.32
954.06	225.24
954.36	225.17
954.66	225.20
954.95	225.40
955.25	225.47
955.55	225.53
955.84	225.48
956.14	225.49
956.44	225.59
956.73	225.44
957.03	225.54
957.32	225.53
957.62	225.60
957.92	225.74
958.21	225.72
958.51	226.31
958.81	226.38
959.10	226.43
959.40	226.49
959.69	226.54
959.99	226.65
960.29	226.70
960.58	226.64
960.88	226.77
961.17	226.76
961.47	226.82
961.76	226.80
962.06	226.95
962.36	226.88
962.65	226.92
962.95	226.98
963.24	226.82
963.54	226.95
963.83	226.93
964.13	226.86
964.42	226.70
964.72	226.38
965.01	226.30
965.31	226.27
965.60	226.19
965.90	226.42
966.19	226.24
966.49	226.29
966.78	226.32
967.08	226.30
967.37	226.21
967.67	226.08
967.96	226.15
968.26	226.06
968.55	226.17
968.85	226.11
969.14	226.03
969.43	226.13
969.73	225.99
970.02	225.96
970.32	225.90
970.61	225.92
970.91	225.76
971.20	225.73
971.49	225.69
971.79	225.73
972.08	225.40
972.38	225.42
972.67	225.32
972.96	225.45
973.26	225.37
973.55	225.55
973.85	225.56
974.14	225.52
974.43	225.59
974.73	225.48
975.02	225.44
975.31	225.54
975.61	225.47
975.90	225.43
976.19	225.49
976.49	225.51
976.78	225.54
977.07	225.48
977.37	225.51
977.66	225.51
977.95	225.45
978.24	225.54
978.54	225.69
978.83	225.66
979.12	225.58
979.42	225.51
979.71	225.44
980.00	225.45
980.29	225.46
980.59	225.42
980.88	225.63
981.17	225.65
981.46	225.65
981.76	225.64
982.05	225.80
982.34	225.74
982.63	225.83
982.93	225.84
983.22	225.99
983.51	225.93
983.80	226.05
984.09	226.14
984.39	226.05
984.68	225.92
984.97	226.02
985.26	226.02
985.55	226.11
985.85	225.96
986.14	226.07
986.43	226.16
986.72	226.11
987.01	225.90
987.30	225.90
987.59	225.84
987.89	225.93
988.18	225.77
988.47	225.76
988.76	225.65
989.05	225.59
989.34	225.49
989.63	225.72
989.92	225.58
990.22	225.46
990.51	225.42
990.80	225.41
991.09	225.38
991.38	225.44
991.67	225.40
991.96	225.42
992.25	225.35
992.54	225.27
992.83	225.29
993.12	225.31
993.41	225.38
993.70	225.52
993.99	225.59
994.28	225.70
994.58	225.75
994.87	225.73
995.16	225.78
995.45	225.81
995.74	225.59
996.03	225.74
996.32	225.89
996.61	226.03
996.90	226.03
997.19	225.99
997.48	226.04
997.77	226.03
998.06	226.05
998.34	226.09
998.63	226.05
998.92	226.03
999.21	226.03
999.50	226.05
999.79	225.87
1000.08	225.82
1000.37	225.82
1000.66	225.77
1000.95	225.83
1001.24	225.85
1001.53	225.93
1001.82	225.98
1002.11	225.82
1002.40	225.79
1002.68	225.94
1002.97	226.30
1003.26	226.27
1003.55	226.16
1003.84	226.13
1004.13	226.27
1004.42	226.14
1004.71	226.09
1004.99	226.10
1005.28	226.27
1005.57	226.17
1005.86	226.18
1006.15	226.17
1006.44	226.09
1006.72	226.18
1007.01	226.19
1007.30	226.19
1007.59	226.06
1007.88	226.05
1008.17	226.08
1008.45	225.95
1008.74	225.74
1009.03	225.44
1009.32	225.51
1009.60	225.50
1009.89	225.50
1010.18	225.29
1010.47	225.34
1010.76	225.33
1011.04	225.34
1011.33	225.40
1011.62	225.48
1011.91	225.52
1012.19	225.53
1012.48	225.48
1012.77	225.50
1013.05	225.68
1013.34	225.64
1013.63	225.56
1013.92	225.58
1014.20	225.59
1014.49	225.63
1014.78	225.69
1015.06	225.60
1015.35	225.50
1015.64	225.56
1015.92	225.64
1016.21	225.69
1016.50	225.70
1016.78	225.83
1017.07	225.83
1017.36	225.68
1017.64	225.57
1017.93	225.59
1018.22	225.47
1018.50	225.46
1018.79	225.42
1019.08	225.22
1019.36	225.23
1019.65	225.26
1019.93	225.31
1020.22	225.39
1020.51	225.64
1020.79	225.56
1021.08	223.45
1021.36	223.75
1021.65	225.95
1021.94	225.90
1022.22	225.25
1022.51	224.40
1022.79	226.05
1023.08	226.80
1023.36	230.80
1023.65	224.25
>>>>>End Processed Spectral Data<<<<<
