SpectraSuite Data File
++++++++++++++++++++++++++++++++++++
Date: Wed Sep 04 17:59:53 EDT 2013
User: lab3
Dark Spectrum Present: Yes
Reference Spectrum Present: No
Number of Sampled Component Spectra: 1
Spectrometers: USB2E7196
Integration Time (usec): 170000 (USB2E7196)
Spectra Averaged: 20 (USB2E7196)
Boxcar Smoothing: 10 (USB2E7196)
Correct for Electrical Dark: No (USB2E7196)
Strobe/Lamp Enabled: No (USB2E7196)
Correct for Detector Non-linearity: No (USB2E7196)
Correct for Stray Light: No (USB2E7196)
Number of Pixels in Processed Spectrum: 2048
>>>>>Begin Processed Spectral Data<<<<<
339.09	0.00
339.48	212.95
339.86	215.65
340.24	215.60
340.63	217.20
341.01	225.90
341.39	221.15
341.78	221.35
342.16	223.60
342.54	222.90
342.93	212.43
343.31	223.14
343.69	223.69
344.07	224.14
344.46	224.68
344.84	225.19
345.22	225.09
345.60	225.39
345.99	225.64
346.37	225.76
346.75	225.93
347.13	226.06
347.52	226.18
347.90	226.38
348.28	226.36
348.66	226.50
349.05	226.40
349.43	226.55
349.81	226.63
350.19	226.68
350.57	226.81
350.96	226.97
351.34	227.10
351.72	227.22
352.10	227.27
352.48	227.25
352.87	227.19
353.25	227.35
353.63	227.35
354.01	227.35
354.39	227.43
354.77	227.47
355.15	227.62
355.54	227.64
355.92	227.50
356.30	227.54
356.68	227.90
357.06	228.00
357.44	227.93
357.82	227.97
358.20	228.32
358.58	228.30
358.97	228.39
359.35	228.55
359.73	228.69
360.11	228.80
360.49	228.82
360.87	228.91
361.25	229.00
361.63	229.19
362.01	229.25
362.39	229.22
362.77	229.27
363.15	229.27
363.53	229.29
363.91	229.41
364.29	229.49
364.67	229.14
365.05	229.15
365.43	229.30
365.81	229.37
366.19	229.35
366.57	229.59
366.95	229.53
367.33	229.39
367.71	229.39
368.09	229.43
368.47	229.54
368.85	229.54
369.23	229.62
369.61	229.39
369.99	229.59
370.37	229.70
370.75	230.00
371.13	229.88
371.51	229.76
371.89	229.78
372.27	229.79
372.65	229.76
373.03	229.79
373.41	229.68
373.78	229.62
374.16	229.35
374.54	229.15
374.92	229.03
375.30	228.99
375.68	228.81
376.06	228.81
376.44	228.66
376.82	228.61
377.19	228.54
377.57	228.59
377.95	228.40
378.33	228.31
378.71	227.93
379.09	227.93
379.47	228.00
379.84	227.94
380.22	227.80
380.60	227.64
380.98	227.56
381.36	227.54
381.73	227.46
382.11	227.44
382.49	227.44
382.87	227.42
383.25	227.37
383.62	227.92
384.00	227.79
384.38	227.77
384.76	227.83
385.13	227.96
385.51	227.89
385.89	227.73
386.27	227.67
386.64	227.62
387.02	227.55
387.40	227.42
387.78	227.28
388.15	227.27
388.53	227.20
388.91	227.14
389.29	226.99
389.66	226.96
390.04	226.94
390.42	226.94
390.79	226.92
391.17	226.90
391.55	226.36
391.92	226.34
392.30	226.40
392.68	226.28
393.05	226.19
393.43	226.20
393.81	226.31
394.18	226.24
394.56	226.28
394.94	226.38
395.31	226.37
395.69	226.62
396.06	226.73
396.44	226.85
396.82	226.87
397.19	227.20
397.57	227.20
397.95	227.26
398.32	227.10
398.70	227.21
399.07	227.40
399.45	227.42
399.82	227.50
400.20	227.50
400.58	227.60
400.95	227.54
401.33	227.65
401.70	228.03
402.08	228.23
402.45	228.43
402.83	228.65
403.20	228.86
403.58	228.93
403.95	229.12
404.33	229.34
404.71	229.56
405.08	230.00
405.46	230.25
405.83	230.51
406.21	230.81
406.58	231.12
406.96	231.37
407.33	231.74
407.70	232.10
408.08	232.84
408.45	233.23
408.83	233.79
409.20	234.21
409.58	234.38
409.95	234.97
410.33	235.46
410.70	235.83
411.08	236.45
411.45	237.00
411.82	237.58
412.20	238.42
412.57	239.43
412.95	239.76
413.32	240.71
413.69	241.53
414.07	242.60
414.44	243.60
414.82	244.60
415.19	245.82
415.56	247.00
415.94	248.03
416.31	249.56
416.68	250.91
417.06	252.53
417.43	254.15
417.81	255.83
418.18	257.74
418.55	259.72
418.93	261.78
419.30	263.94
419.67	266.21
420.04	268.36
420.42	270.59
420.79	273.66
421.16	276.36
421.54	279.49
421.91	282.35
422.28	285.43
422.66	288.70
423.03	292.15
423.40	295.52
423.77	299.06
424.15	302.53
424.52	306.37
424.89	310.66
425.26	314.64
425.64	318.41
426.01	322.54
426.38	326.86
426.75	331.35
427.13	335.87
427.50	340.66
427.87	345.61
428.24	350.62
428.61	355.21
428.99	360.53
429.36	365.95
429.73	371.45
430.10	377.00
430.47	382.72
430.85	388.41
431.22	394.66
431.59	401.48
431.96	407.96
432.33	414.85
432.70	421.32
433.08	429.31
433.45	436.90
433.82	444.44
434.19	452.79
434.56	461.05
434.93	468.90
435.30	476.64
435.68	485.37
436.05	493.88
436.42	502.35
436.79	510.16
437.16	518.53
437.53	527.47
437.90	536.28
438.27	544.96
438.64	553.87
439.01	562.27
439.38	569.51
439.75	576.63
440.13	584.82
440.50	592.64
440.87	598.80
441.24	605.13
441.61	612.05
441.98	617.08
442.35	622.79
442.72	628.90
443.09	634.74
443.46	638.24
443.83	640.44
444.20	642.28
444.57	645.04
444.94	646.22
445.31	647.27
445.68	648.63
446.05	648.70
446.42	647.40
446.79	645.91
447.16	644.26
447.53	642.87
447.90	638.87
448.27	635.12
448.64	630.07
449.01	626.32
449.37	620.15
449.74	614.10
450.11	607.23
450.48	599.32
450.85	591.22
451.22	584.20
451.59	577.67
451.96	571.41
452.33	563.24
452.70	555.75
453.07	546.99
453.43	537.69
453.80	529.33
454.17	521.15
454.54	513.46
454.91	505.24
455.28	497.30
455.65	489.95
456.02	482.98
456.38	476.71
456.75	469.02
457.12	462.44
457.49	456.07
457.86	449.72
458.23	444.58
458.59	438.93
458.96	433.15
459.33	427.93
459.70	422.77
460.07	418.58
460.43	413.94
460.80	409.75
461.17	406.05
461.54	402.05
461.91	398.27
462.27	394.23
462.64	390.93
463.01	387.33
463.38	384.05
463.74	380.03
464.11	376.93
464.48	374.24
464.85	371.40
465.21	369.25
465.58	366.82
465.95	363.82
466.32	361.59
466.68	359.26
467.05	357.02
467.42	354.74
467.78	352.40
468.15	350.25
468.52	348.56
468.88	346.30
469.25	344.35
469.62	342.94
469.98	341.40
470.35	339.91
470.72	338.52
471.08	336.81
471.45	335.59
471.82	334.27
472.18	332.81
472.55	331.74
472.92	330.44
473.28	329.32
473.65	328.38
474.02	327.35
474.38	326.54
474.75	325.75
475.11	324.93
475.48	324.30
475.85	323.66
476.21	322.98
476.58	322.49
476.94	322.16
477.31	321.65
477.67	321.17
478.04	320.79
478.41	320.49
478.77	320.80
479.14	320.43
479.50	320.35
479.87	320.35
480.23	320.35
480.60	320.36
480.96	320.50
481.33	320.81
481.69	320.94
482.06	321.24
482.42	321.49
482.79	321.86
483.15	322.30
483.52	322.93
483.88	323.46
484.25	324.09
484.61	324.69
484.98	325.29
485.34	326.29
485.71	327.27
486.07	328.18
486.44	328.70
486.80	329.88
487.17	330.94
487.53	332.33
487.90	333.67
488.26	335.28
488.62	336.90
488.99	338.45
489.35	340.25
489.72	342.06
490.08	343.99
490.44	346.07
490.81	348.24
491.17	350.39
491.54	352.85
491.90	355.38
492.26	358.04
492.63	360.93
492.99	363.72
493.36	366.78
493.72	370.12
494.08	373.55
494.45	377.21
494.81	381.22
495.17	385.10
495.54	389.30
495.90	393.51
496.26	397.92
496.63	402.46
496.99	407.32
497.35	412.35
497.72	417.81
498.08	423.22
498.44	429.01
498.80	435.03
499.17	441.16
499.53	447.60
499.89	454.26
500.26	461.16
500.62	468.22
500.98	475.73
501.34	483.31
501.71	491.14
502.07	498.98
502.43	507.11
502.79	515.47
503.16	524.21
503.52	533.34
503.88	542.66
504.24	552.42
504.60	562.54
504.97	573.07
505.33	583.46
505.69	594.49
506.05	605.52
506.41	616.90
506.78	628.78
507.14	640.83
507.50	653.30
507.86	665.96
508.22	678.98
508.59	692.02
508.95	705.67
509.31	719.75
509.67	734.34
510.03	748.77
510.39	763.60
510.75	778.60
511.12	793.80
511.48	809.35
511.84	825.20
512.20	841.10
512.56	857.32
512.92	874.40
513.28	891.33
513.64	908.53
514.00	925.98
514.37	943.74
514.73	962.00
515.09	980.20
515.45	998.72
515.81	1017.09
516.17	1035.96
516.53	1054.81
516.89	1073.80
517.25	1093.06
517.61	1113.31
517.97	1133.65
518.33	1153.98
518.69	1174.41
519.05	1195.15
519.41	1216.08
519.77	1237.27
520.13	1257.87
520.49	1278.36
520.85	1300.77
521.21	1322.05
521.57	1343.50
521.93	1364.24
522.29	1385.67
522.65	1406.51
523.01	1427.28
523.37	1448.12
523.73	1469.45
524.09	1490.07
524.45	1510.79
524.81	1531.81
525.17	1552.61
525.53	1573.27
525.89	1594.21
526.25	1615.14
526.61	1635.75
526.97	1656.62
527.33	1677.86
527.68	1699.94
528.04	1721.57
528.40	1741.42
528.76	1762.47
529.12	1782.89
529.48	1803.99
529.84	1823.86
530.20	1845.37
530.56	1866.58
530.91	1887.79
531.27	1908.16
531.63	1929.01
531.99	1950.07
532.35	1970.01
532.71	1989.97
533.07	2010.77
533.42	2030.55
533.78	2050.64
534.14	2070.70
534.50	2089.86
534.86	2109.20
535.21	2127.08
535.57	2145.32
535.93	2163.00
536.29	2180.87
536.65	2199.36
537.00	2217.07
537.36	2235.25
537.72	2251.78
538.08	2268.77
538.44	2285.62
538.79	2301.92
539.15	2318.63
539.51	2334.37
539.87	2349.93
540.22	2364.57
540.58	2379.06
540.94	2392.87
541.29	2405.62
541.65	2418.16
542.01	2430.81
542.37	2441.28
542.72	2451.98
543.08	2462.78
543.44	2474.27
543.79	2484.52
544.15	2494.51
544.51	2504.72
544.87	2513.99
545.22	2522.41
545.58	2530.33
545.94	2537.46
546.29	2544.65
546.65	2550.88
547.01	2556.70
547.36	2562.57
547.72	2567.91
548.07	2571.97
548.43	2577.44
548.79	2582.15
549.14	2586.49
549.50	2590.45
549.86	2594.79
550.21	2598.93
550.57	2602.38
550.92	2604.16
551.28	2605.85
551.64	2608.23
551.99	2610.13
552.35	2611.74
552.70	2614.14
553.06	2615.87
553.41	2617.25
553.77	2618.47
554.13	2619.95
554.48	2621.44
554.84	2622.42
555.19	2623.65
555.55	2625.28
555.90	2624.41
556.26	2623.61
556.61	2621.80
556.97	2620.08
557.32	2619.25
557.68	2617.96
558.03	2616.38
558.39	2615.15
558.74	2614.30
559.10	2610.95
559.45	2607.35
559.81	2603.10
560.16	2598.03
560.52	2592.85
560.87	2588.79
561.23	2583.62
561.58	2577.69
561.94	2570.84
562.29	2563.47
562.64	2556.65
563.00	2548.26
563.35	2541.46
563.71	2535.00
564.06	2529.02
564.42	2522.32
564.77	2515.28
565.12	2508.03
565.48	2500.78
565.83	2492.81
566.19	2484.60
566.54	2477.06
566.89	2469.14
567.25	2461.18
567.60	2454.13
567.96	2447.07
568.31	2439.12
568.66	2430.59
569.02	2421.51
569.37	2413.39
569.72	2405.89
570.08	2396.27
570.43	2387.00
570.78	2377.97
571.14	2368.51
571.49	2358.20
571.84	2348.38
572.20	2337.70
572.55	2327.70
572.90	2316.48
573.26	2306.50
573.61	2295.42
573.96	2283.72
574.31	2271.24
574.67	2259.64
575.02	2246.45
575.37	2233.49
575.72	2219.94
576.08	2207.58
576.43	2195.12
576.78	2181.70
577.13	2167.92
577.49	2155.15
577.84	2143.26
578.19	2131.05
578.54	2118.12
578.90	2106.22
579.25	2093.63
579.60	2081.05
579.95	2067.58
580.30	2054.35
580.66	2040.58
581.01	2026.73
581.36	2013.09
581.71	2000.81
582.06	1987.68
582.42	1975.32
582.77	1962.40
583.12	1950.22
583.47	1937.70
583.82	1925.75
584.17	1913.72
584.53	1902.01
584.88	1889.33
585.23	1875.80
585.58	1861.24
585.93	1848.20
586.28	1834.72
586.63	1820.79
586.98	1806.61
587.34	1793.48
587.69	1780.46
588.04	1767.46
588.39	1755.44
588.74	1743.25
589.09	1730.76
589.44	1717.96
589.79	1705.64
590.14	1694.03
590.49	1681.81
590.84	1669.59
591.19	1657.34
591.54	1645.25
591.89	1632.79
592.25	1622.38
592.60	1610.90
592.95	1599.71
593.30	1587.67
593.65	1575.69
594.00	1564.01
594.35	1553.96
594.70	1541.77
595.05	1530.13
595.40	1518.26
595.75	1506.10
596.10	1494.89
596.45	1483.29
596.80	1472.32
597.15	1460.91
597.50	1448.75
597.85	1437.23
598.19	1425.60
598.54	1414.05
598.89	1402.59
599.24	1391.83
599.59	1380.05
599.94	1369.46
600.29	1359.12
600.64	1348.97
600.99	1338.03
601.34	1327.98
601.69	1316.96
602.04	1307.22
602.39	1297.43
602.74	1288.28
603.08	1279.17
603.43	1269.57
603.78	1259.92
604.13	1250.36
604.48	1240.59
604.83	1230.97
605.18	1221.31
605.53	1211.98
605.87	1202.49
606.22	1193.93
606.57	1184.62
606.92	1175.15
607.27	1166.02
607.62	1157.40
607.96	1148.42
608.31	1140.48
608.66	1132.08
609.01	1123.34
609.36	1114.63
609.70	1106.03
610.05	1097.35
610.40	1088.56
610.75	1079.62
611.10	1071.22
611.44	1062.44
611.79	1054.24
612.14	1046.44
612.49	1038.41
612.83	1030.93
613.18	1023.19
613.53	1015.31
613.88	1007.31
614.22	999.58
614.57	991.56
614.92	983.33
615.27	975.71
615.61	967.83
615.96	960.27
616.31	952.78
616.65	945.77
617.00	938.40
617.35	930.90
617.70	923.71
618.04	916.75
618.39	909.75
618.74	903.38
619.08	896.28
619.43	889.04
619.78	882.06
620.12	874.62
620.47	867.64
620.82	860.52
621.16	853.87
621.51	847.48
621.85	840.91
622.20	834.32
622.55	827.56
622.89	821.08
623.24	814.63
623.59	808.14
623.93	801.81
624.28	795.69
624.62	790.05
624.97	784.25
625.32	778.46
625.66	772.42
626.01	766.09
626.35	760.53
626.70	754.97
627.04	749.73
627.39	744.01
627.73	738.78
628.08	733.55
628.43	727.99
628.77	722.37
629.12	717.10
629.46	712.29
629.81	707.47
630.15	702.62
630.50	697.63
630.84	692.68
631.19	687.89
631.53	683.19
631.88	677.95
632.22	672.94
632.57	668.25
632.91	663.59
633.26	659.27
633.60	654.56
633.95	649.82
634.29	644.92
634.64	640.54
634.98	635.59
635.32	631.01
635.67	626.90
636.01	622.66
636.36	618.43
636.70	614.22
637.05	610.12
637.39	606.02
637.73	601.95
638.08	597.90
638.42	593.57
638.77	589.20
639.11	584.84
639.45	580.50
639.80	576.13
640.14	572.05
640.49	567.93
640.83	564.24
641.17	560.69
641.52	556.80
641.86	553.22
642.20	550.16
642.55	546.46
642.89	542.82
643.23	539.42
643.58	536.18
643.92	532.42
644.26	528.96
644.61	525.61
644.95	522.24
645.29	518.98
645.64	515.90
645.98	512.83
646.32	509.84
646.66	506.79
647.01	503.75
647.35	500.94
647.69	497.92
648.04	494.95
648.38	492.00
648.72	489.23
649.06	486.18
649.41	482.97
649.75	479.98
650.09	477.18
650.43	474.23
650.78	471.27
651.12	468.52
651.46	465.68
651.80	462.83
652.14	460.13
652.49	457.52
652.83	454.77
653.17	452.15
653.51	449.40
653.85	447.02
654.20	444.57
654.54	441.91
654.88	439.53
655.22	437.34
655.56	434.92
655.90	432.54
656.25	430.36
656.59	428.17
656.93	426.06
657.27	423.89
657.61	421.45
657.95	419.27
658.29	417.13
658.64	415.06
658.98	412.95
659.32	410.65
659.66	408.34
660.00	406.28
660.34	404.20
660.68	402.34
661.02	400.25
661.36	398.17
661.70	396.16
662.05	394.14
662.39	392.13
662.73	390.26
663.07	388.62
663.41	386.72
663.75	384.79
664.09	382.93
664.43	380.94
664.77	379.31
665.11	377.51
665.45	375.90
665.79	374.25
666.13	372.51
666.47	370.83
666.81	369.28
667.15	367.63
667.49	366.08
667.83	364.63
668.17	363.17
668.51	361.75
668.85	360.38
669.19	359.20
669.53	357.52
669.87	355.95
670.21	354.39
670.55	352.97
670.89	351.90
671.23	350.48
671.57	349.11
671.91	347.75
672.25	346.43
672.58	345.15
672.92	343.71
673.26	342.45
673.60	341.25
673.94	340.08
674.28	338.90
674.62	337.73
674.96	336.43
675.30	335.19
675.64	333.90
675.97	332.65
676.31	331.18
676.65	330.02
676.99	329.17
677.33	327.94
677.67	326.85
678.01	325.46
678.34	324.36
678.68	323.50
679.02	322.51
679.36	321.43
679.70	320.34
680.04	319.33
680.37	318.29
680.71	317.30
681.05	316.32
681.39	315.42
681.73	314.49
682.06	313.50
682.40	312.60
682.74	311.80
683.08	311.09
683.42	310.26
683.75	309.48
684.09	308.39
684.43	307.60
684.77	306.73
685.10	305.95
685.44	305.20
685.78	304.28
686.12	303.46
686.45	302.66
686.79	301.83
687.13	301.27
687.46	300.51
687.80	299.86
688.14	299.00
688.48	298.22
688.81	297.45
689.15	296.85
689.49	296.17
689.82	295.54
690.16	294.69
690.50	293.89
690.83	293.19
691.17	292.49
691.51	291.79
691.84	291.20
692.18	290.50
692.52	289.80
692.85	289.18
693.19	288.75
693.52	288.15
693.86	287.48
694.20	286.78
694.53	286.14
694.87	285.48
695.21	285.00
695.54	284.36
695.88	283.62
696.21	282.91
696.55	282.30
696.88	281.56
697.22	280.99
697.56	280.62
697.89	279.95
698.23	279.43
698.56	278.97
698.90	278.46
699.23	277.92
699.57	277.35
699.90	276.75
700.24	276.05
700.58	275.61
700.91	275.22
701.25	274.97
701.58	274.89
701.92	274.55
702.25	274.06
702.59	273.65
702.92	273.23
703.26	272.89
703.59	272.49
703.93	272.62
704.26	272.23
704.60	271.75
704.93	271.40
705.26	270.93
705.60	270.50
705.93	269.97
706.27	269.76
706.60	269.57
706.94	269.39
707.27	268.97
707.61	268.54
707.94	268.13
708.27	267.47
708.61	266.83
708.94	266.35
709.28	266.02
709.61	265.62
709.94	265.35
710.28	264.85
710.61	264.51
710.95	263.61
711.28	263.49
711.61	263.02
711.95	262.72
712.28	262.26
712.61	261.96
712.95	261.85
713.28	261.61
713.61	261.11
713.95	260.62
714.28	260.35
714.61	260.00
714.95	259.66
715.28	259.21
715.61	258.80
715.95	258.52
716.28	258.11
716.61	257.84
716.95	257.46
717.28	257.21
717.61	256.86
717.94	256.59
718.28	255.94
718.61	255.67
718.94	255.34
719.27	255.19
719.61	254.91
719.94	254.50
720.27	254.02
720.60	253.71
720.94	253.49
721.27	253.24
721.60	253.09
721.93	252.82
722.27	252.73
722.60	252.52
722.93	252.20
723.26	252.00
723.59	251.65
723.93	251.47
724.26	251.22
724.59	250.98
724.92	250.89
725.25	250.77
725.59	250.61
725.92	250.46
726.25	250.26
726.58	250.04
726.91	249.82
727.24	249.64
727.57	249.54
727.91	249.24
728.24	249.04
728.57	248.77
728.90	248.62
729.23	248.33
729.56	248.35
729.89	248.17
730.22	248.00
730.55	247.83
730.89	247.67
731.22	247.49
731.55	247.28
731.88	247.07
732.21	246.86
732.54	246.65
732.87	246.51
733.20	246.29
733.53	246.14
733.86	246.07
734.19	245.87
734.52	245.72
734.85	245.94
735.18	245.78
735.51	245.73
735.84	245.62
736.17	245.57
736.50	245.20
736.83	245.67
737.16	245.54
737.49	245.42
737.82	245.24
738.15	245.14
738.48	245.10
738.81	244.96
739.14	244.72
739.47	244.53
739.80	244.31
740.13	244.24
740.46	243.98
740.79	243.70
741.12	243.60
741.45	243.37
741.78	242.95
742.11	242.94
742.44	242.70
742.77	242.62
743.10	242.42
743.43	242.27
743.75	241.65
744.08	242.10
744.41	241.96
744.74	241.85
745.07	241.67
745.40	241.55
745.73	241.57
746.06	241.47
746.39	241.40
746.71	241.25
747.04	241.08
747.37	240.97
747.70	240.95
748.03	240.81
748.36	240.80
748.68	240.76
749.01	240.53
749.34	240.46
749.67	240.32
750.00	240.29
750.33	240.53
750.65	240.38
750.98	239.67
751.31	239.55
751.64	239.42
751.97	239.58
752.29	239.48
752.62	239.15
752.95	239.06
753.28	238.90
753.60	238.85
753.93	238.86
754.26	238.81
754.59	238.49
754.91	238.33
755.24	238.20
755.57	238.02
755.90	237.85
756.22	237.66
756.55	237.47
756.88	237.21
757.20	236.77
757.53	236.58
757.86	236.45
758.19	236.43
758.51	236.40
758.84	236.01
759.17	235.83
759.49	235.76
759.82	235.90
760.15	235.90
760.47	235.76
760.80	235.52
761.13	235.45
761.45	235.48
761.78	235.37
762.11	235.23
762.43	235.10
762.76	235.00
763.08	234.97
763.41	234.91
763.74	234.93
764.06	234.85
764.39	234.70
764.71	234.60
765.04	234.45
765.37	234.26
765.69	234.19
766.02	234.06
766.34	233.96
766.67	233.71
767.00	233.74
767.32	233.95
767.65	234.17
767.97	234.12
768.30	234.13
768.62	234.12
768.95	233.97
769.27	233.88
769.60	233.96
769.92	233.82
770.25	233.67
770.57	233.54
770.90	233.38
771.22	233.39
771.55	233.38
771.87	233.33
772.20	233.19
772.52	233.60
772.85	234.14
773.17	234.12
773.50	234.02
773.82	233.86
774.15	233.52
774.47	233.19
774.80	233.12
775.12	233.08
775.45	232.96
775.77	233.09
776.09	233.10
776.42	232.98
776.74	233.10
777.07	233.05
777.39	233.01
777.72	233.03
778.04	232.99
778.36	232.95
778.69	232.96
779.01	232.98
779.33	232.40
779.66	231.84
779.98	231.70
780.31	231.75
780.63	231.85
780.95	231.92
781.28	231.89
781.60	231.72
781.92	231.59
782.25	231.55
782.57	231.43
782.89	231.36
783.22	231.28
783.54	231.19
783.86	231.20
784.19	231.20
784.51	231.30
784.83	231.23
785.16	231.06
785.48	230.97
785.80	230.96
786.12	231.00
786.45	231.02
786.77	231.08
787.09	231.00
787.42	230.78
787.74	230.75
788.06	230.76
788.38	230.75
788.71	230.69
789.03	230.67
789.35	230.67
789.67	230.59
789.99	230.59
790.32	230.50
790.64	230.51
790.96	230.83
791.28	230.61
791.61	230.56
791.93	230.71
792.25	230.64
792.57	231.00
792.89	230.89
793.21	230.83
793.54	230.78
793.86	230.60
794.18	230.60
794.50	230.48
794.82	230.51
795.14	230.55
795.47	230.66
795.79	230.70
796.11	230.65
796.43	230.60
796.75	230.61
797.07	230.61
797.39	230.55
797.71	230.18
798.04	230.18
798.36	230.17
798.68	230.05
799.00	230.15
799.32	229.89
799.64	230.05
799.96	230.07
800.28	230.14
800.60	230.22
800.92	230.31
801.24	230.25
801.56	230.15
801.89	230.00
802.21	229.87
802.53	229.79
802.85	229.82
803.17	230.01
803.49	229.85
803.81	229.76
804.13	229.73
804.45	229.64
804.77	229.65
805.09	229.61
805.41	229.53
805.73	229.39
806.05	229.17
806.37	229.10
806.69	228.92
807.01	228.80
807.33	228.74
807.65	228.48
807.97	228.68
808.28	228.65
808.60	228.66
808.92	228.70
809.24	228.91
809.56	228.86
809.88	228.70
810.20	228.72
810.52	228.81
810.84	228.71
811.16	228.63
811.48	228.59
811.80	228.75
812.12	228.76
812.43	228.77
812.75	228.90
813.07	228.76
813.39	228.88
813.71	228.81
814.03	228.79
814.35	228.92
814.67	228.77
814.98	228.76
815.30	228.85
815.62	228.77
815.94	228.49
816.26	228.64
816.58	228.55
816.89	228.58
817.21	228.42
817.53	228.48
817.85	228.50
818.17	228.51
818.48	228.39
818.80	228.49
819.12	228.49
819.44	228.35
819.76	228.33
820.07	228.30
820.39	228.37
820.71	228.37
821.03	228.28
821.34	228.21
821.66	228.23
821.98	228.21
822.30	228.15
822.61	228.47
822.93	228.25
823.25	228.26
823.57	228.25
823.88	228.37
824.20	228.41
824.52	228.51
824.83	228.42
825.15	228.35
825.47	228.28
825.79	228.24
826.10	228.20
826.42	228.18
826.74	228.24
827.05	228.17
827.37	228.20
827.69	228.22
828.00	228.22
828.32	228.24
828.64	228.27
828.95	228.55
829.27	228.35
829.58	228.38
829.90	228.41
830.22	228.42
830.53	228.32
830.85	228.24
831.17	228.14
831.48	228.25
831.80	228.24
832.11	228.17
832.43	228.19
832.75	228.27
833.06	228.58
833.38	228.44
833.69	228.39
834.01	228.38
834.32	228.35
834.64	228.30
834.96	228.28
835.27	228.19
835.59	228.07
835.90	227.98
836.22	227.92
836.53	227.84
836.85	227.81
837.16	228.25
837.48	228.24
837.79	228.33
838.11	228.30
838.42	228.27
838.74	228.41
839.05	228.33
839.37	228.22
839.68	227.91
840.00	227.89
840.31	227.93
840.63	227.91
840.94	227.85
841.26	227.78
841.57	227.72
841.88	227.78
842.20	227.64
842.51	227.62
842.83	227.64
843.14	228.10
843.46	227.98
843.77	227.69
844.08	227.68
844.40	227.57
844.71	227.46
845.03	227.43
845.34	227.38
845.65	227.31
845.97	227.36
846.28	227.37
846.60	227.39
846.91	227.29
847.22	227.22
847.54	227.36
847.85	227.38
848.16	227.34
848.48	227.25
848.79	227.41
849.10	227.46
849.42	227.43
849.73	227.00
850.04	227.06
850.36	226.90
850.67	227.03
850.98	227.09
851.30	227.16
851.61	227.15
851.92	227.09
852.23	227.22
852.55	227.23
852.86	227.22
853.17	227.22
853.49	227.35
853.80	227.51
854.11	227.45
854.42	227.51
854.74	227.50
855.05	227.48
855.36	227.20
855.67	227.13
855.99	227.18
856.30	227.70
856.61	227.68
856.92	227.70
857.23	227.61
857.55	227.48
857.86	227.46
858.17	227.59
858.48	227.53
858.79	227.54
859.11	227.55
859.42	227.47
859.73	227.38
860.04	227.28
860.35	227.12
860.66	227.03
860.98	227.02
861.29	227.00
861.60	226.96
861.91	227.16
862.22	227.15
862.53	227.07
862.84	226.47
863.16	226.54
863.47	226.45
863.78	226.41
864.09	226.49
864.40	226.56
864.71	226.49
865.02	226.55
865.33	226.45
865.64	226.34
865.95	226.40
866.27	226.80
866.58	226.86
866.89	226.95
867.20	227.01
867.51	226.99
867.82	226.98
868.13	227.16
868.44	226.95
868.75	227.05
869.06	227.10
869.37	227.19
869.68	227.11
869.99	227.21
870.30	227.23
870.61	227.24
870.92	227.12
871.23	227.07
871.54	227.11
871.85	227.23
872.16	227.33
872.47	227.21
872.78	226.89
873.09	226.85
873.40	226.85
873.71	226.82
874.02	226.77
874.33	226.70
874.64	226.57
874.95	226.72
875.26	226.51
875.56	226.49
875.87	226.45
876.18	226.40
876.49	226.82
876.80	226.72
877.11	226.65
877.42	226.65
877.73	226.61
878.04	226.51
878.35	226.47
878.66	226.54
878.96	226.62
879.27	226.58
879.58	226.60
879.89	226.49
880.20	226.58
880.51	226.55
880.82	226.56
881.12	226.58
881.43	226.49
881.74	226.50
882.05	226.48
882.36	226.52
882.67	226.55
882.97	226.05
883.28	226.07
883.59	226.10
883.90	226.14
884.21	226.29
884.51	226.25
884.82	226.24
885.13	226.16
885.44	226.17
885.74	226.21
886.05	226.20
886.36	226.23
886.67	226.09
886.98	226.39
887.28	226.44
887.59	226.46
887.90	226.49
888.20	226.49
888.51	226.56
888.82	226.46
889.13	226.55
889.43	226.98
889.74	227.00
890.05	226.96
890.35	226.88
890.66	226.77
890.97	226.78
891.28	226.71
891.58	226.73
891.89	226.74
892.20	226.66
892.50	226.64
892.81	226.66
893.12	226.72
893.42	226.47
893.73	226.52
894.04	226.50
894.34	226.54
894.65	226.58
894.95	226.59
895.26	226.65
895.57	226.84
895.87	226.39
896.18	226.44
896.48	226.50
896.79	226.60
897.10	226.74
897.40	226.73
897.71	226.84
898.01	226.79
898.32	226.78
898.63	226.83
898.93	226.83
899.24	226.79
899.54	226.74
899.85	226.75
900.15	226.75
900.46	226.72
900.76	226.75
901.07	226.73
901.38	226.66
901.68	226.67
901.99	226.38
902.29	226.48
902.60	226.52
902.90	226.46
903.21	226.47
903.51	226.41
903.82	226.59
904.12	226.53
904.43	226.53
904.73	226.53
905.03	226.59
905.34	227.11
905.64	227.10
905.95	227.15
906.25	227.13
906.56	227.12
906.86	227.17
907.17	227.19
907.47	227.16
907.77	227.20
908.08	227.16
908.38	227.18
908.69	227.14
908.99	227.20
909.30	227.26
909.60	227.25
909.90	227.20
910.21	227.01
910.51	226.97
910.81	226.97
911.12	227.04
911.42	227.02
911.73	226.54
912.03	226.61
912.33	226.67
912.64	226.64
912.94	226.64
913.24	226.56
913.55	226.53
913.85	226.58
914.15	226.65
914.46	226.75
914.76	226.70
915.06	226.65
915.37	226.53
915.67	226.49
915.97	226.48
916.27	226.37
916.58	226.45
916.88	226.45
917.18	226.45
917.49	226.71
917.79	226.74
918.09	226.79
918.39	226.91
918.70	226.90
919.00	226.96
919.30	227.18
919.60	227.19
919.91	227.12
920.21	227.13
920.51	226.98
920.81	226.98
921.12	227.08
921.42	227.11
921.72	227.19
922.02	227.24
922.32	227.34
922.63	227.41
922.93	227.59
923.23	227.63
923.53	227.60
923.83	227.35
924.13	227.35
924.44	227.33
924.74	227.41
925.04	227.52
925.34	227.51
925.64	227.33
925.94	227.32
926.24	227.59
926.55	227.60
926.85	227.67
927.15	227.64
927.45	227.66
927.75	227.75
928.05	227.67
928.35	227.67
928.65	227.66
928.95	227.74
929.26	227.57
929.56	227.71
929.86	227.77
930.16	227.71
930.46	227.62
930.76	227.70
931.06	227.42
931.36	227.17
931.66	227.21
931.96	227.21
932.26	227.20
932.56	227.01
932.86	226.99
933.16	227.02
933.46	226.91
933.76	226.89
934.06	226.96
934.36	227.12
934.66	227.02
934.96	226.93
935.26	226.95
935.56	227.00
935.86	226.84
936.16	226.77
936.46	226.72
936.76	226.73
937.06	226.61
937.36	226.63
937.66	226.77
937.96	226.76
938.26	226.62
938.56	226.65
938.86	226.61
939.16	226.72
939.46	226.71
939.76	226.71
940.06	226.69
940.35	226.50
940.65	226.23
940.95	226.29
941.25	226.20
941.55	226.16
941.85	226.09
942.15	226.14
942.45	226.30
942.75	226.26
943.04	226.25
943.34	226.37
943.64	226.38
943.94	226.31
944.24	226.30
944.54	226.36
944.84	226.34
945.13	226.30
945.43	226.20
945.73	226.20
946.03	226.22
946.33	226.14
946.62	226.17
946.92	226.23
947.22	226.29
947.52	226.37
947.82	226.33
948.11	226.25
948.41	226.13
948.71	225.93
949.01	225.97
949.31	225.97
949.60	225.85
949.90	225.89
950.20	225.84
950.50	225.82
950.79	225.77
951.09	225.82
951.39	225.91
951.69	225.81
951.98	225.86
952.28	225.88
952.58	225.84
952.87	225.79
953.17	225.84
953.47	225.73
953.76	225.71
954.06	225.61
954.36	225.54
954.66	225.54
954.95	225.72
955.25	225.81
955.55	225.85
955.84	225.77
956.14	225.78
956.44	225.79
956.73	225.68
957.03	225.75
957.32	225.71
957.62	225.64
957.92	225.77
958.21	225.75
958.51	226.29
958.81	226.45
959.10	226.54
959.40	226.64
959.69	226.71
959.99	226.71
960.29	226.86
960.58	226.92
960.88	227.15
961.17	226.97
961.47	227.00
961.76	226.91
962.06	227.01
962.36	227.00
962.65	227.11
962.95	227.19
963.24	227.13
963.54	227.10
963.83	227.14
964.13	227.11
964.42	227.05
964.72	226.67
965.01	226.58
965.31	226.50
965.60	226.40
965.90	226.64
966.19	226.56
966.49	226.55
966.78	226.52
967.08	226.45
967.37	226.55
967.67	226.44
967.96	226.52
968.26	226.47
968.55	226.52
968.85	226.43
969.14	226.33
969.43	226.38
969.73	226.46
970.02	226.45
970.32	226.44
970.61	226.44
970.91	226.36
971.20	226.39
971.49	226.39
971.79	226.41
972.08	226.20
972.38	226.27
972.67	226.18
972.96	226.36
973.26	226.27
973.55	226.44
973.85	226.47
974.14	226.48
974.43	226.59
974.73	226.49
975.02	226.51
975.31	226.62
975.61	226.59
975.90	226.44
976.19	226.36
976.49	226.42
976.78	226.37
977.07	226.37
977.37	226.38
977.66	226.36
977.95	226.35
978.24	226.32
978.54	226.45
978.83	226.46
979.12	226.36
979.42	226.34
979.71	226.21
980.00	226.19
980.29	226.19
980.59	226.04
980.88	226.19
981.17	226.16
981.46	226.14
981.76	226.16
982.05	226.37
982.34	226.44
982.63	226.38
982.93	226.41
983.22	226.56
983.51	226.61
983.80	226.68
984.09	226.70
984.39	226.72
984.68	226.65
984.97	226.71
985.26	226.69
985.55	226.75
985.85	226.65
986.14	226.81
986.43	226.87
986.72	226.91
987.01	226.76
987.30	226.78
987.59	226.73
987.89	226.75
988.18	226.61
988.47	226.49
988.76	226.51
989.05	226.50
989.34	226.31
989.63	226.39
989.92	226.30
990.22	226.25
990.51	226.20
990.80	226.15
991.09	226.06
991.38	226.09
991.67	226.04
991.96	226.00
992.25	225.94
992.54	225.80
992.83	225.75
993.12	225.73
993.41	225.78
993.70	226.06
993.99	226.15
994.28	226.22
994.58	226.39
994.87	226.30
995.16	226.31
995.45	226.33
995.74	226.17
996.03	226.30
996.32	226.39
996.61	226.44
996.90	226.42
997.19	226.43
997.48	226.47
997.77	226.40
998.06	226.46
998.34	226.42
998.63	226.43
998.92	226.45
999.21	226.52
999.50	226.54
999.79	226.32
1000.08	226.24
1000.37	226.21
1000.66	226.10
1000.95	226.18
1001.24	226.24
1001.53	226.26
1001.82	226.17
1002.11	226.00
1002.40	225.97
1002.68	226.08
1002.97	226.41
1003.26	226.42
1003.55	226.26
1003.84	226.30
1004.13	226.46
1004.42	226.44
1004.71	226.45
1004.99	226.43
1005.28	226.57
1005.57	226.43
1005.86	226.40
1006.15	226.35
1006.44	226.34
1006.72	226.42
1007.01	226.31
1007.30	226.26
1007.59	226.20
1007.88	226.23
1008.17	226.28
1008.45	226.19
1008.74	225.98
1009.03	225.70
1009.32	225.70
1009.60	225.73
1009.89	225.67
1010.18	225.45
1010.47	225.40
1010.76	225.43
1011.04	225.43
1011.33	225.42
1011.62	225.50
1011.91	225.50
1012.19	225.58
1012.48	225.50
1012.77	225.53
1013.05	225.79
1013.34	225.80
1013.63	225.79
1013.92	225.81
1014.20	225.81
1014.49	225.87
1014.78	225.95
1015.06	225.86
1015.35	225.82
1015.64	225.97
1015.92	226.06
1016.21	226.13
1016.50	226.15
1016.78	226.21
1017.07	226.20
1017.36	226.15
1017.64	226.17
1017.93	226.26
1018.22	226.20
1018.50	226.24
1018.79	226.19
1019.08	226.05
1019.36	226.10
1019.65	226.08
1019.93	226.29
1020.22	226.41
1020.51	226.63
1020.79	226.60
1021.08	225.55
1021.36	225.55
1021.65	226.00
1021.94	227.05
1022.22	226.95
1022.51	225.25
1022.79	229.45
1023.08	227.70
1023.36	231.15
1023.65	225.60
>>>>>End Processed Spectral Data<<<<<
