SpectraSuite Data File
++++++++++++++++++++++++++++++++++++
Date: Wed Sep 04 17:51:56 EDT 2013
User: lab3
Dark Spectrum Present: Yes
Reference Spectrum Present: No
Number of Sampled Component Spectra: 1
Spectrometers: USB2E7196
Integration Time (usec): 170000 (USB2E7196)
Spectra Averaged: 20 (USB2E7196)
Boxcar Smoothing: 10 (USB2E7196)
Correct for Electrical Dark: No (USB2E7196)
Strobe/Lamp Enabled: No (USB2E7196)
Correct for Detector Non-linearity: No (USB2E7196)
Correct for Stray Light: No (USB2E7196)
Number of Pixels in Processed Spectrum: 2048
>>>>>Begin Processed Spectral Data<<<<<
339.09	0.00
339.48	212.65
339.86	214.90
340.24	215.95
340.63	217.60
341.01	225.90
341.39	219.20
341.78	222.45
342.16	225.30
342.54	222.55
342.93	212.35
343.31	223.07
343.69	223.63
344.07	224.11
344.46	224.55
344.84	224.92
345.22	224.84
345.60	225.15
345.99	225.31
346.37	225.32
346.75	225.41
347.13	225.45
347.52	225.47
347.90	225.71
348.28	225.77
348.66	225.88
349.05	225.80
349.43	225.89
349.81	226.00
350.19	226.00
350.57	226.02
350.96	226.20
351.34	226.25
351.72	226.33
352.10	226.37
352.48	226.42
352.87	226.50
353.25	226.61
353.63	226.66
354.01	226.73
354.39	226.79
354.77	226.90
355.15	227.03
355.54	227.10
355.92	226.93
356.30	227.06
356.68	227.39
357.06	227.39
357.44	227.39
357.82	227.38
358.20	227.95
358.58	228.07
358.97	228.08
359.35	228.25
359.73	228.39
360.11	228.46
360.49	228.56
360.87	228.56
361.25	228.68
361.63	228.85
362.01	228.95
362.39	228.95
362.77	229.03
363.15	229.07
363.53	229.12
363.91	229.14
364.29	229.10
364.67	228.67
365.05	228.72
365.43	228.82
365.81	228.95
366.19	228.76
366.57	228.98
366.95	229.01
367.33	228.87
367.71	228.90
368.09	229.02
368.47	229.01
368.85	229.08
369.23	229.11
369.61	228.92
369.99	229.02
370.37	229.12
370.75	229.36
371.13	229.30
371.51	229.23
371.89	229.30
372.27	229.27
372.65	229.34
373.03	229.35
373.41	229.29
373.78	229.13
374.16	228.84
374.54	228.61
374.92	228.53
375.30	228.57
375.68	228.34
376.06	228.35
376.44	228.26
376.82	228.18
377.19	228.12
377.57	228.11
377.95	227.87
378.33	227.77
378.71	227.32
379.09	227.33
379.47	227.31
379.84	227.15
380.22	227.09
380.60	226.90
380.98	226.75
381.36	226.68
381.73	226.63
382.11	226.62
382.49	226.53
382.87	226.44
383.25	226.32
383.62	226.84
384.00	226.61
384.38	226.60
384.76	226.63
385.13	226.67
385.51	226.61
385.89	226.54
386.27	226.48
386.64	226.63
387.02	226.55
387.40	226.47
387.78	226.50
388.15	226.44
388.53	226.38
388.91	226.30
389.29	226.28
389.66	226.31
390.04	226.26
390.42	226.30
390.79	226.25
391.17	226.22
391.55	225.65
391.92	225.64
392.30	225.67
392.68	225.61
393.05	225.65
393.43	225.73
393.81	225.79
394.18	225.77
394.56	225.70
394.94	225.72
395.31	225.67
395.69	225.78
396.06	225.92
396.44	226.07
396.82	226.14
397.19	226.41
397.57	226.44
397.95	226.53
398.32	226.49
398.70	226.59
399.07	226.80
399.45	226.96
399.82	227.05
400.20	227.13
400.58	227.19
400.95	227.05
401.33	227.20
401.70	227.60
402.08	227.70
402.45	227.96
402.83	228.25
403.20	228.56
403.58	228.70
403.95	228.89
404.33	229.05
404.71	229.23
405.08	229.63
405.46	229.79
405.83	230.00
406.21	230.28
406.58	230.70
406.96	230.96
407.33	231.31
407.70	231.70
408.08	232.43
408.45	232.96
408.83	233.62
409.20	234.00
409.58	234.21
409.95	234.80
410.33	235.28
410.70	235.62
411.08	236.06
411.45	236.63
411.82	237.20
412.20	238.02
412.57	239.02
412.95	239.40
413.32	240.26
413.69	241.19
414.07	242.15
414.44	243.04
414.82	244.07
415.19	245.25
415.56	246.38
415.94	247.42
416.31	248.74
416.68	250.00
417.06	251.58
417.43	253.27
417.81	254.99
418.18	256.87
418.55	258.76
418.93	260.83
419.30	262.88
419.67	265.23
420.04	267.45
420.42	269.80
420.79	272.76
421.16	275.59
421.54	278.61
421.91	281.55
422.28	284.65
422.66	287.89
423.03	291.28
423.40	294.57
423.77	298.00
424.15	301.65
424.52	305.45
424.89	309.60
425.26	313.45
425.64	317.20
426.01	321.17
426.38	325.60
426.75	330.13
427.13	334.67
427.50	339.25
427.87	344.03
428.24	348.87
428.61	353.30
428.99	358.44
429.36	363.79
429.73	369.20
430.10	374.57
430.47	380.22
430.85	385.81
431.22	391.95
431.59	398.70
431.96	404.81
432.33	411.69
432.70	418.27
433.08	426.04
433.45	433.31
433.82	440.58
434.19	448.75
434.56	456.82
434.93	464.41
435.30	472.04
435.68	480.66
436.05	489.06
436.42	497.52
436.79	505.20
437.16	513.51
437.53	522.30
437.90	531.02
438.27	539.53
438.64	548.53
439.01	556.79
439.38	564.03
439.75	571.16
440.13	579.15
440.50	586.73
440.87	593.02
441.24	599.52
441.61	606.64
441.98	611.80
442.35	617.50
442.72	623.55
443.09	629.49
443.46	632.81
443.83	635.15
444.20	637.15
444.57	639.86
444.94	640.99
445.31	642.15
445.68	643.53
446.05	643.77
446.42	642.41
446.79	641.13
447.16	639.43
447.53	638.17
447.90	634.47
448.27	630.78
448.64	625.78
449.01	622.12
449.37	615.93
449.74	609.75
450.11	603.09
450.48	595.42
450.85	587.42
451.22	580.63
451.59	574.00
451.96	567.69
452.33	559.67
452.70	552.40
453.07	543.79
453.43	534.74
453.80	526.46
454.17	518.37
454.54	510.70
454.91	502.66
455.28	494.73
455.65	487.39
456.02	480.65
456.38	474.40
456.75	466.62
457.12	460.12
457.49	453.94
457.86	447.56
458.23	442.59
458.59	436.91
458.96	431.31
459.33	426.38
459.70	421.32
460.07	417.24
460.43	412.55
460.80	408.26
461.17	404.54
461.54	400.50
461.91	396.78
462.27	392.90
462.64	389.55
463.01	385.96
463.38	382.68
463.74	378.61
464.11	375.53
464.48	372.96
464.85	370.14
465.21	368.04
465.58	365.78
465.95	362.80
466.32	360.67
466.68	358.48
467.05	356.22
467.42	354.03
467.78	351.80
468.15	349.66
468.52	348.12
468.88	345.89
469.25	343.95
469.62	342.49
469.98	340.88
470.35	339.36
470.72	337.93
471.08	336.23
471.45	335.11
471.82	333.84
472.18	332.36
472.55	331.37
472.92	330.01
473.28	328.84
473.65	327.88
474.02	326.71
474.38	325.69
474.75	324.92
475.11	324.05
475.48	323.33
475.85	322.79
476.21	322.15
476.58	321.73
476.94	321.36
477.31	320.84
477.67	320.34
478.04	319.95
478.41	319.77
478.77	320.03
479.14	319.66
479.50	319.61
479.87	319.63
480.23	319.60
480.60	319.55
480.96	319.51
481.33	319.78
481.69	319.96
482.06	320.20
482.42	320.46
482.79	320.79
483.15	321.28
483.52	321.84
483.88	322.24
484.25	322.74
484.61	323.34
484.98	323.97
485.34	325.08
485.71	326.08
486.07	327.03
486.44	327.66
486.80	328.75
487.17	329.76
487.53	331.18
487.90	332.62
488.26	334.22
488.62	335.87
488.99	337.35
489.35	339.21
489.72	341.07
490.08	342.98
490.44	344.99
490.81	347.17
491.17	349.24
491.54	351.72
491.90	354.30
492.26	356.97
492.63	359.90
492.99	362.63
493.36	365.70
493.72	369.02
494.08	372.35
494.45	376.00
494.81	379.85
495.17	383.71
495.54	387.81
495.90	392.01
496.26	396.53
496.63	401.23
496.99	405.95
497.35	411.06
497.72	416.35
498.08	421.83
498.44	427.55
498.80	433.73
499.17	439.74
499.53	445.99
499.89	452.62
500.26	459.38
500.62	466.31
500.98	473.65
501.34	481.15
501.71	488.94
502.07	496.73
502.43	504.81
502.79	513.14
503.16	521.86
503.52	530.90
503.88	540.17
504.24	549.73
504.60	559.75
504.97	570.05
505.33	580.49
505.69	591.45
506.05	602.47
506.41	613.65
506.78	625.41
507.14	637.46
507.50	649.69
507.86	662.23
508.22	675.27
508.59	688.21
508.95	701.76
509.31	716.01
509.67	730.20
510.03	744.43
510.39	759.01
510.75	773.93
511.12	789.06
511.48	804.47
511.84	820.30
512.20	836.22
512.56	852.56
512.92	869.31
513.28	886.19
513.64	903.42
514.00	920.87
514.37	938.49
514.73	956.43
515.09	974.70
515.45	993.10
515.81	1011.44
516.17	1030.23
516.53	1048.91
516.89	1067.34
517.25	1086.77
517.61	1106.84
517.97	1127.16
518.33	1147.04
518.69	1167.24
519.05	1187.64
519.41	1208.10
519.77	1229.00
520.13	1249.61
520.49	1270.20
520.85	1292.47
521.21	1313.51
521.57	1334.57
521.93	1355.15
522.29	1376.46
522.65	1396.72
523.01	1417.53
523.37	1438.04
523.73	1459.06
524.09	1479.38
524.45	1499.91
524.81	1520.77
525.17	1541.31
525.53	1561.57
525.89	1582.47
526.25	1603.18
526.61	1623.40
526.97	1644.42
527.33	1665.38
527.68	1686.93
528.04	1708.06
528.40	1727.40
528.76	1748.10
529.12	1768.41
529.48	1789.39
529.84	1809.39
530.20	1830.80
530.56	1851.38
530.91	1872.23
531.27	1892.19
531.63	1912.51
531.99	1933.17
532.35	1953.05
532.71	1973.28
533.07	1993.85
533.42	2013.65
533.78	2033.39
534.14	2053.23
534.50	2071.86
534.86	2091.21
535.21	2108.57
535.57	2126.90
535.93	2144.34
536.29	2161.76
536.65	2180.09
537.00	2197.70
537.36	2215.20
537.72	2231.32
538.08	2248.51
538.44	2265.22
538.79	2281.58
539.15	2298.21
539.51	2314.35
539.87	2329.23
540.22	2343.22
540.58	2357.64
540.94	2370.92
541.29	2383.66
541.65	2396.32
542.01	2408.94
542.37	2419.27
542.72	2430.20
543.08	2440.82
543.44	2452.44
543.79	2462.81
544.15	2472.43
544.51	2482.35
544.87	2491.62
545.22	2500.40
545.58	2508.09
545.94	2515.19
546.29	2521.75
546.65	2527.80
547.01	2533.41
547.36	2538.78
547.72	2544.07
548.07	2548.05
548.43	2553.07
548.79	2557.58
549.14	2561.66
549.50	2565.45
549.86	2569.27
550.21	2573.12
550.57	2576.41
550.92	2577.69
551.28	2578.77
551.64	2580.72
551.99	2581.74
552.35	2583.51
552.70	2585.60
553.06	2587.13
553.41	2588.46
553.77	2590.06
554.13	2591.75
554.48	2592.94
554.84	2594.11
555.19	2595.37
555.55	2596.86
555.90	2596.18
556.26	2595.32
556.61	2593.58
556.97	2591.41
557.32	2590.64
557.68	2589.32
558.03	2587.34
558.39	2586.05
558.74	2585.18
559.10	2581.89
559.45	2578.54
559.81	2573.88
560.16	2568.22
560.52	2563.04
560.87	2558.40
561.23	2553.12
561.58	2547.07
561.94	2539.93
562.29	2533.08
562.64	2525.85
563.00	2517.31
563.35	2510.60
563.71	2503.96
564.06	2497.53
564.42	2490.90
564.77	2484.04
565.12	2476.32
565.48	2468.83
565.83	2460.90
566.19	2452.62
566.54	2444.77
566.89	2436.73
567.25	2428.91
567.60	2422.09
567.96	2414.50
568.31	2406.20
568.66	2397.59
569.02	2388.66
569.37	2380.39
569.72	2372.82
570.08	2363.67
570.43	2354.36
570.78	2345.22
571.14	2335.71
571.49	2325.69
571.84	2316.29
572.20	2305.55
572.55	2295.73
572.90	2284.60
573.26	2274.20
573.61	2263.39
573.96	2252.41
574.31	2240.33
574.67	2228.36
575.02	2215.22
575.37	2202.91
575.72	2190.08
576.08	2178.06
576.43	2165.41
576.78	2152.33
577.13	2138.41
577.49	2125.94
577.84	2114.31
578.19	2102.40
578.54	2089.78
578.90	2077.97
579.25	2065.39
579.60	2052.63
579.95	2039.51
580.30	2026.83
580.66	2013.41
581.01	1999.95
581.36	1985.98
581.71	1973.63
582.06	1960.89
582.42	1948.74
582.77	1936.08
583.12	1924.03
583.47	1911.63
583.82	1899.85
584.17	1887.93
584.53	1876.16
584.88	1863.02
585.23	1849.74
585.58	1835.93
585.93	1822.66
586.28	1809.45
586.63	1795.54
586.98	1781.73
587.34	1768.50
587.69	1755.03
588.04	1742.79
588.39	1730.90
588.74	1719.02
589.09	1707.16
589.44	1694.70
589.79	1682.71
590.14	1670.64
590.49	1658.42
590.84	1646.55
591.19	1634.70
591.54	1622.44
591.89	1610.55
592.25	1600.64
592.60	1589.37
592.95	1578.00
593.30	1566.31
593.65	1554.21
594.00	1542.50
594.35	1532.74
594.70	1520.97
595.05	1510.27
595.40	1498.26
595.75	1486.40
596.10	1475.29
596.45	1463.78
596.80	1452.91
597.15	1441.58
597.50	1429.59
597.85	1418.54
598.19	1406.80
598.54	1395.08
598.89	1384.18
599.24	1373.60
599.59	1361.89
599.94	1351.00
600.29	1340.39
600.64	1330.27
600.99	1319.64
601.34	1310.19
601.69	1299.00
602.04	1289.57
602.39	1279.58
602.74	1270.37
603.08	1260.89
603.43	1251.62
603.78	1242.00
604.13	1232.61
604.48	1223.01
604.83	1213.81
605.18	1204.10
605.53	1194.90
605.87	1185.97
606.22	1177.32
606.57	1167.92
606.92	1158.55
607.27	1149.59
607.62	1141.12
607.96	1132.64
608.31	1124.76
608.66	1116.32
609.01	1107.95
609.36	1099.29
609.70	1090.88
610.05	1082.39
610.40	1074.06
610.75	1065.31
611.10	1057.05
611.44	1048.38
611.79	1040.26
612.14	1032.37
612.49	1024.59
612.83	1016.91
613.18	1009.03
613.53	1001.42
613.88	993.59
614.22	986.06
614.57	978.45
614.92	970.32
615.27	962.89
615.61	955.26
615.96	947.84
616.31	940.10
616.65	933.14
617.00	925.85
617.35	918.52
617.70	911.50
618.04	904.49
618.39	897.54
618.74	891.29
619.08	884.55
619.43	877.60
619.78	870.66
620.12	863.64
620.47	856.89
620.82	849.79
621.16	842.93
621.51	836.50
621.85	830.11
622.20	823.79
622.55	817.15
622.89	810.66
623.24	804.29
623.59	798.26
623.93	791.95
624.28	785.90
624.62	780.44
624.97	774.59
625.32	768.75
625.66	762.87
626.01	756.54
626.35	751.08
626.70	745.67
627.04	740.36
627.39	734.84
627.73	729.53
628.08	724.41
628.43	719.25
628.77	714.09
629.12	708.94
629.46	704.20
629.81	699.49
630.15	695.05
630.50	690.22
630.84	685.46
631.19	680.85
631.53	676.25
631.88	671.08
632.22	666.19
632.57	661.85
632.91	657.25
633.26	653.11
633.60	648.40
633.95	643.73
634.29	639.03
634.64	634.73
634.98	630.00
635.32	625.68
635.67	621.48
636.01	617.15
636.36	612.82
636.70	608.72
637.05	604.50
637.39	600.21
637.73	596.14
638.08	592.14
638.42	587.87
638.77	583.63
639.11	579.25
639.45	574.97
639.80	570.63
640.14	566.72
640.49	562.64
640.83	558.85
641.17	555.24
641.52	551.57
641.86	547.98
642.20	544.91
642.55	541.23
642.89	537.82
643.23	534.33
643.58	531.30
643.92	527.63
644.26	524.26
644.61	521.05
644.95	517.69
645.29	514.37
645.64	511.24
645.98	508.15
646.32	505.39
646.66	502.45
647.01	499.49
647.35	496.61
647.69	493.69
648.04	491.05
648.38	488.36
648.72	485.56
649.06	482.61
649.41	479.69
649.75	476.92
650.09	474.01
650.43	471.23
650.78	468.18
651.12	465.47
651.46	462.66
651.80	459.98
652.14	457.43
652.49	454.85
652.83	452.37
653.17	449.76
653.51	447.15
653.85	444.66
654.20	442.15
654.54	439.57
654.88	437.16
655.22	434.86
655.56	432.38
655.90	430.03
656.25	427.75
656.59	425.28
656.93	423.07
657.27	421.11
657.61	418.71
657.95	416.56
658.29	414.33
658.64	412.35
658.98	410.06
659.32	407.79
659.66	405.64
660.00	403.55
660.34	401.55
660.68	399.47
661.02	397.48
661.36	395.61
661.70	393.68
662.05	391.78
662.39	389.85
662.73	388.11
663.07	386.41
663.41	384.63
663.75	382.77
664.09	380.87
664.43	378.82
664.77	377.15
665.11	375.39
665.45	373.81
665.79	372.21
666.13	370.54
666.47	368.82
666.81	367.22
667.15	365.45
667.49	364.01
667.83	362.69
668.17	361.22
668.51	359.85
668.85	358.53
669.19	357.39
669.53	355.82
669.87	354.24
670.21	352.64
670.55	351.21
670.89	350.21
671.23	348.91
671.57	347.58
671.91	346.30
672.25	344.97
672.58	343.70
672.92	342.08
673.26	340.91
673.60	339.83
673.94	338.64
674.28	337.59
674.62	336.39
674.96	335.07
675.30	333.89
675.64	332.64
675.97	331.44
676.31	330.00
676.65	328.80
676.99	327.78
677.33	326.73
677.67	325.75
678.01	324.35
678.34	323.25
678.68	322.38
679.02	321.37
679.36	320.41
679.70	319.35
680.04	318.57
680.37	317.53
680.71	316.51
681.05	315.60
681.39	314.65
681.73	313.75
682.06	312.85
682.40	312.07
682.74	311.36
683.08	310.57
683.42	309.64
683.75	308.92
684.09	307.97
684.43	307.15
684.77	306.28
685.10	305.55
685.44	304.78
685.78	303.90
686.12	303.00
686.45	302.16
686.79	301.30
687.13	300.65
687.46	299.89
687.80	299.18
688.14	298.28
688.48	297.60
688.81	296.73
689.15	296.05
689.49	295.26
689.82	294.39
690.16	293.47
690.50	292.86
690.83	292.05
691.17	291.35
691.51	290.67
691.84	290.06
692.18	289.24
692.52	288.60
692.85	288.01
693.19	287.66
693.52	287.04
693.86	286.38
694.20	285.67
694.53	285.06
694.87	284.46
695.21	283.90
695.54	283.11
695.88	282.62
696.21	281.89
696.55	281.18
696.88	280.63
697.22	280.07
697.56	279.44
697.89	278.88
698.23	278.31
698.56	277.65
698.90	277.19
699.23	276.68
699.57	276.15
699.90	275.56
700.24	274.92
700.58	274.50
700.91	274.13
701.25	274.00
701.58	273.91
701.92	273.60
702.25	273.23
702.59	272.88
702.92	272.42
703.26	272.09
703.59	271.73
703.93	271.69
704.26	271.31
704.60	270.93
704.93	270.42
705.26	270.04
705.60	269.78
705.93	269.17
706.27	269.00
706.60	268.72
706.94	268.61
707.27	268.17
707.61	267.81
707.94	267.37
708.27	266.61
708.61	265.82
708.94	265.28
709.28	264.80
709.61	264.38
709.94	264.03
710.28	263.60
710.61	263.24
710.95	262.42
711.28	262.43
711.61	262.07
711.95	261.93
712.28	261.50
712.61	261.15
712.95	261.05
713.28	260.82
713.61	260.39
713.95	259.80
714.28	259.56
714.61	259.15
714.95	258.77
715.28	258.39
715.61	258.02
715.95	257.82
716.28	257.48
716.61	257.28
716.95	256.85
717.28	256.56
717.61	256.27
717.94	255.99
718.28	255.34
718.61	255.03
718.94	254.64
719.27	254.36
719.61	254.14
719.94	253.84
720.27	253.37
720.60	253.11
720.94	252.95
721.27	252.66
721.60	252.44
721.93	252.20
722.27	252.19
722.60	252.10
722.93	251.80
723.26	251.65
723.59	251.31
723.93	251.13
724.26	250.87
724.59	250.70
724.92	250.53
725.25	250.40
725.59	250.21
725.92	250.10
726.25	249.95
726.58	249.70
726.91	249.42
727.24	249.19
727.57	248.95
727.91	248.64
728.24	248.47
728.57	248.23
728.90	248.13
729.23	247.75
729.56	247.76
729.89	247.57
730.22	247.36
730.55	247.23
730.89	247.11
731.22	246.96
731.55	246.71
731.88	246.52
732.21	246.27
732.54	245.94
732.87	245.76
733.20	245.65
733.53	245.58
733.86	245.47
734.19	245.25
734.52	245.17
734.85	245.33
735.18	245.15
735.51	245.17
735.84	245.03
736.17	244.96
736.50	244.54
736.83	244.95
737.16	244.87
737.49	244.73
737.82	244.56
738.15	244.48
738.48	244.39
738.81	244.23
739.14	244.05
739.47	243.97
739.80	243.77
740.13	243.60
740.46	243.27
740.79	243.03
741.12	242.95
741.45	242.73
741.78	242.30
742.11	242.31
742.44	242.07
742.77	241.94
743.10	241.71
743.43	241.56
743.75	240.83
744.08	241.25
744.41	240.99
744.74	240.83
745.07	240.60
745.40	240.47
745.73	240.54
746.06	240.49
746.39	240.46
746.71	240.31
747.04	240.21
747.37	240.15
747.70	240.08
748.03	239.92
748.36	239.86
748.68	239.64
749.01	239.26
749.34	239.13
749.67	239.14
750.00	239.16
750.33	239.43
750.65	239.40
750.98	238.62
751.31	238.61
751.64	238.49
751.97	238.71
752.29	238.60
752.62	238.25
752.95	238.03
753.28	237.90
753.60	237.79
753.93	237.79
754.26	237.74
754.59	237.54
754.91	237.44
755.24	237.34
755.57	237.35
755.90	237.33
756.22	237.18
756.55	236.87
756.88	236.69
757.20	236.26
757.53	235.96
757.86	235.94
758.19	235.92
758.51	235.80
758.84	235.42
759.17	235.28
759.49	235.28
759.82	235.47
760.15	235.39
760.47	235.25
760.80	234.98
761.13	234.87
761.45	234.70
761.78	234.65
762.11	234.60
762.43	234.43
762.76	234.35
763.08	234.29
763.41	234.33
763.74	234.29
764.06	234.20
764.39	234.17
764.71	234.02
765.04	233.84
765.37	233.72
765.69	233.65
766.02	233.60
766.34	233.50
766.67	233.23
767.00	233.26
767.32	233.51
767.65	233.68
767.97	233.67
768.30	233.65
768.62	233.54
768.95	233.44
769.27	233.44
769.60	233.40
769.92	233.27
770.25	233.12
770.57	233.03
770.90	232.93
771.22	232.86
771.55	232.88
771.87	232.89
772.20	232.93
772.52	233.31
772.85	233.85
773.17	233.79
773.50	233.74
773.82	233.58
774.15	233.25
774.47	233.02
774.80	232.90
775.12	232.89
775.45	232.88
775.77	232.78
776.09	232.73
776.42	232.73
776.74	232.90
777.07	232.85
777.39	232.76
777.72	232.70
778.04	232.71
778.36	232.63
778.69	232.56
779.01	232.49
779.33	232.03
779.66	231.40
779.98	231.30
780.31	231.24
780.63	231.39
780.95	231.42
781.28	231.31
781.60	231.25
781.92	231.19
782.25	231.20
782.57	231.21
782.89	231.12
783.22	231.01
783.54	230.84
783.86	230.84
784.19	230.75
784.51	230.95
784.83	230.76
785.16	230.73
785.48	230.72
785.80	230.72
786.12	230.73
786.45	230.75
786.77	230.70
787.09	230.70
787.42	230.54
787.74	230.54
788.06	230.51
788.38	230.48
788.71	230.46
789.03	230.35
789.35	230.31
789.67	230.25
789.99	230.28
790.32	230.15
790.64	230.16
790.96	230.57
791.28	230.28
791.61	230.37
791.93	230.34
792.25	230.26
792.57	230.58
792.89	230.39
793.21	230.35
793.54	230.33
793.86	230.28
794.18	230.22
794.50	230.10
794.82	230.09
795.14	230.13
795.47	230.23
795.79	230.25
796.11	230.10
796.43	230.07
796.75	230.07
797.07	230.15
797.39	230.09
797.71	229.76
798.04	229.81
798.36	229.75
798.68	229.72
799.00	229.77
799.32	229.50
799.64	229.68
799.96	229.68
800.28	229.73
800.60	229.61
800.92	229.67
801.24	229.61
801.56	229.65
801.89	229.54
802.21	229.41
802.53	229.36
802.85	229.52
803.17	229.74
803.49	229.56
803.81	229.48
804.13	229.43
804.45	229.29
804.77	229.30
805.09	229.34
805.41	229.24
805.73	229.17
806.05	229.01
806.37	228.95
806.69	228.85
807.01	228.82
807.33	228.90
807.65	228.70
807.97	228.95
808.28	228.81
808.60	228.79
808.92	228.76
809.24	228.95
809.56	228.82
809.88	228.67
810.20	228.69
810.52	228.72
810.84	228.63
811.16	228.55
811.48	228.55
811.80	228.64
812.12	228.57
812.43	228.62
812.75	228.68
813.07	228.54
813.39	228.60
813.71	228.52
814.03	228.41
814.35	228.46
814.67	228.17
814.98	228.15
815.30	228.18
815.62	228.17
815.94	227.87
816.26	228.04
816.58	227.86
816.89	227.95
817.21	227.87
817.53	227.96
817.85	228.00
818.17	227.91
818.48	227.76
818.80	227.98
819.12	227.86
819.44	227.72
819.76	227.62
820.07	227.60
820.39	227.57
820.71	227.56
821.03	227.49
821.34	227.53
821.66	227.59
821.98	227.61
822.30	227.55
822.61	227.85
822.93	227.67
823.25	227.66
823.57	227.57
823.88	227.67
824.20	227.59
824.52	227.69
824.83	227.66
825.15	227.60
825.47	227.53
825.79	227.54
826.10	227.56
826.42	227.55
826.74	227.52
827.05	227.52
827.37	227.58
827.69	227.54
828.00	227.49
828.32	227.47
828.64	227.39
828.95	227.57
829.27	227.36
829.58	227.34
829.90	227.50
830.22	227.51
830.53	227.37
830.85	227.32
831.17	227.18
831.48	227.14
831.80	227.15
832.11	227.07
832.43	227.00
832.75	226.96
833.06	227.30
833.38	227.29
833.69	227.28
834.01	227.31
834.32	227.31
834.64	227.31
834.96	227.29
835.27	227.35
835.59	227.17
835.90	227.21
836.22	227.20
836.53	227.08
836.85	227.04
837.16	227.51
837.48	227.62
837.79	227.77
838.11	227.76
838.42	227.77
838.74	227.84
839.05	227.85
839.37	227.85
839.68	227.49
840.00	227.45
840.31	227.41
840.63	227.34
840.94	227.30
841.26	227.28
841.57	227.32
841.88	227.31
842.20	227.31
842.51	227.12
842.83	227.10
843.14	227.50
843.46	227.47
843.77	227.20
844.08	227.06
844.40	226.84
844.71	226.84
845.03	226.77
845.34	226.72
845.65	226.69
845.97	226.73
846.28	226.80
846.60	226.82
846.91	226.85
847.22	226.85
847.54	227.02
847.85	227.02
848.16	226.95
848.48	226.85
848.79	227.02
849.10	227.20
849.42	227.28
849.73	226.81
850.04	226.78
850.36	226.66
850.67	226.72
850.98	226.81
851.30	226.90
851.61	226.92
851.92	226.92
852.23	227.12
852.55	227.08
852.86	227.13
853.17	227.17
853.49	227.32
853.80	227.42
854.11	227.42
854.42	227.47
854.74	227.49
855.05	227.49
855.36	227.30
855.67	227.21
855.99	227.18
856.30	227.77
856.61	227.77
856.92	227.81
857.23	227.86
857.55	227.76
857.86	227.67
858.17	227.75
858.48	227.66
858.79	227.51
859.11	227.57
859.42	227.54
859.73	227.44
860.04	227.43
860.35	227.22
860.66	227.10
860.98	227.05
861.29	227.07
861.60	227.05
861.91	227.15
862.22	227.10
862.53	226.98
862.84	226.43
863.16	226.59
863.47	226.49
863.78	226.40
864.09	226.49
864.40	226.61
864.71	226.60
865.02	226.75
865.33	226.66
865.64	226.55
865.95	226.52
866.27	226.83
866.58	226.70
866.89	226.83
867.20	226.71
867.51	226.71
867.82	226.69
868.13	226.87
868.44	226.73
868.75	226.83
869.06	226.86
869.37	226.83
869.68	226.72
869.99	226.81
870.30	226.79
870.61	226.78
870.92	226.64
871.23	226.62
871.54	226.66
871.85	226.85
872.16	226.94
872.47	226.93
872.78	226.67
873.09	226.67
873.40	226.65
873.71	226.75
874.02	226.74
874.33	226.68
874.64	226.48
874.95	226.51
875.26	226.45
875.56	226.52
875.87	226.57
876.18	226.46
876.49	226.86
876.80	226.85
877.11	226.84
877.42	226.94
877.73	226.92
878.04	226.78
878.35	226.72
878.66	226.72
878.96	226.69
879.27	226.67
879.58	226.68
879.89	226.67
880.20	226.84
880.51	226.81
880.82	226.83
881.12	226.95
881.43	226.89
881.74	226.82
882.05	226.84
882.36	226.88
882.67	227.01
882.97	226.47
883.28	226.49
883.59	226.49
883.90	226.45
884.21	226.50
884.51	226.46
884.82	226.43
885.13	226.45
885.44	226.44
885.74	226.41
886.05	226.42
886.36	226.35
886.67	226.16
886.98	226.38
887.28	226.41
887.59	226.35
887.90	226.44
888.20	226.42
888.51	226.47
888.82	226.35
889.13	226.37
889.43	226.79
889.74	226.73
890.05	226.71
890.35	226.72
890.66	226.71
890.97	226.70
891.28	226.68
891.58	226.74
891.89	226.74
892.20	226.70
892.50	226.74
892.81	226.70
893.12	226.70
893.42	226.43
893.73	226.49
894.04	226.50
894.34	226.53
894.65	226.45
894.95	226.40
895.26	226.44
895.57	226.60
895.87	226.18
896.18	226.32
896.48	226.29
896.79	226.29
897.10	226.31
897.40	226.36
897.71	226.41
898.01	226.29
898.32	226.37
898.63	226.42
898.93	226.39
899.24	226.46
899.54	226.42
899.85	226.43
900.15	226.37
900.46	226.34
900.76	226.29
901.07	226.32
901.38	226.39
901.68	226.48
901.99	226.20
902.29	226.23
902.60	226.25
902.90	226.22
903.21	226.18
903.51	226.18
903.82	226.24
904.12	226.26
904.43	226.29
904.73	226.18
905.03	226.14
905.34	226.61
905.64	226.56
905.95	226.63
906.25	226.66
906.56	226.69
906.86	226.70
907.17	226.80
907.47	226.94
907.77	226.74
908.08	226.61
908.38	226.74
908.69	226.80
908.99	226.83
909.30	226.88
909.60	226.86
909.90	226.87
910.21	226.74
910.51	226.59
910.81	226.59
911.12	226.70
911.42	226.76
911.73	226.25
912.03	226.28
912.33	226.39
912.64	226.40
912.94	226.32
913.24	226.26
913.55	226.17
913.85	226.04
914.15	226.18
914.46	226.27
914.76	226.14
915.06	226.08
915.37	226.00
915.67	226.05
915.97	226.08
916.27	225.94
916.58	225.95
916.88	225.94
917.18	225.89
917.49	226.23
917.79	226.19
918.09	226.24
918.39	226.34
918.70	226.23
919.00	226.21
919.30	226.49
919.60	226.47
919.91	226.40
920.21	226.45
920.51	226.33
920.81	226.29
921.12	226.43
921.42	226.42
921.72	226.42
922.02	226.35
922.32	226.47
922.63	226.53
922.93	226.76
923.23	226.89
923.53	226.92
923.83	226.61
924.13	226.65
924.44	226.65
924.74	226.73
925.04	226.83
925.34	226.76
925.64	226.51
925.94	226.49
926.24	226.75
926.55	226.65
926.85	226.78
927.15	226.74
927.45	226.73
927.75	226.79
928.05	226.82
928.35	226.82
928.65	226.81
928.95	226.90
929.26	226.70
929.56	226.72
929.86	226.72
930.16	226.66
930.46	226.65
930.76	226.70
931.06	226.50
931.36	226.43
931.66	226.55
931.96	226.57
932.26	226.66
932.56	226.44
932.86	226.52
933.16	226.49
933.46	226.46
933.76	226.33
934.06	226.38
934.36	226.49
934.66	226.48
934.96	226.48
935.26	226.45
935.56	226.55
935.86	226.36
936.16	226.34
936.46	226.28
936.76	226.16
937.06	226.05
937.36	226.04
937.66	226.02
937.96	225.98
938.26	225.88
938.56	225.85
938.86	225.91
939.16	226.02
939.46	226.02
939.76	226.01
940.06	226.03
940.35	225.87
940.65	225.65
940.95	225.71
941.25	225.51
941.55	225.44
941.85	225.35
942.15	225.59
942.45	225.72
942.75	225.69
943.04	225.78
943.34	225.90
943.64	225.86
943.94	225.78
944.24	225.75
944.54	225.90
944.84	225.82
945.13	225.70
945.43	225.62
945.73	225.58
946.03	225.55
946.33	225.52
946.62	225.51
946.92	225.52
947.22	225.50
947.52	225.59
947.82	225.64
948.11	225.63
948.41	225.52
948.71	225.36
949.01	225.38
949.31	225.36
949.60	225.30
949.90	225.38
950.20	225.37
950.50	225.40
950.79	225.31
951.09	225.38
951.39	225.41
951.69	225.33
951.98	225.50
952.28	225.57
952.58	225.57
952.87	225.59
953.17	225.64
953.47	225.59
953.76	225.55
954.06	225.47
954.36	225.45
954.66	225.39
954.95	225.52
955.25	225.59
955.55	225.60
955.84	225.53
956.14	225.56
956.44	225.55
956.73	225.45
957.03	225.48
957.32	225.48
957.62	225.47
957.92	225.64
958.21	225.54
958.51	226.06
958.81	226.12
959.10	226.18
959.40	226.30
959.69	226.39
959.99	226.50
960.29	226.54
960.58	226.52
960.88	226.70
961.17	226.65
961.47	226.72
961.76	226.72
962.06	226.87
962.36	226.79
962.65	226.92
962.95	227.00
963.24	226.95
963.54	226.96
963.83	227.03
964.13	227.00
964.42	226.92
964.72	226.59
965.01	226.58
965.31	226.59
965.60	226.50
965.90	226.71
966.19	226.56
966.49	226.53
966.78	226.48
967.08	226.42
967.37	226.37
967.67	226.26
967.96	226.29
968.26	226.21
968.55	226.32
968.85	226.26
969.14	226.29
969.43	226.37
969.73	226.37
970.02	226.28
970.32	226.26
970.61	226.25
970.91	226.06
971.20	226.00
971.49	225.97
971.79	225.96
972.08	225.65
972.38	225.72
972.67	225.69
972.96	225.80
973.26	225.74
973.55	225.93
973.85	225.87
974.14	225.80
974.43	225.82
974.73	225.65
975.02	225.56
975.31	225.50
975.61	225.45
975.90	225.34
976.19	225.33
976.49	225.34
976.78	225.31
977.07	225.28
977.37	225.36
977.66	225.39
977.95	225.40
978.24	225.46
978.54	225.52
978.83	225.47
979.12	225.43
979.42	225.40
979.71	225.25
980.00	225.28
980.29	225.35
980.59	225.27
980.88	225.46
981.17	225.55
981.46	225.59
981.76	225.56
982.05	225.76
982.34	225.76
982.63	225.76
982.93	225.81
983.22	225.98
983.51	226.00
983.80	226.01
984.09	225.98
984.39	225.89
984.68	225.91
984.97	225.96
985.26	225.93
985.55	225.98
985.85	225.90
986.14	225.98
986.43	225.98
986.72	225.95
987.01	225.85
987.30	225.76
987.59	225.75
987.89	225.82
988.18	225.65
988.47	225.62
988.76	225.56
989.05	225.56
989.34	225.43
989.63	225.52
989.92	225.51
990.22	225.50
990.51	225.56
990.80	225.47
991.09	225.57
991.38	225.65
991.67	225.58
991.96	225.61
992.25	225.70
992.54	225.59
992.83	225.57
993.12	225.54
993.41	225.71
993.70	225.90
993.99	225.98
994.28	226.08
994.58	226.18
994.87	226.19
995.16	226.15
995.45	226.13
995.74	225.97
996.03	226.05
996.32	226.11
996.61	226.19
996.90	226.19
997.19	226.21
997.48	226.15
997.77	226.17
998.06	226.19
998.34	226.09
998.63	226.15
998.92	226.25
999.21	226.35
999.50	226.34
999.79	226.09
1000.08	226.06
1000.37	226.07
1000.66	226.00
1000.95	226.15
1001.24	226.25
1001.53	226.37
1001.82	226.34
1002.11	226.23
1002.40	226.26
1002.68	226.43
1002.97	226.75
1003.26	226.63
1003.55	226.62
1003.84	226.65
1004.13	226.77
1004.42	226.80
1004.71	226.83
1004.99	226.72
1005.28	226.82
1005.57	226.75
1005.86	226.77
1006.15	226.73
1006.44	226.68
1006.72	226.72
1007.01	226.65
1007.30	226.61
1007.59	226.60
1007.88	226.67
1008.17	226.68
1008.45	226.66
1008.74	226.36
1009.03	226.16
1009.32	226.18
1009.60	226.15
1009.89	226.10
1010.18	225.90
1010.47	225.86
1010.76	225.84
1011.04	225.90
1011.33	225.89
1011.62	225.92
1011.91	225.99
1012.19	226.01
1012.48	225.98
1012.77	226.01
1013.05	226.14
1013.34	226.13
1013.63	226.05
1013.92	226.00
1014.20	225.94
1014.49	225.90
1014.78	226.02
1015.06	225.89
1015.35	225.89
1015.64	225.98
1015.92	226.06
1016.21	226.08
1016.50	226.05
1016.78	226.11
1017.07	226.07
1017.36	225.89
1017.64	225.84
1017.93	225.84
1018.22	225.79
1018.50	225.75
1018.79	225.72
1019.08	225.57
1019.36	225.64
1019.65	225.63
1019.93	225.76
1020.22	225.86
1020.51	226.18
1020.79	226.06
1021.08	225.40
1021.36	224.35
1021.65	225.60
1021.94	226.45
1022.22	227.10
1022.51	225.80
1022.79	227.75
1023.08	226.65
1023.36	232.70
1023.65	224.25
>>>>>End Processed Spectral Data<<<<<
