SpectraSuite Data File
++++++++++++++++++++++++++++++++++++
Date: Wed Sep 04 17:48:45 EDT 2013
User: lab3
Dark Spectrum Present: Yes
Reference Spectrum Present: No
Number of Sampled Component Spectra: 1
Spectrometers: USB2E7196
Integration Time (usec): 170000 (USB2E7196)
Spectra Averaged: 20 (USB2E7196)
Boxcar Smoothing: 10 (USB2E7196)
Correct for Electrical Dark: No (USB2E7196)
Strobe/Lamp Enabled: No (USB2E7196)
Correct for Detector Non-linearity: No (USB2E7196)
Correct for Stray Light: No (USB2E7196)
Number of Pixels in Processed Spectrum: 2048
>>>>>Begin Processed Spectral Data<<<<<
339.09	0.00
339.48	212.65
339.86	214.45
340.24	215.95
340.63	217.60
341.01	225.65
341.39	219.90
341.78	221.20
342.16	224.20
342.54	221.90
342.93	212.27
343.31	222.99
343.69	223.55
344.07	224.07
344.46	224.52
344.84	224.97
345.22	224.93
345.60	225.23
345.99	225.42
346.37	225.47
346.75	225.63
347.13	225.68
347.52	225.65
347.90	225.85
348.28	225.80
348.66	225.91
349.05	225.72
349.43	225.76
349.81	225.87
350.19	225.88
350.57	225.92
350.96	226.06
351.34	226.18
351.72	226.30
352.10	226.37
352.48	226.42
352.87	226.39
353.25	226.42
353.63	226.43
354.01	226.51
354.39	226.65
354.77	226.67
355.15	226.89
355.54	226.91
355.92	226.83
356.30	227.01
356.68	227.35
357.06	227.51
357.44	227.52
357.82	227.46
358.20	227.96
358.58	228.05
358.97	228.07
359.35	228.21
359.73	228.33
360.11	228.35
360.49	228.45
360.87	228.56
361.25	228.73
361.63	228.94
362.01	229.00
362.39	229.05
362.77	229.18
363.15	229.16
363.53	229.20
363.91	229.35
364.29	229.35
364.67	228.96
365.05	228.98
365.43	229.07
365.81	229.18
366.19	229.09
366.57	229.27
366.95	229.32
367.33	229.20
367.71	229.16
368.09	229.30
368.47	229.31
368.85	229.25
369.23	229.29
369.61	229.15
369.99	229.31
370.37	229.32
370.75	229.52
371.13	229.47
371.51	229.40
371.89	229.41
372.27	229.34
372.65	229.35
373.03	229.35
373.41	229.30
373.78	229.22
374.16	228.85
374.54	228.65
374.92	228.54
375.30	228.48
375.68	228.37
376.06	228.28
376.44	228.14
376.82	228.05
377.19	227.96
377.57	227.85
377.95	227.62
378.33	227.45
378.71	227.06
379.09	227.03
379.47	227.02
379.84	226.86
380.22	226.77
380.60	226.61
380.98	226.49
381.36	226.44
381.73	226.29
382.11	226.32
382.49	226.28
382.87	226.13
383.25	226.16
383.62	226.66
384.00	226.49
384.38	226.54
384.76	226.67
385.13	226.82
385.51	226.80
385.89	226.67
386.27	226.72
386.64	226.77
387.02	226.71
387.40	226.62
387.78	226.63
388.15	226.62
388.53	226.57
388.91	226.48
389.29	226.41
389.66	226.49
390.04	226.36
390.42	226.36
390.79	226.42
391.17	226.32
391.55	225.75
391.92	225.77
392.30	225.76
392.68	225.56
393.05	225.51
393.43	225.51
393.81	225.57
394.18	225.48
394.56	225.50
394.94	225.62
395.31	225.58
395.69	225.74
396.06	225.91
396.44	225.99
396.82	226.11
397.19	226.36
397.57	226.32
397.95	226.50
398.32	226.41
398.70	226.50
399.07	226.65
399.45	226.74
399.82	226.81
400.20	226.89
400.58	227.08
400.95	226.99
401.33	227.24
401.70	227.71
402.08	227.83
402.45	227.99
402.83	228.26
403.20	228.47
403.58	228.58
403.95	228.80
404.33	229.11
404.71	229.29
405.08	229.79
405.46	230.06
405.83	230.38
406.21	230.64
406.58	230.94
406.96	231.23
407.33	231.63
407.70	232.03
408.08	232.76
408.45	233.22
408.83	233.72
409.20	234.10
409.58	234.23
409.95	234.78
410.33	235.32
410.70	235.73
411.08	236.36
411.45	237.04
411.82	237.55
412.20	238.31
412.57	239.29
412.95	239.63
413.32	240.50
413.69	241.27
414.07	242.27
414.44	243.19
414.82	244.26
415.19	245.40
415.56	246.58
415.94	247.54
416.31	248.92
416.68	250.37
417.06	252.03
417.43	253.67
417.81	255.43
418.18	257.28
418.55	259.16
418.93	261.22
419.30	263.20
419.67	265.48
420.04	267.63
420.42	269.89
420.79	272.82
421.16	275.51
421.54	278.54
421.91	281.46
422.28	284.52
422.66	287.67
423.03	291.02
423.40	294.36
423.77	297.75
424.15	301.30
424.52	304.96
424.89	309.02
425.26	312.91
425.64	316.60
426.01	320.66
426.38	324.93
426.75	329.41
427.13	333.86
427.50	338.49
427.87	343.34
428.24	348.22
428.61	352.77
428.99	358.07
429.36	363.47
429.73	368.90
430.10	374.26
430.47	379.88
430.85	385.46
431.22	391.51
431.59	398.29
431.96	404.49
432.33	411.36
432.70	417.81
433.08	425.48
433.45	432.85
433.82	440.06
434.19	448.14
434.56	456.07
434.93	463.57
435.30	471.15
435.68	479.64
436.05	488.00
436.42	496.16
436.79	503.73
437.16	511.93
437.53	520.65
437.90	529.40
438.27	537.87
438.64	546.66
439.01	554.85
439.38	561.85
439.75	568.76
440.13	576.61
440.50	584.19
440.87	590.21
441.24	596.52
441.61	603.43
441.98	608.43
442.35	614.06
442.72	620.24
443.09	626.16
443.46	629.42
443.83	631.67
444.20	633.58
444.57	636.25
444.94	637.23
445.31	638.31
445.68	639.65
446.05	639.81
446.42	638.54
446.79	637.20
447.16	635.59
447.53	634.48
447.90	630.90
448.27	627.18
448.64	622.41
449.01	618.80
449.37	612.76
449.74	606.89
450.11	600.22
450.48	592.48
450.85	584.52
451.22	577.93
451.59	571.36
451.96	565.26
452.33	557.40
452.70	550.30
453.07	541.74
453.43	532.84
453.80	524.66
454.17	516.80
454.54	509.14
454.91	501.15
455.28	493.20
455.65	485.88
456.02	479.18
456.38	473.01
456.75	465.29
457.12	458.90
457.49	452.69
457.86	446.54
458.23	441.51
458.59	435.90
458.96	430.11
459.33	425.06
459.70	419.97
460.07	415.74
460.43	411.15
460.80	407.04
461.17	403.28
461.54	399.31
461.91	395.44
462.27	391.62
462.64	388.50
463.01	384.98
463.38	381.70
463.74	377.66
464.11	374.66
464.48	372.01
464.85	369.20
465.21	367.06
465.58	364.65
465.95	361.84
466.32	359.62
466.68	357.39
467.05	355.16
467.42	353.10
467.78	350.90
468.15	348.74
468.52	347.04
468.88	344.84
469.25	342.93
469.62	341.54
469.98	339.95
470.35	338.32
470.72	336.98
471.08	335.29
471.45	334.16
471.82	332.88
472.18	331.55
472.55	330.54
472.92	329.29
473.28	328.18
473.65	327.05
474.02	325.93
474.38	325.09
474.75	324.51
475.11	323.55
475.48	322.86
475.85	322.32
476.21	321.65
476.58	321.20
476.94	320.75
477.31	320.21
477.67	319.82
478.04	319.57
478.41	319.37
478.77	319.65
479.14	319.27
479.50	319.14
479.87	319.19
480.23	319.15
480.60	318.91
480.96	318.93
481.33	319.27
481.69	319.49
482.06	319.73
482.42	319.90
482.79	320.12
483.15	320.56
483.52	321.08
483.88	321.57
484.25	322.07
484.61	322.80
484.98	323.46
485.34	324.26
485.71	325.30
486.07	326.19
486.44	326.70
486.80	327.76
487.17	328.88
487.53	330.18
487.90	331.67
488.26	333.43
488.62	335.13
488.99	336.63
489.35	338.34
489.72	340.23
490.08	342.07
490.44	344.14
490.81	346.32
491.17	348.48
491.54	350.95
491.90	353.47
492.26	356.10
492.63	358.98
492.99	361.84
493.36	364.88
493.72	368.22
494.08	371.74
494.45	375.44
494.81	379.33
495.17	383.27
495.54	387.35
495.90	391.59
496.26	395.90
496.63	400.64
496.99	405.51
497.35	410.52
497.72	415.94
498.08	421.39
498.44	427.14
498.80	433.04
499.17	439.14
499.53	445.38
499.89	452.12
500.26	458.85
500.62	465.89
500.98	473.26
501.34	480.70
501.71	488.43
502.07	496.38
502.43	504.55
502.79	512.83
503.16	521.51
503.52	530.45
503.88	539.80
504.24	549.28
504.60	559.40
504.97	569.57
505.33	579.99
505.69	591.19
506.05	602.02
506.41	613.28
506.78	625.05
507.14	636.92
507.50	649.14
507.86	661.75
508.22	674.70
508.59	687.63
508.95	701.05
509.31	715.05
509.67	729.18
510.03	743.42
510.39	757.94
510.75	772.70
511.12	787.78
511.48	803.16
511.84	818.93
512.20	834.63
512.56	850.92
512.92	867.38
513.28	883.81
513.64	901.13
514.00	918.63
514.37	935.95
514.73	954.43
515.09	972.27
515.45	990.62
515.81	1008.89
516.17	1027.61
516.53	1046.07
516.89	1064.73
517.25	1083.86
517.61	1103.80
517.97	1123.90
518.33	1143.83
518.69	1164.01
519.05	1184.59
519.41	1204.88
519.77	1225.63
520.13	1246.13
520.49	1266.53
520.85	1288.64
521.21	1309.51
521.57	1330.50
521.93	1351.23
522.29	1371.77
522.65	1392.36
523.01	1412.87
523.37	1433.22
523.73	1453.90
524.09	1474.31
524.45	1494.80
524.81	1515.44
525.17	1535.85
525.53	1556.36
525.89	1576.89
526.25	1597.45
526.61	1617.29
526.97	1638.24
527.33	1659.16
527.68	1680.80
528.04	1702.18
528.40	1721.65
528.76	1742.34
529.12	1762.30
529.48	1782.94
529.84	1802.71
530.20	1823.47
530.56	1844.07
530.91	1865.09
531.27	1885.02
531.63	1905.31
531.99	1925.60
532.35	1945.53
532.71	1965.50
533.07	1985.80
533.42	2005.58
533.78	2025.24
534.14	2045.00
534.50	2063.72
534.86	2082.68
535.21	2099.79
535.57	2117.67
535.93	2135.14
536.29	2152.65
536.65	2171.05
537.00	2188.23
537.36	2205.64
537.72	2222.08
538.08	2238.84
538.44	2255.38
538.79	2271.65
539.15	2287.91
539.51	2303.87
539.87	2318.73
540.22	2332.36
540.58	2346.46
540.94	2359.51
541.29	2371.85
541.65	2384.35
542.01	2396.34
542.37	2406.57
542.72	2417.40
543.08	2427.87
543.44	2438.96
543.79	2448.56
544.15	2457.96
544.51	2467.83
544.87	2477.23
545.22	2485.55
545.58	2493.57
545.94	2500.15
546.29	2506.66
546.65	2512.70
547.01	2517.58
547.36	2522.88
547.72	2528.33
548.07	2532.08
548.43	2536.70
548.79	2541.15
549.14	2544.91
549.50	2548.56
549.86	2552.29
550.21	2555.91
550.57	2559.33
550.92	2560.74
551.28	2562.14
551.64	2563.87
551.99	2565.46
552.35	2566.71
552.70	2568.85
553.06	2570.05
553.41	2571.10
553.77	2572.46
554.13	2573.77
554.48	2575.22
554.84	2576.29
555.19	2577.30
555.55	2578.74
555.90	2578.12
556.26	2577.22
556.61	2575.07
556.97	2572.97
557.32	2572.24
557.68	2570.58
558.03	2568.85
558.39	2567.36
558.74	2566.20
559.10	2563.08
559.45	2559.16
559.81	2554.62
560.16	2549.03
560.52	2543.54
560.87	2538.88
561.23	2533.49
561.58	2527.69
561.94	2520.87
562.29	2513.36
562.64	2506.00
563.00	2497.64
563.35	2491.13
563.71	2484.54
564.06	2478.54
564.42	2472.02
564.77	2464.92
565.12	2457.51
565.48	2449.63
565.83	2441.51
566.19	2433.51
566.54	2425.39
566.89	2417.67
567.25	2410.15
567.60	2403.21
567.96	2395.93
568.31	2388.22
568.66	2379.57
569.02	2370.70
569.37	2362.62
569.72	2354.96
570.08	2345.81
570.43	2336.26
570.78	2327.33
571.14	2318.05
571.49	2308.11
571.84	2298.61
572.20	2287.92
572.55	2277.76
572.90	2266.83
573.26	2256.71
573.61	2245.73
573.96	2234.54
574.31	2222.47
574.67	2210.55
575.02	2197.65
575.37	2185.15
575.72	2171.83
576.08	2159.81
576.43	2147.37
576.78	2134.22
577.13	2120.80
577.49	2108.40
577.84	2096.84
578.19	2084.77
578.54	2072.15
578.90	2060.20
579.25	2047.93
579.60	2035.82
579.95	2023.29
580.30	2010.40
580.66	1997.29
581.01	1983.75
581.36	1970.27
581.71	1957.93
582.06	1945.36
582.42	1933.18
582.77	1920.42
583.12	1908.86
583.47	1896.53
583.82	1884.45
584.17	1872.61
584.53	1861.08
584.88	1848.22
585.23	1835.07
585.58	1821.21
585.93	1808.12
586.28	1794.96
586.63	1781.24
586.98	1766.95
587.34	1753.71
587.69	1740.78
588.04	1728.21
588.39	1716.55
588.74	1704.55
589.09	1692.45
589.44	1679.76
589.79	1667.92
590.14	1656.42
590.49	1644.15
590.84	1632.15
591.19	1620.45
591.54	1608.35
591.89	1596.34
592.25	1586.20
592.60	1575.18
592.95	1563.74
593.30	1551.93
593.65	1539.98
594.00	1528.07
594.35	1518.58
594.70	1507.00
595.05	1495.94
595.40	1483.98
595.75	1472.12
596.10	1461.20
596.45	1449.91
596.80	1439.32
597.15	1427.85
597.50	1416.24
597.85	1405.07
598.19	1393.91
598.54	1382.41
598.89	1371.49
599.24	1360.98
599.59	1349.64
599.94	1339.04
600.29	1329.03
600.64	1319.26
600.99	1308.92
601.34	1299.84
601.69	1288.63
602.04	1279.18
602.39	1269.64
602.74	1260.86
603.08	1251.78
603.43	1242.71
603.78	1233.40
604.13	1224.10
604.48	1214.84
604.83	1205.22
605.18	1195.68
605.53	1186.39
605.87	1177.31
606.22	1168.78
606.57	1159.62
606.92	1150.44
607.27	1141.53
607.62	1132.92
607.96	1124.11
608.31	1116.18
608.66	1107.66
609.01	1099.41
609.36	1091.02
609.70	1082.40
610.05	1073.95
610.40	1065.75
610.75	1056.95
611.10	1049.00
611.44	1040.49
611.79	1032.33
612.14	1024.69
612.49	1017.05
612.83	1009.76
613.18	1002.18
613.53	994.61
613.88	986.98
614.22	979.42
614.57	971.68
614.92	964.00
615.27	956.60
615.61	949.22
615.96	941.85
616.31	934.58
616.65	927.62
617.00	920.42
617.35	913.26
617.70	906.08
618.04	899.27
618.39	892.08
618.74	885.77
619.08	878.97
619.43	872.13
619.78	865.18
620.12	858.13
620.47	851.42
620.82	844.20
621.16	837.42
621.51	831.26
621.85	825.10
622.20	818.48
622.55	811.98
622.89	805.61
623.24	799.25
623.59	792.95
623.93	786.73
624.28	780.97
624.62	775.47
624.97	769.89
625.32	764.23
625.66	758.33
626.01	752.19
626.35	746.94
626.70	741.64
627.04	736.43
627.39	730.77
627.73	725.73
628.08	720.90
628.43	715.73
628.77	710.41
629.12	705.11
629.46	700.54
629.81	695.93
630.15	691.27
630.50	686.58
630.84	681.85
631.19	677.06
631.53	672.46
631.88	667.26
632.22	662.06
632.57	657.73
632.91	653.15
633.26	648.99
633.60	644.31
633.95	639.55
634.29	635.04
634.64	630.75
634.98	626.00
635.32	621.53
635.67	617.50
636.01	613.33
636.36	609.06
636.70	604.87
637.05	600.71
637.39	596.59
637.73	592.52
638.08	588.62
638.42	584.47
638.77	580.22
639.11	575.97
639.45	571.90
639.80	567.51
640.14	563.68
640.49	559.67
640.83	555.99
641.17	552.46
641.52	548.77
641.86	545.44
642.20	542.29
642.55	538.74
642.89	535.21
643.23	531.65
643.58	528.68
643.92	525.19
644.26	521.82
644.61	518.69
644.95	515.53
645.29	512.16
645.64	509.08
645.98	505.95
646.32	503.24
646.66	500.30
647.01	497.42
647.35	494.63
647.69	491.78
648.04	489.10
648.38	486.31
648.72	483.57
649.06	480.44
649.41	477.37
649.75	474.54
650.09	471.64
650.43	468.91
650.78	465.85
651.12	463.01
651.46	460.38
651.80	457.64
652.14	454.87
652.49	452.50
652.83	450.00
653.17	447.60
653.51	444.88
653.85	442.60
654.20	440.27
654.54	437.71
654.88	435.18
655.22	432.80
655.56	430.39
655.90	427.90
656.25	425.76
656.59	423.67
656.93	421.54
657.27	419.63
657.61	417.26
657.95	415.11
658.29	413.04
658.64	410.97
658.98	408.72
659.32	406.50
659.66	404.25
660.00	402.11
660.34	399.91
660.68	397.93
661.02	395.81
661.36	393.79
661.70	391.74
662.05	389.86
662.39	387.84
662.73	386.12
663.07	384.56
663.41	382.71
663.75	380.74
664.09	378.91
664.43	376.90
664.77	375.32
665.11	373.66
665.45	372.04
665.79	370.38
666.13	368.73
666.47	367.15
666.81	365.51
667.15	363.82
667.49	362.47
667.83	361.16
668.17	359.72
668.51	358.22
668.85	357.02
669.19	355.76
669.53	354.28
669.87	352.68
670.21	351.25
670.55	349.90
670.89	348.85
671.23	347.57
671.57	346.20
671.91	344.90
672.25	343.45
672.58	342.16
672.92	340.75
673.26	339.58
673.60	338.49
673.94	337.32
674.28	336.31
674.62	335.13
674.96	333.83
675.30	332.68
675.64	331.52
675.97	330.23
676.31	328.99
676.65	327.78
676.99	326.98
677.33	325.76
677.67	324.73
678.01	323.31
678.34	322.16
678.68	321.28
679.02	320.15
679.36	319.31
679.70	318.38
680.04	317.43
680.37	316.52
680.71	315.44
681.05	314.62
681.39	313.72
681.73	312.82
682.06	311.93
682.40	311.10
682.74	310.29
683.08	309.67
683.42	308.77
683.75	308.06
684.09	307.07
684.43	306.35
684.77	305.39
685.10	304.76
685.44	304.07
685.78	303.19
686.12	302.50
686.45	301.74
686.79	300.88
687.13	300.22
687.46	299.46
687.80	298.93
688.14	298.08
688.48	297.33
688.81	296.52
689.15	295.88
689.49	295.12
689.82	294.49
690.16	293.67
690.50	293.01
690.83	292.26
691.17	291.49
691.51	290.77
691.84	290.21
692.18	289.46
692.52	288.79
692.85	288.31
693.19	287.86
693.52	287.23
693.86	286.62
694.20	285.96
694.53	285.33
694.87	284.62
695.21	284.01
695.54	283.46
695.88	282.80
696.21	282.12
696.55	281.60
696.88	280.93
697.22	280.25
697.56	279.73
697.89	279.19
698.23	278.73
698.56	278.17
698.90	277.75
699.23	277.24
699.57	276.69
699.90	276.05
700.24	275.36
700.58	274.83
700.91	274.42
701.25	274.36
701.58	274.23
701.92	273.92
702.25	273.53
702.59	273.01
702.92	272.64
703.26	272.19
703.59	271.68
703.93	271.70
704.26	271.33
704.60	270.92
704.93	270.52
705.26	270.03
705.60	269.72
705.93	269.20
706.27	268.86
706.60	268.65
706.94	268.48
707.27	268.00
707.61	267.67
707.94	267.27
708.27	266.42
708.61	265.62
708.94	265.06
709.28	264.57
709.61	264.08
709.94	263.69
710.28	263.36
710.61	263.03
710.95	262.19
711.28	262.13
711.61	261.71
711.95	261.45
712.28	261.09
712.61	260.64
712.95	260.50
713.28	260.45
713.61	259.96
713.95	259.42
714.28	259.26
714.61	258.83
714.95	258.40
715.28	258.00
715.61	257.77
715.95	257.55
716.28	257.30
716.61	257.10
716.95	256.72
717.28	256.36
717.61	256.05
717.94	255.79
718.28	255.14
718.61	254.84
718.94	254.41
719.27	254.14
719.61	253.88
719.94	253.50
720.27	252.90
720.60	252.62
720.94	252.43
721.27	252.17
721.60	252.06
721.93	251.82
722.27	251.82
722.60	251.54
722.93	251.28
723.26	251.02
723.59	250.82
723.93	250.75
724.26	250.54
724.59	250.28
724.92	250.04
725.25	249.91
725.59	249.67
725.92	249.52
726.25	249.38
726.58	249.25
726.91	249.03
727.24	248.90
727.57	248.70
727.91	248.44
728.24	248.25
728.57	248.01
728.90	247.90
729.23	247.54
729.56	247.67
729.89	247.44
730.22	247.21
730.55	246.95
730.89	246.76
731.22	246.67
731.55	246.53
731.88	246.39
732.21	246.20
732.54	246.08
732.87	245.91
733.20	245.77
733.53	245.62
733.86	245.51
734.19	245.35
734.52	245.32
734.85	245.47
735.18	245.28
735.51	245.28
735.84	245.16
736.17	245.13
736.50	244.70
736.83	245.10
737.16	245.02
737.49	244.94
737.82	244.69
738.15	244.57
738.48	244.38
738.81	244.27
739.14	244.10
739.47	243.89
739.80	243.71
740.13	243.58
740.46	243.36
740.79	243.18
741.12	243.03
741.45	242.74
741.78	242.40
742.11	242.42
742.44	242.15
742.77	242.09
743.10	241.93
743.43	241.81
743.75	241.24
744.08	241.82
744.41	241.66
744.74	241.57
745.07	241.33
745.40	241.39
745.73	241.45
746.06	241.39
746.39	241.38
746.71	241.30
747.04	241.10
747.37	240.95
747.70	240.96
748.03	240.80
748.36	240.84
748.68	240.59
749.01	240.34
749.34	240.28
749.67	240.12
750.00	240.08
750.33	240.34
750.65	240.24
750.98	239.37
751.31	239.29
751.64	239.19
751.97	239.39
752.29	239.14
752.62	238.85
752.95	238.64
753.28	238.53
753.60	238.37
753.93	238.39
754.26	238.25
754.59	237.89
754.91	237.82
755.24	237.60
755.57	237.59
755.90	237.39
756.22	237.21
756.55	237.03
756.88	236.84
757.20	236.36
757.53	236.13
757.86	236.09
758.19	236.01
758.51	235.94
758.84	235.54
759.17	235.45
759.49	235.33
759.82	235.49
760.15	235.31
760.47	235.23
760.80	235.02
761.13	235.09
761.45	235.01
761.78	234.79
762.11	234.70
762.43	234.50
762.76	234.44
763.08	234.36
763.41	234.35
763.74	234.25
764.06	234.11
764.39	234.03
764.71	233.95
765.04	233.84
765.37	233.64
765.69	233.66
766.02	233.59
766.34	233.47
766.67	233.17
767.00	233.23
767.32	233.30
767.65	233.50
767.97	233.35
768.30	233.35
768.62	233.38
768.95	233.29
769.27	233.32
769.60	233.32
769.92	233.16
770.25	232.98
770.57	232.77
770.90	232.73
771.22	232.65
771.55	232.58
771.87	232.52
772.20	232.46
772.52	232.73
772.85	233.21
773.17	233.24
773.50	233.11
773.82	232.95
774.15	232.78
774.47	232.40
774.80	232.32
775.12	232.32
775.45	232.25
775.77	232.29
776.09	232.15
776.42	232.12
776.74	232.30
777.07	232.25
777.39	232.40
777.72	232.33
778.04	232.31
778.36	232.21
778.69	232.11
779.01	232.15
779.33	231.70
779.66	231.14
779.98	230.99
780.31	231.02
780.63	231.23
780.95	231.26
781.28	231.29
781.60	231.19
781.92	231.03
782.25	231.03
782.57	230.93
782.89	230.85
783.22	230.82
783.54	230.68
783.86	230.72
784.19	230.60
784.51	230.75
784.83	230.69
785.16	230.70
785.48	230.69
785.80	230.69
786.12	230.74
786.45	230.72
786.77	230.81
787.09	230.80
787.42	230.56
787.74	230.52
788.06	230.44
788.38	230.45
788.71	230.42
789.03	230.35
789.35	230.40
789.67	230.38
789.99	230.31
790.32	230.20
790.64	230.19
790.96	230.58
791.28	230.42
791.61	230.40
791.93	230.45
792.25	230.48
792.57	230.78
792.89	230.65
793.21	230.65
793.54	230.50
793.86	230.45
794.18	230.47
794.50	230.37
794.82	230.38
795.14	230.42
795.47	230.55
795.79	230.61
796.11	230.50
796.43	230.45
796.75	230.45
797.07	230.44
797.39	230.41
797.71	229.96
798.04	229.98
798.36	229.94
798.68	229.86
799.00	229.86
799.32	229.53
799.64	229.62
799.96	229.52
800.28	229.66
800.60	229.64
800.92	229.61
801.24	229.62
801.56	229.68
801.89	229.50
802.21	229.50
802.53	229.32
802.85	229.40
803.17	229.61
803.49	229.49
803.81	229.48
804.13	229.41
804.45	229.36
804.77	229.39
805.09	229.29
805.41	229.19
805.73	229.01
806.05	228.92
806.37	228.87
806.69	228.81
807.01	228.72
807.33	228.68
807.65	228.44
807.97	228.59
808.28	228.50
808.60	228.56
808.92	228.45
809.24	228.77
809.56	228.66
809.88	228.53
810.20	228.56
810.52	228.62
810.84	228.57
811.16	228.56
811.48	228.47
811.80	228.70
812.12	228.67
812.43	228.76
812.75	228.81
813.07	228.73
813.39	228.70
813.71	228.61
814.03	228.56
814.35	228.69
814.67	228.42
814.98	228.31
815.30	228.26
815.62	228.16
815.94	227.81
816.26	228.00
816.58	227.85
816.89	227.82
817.21	227.70
817.53	227.66
817.85	227.66
818.17	227.65
818.48	227.47
818.80	227.57
819.12	227.52
819.44	227.42
819.76	227.29
820.07	227.35
820.39	227.35
820.71	227.39
821.03	227.37
821.34	227.39
821.66	227.53
821.98	227.62
822.30	227.62
822.61	227.92
822.93	227.71
823.25	227.75
823.57	227.73
823.88	227.81
824.20	227.85
824.52	227.92
824.83	227.93
825.15	227.89
825.47	227.89
825.79	227.94
826.10	227.92
826.42	227.96
826.74	227.97
827.05	227.97
827.37	227.99
827.69	227.92
828.00	227.97
828.32	227.92
828.64	227.86
828.95	228.04
829.27	227.94
829.58	227.98
829.90	227.98
830.22	228.00
830.53	227.88
830.85	227.91
831.17	227.77
831.48	227.72
831.80	227.80
832.11	227.72
832.43	227.58
832.75	227.54
833.06	227.85
833.38	227.77
833.69	227.78
834.01	227.79
834.32	227.81
834.64	227.78
834.96	227.75
835.27	227.73
835.59	227.61
835.90	227.49
836.22	227.39
836.53	227.34
836.85	227.29
837.16	227.71
837.48	227.56
837.79	227.72
838.11	227.75
838.42	227.67
838.74	227.74
839.05	227.73
839.37	227.73
839.68	227.40
840.00	227.35
840.31	227.36
840.63	227.23
840.94	227.19
841.26	227.10
841.57	227.04
841.88	227.10
842.20	227.02
842.51	226.99
842.83	227.09
843.14	227.53
843.46	227.51
843.77	227.20
844.08	227.27
844.40	227.13
844.71	227.04
845.03	226.97
845.34	226.89
845.65	226.86
845.97	226.90
846.28	226.87
846.60	226.96
846.91	226.89
847.22	226.94
847.54	227.06
847.85	227.13
848.16	227.16
848.48	227.11
848.79	227.26
849.10	227.23
849.42	227.17
849.73	226.72
850.04	226.71
850.36	226.55
850.67	226.64
850.98	226.67
851.30	226.72
851.61	226.75
851.92	226.73
852.23	226.85
852.55	226.80
852.86	226.86
853.17	226.89
853.49	227.02
853.80	227.15
854.11	227.17
854.42	227.15
854.74	227.11
855.05	227.03
855.36	226.87
855.67	226.94
855.99	226.94
856.30	227.50
856.61	227.46
856.92	227.54
857.23	227.45
857.55	227.41
857.86	227.38
858.17	227.47
858.48	227.41
858.79	227.36
859.11	227.40
859.42	227.37
859.73	227.28
860.04	227.15
860.35	226.99
860.66	226.79
860.98	226.77
861.29	226.79
861.60	226.79
861.91	226.91
862.22	226.83
862.53	226.70
862.84	226.14
863.16	226.26
863.47	226.15
863.78	226.20
864.09	226.16
864.40	226.32
864.71	226.36
865.02	226.45
865.33	226.49
865.64	226.41
865.95	226.46
866.27	226.78
866.58	226.80
866.89	226.86
867.20	226.93
867.51	226.90
867.82	226.91
868.13	227.05
868.44	226.97
868.75	227.11
869.06	227.22
869.37	227.31
869.68	227.20
869.99	227.36
870.30	227.40
870.61	227.49
870.92	227.28
871.23	227.20
871.54	227.29
871.85	227.34
872.16	227.47
872.47	227.42
872.78	227.15
873.09	227.17
873.40	227.14
873.71	227.22
874.02	227.28
874.33	227.28
874.64	227.19
874.95	227.19
875.26	227.04
875.56	227.05
875.87	226.97
876.18	226.99
876.49	227.41
876.80	227.38
877.11	227.24
877.42	227.39
877.73	227.28
878.04	227.10
878.35	227.08
878.66	227.05
878.96	227.11
879.27	227.07
879.58	227.02
879.89	226.94
880.20	227.00
880.51	226.87
880.82	226.87
881.12	226.87
881.43	226.85
881.74	226.88
882.05	226.85
882.36	226.84
882.67	226.89
882.97	226.42
883.28	226.35
883.59	226.42
883.90	226.40
884.21	226.54
884.51	226.64
884.82	226.58
885.13	226.55
885.44	226.44
885.74	226.44
886.05	226.49
886.36	226.58
886.67	226.40
886.98	226.64
887.28	226.66
887.59	226.69
887.90	226.66
888.20	226.59
888.51	226.70
888.82	226.68
889.13	226.72
889.43	227.10
889.74	227.04
890.05	227.00
890.35	226.94
890.66	226.80
890.97	226.75
891.28	226.74
891.58	226.77
891.89	226.79
892.20	226.81
892.50	226.75
892.81	226.64
893.12	226.60
893.42	226.40
893.73	226.34
894.04	226.35
894.34	226.38
894.65	226.36
894.95	226.21
895.26	226.22
895.57	226.44
895.87	225.91
896.18	225.98
896.48	226.00
896.79	225.94
897.10	226.06
897.40	226.09
897.71	226.09
898.01	226.06
898.32	226.12
898.63	226.01
898.93	226.03
899.24	226.07
899.54	226.07
899.85	226.08
900.15	226.08
900.46	226.05
900.76	226.10
901.07	226.13
901.38	226.18
901.68	226.31
901.99	226.01
902.29	226.12
902.60	226.14
902.90	226.09
903.21	226.11
903.51	226.04
903.82	226.13
904.12	226.14
904.43	226.11
904.73	226.10
905.03	226.20
905.34	226.73
905.64	226.69
905.95	226.79
906.25	226.83
906.56	226.86
906.86	226.83
907.17	226.70
907.47	226.68
907.77	226.60
908.08	226.47
908.38	226.52
908.69	226.55
908.99	226.62
909.30	226.72
909.60	226.72
909.90	226.82
910.21	226.62
910.51	226.61
910.81	226.62
911.12	226.67
911.42	226.64
911.73	226.10
912.03	226.14
912.33	226.24
912.64	226.20
912.94	226.12
913.24	226.14
913.55	226.14
913.85	226.18
914.15	226.20
914.46	226.29
914.76	226.20
915.06	226.13
915.37	226.06
915.67	225.91
915.97	225.90
916.27	225.74
916.58	225.80
916.88	225.71
917.18	225.72
917.49	226.00
917.79	225.97
918.09	226.00
918.39	226.11
918.70	226.00
919.00	226.00
919.30	226.18
919.60	226.07
919.91	226.07
920.21	226.01
920.51	226.01
920.81	225.88
921.12	226.03
921.42	226.02
921.72	226.00
922.02	226.11
922.32	226.20
922.63	226.26
922.93	226.45
923.23	226.50
923.53	226.48
923.83	226.12
924.13	226.20
924.44	226.24
924.74	226.32
925.04	226.45
925.34	226.44
925.64	226.32
925.94	226.32
926.24	226.65
926.55	226.68
926.85	226.70
927.15	226.74
927.45	226.66
927.75	226.64
928.05	226.64
928.35	226.57
928.65	226.66
928.95	226.71
929.26	226.53
929.56	226.64
929.86	226.63
930.16	226.62
930.46	226.60
930.76	226.57
931.06	226.32
931.36	226.14
931.66	226.29
931.96	226.30
932.26	226.40
932.56	226.17
932.86	226.20
933.16	226.20
933.46	226.17
933.76	226.15
934.06	226.23
934.36	226.41
934.66	226.40
934.96	226.27
935.26	226.25
935.56	226.35
935.86	226.25
936.16	226.18
936.46	226.16
936.76	226.11
937.06	226.11
937.36	226.17
937.66	226.24
937.96	226.12
938.26	226.02
938.56	225.95
938.86	225.96
939.16	226.02
939.46	226.07
939.76	226.10
940.06	226.05
940.35	225.91
940.65	225.75
940.95	225.80
941.25	225.67
941.55	225.60
941.85	225.56
942.15	225.62
942.45	225.83
942.75	225.77
943.04	225.84
943.34	225.92
943.64	225.90
943.94	225.86
944.24	225.89
944.54	225.91
944.84	225.99
945.13	225.97
945.43	225.88
945.73	225.84
946.03	225.83
946.33	225.82
946.62	225.93
946.92	225.91
947.22	226.00
947.52	226.12
947.82	226.20
948.11	226.16
948.41	226.11
948.71	225.99
949.01	226.08
949.31	225.97
949.60	225.89
949.90	226.01
950.20	225.94
950.50	225.98
950.79	226.00
951.09	226.06
951.39	226.05
951.69	226.12
951.98	226.24
952.28	226.21
952.58	226.27
952.87	226.29
953.17	226.36
953.47	226.25
953.76	226.21
954.06	226.06
954.36	225.93
954.66	225.96
954.95	226.05
955.25	226.08
955.55	226.18
955.84	226.13
956.14	226.06
956.44	226.13
956.73	226.01
957.03	226.06
957.32	226.05
957.62	226.01
957.92	226.05
958.21	225.96
958.51	226.53
958.81	226.50
959.10	226.46
959.40	226.53
959.69	226.61
959.99	226.72
960.29	226.86
960.58	226.92
960.88	227.05
961.17	227.02
961.47	227.06
961.76	226.98
962.06	227.07
962.36	227.04
962.65	227.04
962.95	227.11
963.24	227.10
963.54	227.08
963.83	227.13
964.13	227.07
964.42	227.02
964.72	226.69
965.01	226.70
965.31	226.68
965.60	226.51
965.90	226.77
966.19	226.60
966.49	226.56
966.78	226.57
967.08	226.51
967.37	226.46
967.67	226.34
967.96	226.46
968.26	226.43
968.55	226.51
968.85	226.50
969.14	226.43
969.43	226.32
969.73	226.32
970.02	226.25
970.32	226.22
970.61	226.18
970.91	225.97
971.20	225.90
971.49	225.85
971.79	225.91
972.08	225.54
972.38	225.61
972.67	225.62
972.96	225.65
973.26	225.61
973.55	225.72
973.85	225.72
974.14	225.63
974.43	225.61
974.73	225.49
975.02	225.47
975.31	225.46
975.61	225.51
975.90	225.40
976.19	225.43
976.49	225.40
976.78	225.40
977.07	225.41
977.37	225.42
977.66	225.47
977.95	225.46
978.24	225.56
978.54	225.67
978.83	225.62
979.12	225.60
979.42	225.59
979.71	225.54
980.00	225.52
980.29	225.57
980.59	225.51
980.88	225.70
981.17	225.70
981.46	225.73
981.76	225.69
982.05	225.87
982.34	225.88
982.63	225.91
982.93	225.90
983.22	226.10
983.51	226.15
983.80	226.25
984.09	226.26
984.39	226.18
984.68	226.04
984.97	226.02
985.26	225.99
985.55	226.04
985.85	225.99
986.14	226.05
986.43	226.13
986.72	226.07
987.01	225.91
987.30	225.90
987.59	225.85
987.89	225.85
988.18	225.72
988.47	225.58
988.76	225.51
989.05	225.48
989.34	225.34
989.63	225.45
989.92	225.37
990.22	225.30
990.51	225.28
990.80	225.26
991.09	225.35
991.38	225.43
991.67	225.32
991.96	225.18
992.25	225.13
992.54	225.04
992.83	225.09
993.12	225.06
993.41	225.11
993.70	225.32
993.99	225.45
994.28	225.49
994.58	225.60
994.87	225.56
995.16	225.61
995.45	225.54
995.74	225.40
996.03	225.47
996.32	225.54
996.61	225.68
996.90	225.72
997.19	225.71
997.48	225.69
997.77	225.63
998.06	225.76
998.34	225.82
998.63	225.78
998.92	225.77
999.21	225.90
999.50	225.82
999.79	225.70
1000.08	225.73
1000.37	225.75
1000.66	225.71
1000.95	225.91
1001.24	225.90
1001.53	225.94
1001.82	225.95
1002.11	225.80
1002.40	225.86
1002.68	225.99
1002.97	226.32
1003.26	226.27
1003.55	226.23
1003.84	226.27
1004.13	226.44
1004.42	226.41
1004.71	226.47
1004.99	226.55
1005.28	226.64
1005.57	226.65
1005.86	226.60
1006.15	226.56
1006.44	226.50
1006.72	226.61
1007.01	226.47
1007.30	226.52
1007.59	226.57
1007.88	226.59
1008.17	226.71
1008.45	226.66
1008.74	226.50
1009.03	226.31
1009.32	226.29
1009.60	226.31
1009.89	226.31
1010.18	226.14
1010.47	226.10
1010.76	226.09
1011.04	226.05
1011.33	226.05
1011.62	226.16
1011.91	226.15
1012.19	226.07
1012.48	226.04
1012.77	226.05
1013.05	226.29
1013.34	226.31
1013.63	226.25
1013.92	226.26
1014.20	226.18
1014.49	226.09
1014.78	226.08
1015.06	225.88
1015.35	225.91
1015.64	225.92
1015.92	225.98
1016.21	225.96
1016.50	225.95
1016.78	226.00
1017.07	226.01
1017.36	225.87
1017.64	225.77
1017.93	225.83
1018.22	225.85
1018.50	225.89
1018.79	225.91
1019.08	225.72
1019.36	225.75
1019.65	225.70
1019.93	225.81
1020.22	225.88
1020.51	226.21
1020.79	226.17
1021.08	225.40
1021.36	225.45
1021.65	227.45
1021.94	226.20
1022.22	226.40
1022.51	224.75
1022.79	228.10
1023.08	226.30
1023.36	232.55
1023.65	224.70
>>>>>End Processed Spectral Data<<<<<
