SpectraSuite Data File
++++++++++++++++++++++++++++++++++++
Date: Wed Sep 04 17:44:51 EDT 2013
User: lab3
Dark Spectrum Present: Yes
Reference Spectrum Present: No
Number of Sampled Component Spectra: 1
Spectrometers: USB2E7196
Integration Time (usec): 170000 (USB2E7196)
Spectra Averaged: 20 (USB2E7196)
Boxcar Smoothing: 10 (USB2E7196)
Correct for Electrical Dark: No (USB2E7196)
Strobe/Lamp Enabled: No (USB2E7196)
Correct for Detector Non-linearity: No (USB2E7196)
Correct for Stray Light: No (USB2E7196)
Number of Pixels in Processed Spectrum: 2048
>>>>>Begin Processed Spectral Data<<<<<
339.09	0.00
339.48	211.70
339.86	213.60
340.24	215.20
340.63	217.05
341.01	223.95
341.39	219.60
341.78	223.00
342.16	223.90
342.54	221.45
342.93	211.80
343.31	222.51
343.69	223.14
344.07	223.65
344.46	224.15
344.84	224.53
345.22	224.63
345.60	224.92
345.99	225.01
346.37	225.10
346.75	225.28
347.13	225.34
347.52	225.42
347.90	225.71
348.28	225.75
348.66	225.83
349.05	225.67
349.43	225.80
349.81	225.89
350.19	225.99
350.57	226.06
350.96	226.12
351.34	226.18
351.72	226.20
352.10	226.20
352.48	226.22
352.87	226.24
353.25	226.25
353.63	226.26
354.01	226.34
354.39	226.39
354.77	226.41
355.15	226.57
355.54	226.55
355.92	226.43
356.30	226.49
356.68	226.86
357.06	226.99
357.44	226.92
357.82	226.90
358.20	227.32
358.58	227.35
358.97	227.40
359.35	227.64
359.73	227.85
360.11	228.02
360.49	228.15
360.87	228.25
361.25	228.37
361.63	228.62
362.01	228.71
362.39	228.72
362.77	228.81
363.15	228.88
363.53	228.93
363.91	229.00
364.29	229.02
364.67	228.65
365.05	228.73
365.43	228.87
365.81	229.02
366.19	228.92
366.57	229.06
366.95	229.10
367.33	228.97
367.71	228.94
368.09	229.03
368.47	228.99
368.85	228.99
369.23	229.11
369.61	228.98
369.99	229.12
370.37	229.28
370.75	229.48
371.13	229.31
371.51	229.25
371.89	229.31
372.27	229.28
372.65	229.31
373.03	229.20
373.41	229.08
373.78	229.02
374.16	228.73
374.54	228.59
374.92	228.55
375.30	228.51
375.68	228.37
376.06	228.36
376.44	228.27
376.82	228.23
377.19	228.13
377.57	227.99
377.95	227.82
378.33	227.60
378.71	227.35
379.09	227.40
379.47	227.43
379.84	227.29
380.22	227.20
380.60	227.07
380.98	227.06
381.36	226.99
381.73	226.92
382.11	226.99
382.49	226.96
382.87	226.81
383.25	226.77
383.62	227.30
384.00	227.12
384.38	227.11
384.76	227.23
385.13	227.28
385.51	227.22
385.89	227.11
386.27	227.07
386.64	227.10
387.02	227.02
387.40	226.91
387.78	226.87
388.15	226.90
388.53	226.85
388.91	226.85
389.29	226.85
389.66	226.85
390.04	226.68
390.42	226.74
390.79	226.70
391.17	226.58
391.55	225.99
391.92	226.00
392.30	226.04
392.68	225.90
393.05	225.87
393.43	225.93
393.81	225.93
394.18	225.87
394.56	225.89
394.94	225.94
395.31	225.93
395.69	226.07
396.06	226.17
396.44	226.18
396.82	226.13
397.19	226.42
397.57	226.31
397.95	226.43
398.32	226.33
398.70	226.50
399.07	226.72
399.45	226.83
399.82	226.86
400.20	226.88
400.58	226.92
400.95	226.85
401.33	227.03
401.70	227.50
402.08	227.71
402.45	227.77
402.83	227.97
403.20	228.20
403.58	228.33
403.95	228.49
404.33	228.74
404.71	229.03
405.08	229.44
405.46	229.77
405.83	230.04
406.21	230.35
406.58	230.61
406.96	230.86
407.33	231.21
407.70	231.57
408.08	232.33
408.45	232.76
408.83	233.29
409.20	233.68
409.58	233.85
409.95	234.38
410.33	234.95
410.70	235.36
411.08	235.91
411.45	236.45
411.82	237.03
412.20	237.82
412.57	238.73
412.95	239.01
413.32	239.83
413.69	240.64
414.07	241.52
414.44	242.47
414.82	243.41
415.19	244.46
415.56	245.66
415.94	246.54
416.31	247.93
416.68	249.25
417.06	250.75
417.43	252.30
417.81	253.95
418.18	255.74
418.55	257.66
418.93	259.66
419.30	261.67
419.67	263.76
420.04	265.95
420.42	268.15
420.79	271.16
421.16	273.89
421.54	276.92
421.91	279.82
422.28	282.81
422.66	286.06
423.03	289.46
423.40	292.70
423.77	296.17
424.15	299.65
424.52	303.38
424.89	307.53
425.26	311.46
425.64	315.16
426.01	319.24
426.38	323.53
426.75	327.93
427.13	332.39
427.50	337.12
427.87	341.81
428.24	346.66
428.61	351.04
428.99	356.19
429.36	361.38
429.73	366.72
430.10	372.10
430.47	377.63
430.85	382.97
431.22	389.06
431.59	395.73
431.96	401.84
432.33	408.47
432.70	414.86
433.08	422.44
433.45	429.55
433.82	436.69
434.19	444.65
434.56	452.58
434.93	460.09
435.30	467.67
435.68	476.16
436.05	484.36
436.42	492.56
436.79	500.01
437.16	508.27
437.53	516.88
437.90	525.33
438.27	533.59
438.64	542.63
439.01	550.58
439.38	557.48
439.75	564.30
440.13	572.21
440.50	579.62
440.87	585.61
441.24	592.01
441.61	598.78
441.98	603.71
442.35	609.19
442.72	615.07
443.09	620.79
443.46	624.16
443.83	626.35
444.20	628.25
444.57	630.89
444.94	631.86
445.31	633.02
445.68	634.53
446.05	634.72
446.42	633.37
446.79	632.08
447.16	630.67
447.53	629.61
447.90	626.02
448.27	622.44
448.64	617.74
449.01	614.03
449.37	607.99
449.74	602.19
450.11	595.68
450.48	588.11
450.85	580.13
451.22	573.39
451.59	567.09
451.96	560.95
452.33	552.96
452.70	545.83
453.07	537.32
453.43	528.32
453.80	520.31
454.17	512.27
454.54	504.79
454.91	496.79
455.28	488.99
455.65	481.75
456.02	475.12
456.38	468.88
456.75	461.38
457.12	455.04
457.49	448.86
457.86	442.66
458.23	437.70
458.59	432.25
458.96	426.66
459.33	421.64
459.70	416.63
460.07	412.85
460.43	408.31
460.80	404.19
461.17	400.59
461.54	396.61
461.91	393.02
462.27	389.24
462.64	386.00
463.01	382.50
463.38	379.20
463.74	375.24
464.11	372.13
464.48	369.58
464.85	366.86
465.21	364.75
465.58	362.46
465.95	359.64
466.32	357.43
466.68	355.23
467.05	352.99
467.42	350.83
467.78	348.51
468.15	346.33
468.52	344.79
468.88	342.56
469.25	340.67
469.62	339.31
469.98	337.71
470.35	336.21
470.72	334.89
471.08	333.31
471.45	332.06
471.82	330.90
472.18	329.57
472.55	328.59
472.92	327.20
473.28	326.13
473.65	325.06
474.02	324.07
474.38	323.17
474.75	322.41
475.11	321.57
475.48	320.92
475.85	320.37
476.21	319.66
476.58	319.24
476.94	318.89
477.31	318.35
477.67	317.99
478.04	317.67
478.41	317.37
478.77	317.65
479.14	317.35
479.50	317.35
479.87	317.46
480.23	317.54
480.60	317.62
480.96	317.61
481.33	318.08
481.69	318.26
482.06	318.48
482.42	318.89
482.79	319.29
483.15	319.75
483.52	320.44
483.88	320.90
484.25	321.40
484.61	322.06
484.98	322.71
485.34	323.68
485.71	324.63
486.07	325.66
486.44	326.22
486.80	327.43
487.17	328.55
487.53	329.79
487.90	331.09
488.26	332.73
488.62	334.44
488.99	335.87
489.35	337.66
489.72	339.58
490.08	341.41
490.44	343.33
490.81	345.52
491.17	347.68
491.54	350.21
491.90	352.85
492.26	355.45
492.63	358.30
492.99	361.09
493.36	364.14
493.72	367.34
494.08	370.77
494.45	374.39
494.81	378.23
495.17	382.10
495.54	386.27
495.90	390.45
496.26	394.84
496.63	399.44
496.99	404.11
497.35	409.05
497.72	414.32
498.08	419.70
498.44	425.31
498.80	431.26
499.17	437.27
499.53	443.36
499.89	450.05
500.26	456.70
500.62	463.55
500.98	470.88
501.34	478.35
501.71	485.97
502.07	493.63
502.43	501.60
502.79	509.82
503.16	518.41
503.52	527.32
503.88	536.44
504.24	546.05
504.60	555.89
504.97	566.01
505.33	576.32
505.69	587.35
506.05	598.12
506.41	608.97
506.78	620.42
507.14	632.43
507.50	644.60
507.86	656.93
508.22	669.62
508.59	682.36
508.95	695.72
509.31	709.55
509.67	723.49
510.03	737.43
510.39	752.08
510.75	766.90
511.12	782.03
511.48	797.34
511.84	812.66
512.20	828.50
512.56	844.53
512.92	860.72
513.28	877.20
513.64	894.09
514.00	911.45
514.37	928.75
514.73	946.23
515.09	964.15
515.45	982.39
515.81	1000.41
516.17	1018.96
516.53	1037.10
516.89	1055.47
517.25	1074.60
517.61	1094.47
517.97	1114.11
518.33	1133.60
518.69	1153.19
519.05	1173.12
519.41	1193.27
519.77	1213.65
520.13	1233.86
520.49	1254.34
520.85	1274.83
521.21	1295.50
521.57	1316.30
521.93	1336.33
522.29	1357.24
522.65	1377.02
523.01	1397.30
523.37	1417.61
523.73	1437.73
524.09	1457.83
524.45	1477.95
524.81	1498.14
525.17	1518.12
525.53	1538.10
525.89	1558.25
526.25	1578.47
526.61	1598.35
526.97	1619.12
527.33	1639.74
527.68	1660.76
528.04	1681.33
528.40	1701.52
528.76	1721.86
529.12	1741.74
529.48	1762.28
529.84	1781.59
530.20	1802.09
530.56	1821.87
530.91	1842.00
531.27	1861.85
531.63	1881.72
531.99	1901.50
532.35	1920.68
532.71	1940.16
533.07	1960.04
533.42	1979.36
533.78	1998.53
534.14	2017.77
534.50	2035.72
534.86	2053.97
535.21	2070.99
535.57	2088.72
535.93	2105.46
536.29	2122.50
536.65	2139.72
537.00	2156.49
537.36	2172.96
537.72	2188.64
538.08	2204.95
538.44	2220.99
538.79	2236.91
539.15	2252.41
539.51	2267.77
539.87	2282.35
540.22	2295.74
540.58	2309.24
540.94	2321.73
541.29	2333.72
541.65	2345.15
542.01	2356.72
542.37	2366.20
542.72	2376.34
543.08	2386.05
543.44	2397.08
543.79	2406.26
544.15	2415.44
544.51	2424.78
544.87	2433.74
545.22	2441.95
545.58	2449.46
545.94	2455.98
546.29	2461.23
546.65	2466.90
547.01	2472.10
547.36	2476.98
547.72	2481.62
548.07	2484.68
548.43	2489.46
548.79	2493.45
549.14	2497.15
549.50	2500.51
549.86	2504.40
550.21	2507.74
550.57	2510.99
550.92	2511.78
551.28	2512.47
551.64	2513.99
551.99	2515.28
552.35	2516.78
552.70	2518.40
553.06	2519.41
553.41	2520.15
553.77	2521.94
554.13	2523.33
554.48	2523.87
554.84	2524.62
555.19	2525.57
555.55	2527.10
555.90	2525.80
556.26	2524.48
556.61	2522.90
556.97	2520.29
557.32	2519.11
557.68	2517.49
558.03	2515.36
558.39	2513.75
558.74	2512.90
559.10	2509.73
559.45	2505.64
559.81	2500.72
560.16	2494.94
560.52	2489.80
560.87	2485.12
561.23	2479.22
561.58	2473.03
561.94	2466.36
562.29	2458.98
562.64	2451.88
563.00	2443.75
563.35	2436.78
563.71	2429.89
564.06	2423.05
564.42	2416.64
564.77	2409.35
565.12	2401.92
565.48	2394.01
565.83	2386.08
566.19	2378.07
566.54	2369.79
566.89	2361.70
567.25	2354.20
567.60	2347.26
567.96	2339.64
568.31	2331.72
568.66	2323.40
569.02	2314.47
569.37	2306.22
569.72	2298.66
570.08	2289.10
570.43	2279.69
570.78	2271.09
571.14	2261.86
571.49	2252.09
571.84	2242.59
572.20	2232.29
572.55	2222.19
572.90	2211.20
573.26	2200.90
573.61	2189.82
573.96	2179.18
574.31	2167.53
574.67	2156.02
575.02	2143.49
575.37	2131.04
575.72	2117.91
576.08	2105.98
576.43	2093.66
576.78	2080.66
577.13	2067.42
577.49	2055.36
577.84	2044.10
578.19	2032.20
578.54	2019.98
578.90	2008.40
579.25	1996.28
579.60	1984.14
579.95	1971.37
580.30	1958.89
580.66	1946.15
581.01	1933.16
581.36	1919.79
581.71	1907.73
582.06	1895.09
582.42	1883.00
582.77	1870.85
583.12	1859.30
583.47	1847.64
583.82	1836.10
584.17	1824.92
584.53	1813.66
584.88	1801.15
585.23	1787.90
585.58	1774.56
585.93	1761.82
586.28	1749.11
586.63	1735.84
586.98	1722.11
587.34	1709.49
587.69	1696.88
588.04	1684.92
588.39	1673.28
588.74	1661.52
589.09	1649.81
589.44	1637.53
589.79	1625.86
590.14	1614.53
590.49	1603.01
590.84	1591.17
591.19	1579.66
591.54	1567.82
591.89	1556.08
592.25	1546.25
592.60	1535.41
592.95	1524.25
593.30	1512.96
593.65	1501.21
594.00	1489.92
594.35	1480.72
594.70	1469.68
595.05	1458.88
595.40	1447.29
595.75	1435.92
596.10	1424.93
596.45	1413.84
596.80	1403.50
597.15	1392.82
597.50	1381.42
597.85	1370.61
598.19	1359.52
598.54	1348.59
598.89	1337.69
599.24	1327.33
599.59	1316.19
599.94	1305.78
600.29	1295.94
600.64	1286.22
600.99	1276.01
601.34	1266.78
601.69	1255.78
602.04	1246.43
602.39	1237.41
602.74	1228.52
603.08	1219.61
603.43	1210.88
603.78	1201.72
604.13	1192.45
604.48	1183.13
604.83	1174.04
605.18	1164.52
605.53	1155.43
605.87	1146.37
606.22	1138.22
606.57	1129.43
606.92	1120.56
607.27	1112.33
607.62	1104.02
607.96	1095.67
608.31	1088.22
608.66	1080.20
609.01	1072.46
609.36	1064.26
609.70	1055.99
610.05	1047.98
610.40	1039.93
610.75	1031.90
611.10	1024.06
611.44	1016.05
611.79	1008.24
612.14	1000.80
612.49	993.43
612.83	986.44
613.18	979.28
613.53	971.95
613.88	964.53
614.22	957.20
614.57	949.37
614.92	941.92
615.27	934.67
615.61	927.38
615.96	920.14
616.31	912.98
616.65	906.29
617.00	899.16
617.35	892.19
617.70	885.30
618.04	878.39
618.39	871.53
618.74	865.32
619.08	858.71
619.43	851.98
619.78	845.36
620.12	838.37
620.47	831.81
620.82	824.95
621.16	818.51
621.51	812.67
621.85	806.72
622.20	800.35
622.55	794.16
622.89	787.97
623.24	781.81
623.59	775.72
623.93	769.54
624.28	763.84
624.62	758.51
624.97	753.02
625.32	747.49
625.66	742.05
626.01	736.26
626.35	731.31
626.70	726.10
627.04	721.26
627.39	716.15
627.73	711.11
628.08	706.20
628.43	701.19
628.77	695.95
629.12	691.02
629.46	686.53
629.81	682.24
630.15	677.79
630.50	673.36
630.84	668.70
631.19	664.34
631.53	660.03
631.88	655.04
632.22	650.45
632.57	646.17
632.91	641.90
633.26	637.78
633.60	633.11
633.95	628.61
634.29	623.93
634.64	619.77
634.98	615.19
635.32	611.13
635.67	607.28
636.01	603.25
636.36	599.13
636.70	595.20
637.05	591.16
637.39	587.22
637.73	583.34
638.08	579.75
638.42	575.65
638.77	571.63
639.11	567.51
639.45	563.36
639.80	559.08
640.14	555.15
640.49	551.40
640.83	547.88
641.17	544.50
641.52	541.05
641.86	537.67
642.20	534.72
642.55	531.23
642.89	527.62
643.23	524.39
643.58	521.50
643.92	518.02
644.26	514.77
644.61	511.69
644.95	508.49
645.29	505.18
645.64	502.21
645.98	499.10
646.32	496.41
646.66	493.52
647.01	490.91
647.35	488.30
647.69	485.44
648.04	482.73
648.38	480.02
648.72	477.30
649.06	474.44
649.41	471.59
649.75	468.74
650.09	466.05
650.43	463.27
650.78	460.34
651.12	457.65
651.46	454.88
651.80	452.19
652.14	449.56
652.49	447.17
652.83	444.65
653.17	442.19
653.51	439.63
653.85	437.35
654.20	434.97
654.54	432.39
654.88	430.01
655.22	427.85
655.56	425.45
655.90	423.20
656.25	420.99
656.59	418.75
656.93	416.80
657.27	414.87
657.61	412.49
657.95	410.39
658.29	408.28
658.64	406.41
658.98	404.27
659.32	402.18
659.66	400.01
660.00	398.07
660.34	396.12
660.68	394.18
661.02	392.17
661.36	390.27
661.70	388.36
662.05	386.50
662.39	384.60
662.73	382.92
663.07	381.38
663.41	379.67
663.75	377.75
664.09	375.82
664.43	373.86
664.77	372.34
665.11	370.66
665.45	369.14
665.79	367.51
666.13	365.95
666.47	364.34
666.81	362.80
667.15	361.15
667.49	359.80
667.83	358.56
668.17	357.16
668.51	355.69
668.85	354.53
669.19	353.45
669.53	352.00
669.87	350.55
670.21	348.96
670.55	347.70
670.89	346.79
671.23	345.56
671.57	344.35
671.91	343.13
672.25	341.83
672.58	340.58
672.92	339.09
673.26	337.92
673.60	336.85
673.94	335.71
674.28	334.63
674.62	333.49
674.96	332.16
675.30	331.05
675.64	329.96
675.97	328.74
676.31	327.30
676.65	326.06
676.99	325.12
677.33	324.02
677.67	322.88
678.01	321.57
678.34	320.57
678.68	319.62
679.02	318.49
679.36	317.60
679.70	316.58
680.04	315.75
680.37	314.73
680.71	313.69
681.05	312.83
681.39	311.98
681.73	311.09
682.06	310.21
682.40	309.39
682.74	308.59
683.08	307.87
683.42	307.07
683.75	306.42
684.09	305.52
684.43	304.85
684.77	304.01
685.10	303.26
685.44	302.46
685.78	301.71
686.12	301.10
686.45	300.23
686.79	299.47
687.13	298.83
687.46	298.08
687.80	297.48
688.14	296.70
688.48	295.96
688.81	295.13
689.15	294.53
689.49	293.75
689.82	293.08
690.16	292.20
690.50	291.50
690.83	290.84
691.17	289.99
691.51	289.18
691.84	288.59
692.18	287.90
692.52	287.19
692.85	286.60
693.19	286.05
693.52	285.46
693.86	284.77
694.20	284.04
694.53	283.45
694.87	282.84
695.21	282.24
695.54	281.63
695.88	280.98
696.21	280.22
696.55	279.59
696.88	278.91
697.22	278.36
697.56	277.85
697.89	277.21
698.23	276.83
698.56	276.32
698.90	275.77
699.23	275.19
699.57	274.76
699.90	274.12
700.24	273.54
700.58	273.05
700.91	272.75
701.25	272.70
701.58	272.64
701.92	272.23
702.25	271.83
702.59	271.36
702.92	270.95
703.26	270.66
703.59	270.31
703.93	270.36
704.26	270.03
704.60	269.63
704.93	269.16
705.26	268.71
705.60	268.43
705.93	267.93
706.27	267.76
706.60	267.49
706.94	267.43
707.27	266.99
707.61	266.69
707.94	266.22
708.27	265.47
708.61	264.65
708.94	264.23
709.28	263.82
709.61	263.39
709.94	263.13
710.28	262.61
710.61	262.24
710.95	261.44
711.28	261.29
711.61	260.97
711.95	260.82
712.28	260.45
712.61	260.03
712.95	260.00
713.28	259.83
713.61	259.40
713.95	258.79
714.28	258.53
714.61	258.12
714.95	257.81
715.28	257.48
715.61	257.23
715.95	256.93
716.28	256.50
716.61	256.37
716.95	256.00
717.28	255.75
717.61	255.49
717.94	255.29
718.28	254.69
718.61	254.41
718.94	254.09
719.27	253.83
719.61	253.67
719.94	253.29
720.27	252.76
720.60	252.51
720.94	252.37
721.27	252.19
721.60	252.05
721.93	251.81
722.27	251.83
722.60	251.67
722.93	251.41
723.26	251.29
723.59	250.90
723.93	250.77
724.26	250.69
724.59	250.45
724.92	250.21
725.25	250.16
725.59	249.95
725.92	249.80
726.25	249.65
726.58	249.42
726.91	249.20
727.24	249.11
727.57	248.90
727.91	248.65
728.24	248.47
728.57	248.26
728.90	248.10
729.23	247.62
729.56	247.74
729.89	247.56
730.22	247.37
730.55	247.23
730.89	247.08
731.22	246.83
731.55	246.63
731.88	246.50
732.21	246.25
732.54	246.03
732.87	245.83
733.20	245.73
733.53	245.66
733.86	245.58
734.19	245.33
734.52	245.28
734.85	245.50
735.18	245.23
735.51	245.23
735.84	245.18
736.17	245.24
736.50	244.74
736.83	245.24
737.16	245.10
737.49	245.00
737.82	244.81
738.15	244.80
738.48	244.69
738.81	244.49
739.14	244.31
739.47	244.18
739.80	244.05
740.13	243.95
740.46	243.67
740.79	243.47
741.12	243.22
741.45	242.94
741.78	242.48
742.11	242.54
742.44	242.24
742.77	242.11
743.10	241.88
743.43	241.71
743.75	240.97
744.08	241.48
744.41	241.26
744.74	241.05
745.07	240.75
745.40	240.73
745.73	240.79
746.06	240.70
746.39	240.66
746.71	240.47
747.04	240.20
747.37	240.03
747.70	240.05
748.03	240.11
748.36	240.09
748.68	239.95
749.01	239.63
749.34	239.50
749.67	239.38
750.00	239.33
750.33	239.61
750.65	239.52
750.98	238.69
751.31	238.62
751.64	238.51
751.97	238.68
752.29	238.45
752.62	238.10
752.95	237.97
753.28	237.72
753.60	237.60
753.93	237.63
754.26	237.58
754.59	237.20
754.91	236.98
755.24	236.85
755.57	236.74
755.90	236.67
756.22	236.52
756.55	236.31
756.88	236.10
757.20	235.64
757.53	235.37
757.86	235.36
758.19	235.25
758.51	235.16
758.84	234.75
759.17	234.64
759.49	234.62
759.82	234.74
760.15	234.62
760.47	234.52
760.80	234.30
761.13	234.31
761.45	234.23
761.78	234.15
762.11	234.00
762.43	233.86
762.76	233.74
763.08	233.84
763.41	233.80
763.74	233.71
764.06	233.64
764.39	233.69
764.71	233.61
765.04	233.53
765.37	233.43
765.69	233.42
766.02	233.40
766.34	233.28
766.67	233.01
767.00	233.15
767.32	233.32
767.65	233.56
767.97	233.43
768.30	233.47
768.62	233.44
768.95	233.42
769.27	233.38
769.60	233.45
769.92	233.21
770.25	233.12
770.57	233.08
770.90	233.06
771.22	232.96
771.55	232.90
771.87	232.88
772.20	232.86
772.52	233.16
772.85	233.66
773.17	233.64
773.50	233.65
773.82	233.49
774.15	233.21
774.47	232.85
774.80	232.76
775.12	232.61
775.45	232.56
775.77	232.50
776.09	232.52
776.42	232.46
776.74	232.57
777.07	232.52
777.39	232.51
777.72	232.35
778.04	232.36
778.36	232.28
778.69	232.25
779.01	232.20
779.33	231.81
779.66	231.19
779.98	231.14
780.31	231.10
780.63	231.28
780.95	231.37
781.28	231.36
781.60	231.23
781.92	231.23
782.25	231.21
782.57	231.17
782.89	231.06
783.22	230.95
783.54	230.80
783.86	230.79
784.19	230.74
784.51	230.87
784.83	230.69
785.16	230.60
785.48	230.60
785.80	230.61
786.12	230.60
786.45	230.58
786.77	230.58
787.09	230.46
787.42	230.17
787.74	230.09
788.06	230.00
788.38	229.93
788.71	229.89
789.03	229.85
789.35	229.88
789.67	229.78
789.99	229.84
790.32	229.83
790.64	229.77
790.96	230.14
791.28	229.96
791.61	229.96
791.93	230.02
792.25	229.90
792.57	230.13
792.89	229.98
793.21	230.00
793.54	229.95
793.86	229.90
794.18	230.00
794.50	229.90
794.82	229.91
795.14	230.06
795.47	230.12
795.79	230.08
796.11	229.95
796.43	229.88
796.75	229.81
797.07	229.73
797.39	229.71
797.71	229.32
798.04	229.33
798.36	229.39
798.68	229.38
799.00	229.39
799.32	229.19
799.64	229.24
799.96	229.26
800.28	229.23
800.60	229.18
800.92	229.15
801.24	229.10
801.56	229.19
801.89	229.08
802.21	229.04
802.53	228.92
802.85	229.03
803.17	229.30
803.49	229.19
803.81	229.19
804.13	229.21
804.45	229.11
804.77	229.16
805.09	229.10
805.41	229.03
805.73	228.98
806.05	228.86
806.37	228.88
806.69	228.78
807.01	228.79
807.33	228.89
807.65	228.70
807.97	228.95
808.28	228.85
808.60	228.87
808.92	228.83
809.24	229.09
809.56	228.97
809.88	228.79
810.20	228.83
810.52	228.85
810.84	228.73
811.16	228.67
811.48	228.69
811.80	228.81
812.12	228.81
812.43	228.85
812.75	228.86
813.07	228.76
813.39	228.76
813.71	228.74
814.03	228.65
814.35	228.71
814.67	228.49
814.98	228.42
815.30	228.40
815.62	228.27
815.94	228.02
816.26	228.23
816.58	228.19
816.89	228.15
817.21	228.09
817.53	228.15
817.85	228.15
818.17	228.11
818.48	227.99
818.80	228.08
819.12	228.09
819.44	228.00
819.76	227.99
820.07	227.95
820.39	227.88
820.71	227.83
821.03	227.75
821.34	227.76
821.66	227.87
821.98	227.92
822.30	227.93
822.61	228.25
822.93	227.97
823.25	227.87
823.57	227.85
823.88	227.95
824.20	227.92
824.52	228.05
824.83	227.95
825.15	227.80
825.47	227.77
825.79	227.68
826.10	227.68
826.42	227.65
826.74	227.70
827.05	227.71
827.37	227.82
827.69	227.85
828.00	227.84
828.32	227.73
828.64	227.68
828.95	228.01
829.27	227.77
829.58	227.86
829.90	227.94
830.22	227.97
830.53	227.77
830.85	227.61
831.17	227.46
831.48	227.46
831.80	227.54
832.11	227.40
832.43	227.33
832.75	227.28
833.06	227.52
833.38	227.41
833.69	227.39
834.01	227.33
834.32	227.26
834.64	227.17
834.96	227.20
835.27	227.06
835.59	226.85
835.90	226.77
836.22	226.67
836.53	226.56
836.85	226.53
837.16	227.02
837.48	227.12
837.79	227.27
838.11	227.36
838.42	227.40
838.74	227.50
839.05	227.48
839.37	227.52
839.68	227.29
840.00	227.26
840.31	227.31
840.63	227.27
840.94	227.30
841.26	227.21
841.57	227.16
841.88	227.26
842.20	227.15
842.51	227.13
842.83	227.16
843.14	227.61
843.46	227.57
843.77	227.35
844.08	227.31
844.40	227.17
844.71	227.12
845.03	227.03
845.34	227.03
845.65	227.09
845.97	227.08
846.28	227.04
846.60	227.03
846.91	226.90
847.22	226.92
847.54	226.96
847.85	227.05
848.16	227.00
848.48	226.94
848.79	227.14
849.10	227.15
849.42	227.21
849.73	226.82
850.04	226.80
850.36	226.64
850.67	226.79
850.98	226.76
851.30	226.77
851.61	226.72
851.92	226.65
852.23	226.72
852.55	226.72
852.86	226.77
853.17	226.82
853.49	226.98
853.80	227.04
854.11	227.14
854.42	227.14
854.74	227.06
855.05	227.06
855.36	226.80
855.67	226.88
855.99	226.81
856.30	227.34
856.61	227.36
856.92	227.32
857.23	227.22
857.55	227.29
857.86	227.17
858.17	227.28
858.48	227.22
858.79	227.06
859.11	227.18
859.42	227.14
859.73	227.04
860.04	227.02
860.35	226.93
860.66	226.74
860.98	226.84
861.29	227.01
861.60	227.00
861.91	227.14
862.22	226.99
862.53	226.90
862.84	226.31
863.16	226.41
863.47	226.34
863.78	226.29
864.09	226.28
864.40	226.45
864.71	226.45
865.02	226.50
865.33	226.45
865.64	226.29
865.95	226.27
866.27	226.53
866.58	226.48
866.89	226.50
867.20	226.50
867.51	226.35
867.82	226.27
868.13	226.43
868.44	226.30
868.75	226.45
869.06	226.46
869.37	226.47
869.68	226.36
869.99	226.51
870.30	226.53
870.61	226.49
870.92	226.35
871.23	226.35
871.54	226.45
871.85	226.59
872.16	226.70
872.47	226.68
872.78	226.45
873.09	226.49
873.40	226.39
873.71	226.40
874.02	226.40
874.33	226.39
874.64	226.22
874.95	226.39
875.26	226.30
875.56	226.35
875.87	226.41
876.18	226.40
876.49	226.80
876.80	226.73
877.11	226.67
877.42	226.72
877.73	226.73
878.04	226.59
878.35	226.61
878.66	226.57
878.96	226.52
879.27	226.55
879.58	226.54
879.89	226.53
880.20	226.68
880.51	226.67
880.82	226.60
881.12	226.63
881.43	226.53
881.74	226.53
882.05	226.50
882.36	226.48
882.67	226.45
882.97	225.92
883.28	225.94
883.59	225.90
883.90	225.90
884.21	225.86
884.51	225.88
884.82	225.77
885.13	225.78
885.44	225.81
885.74	225.82
886.05	225.77
886.36	225.85
886.67	225.76
886.98	226.07
887.28	226.18
887.59	226.20
887.90	226.18
888.20	226.10
888.51	226.21
888.82	226.19
889.13	226.30
889.43	226.79
889.74	226.83
890.05	226.90
890.35	226.92
890.66	226.90
890.97	226.83
891.28	226.81
891.58	226.77
891.89	226.76
892.20	226.71
892.50	226.69
892.81	226.59
893.12	226.56
893.42	226.29
893.73	226.30
894.04	226.26
894.34	226.32
894.65	226.34
894.95	226.28
895.26	226.25
895.57	226.42
895.87	225.89
896.18	225.90
896.48	225.93
896.79	225.95
897.10	226.00
897.40	226.09
897.71	226.15
898.01	226.13
898.32	226.18
898.63	226.18
898.93	226.18
899.24	226.25
899.54	226.17
899.85	226.17
900.15	226.05
900.46	226.05
900.76	226.12
901.07	226.07
901.38	226.08
901.68	226.19
901.99	225.94
902.29	226.01
902.60	225.98
902.90	225.93
903.21	225.82
903.51	225.80
903.82	225.88
904.12	225.92
904.43	225.95
904.73	225.92
905.03	225.91
905.34	226.30
905.64	226.20
905.95	226.25
906.25	226.16
906.56	226.18
906.86	226.20
907.17	226.06
907.47	226.16
907.77	226.09
908.08	225.99
908.38	226.02
908.69	225.97
908.99	226.09
909.30	226.11
909.60	226.15
909.90	226.16
910.21	226.08
910.51	225.98
910.81	225.98
911.12	226.03
911.42	226.02
911.73	225.59
912.03	225.68
912.33	225.79
912.64	225.82
912.94	225.78
913.24	225.63
913.55	225.61
913.85	225.54
914.15	225.60
914.46	225.62
914.76	225.54
915.06	225.57
915.37	225.46
915.67	225.43
915.97	225.40
916.27	225.31
916.58	225.26
916.88	225.34
917.18	225.30
917.49	225.61
917.79	225.56
918.09	225.68
918.39	225.81
918.70	225.77
919.00	225.74
919.30	225.93
919.60	225.94
919.91	225.96
920.21	226.01
920.51	225.93
920.81	225.91
921.12	226.01
921.42	226.02
921.72	226.00
922.02	225.99
922.32	226.05
922.63	226.07
922.93	226.30
923.23	226.27
923.53	226.26
923.83	225.93
924.13	226.03
924.44	226.01
924.74	226.13
925.04	226.20
925.34	226.36
925.64	226.19
925.94	226.25
926.24	226.48
926.55	226.43
926.85	226.49
927.15	226.48
927.45	226.48
927.75	226.50
928.05	226.57
928.35	226.53
928.65	226.60
928.95	226.66
929.26	226.49
929.56	226.55
929.86	226.62
930.16	226.56
930.46	226.47
930.76	226.49
931.06	226.11
931.36	226.00
931.66	225.96
931.96	226.04
932.26	226.11
932.56	225.94
932.86	226.00
933.16	226.00
933.46	225.94
933.76	225.88
934.06	225.98
934.36	226.15
934.66	226.18
934.96	226.14
935.26	226.14
935.56	226.20
935.86	226.05
936.16	225.97
936.46	225.98
936.76	225.97
937.06	225.92
937.36	226.04
937.66	226.06
937.96	226.06
938.26	225.95
938.56	225.88
938.86	225.83
939.16	225.90
939.46	225.95
939.76	226.05
940.06	226.01
940.35	225.90
940.65	225.66
940.95	225.67
941.25	225.59
941.55	225.53
941.85	225.45
942.15	225.68
942.45	225.83
942.75	225.83
943.04	225.90
943.34	225.99
943.64	225.98
943.94	225.88
944.24	225.87
944.54	225.93
944.84	225.93
945.13	225.91
945.43	225.79
945.73	225.80
946.03	225.74
946.33	225.71
946.62	225.68
946.92	225.66
947.22	225.75
947.52	225.79
947.82	225.86
948.11	225.92
948.41	225.78
948.71	225.69
949.01	225.80
949.31	225.77
949.60	225.66
949.90	225.70
950.20	225.67
950.50	225.67
950.79	225.67
951.09	225.67
951.39	225.67
951.69	225.67
951.98	225.75
952.28	225.75
952.58	225.74
952.87	225.68
953.17	225.76
953.47	225.67
953.76	225.61
954.06	225.55
954.36	225.35
954.66	225.30
954.95	225.39
955.25	225.40
955.55	225.47
955.84	225.35
956.14	225.37
956.44	225.43
956.73	225.37
957.03	225.42
957.32	225.46
957.62	225.49
957.92	225.63
958.21	225.55
958.51	226.10
958.81	226.18
959.10	226.25
959.40	226.32
959.69	226.33
959.99	226.44
960.29	226.47
960.58	226.64
960.88	226.80
961.17	226.75
961.47	226.75
961.76	226.70
962.06	226.87
962.36	226.85
962.65	226.91
962.95	226.99
963.24	226.90
963.54	226.88
963.83	226.87
964.13	226.78
964.42	226.62
964.72	226.22
965.01	226.22
965.31	226.29
965.60	226.17
965.90	226.45
966.19	226.39
966.49	226.35
966.78	226.27
967.08	226.27
967.37	226.20
967.67	226.14
967.96	226.16
968.26	226.20
968.55	226.28
968.85	226.21
969.14	226.18
969.43	226.23
969.73	226.25
970.02	226.17
970.32	226.20
970.61	226.26
970.91	226.17
971.20	226.12
971.49	226.11
971.79	226.13
972.08	225.74
972.38	225.80
972.67	225.82
972.96	225.91
973.26	225.81
973.55	226.11
973.85	226.09
974.14	226.06
974.43	226.02
974.73	225.90
975.02	225.81
975.31	225.83
975.61	225.80
975.90	225.74
976.19	225.78
976.49	225.82
976.78	225.82
977.07	225.80
977.37	225.81
977.66	225.78
977.95	225.78
978.24	225.92
978.54	225.95
978.83	225.93
979.12	225.80
979.42	225.78
979.71	225.60
980.00	225.63
980.29	225.68
980.59	225.58
980.88	225.69
981.17	225.76
981.46	225.76
981.76	225.70
982.05	225.88
982.34	225.89
982.63	225.87
982.93	225.83
983.22	226.00
983.51	226.05
983.80	226.12
984.09	226.12
984.39	226.09
984.68	226.07
984.97	226.12
985.26	226.16
985.55	226.21
985.85	226.10
986.14	226.16
986.43	226.20
986.72	226.15
987.01	226.00
987.30	226.00
987.59	225.88
987.89	225.95
988.18	225.82
988.47	225.76
988.76	225.68
989.05	225.71
989.34	225.67
989.63	225.76
989.92	225.67
990.22	225.65
990.51	225.61
990.80	225.60
991.09	225.56
991.38	225.54
991.67	225.52
991.96	225.47
992.25	225.37
992.54	225.28
992.83	225.40
993.12	225.49
993.41	225.47
993.70	225.75
993.99	225.76
994.28	225.82
994.58	225.80
994.87	225.72
995.16	225.64
995.45	225.51
995.74	225.34
996.03	225.38
996.32	225.45
996.61	225.55
996.90	225.47
997.19	225.47
997.48	225.48
997.77	225.41
998.06	225.35
998.34	225.37
998.63	225.33
998.92	225.22
999.21	225.20
999.50	225.27
999.79	225.02
1000.08	225.04
1000.37	225.02
1000.66	225.05
1000.95	225.20
1001.24	225.24
1001.53	225.34
1001.82	225.35
1002.11	225.22
1002.40	225.25
1002.68	225.33
1002.97	225.66
1003.26	225.62
1003.55	225.55
1003.84	225.63
1004.13	225.90
1004.42	225.95
1004.71	226.03
1004.99	226.07
1005.28	226.24
1005.57	226.22
1005.86	226.14
1006.15	226.05
1006.44	225.98
1006.72	226.02
1007.01	225.92
1007.30	226.00
1007.59	225.94
1007.88	225.94
1008.17	226.04
1008.45	225.97
1008.74	225.80
1009.03	225.59
1009.32	225.61
1009.60	225.69
1009.89	225.55
1010.18	225.34
1010.47	225.27
1010.76	225.23
1011.04	225.19
1011.33	225.18
1011.62	225.19
1011.91	225.29
1012.19	225.35
1012.48	225.33
1012.77	225.37
1013.05	225.66
1013.34	225.65
1013.63	225.63
1013.92	225.65
1014.20	225.62
1014.49	225.58
1014.78	225.66
1015.06	225.56
1015.35	225.63
1015.64	225.63
1015.92	225.81
1016.21	225.90
1016.50	225.95
1016.78	226.10
1017.07	226.16
1017.36	226.07
1017.64	226.05
1017.93	226.13
1018.22	226.17
1018.50	226.22
1018.79	226.19
1019.08	225.98
1019.36	226.00
1019.65	225.93
1019.93	226.03
1020.22	226.07
1020.51	226.35
1020.79	226.30
1021.08	226.20
1021.36	225.00
1021.65	225.55
1021.94	226.50
1022.22	226.25
1022.51	224.25
1022.79	227.50
1023.08	225.95
1023.36	231.45
1023.65	225.20
>>>>>End Processed Spectral Data<<<<<
