SpectraSuite Data File
++++++++++++++++++++++++++++++++++++
Date: Wed Sep 04 17:46:08 EDT 2013
User: lab3
Dark Spectrum Present: Yes
Reference Spectrum Present: No
Number of Sampled Component Spectra: 1
Spectrometers: USB2E7196
Integration Time (usec): 170000 (USB2E7196)
Spectra Averaged: 20 (USB2E7196)
Boxcar Smoothing: 10 (USB2E7196)
Correct for Electrical Dark: No (USB2E7196)
Strobe/Lamp Enabled: No (USB2E7196)
Correct for Detector Non-linearity: No (USB2E7196)
Correct for Stray Light: No (USB2E7196)
Number of Pixels in Processed Spectrum: 2048
>>>>>Begin Processed Spectral Data<<<<<
339.09	0.00
339.48	212.60
339.86	214.10
340.24	216.15
340.63	216.20
341.01	225.45
341.39	219.30
341.78	221.85
342.16	222.70
342.54	222.80
342.93	211.91
343.31	222.62
343.69	223.12
344.07	223.60
344.46	224.08
344.84	224.48
345.22	224.45
345.60	224.76
345.99	224.96
346.37	225.18
346.75	225.30
347.13	225.38
347.52	225.40
347.90	225.50
348.28	225.54
348.66	225.65
349.05	225.53
349.43	225.60
349.81	225.65
350.19	225.74
350.57	225.85
350.96	225.91
351.34	226.04
351.72	226.15
352.10	226.27
352.48	226.24
352.87	226.30
353.25	226.34
353.63	226.36
354.01	226.40
354.39	226.42
354.77	226.47
355.15	226.65
355.54	226.67
355.92	226.64
356.30	226.73
356.68	227.17
357.06	227.25
357.44	227.28
357.82	227.25
358.20	227.67
358.58	227.68
358.97	227.82
359.35	227.95
359.73	228.14
360.11	228.23
360.49	228.30
360.87	228.34
361.25	228.52
361.63	228.74
362.01	228.84
362.39	228.80
362.77	228.93
363.15	228.92
363.53	229.03
363.91	229.03
364.29	229.10
364.67	228.68
365.05	228.78
365.43	228.86
365.81	229.02
366.19	228.92
366.57	229.10
366.95	229.06
367.33	228.97
367.71	228.99
368.09	229.07
368.47	229.15
368.85	229.21
369.23	229.28
369.61	229.18
369.99	229.32
370.37	229.40
370.75	229.58
371.13	229.54
371.51	229.42
371.89	229.51
372.27	229.50
372.65	229.52
373.03	229.52
373.41	229.39
373.78	229.30
374.16	229.04
374.54	228.89
374.92	228.85
375.30	228.80
375.68	228.68
376.06	228.60
376.44	228.48
376.82	228.42
377.19	228.39
377.57	228.26
377.95	227.97
378.33	227.86
378.71	227.54
379.09	227.52
379.47	227.56
379.84	227.39
380.22	227.32
380.60	227.21
380.98	227.06
381.36	226.98
381.73	226.90
382.11	226.90
382.49	226.90
382.87	226.81
383.25	226.74
383.62	227.24
384.00	227.02
384.38	227.02
384.76	227.07
385.13	227.06
385.51	227.00
385.89	226.92
386.27	226.92
386.64	226.92
387.02	226.84
387.40	226.73
387.78	226.75
388.15	226.65
388.53	226.56
388.91	226.57
389.29	226.57
389.66	226.61
390.04	226.49
390.42	226.53
390.79	226.46
391.17	226.38
391.55	225.80
391.92	225.82
392.30	225.80
392.68	225.73
393.05	225.69
393.43	225.69
393.81	225.70
394.18	225.66
394.56	225.66
394.94	225.82
395.31	225.78
395.69	225.93
396.06	226.07
396.44	226.15
396.82	226.09
397.19	226.35
397.57	226.27
397.95	226.48
398.32	226.43
398.70	226.55
399.07	226.71
399.45	226.73
399.82	226.84
400.20	226.87
400.58	226.95
400.95	226.92
401.33	227.14
401.70	227.60
402.08	227.70
402.45	227.82
402.83	227.99
403.20	228.19
403.58	228.27
403.95	228.53
404.33	228.79
404.71	229.01
405.08	229.48
405.46	229.71
405.83	229.86
406.21	230.07
406.58	230.39
406.96	230.64
407.33	231.05
407.70	231.45
408.08	232.21
408.45	232.64
408.83	233.08
409.20	233.45
409.58	233.61
409.95	234.14
410.33	234.64
410.70	235.01
411.08	235.66
411.45	236.29
411.82	236.81
412.20	237.47
412.57	238.42
412.95	238.65
413.32	239.55
413.69	240.38
414.07	241.33
414.44	242.28
414.82	243.38
415.19	244.53
415.56	245.68
415.94	246.60
416.31	248.00
416.68	249.37
417.06	251.03
417.43	252.66
417.81	254.36
418.18	256.22
418.55	258.18
418.93	260.06
419.30	262.11
419.67	264.35
420.04	266.64
420.42	268.92
420.79	272.03
421.16	274.70
421.54	277.73
421.91	280.67
422.28	283.71
422.66	286.90
423.03	290.26
423.40	293.51
423.77	297.10
424.15	300.69
424.52	304.48
424.89	308.59
425.26	312.46
425.64	316.27
426.01	320.41
426.38	324.70
426.75	329.25
427.13	333.81
427.50	338.35
427.87	343.21
428.24	348.05
428.61	352.41
428.99	357.75
429.36	363.02
429.73	368.45
430.10	373.86
430.47	379.44
430.85	384.96
431.22	391.05
431.59	397.70
431.96	403.68
432.33	410.53
432.70	417.00
433.08	424.79
433.45	431.97
433.82	439.18
434.19	447.16
434.56	455.12
434.93	462.49
435.30	470.05
435.68	478.36
436.05	486.61
436.42	494.83
436.79	502.23
437.16	510.39
437.53	518.84
437.90	527.28
438.27	535.63
438.64	544.27
439.01	552.38
439.38	559.44
439.75	566.60
440.13	574.35
440.50	581.70
440.87	587.72
441.24	594.06
441.61	600.79
441.98	605.73
442.35	611.25
442.72	617.27
443.09	623.08
443.46	626.47
443.83	628.70
444.20	630.55
444.57	633.25
444.94	634.43
445.31	635.62
445.68	637.11
446.05	637.40
446.42	636.28
446.79	634.92
447.16	633.29
447.53	632.05
447.90	628.43
448.27	624.83
448.64	619.94
449.01	616.28
449.37	610.35
449.74	604.43
450.11	597.67
450.48	590.02
450.85	582.17
451.22	575.50
451.59	569.24
451.96	563.11
452.33	555.10
452.70	547.89
453.07	539.28
453.43	530.24
453.80	521.94
454.17	513.97
454.54	506.57
454.91	498.53
455.28	490.61
455.65	483.25
456.02	476.51
456.38	470.34
456.75	462.69
457.12	456.26
457.49	450.12
457.86	444.06
458.23	439.05
458.59	433.45
458.96	427.75
459.33	422.65
459.70	417.75
460.07	413.86
460.43	409.26
460.80	405.21
461.17	401.59
461.54	397.75
461.91	394.01
462.27	390.06
462.64	386.84
463.01	383.36
463.38	380.19
463.74	376.35
464.11	373.38
464.48	370.82
464.85	368.09
465.21	366.00
465.58	363.68
465.95	360.82
466.32	358.65
466.68	356.51
467.05	354.31
467.42	352.03
467.78	349.70
468.15	347.56
468.52	345.94
468.88	343.74
469.25	341.81
469.62	340.36
469.98	338.78
470.35	337.32
470.72	335.86
471.08	334.32
471.45	333.00
471.82	331.73
472.18	330.32
472.55	329.32
472.92	328.02
473.28	326.97
473.65	325.92
474.02	324.87
474.38	324.01
474.75	323.22
475.11	322.39
475.48	321.85
475.85	321.28
476.21	320.70
476.58	320.34
476.94	319.97
477.31	319.55
477.67	319.18
478.04	318.89
478.41	318.73
478.77	318.98
479.14	318.72
479.50	318.66
479.87	318.76
480.23	318.78
480.60	318.75
480.96	318.76
481.33	319.23
481.69	319.47
482.06	319.67
482.42	319.97
482.79	320.37
483.15	320.65
483.52	321.29
483.88	321.70
484.25	322.23
484.61	322.92
484.98	323.54
485.34	324.53
485.71	325.49
486.07	326.44
486.44	327.02
486.80	328.19
487.17	329.24
487.53	330.58
487.90	331.97
488.26	333.66
488.62	335.42
488.99	336.90
489.35	338.59
489.72	340.45
490.08	342.25
490.44	344.14
490.81	346.41
491.17	348.50
491.54	351.07
491.90	353.53
492.26	356.02
492.63	358.85
492.99	361.53
493.36	364.61
493.72	367.90
494.08	371.23
494.45	374.89
494.81	378.80
495.17	382.51
495.54	386.66
495.90	390.81
496.26	395.13
496.63	399.72
496.99	404.50
497.35	409.60
497.72	414.97
498.08	420.51
498.44	426.20
498.80	432.15
499.17	437.95
499.53	444.22
499.89	450.91
500.26	457.55
500.62	464.61
500.98	471.85
501.34	479.15
501.71	486.91
502.07	494.74
502.43	502.74
502.79	511.12
503.16	519.54
503.52	528.52
503.88	537.65
504.24	547.23
504.60	557.12
504.97	567.08
505.33	577.29
505.69	588.29
506.05	599.19
506.41	610.32
506.78	621.92
507.14	633.79
507.50	645.94
507.86	658.43
508.22	671.22
508.59	684.19
508.95	697.60
509.31	711.52
509.67	725.53
510.03	739.62
510.39	754.09
510.75	769.12
511.12	783.99
511.48	799.37
511.84	815.06
512.20	830.87
512.56	846.98
512.92	863.76
513.28	880.21
513.64	897.18
514.00	914.27
514.37	931.91
514.73	949.78
515.09	967.80
515.45	986.01
515.81	1004.05
516.17	1022.53
516.53	1041.01
516.89	1059.27
517.25	1078.18
517.61	1098.24
517.97	1118.29
518.33	1137.86
518.69	1157.96
519.05	1178.03
519.41	1198.08
519.77	1218.82
520.13	1239.25
520.49	1259.31
520.85	1281.09
521.21	1301.94
521.57	1322.95
521.93	1343.18
522.29	1363.90
522.65	1384.06
523.01	1404.73
523.37	1425.14
523.73	1445.60
524.09	1466.04
524.45	1486.50
524.81	1506.96
525.17	1526.80
525.53	1546.89
525.89	1567.46
526.25	1587.66
526.61	1607.96
526.97	1628.81
527.33	1649.30
527.68	1670.69
528.04	1691.40
528.40	1710.76
528.76	1731.23
529.12	1751.36
529.48	1771.55
529.84	1791.02
530.20	1811.96
530.56	1832.15
530.91	1852.40
531.27	1872.40
531.63	1892.33
531.99	1912.44
532.35	1932.11
532.71	1951.97
533.07	1972.20
533.42	1991.40
533.78	2010.69
534.14	2029.64
534.50	2048.12
534.86	2066.77
535.21	2083.78
535.57	2102.13
535.93	2119.30
536.29	2136.53
536.65	2154.15
537.00	2171.35
537.36	2188.75
537.72	2204.56
538.08	2221.27
538.44	2237.45
538.79	2253.27
539.15	2269.52
539.51	2284.86
539.87	2299.60
540.22	2312.91
540.58	2326.21
540.94	2339.14
541.29	2351.55
541.65	2363.74
542.01	2375.20
542.37	2385.29
542.72	2395.91
543.08	2405.82
543.44	2417.18
543.79	2426.73
544.15	2435.97
544.51	2445.51
544.87	2454.38
545.22	2462.53
545.58	2469.53
545.94	2476.39
546.29	2482.56
546.65	2487.89
547.01	2493.12
547.36	2498.08
547.72	2503.25
548.07	2507.03
548.43	2511.47
548.79	2515.68
549.14	2519.31
549.50	2522.99
549.86	2526.61
550.21	2529.80
550.57	2532.63
550.92	2533.40
551.28	2534.25
551.64	2535.88
551.99	2537.06
552.35	2538.18
552.70	2539.63
553.06	2540.72
553.41	2541.47
553.77	2542.70
554.13	2543.87
554.48	2544.94
554.84	2546.08
555.19	2546.94
555.55	2548.15
555.90	2547.53
556.26	2546.19
556.61	2544.46
556.97	2542.07
557.32	2541.19
557.68	2539.66
558.03	2537.81
558.39	2535.98
558.74	2534.91
559.10	2531.82
559.45	2528.48
559.81	2524.00
560.16	2518.67
560.52	2514.02
560.87	2509.34
561.23	2503.52
561.58	2497.58
561.94	2490.56
562.29	2482.91
562.64	2475.99
563.00	2467.86
563.35	2461.17
563.71	2454.42
564.06	2447.97
564.42	2441.60
564.77	2434.60
565.12	2426.90
565.48	2419.33
565.83	2411.57
566.19	2403.26
566.54	2395.02
566.89	2386.81
567.25	2379.06
567.60	2372.12
567.96	2364.44
568.31	2356.60
568.66	2348.38
569.02	2339.34
569.37	2331.18
569.72	2323.70
570.08	2314.70
570.43	2305.22
570.78	2296.14
571.14	2286.91
571.49	2276.90
571.84	2267.22
572.20	2256.00
572.55	2246.42
572.90	2235.60
573.26	2225.56
573.61	2214.90
573.96	2204.34
574.31	2192.56
574.67	2181.15
575.02	2168.77
575.37	2156.12
575.72	2143.15
576.08	2131.16
576.43	2119.10
576.78	2106.36
577.13	2093.03
577.49	2080.32
577.84	2068.72
578.19	2056.96
578.54	2044.74
578.90	2032.98
579.25	2020.90
579.60	2008.96
579.95	1995.89
580.30	1983.09
580.66	1969.87
581.01	1956.54
581.36	1942.95
581.71	1930.56
582.06	1917.78
582.42	1905.47
582.77	1893.28
583.12	1881.62
583.47	1869.48
583.82	1857.74
584.17	1846.04
584.53	1834.55
584.88	1822.16
585.23	1809.30
585.58	1795.48
585.93	1782.70
586.28	1769.77
586.63	1756.26
586.98	1742.54
587.34	1729.82
587.69	1717.35
588.04	1705.09
588.39	1693.29
588.74	1681.62
589.09	1669.97
589.44	1657.51
589.79	1645.53
590.14	1634.04
590.49	1622.25
590.84	1610.56
591.19	1598.71
591.54	1586.92
591.89	1574.89
592.25	1564.71
592.60	1553.56
592.95	1542.48
593.30	1530.80
593.65	1519.34
594.00	1507.80
594.35	1498.51
594.70	1487.13
595.05	1475.95
595.40	1464.08
595.75	1452.42
596.10	1441.30
596.45	1430.14
596.80	1419.69
597.15	1408.77
597.50	1397.46
597.85	1386.71
598.19	1375.60
598.54	1364.42
598.89	1353.36
599.24	1343.19
599.59	1331.84
599.94	1321.48
600.29	1311.28
600.64	1301.47
600.99	1291.21
601.34	1281.99
601.69	1271.07
602.04	1261.62
602.39	1252.22
602.74	1243.72
603.08	1234.79
603.43	1225.86
603.78	1216.64
604.13	1207.45
604.48	1198.25
604.83	1188.77
605.18	1179.25
605.53	1170.05
605.87	1161.32
606.22	1153.18
606.57	1144.33
606.92	1135.50
607.27	1126.96
607.62	1118.63
607.96	1110.16
608.31	1102.42
608.66	1094.38
609.01	1086.30
609.36	1078.04
609.70	1069.79
610.05	1061.09
610.40	1053.14
610.75	1044.63
611.10	1036.37
611.44	1027.91
611.79	1019.91
612.14	1012.38
612.49	1004.60
612.83	997.49
613.18	989.81
613.53	982.30
613.88	974.55
614.22	967.05
614.57	959.43
614.92	951.99
615.27	944.75
615.61	937.15
615.96	929.69
616.31	922.32
616.65	915.55
617.00	908.56
617.35	901.88
617.70	894.73
618.04	887.92
618.39	881.52
618.74	875.50
619.08	869.02
619.43	862.05
619.78	855.25
620.12	848.14
620.47	841.63
620.82	834.65
621.16	828.22
621.51	822.13
621.85	816.00
622.20	809.39
622.55	802.93
622.89	796.80
623.24	790.66
623.59	784.40
623.93	778.33
624.28	772.35
624.62	766.95
624.97	761.43
625.32	755.67
625.66	749.64
626.01	743.60
626.35	738.14
626.70	732.89
627.04	727.85
627.39	722.53
627.73	717.34
628.08	712.31
628.43	706.72
628.77	701.50
629.12	696.37
629.46	691.97
629.81	687.67
630.15	683.08
630.50	678.30
630.84	673.71
631.19	668.93
631.53	664.36
631.88	659.16
632.22	654.55
632.57	650.30
632.91	645.87
633.26	641.66
633.60	637.19
633.95	632.73
634.29	628.01
634.64	623.85
634.98	619.31
635.32	615.20
635.67	611.55
636.01	607.38
636.36	603.21
636.70	599.25
637.05	595.06
637.39	591.08
637.73	587.14
638.08	583.39
638.42	579.34
638.77	575.15
639.11	571.06
639.45	567.02
639.80	562.79
640.14	558.77
640.49	555.02
640.83	551.27
641.17	547.73
641.52	544.31
641.86	540.80
642.20	537.65
642.55	533.96
642.89	530.44
643.23	527.13
643.58	524.11
643.92	520.55
644.26	517.22
644.61	514.09
644.95	510.80
645.29	507.49
645.64	504.50
645.98	501.71
646.32	498.97
646.66	495.78
647.01	493.07
647.35	490.63
647.69	487.79
648.04	485.12
648.38	482.37
648.72	479.66
649.06	476.76
649.41	473.88
649.75	471.14
650.09	468.44
650.43	465.69
650.78	462.83
651.12	460.11
651.46	457.38
651.80	454.65
652.14	452.07
652.49	449.72
652.83	447.34
653.17	444.73
653.51	442.02
653.85	439.89
654.20	437.53
654.54	434.94
654.88	432.50
655.22	430.45
655.56	428.24
655.90	425.95
656.25	423.83
656.59	421.70
656.93	419.50
657.27	417.51
657.61	415.06
657.95	412.87
658.29	410.75
658.64	408.64
658.98	406.54
659.32	404.45
659.66	402.35
660.00	400.26
660.34	398.32
660.68	396.38
661.02	394.37
661.36	392.40
661.70	390.46
662.05	388.50
662.39	386.47
662.73	384.52
663.07	382.90
663.41	381.05
663.75	379.10
664.09	377.37
664.43	375.34
664.77	373.88
665.11	372.24
665.45	370.66
665.79	369.17
666.13	367.44
666.47	365.79
666.81	364.13
667.15	362.35
667.49	360.89
667.83	359.67
668.17	358.04
668.51	356.64
668.85	355.21
669.19	354.09
669.53	352.56
669.87	351.16
670.21	349.68
670.55	348.40
670.89	347.38
671.23	346.14
671.57	344.85
671.91	343.51
672.25	342.12
672.58	340.91
672.92	339.49
673.26	338.33
673.60	337.16
673.94	335.95
674.28	334.98
674.62	333.87
674.96	332.43
675.30	331.42
675.64	330.21
675.97	329.02
676.31	327.70
676.65	326.57
676.99	325.67
677.33	324.53
677.67	323.59
678.01	322.31
678.34	321.20
678.68	320.35
679.02	319.30
679.36	318.40
679.70	317.40
680.04	316.53
680.37	315.58
680.71	314.60
681.05	313.81
681.39	312.86
681.73	311.87
682.06	311.06
682.40	310.17
682.74	309.42
683.08	308.76
683.42	307.95
683.75	307.09
684.09	306.12
684.43	305.34
684.77	304.40
685.10	303.60
685.44	302.83
685.78	301.98
686.12	301.29
686.45	300.57
686.79	299.77
687.13	299.12
687.46	298.38
687.80	297.90
688.14	297.02
688.48	296.32
688.81	295.49
689.15	294.94
689.49	294.34
689.82	293.65
690.16	292.88
690.50	292.20
690.83	291.60
691.17	290.86
691.51	290.28
691.84	289.65
692.18	289.00
692.52	288.40
692.85	287.82
693.19	287.41
693.52	286.82
693.86	286.14
694.20	285.46
694.53	284.85
694.87	284.08
695.21	283.57
695.54	282.95
695.88	282.37
696.21	281.54
696.55	280.88
696.88	280.31
697.22	279.68
697.56	279.23
697.89	278.59
698.23	278.19
698.56	277.62
698.90	277.13
699.23	276.66
699.57	276.14
699.90	275.52
700.24	274.82
700.58	274.35
700.91	274.04
701.25	273.94
701.58	273.90
701.92	273.54
702.25	273.04
702.59	272.56
702.92	272.27
703.26	272.02
703.59	271.55
703.93	271.50
704.26	271.13
704.60	270.65
704.93	270.27
705.26	269.68
705.60	269.34
705.93	268.80
706.27	268.55
706.60	268.31
706.94	268.19
707.27	267.80
707.61	267.43
707.94	266.97
708.27	266.24
708.61	265.38
708.94	264.94
709.28	264.59
709.61	264.20
709.94	263.75
710.28	263.27
710.61	262.91
710.95	262.06
711.28	262.00
711.61	261.53
711.95	261.27
712.28	260.91
712.61	260.41
712.95	260.40
713.28	260.14
713.61	259.65
713.95	259.11
714.28	258.83
714.61	258.38
714.95	258.01
715.28	257.54
715.61	257.17
715.95	256.91
716.28	256.54
716.61	256.34
716.95	256.02
717.28	255.67
717.61	255.35
717.94	255.07
718.28	254.44
718.61	254.18
718.94	253.80
719.27	253.60
719.61	253.43
719.94	253.00
720.27	252.51
720.60	252.18
720.94	251.97
721.27	251.74
721.60	251.56
721.93	251.31
722.27	251.32
722.60	251.25
722.93	250.90
723.26	250.72
723.59	250.36
723.93	250.15
724.26	249.98
724.59	249.80
724.92	249.58
725.25	249.46
725.59	249.30
725.92	249.18
726.25	248.96
726.58	248.81
726.91	248.59
727.24	248.50
727.57	248.38
727.91	248.01
728.24	247.84
728.57	247.64
728.90	247.49
729.23	247.16
729.56	247.14
729.89	246.95
730.22	246.70
730.55	246.56
730.89	246.36
731.22	246.25
731.55	246.07
731.88	245.97
732.21	245.74
732.54	245.53
732.87	245.38
733.20	245.24
733.53	245.01
733.86	244.90
734.19	244.63
734.52	244.54
734.85	244.76
735.18	244.58
735.51	244.55
735.84	244.35
736.17	244.31
736.50	243.97
736.83	244.45
737.16	244.35
737.49	244.21
737.82	244.10
738.15	243.98
738.48	243.78
738.81	243.62
739.14	243.43
739.47	243.18
739.80	243.01
740.13	242.91
740.46	242.70
740.79	242.48
741.12	242.36
741.45	242.18
741.78	241.73
742.11	241.68
742.44	241.44
742.77	241.41
743.10	241.19
743.43	240.95
743.75	240.21
744.08	240.71
744.41	240.50
744.74	240.36
745.07	240.14
745.40	240.16
745.73	240.21
746.06	240.13
746.39	240.14
746.71	239.99
747.04	239.78
747.37	239.70
747.70	239.63
748.03	239.50
748.36	239.45
748.68	239.35
749.01	239.10
749.34	238.97
749.67	238.83
750.00	238.80
750.33	239.14
750.65	239.17
750.98	238.39
751.31	238.39
751.64	238.23
751.97	238.35
752.29	238.22
752.62	237.88
752.95	237.75
753.28	237.58
753.60	237.44
753.93	237.47
754.26	237.28
754.59	237.05
754.91	236.95
755.24	236.72
755.57	236.68
755.90	236.56
756.22	236.36
756.55	236.22
756.88	236.03
757.20	235.53
757.53	235.24
757.86	235.25
758.19	235.18
758.51	235.19
758.84	234.80
759.17	234.65
759.49	234.65
759.82	234.74
760.15	234.68
760.47	234.60
760.80	234.38
761.13	234.49
761.45	234.40
761.78	234.28
762.11	234.23
762.43	234.01
762.76	233.90
763.08	233.95
763.41	233.87
763.74	233.83
764.06	233.79
764.39	233.73
764.71	233.58
765.04	233.42
765.37	233.27
765.69	233.35
766.02	233.24
766.34	233.15
766.67	232.88
767.00	232.90
767.32	233.09
767.65	233.34
767.97	233.18
768.30	233.19
768.62	233.18
768.95	233.12
769.27	233.13
769.60	233.24
769.92	233.08
770.25	232.99
770.57	232.86
770.90	232.80
771.22	232.81
771.55	232.72
771.87	232.77
772.20	232.68
772.52	232.95
772.85	233.51
773.17	233.42
773.50	233.40
773.82	233.31
774.15	233.04
774.47	232.68
774.80	232.59
775.12	232.56
775.45	232.51
775.77	232.49
776.09	232.58
776.42	232.51
776.74	232.73
777.07	232.67
777.39	232.67
777.72	232.61
778.04	232.62
778.36	232.60
778.69	232.52
779.01	232.49
779.33	232.09
779.66	231.45
779.98	231.43
780.31	231.44
780.63	231.61
780.95	231.68
781.28	231.67
781.60	231.62
781.92	231.58
782.25	231.55
782.57	231.51
782.89	231.41
783.22	231.28
783.54	231.05
783.86	231.06
784.19	231.00
784.51	231.13
784.83	231.05
785.16	231.03
785.48	230.96
785.80	230.96
786.12	231.02
786.45	231.02
786.77	231.01
787.09	230.90
787.42	230.69
787.74	230.69
788.06	230.63
788.38	230.59
788.71	230.46
789.03	230.45
789.35	230.51
789.67	230.38
789.99	230.43
790.32	230.35
790.64	230.39
790.96	230.72
791.28	230.50
791.61	230.42
791.93	230.38
792.25	230.38
792.57	230.68
792.89	230.42
793.21	230.46
793.54	230.31
793.86	230.20
794.18	230.22
794.50	230.04
794.82	230.00
795.14	230.01
795.47	230.13
795.79	230.08
796.11	229.89
796.43	229.84
796.75	229.76
797.07	229.73
797.39	229.70
797.71	229.30
798.04	229.25
798.36	229.19
798.68	229.21
799.00	229.15
799.32	228.89
799.64	228.97
799.96	228.86
800.28	228.97
800.60	228.93
800.92	228.87
801.24	228.84
801.56	228.88
801.89	228.78
802.21	228.72
802.53	228.64
802.85	228.73
803.17	228.91
803.49	228.86
803.81	228.82
804.13	228.69
804.45	228.61
804.77	228.65
805.09	228.69
805.41	228.59
805.73	228.47
806.05	228.35
806.37	228.28
806.69	228.28
807.01	228.21
807.33	228.20
807.65	228.05
807.97	228.30
808.28	228.21
808.60	228.19
808.92	228.12
809.24	228.36
809.56	228.21
809.88	228.07
810.20	228.02
810.52	228.10
810.84	228.04
811.16	228.05
811.48	227.99
811.80	228.12
812.12	228.15
812.43	228.31
812.75	228.38
813.07	228.38
813.39	228.44
813.71	228.35
814.03	228.35
814.35	228.33
814.67	228.07
814.98	228.09
815.30	228.11
815.62	228.04
815.94	227.72
816.26	228.00
816.58	227.88
816.89	227.99
817.21	227.90
817.53	227.94
817.85	227.96
818.17	228.03
818.48	227.81
818.80	227.87
819.12	227.76
819.44	227.63
819.76	227.58
820.07	227.50
820.39	227.55
820.71	227.60
821.03	227.59
821.34	227.53
821.66	227.55
821.98	227.66
822.30	227.58
822.61	227.92
822.93	227.64
823.25	227.63
823.57	227.57
823.88	227.68
824.20	227.68
824.52	227.77
824.83	227.71
825.15	227.68
825.47	227.64
825.79	227.69
826.10	227.67
826.42	227.60
826.74	227.57
827.05	227.53
827.37	227.58
827.69	227.54
828.00	227.58
828.32	227.54
828.64	227.39
828.95	227.63
829.27	227.48
829.58	227.51
829.90	227.56
830.22	227.55
830.53	227.38
830.85	227.27
831.17	227.12
831.48	227.08
831.80	227.07
832.11	226.99
832.43	226.91
832.75	226.90
833.06	227.26
833.38	227.20
833.69	227.19
834.01	227.20
834.32	227.21
834.64	227.21
834.96	227.23
835.27	227.26
835.59	227.14
835.90	227.09
836.22	227.06
836.53	226.96
836.85	226.95
837.16	227.43
837.48	227.47
837.79	227.62
838.11	227.63
838.42	227.68
838.74	227.70
839.05	227.62
839.37	227.63
839.68	227.28
840.00	227.29
840.31	227.38
840.63	227.28
840.94	227.23
841.26	227.11
841.57	227.07
841.88	227.12
842.20	227.08
842.51	227.08
842.83	227.04
843.14	227.49
843.46	227.46
843.77	227.15
844.08	227.11
844.40	226.99
844.71	226.92
845.03	226.88
845.34	226.86
845.65	226.89
845.97	226.88
846.28	226.91
846.60	226.91
846.91	226.82
847.22	226.80
847.54	226.91
847.85	226.95
848.16	226.92
848.48	226.76
848.79	226.96
849.10	226.86
849.42	226.95
849.73	226.47
850.04	226.40
850.36	226.26
850.67	226.35
850.98	226.39
851.30	226.50
851.61	226.46
851.92	226.50
852.23	226.65
852.55	226.66
852.86	226.70
853.17	226.76
853.49	226.83
853.80	226.92
854.11	226.97
854.42	227.02
854.74	226.97
855.05	227.04
855.36	226.77
855.67	226.80
855.99	226.75
856.30	227.42
856.61	227.44
856.92	227.50
857.23	227.53
857.55	227.47
857.86	227.44
858.17	227.54
858.48	227.44
858.79	227.37
859.11	227.47
859.42	227.39
859.73	227.35
860.04	227.38
860.35	227.19
860.66	227.06
860.98	227.09
861.29	227.20
861.60	227.19
861.91	227.32
862.22	227.27
862.53	227.25
862.84	226.65
863.16	226.79
863.47	226.78
863.78	226.72
864.09	226.74
864.40	226.76
864.71	226.72
865.02	226.80
865.33	226.72
865.64	226.65
865.95	226.71
866.27	227.05
866.58	226.95
866.89	227.12
867.20	227.14
867.51	227.08
867.82	226.97
868.13	227.07
868.44	226.94
868.75	227.10
869.06	227.15
869.37	227.14
869.68	226.97
869.99	227.00
870.30	227.05
870.61	227.14
870.92	227.04
871.23	227.06
871.54	227.10
871.85	227.20
872.16	227.21
872.47	227.13
872.78	226.78
873.09	226.85
873.40	226.72
873.71	226.74
874.02	226.72
874.33	226.72
874.64	226.60
874.95	226.74
875.26	226.55
875.56	226.46
875.87	226.43
876.18	226.52
876.49	226.93
876.80	226.92
877.11	226.77
877.42	226.79
877.73	226.79
878.04	226.70
878.35	226.67
878.66	226.64
878.96	226.63
879.27	226.65
879.58	226.65
879.89	226.68
880.20	226.78
880.51	226.73
880.82	226.78
881.12	226.82
881.43	226.69
881.74	226.69
882.05	226.67
882.36	226.70
882.67	226.61
882.97	226.08
883.28	225.97
883.59	225.94
883.90	226.01
884.21	226.05
884.51	226.03
884.82	225.96
885.13	225.92
885.44	225.96
885.74	225.92
886.05	225.86
886.36	225.85
886.67	225.66
886.98	225.96
887.28	225.89
887.59	225.92
887.90	225.93
888.20	225.91
888.51	226.05
888.82	225.99
889.13	226.10
889.43	226.53
889.74	226.52
890.05	226.50
890.35	226.42
890.66	226.27
890.97	226.22
891.28	226.21
891.58	226.25
891.89	226.16
892.20	226.14
892.50	226.06
892.81	226.01
893.12	226.01
893.42	225.72
893.73	225.83
894.04	225.75
894.34	225.83
894.65	225.80
894.95	225.69
895.26	225.70
895.57	225.80
895.87	225.35
896.18	225.40
896.48	225.48
896.79	225.43
897.10	225.53
897.40	225.60
897.71	225.68
898.01	225.61
898.32	225.72
898.63	225.70
898.93	225.81
899.24	225.90
899.54	225.95
899.85	225.95
900.15	225.90
900.46	226.02
900.76	226.02
901.07	226.00
901.38	226.03
901.68	226.09
901.99	225.86
902.29	225.91
902.60	225.90
902.90	225.90
903.21	225.97
903.51	225.95
903.82	226.04
904.12	225.99
904.43	226.06
904.73	226.07
905.03	226.15
905.34	226.59
905.64	226.50
905.95	226.47
906.25	226.49
906.56	226.43
906.86	226.39
907.17	226.37
907.47	226.43
907.77	226.35
908.08	226.30
908.38	226.40
908.69	226.42
908.99	226.45
909.30	226.41
909.60	226.38
909.90	226.33
910.21	226.20
910.51	226.06
910.81	226.07
911.12	226.11
911.42	226.06
911.73	225.53
912.03	225.57
912.33	225.66
912.64	225.67
912.94	225.70
913.24	225.55
913.55	225.52
913.85	225.48
914.15	225.60
914.46	225.59
914.76	225.51
915.06	225.47
915.37	225.45
915.67	225.45
915.97	225.44
916.27	225.36
916.58	225.37
916.88	225.46
917.18	225.40
917.49	225.62
917.79	225.67
918.09	225.77
918.39	225.85
918.70	225.82
919.00	225.80
919.30	226.00
919.60	226.00
919.91	225.94
920.21	226.02
920.51	225.96
920.81	225.91
921.12	226.00
921.42	226.03
921.72	226.09
922.02	226.09
922.32	226.20
922.63	226.23
922.93	226.41
923.23	226.45
923.53	226.51
923.83	226.21
924.13	226.19
924.44	226.17
924.74	226.28
925.04	226.32
925.34	226.37
925.64	226.11
925.94	226.18
926.24	226.45
926.55	226.33
926.85	226.37
927.15	226.43
927.45	226.40
927.75	226.44
928.05	226.38
928.35	226.33
928.65	226.43
928.95	226.47
929.26	226.34
929.56	226.36
929.86	226.37
930.16	226.34
930.46	226.36
930.76	226.38
931.06	226.23
931.36	226.20
931.66	226.19
931.96	226.34
932.26	226.38
932.56	226.10
932.86	226.19
933.16	226.22
933.46	226.23
933.76	226.12
934.06	226.15
934.36	226.37
934.66	226.39
934.96	226.32
935.26	226.36
935.56	226.38
935.86	226.28
936.16	226.25
936.46	226.30
936.76	226.22
937.06	226.13
937.36	226.08
937.66	226.10
937.96	226.09
938.26	225.97
938.56	225.87
938.86	225.98
939.16	225.99
939.46	226.00
939.76	225.98
940.06	226.05
940.35	225.92
940.65	225.61
940.95	225.63
941.25	225.51
941.55	225.48
941.85	225.45
942.15	225.62
942.45	225.75
942.75	225.72
943.04	225.80
943.34	225.92
943.64	225.85
943.94	225.69
944.24	225.75
944.54	225.85
944.84	225.91
945.13	225.78
945.43	225.74
945.73	225.69
946.03	225.67
946.33	225.58
946.62	225.59
946.92	225.57
947.22	225.66
947.52	225.70
947.82	225.72
948.11	225.72
948.41	225.55
948.71	225.33
949.01	225.31
949.31	225.22
949.60	225.14
949.90	225.29
950.20	225.35
950.50	225.31
950.79	225.23
951.09	225.29
951.39	225.30
951.69	225.28
951.98	225.37
952.28	225.40
952.58	225.46
952.87	225.45
953.17	225.59
953.47	225.52
953.76	225.50
954.06	225.46
954.36	225.44
954.66	225.49
954.95	225.71
955.25	225.79
955.55	225.85
955.84	225.85
956.14	225.89
956.44	225.92
956.73	225.83
957.03	225.87
957.32	225.88
957.62	225.85
957.92	225.92
958.21	225.94
958.51	226.51
958.81	226.61
959.10	226.67
959.40	226.75
959.69	226.82
959.99	226.87
960.29	226.83
960.58	226.84
960.88	227.01
961.17	226.95
961.47	227.00
961.76	226.91
962.06	227.00
962.36	226.91
962.65	226.97
962.95	227.03
963.24	226.96
963.54	227.00
963.83	227.13
964.13	227.10
964.42	226.88
964.72	226.46
965.01	226.38
965.31	226.34
965.60	226.22
965.90	226.49
966.19	226.39
966.49	226.55
966.78	226.44
967.08	226.36
967.37	226.33
967.67	226.21
967.96	226.32
968.26	226.26
968.55	226.35
968.85	226.27
969.14	226.26
969.43	226.24
969.73	226.18
970.02	226.14
970.32	226.11
970.61	226.15
970.91	225.95
971.20	225.92
971.49	225.90
971.79	225.99
972.08	225.61
972.38	225.68
972.67	225.55
972.96	225.63
973.26	225.59
973.55	225.73
973.85	225.69
974.14	225.68
974.43	225.70
974.73	225.59
975.02	225.63
975.31	225.66
975.61	225.62
975.90	225.57
976.19	225.52
976.49	225.63
976.78	225.62
977.07	225.71
977.37	225.72
977.66	225.71
977.95	225.59
978.24	225.70
978.54	225.75
978.83	225.72
979.12	225.69
979.42	225.70
979.71	225.59
980.00	225.62
980.29	225.66
980.59	225.56
980.88	225.66
981.17	225.67
981.46	225.61
981.76	225.67
982.05	225.79
982.34	225.80
982.63	225.71
982.93	225.80
983.22	225.93
983.51	225.93
983.80	226.05
984.09	226.12
984.39	226.01
984.68	225.97
984.97	226.05
985.26	226.04
985.55	226.07
985.85	225.99
986.14	226.06
986.43	226.13
986.72	226.09
987.01	225.99
987.30	225.90
987.59	225.88
987.89	225.90
988.18	225.77
988.47	225.79
988.76	225.78
989.05	225.71
989.34	225.62
989.63	225.84
989.92	225.74
990.22	225.71
990.51	225.77
990.80	225.70
991.09	225.71
991.38	225.84
991.67	225.69
991.96	225.69
992.25	225.77
992.54	225.67
992.83	225.73
993.12	225.72
993.41	225.84
993.70	226.01
993.99	226.16
994.28	226.27
994.58	226.35
994.87	226.30
995.16	226.25
995.45	226.20
995.74	225.95
996.03	226.03
996.32	226.11
996.61	226.21
996.90	226.21
997.19	226.18
997.48	226.14
997.77	226.15
998.06	226.15
998.34	226.04
998.63	226.03
998.92	226.08
999.21	226.09
999.50	226.07
999.79	225.97
1000.08	225.87
1000.37	225.81
1000.66	225.74
1000.95	225.91
1001.24	226.01
1001.53	226.02
1001.82	226.02
1002.11	225.96
1002.40	225.89
1002.68	225.92
1002.97	226.29
1003.26	226.22
1003.55	226.14
1003.84	226.19
1004.13	226.40
1004.42	226.37
1004.71	226.35
1004.99	226.37
1005.28	226.51
1005.57	226.52
1005.86	226.46
1006.15	226.39
1006.44	226.36
1006.72	226.35
1007.01	226.24
1007.30	226.18
1007.59	226.17
1007.88	226.18
1008.17	226.17
1008.45	226.12
1008.74	225.88
1009.03	225.68
1009.32	225.68
1009.60	225.73
1009.89	225.66
1010.18	225.43
1010.47	225.35
1010.76	225.31
1011.04	225.24
1011.33	225.25
1011.62	225.16
1011.91	225.18
1012.19	225.23
1012.48	225.28
1012.77	225.29
1013.05	225.48
1013.34	225.50
1013.63	225.41
1013.92	225.42
1014.20	225.40
1014.49	225.44
1014.78	225.50
1015.06	225.28
1015.35	225.26
1015.64	225.25
1015.92	225.34
1016.21	225.38
1016.50	225.51
1016.78	225.58
1017.07	225.61
1017.36	225.46
1017.64	225.45
1017.93	225.47
1018.22	225.37
1018.50	225.35
1018.79	225.32
1019.08	225.12
1019.36	225.12
1019.65	225.07
1019.93	225.22
1020.22	225.23
1020.51	225.49
1020.79	225.48
1021.08	223.65
1021.36	225.70
1021.65	225.20
1021.94	225.20
1022.22	225.00
1022.51	223.40
1022.79	227.85
1023.08	225.30
1023.36	231.10
1023.65	224.70
>>>>>End Processed Spectral Data<<<<<
