SpectraSuite Data File
++++++++++++++++++++++++++++++++++++
Date: Wed Sep 04 18:01:51 EDT 2013
User: lab3
Dark Spectrum Present: Yes
Reference Spectrum Present: No
Number of Sampled Component Spectra: 1
Spectrometers: USB2E7196
Integration Time (usec): 170000 (USB2E7196)
Spectra Averaged: 20 (USB2E7196)
Boxcar Smoothing: 10 (USB2E7196)
Correct for Electrical Dark: No (USB2E7196)
Strobe/Lamp Enabled: No (USB2E7196)
Correct for Detector Non-linearity: No (USB2E7196)
Correct for Stray Light: No (USB2E7196)
Number of Pixels in Processed Spectrum: 2048
>>>>>Begin Processed Spectral Data<<<<<
339.09	0.00
339.48	214.50
339.86	214.15
340.24	216.60
340.63	218.10
341.01	226.65
341.39	220.90
341.78	221.85
342.16	223.80
342.54	222.65
342.93	212.59
343.31	223.31
343.69	223.82
344.07	224.34
344.46	224.78
344.84	225.19
345.22	225.11
345.60	225.48
345.99	225.63
346.37	225.75
346.75	225.92
347.13	225.95
347.52	226.11
347.90	226.35
348.28	226.39
348.66	226.50
349.05	226.42
349.43	226.50
349.81	226.55
350.19	226.63
350.57	226.68
350.96	226.80
351.34	226.89
351.72	226.95
352.10	227.09
352.48	227.10
352.87	227.15
353.25	227.24
353.63	227.20
354.01	227.23
354.39	227.35
354.77	227.37
355.15	227.59
355.54	227.53
355.92	227.39
356.30	227.47
356.68	227.84
357.06	227.98
357.44	227.98
357.82	228.10
358.20	228.55
358.58	228.60
358.97	228.67
359.35	228.79
359.73	229.01
360.11	229.02
360.49	229.13
360.87	229.13
361.25	229.33
361.63	229.51
362.01	229.67
362.39	229.60
362.77	229.68
363.15	229.65
363.53	229.76
363.91	229.83
364.29	229.81
364.67	229.41
365.05	229.33
365.43	229.44
365.81	229.50
366.19	229.35
366.57	229.60
366.95	229.54
367.33	229.47
367.71	229.37
368.09	229.47
368.47	229.50
368.85	229.46
369.23	229.48
369.61	229.31
369.99	229.46
370.37	229.58
370.75	229.80
371.13	229.73
371.51	229.56
371.89	229.51
372.27	229.46
372.65	229.44
373.03	229.50
373.41	229.36
373.78	229.22
374.16	228.91
374.54	228.63
374.92	228.58
375.30	228.52
375.68	228.35
376.06	228.26
376.44	228.10
376.82	228.08
377.19	227.91
377.57	227.84
377.95	227.60
378.33	227.37
378.71	227.02
379.09	227.03
379.47	227.09
379.84	227.04
380.22	227.04
380.60	226.81
380.98	226.66
381.36	226.62
381.73	226.49
382.11	226.52
382.49	226.52
382.87	226.35
383.25	226.31
383.62	226.79
384.00	226.64
384.38	226.62
384.76	226.64
385.13	226.78
385.51	226.78
385.89	226.69
386.27	226.79
386.64	226.84
387.02	226.76
387.40	226.60
387.78	226.60
388.15	226.60
388.53	226.70
388.91	226.71
389.29	226.63
389.66	226.70
390.04	226.59
390.42	226.68
390.79	226.68
391.17	226.70
391.55	226.28
391.92	226.34
392.30	226.41
392.68	226.32
393.05	226.31
393.43	226.31
393.81	226.36
394.18	226.28
394.56	226.32
394.94	226.51
395.31	226.50
395.69	226.72
396.06	226.79
396.44	226.80
396.82	226.86
397.19	227.14
397.57	227.16
397.95	227.31
398.32	227.26
398.70	227.42
399.07	227.53
399.45	227.59
399.82	227.63
400.20	227.72
400.58	227.88
400.95	227.86
401.33	228.08
401.70	228.51
402.08	228.70
402.45	228.81
402.83	229.04
403.20	229.34
403.58	229.40
403.95	229.64
404.33	229.95
404.71	230.14
405.08	230.61
405.46	230.84
405.83	231.05
406.21	231.35
406.58	231.68
406.96	232.07
407.33	232.41
407.70	232.81
408.08	233.46
408.45	233.91
408.83	234.35
409.20	234.67
409.58	234.92
409.95	235.55
410.33	236.10
410.70	236.45
411.08	237.03
411.45	237.66
411.82	238.21
412.20	239.01
412.57	239.97
412.95	240.39
413.32	241.35
413.69	242.20
414.07	243.17
414.44	244.11
414.82	245.08
415.19	246.30
415.56	247.45
415.94	248.61
416.31	250.04
416.68	251.43
417.06	253.07
417.43	254.61
417.81	256.30
418.18	258.15
418.55	260.13
418.93	262.11
419.30	264.25
419.67	266.58
420.04	268.81
420.42	271.12
420.79	274.15
421.16	276.91
421.54	280.01
421.91	282.94
422.28	285.97
422.66	289.31
423.03	292.69
423.40	296.04
423.77	299.56
424.15	303.18
424.52	307.04
424.89	311.24
425.26	315.30
425.64	319.02
426.01	323.21
426.38	327.61
426.75	332.20
427.13	336.69
427.50	341.29
427.87	346.25
428.24	351.21
428.61	355.76
428.99	361.14
429.36	366.62
429.73	372.14
430.10	377.67
430.47	383.32
430.85	389.04
431.22	395.31
431.59	402.14
431.96	408.44
432.33	415.40
432.70	422.10
433.08	430.14
433.45	437.65
433.82	445.15
434.19	453.22
434.56	461.38
434.93	469.21
435.30	477.13
435.68	485.62
436.05	494.12
436.42	502.49
436.79	510.12
437.16	518.56
437.53	527.53
437.90	536.49
438.27	545.13
438.64	554.12
439.01	562.54
439.38	569.71
439.75	576.94
440.13	585.20
440.50	592.85
440.87	598.76
441.24	605.10
441.61	612.01
441.98	617.20
442.35	623.09
442.72	629.09
443.09	634.90
443.46	638.39
443.83	640.77
444.20	642.64
444.57	645.38
444.94	646.39
445.31	647.31
445.68	648.63
446.05	648.75
446.42	647.42
446.79	645.93
447.16	644.33
447.53	642.96
447.90	639.14
448.27	635.33
448.64	630.67
449.01	627.06
449.37	620.90
449.74	614.85
450.11	607.94
450.48	600.10
450.85	592.01
451.22	585.21
451.59	578.44
451.96	572.14
452.33	564.01
452.70	556.70
453.07	548.05
453.43	538.73
453.80	530.26
454.17	522.06
454.54	514.33
454.91	506.09
455.28	497.89
455.65	490.28
456.02	483.35
456.38	476.71
456.75	468.88
457.12	462.35
457.49	456.02
457.86	449.56
458.23	444.44
458.59	438.75
458.96	432.99
459.33	427.79
459.70	422.73
460.07	418.59
460.43	413.83
460.80	409.51
461.17	405.84
461.54	401.78
461.91	398.05
462.27	394.08
462.64	390.74
463.01	387.35
463.38	383.95
463.74	379.94
464.11	376.90
464.48	374.18
464.85	371.20
465.21	369.01
465.58	366.75
465.95	363.79
466.32	361.59
466.68	359.25
467.05	357.22
467.42	354.99
467.78	352.53
468.15	350.35
468.52	348.78
468.88	346.53
469.25	344.67
469.62	343.22
469.98	341.63
470.35	340.11
470.72	338.63
471.08	336.98
471.45	335.75
471.82	334.46
472.18	333.05
472.55	332.09
472.92	330.78
473.28	329.55
473.65	328.49
474.02	327.31
474.38	326.41
474.75	325.55
475.11	324.60
475.48	324.09
475.85	323.52
476.21	322.82
476.58	322.40
476.94	321.99
477.31	321.45
477.67	321.05
478.04	320.77
478.41	320.52
478.77	320.80
479.14	320.41
479.50	320.33
479.87	320.39
480.23	320.37
480.60	320.36
480.96	320.40
481.33	320.82
481.69	321.12
482.06	321.31
482.42	321.60
482.79	322.04
483.15	322.40
483.52	322.95
483.88	323.43
484.25	323.87
484.61	324.59
484.98	325.28
485.34	326.20
485.71	327.09
486.07	328.01
486.44	328.55
486.80	329.75
487.17	330.95
487.53	332.34
487.90	333.82
488.26	335.50
488.62	337.24
488.99	338.73
489.35	340.42
489.72	342.36
490.08	344.34
490.44	346.35
490.81	348.58
491.17	350.79
491.54	353.29
491.90	355.90
492.26	358.48
492.63	361.36
492.99	364.18
493.36	367.27
493.72	370.62
494.08	374.34
494.45	378.02
494.81	381.96
495.17	385.86
495.54	390.00
495.90	394.24
496.26	398.61
496.63	403.31
496.99	408.13
497.35	413.20
497.72	418.41
498.08	423.86
498.44	429.53
498.80	435.50
499.17	441.60
499.53	447.91
499.89	454.70
500.26	461.39
500.62	468.44
500.98	475.83
501.34	483.30
501.71	490.96
502.07	498.85
502.43	506.90
502.79	515.24
503.16	523.94
503.52	532.99
503.88	542.38
504.24	552.02
504.60	562.09
504.97	572.37
505.33	582.88
505.69	594.01
506.05	605.40
506.41	616.77
506.78	628.39
507.14	640.53
507.50	652.75
507.86	665.60
508.22	678.71
508.59	691.81
508.95	705.51
509.31	719.75
509.67	734.02
510.03	748.37
510.39	763.19
510.75	778.13
511.12	793.24
511.48	808.80
511.84	824.39
512.20	840.31
512.56	856.70
512.92	873.46
513.28	890.27
513.64	907.28
514.00	924.85
514.37	942.51
514.73	960.55
515.09	978.77
515.45	997.07
515.81	1015.63
516.17	1034.48
516.53	1053.24
516.89	1071.97
517.25	1091.55
517.61	1111.84
517.97	1132.15
518.33	1152.46
518.69	1172.84
519.05	1193.50
519.41	1214.41
519.77	1235.69
520.13	1256.47
520.49	1277.32
520.85	1299.70
521.21	1321.04
521.57	1342.60
521.93	1363.50
522.29	1384.72
522.65	1405.77
523.01	1426.79
523.37	1447.40
523.73	1468.61
524.09	1489.21
524.45	1510.04
524.81	1530.99
525.17	1551.69
525.53	1572.39
525.89	1593.34
526.25	1614.45
526.61	1634.68
526.97	1655.79
527.33	1676.86
527.68	1698.81
528.04	1720.14
528.40	1739.89
528.76	1760.96
529.12	1781.21
529.48	1802.42
529.84	1822.75
530.20	1843.89
530.56	1864.93
530.91	1885.96
531.27	1906.47
531.63	1927.53
531.99	1948.11
532.35	1968.48
532.71	1988.65
533.07	2009.37
533.42	2029.23
533.78	2049.34
534.14	2069.47
534.50	2088.69
534.86	2108.08
535.21	2125.70
535.57	2144.48
535.93	2162.35
536.29	2180.08
536.65	2198.34
537.00	2216.15
537.36	2233.89
537.72	2250.28
538.08	2267.38
538.44	2284.18
538.79	2300.83
539.15	2317.22
539.51	2333.29
539.87	2348.14
540.22	2362.60
540.58	2376.79
540.94	2390.47
541.29	2403.18
541.65	2415.95
542.01	2428.60
542.37	2439.40
542.72	2450.30
543.08	2460.96
543.44	2472.83
543.79	2483.18
544.15	2493.02
544.51	2503.16
544.87	2513.00
545.22	2521.82
545.58	2529.55
545.94	2536.82
546.29	2543.57
546.65	2549.87
547.01	2555.50
547.36	2561.43
547.72	2566.84
548.07	2571.10
548.43	2576.51
548.79	2581.35
549.14	2585.16
549.50	2588.88
549.86	2592.85
550.21	2596.81
550.57	2600.25
550.92	2601.71
551.28	2603.10
551.64	2605.55
551.99	2607.45
552.35	2609.09
552.70	2611.32
553.06	2613.32
553.41	2614.55
553.77	2615.96
554.13	2617.69
554.48	2619.31
554.84	2620.69
555.19	2622.13
555.55	2623.73
555.90	2622.60
556.26	2621.56
556.61	2620.56
556.97	2618.73
557.32	2618.24
557.68	2617.34
558.03	2615.68
558.39	2614.30
558.74	2613.70
559.10	2610.70
559.45	2607.45
559.81	2603.04
560.16	2598.21
560.52	2593.48
560.87	2589.35
561.23	2583.74
561.58	2577.65
561.94	2571.12
562.29	2563.60
562.64	2556.53
563.00	2548.63
563.35	2542.57
563.71	2535.71
564.06	2529.66
564.42	2523.03
564.77	2515.96
565.12	2508.32
565.48	2500.98
565.83	2493.28
566.19	2485.10
566.54	2477.35
566.89	2469.13
567.25	2461.37
567.60	2454.03
567.96	2446.52
568.31	2438.57
568.66	2430.11
569.02	2421.44
569.37	2413.07
569.72	2405.95
570.08	2396.70
570.43	2387.02
570.78	2377.84
571.14	2368.86
571.49	2358.43
571.84	2349.17
572.20	2338.48
572.55	2328.68
572.90	2317.34
573.26	2306.82
573.61	2295.81
573.96	2284.43
574.31	2272.23
574.67	2260.48
575.02	2247.63
575.37	2234.97
575.72	2221.80
576.08	2209.88
576.43	2197.25
576.78	2184.06
577.13	2170.06
577.49	2157.34
577.84	2145.56
578.19	2133.03
578.54	2120.08
578.90	2108.06
579.25	2095.51
579.60	2082.92
579.95	2069.54
580.30	2056.45
580.66	2043.01
581.01	2029.19
581.36	2015.25
581.71	2002.63
582.06	1989.27
582.42	1976.63
582.77	1963.54
583.12	1951.44
583.47	1939.07
583.82	1926.91
584.17	1915.20
584.53	1903.24
584.88	1890.25
585.23	1876.97
585.58	1862.90
585.93	1849.97
586.28	1836.66
586.63	1822.58
586.98	1808.32
587.34	1795.24
587.69	1782.02
588.04	1769.51
588.39	1757.32
588.74	1745.02
589.09	1732.70
589.44	1720.10
589.79	1708.05
590.14	1696.21
590.49	1683.81
590.84	1671.56
591.19	1659.22
591.54	1646.49
591.89	1634.23
592.25	1623.92
592.60	1612.47
592.95	1601.22
593.30	1589.18
593.65	1577.23
594.00	1565.05
594.35	1555.17
594.70	1543.34
595.05	1531.96
595.40	1519.50
595.75	1507.44
596.10	1496.17
596.45	1484.57
596.80	1473.65
597.15	1462.07
597.50	1450.06
597.85	1438.47
598.19	1426.66
598.54	1415.02
598.89	1403.69
599.24	1393.21
599.59	1381.38
599.94	1370.28
600.29	1359.41
600.64	1348.98
600.99	1337.87
601.34	1328.53
601.69	1317.29
602.04	1307.18
602.39	1297.44
602.74	1288.44
603.08	1279.41
603.43	1270.13
603.78	1260.27
604.13	1250.51
604.48	1240.70
604.83	1231.00
605.18	1221.35
605.53	1211.77
605.87	1202.57
606.22	1193.92
606.57	1184.48
606.92	1174.82
607.27	1165.75
607.62	1157.06
607.96	1148.40
608.31	1140.54
608.66	1131.83
609.01	1123.25
609.36	1114.54
609.70	1105.81
610.05	1096.97
610.40	1088.17
610.75	1079.35
611.10	1070.91
611.44	1062.24
611.79	1054.10
612.14	1046.31
612.49	1038.38
612.83	1030.92
613.18	1023.22
613.53	1015.50
613.88	1007.43
614.22	999.75
614.57	992.00
614.92	984.09
615.27	976.39
615.61	968.62
615.96	960.94
616.31	953.53
616.65	946.51
617.00	939.22
617.35	931.82
617.70	924.49
618.04	917.32
618.39	910.66
618.74	904.17
619.08	897.34
619.43	890.20
619.78	883.03
620.12	875.80
620.47	869.02
620.82	861.56
621.16	854.71
621.51	848.38
621.85	842.00
622.20	835.40
622.55	828.71
622.89	822.08
623.24	815.69
623.59	808.97
623.93	802.59
624.28	796.43
624.62	790.85
624.97	784.93
625.32	779.24
625.66	773.05
626.01	766.90
626.35	761.21
626.70	755.43
627.04	750.07
627.39	744.46
627.73	738.87
628.08	733.97
628.43	728.25
628.77	722.67
629.12	717.23
629.46	712.28
629.81	707.42
630.15	702.66
630.50	697.77
630.84	693.08
631.19	688.20
631.53	683.51
631.88	678.15
632.22	673.31
632.57	668.64
632.91	663.94
633.26	659.52
633.60	654.89
633.95	650.22
634.29	645.55
634.64	641.20
634.98	636.42
635.32	631.79
635.67	627.91
636.01	623.77
636.36	619.31
636.70	615.34
637.05	611.18
637.39	606.91
637.73	602.73
638.08	598.67
638.42	594.57
638.77	590.08
639.11	585.76
639.45	581.48
639.80	577.15
640.14	573.17
640.49	569.05
640.83	565.18
641.17	561.55
641.52	557.86
641.86	554.22
642.20	551.03
642.55	547.36
642.89	543.69
643.23	540.24
643.58	537.21
643.92	533.56
644.26	530.17
644.61	527.01
644.95	523.71
645.29	520.23
645.64	516.99
645.98	514.00
646.32	511.30
646.66	508.08
647.01	505.02
647.35	502.07
647.69	499.28
648.04	496.47
648.38	493.66
648.72	490.65
649.06	487.47
649.41	484.34
649.75	481.46
650.09	478.64
650.43	475.50
650.78	472.41
651.12	469.57
651.46	466.69
651.80	463.92
652.14	461.18
652.49	458.58
652.83	455.90
653.17	453.28
653.51	450.40
653.85	448.01
654.20	445.53
654.54	442.93
654.88	440.33
655.22	437.97
655.56	435.39
655.90	433.01
656.25	430.83
656.59	428.50
656.93	426.23
657.27	424.02
657.61	421.77
657.95	419.71
658.29	417.44
658.64	415.28
658.98	412.83
659.32	410.48
659.66	408.23
660.00	406.02
660.34	403.95
660.68	401.85
661.02	399.72
661.36	397.76
661.70	395.69
662.05	393.76
662.39	391.64
662.73	389.93
663.07	388.29
663.41	386.48
663.75	384.56
664.09	382.68
664.43	380.75
664.77	379.09
665.11	377.20
665.45	375.55
665.79	373.89
666.13	372.30
666.47	370.69
666.81	369.08
667.15	367.46
667.49	365.88
667.83	364.50
668.17	363.03
668.51	361.45
668.85	360.16
669.19	358.99
669.53	357.61
669.87	356.10
670.21	354.55
670.55	353.06
670.89	351.98
671.23	350.60
671.57	349.26
671.91	347.86
672.25	346.51
672.58	345.34
672.92	343.92
673.26	342.70
673.60	341.42
673.94	340.18
674.28	339.06
674.62	337.92
674.96	336.57
675.30	335.41
675.64	334.16
675.97	332.87
676.31	331.41
676.65	330.04
676.99	329.01
677.33	327.82
677.67	326.81
678.01	325.48
678.34	324.45
678.68	323.44
679.02	322.36
679.36	321.41
679.70	320.29
680.04	319.35
680.37	318.36
680.71	317.40
681.05	316.44
681.39	315.44
681.73	314.38
682.06	313.58
682.40	312.77
682.74	312.06
683.08	311.36
683.42	310.47
683.75	309.74
684.09	308.74
684.43	307.99
684.77	307.15
685.10	306.41
685.44	305.60
685.78	304.80
686.12	304.02
686.45	303.21
686.79	302.32
687.13	301.63
687.46	300.84
687.80	300.28
688.14	299.55
688.48	298.83
688.81	298.13
689.15	297.43
689.49	296.68
689.82	295.92
690.16	295.01
690.50	294.34
690.83	293.61
691.17	292.90
691.51	292.18
691.84	291.55
692.18	290.84
692.52	290.23
692.85	289.63
693.19	289.27
693.52	288.55
693.86	287.95
694.20	287.23
694.53	286.65
694.87	285.87
695.21	285.19
695.54	284.62
695.88	284.00
696.21	283.25
696.55	282.71
696.88	282.03
697.22	281.45
697.56	281.00
697.89	280.37
698.23	279.82
698.56	279.21
698.90	278.68
699.23	278.03
699.57	277.47
699.90	276.89
700.24	276.19
700.58	275.73
700.91	275.34
701.25	275.28
701.58	275.10
701.92	274.69
702.25	274.30
702.59	273.75
702.92	273.30
703.26	272.89
703.59	272.43
703.93	272.46
704.26	272.11
704.60	271.64
704.93	271.35
705.26	270.89
705.60	270.51
705.93	269.95
706.27	269.72
706.60	269.38
706.94	269.13
707.27	268.67
707.61	268.35
707.94	267.88
708.27	267.03
708.61	266.24
708.94	265.85
709.28	265.48
709.61	265.11
709.94	264.76
710.28	264.40
710.61	264.01
710.95	263.24
711.28	263.07
711.61	262.65
711.95	262.32
712.28	261.95
712.61	261.63
712.95	261.48
713.28	261.30
713.61	260.86
713.95	260.33
714.28	260.04
714.61	259.65
714.95	259.34
715.28	259.05
715.61	258.79
715.95	258.52
716.28	258.07
716.61	257.83
716.95	257.50
717.28	257.18
717.61	256.83
717.94	256.48
718.28	255.92
718.61	255.63
718.94	255.26
719.27	254.96
719.61	254.75
719.94	254.40
720.27	253.93
720.60	253.71
720.94	253.48
721.27	253.26
721.60	253.08
721.93	252.83
722.27	252.74
722.60	252.52
722.93	252.15
723.26	252.03
723.59	251.68
723.93	251.46
724.26	251.25
724.59	251.02
724.92	250.87
725.25	250.82
725.59	250.60
725.92	250.42
726.25	250.35
726.58	250.15
726.91	249.98
727.24	249.79
727.57	249.52
727.91	249.30
728.24	249.23
728.57	249.01
728.90	248.84
729.23	248.47
729.56	248.56
729.89	248.46
730.22	248.25
730.55	248.13
730.89	247.98
731.22	247.80
731.55	247.63
731.88	247.48
732.21	247.14
732.54	246.97
732.87	246.84
733.20	246.56
733.53	246.49
733.86	246.29
734.19	246.16
734.52	246.12
734.85	246.38
735.18	246.05
735.51	246.01
735.84	245.91
736.17	245.89
736.50	245.40
736.83	245.79
737.16	245.72
737.49	245.59
737.82	245.41
738.15	245.36
738.48	245.15
738.81	245.00
739.14	244.88
739.47	244.72
739.80	244.56
740.13	244.50
740.46	244.13
740.79	243.97
741.12	243.80
741.45	243.59
741.78	243.13
742.11	243.10
742.44	242.84
742.77	242.74
743.10	242.58
743.43	242.54
743.75	241.96
744.08	242.43
744.41	242.23
744.74	242.10
745.07	241.79
745.40	241.76
745.73	241.80
746.06	241.69
746.39	241.66
746.71	241.48
747.04	241.30
747.37	241.20
747.70	241.20
748.03	241.14
748.36	241.05
748.68	240.88
749.01	240.64
749.34	240.52
749.67	240.40
750.00	240.32
750.33	240.58
750.65	240.42
750.98	239.64
751.31	239.62
751.64	239.55
751.97	239.75
752.29	239.66
752.62	239.34
752.95	239.17
753.28	238.98
753.60	238.86
753.93	238.86
754.26	238.77
754.59	238.48
754.91	238.30
755.24	238.18
755.57	238.11
755.90	238.00
756.22	237.85
756.55	237.66
756.88	237.48
757.20	237.01
757.53	236.80
757.86	236.60
758.19	236.54
758.51	236.42
758.84	236.05
759.17	235.84
759.49	235.78
759.82	235.94
760.15	235.83
760.47	235.66
760.80	235.37
761.13	235.40
761.45	235.32
761.78	235.25
762.11	235.10
762.43	234.93
762.76	234.85
763.08	234.81
763.41	234.82
763.74	234.77
764.06	234.68
764.39	234.62
764.71	234.59
765.04	234.42
765.37	234.32
765.69	234.22
766.02	234.12
766.34	233.99
766.67	233.76
767.00	233.73
767.32	233.97
767.65	234.23
767.97	234.06
768.30	234.04
768.62	233.96
768.95	233.90
769.27	233.87
769.60	233.90
769.92	233.80
770.25	233.62
770.57	233.45
770.90	233.38
771.22	233.24
771.55	233.28
771.87	233.24
772.20	233.14
772.52	233.55
772.85	234.11
773.17	234.07
773.50	233.94
773.82	233.90
774.15	233.62
774.47	233.26
774.80	233.28
775.12	233.20
775.45	233.09
775.77	233.00
776.09	233.00
776.42	232.88
776.74	233.01
777.07	232.92
777.39	232.95
777.72	232.84
778.04	232.93
778.36	232.80
778.69	232.73
779.01	232.75
779.33	232.33
779.66	231.72
779.98	231.58
780.31	231.59
780.63	231.70
780.95	231.78
781.28	231.82
781.60	231.65
781.92	231.56
782.25	231.57
782.57	231.56
782.89	231.48
783.22	231.48
783.54	231.31
783.86	231.30
784.19	231.23
784.51	231.36
784.83	231.23
785.16	231.19
785.48	231.18
785.80	231.11
786.12	231.14
786.45	231.16
786.77	231.30
787.09	231.25
787.42	231.08
787.74	231.06
788.06	231.03
788.38	231.03
788.71	231.03
789.03	230.98
789.35	231.06
789.67	231.00
789.99	230.99
790.32	230.88
790.64	230.94
790.96	231.30
791.28	231.12
791.61	231.05
791.93	231.14
792.25	231.09
792.57	231.51
792.89	231.32
793.21	231.32
793.54	231.21
793.86	231.06
794.18	231.10
794.50	230.96
794.82	230.90
795.14	230.90
795.47	230.89
795.79	230.90
796.11	230.74
796.43	230.69
796.75	230.62
797.07	230.60
797.39	230.53
797.71	230.16
798.04	230.22
798.36	230.31
798.68	230.22
799.00	230.32
799.32	229.95
799.64	230.10
799.96	230.04
800.28	230.11
800.60	230.17
800.92	230.14
801.24	230.13
801.56	230.18
801.89	230.15
802.21	230.18
802.53	230.07
802.85	230.15
803.17	230.36
803.49	230.34
803.81	230.34
804.13	230.29
804.45	230.18
804.77	230.13
805.09	230.02
805.41	229.89
805.73	229.64
806.05	229.53
806.37	229.40
806.69	229.34
807.01	229.29
807.33	229.27
807.65	229.10
807.97	229.27
808.28	229.17
808.60	229.13
808.92	229.05
809.24	229.32
809.56	229.20
809.88	229.01
810.20	229.00
810.52	229.08
810.84	228.99
811.16	228.97
811.48	228.97
811.80	229.18
812.12	229.19
812.43	229.37
812.75	229.36
813.07	229.28
813.39	229.29
813.71	229.23
814.03	229.18
814.35	229.21
814.67	229.00
814.98	228.97
815.30	228.93
815.62	228.85
815.94	228.58
816.26	228.81
816.58	228.77
816.89	228.74
817.21	228.57
817.53	228.67
817.85	228.69
818.17	228.63
818.48	228.41
818.80	228.55
819.12	228.42
819.44	228.38
819.76	228.34
820.07	228.32
820.39	228.27
820.71	228.25
821.03	228.17
821.34	228.14
821.66	228.19
821.98	228.30
822.30	228.27
822.61	228.50
822.93	228.26
823.25	228.23
823.57	228.17
823.88	228.31
824.20	228.23
824.52	228.25
824.83	228.22
825.15	228.15
825.47	228.04
825.79	228.08
826.10	228.05
826.42	227.97
826.74	228.05
827.05	228.06
827.37	228.09
827.69	228.09
828.00	228.10
828.32	228.05
828.64	227.99
828.95	228.24
829.27	228.14
829.58	228.12
829.90	228.15
830.22	228.23
830.53	228.18
830.85	228.15
831.17	228.06
831.48	228.06
831.80	228.01
832.11	228.02
832.43	227.92
832.75	227.92
833.06	228.28
833.38	228.10
833.69	228.06
834.01	228.10
834.32	228.12
834.64	228.08
834.96	228.06
835.27	228.04
835.59	227.93
835.90	227.87
836.22	227.83
836.53	227.76
836.85	227.73
837.16	228.13
837.48	228.17
837.79	228.43
838.11	228.44
838.42	228.49
838.74	228.55
839.05	228.53
839.37	228.52
839.68	228.24
840.00	228.29
840.31	228.30
840.63	228.25
840.94	228.22
841.26	228.18
841.57	228.18
841.88	228.23
842.20	228.11
842.51	228.02
842.83	227.99
843.14	228.50
843.46	228.49
843.77	228.28
844.08	228.24
844.40	228.05
844.71	228.01
845.03	228.03
845.34	227.98
845.65	227.95
845.97	228.00
846.28	228.05
846.60	228.08
846.91	228.05
847.22	228.05
847.54	228.20
847.85	228.28
848.16	228.28
848.48	228.09
848.79	228.40
849.10	228.47
849.42	228.50
849.73	228.00
850.04	227.95
850.36	227.68
850.67	227.76
850.98	227.73
851.30	227.70
851.61	227.71
851.92	227.68
852.23	227.88
852.55	227.80
852.86	227.84
853.17	227.81
853.49	227.91
853.80	228.00
854.11	227.95
854.42	227.93
854.74	227.85
855.05	227.99
855.36	227.65
855.67	227.65
855.99	227.70
856.30	228.23
856.61	228.20
856.92	228.25
857.23	228.27
857.55	228.18
857.86	228.19
858.17	228.17
858.48	228.05
858.79	227.89
859.11	227.96
859.42	227.93
859.73	227.90
860.04	227.93
860.35	227.77
860.66	227.59
860.98	227.62
861.29	227.65
861.60	227.62
861.91	227.74
862.22	227.66
862.53	227.59
862.84	227.04
863.16	227.15
863.47	227.04
863.78	226.92
864.09	227.00
864.40	227.06
864.71	227.08
865.02	227.14
865.33	227.07
865.64	226.95
865.95	226.89
866.27	227.16
866.58	226.99
866.89	227.07
867.20	227.09
867.51	226.98
867.82	226.99
868.13	227.08
868.44	226.96
868.75	227.04
869.06	227.05
869.37	227.14
869.68	227.03
869.99	227.18
870.30	227.25
870.61	227.30
870.92	227.24
871.23	227.15
871.54	227.28
871.85	227.49
872.16	227.54
872.47	227.49
872.78	227.21
873.09	227.30
873.40	227.19
873.71	227.24
874.02	227.29
874.33	227.26
874.64	227.16
874.95	227.24
875.26	227.16
875.56	227.16
875.87	227.03
876.18	227.00
876.49	227.40
876.80	227.36
877.11	227.27
877.42	227.29
877.73	227.40
878.04	227.36
878.35	227.32
878.66	227.41
878.96	227.43
879.27	227.40
879.58	227.37
879.89	227.37
880.20	227.54
880.51	227.51
880.82	227.52
881.12	227.53
881.43	227.39
881.74	227.31
882.05	227.31
882.36	227.35
882.67	227.41
882.97	226.96
883.28	226.93
883.59	226.93
883.90	226.98
884.21	226.94
884.51	226.85
884.82	226.73
885.13	226.64
885.44	226.59
885.74	226.59
886.05	226.55
886.36	226.58
886.67	226.29
886.98	226.56
887.28	226.49
887.59	226.48
887.90	226.51
888.20	226.55
888.51	226.61
888.82	226.54
889.13	226.58
889.43	226.89
889.74	226.85
890.05	226.77
890.35	226.69
890.66	226.64
890.97	226.61
891.28	226.57
891.58	226.65
891.89	226.61
892.20	226.58
892.50	226.52
892.81	226.51
893.12	226.62
893.42	226.37
893.73	226.40
894.04	226.43
894.34	226.51
894.65	226.46
894.95	226.39
895.26	226.41
895.57	226.60
895.87	226.17
896.18	226.19
896.48	226.23
896.79	226.21
897.10	226.29
897.40	226.29
897.71	226.29
898.01	226.28
898.32	226.37
898.63	226.32
898.93	226.31
899.24	226.31
899.54	226.25
899.85	226.19
900.15	226.17
900.46	226.08
900.76	226.10
901.07	226.08
901.38	226.03
901.68	226.12
901.99	225.88
902.29	225.90
902.60	225.84
902.90	225.82
903.21	225.81
903.51	225.75
903.82	225.89
904.12	225.97
904.43	225.96
904.73	225.88
905.03	225.94
905.34	226.41
905.64	226.35
905.95	226.35
906.25	226.37
906.56	226.45
906.86	226.49
907.17	226.43
907.47	226.50
907.77	226.51
908.08	226.48
908.38	226.51
908.69	226.57
908.99	226.72
909.30	226.75
909.60	226.74
909.90	226.79
910.21	226.61
910.51	226.55
910.81	226.55
911.12	226.63
911.42	226.63
911.73	226.18
912.03	226.23
912.33	226.35
912.64	226.36
912.94	226.26
913.24	226.20
913.55	226.16
913.85	226.14
914.15	226.22
914.46	226.20
914.76	226.17
915.06	226.13
915.37	226.02
915.67	226.08
915.97	226.16
916.27	226.02
916.58	226.05
916.88	226.07
917.18	225.99
917.49	226.35
917.79	226.37
918.09	226.55
918.39	226.71
918.70	226.63
919.00	226.61
919.30	226.89
919.60	226.85
919.91	226.88
920.21	226.93
920.51	226.83
920.81	226.85
921.12	226.88
921.42	226.84
921.72	226.95
922.02	227.03
922.32	227.09
922.63	227.15
922.93	227.48
923.23	227.53
923.53	227.50
923.83	227.18
924.13	227.22
924.44	227.10
924.74	227.13
925.04	227.28
925.34	227.25
925.64	227.12
925.94	227.20
926.24	227.42
926.55	227.44
926.85	227.53
927.15	227.53
927.45	227.56
927.75	227.64
928.05	227.57
928.35	227.46
928.65	227.49
928.95	227.59
929.26	227.35
929.56	227.42
929.86	227.48
930.16	227.45
930.46	227.42
930.76	227.49
931.06	227.23
931.36	227.11
931.66	227.25
931.96	227.22
932.26	227.22
932.56	227.05
932.86	227.05
933.16	227.05
933.46	226.97
933.76	226.90
934.06	226.98
934.36	227.20
934.66	227.14
934.96	227.12
935.26	227.13
935.56	227.21
935.86	227.07
936.16	227.09
936.46	227.07
936.76	227.08
937.06	227.01
937.36	227.12
937.66	227.11
937.96	227.04
938.26	226.95
938.56	226.86
938.86	226.80
939.16	226.94
939.46	227.00
939.76	227.00
940.06	227.00
940.35	226.89
940.65	226.62
940.95	226.73
941.25	226.56
941.55	226.53
941.85	226.53
942.15	226.67
942.45	226.71
942.75	226.67
943.04	226.68
943.34	226.77
943.64	226.69
943.94	226.67
944.24	226.72
944.54	226.79
944.84	226.85
945.13	226.86
945.43	226.67
945.73	226.62
946.03	226.66
946.33	226.60
946.62	226.64
946.92	226.60
947.22	226.54
947.52	226.57
947.82	226.58
948.11	226.55
948.41	226.46
948.71	226.35
949.01	226.42
949.31	226.43
949.60	226.38
949.90	226.49
950.20	226.47
950.50	226.44
950.79	226.37
951.09	226.52
951.39	226.53
951.69	226.48
951.98	226.60
952.28	226.63
952.58	226.63
952.87	226.58
953.17	226.71
953.47	226.75
953.76	226.75
954.06	226.62
954.36	226.53
954.66	226.53
954.95	226.67
955.25	226.71
955.55	226.75
955.84	226.68
956.14	226.74
956.44	226.81
956.73	226.80
957.03	226.84
957.32	226.73
957.62	226.69
957.92	226.83
958.21	226.74
958.51	227.28
958.81	227.35
959.10	227.40
959.40	227.47
959.69	227.49
959.99	227.57
960.29	227.65
960.58	227.63
960.88	227.79
961.17	227.67
961.47	227.68
961.76	227.64
962.06	227.75
962.36	227.63
962.65	227.66
962.95	227.68
963.24	227.70
963.54	227.73
963.83	227.77
964.13	227.77
964.42	227.75
964.72	227.39
965.01	227.41
965.31	227.40
965.60	227.30
965.90	227.63
966.19	227.57
966.49	227.57
966.78	227.59
967.08	227.53
967.37	227.69
967.67	227.60
967.96	227.69
968.26	227.61
968.55	227.72
968.85	227.70
969.14	227.63
969.43	227.59
969.73	227.53
970.02	227.55
970.32	227.55
970.61	227.45
970.91	227.29
971.20	227.20
971.49	227.14
971.79	227.13
972.08	226.69
972.38	226.67
972.67	226.69
972.96	226.72
973.26	226.59
973.55	226.65
973.85	226.66
974.14	226.56
974.43	226.60
974.73	226.48
975.02	226.37
975.31	226.36
975.61	226.38
975.90	226.38
976.19	226.31
976.49	226.30
976.78	226.30
977.07	226.29
977.37	226.35
977.66	226.33
977.95	226.32
978.24	226.39
978.54	226.52
978.83	226.41
979.12	226.38
979.42	226.41
979.71	226.32
980.00	226.24
980.29	226.23
980.59	226.14
980.88	226.23
981.17	226.27
981.46	226.30
981.76	226.25
982.05	226.31
982.34	226.35
982.63	226.27
982.93	226.34
983.22	226.45
983.51	226.40
983.80	226.48
984.09	226.49
984.39	226.45
984.68	226.39
984.97	226.46
985.26	226.36
985.55	226.39
985.85	226.24
986.14	226.36
986.43	226.39
986.72	226.35
987.01	226.24
987.30	226.20
987.59	226.15
987.89	226.20
988.18	226.05
988.47	226.02
988.76	225.98
989.05	225.87
989.34	225.79
989.63	225.93
989.92	225.89
990.22	225.82
990.51	225.85
990.80	225.78
991.09	225.76
991.38	225.91
991.67	225.85
991.96	225.86
992.25	225.82
992.54	225.83
992.83	225.86
993.12	225.83
993.41	225.92
993.70	226.14
993.99	226.19
994.28	226.30
994.58	226.34
994.87	226.32
995.16	226.33
995.45	226.31
995.74	226.16
996.03	226.25
996.32	226.32
996.61	226.39
996.90	226.38
997.19	226.31
997.48	226.28
997.77	226.20
998.06	226.28
998.34	226.28
998.63	226.22
998.92	226.28
999.21	226.36
999.50	226.40
999.79	226.23
1000.08	226.24
1000.37	226.27
1000.66	226.23
1000.95	226.41
1001.24	226.46
1001.53	226.44
1001.82	226.47
1002.11	226.36
1002.40	226.41
1002.68	226.55
1002.97	226.97
1003.26	227.00
1003.55	226.97
1003.84	227.07
1004.13	227.16
1004.42	227.12
1004.71	227.11
1004.99	227.07
1005.28	227.23
1005.57	227.19
1005.86	227.13
1006.15	227.05
1006.44	226.98
1006.72	227.10
1007.01	226.97
1007.30	227.01
1007.59	227.05
1007.88	226.98
1008.17	227.06
1008.45	227.00
1008.74	226.80
1009.03	226.54
1009.32	226.57
1009.60	226.56
1009.89	226.56
1010.18	226.38
1010.47	226.44
1010.76	226.45
1011.04	226.47
1011.33	226.44
1011.62	226.44
1011.91	226.53
1012.19	226.60
1012.48	226.58
1012.77	226.54
1013.05	226.80
1013.34	226.77
1013.63	226.72
1013.92	226.80
1014.20	226.77
1014.49	226.79
1014.78	226.84
1015.06	226.70
1015.35	226.66
1015.64	226.77
1015.92	226.81
1016.21	226.85
1016.50	226.72
1016.78	226.76
1017.07	226.77
1017.36	226.66
1017.64	226.58
1017.93	226.64
1018.22	226.58
1018.50	226.59
1018.79	226.61
1019.08	226.34
1019.36	226.43
1019.65	226.37
1019.93	226.49
1020.22	226.47
1020.51	226.68
1020.79	226.53
1021.08	225.80
1021.36	225.70
1021.65	227.45
1021.94	225.80
1022.22	227.75
1022.51	225.15
1022.79	228.70
1023.08	226.20
1023.36	231.60
1023.65	224.05
>>>>>End Processed Spectral Data<<<<<
