SpectraSuite Data File
++++++++++++++++++++++++++++++++++++
Date: Wed Sep 04 17:48:34 EDT 2013
User: lab3
Dark Spectrum Present: Yes
Reference Spectrum Present: No
Number of Sampled Component Spectra: 1
Spectrometers: USB2E7196
Integration Time (usec): 170000 (USB2E7196)
Spectra Averaged: 20 (USB2E7196)
Boxcar Smoothing: 10 (USB2E7196)
Correct for Electrical Dark: No (USB2E7196)
Strobe/Lamp Enabled: No (USB2E7196)
Correct for Detector Non-linearity: No (USB2E7196)
Correct for Stray Light: No (USB2E7196)
Number of Pixels in Processed Spectrum: 2048
>>>>>Begin Processed Spectral Data<<<<<
339.09	0.00
339.48	212.75
339.86	214.55
340.24	214.30
340.63	217.00
341.01	225.85
341.39	220.15
341.78	221.25
342.16	223.50
342.54	223.70
342.93	212.15
343.31	222.82
343.69	223.35
344.07	223.83
344.46	224.42
344.84	224.83
345.22	224.85
345.60	225.10
345.99	225.31
346.37	225.39
346.75	225.49
347.13	225.61
347.52	225.72
347.90	225.83
348.28	225.79
348.66	225.89
349.05	225.76
349.43	225.85
349.81	225.94
350.19	225.94
350.57	226.00
350.96	226.12
351.34	226.25
351.72	226.37
352.10	226.46
352.48	226.43
352.87	226.45
353.25	226.46
353.63	226.54
354.01	226.63
354.39	226.75
354.77	226.83
355.15	226.92
355.54	226.89
355.92	226.85
356.30	227.03
356.68	227.41
357.06	227.52
357.44	227.49
357.82	227.59
358.20	228.18
358.58	228.18
358.97	228.24
359.35	228.37
359.73	228.50
360.11	228.52
360.49	228.61
360.87	228.65
361.25	228.75
361.63	228.97
362.01	228.99
362.39	229.03
362.77	229.03
363.15	229.05
363.53	229.10
363.91	229.18
364.29	229.03
364.67	228.60
365.05	228.65
365.43	228.73
365.81	228.80
366.19	228.62
366.57	228.87
366.95	228.96
367.33	228.87
367.71	228.95
368.09	229.07
368.47	229.05
368.85	229.05
369.23	229.14
369.61	228.91
369.99	229.07
370.37	229.10
370.75	229.41
371.13	229.32
371.51	229.27
371.89	229.31
372.27	229.40
372.65	229.46
373.03	229.44
373.41	229.34
373.78	229.29
374.16	228.97
374.54	228.77
374.92	228.56
375.30	228.50
375.68	228.38
376.06	228.30
376.44	228.27
376.82	228.31
377.19	228.27
377.57	228.26
377.95	228.03
378.33	227.88
378.71	227.49
379.09	227.50
379.47	227.52
379.84	227.40
380.22	227.36
380.60	227.22
380.98	227.06
381.36	227.09
381.73	226.93
382.11	226.98
382.49	226.96
382.87	226.89
383.25	226.89
383.62	227.38
384.00	227.25
384.38	227.26
384.76	227.30
385.13	227.45
385.51	227.33
385.89	227.24
386.27	227.26
386.64	227.25
387.02	227.16
387.40	227.06
387.78	227.02
388.15	227.00
388.53	226.91
388.91	226.93
389.29	226.82
389.66	226.91
390.04	226.78
390.42	226.76
390.79	226.80
391.17	226.72
391.55	226.14
391.92	226.16
392.30	226.17
392.68	226.03
393.05	225.95
393.43	225.99
393.81	226.05
394.18	225.97
394.56	226.00
394.94	226.09
395.31	226.14
395.69	226.30
396.06	226.35
396.44	226.46
396.82	226.47
397.19	226.76
397.57	226.72
397.95	226.92
398.32	226.91
398.70	227.03
399.07	227.27
399.45	227.25
399.82	227.37
400.20	227.41
400.58	227.52
400.95	227.42
401.33	227.64
401.70	228.07
402.08	228.24
402.45	228.36
402.83	228.63
403.20	228.75
403.58	228.84
403.95	229.05
404.33	229.33
404.71	229.57
405.08	229.99
405.46	230.27
405.83	230.44
406.21	230.70
406.58	230.96
406.96	231.11
407.33	231.54
407.70	231.89
408.08	232.61
408.45	233.09
408.83	233.51
409.20	233.81
409.58	233.95
409.95	234.41
410.33	234.93
410.70	235.26
411.08	235.86
411.45	236.51
411.82	237.07
412.20	237.71
412.57	238.73
412.95	239.08
413.32	239.91
413.69	240.78
414.07	241.74
414.44	242.70
414.82	243.75
415.19	244.97
415.56	246.07
415.94	247.12
416.31	248.50
416.68	249.92
417.06	251.61
417.43	253.18
417.81	254.99
418.18	256.84
418.55	258.83
418.93	260.85
419.30	262.88
419.67	265.17
420.04	267.42
420.42	269.62
420.79	272.64
421.16	275.40
421.54	278.42
421.91	281.39
422.28	284.44
422.66	287.71
423.03	291.01
423.40	294.25
423.77	297.67
424.15	301.11
424.52	304.84
424.89	308.92
425.26	312.92
425.64	316.68
426.01	320.87
426.38	325.13
426.75	329.62
427.13	334.17
427.50	338.98
427.87	343.88
428.24	348.81
428.61	353.25
428.99	358.45
429.36	363.78
429.73	369.25
430.10	374.75
430.47	380.34
430.85	385.93
431.22	392.26
431.59	398.89
431.96	405.11
432.33	412.03
432.70	418.65
433.08	426.42
433.45	433.77
433.82	440.99
434.19	449.10
434.56	457.15
434.93	464.70
435.30	472.19
435.68	480.57
436.05	488.97
436.42	497.21
436.79	504.82
437.16	513.10
437.53	521.71
437.90	530.20
438.27	538.69
438.64	547.49
439.01	555.42
439.38	562.58
439.75	569.67
440.13	577.48
440.50	584.94
440.87	590.86
441.24	597.12
441.61	604.03
441.98	609.12
442.35	614.83
442.72	620.80
443.09	626.61
443.46	629.98
443.83	632.14
444.20	634.19
444.57	636.87
444.94	637.86
445.31	639.04
445.68	640.56
446.05	640.79
446.42	639.61
446.79	638.42
447.16	636.96
447.53	635.71
447.90	632.19
448.27	628.70
448.64	624.03
449.01	620.61
449.37	614.54
449.74	608.53
450.11	601.79
450.48	594.05
450.85	586.12
451.22	579.39
451.59	572.97
451.96	566.63
452.33	558.62
452.70	551.49
453.07	542.80
453.43	533.66
453.80	525.30
454.17	517.26
454.54	509.56
454.91	501.41
455.28	493.55
455.65	486.09
456.02	479.19
456.38	472.84
456.75	464.92
457.12	458.53
457.49	452.35
457.86	445.98
458.23	441.02
458.59	435.38
458.96	429.71
459.33	424.47
459.70	419.47
460.07	415.41
460.43	410.74
460.80	406.62
461.17	402.97
461.54	398.98
461.91	395.16
462.27	391.39
462.64	388.12
463.01	384.60
463.38	381.36
463.74	377.34
464.11	374.32
464.48	371.78
464.85	368.90
465.21	366.79
465.58	364.52
465.95	361.61
466.32	359.43
466.68	357.27
467.05	355.08
467.42	352.83
467.78	350.51
468.15	348.36
468.52	346.82
468.88	344.56
469.25	342.72
469.62	341.36
469.98	339.71
470.35	338.21
470.72	336.77
471.08	335.08
471.45	333.85
471.82	332.66
472.18	331.10
472.55	330.08
472.92	328.72
473.28	327.58
473.65	326.52
474.02	325.46
474.38	324.59
474.75	323.90
475.11	322.98
475.48	322.40
475.85	321.83
476.21	321.12
476.58	320.73
476.94	320.28
477.31	319.78
477.67	319.35
478.04	319.12
478.41	318.88
478.77	319.20
479.14	318.97
479.50	318.84
479.87	318.90
480.23	318.89
480.60	318.84
480.96	318.79
481.33	319.19
481.69	319.35
482.06	319.64
482.42	319.84
482.79	320.30
483.15	320.77
483.52	321.35
483.88	321.82
484.25	322.37
484.61	323.20
484.98	323.89
485.34	324.88
485.71	325.66
486.07	326.55
486.44	327.07
486.80	328.12
487.17	329.16
487.53	330.53
487.90	332.01
488.26	333.74
488.62	335.56
488.99	336.98
489.35	338.82
489.72	340.60
490.08	342.64
490.44	344.67
490.81	346.90
491.17	349.09
491.54	351.53
491.90	354.07
492.26	356.66
492.63	359.38
492.99	362.17
493.36	365.23
493.72	368.63
494.08	372.15
494.45	375.77
494.81	379.69
495.17	383.59
495.54	387.70
495.90	391.82
496.26	396.17
496.63	400.90
496.99	405.62
497.35	410.74
497.72	415.96
498.08	421.43
498.44	427.02
498.80	433.22
499.17	439.21
499.53	445.40
499.89	452.08
500.26	458.91
500.62	465.91
500.98	473.44
501.34	480.83
501.71	488.60
502.07	496.33
502.43	504.46
502.79	512.81
503.16	521.56
503.52	530.59
503.88	539.79
504.24	549.33
504.60	559.30
504.97	569.41
505.33	579.89
505.69	590.96
506.05	601.84
506.41	612.86
506.78	624.40
507.14	636.42
507.50	648.55
507.86	661.09
508.22	674.10
508.59	686.90
508.95	700.44
509.31	714.46
509.67	728.69
510.03	742.83
510.39	757.60
510.75	772.32
511.12	787.44
511.48	802.95
511.84	818.73
512.20	834.77
512.56	850.97
512.92	867.55
513.28	884.12
513.64	901.38
514.00	918.92
514.37	936.55
514.73	954.58
515.09	972.66
515.45	990.88
515.81	1009.07
516.17	1027.74
516.53	1046.22
516.89	1064.50
517.25	1083.64
517.61	1103.65
517.97	1123.54
518.33	1143.72
518.69	1163.73
519.05	1183.96
519.41	1204.40
519.77	1225.12
520.13	1245.74
520.49	1266.19
520.85	1288.18
521.21	1309.17
521.57	1330.24
521.93	1350.82
522.29	1371.80
522.65	1392.37
523.01	1413.08
523.37	1433.68
523.73	1454.58
524.09	1475.06
524.45	1495.74
524.81	1516.34
525.17	1536.75
525.53	1557.11
525.89	1577.18
526.25	1597.80
526.61	1617.99
526.97	1638.48
527.33	1659.27
527.68	1680.73
528.04	1701.75
528.40	1721.23
528.76	1741.83
529.12	1761.66
529.48	1782.29
529.84	1801.90
530.20	1822.85
530.56	1843.31
530.91	1864.11
531.27	1884.10
531.63	1904.13
531.99	1924.37
532.35	1944.23
532.71	1964.29
533.07	1984.49
533.42	2004.34
533.78	2023.75
534.14	2043.52
534.50	2062.33
534.86	2081.42
535.21	2098.74
535.57	2117.00
535.93	2134.38
536.29	2151.71
536.65	2169.56
537.00	2186.64
537.36	2203.87
537.72	2219.73
538.08	2236.69
538.44	2252.85
538.79	2269.06
539.15	2285.65
539.51	2301.12
539.87	2316.38
540.22	2329.79
540.58	2344.06
540.94	2356.97
541.29	2369.27
541.65	2381.30
542.01	2393.64
542.37	2403.60
542.72	2414.26
543.08	2424.51
543.44	2435.96
543.79	2445.65
544.15	2455.38
544.51	2465.17
544.87	2474.41
545.22	2482.80
545.58	2490.25
545.94	2496.99
546.29	2503.19
546.65	2509.17
547.01	2514.88
547.36	2520.00
547.72	2525.59
548.07	2529.03
548.43	2534.05
548.79	2538.87
549.14	2542.84
549.50	2546.28
549.86	2549.94
550.21	2553.27
550.57	2556.51
550.92	2557.84
551.28	2559.21
551.64	2561.14
551.99	2562.79
552.35	2564.56
552.70	2566.68
553.06	2568.08
553.41	2569.23
553.77	2570.81
554.13	2572.30
554.48	2573.57
554.84	2574.48
555.19	2575.27
555.55	2576.89
555.90	2576.06
556.26	2575.07
556.61	2573.33
556.97	2571.16
557.32	2570.28
557.68	2568.94
558.03	2567.21
558.39	2565.43
558.74	2564.39
559.10	2561.09
559.45	2557.25
559.81	2552.50
560.16	2547.14
560.52	2542.10
560.87	2537.30
561.23	2531.65
561.58	2525.61
561.94	2518.36
562.29	2510.81
562.64	2503.93
563.00	2495.63
563.35	2488.97
563.71	2482.29
564.06	2476.19
564.42	2469.67
564.77	2462.92
565.12	2455.48
565.48	2447.72
565.83	2439.61
566.19	2431.44
566.54	2423.43
566.89	2415.63
567.25	2408.12
567.60	2400.68
567.96	2393.33
568.31	2385.68
568.66	2377.17
569.02	2368.00
569.37	2360.07
569.72	2352.80
570.08	2343.58
570.43	2334.14
570.78	2325.31
571.14	2315.81
571.49	2305.35
571.84	2295.95
572.20	2285.17
572.55	2275.36
572.90	2264.58
573.26	2254.51
573.61	2243.52
573.96	2232.56
574.31	2220.89
574.67	2209.01
575.02	2196.44
575.37	2183.50
575.72	2170.37
576.08	2158.32
576.43	2146.06
576.78	2133.07
577.13	2119.47
577.49	2106.87
577.84	2095.37
578.19	2083.31
578.54	2070.63
578.90	2059.13
579.25	2046.64
579.60	2034.30
579.95	2021.36
580.30	2008.47
580.66	1995.10
581.01	1981.60
581.36	1967.84
581.71	1955.14
582.06	1942.26
582.42	1930.16
582.77	1917.80
583.12	1905.92
583.47	1893.84
583.82	1881.97
584.17	1870.34
584.53	1858.73
584.88	1845.91
585.23	1832.50
585.58	1818.71
585.93	1805.73
586.28	1792.52
586.63	1779.00
586.98	1765.00
587.34	1752.01
587.69	1738.98
588.04	1726.75
588.39	1715.06
588.74	1703.39
589.09	1691.50
589.44	1679.11
589.79	1667.36
590.14	1655.67
590.49	1643.80
590.84	1632.00
591.19	1619.88
591.54	1607.70
591.89	1595.68
592.25	1585.61
592.60	1574.49
592.95	1563.30
593.30	1551.81
593.65	1540.03
594.00	1528.23
594.35	1519.00
594.70	1507.30
595.05	1496.10
595.40	1484.22
595.75	1472.35
596.10	1461.02
596.45	1449.77
596.80	1439.07
597.15	1427.60
597.50	1415.94
597.85	1404.72
598.19	1393.04
598.54	1381.70
598.89	1370.55
599.24	1360.28
599.59	1349.01
599.94	1338.56
600.29	1328.40
600.64	1318.12
600.99	1307.51
601.34	1298.01
601.69	1286.65
602.04	1277.13
602.39	1267.62
602.74	1258.69
603.08	1249.69
603.43	1240.68
603.78	1231.29
604.13	1222.10
604.48	1212.50
604.83	1202.93
605.18	1193.25
605.53	1184.17
605.87	1175.19
606.22	1166.96
606.57	1157.87
606.92	1148.56
607.27	1139.76
607.62	1131.00
607.96	1122.76
608.31	1115.14
608.66	1106.95
609.01	1098.68
609.36	1090.02
609.70	1081.70
610.05	1073.23
610.40	1064.90
610.75	1056.41
611.10	1048.09
611.44	1039.45
611.79	1031.72
612.14	1024.10
612.49	1016.65
612.83	1009.12
613.18	1001.46
613.53	993.65
613.88	985.67
614.22	978.16
614.57	970.25
614.92	962.46
615.27	955.07
615.61	947.37
615.96	939.99
616.31	932.60
616.65	925.87
617.00	918.63
617.35	911.61
617.70	904.47
618.04	897.46
618.39	890.50
618.74	884.33
619.08	877.59
619.43	870.62
619.78	863.66
620.12	856.74
620.47	850.06
620.82	843.06
621.16	836.51
621.51	830.32
621.85	824.19
622.20	817.72
622.55	811.13
622.89	804.91
623.24	798.67
623.59	792.47
623.93	786.30
624.28	780.20
624.62	774.59
624.97	769.21
625.32	763.56
625.66	757.94
626.01	751.75
626.35	746.12
626.70	740.85
627.04	735.54
627.39	730.19
627.73	725.00
628.08	719.91
628.43	714.59
628.77	709.20
629.12	704.13
629.46	699.53
629.81	694.89
630.15	690.16
630.50	685.34
630.84	680.67
631.19	675.82
631.53	671.45
631.88	666.23
632.22	661.27
632.57	656.90
632.91	652.31
633.26	648.03
633.60	643.51
633.95	639.02
634.29	634.59
634.64	630.20
634.98	625.58
635.32	621.49
635.67	617.53
636.01	613.45
636.36	609.17
636.70	605.07
637.05	600.88
637.39	596.85
637.73	592.92
638.08	589.05
638.42	585.00
638.77	580.71
639.11	576.62
639.45	572.45
639.80	568.18
640.14	564.14
640.49	560.25
640.83	556.63
641.17	553.09
641.52	549.46
641.86	545.97
642.20	542.89
642.55	539.17
642.89	535.57
643.23	532.06
643.58	529.09
643.92	525.50
644.26	522.18
644.61	518.96
644.95	515.55
645.29	512.19
645.64	509.15
645.98	506.09
646.32	503.27
646.66	500.18
647.01	497.29
647.35	494.65
647.69	491.80
648.04	488.94
648.38	486.05
648.72	483.22
649.06	480.23
649.41	477.22
649.75	474.41
650.09	471.63
650.43	468.85
650.78	465.85
651.12	463.10
651.46	460.38
651.80	457.59
652.14	454.97
652.49	452.37
652.83	449.81
653.17	447.33
653.51	444.57
653.85	442.30
654.20	439.90
654.54	437.37
654.88	434.94
655.22	432.78
655.56	430.42
655.90	428.18
656.25	425.90
656.59	423.74
656.93	421.47
657.27	419.47
657.61	417.16
657.95	414.90
658.29	412.63
658.64	410.70
658.98	408.52
659.32	406.23
659.66	404.18
660.00	402.05
660.34	400.04
660.68	398.10
661.02	396.06
661.36	393.98
661.70	391.92
662.05	389.92
662.39	387.98
662.73	386.24
663.07	384.54
663.41	382.80
663.75	380.75
664.09	378.97
664.43	376.97
664.77	375.30
665.11	373.58
665.45	372.09
665.79	370.35
666.13	368.67
666.47	367.19
666.81	365.61
667.15	363.98
667.49	362.46
667.83	361.12
668.17	359.63
668.51	358.26
668.85	357.02
669.19	355.94
669.53	354.40
669.87	352.84
670.21	351.27
670.55	349.88
670.89	348.90
671.23	347.69
671.57	346.40
671.91	345.09
672.25	343.80
672.58	342.59
672.92	341.23
673.26	340.03
673.60	338.76
673.94	337.49
674.28	336.43
674.62	335.25
674.96	334.02
675.30	332.87
675.64	331.67
675.97	330.40
676.31	329.00
676.65	327.79
676.99	326.94
677.33	325.78
677.67	324.73
678.01	323.40
678.34	322.33
678.68	321.40
679.02	320.45
679.36	319.45
679.70	318.42
680.04	317.51
680.37	316.55
680.71	315.60
681.05	314.76
681.39	313.81
681.73	312.86
682.06	312.00
682.40	311.14
682.74	310.30
683.08	309.63
683.42	308.78
683.75	308.02
684.09	307.00
684.43	306.23
684.77	305.33
685.10	304.55
685.44	303.81
685.78	302.95
686.12	302.06
686.45	301.35
686.79	300.55
687.13	299.92
687.46	299.17
687.80	298.54
688.14	297.68
688.48	297.00
688.81	296.32
689.15	295.66
689.49	295.04
689.82	294.33
690.16	293.38
690.50	292.73
690.83	292.04
691.17	291.31
691.51	290.69
691.84	290.17
692.18	289.45
692.52	288.74
692.85	288.13
693.19	287.78
693.52	287.05
693.86	286.40
694.20	285.60
694.53	285.04
694.87	284.30
695.21	283.69
695.54	283.04
695.88	282.38
696.21	281.60
696.55	280.91
696.88	280.39
697.22	279.82
697.56	279.27
697.89	278.70
698.23	278.26
698.56	277.61
698.90	277.06
699.23	276.60
699.57	276.07
699.90	275.50
700.24	274.75
700.58	274.35
700.91	273.93
701.25	273.95
701.58	273.80
701.92	273.57
702.25	273.17
702.59	272.67
702.92	272.25
703.26	271.88
703.59	271.45
703.93	271.36
704.26	271.03
704.60	270.70
704.93	270.20
705.26	269.76
705.60	269.42
705.93	268.86
706.27	268.55
706.60	268.24
706.94	268.04
707.27	267.62
707.61	267.32
707.94	266.90
708.27	266.08
708.61	265.33
708.94	264.79
709.28	264.38
709.61	264.00
709.94	263.60
710.28	263.18
710.61	262.80
710.95	262.04
711.28	261.97
711.61	261.56
711.95	261.30
712.28	260.85
712.61	260.49
712.95	260.51
713.28	260.32
713.61	259.90
713.95	259.49
714.28	259.26
714.61	258.83
714.95	258.44
715.28	258.06
715.61	257.70
715.95	257.41
716.28	257.10
716.61	256.83
716.95	256.52
717.28	256.24
717.61	255.94
717.94	255.53
718.28	254.88
718.61	254.55
718.94	254.23
719.27	254.02
719.61	253.83
719.94	253.34
720.27	252.87
720.60	252.64
720.94	252.31
721.27	252.03
721.60	251.92
721.93	251.69
722.27	251.66
722.60	251.51
722.93	251.28
723.26	251.01
723.59	250.76
723.93	250.67
724.26	250.55
724.59	250.34
724.92	250.26
725.25	250.25
725.59	250.04
725.92	249.91
726.25	249.70
726.58	249.51
726.91	249.32
727.24	249.22
727.57	248.97
727.91	248.74
728.24	248.62
728.57	248.33
728.90	248.24
729.23	247.86
729.56	247.99
729.89	247.83
730.22	247.71
730.55	247.52
730.89	247.34
731.22	247.19
731.55	246.99
731.88	246.78
732.21	246.60
732.54	246.39
732.87	246.22
733.20	246.06
733.53	245.85
733.86	245.71
734.19	245.52
734.52	245.46
734.85	245.67
735.18	245.43
735.51	245.40
735.84	245.29
736.17	245.34
736.50	244.85
736.83	245.24
737.16	245.15
737.49	245.06
737.82	244.82
738.15	244.66
738.48	244.55
738.81	244.39
739.14	244.11
739.47	243.95
739.80	243.82
740.13	243.72
740.46	243.51
740.79	243.30
741.12	243.06
741.45	242.78
741.78	242.40
742.11	242.40
742.44	242.19
742.77	242.06
743.10	241.73
743.43	241.69
743.75	241.08
744.08	241.49
744.41	241.44
744.74	241.27
745.07	241.06
745.40	241.00
745.73	241.12
746.06	241.01
746.39	240.95
746.71	240.72
747.04	240.52
747.37	240.38
747.70	240.39
748.03	240.35
748.36	240.34
748.68	240.21
749.01	239.94
749.34	239.81
749.67	239.69
750.00	239.73
750.33	239.88
750.65	239.84
750.98	239.15
751.31	238.91
751.64	238.88
751.97	238.99
752.29	238.83
752.62	238.48
752.95	238.39
753.28	238.14
753.60	238.05
753.93	238.08
754.26	238.03
754.59	237.76
754.91	237.55
755.24	237.34
755.57	237.22
755.90	237.17
756.22	237.00
756.55	236.81
756.88	236.62
757.20	236.24
757.53	235.92
757.86	235.79
758.19	235.79
758.51	235.66
758.84	235.38
759.17	235.27
759.49	235.15
759.82	235.22
760.15	235.22
760.47	235.09
760.80	234.84
761.13	234.81
761.45	234.71
761.78	234.69
762.11	234.63
762.43	234.45
762.76	234.35
763.08	234.31
763.41	234.31
763.74	234.22
764.06	234.13
764.39	234.12
764.71	234.06
765.04	233.86
765.37	233.74
765.69	233.65
766.02	233.55
766.34	233.50
766.67	233.22
767.00	233.20
767.32	233.42
767.65	233.70
767.97	233.53
768.30	233.46
768.62	233.37
768.95	233.30
769.27	233.24
769.60	233.24
769.92	233.14
770.25	233.05
770.57	232.88
770.90	232.78
771.22	232.65
771.55	232.59
771.87	232.62
772.20	232.56
772.52	232.91
772.85	233.40
773.17	233.38
773.50	233.34
773.82	233.30
774.15	233.00
774.47	232.63
774.80	232.57
775.12	232.56
775.45	232.48
775.77	232.45
776.09	232.42
776.42	232.28
776.74	232.37
777.07	232.24
777.39	232.29
777.72	232.19
778.04	232.24
778.36	232.15
778.69	232.13
779.01	232.14
779.33	231.63
779.66	231.00
779.98	230.88
780.31	230.86
780.63	230.94
780.95	231.04
781.28	231.01
781.60	230.87
781.92	230.83
782.25	230.72
782.57	230.70
782.89	230.65
783.22	230.63
783.54	230.54
783.86	230.51
784.19	230.37
784.51	230.54
784.83	230.40
785.16	230.36
785.48	230.32
785.80	230.29
786.12	230.33
786.45	230.34
786.77	230.38
787.09	230.37
787.42	230.20
787.74	230.21
788.06	230.20
788.38	230.21
788.71	230.18
789.03	230.25
789.35	230.26
789.67	230.19
789.99	230.21
790.32	230.10
790.64	230.11
790.96	230.46
791.28	230.25
791.61	230.30
791.93	230.26
792.25	230.23
792.57	230.48
792.89	230.31
793.21	230.37
793.54	230.28
793.86	230.19
794.18	230.22
794.50	230.02
794.82	230.01
795.14	230.06
795.47	230.07
795.79	230.09
796.11	229.98
796.43	229.89
796.75	229.84
797.07	229.80
797.39	229.80
797.71	229.50
798.04	229.47
798.36	229.45
798.68	229.41
799.00	229.39
799.32	229.20
799.64	229.29
799.96	229.23
800.28	229.34
800.60	229.30
800.92	229.28
801.24	229.22
801.56	229.22
801.89	229.17
802.21	229.22
802.53	229.09
802.85	229.20
803.17	229.47
803.49	229.36
803.81	229.34
804.13	229.30
804.45	229.18
804.77	229.19
805.09	229.11
805.41	229.06
805.73	228.96
806.05	228.80
806.37	228.85
806.69	228.76
807.01	228.69
807.33	228.71
807.65	228.54
807.97	228.76
808.28	228.63
808.60	228.56
808.92	228.42
809.24	228.70
809.56	228.61
809.88	228.45
810.20	228.43
810.52	228.50
810.84	228.38
811.16	228.37
811.48	228.38
811.80	228.59
812.12	228.56
812.43	228.70
812.75	228.67
813.07	228.58
813.39	228.61
813.71	228.49
814.03	228.36
814.35	228.42
814.67	228.18
814.98	228.20
815.30	228.24
815.62	228.23
815.94	227.87
816.26	228.03
816.58	227.88
816.89	227.95
817.21	227.88
817.53	227.93
817.85	227.96
818.17	227.88
818.48	227.60
818.80	227.71
819.12	227.52
819.44	227.49
819.76	227.42
820.07	227.48
820.39	227.50
820.71	227.62
821.03	227.59
821.34	227.62
821.66	227.71
821.98	227.75
822.30	227.74
822.61	228.10
822.93	227.91
823.25	227.94
823.57	227.85
823.88	227.97
824.20	227.96
824.52	227.98
824.83	227.99
825.15	228.04
825.47	227.99
825.79	228.10
826.10	228.04
826.42	228.04
826.74	228.01
827.05	228.00
827.37	228.03
827.69	228.01
828.00	228.02
828.32	228.00
828.64	227.96
828.95	228.17
829.27	228.03
829.58	228.00
829.90	228.08
830.22	228.16
830.53	227.95
830.85	227.85
831.17	227.77
831.48	227.75
831.80	227.75
832.11	227.76
832.43	227.67
832.75	227.70
833.06	227.97
833.38	227.86
833.69	227.92
834.01	227.85
834.32	227.82
834.64	227.82
834.96	227.75
835.27	227.71
835.59	227.53
835.90	227.47
836.22	227.45
836.53	227.37
836.85	227.28
837.16	227.79
837.48	227.78
837.79	227.92
838.11	227.99
838.42	227.98
838.74	227.98
839.05	227.93
839.37	227.88
839.68	227.55
840.00	227.55
840.31	227.52
840.63	227.48
840.94	227.37
841.26	227.24
841.57	227.23
841.88	227.30
842.20	227.26
842.51	227.12
842.83	227.17
843.14	227.55
843.46	227.60
843.77	227.34
844.08	227.38
844.40	227.23
844.71	227.18
845.03	227.17
845.34	227.17
845.65	227.17
845.97	227.12
846.28	227.18
846.60	227.15
846.91	227.14
847.22	227.14
847.54	227.27
847.85	227.35
848.16	227.27
848.48	227.14
848.79	227.35
849.10	227.46
849.42	227.52
849.73	227.05
850.04	227.00
850.36	226.79
850.67	226.86
850.98	226.93
851.30	226.96
851.61	226.89
851.92	226.85
852.23	226.98
852.55	227.05
852.86	227.10
853.17	227.20
853.49	227.29
853.80	227.36
854.11	227.43
854.42	227.41
854.74	227.41
855.05	227.45
855.36	227.16
855.67	227.14
855.99	227.06
856.30	227.73
856.61	227.65
856.92	227.72
857.23	227.69
857.55	227.55
857.86	227.44
858.17	227.55
858.48	227.50
858.79	227.45
859.11	227.50
859.42	227.40
859.73	227.30
860.04	227.25
860.35	227.09
860.66	226.87
860.98	226.89
861.29	227.02
861.60	227.01
861.91	227.15
862.22	227.07
862.53	227.00
862.84	226.38
863.16	226.62
863.47	226.48
863.78	226.44
864.09	226.49
864.40	226.56
864.71	226.52
865.02	226.56
865.33	226.44
865.64	226.37
865.95	226.40
866.27	226.73
866.58	226.55
866.89	226.61
867.20	226.65
867.51	226.56
867.82	226.42
868.13	226.52
868.44	226.37
868.75	226.44
869.06	226.46
869.37	226.51
869.68	226.24
869.99	226.35
870.30	226.35
870.61	226.44
870.92	226.39
871.23	226.33
871.54	226.36
871.85	226.43
872.16	226.46
872.47	226.39
872.78	226.04
873.09	226.19
873.40	226.11
873.71	226.06
874.02	226.05
874.33	226.07
874.64	225.99
874.95	226.09
875.26	225.99
875.56	225.96
875.87	225.94
876.18	225.99
876.49	226.43
876.80	226.31
877.11	226.16
877.42	226.19
877.73	226.21
878.04	226.15
878.35	226.19
878.66	226.19
878.96	226.16
879.27	226.15
879.58	226.12
879.89	226.15
880.20	226.35
880.51	226.39
880.82	226.34
881.12	226.37
881.43	226.16
881.74	226.06
882.05	225.99
882.36	226.00
882.67	226.09
882.97	225.57
883.28	225.59
883.59	225.65
883.90	225.70
884.21	225.73
884.51	225.67
884.82	225.55
885.13	225.50
885.44	225.56
885.74	225.62
886.05	225.54
886.36	225.48
886.67	225.29
886.98	225.49
887.28	225.56
887.59	225.57
887.90	225.63
888.20	225.66
888.51	225.90
888.82	225.81
889.13	225.79
889.43	226.23
889.74	226.22
890.05	226.17
890.35	226.10
890.66	226.07
890.97	226.09
891.28	226.11
891.58	226.24
891.89	226.28
892.20	226.24
892.50	226.25
892.81	226.33
893.12	226.37
893.42	226.14
893.73	226.14
894.04	226.12
894.34	226.24
894.65	226.23
894.95	226.10
895.26	226.14
895.57	226.40
895.87	225.94
896.18	226.11
896.48	226.17
896.79	226.21
897.10	226.39
897.40	226.42
897.71	226.54
898.01	226.44
898.32	226.48
898.63	226.48
898.93	226.59
899.24	226.61
899.54	226.64
899.85	226.69
900.15	226.66
900.46	226.67
900.76	226.75
901.07	226.77
901.38	226.80
901.68	226.95
901.99	226.65
902.29	226.72
902.60	226.65
902.90	226.64
903.21	226.59
903.51	226.45
903.82	226.57
904.12	226.57
904.43	226.63
904.73	226.55
905.03	226.62
905.34	227.05
905.64	227.02
905.95	227.02
906.25	227.03
906.56	227.04
906.86	227.00
907.17	226.95
907.47	226.95
907.77	226.86
908.08	226.62
908.38	226.64
908.69	226.59
908.99	226.66
909.30	226.70
909.60	226.75
909.90	226.80
910.21	226.64
910.51	226.49
910.81	226.59
911.12	226.63
911.42	226.59
911.73	226.11
912.03	226.14
912.33	226.22
912.64	226.19
912.94	226.23
913.24	226.13
913.55	226.10
913.85	226.13
914.15	226.19
914.46	226.30
914.76	226.29
915.06	226.33
915.37	226.26
915.67	226.21
915.97	226.16
916.27	226.06
916.58	226.13
916.88	226.15
917.18	225.96
917.49	226.30
917.79	226.30
918.09	226.29
918.39	226.42
918.70	226.41
919.00	226.45
919.30	226.64
919.60	226.68
919.91	226.60
920.21	226.64
920.51	226.62
920.81	226.65
921.12	226.75
921.42	226.77
921.72	226.72
922.02	226.76
922.32	226.86
922.63	226.82
922.93	227.08
923.23	227.08
923.53	227.06
923.83	226.70
924.13	226.70
924.44	226.70
924.74	226.72
925.04	226.81
925.34	226.70
925.64	226.48
925.94	226.47
926.24	226.65
926.55	226.60
926.85	226.64
927.15	226.64
927.45	226.64
927.75	226.67
928.05	226.69
928.35	226.62
928.65	226.69
928.95	226.76
929.26	226.54
929.56	226.65
929.86	226.66
930.16	226.66
930.46	226.61
930.76	226.66
931.06	226.43
931.36	226.34
931.66	226.47
931.96	226.52
932.26	226.59
932.56	226.45
932.86	226.51
933.16	226.51
933.46	226.41
933.76	226.32
934.06	226.35
934.36	226.52
934.66	226.52
934.96	226.47
935.26	226.51
935.56	226.60
935.86	226.49
936.16	226.50
936.46	226.43
936.76	226.50
937.06	226.43
937.36	226.55
937.66	226.45
937.96	226.46
938.26	226.43
938.56	226.42
938.86	226.43
939.16	226.54
939.46	226.59
939.76	226.67
940.06	226.67
940.35	226.66
940.65	226.44
940.95	226.50
941.25	226.40
941.55	226.34
941.85	226.27
942.15	226.40
942.45	226.56
942.75	226.56
943.04	226.57
943.34	226.68
943.64	226.61
943.94	226.59
944.24	226.55
944.54	226.52
944.84	226.52
945.13	226.51
945.43	226.38
945.73	226.35
946.03	226.27
946.33	226.22
946.62	226.11
946.92	226.11
947.22	226.19
947.52	226.17
947.82	226.21
948.11	226.18
948.41	226.05
948.71	225.85
949.01	225.96
949.31	225.95
949.60	225.88
949.90	225.95
950.20	225.89
950.50	225.92
950.79	225.88
951.09	225.97
951.39	225.99
951.69	225.97
951.98	226.03
952.28	226.12
952.58	226.11
952.87	226.09
953.17	226.17
953.47	226.10
953.76	226.20
954.06	226.06
954.36	226.03
954.66	226.00
954.95	226.17
955.25	226.09
955.55	226.13
955.84	226.06
956.14	226.12
956.44	226.21
956.73	226.16
957.03	226.25
957.32	226.21
957.62	226.21
957.92	226.28
958.21	226.26
958.51	226.80
958.81	226.87
959.10	226.99
959.40	227.09
959.69	227.11
959.99	227.12
960.29	227.18
960.58	227.13
960.88	227.35
961.17	227.26
961.47	227.31
961.76	227.21
962.06	227.34
962.36	227.25
962.65	227.28
962.95	227.25
963.24	227.15
963.54	227.15
963.83	227.12
964.13	227.15
964.42	227.03
964.72	226.55
965.01	226.53
965.31	226.40
965.60	226.30
965.90	226.50
966.19	226.37
966.49	226.40
966.78	226.36
967.08	226.29
967.37	226.31
967.67	226.30
967.96	226.36
968.26	226.36
968.55	226.37
968.85	226.32
969.14	226.32
969.43	226.31
969.73	226.27
970.02	226.24
970.32	226.18
970.61	226.11
970.91	226.11
971.20	226.03
971.49	226.05
971.79	226.04
972.08	225.72
972.38	225.77
972.67	225.72
972.96	225.80
973.26	225.70
973.55	225.87
973.85	225.83
974.14	225.76
974.43	225.79
974.73	225.66
975.02	225.65
975.31	225.61
975.61	225.64
975.90	225.55
976.19	225.51
976.49	225.51
976.78	225.55
977.07	225.48
977.37	225.49
977.66	225.54
977.95	225.50
978.24	225.57
978.54	225.65
978.83	225.60
979.12	225.55
979.42	225.45
979.71	225.35
980.00	225.30
980.29	225.37
980.59	225.22
980.88	225.38
981.17	225.29
981.46	225.31
981.76	225.23
982.05	225.37
982.34	225.42
982.63	225.41
982.93	225.38
983.22	225.51
983.51	225.54
983.80	225.60
984.09	225.65
984.39	225.55
984.68	225.45
984.97	225.50
985.26	225.52
985.55	225.69
985.85	225.62
986.14	225.68
986.43	225.70
986.72	225.69
987.01	225.58
987.30	225.66
987.59	225.62
987.89	225.63
988.18	225.56
988.47	225.58
988.76	225.48
989.05	225.44
989.34	225.35
989.63	225.52
989.92	225.46
990.22	225.40
990.51	225.50
990.80	225.53
991.09	225.57
991.38	225.61
991.67	225.56
991.96	225.46
992.25	225.51
992.54	225.45
992.83	225.45
993.12	225.44
993.41	225.50
993.70	225.75
993.99	225.86
994.28	225.91
994.58	225.92
994.87	225.94
995.16	226.02
995.45	225.97
995.74	225.76
996.03	225.83
996.32	226.02
996.61	226.06
996.90	225.96
997.19	225.96
997.48	225.91
997.77	225.90
998.06	225.97
998.34	225.89
998.63	225.89
998.92	225.91
999.21	226.01
999.50	226.07
999.79	225.90
1000.08	225.97
1000.37	225.94
1000.66	225.86
1000.95	226.01
1001.24	226.05
1001.53	226.09
1001.82	226.08
1002.11	225.96
1002.40	225.87
1002.68	226.11
1002.97	226.53
1003.26	226.50
1003.55	226.51
1003.84	226.56
1004.13	226.74
1004.42	226.83
1004.71	226.88
1004.99	226.95
1005.28	227.01
1005.57	226.92
1005.86	226.83
1006.15	226.72
1006.44	226.70
1006.72	226.81
1007.01	226.69
1007.30	226.63
1007.59	226.65
1007.88	226.68
1008.17	226.73
1008.45	226.63
1008.74	226.26
1009.03	226.04
1009.32	225.99
1009.60	226.01
1009.89	225.89
1010.18	225.64
1010.47	225.52
1010.76	225.48
1011.04	225.39
1011.33	225.35
1011.62	225.41
1011.91	225.46
1012.19	225.42
1012.48	225.41
1012.77	225.32
1013.05	225.57
1013.34	225.56
1013.63	225.50
1013.92	225.49
1014.20	225.37
1014.49	225.42
1014.78	225.54
1015.06	225.33
1015.35	225.33
1015.64	225.29
1015.92	225.40
1016.21	225.41
1016.50	225.38
1016.78	225.44
1017.07	225.44
1017.36	225.33
1017.64	225.22
1017.93	225.27
1018.22	225.28
1018.50	225.23
1018.79	225.24
1019.08	224.99
1019.36	225.01
1019.65	224.89
1019.93	225.03
1020.22	225.16
1020.51	225.33
1020.79	225.26
1021.08	224.80
1021.36	224.20
1021.65	225.10
1021.94	225.30
1022.22	224.85
1022.51	223.00
1022.79	228.10
1023.08	226.05
1023.36	230.10
1023.65	224.60
>>>>>End Processed Spectral Data<<<<<
