SpectraSuite Data File
++++++++++++++++++++++++++++++++++++
Date: Wed Sep 04 17:46:50 EDT 2013
User: lab3
Dark Spectrum Present: Yes
Reference Spectrum Present: No
Number of Sampled Component Spectra: 1
Spectrometers: USB2E7196
Integration Time (usec): 170000 (USB2E7196)
Spectra Averaged: 20 (USB2E7196)
Boxcar Smoothing: 10 (USB2E7196)
Correct for Electrical Dark: No (USB2E7196)
Strobe/Lamp Enabled: No (USB2E7196)
Correct for Detector Non-linearity: No (USB2E7196)
Correct for Stray Light: No (USB2E7196)
Number of Pixels in Processed Spectrum: 2048
>>>>>Begin Processed Spectral Data<<<<<
339.09	0.00
339.48	212.55
339.86	213.60
340.24	215.65
340.63	217.50
341.01	226.60
341.39	219.35
341.78	222.05
342.16	224.85
342.54	223.05
342.93	212.26
343.31	222.95
343.69	223.57
344.07	224.14
344.46	224.65
344.84	225.02
345.22	224.98
345.60	225.27
345.99	225.43
346.37	225.47
346.75	225.55
347.13	225.62
347.52	225.71
347.90	225.92
348.28	225.91
348.66	226.07
349.05	225.93
349.43	225.98
349.81	226.06
350.19	226.05
350.57	226.10
350.96	226.12
351.34	226.20
351.72	226.25
352.10	226.26
352.48	226.26
352.87	226.33
353.25	226.36
353.63	226.43
354.01	226.48
354.39	226.55
354.77	226.66
355.15	226.86
355.54	226.85
355.92	226.82
356.30	226.94
356.68	227.25
357.06	227.26
357.44	227.27
357.82	227.27
358.20	227.70
358.58	227.71
358.97	227.81
359.35	227.95
359.73	228.13
360.11	228.19
360.49	228.29
360.87	228.35
361.25	228.46
361.63	228.66
362.01	228.80
362.39	228.77
362.77	228.80
363.15	228.79
363.53	228.89
363.91	228.92
364.29	228.94
364.67	228.55
365.05	228.71
365.43	228.77
365.81	228.94
366.19	228.83
366.57	229.08
366.95	229.07
367.33	228.97
367.71	228.95
368.09	229.05
368.47	229.07
368.85	229.07
369.23	229.14
369.61	228.96
369.99	229.06
370.37	229.16
370.75	229.38
371.13	229.26
371.51	229.15
371.89	229.20
372.27	229.16
372.65	229.17
373.03	229.11
373.41	229.07
373.78	228.96
374.16	228.69
374.54	228.41
374.92	228.28
375.30	228.27
375.68	228.07
376.06	228.02
376.44	227.84
376.82	227.81
377.19	227.68
377.57	227.58
377.95	227.33
378.33	227.20
378.71	226.81
379.09	226.82
379.47	226.77
379.84	226.63
380.22	226.53
380.60	226.33
380.98	226.23
381.36	226.12
381.73	225.96
382.11	225.94
382.49	225.97
382.87	225.84
383.25	225.76
383.62	226.23
384.00	226.02
384.38	226.03
384.76	226.07
385.13	226.23
385.51	226.23
385.89	226.16
386.27	226.17
386.64	226.23
387.02	226.13
387.40	226.12
387.78	226.08
388.15	226.09
388.53	226.04
388.91	226.01
389.29	225.98
389.66	226.00
390.04	225.95
390.42	225.95
390.79	225.95
391.17	225.93
391.55	225.44
391.92	225.54
392.30	225.58
392.68	225.39
393.05	225.34
393.43	225.38
393.81	225.38
394.18	225.33
394.56	225.34
394.94	225.46
395.31	225.37
395.69	225.54
396.06	225.64
396.44	225.83
396.82	225.83
397.19	226.10
397.57	226.10
397.95	226.24
398.32	226.24
398.70	226.39
399.07	226.56
399.45	226.64
399.82	226.70
400.20	226.74
400.58	226.88
400.95	226.70
401.33	226.92
401.70	227.36
402.08	227.53
402.45	227.67
402.83	227.94
403.20	228.21
403.58	228.32
403.95	228.60
404.33	228.83
404.71	229.07
405.08	229.54
405.46	229.79
405.83	230.06
406.21	230.33
406.58	230.63
406.96	230.90
407.33	231.25
407.70	231.66
408.08	232.43
408.45	232.85
408.83	233.43
409.20	233.74
409.58	233.93
409.95	234.48
410.33	235.09
410.70	235.45
411.08	236.06
411.45	236.64
411.82	237.21
412.20	237.91
412.57	238.93
412.95	239.31
413.32	240.21
413.69	241.08
414.07	241.97
414.44	243.00
414.82	244.03
415.19	245.20
415.56	246.35
415.94	247.26
416.31	248.67
416.68	250.02
417.06	251.60
417.43	253.25
417.81	254.90
418.18	256.71
418.55	258.66
418.93	260.54
419.30	262.63
419.67	264.69
420.04	266.83
420.42	269.05
420.79	272.02
421.16	274.77
421.54	277.65
421.91	280.53
422.28	283.45
422.66	286.65
423.03	290.08
423.40	293.37
423.77	296.89
424.15	300.43
424.52	304.24
424.89	308.40
425.26	312.24
425.64	316.01
426.01	320.08
426.38	324.26
426.75	328.69
427.13	333.21
427.50	337.98
427.87	342.92
428.24	347.74
428.61	352.06
428.99	357.09
429.36	362.41
429.73	367.87
430.10	373.32
430.47	378.91
430.85	384.41
431.22	390.39
431.59	397.05
431.96	403.22
432.33	410.00
432.70	416.44
433.08	424.21
433.45	431.49
433.82	438.59
434.19	446.81
434.56	454.80
434.93	462.35
435.30	469.77
435.68	478.10
436.05	486.45
436.42	494.68
436.79	502.28
437.16	510.51
437.53	519.06
437.90	527.74
438.27	536.17
438.64	544.86
439.01	553.03
439.38	560.06
439.75	567.06
440.13	574.75
440.50	582.26
440.87	588.12
441.24	594.46
441.61	601.53
441.98	606.35
442.35	612.01
442.72	617.95
443.09	623.71
443.46	627.03
443.83	629.16
444.20	631.19
444.57	633.96
444.94	635.13
445.31	636.28
445.68	637.46
446.05	637.71
446.42	636.50
446.79	635.25
447.16	633.65
447.53	632.50
447.90	629.05
448.27	625.33
448.64	620.59
449.01	616.90
449.37	610.83
449.74	605.15
450.11	598.55
450.48	590.82
450.85	583.07
451.22	576.55
451.59	570.10
451.96	563.92
452.33	555.92
452.70	548.68
453.07	540.18
453.43	531.33
453.80	522.89
454.17	515.05
454.54	507.56
454.91	499.54
455.28	491.61
455.65	484.20
456.02	477.53
456.38	471.29
456.75	463.69
457.12	457.16
457.49	450.80
457.86	444.54
458.23	439.64
458.59	434.16
458.96	428.46
459.33	423.47
459.70	418.44
460.07	414.45
460.43	409.80
460.80	405.63
461.17	401.96
461.54	398.15
461.91	394.30
462.27	390.41
462.64	387.20
463.01	383.73
463.38	380.60
463.74	376.73
464.11	373.82
464.48	371.28
464.85	368.49
465.21	366.44
465.58	364.10
465.95	361.27
466.32	358.97
466.68	356.75
467.05	354.55
467.42	352.41
467.78	350.13
468.15	348.08
468.52	346.52
468.88	344.30
469.25	342.48
469.62	341.08
469.98	339.47
470.35	338.06
470.72	336.57
471.08	334.87
471.45	333.60
471.82	332.24
472.18	330.85
472.55	329.85
472.92	328.48
473.28	327.48
473.65	326.32
474.02	325.25
474.38	324.38
474.75	323.68
475.11	322.84
475.48	322.22
475.85	321.66
476.21	320.97
476.58	320.50
476.94	319.97
477.31	319.53
477.67	319.10
478.04	318.73
478.41	318.55
478.77	318.94
479.14	318.63
479.50	318.52
479.87	318.50
480.23	318.52
480.60	318.56
480.96	318.60
481.33	318.92
481.69	319.09
482.06	319.37
482.42	319.54
482.79	319.84
483.15	320.29
483.52	320.80
483.88	321.22
484.25	321.77
484.61	322.57
484.98	323.19
485.34	324.15
485.71	325.11
486.07	326.07
486.44	326.61
486.80	327.76
487.17	329.09
487.53	330.46
487.90	331.92
488.26	333.53
488.62	335.20
488.99	336.77
489.35	338.69
489.72	340.47
490.08	342.60
490.44	344.66
490.81	346.88
491.17	349.12
491.54	351.64
491.90	354.23
492.26	356.80
492.63	359.64
492.99	362.46
493.36	365.45
493.72	368.75
494.08	372.09
494.45	375.75
494.81	379.50
495.17	383.33
495.54	387.41
495.90	391.55
496.26	395.87
496.63	400.55
496.99	405.25
497.35	410.42
497.72	415.56
498.08	420.94
498.44	426.62
498.80	432.60
499.17	438.75
499.53	444.95
499.89	451.52
500.26	458.31
500.62	465.20
500.98	472.47
501.34	479.77
501.71	487.67
502.07	495.39
502.43	503.49
502.79	511.79
503.16	520.47
503.52	529.33
503.88	538.59
504.24	548.15
504.60	558.26
504.97	568.39
505.33	578.75
505.69	589.63
506.05	600.43
506.41	611.50
506.78	622.95
507.14	634.82
507.50	647.11
507.86	659.50
508.22	672.50
508.59	685.53
508.95	699.19
509.31	713.29
509.67	727.47
510.03	741.70
510.39	756.22
510.75	771.05
511.12	786.28
511.48	801.82
511.84	817.17
512.20	832.75
512.56	848.87
512.92	865.48
513.28	882.25
513.64	899.53
514.00	916.82
514.37	934.46
514.73	952.54
515.09	970.35
515.45	988.41
515.81	1006.59
516.17	1025.27
516.53	1043.61
516.89	1061.67
517.25	1080.74
517.61	1100.55
517.97	1120.46
518.33	1140.20
518.69	1160.01
519.05	1180.14
519.41	1200.64
519.77	1221.51
520.13	1241.82
520.49	1262.27
520.85	1284.16
521.21	1304.95
521.57	1325.78
521.93	1346.15
522.29	1366.90
522.65	1387.46
523.01	1408.24
523.37	1428.42
523.73	1449.02
524.09	1469.33
524.45	1489.81
524.81	1510.27
525.17	1530.49
525.53	1550.90
525.89	1571.44
526.25	1591.95
526.61	1611.97
526.97	1632.70
527.33	1653.38
527.68	1674.99
528.04	1695.80
528.40	1715.05
528.76	1735.45
529.12	1755.89
529.48	1776.45
529.84	1796.29
530.20	1816.73
530.56	1837.27
530.91	1857.78
531.27	1877.30
531.63	1897.48
531.99	1917.53
532.35	1937.14
532.71	1956.75
533.07	1977.06
533.42	1996.43
533.78	2015.89
534.14	2035.15
534.50	2053.58
534.86	2072.53
535.21	2089.39
535.57	2107.33
535.93	2124.72
536.29	2141.99
536.65	2159.63
537.00	2176.67
537.36	2193.65
537.72	2209.92
538.08	2226.17
538.44	2242.43
538.79	2258.59
539.15	2274.68
539.51	2290.06
539.87	2304.86
540.22	2318.39
540.58	2331.76
540.94	2344.21
541.29	2356.49
541.65	2368.47
542.01	2380.57
542.37	2390.14
542.72	2400.66
543.08	2410.56
543.44	2421.74
543.79	2431.14
544.15	2440.41
544.51	2449.82
544.87	2458.82
545.22	2467.08
545.58	2474.76
545.94	2481.59
546.29	2487.78
546.65	2493.57
547.01	2499.09
547.36	2504.12
547.72	2509.72
548.07	2513.59
548.43	2518.75
548.79	2523.09
549.14	2526.98
549.50	2530.54
549.86	2534.47
550.21	2537.93
550.57	2541.26
550.92	2542.18
551.28	2543.30
551.64	2545.14
551.99	2546.81
552.35	2548.00
552.70	2549.66
553.06	2550.66
553.41	2551.60
553.77	2553.13
554.13	2554.34
554.48	2555.44
554.84	2556.46
555.19	2557.15
555.55	2558.53
555.90	2557.73
556.26	2556.79
556.61	2555.28
556.97	2552.63
557.32	2551.31
557.68	2549.69
558.03	2547.75
558.39	2546.08
558.74	2545.13
559.10	2541.68
559.45	2537.56
559.81	2532.98
560.16	2527.37
560.52	2521.90
560.87	2517.24
561.23	2511.43
561.58	2505.46
561.94	2498.41
562.29	2491.26
562.64	2484.30
563.00	2475.99
563.35	2469.00
563.71	2462.22
564.06	2455.46
564.42	2449.40
564.77	2443.02
565.12	2435.95
565.48	2428.30
565.83	2420.40
566.19	2411.99
566.54	2404.02
566.89	2396.43
567.25	2389.05
567.60	2382.26
567.96	2375.27
568.31	2367.51
568.66	2359.20
569.02	2350.29
569.37	2342.24
569.72	2334.90
570.08	2325.39
570.43	2315.93
570.78	2307.23
571.14	2297.90
571.49	2287.96
571.84	2278.44
572.20	2267.60
572.55	2257.42
572.90	2246.81
573.26	2236.72
573.61	2226.31
573.96	2215.45
574.31	2203.42
574.67	2191.68
575.02	2179.29
575.37	2166.70
575.72	2153.56
576.08	2141.56
576.43	2129.10
576.78	2115.98
577.13	2102.19
577.49	2089.51
577.84	2078.02
578.19	2066.16
578.54	2053.79
578.90	2042.12
579.25	2029.78
579.60	2017.31
579.95	2004.55
580.30	1991.73
580.66	1978.48
581.01	1965.03
581.36	1951.28
581.71	1939.06
582.06	1926.21
582.42	1914.04
582.77	1901.74
583.12	1889.98
583.47	1877.90
583.82	1866.35
584.17	1854.81
584.53	1843.24
584.88	1830.77
585.23	1817.60
585.58	1803.93
585.93	1790.89
586.28	1777.90
586.63	1764.15
586.98	1750.30
587.34	1737.21
587.69	1724.15
588.04	1712.04
588.39	1700.49
588.74	1688.74
589.09	1676.71
589.44	1664.32
589.79	1652.29
590.14	1640.81
590.49	1628.94
590.84	1617.24
591.19	1605.45
591.54	1593.51
591.89	1581.39
592.25	1571.79
592.60	1560.66
592.95	1549.27
593.30	1537.71
593.65	1526.04
594.00	1514.58
594.35	1505.10
594.70	1493.88
595.05	1482.76
595.40	1470.81
595.75	1458.92
596.10	1447.99
596.45	1436.98
596.80	1426.50
597.15	1415.40
597.50	1403.86
597.85	1392.78
598.19	1381.35
598.54	1369.83
598.89	1359.08
599.24	1348.89
599.59	1337.24
599.94	1326.78
600.29	1316.82
600.64	1306.79
600.99	1296.33
601.34	1286.86
601.69	1275.87
602.04	1266.35
602.39	1257.02
602.74	1248.31
603.08	1239.26
603.43	1230.22
603.78	1220.75
604.13	1211.44
604.48	1202.21
604.83	1192.93
605.18	1183.43
605.53	1174.44
605.87	1165.78
606.22	1157.42
606.57	1148.59
606.92	1139.50
607.27	1130.86
607.62	1122.21
607.96	1114.01
608.31	1106.54
608.66	1098.50
609.01	1090.44
609.36	1082.07
609.70	1073.92
610.05	1065.28
610.40	1057.09
610.75	1048.78
611.10	1040.73
611.44	1032.37
611.79	1024.33
612.14	1016.63
612.49	1009.02
612.83	1001.89
613.18	994.30
613.53	986.72
613.88	979.05
614.22	971.76
614.57	964.09
614.92	956.48
615.27	948.99
615.61	941.25
615.96	933.80
616.31	926.56
616.65	919.79
617.00	912.75
617.35	905.85
617.70	898.79
618.04	891.87
618.39	885.06
618.74	878.82
619.08	872.01
619.43	865.19
619.78	858.39
620.12	851.34
620.47	844.53
620.82	837.49
621.16	830.71
621.51	824.42
621.85	818.35
622.20	811.97
622.55	805.59
622.89	799.47
623.24	793.28
623.59	787.03
623.93	780.80
624.28	774.87
624.62	769.31
624.97	763.90
625.32	758.14
625.66	752.34
626.01	746.49
626.35	741.15
626.70	735.74
627.04	730.73
627.39	725.20
627.73	720.18
628.08	715.18
628.43	710.09
628.77	704.73
629.12	699.65
629.46	695.17
629.81	690.65
630.15	685.88
630.50	681.12
630.84	676.43
631.19	671.85
631.53	667.28
631.88	662.19
632.22	657.33
632.57	653.01
632.91	648.54
633.26	644.32
633.60	639.75
633.95	635.37
634.29	630.80
634.64	626.71
634.98	622.06
635.32	617.81
635.67	613.90
636.01	609.93
636.36	605.65
636.70	601.47
637.05	597.25
637.39	593.42
637.73	589.58
638.08	585.62
638.42	581.48
638.77	577.26
639.11	573.18
639.45	568.95
639.80	564.72
640.14	560.92
640.49	556.86
640.83	553.32
641.17	549.62
641.52	546.03
641.86	542.39
642.20	539.41
642.55	535.98
642.89	532.39
643.23	529.02
643.58	526.00
643.92	522.58
644.26	519.31
644.61	516.06
644.95	512.82
645.29	509.63
645.64	506.52
645.98	503.51
646.32	500.71
646.66	497.75
647.01	494.82
647.35	492.18
647.69	489.46
648.04	486.60
648.38	483.85
648.72	481.00
649.06	478.20
649.41	475.11
649.75	472.15
650.09	469.32
650.43	466.40
650.78	463.59
651.12	460.86
651.46	458.20
651.80	455.43
652.14	452.77
652.49	450.37
652.83	447.85
653.17	445.35
653.51	442.85
653.85	440.66
654.20	438.36
654.54	435.73
654.88	433.27
655.22	431.16
655.56	428.80
655.90	426.49
656.25	424.27
656.59	422.17
656.93	420.07
657.27	418.14
657.61	416.01
657.95	413.74
658.29	411.51
658.64	409.58
658.98	407.43
659.32	405.23
659.66	402.98
660.00	401.10
660.34	399.04
660.68	397.10
661.02	395.07
661.36	393.12
661.70	391.15
662.05	389.33
662.39	387.33
662.73	385.59
663.07	384.07
663.41	382.33
663.75	380.41
664.09	378.60
664.43	376.62
664.77	374.97
665.11	373.29
665.45	371.77
665.79	370.07
666.13	368.42
666.47	366.81
666.81	365.29
667.15	363.50
667.49	362.10
667.83	360.75
668.17	359.32
668.51	357.93
668.85	356.65
669.19	355.48
669.53	353.90
669.87	352.42
670.21	350.83
670.55	349.35
670.89	348.29
671.23	347.01
671.57	345.72
671.91	344.41
672.25	343.18
672.58	341.99
672.92	340.50
673.26	339.40
673.60	338.28
673.94	337.07
674.28	335.97
674.62	334.86
674.96	333.50
675.30	332.30
675.64	331.17
675.97	329.90
676.31	328.44
676.65	327.28
676.99	326.27
677.33	325.11
677.67	324.10
678.01	322.79
678.34	321.75
678.68	320.84
679.02	319.82
679.36	318.78
679.70	317.67
680.04	316.77
680.37	315.86
680.71	314.87
681.05	313.99
681.39	313.21
681.73	312.19
682.06	311.33
682.40	310.44
682.74	309.61
683.08	308.96
683.42	308.09
683.75	307.36
684.09	306.43
684.43	305.63
684.77	304.70
685.10	303.96
685.44	303.11
685.78	302.28
686.12	301.55
686.45	300.72
686.79	299.86
687.13	299.18
687.46	298.35
687.80	297.68
688.14	296.88
688.48	296.04
688.81	295.35
689.15	294.74
689.49	294.09
689.82	293.37
690.16	292.47
690.50	291.99
690.83	291.27
691.17	290.56
691.51	289.92
691.84	289.40
692.18	288.69
692.52	288.05
692.85	287.45
693.19	287.02
693.52	286.46
693.86	285.89
694.20	285.22
694.53	284.66
694.87	284.08
695.21	283.52
695.54	282.91
695.88	282.28
696.21	281.48
696.55	280.90
696.88	280.31
697.22	279.73
697.56	279.10
697.89	278.51
698.23	278.04
698.56	277.52
698.90	277.04
699.23	276.53
699.57	276.01
699.90	275.36
700.24	274.66
700.58	274.21
700.91	273.85
701.25	273.75
701.58	273.66
701.92	273.30
702.25	272.90
702.59	272.44
702.92	272.03
703.26	271.67
703.59	271.23
703.93	271.26
704.26	270.91
704.60	270.47
704.93	270.02
705.26	269.55
705.60	269.17
705.93	268.55
706.27	268.22
706.60	268.04
706.94	267.93
707.27	267.54
707.61	267.20
707.94	266.80
708.27	266.05
708.61	265.28
708.94	264.84
709.28	264.40
709.61	264.02
709.94	263.75
710.28	263.45
710.61	263.05
710.95	262.19
711.28	262.20
711.61	261.92
711.95	261.67
712.28	261.33
712.61	260.96
712.95	260.96
713.28	260.85
713.61	260.33
713.95	259.84
714.28	259.60
714.61	259.20
714.95	258.79
715.28	258.46
715.61	258.07
715.95	257.73
716.28	257.41
716.61	257.10
716.95	256.65
717.28	256.27
717.61	255.97
717.94	255.73
718.28	255.04
718.61	254.66
718.94	254.37
719.27	254.09
719.61	253.85
719.94	253.46
720.27	252.96
720.60	252.76
720.94	252.50
721.27	252.19
721.60	252.07
721.93	251.88
722.27	251.78
722.60	251.61
722.93	251.35
723.26	251.25
723.59	251.01
723.93	250.85
724.26	250.71
724.59	250.48
724.92	250.28
725.25	250.21
725.59	249.99
725.92	249.85
726.25	249.61
726.58	249.37
726.91	249.03
727.24	248.89
727.57	248.71
727.91	248.52
728.24	248.37
728.57	248.09
728.90	247.99
729.23	247.65
729.56	247.63
729.89	247.46
730.22	247.15
730.55	246.94
730.89	246.78
731.22	246.58
731.55	246.44
731.88	246.20
732.21	245.89
732.54	245.65
732.87	245.39
733.20	245.27
733.53	245.17
733.86	245.13
734.19	244.84
734.52	244.75
734.85	244.83
735.18	244.58
735.51	244.59
735.84	244.42
736.17	244.42
736.50	244.17
736.83	244.55
737.16	244.34
737.49	244.31
737.82	244.11
738.15	244.00
738.48	243.82
738.81	243.68
739.14	243.53
739.47	243.44
739.80	243.37
740.13	243.28
740.46	243.02
740.79	242.76
741.12	242.65
741.45	242.32
741.78	242.00
742.11	242.05
742.44	241.86
742.77	241.78
743.10	241.54
743.43	241.30
743.75	240.72
744.08	241.23
744.41	240.93
744.74	240.78
745.07	240.60
745.40	240.57
745.73	240.73
746.06	240.70
746.39	240.66
746.71	240.48
747.04	240.32
747.37	240.23
747.70	240.28
748.03	240.26
748.36	240.35
748.68	240.18
749.01	239.88
749.34	239.73
749.67	239.65
750.00	239.62
750.33	239.87
750.65	239.78
750.98	239.16
751.31	239.16
751.64	239.12
751.97	239.28
752.29	239.07
752.62	238.64
752.95	238.42
753.28	238.22
753.60	238.10
753.93	238.13
754.26	238.07
754.59	237.80
754.91	237.67
755.24	237.49
755.57	237.47
755.90	237.38
756.22	237.23
756.55	236.99
756.88	236.80
757.20	236.40
757.53	236.10
757.86	235.91
758.19	235.84
758.51	235.77
758.84	235.45
759.17	235.27
759.49	235.25
759.82	235.40
760.15	235.37
760.47	235.29
760.80	235.07
761.13	235.08
761.45	235.01
761.78	234.94
762.11	234.93
762.43	234.71
762.76	234.64
763.08	234.63
763.41	234.63
763.74	234.60
764.06	234.52
764.39	234.55
764.71	234.48
765.04	234.40
765.37	234.31
765.69	234.20
766.02	234.23
766.34	234.14
766.67	233.95
767.00	233.96
767.32	234.15
767.65	234.36
767.97	234.27
768.30	234.20
768.62	234.12
768.95	233.95
769.27	233.94
769.60	233.97
769.92	233.84
770.25	233.68
770.57	233.49
770.90	233.41
771.22	233.32
771.55	233.35
771.87	233.27
772.20	233.21
772.52	233.54
772.85	234.05
773.17	234.01
773.50	233.95
773.82	233.80
774.15	233.53
774.47	233.18
774.80	232.99
775.12	232.95
775.45	232.77
775.77	232.63
776.09	232.51
776.42	232.40
776.74	232.48
777.07	232.34
777.39	232.34
777.72	232.22
778.04	232.21
778.36	232.06
778.69	231.99
779.01	231.88
779.33	231.40
779.66	230.84
779.98	230.75
780.31	230.64
780.63	230.80
780.95	230.76
781.28	230.71
781.60	230.69
781.92	230.67
782.25	230.66
782.57	230.67
782.89	230.62
783.22	230.48
783.54	230.29
783.86	230.31
784.19	230.18
784.51	230.25
784.83	230.17
785.16	230.07
785.48	230.02
785.80	229.98
786.12	229.92
786.45	229.80
786.77	229.79
787.09	229.68
787.42	229.46
787.74	229.48
788.06	229.38
788.38	229.30
788.71	229.16
789.03	229.22
789.35	229.27
789.67	229.20
789.99	229.29
790.32	229.18
790.64	229.24
790.96	229.56
791.28	229.43
791.61	229.35
791.93	229.40
792.25	229.37
792.57	229.74
792.89	229.71
793.21	229.75
793.54	229.67
793.86	229.69
794.18	229.74
794.50	229.61
794.82	229.65
795.14	229.71
795.47	229.78
795.79	229.71
796.11	229.55
796.43	229.56
796.75	229.51
797.07	229.53
797.39	229.49
797.71	229.19
798.04	229.20
798.36	229.18
798.68	229.11
799.00	229.11
799.32	228.79
799.64	228.84
799.96	228.79
800.28	228.88
800.60	228.78
800.92	228.69
801.24	228.72
801.56	228.78
801.89	228.70
802.21	228.75
802.53	228.65
802.85	228.80
803.17	228.94
803.49	228.79
803.81	228.80
804.13	228.77
804.45	228.79
804.77	228.82
805.09	228.84
805.41	228.89
805.73	228.84
806.05	228.78
806.37	228.81
806.69	228.77
807.01	228.75
807.33	228.83
807.65	228.65
807.97	228.81
808.28	228.73
808.60	228.76
808.92	228.59
809.24	228.92
809.56	228.80
809.88	228.60
810.20	228.71
810.52	228.76
810.84	228.70
811.16	228.58
811.48	228.55
811.80	228.70
812.12	228.66
812.43	228.78
812.75	228.77
813.07	228.59
813.39	228.62
813.71	228.58
814.03	228.53
814.35	228.60
814.67	228.35
814.98	228.30
815.30	228.29
815.62	228.31
815.94	227.89
816.26	228.13
816.58	228.10
816.89	228.14
817.21	228.02
817.53	227.98
817.85	228.00
818.17	228.01
818.48	227.79
818.80	227.88
819.12	227.78
819.44	227.68
819.76	227.68
820.07	227.68
820.39	227.65
820.71	227.64
821.03	227.61
821.34	227.62
821.66	227.64
821.98	227.63
822.30	227.60
822.61	227.92
822.93	227.65
823.25	227.70
823.57	227.58
823.88	227.68
824.20	227.67
824.52	227.71
824.83	227.63
825.15	227.55
825.47	227.48
825.79	227.53
826.10	227.47
826.42	227.44
826.74	227.37
827.05	227.31
827.37	227.35
827.69	227.26
828.00	227.23
828.32	227.24
828.64	227.20
828.95	227.42
829.27	227.20
829.58	227.14
829.90	227.13
830.22	227.15
830.53	227.08
830.85	227.03
831.17	226.85
831.48	226.80
831.80	226.82
832.11	226.71
832.43	226.58
832.75	226.59
833.06	226.86
833.38	226.73
833.69	226.67
834.01	226.72
834.32	226.75
834.64	226.71
834.96	226.70
835.27	226.60
835.59	226.43
835.90	226.44
836.22	226.44
836.53	226.36
836.85	226.31
837.16	226.70
837.48	226.68
837.79	226.89
838.11	226.95
838.42	226.96
838.74	227.02
839.05	226.93
839.37	226.93
839.68	226.63
840.00	226.72
840.31	226.81
840.63	226.68
840.94	226.63
841.26	226.62
841.57	226.60
841.88	226.62
842.20	226.58
842.51	226.46
842.83	226.44
843.14	226.89
843.46	226.90
843.77	226.64
844.08	226.69
844.40	226.52
844.71	226.43
845.03	226.36
845.34	226.35
845.65	226.36
845.97	226.36
846.28	226.43
846.60	226.44
846.91	226.36
847.22	226.32
847.54	226.51
847.85	226.54
848.16	226.53
848.48	226.46
848.79	226.62
849.10	226.76
849.42	226.81
849.73	226.36
850.04	226.35
850.36	226.25
850.67	226.24
850.98	226.35
851.30	226.39
851.61	226.44
851.92	226.45
852.23	226.64
852.55	226.68
852.86	226.70
853.17	226.75
853.49	226.86
853.80	227.00
854.11	226.93
854.42	226.94
854.74	226.89
855.05	227.01
855.36	226.75
855.67	226.80
855.99	226.80
856.30	227.41
856.61	227.40
856.92	227.41
857.23	227.41
857.55	227.32
857.86	227.31
858.17	227.39
858.48	227.40
858.79	227.26
859.11	227.32
859.42	227.37
859.73	227.33
860.04	227.29
860.35	227.18
860.66	227.04
860.98	227.06
861.29	227.12
861.60	227.08
861.91	227.21
862.22	227.08
862.53	226.95
862.84	226.37
863.16	226.52
863.47	226.41
863.78	226.41
864.09	226.43
864.40	226.55
864.71	226.51
865.02	226.50
865.33	226.50
865.64	226.44
865.95	226.35
866.27	226.54
866.58	226.55
866.89	226.55
867.20	226.60
867.51	226.49
867.82	226.37
868.13	226.53
868.44	226.45
868.75	226.50
869.06	226.64
869.37	226.65
869.68	226.45
869.99	226.52
870.30	226.51
870.61	226.57
870.92	226.39
871.23	226.33
871.54	226.37
871.85	226.40
872.16	226.41
872.47	226.36
872.78	226.15
873.09	226.15
873.40	226.12
873.71	226.18
874.02	226.18
874.33	226.20
874.64	226.01
874.95	226.07
875.26	225.95
875.56	225.90
875.87	225.91
876.18	225.90
876.49	226.35
876.80	226.39
877.11	226.27
877.42	226.29
877.73	226.27
878.04	226.15
878.35	226.17
878.66	226.09
878.96	226.14
879.27	226.04
879.58	225.94
879.89	225.95
880.20	226.06
880.51	226.06
880.82	226.11
881.12	226.18
881.43	226.14
881.74	226.16
882.05	226.18
882.36	226.17
882.67	226.14
882.97	225.63
883.28	225.47
883.59	225.55
883.90	225.52
884.21	225.68
884.51	225.70
884.82	225.62
885.13	225.69
885.44	225.64
885.74	225.68
886.05	225.72
886.36	225.70
886.67	225.50
886.98	225.77
887.28	225.74
887.59	225.73
887.90	225.76
888.20	225.76
888.51	225.81
888.82	225.75
889.13	225.84
889.43	226.30
889.74	226.36
890.05	226.32
890.35	226.39
890.66	226.25
890.97	226.20
891.28	226.27
891.58	226.30
891.89	226.35
892.20	226.37
892.50	226.32
892.81	226.35
893.12	226.32
893.42	226.09
893.73	226.19
894.04	226.16
894.34	226.20
894.65	226.18
894.95	226.14
895.26	226.20
895.57	226.44
895.87	225.99
896.18	226.10
896.48	226.21
896.79	226.17
897.10	226.27
897.40	226.36
897.71	226.36
898.01	226.34
898.32	226.33
898.63	226.39
898.93	226.46
899.24	226.53
899.54	226.46
899.85	226.48
900.15	226.45
900.46	226.49
900.76	226.50
901.07	226.48
901.38	226.44
901.68	226.46
901.99	226.22
902.29	226.24
902.60	226.19
902.90	226.04
903.21	226.14
903.51	226.11
903.82	226.20
904.12	226.20
904.43	226.22
904.73	226.23
905.03	226.21
905.34	226.62
905.64	226.56
905.95	226.65
906.25	226.65
906.56	226.62
906.86	226.54
907.17	226.51
907.47	226.57
907.77	226.50
908.08	226.45
908.38	226.48
908.69	226.55
908.99	226.62
909.30	226.72
909.60	226.65
909.90	226.74
910.21	226.58
910.51	226.52
910.81	226.59
911.12	226.60
911.42	226.60
911.73	226.14
912.03	226.15
912.33	226.24
912.64	226.20
912.94	226.13
913.24	226.10
913.55	226.04
913.85	225.92
914.15	226.05
914.46	226.07
914.76	225.99
915.06	225.95
915.37	225.88
915.67	225.81
915.97	225.82
916.27	225.63
916.58	225.64
916.88	225.64
917.18	225.56
917.49	225.90
917.79	225.78
918.09	225.84
918.39	225.88
918.70	225.88
919.00	225.84
919.30	226.06
919.60	226.10
919.91	226.07
920.21	226.14
920.51	226.00
920.81	225.92
921.12	225.99
921.42	225.93
921.72	225.94
922.02	226.01
922.32	226.08
922.63	226.08
922.93	226.32
923.23	226.34
923.53	226.26
923.83	225.93
924.13	226.06
924.44	226.01
924.74	226.15
925.04	226.20
925.34	226.21
925.64	226.04
925.94	226.02
926.24	226.29
926.55	226.25
926.85	226.36
927.15	226.40
927.45	226.44
927.75	226.48
928.05	226.49
928.35	226.37
928.65	226.48
928.95	226.59
929.26	226.33
929.56	226.50
929.86	226.58
930.16	226.51
930.46	226.46
930.76	226.55
931.06	226.34
931.36	226.23
931.66	226.35
931.96	226.45
932.26	226.50
932.56	226.29
932.86	226.33
933.16	226.32
933.46	226.29
933.76	226.23
934.06	226.38
934.36	226.49
934.66	226.56
934.96	226.49
935.26	226.49
935.56	226.58
935.86	226.42
936.16	226.37
936.46	226.34
936.76	226.36
937.06	226.30
937.36	226.35
937.66	226.39
937.96	226.34
938.26	226.23
938.56	226.18
938.86	226.27
939.16	226.43
939.46	226.55
939.76	226.59
940.06	226.61
940.35	226.45
940.65	226.28
940.95	226.29
941.25	226.20
941.55	226.15
941.85	226.17
942.15	226.24
942.45	226.40
942.75	226.39
943.04	226.41
943.34	226.43
943.64	226.39
943.94	226.35
944.24	226.35
944.54	226.35
944.84	226.40
945.13	226.25
945.43	226.15
945.73	226.03
946.03	225.99
946.33	225.94
946.62	225.88
946.92	225.90
947.22	225.91
947.52	225.94
947.82	225.93
948.11	225.89
948.41	225.82
948.71	225.70
949.01	225.73
949.31	225.64
949.60	225.65
949.90	225.74
950.20	225.63
950.50	225.65
950.79	225.56
951.09	225.62
951.39	225.71
951.69	225.65
951.98	225.76
952.28	225.72
952.58	225.67
952.87	225.71
953.17	225.78
953.47	225.72
953.76	225.70
954.06	225.62
954.36	225.55
954.66	225.53
954.95	225.61
955.25	225.66
955.55	225.73
955.84	225.62
956.14	225.60
956.44	225.69
956.73	225.59
957.03	225.65
957.32	225.59
957.62	225.45
957.92	225.50
958.21	225.37
958.51	225.93
958.81	225.95
959.10	225.96
959.40	226.01
959.69	226.05
959.99	226.05
960.29	226.13
960.58	226.12
960.88	226.29
961.17	226.20
961.47	226.26
961.76	226.18
962.06	226.29
962.36	226.25
962.65	226.34
962.95	226.38
963.24	226.36
963.54	226.35
963.83	226.45
964.13	226.45
964.42	226.38
964.72	226.05
965.01	226.09
965.31	226.11
965.60	226.04
965.90	226.31
966.19	226.22
966.49	226.21
966.78	226.27
967.08	226.18
967.37	226.21
967.67	226.12
967.96	226.25
968.26	226.18
968.55	226.22
968.85	226.15
969.14	226.07
969.43	226.05
969.73	226.03
970.02	226.02
970.32	225.99
970.61	226.01
970.91	225.81
971.20	225.74
971.49	225.65
971.79	225.64
972.08	225.35
972.38	225.44
972.67	225.44
972.96	225.48
973.26	225.48
973.55	225.63
973.85	225.62
974.14	225.58
974.43	225.68
974.73	225.58
975.02	225.52
975.31	225.57
975.61	225.62
975.90	225.61
976.19	225.58
976.49	225.60
976.78	225.62
977.07	225.71
977.37	225.80
977.66	225.91
977.95	225.90
978.24	225.91
978.54	225.97
978.83	225.95
979.12	225.86
979.42	225.85
979.71	225.81
980.00	225.78
980.29	225.78
980.59	225.69
980.88	225.86
981.17	225.89
981.46	225.93
981.76	225.91
982.05	226.03
982.34	226.08
982.63	226.08
982.93	226.09
983.22	226.25
983.51	226.26
983.80	226.29
984.09	226.41
984.39	226.34
984.68	226.30
984.97	226.27
985.26	226.24
985.55	226.28
985.85	226.18
986.14	226.24
986.43	226.33
986.72	226.27
987.01	226.07
987.30	226.05
987.59	225.96
987.89	225.93
988.18	225.85
988.47	225.77
988.76	225.75
989.05	225.70
989.34	225.54
989.63	225.67
989.92	225.57
990.22	225.40
990.51	225.42
990.80	225.37
991.09	225.49
991.38	225.59
991.67	225.52
991.96	225.38
992.25	225.37
992.54	225.15
992.83	225.20
993.12	225.15
993.41	225.31
993.70	225.53
993.99	225.64
994.28	225.66
994.58	225.78
994.87	225.66
995.16	225.67
995.45	225.64
995.74	225.39
996.03	225.40
996.32	225.52
996.61	225.58
996.90	225.56
997.19	225.47
997.48	225.42
997.77	225.33
998.06	225.37
998.34	225.32
998.63	225.36
998.92	225.33
999.21	225.47
999.50	225.38
999.79	225.17
1000.08	225.17
1000.37	225.15
1000.66	225.05
1000.95	225.28
1001.24	225.31
1001.53	225.37
1001.82	225.42
1002.11	225.35
1002.40	225.36
1002.68	225.48
1002.97	225.81
1003.26	225.77
1003.55	225.73
1003.84	225.75
1004.13	225.95
1004.42	225.91
1004.71	225.96
1004.99	225.96
1005.28	226.09
1005.57	226.07
1005.86	226.10
1006.15	226.04
1006.44	226.00
1006.72	225.98
1007.01	225.88
1007.30	225.86
1007.59	225.81
1007.88	225.75
1008.17	225.83
1008.45	225.71
1008.74	225.52
1009.03	225.26
1009.32	225.29
1009.60	225.20
1009.89	225.17
1010.18	224.99
1010.47	225.07
1010.76	225.02
1011.04	224.96
1011.33	224.91
1011.62	224.94
1011.91	224.96
1012.19	224.91
1012.48	224.94
1012.77	224.98
1013.05	225.19
1013.34	225.21
1013.63	225.20
1013.92	225.25
1014.20	225.22
1014.49	225.26
1014.78	225.35
1015.06	225.26
1015.35	225.28
1015.64	225.44
1015.92	225.50
1016.21	225.53
1016.50	225.48
1016.78	225.57
1017.07	225.66
1017.36	225.60
1017.64	225.54
1017.93	225.56
1018.22	225.62
1018.50	225.60
1018.79	225.66
1019.08	225.41
1019.36	225.49
1019.65	225.44
1019.93	225.56
1020.22	225.64
1020.51	225.88
1020.79	225.74
1021.08	225.50
1021.36	225.20
1021.65	226.20
1021.94	224.85
1022.22	227.15
1022.51	224.60
1022.79	227.20
1023.08	226.55
1023.36	231.25
1023.65	223.40
>>>>>End Processed Spectral Data<<<<<
