SpectraSuite Data File
++++++++++++++++++++++++++++++++++++
Date: Wed Sep 04 18:05:13 EDT 2013
User: lab3
Dark Spectrum Present: Yes
Reference Spectrum Present: No
Number of Sampled Component Spectra: 1
Spectrometers: USB2E7196
Integration Time (usec): 170000 (USB2E7196)
Spectra Averaged: 20 (USB2E7196)
Boxcar Smoothing: 10 (USB2E7196)
Correct for Electrical Dark: No (USB2E7196)
Strobe/Lamp Enabled: No (USB2E7196)
Correct for Detector Non-linearity: No (USB2E7196)
Correct for Stray Light: No (USB2E7196)
Number of Pixels in Processed Spectrum: 2048
>>>>>Begin Processed Spectral Data<<<<<
339.09	0.00
339.48	213.50
339.86	214.55
340.24	215.90
340.63	217.30
341.01	226.50
341.39	220.80
341.78	222.80
342.16	225.65
342.54	223.95
342.93	212.82
343.31	223.49
343.69	224.00
344.07	224.50
344.46	225.03
344.84	225.48
345.22	225.45
345.60	225.73
345.99	225.93
346.37	225.94
346.75	226.02
347.13	226.09
347.52	226.12
347.90	226.27
348.28	226.32
348.66	226.48
349.05	226.36
349.43	226.46
349.81	226.52
350.19	226.55
350.57	226.59
350.96	226.74
351.34	226.88
351.72	227.01
352.10	227.09
352.48	227.06
352.87	227.06
353.25	227.10
353.63	227.15
354.01	227.15
354.39	227.28
354.77	227.37
355.15	227.52
355.54	227.55
355.92	227.51
356.30	227.59
356.68	227.95
357.06	228.02
357.44	228.00
357.82	228.05
358.20	228.53
358.58	228.50
358.97	228.53
359.35	228.67
359.73	228.83
360.11	228.88
360.49	228.98
360.87	229.08
361.25	229.17
361.63	229.33
362.01	229.47
362.39	229.41
362.77	229.54
363.15	229.62
363.53	229.65
363.91	229.74
364.29	229.74
364.67	229.37
365.05	229.43
365.43	229.49
365.81	229.61
366.19	229.51
366.57	229.81
366.95	229.75
367.33	229.72
367.71	229.69
368.09	229.82
368.47	229.84
368.85	229.84
369.23	229.99
369.61	229.88
369.99	230.01
370.37	230.05
370.75	230.17
371.13	230.08
371.51	230.04
371.89	230.08
372.27	230.13
372.65	230.11
373.03	230.12
373.41	230.09
373.78	229.95
374.16	229.60
374.54	229.41
374.92	229.39
375.30	229.34
375.68	229.10
376.06	229.02
376.44	228.89
376.82	228.82
377.19	228.69
377.57	228.59
377.95	228.31
378.33	228.26
378.71	227.94
379.09	227.89
379.47	227.95
379.84	227.73
380.22	227.55
380.60	227.36
380.98	227.28
381.36	227.16
381.73	227.05
382.11	227.11
382.49	227.07
382.87	226.96
383.25	226.93
383.62	227.57
384.00	227.45
384.38	227.42
384.76	227.49
385.13	227.62
385.51	227.55
385.89	227.46
386.27	227.39
386.64	227.39
387.02	227.26
387.40	227.06
387.78	227.08
388.15	227.09
388.53	227.06
388.91	227.00
389.29	226.98
389.66	227.08
390.04	226.95
390.42	227.00
390.79	226.98
391.17	226.90
391.55	226.34
391.92	226.37
392.30	226.45
392.68	226.37
393.05	226.31
393.43	226.32
393.81	226.36
394.18	226.31
394.56	226.40
394.94	226.55
395.31	226.61
395.69	226.77
396.06	226.85
396.44	226.91
396.82	226.89
397.19	227.17
397.57	227.07
397.95	227.24
398.32	227.14
398.70	227.31
399.07	227.46
399.45	227.50
399.82	227.49
400.20	227.43
400.58	227.49
400.95	227.38
401.33	227.59
401.70	228.08
402.08	228.24
402.45	228.30
402.83	228.63
403.20	228.82
403.58	228.96
403.95	229.16
404.33	229.39
404.71	229.64
405.08	230.04
405.46	230.30
405.83	230.55
406.21	230.81
406.58	231.11
406.96	231.42
407.33	231.80
407.70	232.25
408.08	233.05
408.45	233.52
408.83	234.06
409.20	234.49
409.58	234.62
409.95	235.17
410.33	235.75
410.70	236.08
411.08	236.67
411.45	237.20
411.82	237.87
412.20	238.67
412.57	239.67
412.95	240.05
413.32	241.01
413.69	241.89
414.07	242.90
414.44	243.83
414.82	244.82
415.19	246.04
415.56	247.22
415.94	248.30
416.31	249.69
416.68	251.11
417.06	252.75
417.43	254.44
417.81	256.26
418.18	258.09
418.55	260.04
418.93	262.12
419.30	264.35
419.67	266.59
420.04	268.90
420.42	271.21
420.79	274.37
421.16	277.21
421.54	280.22
421.91	283.27
422.28	286.33
422.66	289.65
423.03	293.12
423.40	296.47
423.77	300.04
424.15	303.72
424.52	307.53
424.89	311.74
425.26	315.66
425.64	319.48
426.01	323.83
426.38	328.20
426.75	332.72
427.13	337.27
427.50	342.02
427.87	346.99
428.24	352.00
428.61	356.43
428.99	361.74
429.36	367.17
429.73	372.65
430.10	378.28
430.47	384.01
430.85	389.69
431.22	396.04
431.59	402.86
431.96	409.09
432.33	415.96
432.70	422.60
433.08	430.52
433.45	437.81
433.82	445.17
434.19	453.51
434.56	461.59
434.93	469.37
435.30	477.06
435.68	485.66
436.05	494.09
436.42	502.48
436.79	510.12
437.16	518.69
437.53	527.57
437.90	536.28
438.27	544.97
438.64	553.94
439.01	562.23
439.38	569.40
439.75	576.67
440.13	584.79
440.50	592.38
440.87	598.41
441.24	604.99
441.61	612.00
441.98	616.97
442.35	622.83
442.72	628.87
443.09	634.77
443.46	638.22
443.83	640.40
444.20	642.35
444.57	645.13
444.94	646.17
445.31	647.18
445.68	648.63
446.05	648.67
446.42	647.39
446.79	645.80
447.16	644.11
447.53	642.70
447.90	639.10
448.27	635.43
448.64	630.62
449.01	626.95
449.37	620.66
449.74	614.64
450.11	607.75
450.48	599.91
450.85	591.93
451.22	585.00
451.59	578.44
451.96	572.15
452.33	563.95
452.70	556.44
453.07	547.84
453.43	538.56
453.80	530.17
454.17	522.03
454.54	514.38
454.91	506.28
455.28	498.33
455.65	490.74
456.02	483.78
456.38	477.37
456.75	469.61
457.12	463.08
457.49	456.72
457.86	450.30
458.23	445.07
458.59	439.33
458.96	433.42
459.33	428.30
459.70	423.17
460.07	419.16
460.43	414.39
460.80	409.99
461.17	406.31
461.54	402.32
461.91	398.38
462.27	394.45
462.64	391.08
463.01	387.44
463.38	384.13
463.74	380.18
464.11	377.14
464.48	374.39
464.85	371.42
465.21	369.36
465.58	367.01
465.95	364.22
466.32	361.95
466.68	359.78
467.05	357.54
467.42	355.36
467.78	352.89
468.15	350.80
468.52	349.27
468.88	347.00
469.25	345.02
469.62	343.68
469.98	342.07
470.35	340.54
470.72	339.15
471.08	337.53
471.45	336.21
471.82	334.99
472.18	333.50
472.55	332.60
472.92	331.22
473.28	330.12
473.65	329.04
474.02	328.03
474.38	327.11
474.75	326.41
475.11	325.61
475.48	325.02
475.85	324.44
476.21	323.70
476.58	323.14
476.94	322.75
477.31	322.21
477.67	321.85
478.04	321.58
478.41	321.40
478.77	321.60
479.14	321.41
479.50	321.28
479.87	321.34
480.23	321.27
480.60	321.22
480.96	321.26
481.33	321.61
481.69	321.80
482.06	322.13
482.42	322.28
482.79	322.57
483.15	323.07
483.52	323.71
483.88	324.16
484.25	324.79
484.61	325.39
484.98	326.07
485.34	326.98
485.71	327.94
486.07	328.80
486.44	329.43
486.80	330.38
487.17	331.44
487.53	332.79
487.90	334.16
488.26	335.82
488.62	337.56
488.99	339.09
489.35	340.91
489.72	342.72
490.08	344.79
490.44	346.80
490.81	348.98
491.17	351.13
491.54	353.69
491.90	356.24
492.26	359.07
492.63	361.89
492.99	364.73
493.36	367.88
493.72	371.28
494.08	374.66
494.45	378.45
494.81	382.48
495.17	386.30
495.54	390.55
495.90	394.83
496.26	399.24
496.63	403.81
496.99	408.51
497.35	413.58
497.72	418.93
498.08	424.36
498.44	430.05
498.80	436.10
499.17	442.12
499.53	448.42
499.89	454.99
500.26	461.73
500.62	468.66
500.98	476.04
501.34	483.54
501.71	491.34
502.07	499.12
502.43	507.22
502.79	515.64
503.16	524.23
503.52	533.26
503.88	542.43
504.24	552.29
504.60	562.40
504.97	572.74
505.33	583.07
505.69	594.33
506.05	605.35
506.41	616.58
506.78	628.39
507.14	640.40
507.50	652.75
507.86	665.40
508.22	678.52
508.59	691.50
508.95	705.23
509.31	719.38
509.67	733.73
510.03	748.15
510.39	762.98
510.75	778.07
511.12	793.53
511.48	809.25
511.84	824.88
512.20	840.82
512.56	857.03
512.92	873.96
513.28	890.80
513.64	908.24
514.00	925.70
514.37	943.58
514.73	961.71
515.09	979.99
515.45	998.48
515.81	1017.03
516.17	1035.92
516.53	1054.66
516.89	1073.80
517.25	1093.32
517.61	1113.75
517.97	1134.19
518.33	1154.46
518.69	1174.86
519.05	1195.57
519.41	1216.50
519.77	1237.63
520.13	1258.45
520.49	1279.40
520.85	1301.75
521.21	1322.86
521.57	1344.34
521.93	1365.05
522.29	1386.33
522.65	1407.22
523.01	1428.32
523.37	1449.12
523.73	1470.31
524.09	1490.97
524.45	1511.37
524.81	1532.09
525.17	1552.40
525.53	1572.80
525.89	1593.90
526.25	1614.42
526.61	1635.02
526.97	1655.95
527.33	1677.41
527.68	1699.76
528.04	1720.83
528.40	1740.48
528.76	1761.52
529.12	1782.10
529.48	1803.24
529.84	1823.48
530.20	1844.82
530.56	1865.86
530.91	1886.87
531.27	1907.48
531.63	1928.29
531.99	1949.45
532.35	1969.93
532.71	1990.38
533.07	2011.58
533.42	2031.28
533.78	2051.46
534.14	2071.37
534.50	2090.83
534.86	2110.03
535.21	2127.69
535.57	2146.27
535.93	2164.42
536.29	2182.36
536.65	2200.87
537.00	2218.31
537.36	2236.13
537.72	2252.57
538.08	2269.73
538.44	2286.44
538.79	2303.28
539.15	2320.05
539.51	2335.76
539.87	2351.17
540.22	2365.77
540.58	2379.97
540.94	2393.33
541.29	2405.98
541.65	2418.82
542.01	2431.35
542.37	2442.15
542.72	2453.35
543.08	2464.32
543.44	2475.91
543.79	2486.10
544.15	2495.67
544.51	2505.80
544.87	2515.81
545.22	2524.63
545.58	2532.40
545.94	2539.94
546.29	2546.36
546.65	2552.68
547.01	2558.14
547.36	2563.74
547.72	2569.05
548.07	2573.41
548.43	2579.29
548.79	2583.98
549.14	2588.13
549.50	2592.05
549.86	2595.89
550.21	2599.53
550.57	2602.69
550.92	2604.11
551.28	2605.78
551.64	2608.30
551.99	2610.58
552.35	2612.10
552.70	2614.02
553.06	2615.48
553.41	2616.68
553.77	2618.59
554.13	2620.40
554.48	2622.09
554.84	2623.78
555.19	2624.98
555.55	2626.24
555.90	2625.11
556.26	2624.66
556.61	2623.13
556.97	2621.23
557.32	2620.87
557.68	2619.87
558.03	2618.60
558.39	2617.59
558.74	2616.81
559.10	2613.58
559.45	2610.11
559.81	2605.75
560.16	2601.06
560.52	2596.93
560.87	2592.64
561.23	2586.91
561.58	2580.61
561.94	2574.20
562.29	2566.59
562.64	2559.73
563.00	2551.59
563.35	2545.53
563.71	2539.01
564.06	2533.17
564.42	2526.68
564.77	2520.25
565.12	2512.42
565.48	2504.84
565.83	2496.95
566.19	2489.05
566.54	2481.57
566.89	2473.53
567.25	2465.95
567.60	2458.92
567.96	2451.13
568.31	2442.97
568.66	2434.29
569.02	2425.49
569.37	2417.20
569.72	2409.42
570.08	2400.05
570.43	2390.81
570.78	2381.30
571.14	2371.88
571.49	2361.60
571.84	2351.60
572.20	2339.90
572.55	2330.08
572.90	2319.23
573.26	2308.77
573.61	2297.40
573.96	2285.87
574.31	2274.05
574.67	2262.01
575.02	2249.09
575.37	2236.16
575.72	2223.07
576.08	2211.07
576.43	2198.42
576.78	2185.19
577.13	2171.69
577.49	2159.20
577.84	2147.12
578.19	2134.96
578.54	2122.45
578.90	2110.34
579.25	2098.21
579.60	2086.22
579.95	2072.84
580.30	2059.43
580.66	2045.63
581.01	2032.03
581.36	2018.40
581.71	2005.50
582.06	1992.43
582.42	1979.96
582.77	1967.28
583.12	1955.28
583.47	1942.90
583.82	1930.85
584.17	1918.73
584.53	1906.91
584.88	1893.72
585.23	1880.73
585.58	1866.32
585.93	1852.86
586.28	1838.95
586.63	1824.59
586.98	1809.94
587.34	1797.08
587.69	1783.95
588.04	1771.60
588.39	1759.45
588.74	1747.10
589.09	1734.58
589.44	1721.73
589.79	1709.73
590.14	1697.81
590.49	1685.57
590.84	1673.15
591.19	1660.96
591.54	1648.81
591.89	1636.42
592.25	1626.16
592.60	1614.44
592.95	1603.32
593.30	1591.29
593.65	1579.66
594.00	1567.80
594.35	1558.07
594.70	1545.98
595.05	1534.54
595.40	1522.45
595.75	1510.38
596.10	1498.77
596.45	1487.27
596.80	1476.45
597.15	1464.55
597.50	1452.57
597.85	1441.13
598.19	1429.52
598.54	1417.91
598.89	1406.15
599.24	1395.46
599.59	1383.70
599.94	1372.45
600.29	1361.74
600.64	1351.29
600.99	1340.51
601.34	1331.11
601.69	1319.62
602.04	1309.70
602.39	1299.99
602.74	1290.49
603.08	1281.09
603.43	1271.90
603.78	1262.26
604.13	1252.48
604.48	1242.52
604.83	1232.78
605.18	1223.09
605.53	1213.42
605.87	1204.01
606.22	1195.67
606.57	1186.18
606.92	1176.57
607.27	1167.94
607.62	1159.24
607.96	1150.40
608.31	1142.25
608.66	1133.61
609.01	1125.21
609.36	1116.58
609.70	1107.74
610.05	1099.01
610.40	1090.24
610.75	1081.38
611.10	1072.80
611.44	1064.02
611.79	1056.02
612.14	1048.17
612.49	1039.92
612.83	1032.63
613.18	1024.87
613.53	1016.96
613.88	1008.91
614.22	1001.05
614.57	993.08
614.92	985.21
615.27	977.71
615.61	969.81
615.96	962.12
616.31	954.35
616.65	947.13
617.00	939.71
617.35	932.48
617.70	925.48
618.04	918.46
618.39	911.60
618.74	905.10
619.08	898.06
619.43	890.71
619.78	883.57
620.12	876.32
620.47	869.47
620.82	862.25
621.16	855.53
621.51	849.20
621.85	842.73
622.20	835.81
622.55	829.00
622.89	822.53
623.24	816.07
623.59	809.73
623.93	803.22
624.28	797.18
624.62	791.29
624.97	785.31
625.32	779.23
625.66	772.97
626.01	766.80
626.35	761.07
626.70	755.63
627.04	750.59
627.39	744.81
627.73	739.23
628.08	733.99
628.43	728.34
628.77	722.75
629.12	717.45
629.46	712.69
629.81	707.98
630.15	703.14
630.50	698.12
630.84	693.27
631.19	688.40
631.53	683.70
631.88	678.55
632.22	673.60
632.57	669.24
632.91	664.73
633.26	660.48
633.60	655.91
633.95	651.10
634.29	646.09
634.64	641.66
634.98	636.79
635.32	632.22
635.67	628.27
636.01	624.02
636.36	619.56
636.70	615.60
637.05	611.34
637.39	607.09
637.73	602.87
638.08	598.81
638.42	594.62
638.77	590.30
639.11	585.81
639.45	581.58
639.80	577.07
640.14	572.97
640.49	568.80
640.83	564.99
641.17	561.33
641.52	557.59
641.86	554.04
642.20	550.95
642.55	547.31
642.89	543.50
643.23	540.07
643.58	536.90
643.92	533.08
644.26	529.71
644.61	526.50
644.95	523.25
645.29	519.85
645.64	516.78
645.98	513.79
646.32	510.90
646.66	507.67
647.01	504.61
647.35	501.76
647.69	498.92
648.04	495.96
648.38	493.19
648.72	490.30
649.06	487.26
649.41	484.18
649.75	481.21
650.09	478.45
650.43	475.59
650.78	472.60
651.12	469.78
651.46	466.81
651.80	464.00
652.14	461.11
652.49	458.57
652.83	455.82
653.17	453.09
653.51	450.47
653.85	448.08
654.20	445.64
654.54	442.96
654.88	440.25
655.22	437.95
655.56	435.28
655.90	432.89
656.25	430.57
656.59	428.20
656.93	426.02
657.27	424.03
657.61	421.60
657.95	419.49
658.29	417.33
658.64	415.32
658.98	413.07
659.32	410.90
659.66	408.60
660.00	406.45
660.34	404.27
660.68	402.24
661.02	400.23
661.36	398.31
661.70	396.31
662.05	394.33
662.39	392.37
662.73	390.64
663.07	388.98
663.41	387.05
663.75	385.27
664.09	383.35
664.43	381.28
664.77	379.56
665.11	377.66
665.45	375.91
665.79	374.22
666.13	372.52
666.47	370.85
666.81	369.21
667.15	367.55
667.49	366.04
667.83	364.63
668.17	363.02
668.51	361.53
668.85	360.19
669.19	359.12
669.53	357.55
669.87	356.07
670.21	354.43
670.55	353.13
670.89	351.93
671.23	350.65
671.57	349.27
671.91	347.97
672.25	346.68
672.58	345.55
672.92	344.10
673.26	342.90
673.60	341.81
673.94	340.71
674.28	339.60
674.62	338.39
674.96	337.14
675.30	336.00
675.64	334.70
675.97	333.48
676.31	332.02
676.65	330.87
676.99	329.92
677.33	328.75
677.67	327.61
678.01	326.22
678.34	325.17
678.68	324.25
679.02	323.09
679.36	322.13
679.70	321.01
680.04	320.09
680.37	319.04
680.71	317.97
681.05	317.06
681.39	316.19
681.73	315.23
682.06	314.28
682.40	313.43
682.74	312.61
683.08	311.82
683.42	310.94
683.75	310.05
684.09	309.14
684.43	308.38
684.77	307.51
685.10	306.90
685.44	306.14
685.78	305.31
686.12	304.60
686.45	303.76
686.79	302.88
687.13	302.21
687.46	301.50
687.80	300.89
688.14	299.93
688.48	299.14
688.81	298.31
689.15	297.63
689.49	296.84
689.82	296.20
690.16	295.35
690.50	294.67
690.83	294.03
691.17	293.17
691.51	292.53
691.84	291.98
692.18	291.18
692.52	290.32
692.85	289.61
693.19	289.26
693.52	288.56
693.86	287.99
694.20	287.28
694.53	286.64
694.87	286.00
695.21	285.38
695.54	284.75
695.88	284.16
696.21	283.38
696.55	282.74
696.88	282.08
697.22	281.45
697.56	280.87
697.89	280.29
698.23	279.85
698.56	279.23
698.90	278.67
699.23	278.04
699.57	277.64
699.90	277.05
700.24	276.30
700.58	275.82
700.91	275.37
701.25	275.23
701.58	275.09
701.92	274.64
702.25	274.24
702.59	273.79
702.92	273.29
703.26	273.02
703.59	272.60
703.93	272.60
704.26	272.31
704.60	271.93
704.93	271.41
705.26	270.95
705.60	270.61
705.93	270.14
706.27	269.91
706.60	269.63
706.94	269.52
707.27	269.12
707.61	268.77
707.94	268.30
708.27	267.53
708.61	266.80
708.94	266.35
709.28	265.93
709.61	265.55
709.94	265.34
710.28	264.92
710.61	264.63
710.95	263.75
711.28	263.65
711.61	263.27
711.95	263.14
712.28	262.71
712.61	262.32
712.95	262.24
713.28	262.04
713.61	261.49
713.95	260.91
714.28	260.65
714.61	260.28
714.95	259.97
715.28	259.57
715.61	259.19
715.95	258.98
716.28	258.66
716.61	258.40
716.95	258.03
717.28	257.62
717.61	257.24
717.94	257.01
718.28	256.38
718.61	256.08
718.94	255.70
719.27	255.48
719.61	255.22
719.94	254.70
720.27	254.28
720.60	254.16
720.94	253.95
721.27	253.69
721.60	253.56
721.93	253.30
722.27	253.25
722.60	253.13
722.93	252.76
723.26	252.59
723.59	252.34
723.93	252.13
724.26	252.04
724.59	251.82
724.92	251.61
725.25	251.49
725.59	251.26
725.92	251.13
726.25	250.95
726.58	250.79
726.91	250.64
727.24	250.52
727.57	250.26
727.91	249.97
728.24	249.78
728.57	249.47
728.90	249.38
729.23	249.04
729.56	249.04
729.89	248.88
730.22	248.66
730.55	248.42
730.89	248.24
731.22	248.06
731.55	247.85
731.88	247.72
732.21	247.46
732.54	247.27
732.87	247.00
733.20	246.79
733.53	246.64
733.86	246.50
734.19	246.30
734.52	246.23
734.85	246.42
735.18	246.16
735.51	246.18
735.84	246.03
736.17	246.06
736.50	245.63
736.83	246.04
737.16	245.90
737.49	245.73
737.82	245.46
738.15	245.32
738.48	245.14
738.81	244.97
739.14	244.76
739.47	244.55
739.80	244.44
740.13	244.35
740.46	244.15
740.79	243.91
741.12	243.63
741.45	243.33
741.78	242.96
742.11	242.93
742.44	242.66
742.77	242.58
743.10	242.25
743.43	242.13
743.75	241.44
744.08	241.91
744.41	241.78
744.74	241.68
745.07	241.45
745.40	241.43
745.73	241.46
746.06	241.37
746.39	241.26
746.71	241.09
747.04	240.82
747.37	240.70
747.70	240.67
748.03	240.60
748.36	240.58
748.68	240.45
749.01	240.19
749.34	240.06
749.67	239.91
750.00	239.91
750.33	240.14
750.65	240.07
750.98	239.38
751.31	239.28
751.64	239.28
751.97	239.41
752.29	239.25
752.62	238.88
752.95	238.74
753.28	238.54
753.60	238.41
753.93	238.48
754.26	238.45
754.59	238.19
754.91	238.04
755.24	237.93
755.57	237.80
755.90	237.68
756.22	237.57
756.55	237.39
756.88	237.12
757.20	236.66
757.53	236.45
757.86	236.33
758.19	236.29
758.51	236.17
758.84	235.84
759.17	235.72
759.49	235.71
759.82	235.87
760.15	235.87
760.47	235.73
760.80	235.52
761.13	235.43
761.45	235.38
761.78	235.41
762.11	235.31
762.43	235.20
762.76	235.18
763.08	235.12
763.41	235.10
763.74	235.11
764.06	235.08
764.39	235.03
764.71	234.92
765.04	234.79
765.37	234.60
765.69	234.60
766.02	234.56
766.34	234.44
766.67	234.17
767.00	234.27
767.32	234.48
767.65	234.67
767.97	234.59
768.30	234.58
768.62	234.45
768.95	234.35
769.27	234.27
769.60	234.29
769.92	234.17
770.25	234.01
770.57	233.94
770.90	233.89
771.22	233.77
771.55	233.74
771.87	233.70
772.20	233.72
772.52	234.00
772.85	234.58
773.17	234.57
773.50	234.50
773.82	234.37
774.15	234.13
774.47	233.80
774.80	233.68
775.12	233.56
775.45	233.50
775.77	233.46
776.09	233.48
776.42	233.39
776.74	233.52
777.07	233.51
777.39	233.46
777.72	233.37
778.04	233.38
778.36	233.31
778.69	233.29
779.01	233.23
779.33	232.80
779.66	232.15
779.98	232.02
780.31	232.02
780.63	232.18
780.95	232.23
781.28	232.18
781.60	232.06
781.92	232.06
782.25	232.06
782.57	232.05
782.89	232.01
783.22	231.92
783.54	231.75
783.86	231.74
784.19	231.72
784.51	231.80
784.83	231.67
785.16	231.59
785.48	231.55
785.80	231.50
786.12	231.50
786.45	231.45
786.77	231.42
787.09	231.34
787.42	231.11
787.74	231.05
788.06	231.06
788.38	231.08
788.71	231.00
789.03	230.89
789.35	230.96
789.67	230.78
789.99	230.77
790.32	230.70
790.64	230.70
790.96	230.99
791.28	230.81
791.61	230.90
791.93	230.99
792.25	230.93
792.57	231.27
792.89	231.14
793.21	231.14
793.54	231.10
793.86	231.00
794.18	230.97
794.50	230.90
794.82	230.87
795.14	230.87
795.47	230.92
795.79	230.93
796.11	230.78
796.43	230.81
796.75	230.85
797.07	230.89
797.39	230.87
797.71	230.53
798.04	230.54
798.36	230.43
798.68	230.34
799.00	230.39
799.32	230.15
799.64	230.24
799.96	230.21
800.28	230.25
800.60	230.19
800.92	230.22
801.24	230.15
801.56	230.25
801.89	230.26
802.21	230.25
802.53	230.21
802.85	230.29
803.17	230.47
803.49	230.33
803.81	230.27
804.13	230.19
804.45	230.19
804.77	230.21
805.09	230.25
805.41	230.25
805.73	230.07
806.05	229.90
806.37	229.85
806.69	229.77
807.01	229.75
807.33	229.82
807.65	229.69
807.97	229.92
808.28	229.77
808.60	229.71
808.92	229.62
809.24	229.88
809.56	229.69
809.88	229.51
810.20	229.54
810.52	229.51
810.84	229.41
811.16	229.23
811.48	229.21
811.80	229.36
812.12	229.35
812.43	229.49
812.75	229.52
813.07	229.42
813.39	229.45
813.71	229.47
814.03	229.48
814.35	229.43
814.67	229.18
814.98	229.20
815.30	229.12
815.62	229.05
815.94	228.70
816.26	228.99
816.58	228.89
816.89	228.91
817.21	228.86
817.53	228.92
817.85	228.96
818.17	228.95
818.48	228.72
818.80	228.79
819.12	228.74
819.44	228.64
819.76	228.64
820.07	228.65
820.39	228.55
820.71	228.58
821.03	228.60
821.34	228.55
821.66	228.55
821.98	228.63
822.30	228.65
822.61	228.91
822.93	228.60
823.25	228.61
823.57	228.57
823.88	228.61
824.20	228.58
824.52	228.71
824.83	228.67
825.15	228.65
825.47	228.57
825.79	228.60
826.10	228.58
826.42	228.53
826.74	228.52
827.05	228.46
827.37	228.45
827.69	228.39
828.00	228.40
828.32	228.32
828.64	228.23
828.95	228.46
829.27	228.31
829.58	228.37
829.90	228.36
830.22	228.30
830.53	228.20
830.85	228.16
831.17	227.95
831.48	227.90
831.80	227.88
832.11	227.83
832.43	227.78
832.75	227.83
833.06	228.13
833.38	228.03
833.69	228.01
834.01	228.02
834.32	228.03
834.64	227.95
834.96	228.03
835.27	228.05
835.59	227.83
835.90	227.76
836.22	227.69
836.53	227.66
836.85	227.68
837.16	228.16
837.48	228.14
837.79	228.32
838.11	228.33
838.42	228.33
838.74	228.45
839.05	228.40
839.37	228.28
839.68	228.01
840.00	227.99
840.31	228.08
840.63	228.00
840.94	227.90
841.26	227.94
841.57	227.87
841.88	227.86
842.20	227.84
842.51	227.84
842.83	227.92
843.14	228.38
843.46	228.41
843.77	228.12
844.08	228.12
844.40	227.98
844.71	227.95
845.03	227.94
845.34	227.83
845.65	227.82
845.97	227.85
846.28	227.79
846.60	227.85
846.91	227.80
847.22	227.83
847.54	228.04
847.85	228.08
848.16	228.04
848.48	228.00
848.79	228.18
849.10	228.26
849.42	228.26
849.73	227.82
850.04	227.72
850.36	227.56
850.67	227.68
850.98	227.75
851.30	227.81
851.61	227.80
851.92	227.84
852.23	228.00
852.55	228.05
852.86	228.14
853.17	228.13
853.49	228.28
853.80	228.37
854.11	228.38
854.42	228.37
854.74	228.37
855.05	228.37
855.36	228.13
855.67	228.08
855.99	228.06
856.30	228.57
856.61	228.67
856.92	228.70
857.23	228.69
857.55	228.62
857.86	228.58
858.17	228.65
858.48	228.57
858.79	228.39
859.11	228.54
859.42	228.54
859.73	228.51
860.04	228.37
860.35	228.15
860.66	227.99
860.98	228.06
861.29	228.20
861.60	228.19
861.91	228.31
862.22	228.23
862.53	228.16
862.84	227.65
863.16	227.77
863.47	227.68
863.78	227.59
864.09	227.68
864.40	227.71
864.71	227.69
865.02	227.73
865.33	227.71
865.64	227.52
865.95	227.50
866.27	227.74
866.58	227.80
866.89	227.89
867.20	227.84
867.51	227.68
867.82	227.55
868.13	227.71
868.44	227.51
868.75	227.60
869.06	227.69
869.37	227.76
869.68	227.60
869.99	227.63
870.30	227.64
870.61	227.61
870.92	227.50
871.23	227.48
871.54	227.56
871.85	227.64
872.16	227.65
872.47	227.53
872.78	227.27
873.09	227.26
873.40	227.20
873.71	227.28
874.02	227.33
874.33	227.33
874.64	227.17
874.95	227.37
875.26	227.30
875.56	227.21
875.87	227.08
876.18	226.98
876.49	227.47
876.80	227.42
877.11	227.27
877.42	227.30
877.73	227.24
878.04	227.11
878.35	227.13
878.66	227.16
878.96	227.20
879.27	227.22
879.58	227.16
879.89	227.14
880.20	227.23
880.51	227.18
880.82	227.15
881.12	227.18
881.43	227.02
881.74	226.96
882.05	226.92
882.36	226.97
882.67	227.09
882.97	226.51
883.28	226.49
883.59	226.51
883.90	226.60
884.21	226.73
884.51	226.74
884.82	226.66
885.13	226.69
885.44	226.70
885.74	226.64
886.05	226.62
886.36	226.59
886.67	226.47
886.98	226.80
887.28	226.82
887.59	226.80
887.90	226.82
888.20	226.79
888.51	226.87
888.82	226.78
889.13	226.78
889.43	227.26
889.74	227.19
890.05	227.21
890.35	227.15
890.66	227.01
890.97	226.95
891.28	226.90
891.58	226.87
891.89	226.84
892.20	226.82
892.50	226.81
892.81	226.86
893.12	226.86
893.42	226.53
893.73	226.59
894.04	226.52
894.34	226.62
894.65	226.62
894.95	226.61
895.26	226.69
895.57	226.95
895.87	226.56
896.18	226.78
896.48	226.85
896.79	226.90
897.10	227.02
897.40	227.05
897.71	227.09
898.01	227.02
898.32	227.10
898.63	227.17
898.93	227.14
899.24	227.23
899.54	227.20
899.85	227.15
900.15	227.13
900.46	227.18
900.76	227.18
901.07	227.23
901.38	227.25
901.68	227.25
901.99	226.96
902.29	226.94
902.60	226.83
902.90	226.81
903.21	226.76
903.51	226.74
903.82	226.86
904.12	226.95
904.43	227.03
904.73	227.04
905.03	227.04
905.34	227.47
905.64	227.36
905.95	227.36
906.25	227.43
906.56	227.39
906.86	227.36
907.17	227.33
907.47	227.34
907.77	227.21
908.08	227.15
908.38	227.16
908.69	227.20
908.99	227.27
909.30	227.23
909.60	227.20
909.90	227.15
910.21	226.94
910.51	226.78
910.81	226.78
911.12	226.76
911.42	226.78
911.73	226.35
912.03	226.37
912.33	226.48
912.64	226.49
912.94	226.47
913.24	226.44
913.55	226.37
913.85	226.28
914.15	226.32
914.46	226.44
914.76	226.40
915.06	226.30
915.37	226.18
915.67	226.18
915.97	226.12
916.27	226.00
916.58	226.02
916.88	225.99
917.18	225.94
917.49	226.25
917.79	226.13
918.09	226.26
918.39	226.40
918.70	226.30
919.00	226.27
919.30	226.44
919.60	226.44
919.91	226.41
920.21	226.45
920.51	226.38
920.81	226.25
921.12	226.31
921.42	226.29
921.72	226.34
922.02	226.36
922.32	226.42
922.63	226.54
922.93	226.82
923.23	226.81
923.53	226.77
923.83	226.45
924.13	226.57
924.44	226.52
924.74	226.54
925.04	226.68
925.34	226.70
925.64	226.58
925.94	226.54
926.24	226.77
926.55	226.72
926.85	226.85
927.15	226.90
927.45	227.00
927.75	227.08
928.05	227.08
928.35	227.05
928.65	227.19
928.95	227.14
929.26	226.93
929.56	227.10
929.86	227.17
930.16	227.10
930.46	226.98
930.76	226.96
931.06	226.78
931.36	226.64
931.66	226.80
931.96	226.81
932.26	226.79
932.56	226.67
932.86	226.74
933.16	226.69
933.46	226.72
933.76	226.59
934.06	226.65
934.36	226.83
934.66	226.86
934.96	226.72
935.26	226.82
935.56	226.90
935.86	226.78
936.16	226.70
936.46	226.73
936.76	226.80
937.06	226.75
937.36	226.75
937.66	226.84
937.96	226.71
938.26	226.63
938.56	226.69
938.86	226.67
939.16	226.74
939.46	226.80
939.76	226.75
940.06	226.74
940.35	226.70
940.65	226.45
940.95	226.54
941.25	226.50
941.55	226.38
941.85	226.40
942.15	226.54
942.45	226.62
942.75	226.59
943.04	226.64
943.34	226.75
943.64	226.75
943.94	226.64
944.24	226.71
944.54	226.74
944.84	226.76
945.13	226.70
945.43	226.66
945.73	226.67
946.03	226.68
946.33	226.66
946.62	226.52
946.92	226.52
947.22	226.50
947.52	226.53
947.82	226.61
948.11	226.53
948.41	226.36
948.71	226.27
949.01	226.30
949.31	226.17
949.60	226.16
949.90	226.24
950.20	226.29
950.50	226.26
950.79	226.24
951.09	226.34
951.39	226.41
951.69	226.30
951.98	226.40
952.28	226.40
952.58	226.35
952.87	226.39
953.17	226.45
953.47	226.38
953.76	226.41
954.06	226.32
954.36	226.29
954.66	226.30
954.95	226.49
955.25	226.57
955.55	226.65
955.84	226.55
956.14	226.50
956.44	226.42
956.73	226.24
957.03	226.22
957.32	226.13
957.62	226.02
957.92	226.13
958.21	225.98
958.51	226.49
958.81	226.58
959.10	226.69
959.40	226.79
959.69	226.81
959.99	226.77
960.29	226.78
960.58	226.75
960.88	226.93
961.17	226.79
961.47	226.80
961.76	226.68
962.06	226.81
962.36	226.83
962.65	226.89
962.95	227.00
963.24	226.98
963.54	227.05
963.83	227.16
964.13	227.20
964.42	227.06
964.72	226.67
965.01	226.68
965.31	226.57
965.60	226.43
965.90	226.79
966.19	226.78
966.49	226.83
966.78	226.83
967.08	226.81
967.37	226.85
967.67	226.80
967.96	227.00
968.26	226.96
968.55	226.96
968.85	226.95
969.14	226.94
969.43	226.99
969.73	226.87
970.02	226.88
970.32	226.85
970.61	226.94
970.91	226.80
971.20	226.73
971.49	226.69
971.79	226.72
972.08	226.30
972.38	226.34
972.67	226.28
972.96	226.37
973.26	226.32
973.55	226.46
973.85	226.38
974.14	226.30
974.43	226.34
974.73	226.32
975.02	226.26
975.31	226.34
975.61	226.29
975.90	226.30
976.19	226.25
976.49	226.25
976.78	226.28
977.07	226.30
977.37	226.39
977.66	226.53
977.95	226.45
978.24	226.51
978.54	226.70
978.83	226.69
979.12	226.70
979.42	226.62
979.71	226.55
980.00	226.55
980.29	226.60
980.59	226.46
980.88	226.53
981.17	226.55
981.46	226.50
981.76	226.56
982.05	226.76
982.34	226.73
982.63	226.75
982.93	226.74
983.22	226.91
983.51	226.86
983.80	226.86
984.09	226.99
984.39	226.95
984.68	226.79
984.97	226.87
985.26	226.74
985.55	226.83
985.85	226.72
986.14	226.89
986.43	226.89
986.72	226.91
987.01	226.86
987.30	226.81
987.59	226.77
987.89	226.77
988.18	226.51
988.47	226.54
988.76	226.47
989.05	226.40
989.34	226.25
989.63	226.32
989.92	226.30
990.22	226.27
990.51	226.28
990.80	226.24
991.09	226.21
991.38	226.33
991.67	226.26
991.96	226.26
992.25	226.27
992.54	226.20
992.83	226.17
993.12	226.12
993.41	226.22
993.70	226.45
993.99	226.53
994.28	226.66
994.58	226.67
994.87	226.68
995.16	226.72
995.45	226.75
995.74	226.60
996.03	226.68
996.32	226.75
996.61	226.84
996.90	226.85
997.19	226.83
997.48	226.75
997.77	226.75
998.06	226.70
998.34	226.61
998.63	226.58
998.92	226.59
999.21	226.68
999.50	226.65
999.79	226.46
1000.08	226.38
1000.37	226.36
1000.66	226.27
1000.95	226.37
1001.24	226.38
1001.53	226.38
1001.82	226.35
1002.11	226.21
1002.40	226.18
1002.68	226.31
1002.97	226.63
1003.26	226.58
1003.55	226.59
1003.84	226.58
1004.13	226.80
1004.42	226.73
1004.71	226.77
1004.99	226.78
1005.28	226.90
1005.57	226.88
1005.86	226.82
1006.15	226.75
1006.44	226.66
1006.72	226.72
1007.01	226.60
1007.30	226.63
1007.59	226.61
1007.88	226.64
1008.17	226.65
1008.45	226.61
1008.74	226.41
1009.03	226.21
1009.32	226.23
1009.60	226.18
1009.89	226.18
1010.18	225.90
1010.47	225.89
1010.76	225.87
1011.04	225.85
1011.33	225.79
1011.62	225.90
1011.91	225.95
1012.19	225.99
1012.48	226.03
1012.77	226.02
1013.05	226.35
1013.34	226.30
1013.63	226.23
1013.92	226.29
1014.20	226.25
1014.49	226.22
1014.78	226.27
1015.06	226.07
1015.35	226.08
1015.64	226.20
1015.92	226.24
1016.21	226.38
1016.50	226.42
1016.78	226.52
1017.07	226.60
1017.36	226.52
1017.64	226.42
1017.93	226.46
1018.22	226.46
1018.50	226.49
1018.79	226.49
1019.08	226.17
1019.36	226.18
1019.65	226.20
1019.93	226.33
1020.22	226.42
1020.51	226.72
1020.79	226.66
1021.08	225.55
1021.36	226.45
1021.65	225.85
1021.94	225.35
1022.22	225.95
1022.51	225.85
1022.79	228.85
1023.08	226.85
1023.36	232.50
1023.65	225.45
>>>>>End Processed Spectral Data<<<<<
