SpectraSuite Data File
++++++++++++++++++++++++++++++++++++
Date: Wed Sep 04 18:02:16 EDT 2013
User: lab3
Dark Spectrum Present: Yes
Reference Spectrum Present: No
Number of Sampled Component Spectra: 1
Spectrometers: USB2E7196
Integration Time (usec): 170000 (USB2E7196)
Spectra Averaged: 20 (USB2E7196)
Boxcar Smoothing: 10 (USB2E7196)
Correct for Electrical Dark: No (USB2E7196)
Strobe/Lamp Enabled: No (USB2E7196)
Correct for Detector Non-linearity: No (USB2E7196)
Correct for Stray Light: No (USB2E7196)
Number of Pixels in Processed Spectrum: 2048
>>>>>Begin Processed Spectral Data<<<<<
339.09	0.00
339.48	213.45
339.86	214.90
340.24	215.65
340.63	219.35
341.01	225.90
341.39	219.60
341.78	222.70
342.16	224.65
342.54	224.15
342.93	212.90
343.31	223.62
343.69	224.16
344.07	224.67
344.46	225.20
344.84	225.52
345.22	225.52
345.60	225.82
345.99	226.03
346.37	226.11
346.75	226.24
347.13	226.29
347.52	226.37
347.90	226.55
348.28	226.59
348.66	226.61
349.05	226.56
349.43	226.65
349.81	226.69
350.19	226.70
350.57	226.75
350.96	226.87
351.34	227.01
351.72	227.07
352.10	227.14
352.48	227.11
352.87	227.18
353.25	227.23
353.63	227.31
354.01	227.37
354.39	227.40
354.77	227.47
355.15	227.63
355.54	227.64
355.92	227.51
356.30	227.63
356.68	228.06
357.06	228.09
357.44	227.98
357.82	228.09
358.20	228.58
358.58	228.60
358.97	228.70
359.35	228.87
359.73	229.02
360.11	229.10
360.49	229.25
360.87	229.26
361.25	229.36
361.63	229.57
362.01	229.65
362.39	229.76
362.77	229.85
363.15	229.89
363.53	229.96
363.91	230.09
364.29	230.09
364.67	229.70
365.05	229.82
365.43	229.94
365.81	230.03
366.19	229.89
366.57	230.10
366.95	230.09
367.33	229.89
367.71	229.94
368.09	229.96
368.47	229.93
368.85	230.00
369.23	230.10
369.61	229.93
369.99	229.98
370.37	229.98
370.75	230.09
371.13	229.95
371.51	229.89
371.89	229.88
372.27	229.86
372.65	229.80
373.03	229.74
373.41	229.73
373.78	229.66
374.16	229.35
374.54	229.20
374.92	229.11
375.30	229.15
375.68	228.99
376.06	229.03
376.44	228.94
376.82	228.85
377.19	228.70
377.57	228.60
377.95	228.43
378.33	228.30
378.71	228.08
379.09	228.06
379.47	227.97
379.84	227.85
380.22	227.76
380.60	227.61
380.98	227.50
381.36	227.36
381.73	227.21
382.11	227.29
382.49	227.28
382.87	227.18
383.25	227.13
383.62	227.55
384.00	227.37
384.38	227.36
384.76	227.40
385.13	227.57
385.51	227.56
385.89	227.47
386.27	227.46
386.64	227.48
387.02	227.40
387.40	227.28
387.78	227.25
388.15	227.21
388.53	227.18
388.91	227.17
389.29	227.15
389.66	227.21
390.04	227.06
390.42	227.08
390.79	227.09
391.17	227.01
391.55	226.59
391.92	226.58
392.30	226.60
392.68	226.53
393.05	226.51
393.43	226.55
393.81	226.60
394.18	226.59
394.56	226.50
394.94	226.58
395.31	226.66
395.69	226.82
396.06	226.89
396.44	226.96
396.82	226.97
397.19	227.28
397.57	227.32
397.95	227.47
398.32	227.38
398.70	227.43
399.07	227.63
399.45	227.69
399.82	227.79
400.20	227.83
400.58	227.89
400.95	227.82
401.33	227.93
401.70	228.34
402.08	228.42
402.45	228.62
402.83	228.89
403.20	229.09
403.58	229.16
403.95	229.45
404.33	229.69
404.71	229.93
405.08	230.32
405.46	230.50
405.83	230.70
406.21	230.99
406.58	231.29
406.96	231.50
407.33	231.79
407.70	232.03
408.08	232.75
408.45	233.17
408.83	233.64
409.20	234.03
409.58	234.22
409.95	234.80
410.33	235.31
410.70	235.74
411.08	236.35
411.45	236.95
411.82	237.40
412.20	238.19
412.57	239.16
412.95	239.50
413.32	240.39
413.69	241.19
414.07	242.17
414.44	243.16
414.82	244.22
415.19	245.46
415.56	246.76
415.94	247.83
416.31	249.35
416.68	250.76
417.06	252.40
417.43	254.04
417.81	255.82
418.18	257.71
418.55	259.61
418.93	261.61
419.30	263.72
419.67	266.07
420.04	268.33
420.42	270.68
420.79	273.72
421.16	276.58
421.54	279.78
421.91	282.74
422.28	285.83
422.66	289.15
423.03	292.65
423.40	296.11
423.77	299.59
424.15	303.18
424.52	306.97
424.89	311.19
425.26	315.22
425.64	319.03
426.01	323.22
426.38	327.69
426.75	332.28
427.13	336.94
427.50	341.67
427.87	346.65
428.24	351.58
428.61	356.23
428.99	361.50
429.36	366.93
429.73	372.45
430.10	378.00
430.47	383.74
430.85	389.47
431.22	395.63
431.59	402.51
431.96	408.75
432.33	415.74
432.70	422.41
433.08	430.34
433.45	437.85
433.82	445.24
434.19	453.53
434.56	461.55
434.93	469.35
435.30	477.17
435.68	485.89
436.05	494.33
436.42	502.81
436.79	510.50
437.16	518.97
437.53	527.83
437.90	536.77
438.27	545.28
438.64	554.07
439.01	562.34
439.38	569.44
439.75	576.73
440.13	584.93
440.50	592.53
440.87	598.60
441.24	604.97
441.61	611.93
441.98	616.93
442.35	622.95
442.72	628.85
443.09	634.77
443.46	638.07
443.83	640.46
444.20	642.29
444.57	644.99
444.94	645.92
445.31	646.96
445.68	648.18
446.05	648.43
446.42	647.27
446.79	645.95
447.16	644.49
447.53	643.04
447.90	639.08
448.27	635.28
448.64	630.36
449.01	626.57
449.37	620.35
449.74	614.25
450.11	607.48
450.48	599.72
450.85	591.55
451.22	584.71
451.59	577.99
451.96	571.57
452.33	563.45
452.70	556.13
453.07	547.38
453.43	538.22
453.80	529.76
454.17	521.60
454.54	513.83
454.91	505.52
455.28	497.52
455.65	490.15
456.02	483.30
456.38	476.75
456.75	469.01
457.12	462.49
457.49	456.19
457.86	449.61
458.23	444.44
458.59	438.68
458.96	432.78
459.33	427.61
459.70	422.57
460.07	418.43
460.43	413.66
460.80	409.40
461.17	405.63
461.54	401.64
461.91	397.69
462.27	393.74
462.64	390.49
463.01	386.93
463.38	383.55
463.74	379.46
464.11	376.54
464.48	373.93
464.85	371.13
465.21	368.98
465.58	366.62
465.95	363.75
466.32	361.57
466.68	359.28
467.05	357.10
467.42	354.82
467.78	352.50
468.15	350.33
468.52	348.76
468.88	346.53
469.25	344.60
469.62	343.20
469.98	341.62
470.35	340.09
470.72	338.67
471.08	337.00
471.45	335.84
471.82	334.50
472.18	333.04
472.55	332.04
472.92	330.70
473.28	329.56
473.65	328.45
474.02	327.37
474.38	326.58
474.75	325.84
475.11	324.93
475.48	324.27
475.85	323.74
476.21	323.00
476.58	322.47
476.94	322.04
477.31	321.62
477.67	321.24
478.04	320.84
478.41	320.54
478.77	320.84
479.14	320.50
479.50	320.42
479.87	320.44
480.23	320.43
480.60	320.36
480.96	320.40
481.33	320.79
481.69	321.12
482.06	321.38
482.42	321.55
482.79	322.05
483.15	322.54
483.52	323.18
483.88	323.67
484.25	324.25
484.61	324.92
484.98	325.51
485.34	326.44
485.71	327.49
486.07	328.57
486.44	329.13
486.80	330.20
487.17	331.42
487.53	332.78
487.90	334.17
488.26	335.80
488.62	337.53
488.99	339.11
489.35	340.87
489.72	342.70
490.08	344.84
490.44	346.80
490.81	349.05
491.17	351.24
491.54	353.78
491.90	356.37
492.26	359.05
492.63	361.90
492.99	364.75
493.36	367.83
493.72	371.06
494.08	374.65
494.45	378.47
494.81	382.35
495.17	386.19
495.54	390.44
495.90	394.82
496.26	399.24
496.63	403.84
496.99	408.53
497.35	413.63
497.72	418.87
498.08	424.36
498.44	430.04
498.80	436.07
499.17	442.25
499.53	448.60
499.89	455.33
500.26	462.20
500.62	469.24
500.98	476.55
501.34	484.06
501.71	491.76
502.07	499.55
502.43	507.69
502.79	516.18
503.16	524.72
503.52	533.63
503.88	542.84
504.24	552.56
504.60	562.48
504.97	572.83
505.33	583.26
505.69	594.43
506.05	605.60
506.41	616.79
506.78	628.52
507.14	640.61
507.50	652.92
507.86	665.53
508.22	678.67
508.59	691.87
508.95	705.53
509.31	719.75
509.67	734.08
510.03	748.52
510.39	763.25
510.75	778.38
511.12	793.71
511.48	809.35
511.84	825.22
512.20	841.35
512.56	857.64
512.92	874.51
513.28	891.43
513.64	908.63
514.00	926.37
514.37	944.11
514.73	962.34
515.09	980.60
515.45	999.03
515.81	1017.11
516.17	1035.99
516.53	1054.75
516.89	1073.42
517.25	1093.13
517.61	1113.41
517.97	1133.95
518.33	1154.30
518.69	1174.70
519.05	1195.64
519.41	1216.36
519.77	1237.42
520.13	1258.43
520.49	1279.10
520.85	1301.21
521.21	1322.32
521.57	1343.85
521.93	1364.71
522.29	1386.01
522.65	1406.66
523.01	1427.82
523.37	1448.81
523.73	1469.87
524.09	1490.62
524.45	1511.55
524.81	1532.33
525.17	1552.86
525.53	1573.29
525.89	1593.87
526.25	1614.65
526.61	1634.82
526.97	1655.81
527.33	1677.39
527.68	1699.18
528.04	1720.39
528.40	1740.15
528.76	1761.57
529.12	1781.73
529.48	1802.68
529.84	1822.96
530.20	1844.28
530.56	1865.01
530.91	1886.12
531.27	1906.56
531.63	1927.36
531.99	1948.04
532.35	1968.03
532.71	1988.39
533.07	2009.00
533.42	2029.01
533.78	2049.32
534.14	2069.35
534.50	2088.40
534.86	2107.65
535.21	2125.44
535.57	2144.19
535.93	2162.18
536.29	2180.07
536.65	2198.43
537.00	2216.19
537.36	2233.73
537.72	2250.62
538.08	2268.14
538.44	2285.10
538.79	2301.74
539.15	2318.16
539.51	2334.05
539.87	2349.63
540.22	2363.94
540.58	2378.38
540.94	2392.02
541.29	2404.43
541.65	2416.88
542.01	2429.90
542.37	2440.54
542.72	2451.44
543.08	2462.35
543.44	2474.20
543.79	2484.24
544.15	2494.38
544.51	2504.57
544.87	2514.28
545.22	2522.84
545.58	2530.21
545.94	2537.41
546.29	2543.98
546.65	2550.62
547.01	2556.05
547.36	2561.59
547.72	2567.24
548.07	2571.56
548.43	2576.96
548.79	2582.10
549.14	2586.58
549.50	2590.18
549.86	2594.51
550.21	2598.34
550.57	2601.88
550.92	2603.30
551.28	2604.70
551.64	2606.73
551.99	2608.87
552.35	2610.58
552.70	2612.84
553.06	2614.53
553.41	2615.76
553.77	2617.60
554.13	2619.55
554.48	2621.54
554.84	2623.20
555.19	2624.22
555.55	2625.68
555.90	2624.97
556.26	2624.22
556.61	2622.84
556.97	2621.16
557.32	2620.27
557.68	2619.40
558.03	2617.61
558.39	2616.56
558.74	2615.90
559.10	2613.21
559.45	2609.59
559.81	2605.16
560.16	2600.13
560.52	2595.64
560.87	2591.36
561.23	2585.99
561.58	2579.15
561.94	2572.15
562.29	2564.48
562.64	2557.78
563.00	2549.80
563.35	2543.45
563.71	2536.62
564.06	2530.53
564.42	2524.05
564.77	2517.62
565.12	2510.03
565.48	2502.39
565.83	2494.12
566.19	2485.97
566.54	2477.94
566.89	2469.53
567.25	2461.87
567.60	2454.63
567.96	2447.10
568.31	2439.08
568.66	2430.67
569.02	2422.33
569.37	2414.55
569.72	2407.34
570.08	2397.89
570.43	2388.21
570.78	2378.92
571.14	2369.63
571.49	2359.40
571.84	2349.83
572.20	2338.25
572.55	2327.96
572.90	2317.26
573.26	2306.99
573.61	2296.01
573.96	2284.92
574.31	2273.24
574.67	2261.40
575.02	2248.69
575.37	2235.91
575.72	2222.54
576.08	2210.26
576.43	2197.66
576.78	2184.38
577.13	2170.25
577.49	2157.63
577.84	2146.05
578.19	2134.01
578.54	2121.32
578.90	2109.19
579.25	2096.85
579.60	2084.40
579.95	2071.77
580.30	2058.80
580.66	2045.17
581.01	2031.42
581.36	2017.18
581.71	2004.48
582.06	1991.42
582.42	1978.67
582.77	1966.06
583.12	1954.27
583.47	1941.99
583.82	1929.77
584.17	1917.60
584.53	1905.67
584.88	1892.41
585.23	1879.16
585.58	1864.86
585.93	1851.53
586.28	1837.82
586.63	1823.41
586.98	1809.24
587.34	1795.75
587.69	1782.36
588.04	1769.91
588.39	1757.67
588.74	1745.62
589.09	1733.03
589.44	1720.15
589.79	1708.13
590.14	1695.95
590.49	1683.60
590.84	1671.16
591.19	1659.04
591.54	1646.77
591.89	1634.76
592.25	1624.76
592.60	1613.01
592.95	1601.57
593.30	1589.67
593.65	1577.98
594.00	1565.82
594.35	1555.94
594.70	1544.03
595.05	1532.41
595.40	1520.15
595.75	1508.09
596.10	1496.71
596.45	1485.34
596.80	1474.35
597.15	1462.56
597.50	1450.75
597.85	1439.22
598.19	1427.47
598.54	1415.85
598.89	1404.17
599.24	1393.59
599.59	1381.80
599.94	1370.96
600.29	1360.62
600.64	1349.99
600.99	1338.99
601.34	1329.56
601.69	1318.38
602.04	1308.28
602.39	1298.63
602.74	1289.53
603.08	1280.31
603.43	1270.85
603.78	1260.97
604.13	1251.41
604.48	1241.80
604.83	1232.05
605.18	1222.43
605.53	1212.86
605.87	1203.57
606.22	1195.20
606.57	1185.60
606.92	1175.98
607.27	1166.86
607.62	1157.82
607.96	1149.25
608.31	1141.31
608.66	1132.94
609.01	1124.32
609.36	1115.66
609.70	1107.06
610.05	1098.26
610.40	1089.49
610.75	1080.55
611.10	1072.17
611.44	1063.42
611.79	1055.19
612.14	1047.16
612.49	1038.90
612.83	1031.34
613.18	1023.56
613.53	1015.83
613.88	1007.67
614.22	1000.05
614.57	992.07
614.92	983.95
615.27	976.41
615.61	968.65
615.96	960.68
616.31	953.05
616.65	946.03
617.00	938.38
617.35	931.07
617.70	923.94
618.04	916.81
618.39	909.99
618.74	903.61
619.08	896.72
619.43	889.58
619.78	882.60
620.12	875.33
620.47	868.30
620.82	860.93
621.16	854.10
621.51	847.57
621.85	841.23
622.20	834.73
622.55	827.81
622.89	821.26
623.24	815.01
623.59	808.61
623.93	802.02
624.28	795.88
624.62	790.21
624.97	784.27
625.32	778.77
625.66	772.65
626.01	766.35
626.35	760.82
626.70	755.34
627.04	750.00
627.39	744.54
627.73	739.37
628.08	734.27
628.43	728.95
628.77	723.55
629.12	718.16
629.46	713.18
629.81	708.51
630.15	703.68
630.50	698.72
630.84	693.73
631.19	689.15
631.53	684.42
631.88	679.12
632.22	674.08
632.57	669.14
632.91	664.48
633.26	660.09
633.60	655.43
633.95	650.73
634.29	645.87
634.64	641.40
634.98	636.35
635.32	631.79
635.67	627.83
636.01	623.58
636.36	619.37
636.70	615.41
637.05	611.14
637.39	606.97
637.73	602.74
638.08	598.76
638.42	594.28
638.77	590.13
639.11	585.79
639.45	581.64
639.80	577.40
640.14	573.40
640.49	569.28
640.83	565.23
641.17	561.44
641.52	557.87
641.86	554.16
642.20	551.02
642.55	547.37
642.89	543.58
643.23	539.94
643.58	536.82
643.92	533.08
644.26	529.73
644.61	526.38
644.95	522.90
645.29	519.40
645.64	516.41
645.98	513.22
646.32	510.29
646.66	507.20
647.01	504.25
647.35	501.35
647.69	498.49
648.04	495.70
648.38	492.96
648.72	489.98
649.06	486.97
649.41	483.70
649.75	480.78
650.09	477.94
650.43	475.02
650.78	471.95
651.12	469.11
651.46	466.19
651.80	463.37
652.14	460.80
652.49	458.34
652.83	455.74
653.17	452.96
653.51	450.14
653.85	447.75
654.20	445.15
654.54	442.55
654.88	439.94
655.22	437.58
655.56	435.11
655.90	432.65
656.25	430.41
656.59	428.30
656.93	425.95
657.27	423.79
657.61	421.44
657.95	419.17
658.29	417.00
658.64	414.95
658.98	412.64
659.32	410.33
659.66	408.05
660.00	405.85
660.34	403.82
660.68	401.77
661.02	399.61
661.36	397.71
661.70	395.62
662.05	393.59
662.39	391.66
662.73	389.84
663.07	388.20
663.41	386.28
663.75	384.33
664.09	382.61
664.43	380.57
664.77	378.88
665.11	377.11
665.45	375.46
665.79	373.72
666.13	372.06
666.47	370.51
666.81	368.74
667.15	367.01
667.49	365.47
667.83	364.40
668.17	362.89
668.51	361.35
668.85	359.96
669.19	358.87
669.53	357.25
669.87	355.75
670.21	354.22
670.55	352.87
670.89	351.77
671.23	350.39
671.57	349.04
671.91	347.67
672.25	346.36
672.58	345.02
672.92	343.65
673.26	342.40
673.60	341.13
673.94	340.10
674.28	339.03
674.62	337.85
674.96	336.28
675.30	335.17
675.64	333.96
675.97	332.79
676.31	331.43
676.65	330.26
676.99	329.22
677.33	328.01
677.67	326.94
678.01	325.58
678.34	324.50
678.68	323.60
679.02	322.52
679.36	321.48
679.70	320.50
680.04	319.54
680.37	318.66
680.71	317.67
681.05	316.75
681.39	315.84
681.73	314.97
682.06	314.16
682.40	313.24
682.74	312.47
683.08	311.74
683.42	310.80
683.75	310.09
684.09	309.08
684.43	308.32
684.77	307.47
685.10	306.71
685.44	305.96
685.78	305.08
686.12	304.37
686.45	303.54
686.79	302.70
687.13	301.98
687.46	301.17
687.80	300.61
688.14	299.73
688.48	298.95
688.81	298.12
689.15	297.50
689.49	296.72
689.82	296.01
690.16	295.26
690.50	294.65
690.83	293.87
691.17	293.18
691.51	292.47
691.84	291.85
692.18	291.11
692.52	290.39
692.85	289.81
693.19	289.37
693.52	288.89
693.86	288.21
694.20	287.64
694.53	287.06
694.87	286.32
695.21	285.74
695.54	285.13
695.88	284.50
696.21	283.74
696.55	283.12
696.88	282.42
697.22	281.71
697.56	281.17
697.89	280.55
698.23	280.13
698.56	279.58
698.90	278.99
699.23	278.46
699.57	277.92
699.90	277.28
700.24	276.59
700.58	276.05
700.91	275.65
701.25	275.40
701.58	275.20
701.92	274.78
702.25	274.40
702.59	273.90
702.92	273.60
703.26	273.21
703.59	272.76
703.93	272.73
704.26	272.34
704.60	271.88
704.93	271.47
705.26	270.89
705.60	270.63
705.93	270.10
706.27	269.85
706.60	269.55
706.94	269.40
707.27	268.96
707.61	268.56
707.94	268.18
708.27	267.53
708.61	266.80
708.94	266.35
709.28	265.88
709.61	265.51
709.94	265.15
710.28	264.75
710.61	264.49
710.95	263.70
711.28	263.62
711.61	263.28
711.95	263.02
712.28	262.60
712.61	262.16
712.95	262.17
713.28	261.98
713.61	261.62
713.95	261.11
714.28	260.71
714.61	260.32
714.95	259.97
715.28	259.53
715.61	259.24
715.95	258.98
716.28	258.67
716.61	258.42
716.95	257.95
717.28	257.55
717.61	257.12
717.94	256.86
718.28	256.18
718.61	255.74
718.94	255.40
719.27	255.19
719.61	254.93
719.94	254.55
720.27	254.07
720.60	253.80
720.94	253.56
721.27	253.52
721.60	253.33
721.93	253.07
722.27	253.05
722.60	252.82
722.93	252.47
723.26	252.31
723.59	251.93
723.93	251.83
724.26	251.72
724.59	251.56
724.92	251.40
725.25	251.42
725.59	251.30
725.92	251.19
726.25	250.97
726.58	250.74
726.91	250.45
727.24	250.28
727.57	250.06
727.91	249.73
728.24	249.53
728.57	249.27
728.90	249.15
729.23	248.80
729.56	248.90
729.89	248.79
730.22	248.55
730.55	248.37
730.89	248.20
731.22	248.00
731.55	247.84
731.88	247.66
732.21	247.38
732.54	247.16
732.87	246.96
733.20	246.86
733.53	246.75
733.86	246.60
734.19	246.35
734.52	246.23
734.85	246.51
735.18	246.23
735.51	246.22
735.84	246.02
736.17	245.96
736.50	245.53
736.83	245.87
737.16	245.70
737.49	245.64
737.82	245.43
738.15	245.29
738.48	245.14
738.81	244.94
739.14	244.65
739.47	244.52
739.80	244.31
740.13	244.21
740.46	243.97
740.79	243.67
741.12	243.57
741.45	243.35
741.78	242.90
742.11	242.93
742.44	242.68
742.77	242.60
743.10	242.33
743.43	242.16
743.75	241.50
744.08	241.97
744.41	241.73
744.74	241.54
745.07	241.28
745.40	241.24
745.73	241.40
746.06	241.34
746.39	241.27
746.71	241.09
747.04	240.80
747.37	240.66
747.70	240.71
748.03	240.48
748.36	240.42
748.68	240.23
749.01	239.93
749.34	239.75
749.67	239.62
750.00	239.58
750.33	239.80
750.65	239.70
750.98	238.97
751.31	238.96
751.64	238.94
751.97	239.08
752.29	238.85
752.62	238.43
752.95	238.32
753.28	238.13
753.60	237.98
753.93	237.98
754.26	237.99
754.59	237.73
754.91	237.62
755.24	237.50
755.57	237.41
755.90	237.33
756.22	237.19
756.55	237.04
756.88	236.90
757.20	236.47
757.53	236.27
757.86	236.23
758.19	236.06
758.51	235.90
758.84	235.52
759.17	235.33
759.49	235.21
759.82	235.31
760.15	235.27
760.47	235.19
760.80	235.07
761.13	235.04
761.45	234.91
761.78	234.82
762.11	234.73
762.43	234.57
762.76	234.44
763.08	234.45
763.41	234.42
763.74	234.33
764.06	234.27
764.39	234.23
764.71	234.17
765.04	234.13
765.37	234.01
765.69	234.00
766.02	234.05
766.34	233.95
766.67	233.74
767.00	233.74
767.32	233.93
767.65	234.05
767.97	233.95
768.30	233.94
768.62	233.91
768.95	233.76
769.27	233.81
769.60	233.88
769.92	233.75
770.25	233.57
770.57	233.48
770.90	233.41
771.22	233.27
771.55	233.15
771.87	233.07
772.20	233.00
772.52	233.31
772.85	233.83
773.17	233.88
773.50	233.77
773.82	233.71
774.15	233.46
774.47	233.18
774.80	233.04
775.12	233.04
775.45	233.10
775.77	233.14
776.09	233.13
776.42	233.04
776.74	233.14
777.07	233.12
777.39	233.04
777.72	232.96
778.04	233.05
778.36	233.02
778.69	233.05
779.01	233.11
779.33	232.74
779.66	232.17
779.98	232.09
780.31	232.10
780.63	232.19
780.95	232.21
781.28	232.21
781.60	232.18
781.92	232.15
782.25	232.02
782.57	231.96
782.89	231.86
783.22	231.79
783.54	231.63
783.86	231.67
784.19	231.66
784.51	231.78
784.83	231.74
785.16	231.70
785.48	231.59
785.80	231.55
786.12	231.59
786.45	231.49
786.77	231.47
787.09	231.43
787.42	231.29
787.74	231.25
788.06	231.21
788.38	231.11
788.71	230.97
789.03	231.00
789.35	231.02
789.67	230.95
789.99	231.00
790.32	230.92
790.64	230.87
790.96	231.23
791.28	231.05
791.61	230.93
791.93	230.88
792.25	230.87
792.57	231.14
792.89	231.02
793.21	231.06
793.54	230.96
793.86	230.91
794.18	230.84
794.50	230.78
794.82	230.70
795.14	230.80
795.47	230.86
795.79	230.81
796.11	230.66
796.43	230.65
796.75	230.66
797.07	230.70
797.39	230.69
797.71	230.34
798.04	230.35
798.36	230.37
798.68	230.35
799.00	230.35
799.32	230.09
799.64	230.15
799.96	230.10
800.28	230.20
800.60	230.16
800.92	230.16
801.24	230.10
801.56	230.21
801.89	230.13
802.21	230.10
802.53	229.98
802.85	230.10
803.17	230.25
803.49	230.04
803.81	229.93
804.13	229.80
804.45	229.68
804.77	229.68
805.09	229.62
805.41	229.51
805.73	229.43
806.05	229.26
806.37	229.19
806.69	229.09
807.01	229.04
807.33	228.96
807.65	228.78
807.97	228.96
808.28	228.85
808.60	228.75
808.92	228.71
809.24	229.06
809.56	228.94
809.88	228.74
810.20	228.72
810.52	228.76
810.84	228.71
811.16	228.67
811.48	228.59
811.80	228.79
812.12	228.78
812.43	228.80
812.75	228.91
813.07	228.80
813.39	228.81
813.71	228.71
814.03	228.66
814.35	228.66
814.67	228.42
814.98	228.38
815.30	228.42
815.62	228.36
815.94	228.02
816.26	228.22
816.58	228.05
816.89	228.06
817.21	227.95
817.53	228.05
817.85	228.05
818.17	228.01
818.48	227.83
818.80	227.92
819.12	227.90
819.44	227.81
819.76	227.84
820.07	227.85
820.39	227.89
820.71	228.00
821.03	228.06
821.34	227.96
821.66	228.00
821.98	228.03
822.30	227.94
822.61	228.25
822.93	228.05
823.25	228.11
823.57	228.13
823.88	228.20
824.20	228.17
824.52	228.25
824.83	228.27
825.15	228.22
825.47	228.21
825.79	228.22
826.10	228.21
826.42	228.18
826.74	228.23
827.05	228.22
827.37	228.22
827.69	228.17
828.00	228.30
828.32	228.36
828.64	228.32
828.95	228.68
829.27	228.54
829.58	228.52
829.90	228.63
830.22	228.68
830.53	228.63
830.85	228.59
831.17	228.52
831.48	228.54
831.80	228.53
832.11	228.52
832.43	228.49
832.75	228.49
833.06	228.72
833.38	228.55
833.69	228.50
834.01	228.51
834.32	228.46
834.64	228.35
834.96	228.29
835.27	228.28
835.59	228.12
835.90	227.99
836.22	227.96
836.53	227.82
836.85	227.79
837.16	228.36
837.48	228.40
837.79	228.55
838.11	228.57
838.42	228.58
838.74	228.62
839.05	228.54
839.37	228.54
839.68	228.26
840.00	228.28
840.31	228.31
840.63	228.26
840.94	228.27
841.26	228.25
841.57	228.31
841.88	228.33
842.20	228.23
842.51	228.18
842.83	228.09
843.14	228.55
843.46	228.43
843.77	228.02
844.08	227.93
844.40	227.74
844.71	227.68
845.03	227.63
845.34	227.64
845.65	227.59
845.97	227.59
846.28	227.61
846.60	227.62
846.91	227.60
847.22	227.58
847.54	227.75
847.85	227.77
848.16	227.60
848.48	227.44
848.79	227.66
849.10	227.76
849.42	227.79
849.73	227.30
850.04	227.31
850.36	227.15
850.67	227.23
850.98	227.21
851.30	227.19
851.61	227.14
851.92	227.02
852.23	227.17
852.55	227.14
852.86	227.14
853.17	227.18
853.49	227.21
853.80	227.25
854.11	227.15
854.42	227.25
854.74	227.28
855.05	227.40
855.36	227.05
855.67	227.04
855.99	227.15
856.30	227.75
856.61	227.77
856.92	227.87
857.23	227.85
857.55	227.85
857.86	227.94
858.17	228.03
858.48	228.04
858.79	228.01
859.11	228.08
859.42	228.08
859.73	228.03
860.04	228.07
860.35	227.93
860.66	227.82
860.98	227.73
861.29	227.76
861.60	227.76
861.91	227.96
862.22	227.89
862.53	227.79
862.84	227.25
863.16	227.40
863.47	227.31
863.78	227.30
864.09	227.37
864.40	227.34
864.71	227.32
865.02	227.36
865.33	227.30
865.64	227.17
865.95	227.22
866.27	227.52
866.58	227.52
866.89	227.59
867.20	227.58
867.51	227.56
867.82	227.56
868.13	227.71
868.44	227.53
868.75	227.63
869.06	227.67
869.37	227.71
869.68	227.55
869.99	227.66
870.30	227.70
870.61	227.68
870.92	227.61
871.23	227.58
871.54	227.68
871.85	227.77
872.16	227.87
872.47	227.82
872.78	227.58
873.09	227.54
873.40	227.53
873.71	227.53
874.02	227.55
874.33	227.46
874.64	227.32
874.95	227.42
875.26	227.30
875.56	227.23
875.87	227.17
876.18	227.16
876.49	227.57
876.80	227.57
877.11	227.47
877.42	227.43
877.73	227.48
878.04	227.28
878.35	227.30
878.66	227.29
878.96	227.22
879.27	227.18
879.58	227.17
879.89	227.16
880.20	227.38
880.51	227.36
880.82	227.35
881.12	227.42
881.43	227.40
881.74	227.29
882.05	227.30
882.36	227.35
882.67	227.38
882.97	226.92
883.28	226.74
883.59	226.77
883.90	226.89
884.21	226.90
884.51	227.02
884.82	226.92
885.13	226.92
885.44	226.93
885.74	226.95
886.05	226.95
886.36	226.94
886.67	226.72
886.98	226.91
887.28	226.94
887.59	226.88
887.90	226.87
888.20	226.92
888.51	227.05
888.82	226.95
889.13	226.93
889.43	227.24
889.74	227.29
890.05	227.30
890.35	227.19
890.66	227.16
890.97	227.11
891.28	227.07
891.58	227.05
891.89	227.14
892.20	227.10
892.50	227.07
892.81	227.02
893.12	227.01
893.42	226.83
893.73	226.87
894.04	226.82
894.34	226.88
894.65	226.89
894.95	226.80
895.26	226.90
895.57	227.10
895.87	226.68
896.18	226.75
896.48	226.76
896.79	226.82
897.10	226.82
897.40	226.80
897.71	226.86
898.01	226.84
898.32	226.79
898.63	226.72
898.93	226.72
899.24	226.79
899.54	226.77
899.85	226.78
900.15	226.76
900.46	226.83
900.76	226.82
901.07	226.83
901.38	226.83
901.68	226.86
901.99	226.66
902.29	226.70
902.60	226.68
902.90	226.68
903.21	226.61
903.51	226.63
903.82	226.73
904.12	226.75
904.43	226.86
904.73	226.86
905.03	226.95
905.34	227.45
905.64	227.41
905.95	227.44
906.25	227.46
906.56	227.47
906.86	227.45
907.17	227.49
907.47	227.50
907.77	227.49
908.08	227.41
908.38	227.43
908.69	227.46
908.99	227.52
909.30	227.51
909.60	227.55
909.90	227.60
910.21	227.42
910.51	227.34
910.81	227.25
911.12	227.33
911.42	227.39
911.73	226.93
912.03	226.98
912.33	227.11
912.64	227.06
912.94	227.00
913.24	226.95
913.55	226.89
913.85	226.88
914.15	226.89
914.46	226.95
914.76	226.91
915.06	226.91
915.37	226.91
915.67	226.91
915.97	226.86
916.27	226.74
916.58	226.83
916.88	226.84
917.18	226.75
917.49	227.01
917.79	226.92
918.09	226.93
918.39	227.05
918.70	227.00
919.00	227.00
919.30	227.27
919.60	227.27
919.91	227.15
920.21	227.16
920.51	227.12
920.81	227.11
921.12	227.20
921.42	227.18
921.72	227.16
922.02	227.16
922.32	227.27
922.63	227.29
922.93	227.50
923.23	227.50
923.53	227.50
923.83	227.16
924.13	227.23
924.44	227.23
924.74	227.28
925.04	227.35
925.34	227.36
925.64	227.15
925.94	227.05
926.24	227.36
926.55	227.36
926.85	227.47
927.15	227.41
927.45	227.40
927.75	227.41
928.05	227.42
928.35	227.39
928.65	227.49
928.95	227.52
929.26	227.32
929.56	227.42
929.86	227.43
930.16	227.46
930.46	227.35
930.76	227.36
931.06	227.09
931.36	227.02
931.66	227.07
931.96	227.08
932.26	227.23
932.56	227.09
932.86	227.10
933.16	227.05
933.46	226.99
933.76	226.94
934.06	227.04
934.36	227.22
934.66	227.17
934.96	227.08
935.26	227.10
935.56	227.23
935.86	227.03
936.16	227.05
936.46	226.99
936.76	226.97
937.06	226.85
937.36	226.92
937.66	226.90
937.96	226.86
938.26	226.77
938.56	226.69
938.86	226.70
939.16	226.75
939.46	226.79
939.76	226.80
940.06	226.77
940.35	226.64
940.65	226.36
940.95	226.46
941.25	226.32
941.55	226.27
941.85	226.21
942.15	226.29
942.45	226.38
942.75	226.37
943.04	226.45
943.34	226.56
943.64	226.49
943.94	226.39
944.24	226.37
944.54	226.45
944.84	226.45
945.13	226.31
945.43	226.25
945.73	226.17
946.03	226.15
946.33	226.14
946.62	226.10
946.92	226.10
947.22	226.06
947.52	226.09
947.82	226.22
948.11	226.11
948.41	226.10
948.71	225.98
949.01	225.93
949.31	225.81
949.60	225.81
949.90	225.99
950.20	225.98
950.50	225.98
950.79	225.90
951.09	225.94
951.39	225.99
951.69	225.91
951.98	226.05
952.28	226.12
952.58	226.05
952.87	226.07
953.17	226.13
953.47	226.15
953.76	226.16
954.06	225.97
954.36	225.88
954.66	225.91
954.95	226.07
955.25	226.14
955.55	226.25
955.84	226.15
956.14	226.08
956.44	226.17
956.73	226.12
957.03	226.17
957.32	226.17
957.62	226.16
957.92	226.20
958.21	226.17
958.51	226.69
958.81	226.81
959.10	226.79
959.40	226.86
959.69	226.86
959.99	226.91
960.29	226.96
960.58	227.05
960.88	227.28
961.17	227.22
961.47	227.27
961.76	227.15
962.06	227.23
962.36	227.16
962.65	227.13
962.95	227.17
963.24	227.10
963.54	227.17
963.83	227.11
964.13	227.13
964.42	227.02
964.72	226.71
965.01	226.70
965.31	226.74
965.60	226.67
965.90	227.04
966.19	226.94
966.49	226.97
966.78	226.93
967.08	226.87
967.37	226.81
967.67	226.76
967.96	226.88
968.26	226.88
968.55	227.00
968.85	227.06
969.14	227.07
969.43	227.05
969.73	226.98
970.02	227.03
970.32	227.13
970.61	227.04
970.91	226.88
971.20	226.80
971.49	226.78
971.79	226.84
972.08	226.45
972.38	226.54
972.67	226.47
972.96	226.54
973.26	226.43
973.55	226.55
973.85	226.57
974.14	226.58
974.43	226.62
974.73	226.49
975.02	226.43
975.31	226.45
975.61	226.49
975.90	226.47
976.19	226.40
976.49	226.35
976.78	226.42
977.07	226.45
977.37	226.50
977.66	226.56
977.95	226.49
978.24	226.53
978.54	226.67
978.83	226.71
979.12	226.72
979.42	226.67
979.71	226.67
980.00	226.63
980.29	226.62
980.59	226.52
980.88	226.65
981.17	226.62
981.46	226.59
981.76	226.62
982.05	226.74
982.34	226.79
982.63	226.81
982.93	226.83
983.22	226.93
983.51	226.97
983.80	227.02
984.09	227.11
984.39	227.08
984.68	226.96
984.97	227.00
985.26	226.94
985.55	227.01
985.85	226.88
986.14	226.91
986.43	227.05
986.72	227.09
987.01	227.00
987.30	227.05
987.59	227.02
987.89	227.05
988.18	226.91
988.47	226.88
988.76	226.81
989.05	226.79
989.34	226.66
989.63	226.75
989.92	226.61
990.22	226.56
990.51	226.58
990.80	226.49
991.09	226.44
991.38	226.50
991.67	226.42
991.96	226.39
992.25	226.49
992.54	226.27
992.83	226.26
993.12	226.23
993.41	226.26
993.70	226.51
993.99	226.55
994.28	226.64
994.58	226.76
994.87	226.76
995.16	226.69
995.45	226.67
995.74	226.48
996.03	226.62
996.32	226.63
996.61	226.71
996.90	226.75
997.19	226.77
997.48	226.77
997.77	226.78
998.06	226.81
998.34	226.72
998.63	226.79
998.92	226.79
999.21	226.78
999.50	226.81
999.79	226.63
1000.08	226.59
1000.37	226.60
1000.66	226.49
1000.95	226.63
1001.24	226.76
1001.53	226.86
1001.82	226.94
1002.11	226.85
1002.40	226.93
1002.68	227.08
1002.97	227.38
1003.26	227.23
1003.55	227.18
1003.84	227.22
1004.13	227.30
1004.42	227.27
1004.71	227.30
1004.99	227.29
1005.28	227.38
1005.57	227.32
1005.86	227.26
1006.15	227.21
1006.44	227.17
1006.72	227.25
1007.01	227.13
1007.30	227.15
1007.59	227.00
1007.88	226.95
1008.17	227.00
1008.45	226.89
1008.74	226.60
1009.03	226.37
1009.32	226.50
1009.60	226.56
1009.89	226.42
1010.18	226.27
1010.47	226.28
1010.76	226.18
1011.04	226.16
1011.33	226.20
1011.62	226.19
1011.91	226.24
1012.19	226.28
1012.48	226.26
1012.77	226.23
1013.05	226.40
1013.34	226.36
1013.63	226.41
1013.92	226.36
1014.20	226.26
1014.49	226.30
1014.78	226.37
1015.06	226.19
1015.35	226.13
1015.64	226.12
1015.92	226.22
1016.21	226.25
1016.50	226.27
1016.78	226.36
1017.07	226.37
1017.36	226.28
1017.64	226.24
1017.93	226.28
1018.22	226.24
1018.50	226.19
1018.79	226.17
1019.08	225.99
1019.36	226.03
1019.65	225.93
1019.93	226.09
1020.22	226.16
1020.51	226.34
1020.79	226.26
1021.08	225.70
1021.36	225.05
1021.65	225.90
1021.94	226.45
1022.22	227.55
1022.51	224.65
1022.79	227.65
1023.08	226.60
1023.36	231.60
1023.65	224.35
>>>>>End Processed Spectral Data<<<<<
