SpectraSuite Data File
++++++++++++++++++++++++++++++++++++
Date: Wed Sep 04 17:40:44 EDT 2013
User: lab3
Dark Spectrum Present: Yes
Reference Spectrum Present: No
Number of Sampled Component Spectra: 1
Spectrometers: USB2E7196
Integration Time (usec): 170000 (USB2E7196)
Spectra Averaged: 20 (USB2E7196)
Boxcar Smoothing: 10 (USB2E7196)
Correct for Electrical Dark: No (USB2E7196)
Strobe/Lamp Enabled: No (USB2E7196)
Correct for Detector Non-linearity: No (USB2E7196)
Correct for Stray Light: No (USB2E7196)
Number of Pixels in Processed Spectrum: 2048
>>>>>Begin Processed Spectral Data<<<<<
339.09	0.00
339.48	211.45
339.86	214.50
340.24	215.25
340.63	217.60
341.01	224.75
341.39	220.25
341.78	222.00
342.16	224.00
342.54	223.55
342.93	211.97
343.31	222.65
343.69	223.27
344.07	223.69
344.46	224.14
344.84	224.51
345.22	224.50
345.60	224.69
345.99	224.87
346.37	224.95
346.75	225.00
347.13	225.11
347.52	225.21
347.90	225.45
348.28	225.45
348.66	225.55
349.05	225.48
349.43	225.54
349.81	225.60
350.19	225.53
350.57	225.64
350.96	225.67
351.34	225.77
351.72	225.87
352.10	226.01
352.48	226.11
352.87	226.12
353.25	226.23
353.63	226.28
354.01	226.32
354.39	226.34
354.77	226.41
355.15	226.54
355.54	226.51
355.92	226.37
356.30	226.44
356.68	226.82
357.06	226.88
357.44	226.84
357.82	226.90
358.20	227.38
358.58	227.35
358.97	227.43
359.35	227.55
359.73	227.76
360.11	227.81
360.49	227.88
360.87	227.95
361.25	228.00
361.63	228.23
362.01	228.27
362.39	228.32
362.77	228.39
363.15	228.34
363.53	228.41
363.91	228.52
364.29	228.55
364.67	228.14
365.05	228.16
365.43	228.37
365.81	228.45
366.19	228.33
366.57	228.53
366.95	228.52
367.33	228.42
367.71	228.39
368.09	228.49
368.47	228.46
368.85	228.42
369.23	228.53
369.61	228.37
369.99	228.50
370.37	228.55
370.75	228.70
371.13	228.64
371.51	228.53
371.89	228.55
372.27	228.53
372.65	228.52
373.03	228.49
373.41	228.27
373.78	228.20
374.16	227.90
374.54	227.70
374.92	227.58
375.30	227.51
375.68	227.31
376.06	227.22
376.44	227.09
376.82	227.13
377.19	226.96
377.57	226.84
377.95	226.58
378.33	226.54
378.71	226.20
379.09	226.26
379.47	226.28
379.84	226.08
380.22	225.95
380.60	225.83
380.98	225.70
381.36	225.65
381.73	225.51
382.11	225.48
382.49	225.43
382.87	225.34
383.25	225.29
383.62	225.76
384.00	225.65
384.38	225.61
384.76	225.61
385.13	225.72
385.51	225.70
385.89	225.65
386.27	225.56
386.64	225.66
387.02	225.49
387.40	225.44
387.78	225.45
388.15	225.45
388.53	225.35
388.91	225.39
389.29	225.35
389.66	225.42
390.04	225.39
390.42	225.47
390.79	225.61
391.17	225.59
391.55	225.07
391.92	225.10
392.30	225.12
392.68	224.95
393.05	224.97
393.43	225.01
393.81	225.02
394.18	225.01
394.56	225.05
394.94	225.19
395.31	225.21
395.69	225.44
396.06	225.55
396.44	225.71
396.82	225.72
397.19	226.02
397.57	226.04
397.95	226.18
398.32	226.07
398.70	226.11
399.07	226.28
399.45	226.30
399.82	226.35
400.20	226.44
400.58	226.60
400.95	226.49
401.33	226.72
401.70	227.19
402.08	227.29
402.45	227.38
402.83	227.62
403.20	227.73
403.58	227.72
403.95	227.94
404.33	228.08
404.71	228.27
405.08	228.75
405.46	228.90
405.83	229.10
406.21	229.41
406.58	229.69
406.96	229.92
407.33	230.26
407.70	230.54
408.08	231.24
408.45	231.67
408.83	232.14
409.20	232.40
409.58	232.49
409.95	232.99
410.33	233.45
410.70	233.69
411.08	234.22
411.45	234.80
411.82	235.24
412.20	235.94
412.57	236.76
412.95	236.91
413.32	237.69
413.69	238.35
414.07	239.04
414.44	239.79
414.82	240.66
415.19	241.61
415.56	242.63
415.94	243.42
416.31	244.54
416.68	245.67
417.06	247.03
417.43	248.40
417.81	249.81
418.18	251.33
418.55	252.96
418.93	254.69
419.30	256.42
419.67	258.33
420.04	260.18
420.42	262.10
420.79	264.72
421.16	267.00
421.54	269.60
421.91	272.12
422.28	274.71
422.66	277.40
423.03	280.42
423.40	283.20
423.77	286.18
424.15	289.15
424.52	292.31
424.89	295.79
425.26	299.14
425.64	302.23
426.01	305.67
426.38	309.31
426.75	313.06
427.13	316.77
427.50	320.66
427.87	324.71
428.24	328.68
428.61	332.35
428.99	336.84
429.36	341.24
429.73	345.85
430.10	350.44
430.47	355.16
430.85	359.75
431.22	364.81
431.59	370.50
431.96	375.58
432.33	381.30
432.70	386.84
433.08	393.33
433.45	399.47
433.82	405.62
434.19	412.48
434.56	419.22
434.93	425.60
435.30	432.01
435.68	439.21
436.05	446.41
436.42	453.45
436.79	459.79
437.16	466.74
437.53	474.04
437.90	481.21
438.27	488.33
438.64	495.64
439.01	502.65
439.38	508.46
439.75	514.55
440.13	521.29
440.50	527.57
440.87	532.62
441.24	538.11
441.61	543.85
441.98	548.01
442.35	552.85
442.72	558.04
443.09	562.98
443.46	565.69
443.83	567.51
444.20	568.98
444.57	571.15
444.94	572.21
445.31	573.17
445.68	574.48
446.05	574.70
446.42	573.80
446.79	572.65
447.16	571.36
447.53	570.25
447.90	567.24
448.27	564.05
448.64	560.10
449.01	557.10
449.37	552.08
449.74	547.19
450.11	541.63
450.48	535.10
450.85	528.47
451.22	523.07
451.59	517.74
451.96	512.70
452.33	506.15
452.70	499.98
453.07	492.78
453.43	485.20
453.80	478.23
454.17	471.58
454.54	465.20
454.91	458.51
455.28	452.00
455.65	445.76
456.02	440.54
456.38	435.28
456.75	428.85
457.12	423.57
457.49	418.36
457.86	412.93
458.23	408.81
458.59	404.21
458.96	399.30
459.33	395.06
459.70	390.83
460.07	387.42
460.43	383.63
460.80	380.15
461.17	377.17
461.54	373.90
461.91	370.81
462.27	367.63
462.64	364.94
463.01	362.10
463.38	359.47
463.74	355.85
464.11	353.23
464.48	351.01
464.85	348.59
465.21	346.80
465.58	345.02
465.95	342.60
466.32	340.73
466.68	338.88
467.05	336.97
467.42	335.17
467.78	333.25
468.15	331.49
468.52	330.17
468.88	328.21
469.25	326.66
469.62	325.40
469.98	324.06
470.35	322.84
470.72	321.60
471.08	320.18
471.45	319.26
471.82	318.42
472.18	317.28
472.55	316.47
472.92	315.47
473.28	314.60
473.65	313.79
474.02	312.92
474.38	312.31
474.75	311.87
475.11	311.17
475.48	310.73
475.85	310.24
476.21	309.75
476.58	309.45
476.94	309.20
477.31	308.80
477.67	308.55
478.04	308.33
478.41	308.16
478.77	308.65
479.14	308.41
479.50	308.34
479.87	308.47
480.23	308.56
480.60	308.61
480.96	308.69
481.33	309.06
481.69	309.37
482.06	309.59
482.42	309.83
482.79	310.25
483.15	310.64
483.52	311.33
483.88	311.82
484.25	312.39
484.61	313.04
484.98	313.80
485.34	314.74
485.71	315.68
486.07	316.70
486.44	317.23
486.80	318.30
487.17	319.29
487.53	320.50
487.90	321.70
488.26	323.27
488.62	324.84
488.99	326.20
489.35	327.75
489.72	329.51
490.08	331.31
490.44	333.08
490.81	335.14
491.17	337.08
491.54	339.30
491.90	341.66
492.26	344.10
492.63	346.55
492.99	349.05
493.36	351.81
493.72	354.81
494.08	357.85
494.45	361.21
494.81	364.85
495.17	368.28
495.54	372.13
495.90	375.85
496.26	379.80
496.63	383.98
496.99	388.23
497.35	392.76
497.72	397.43
498.08	402.28
498.44	407.34
498.80	412.72
499.17	418.09
499.53	423.66
499.89	429.66
500.26	435.79
500.62	442.12
500.98	448.71
501.34	455.29
501.71	462.19
502.07	469.06
502.43	476.22
502.79	483.60
503.16	491.30
503.52	499.21
503.88	507.32
504.24	515.91
504.60	524.75
504.97	533.78
505.33	542.86
505.69	552.58
506.05	562.28
506.41	572.04
506.78	582.28
507.14	592.74
507.50	603.30
507.86	614.29
508.22	625.44
508.59	636.55
508.95	648.25
509.31	660.33
509.67	672.53
510.03	684.64
510.39	697.26
510.75	709.87
511.12	722.79
511.48	736.05
511.84	749.15
512.20	762.62
512.56	776.32
512.92	790.45
513.28	804.62
513.64	818.93
514.00	833.48
514.37	848.14
514.73	863.09
515.09	878.05
515.45	893.16
515.81	908.41
516.17	923.98
516.53	939.25
516.89	954.57
517.25	970.45
517.61	986.88
517.97	1003.29
518.33	1019.76
518.69	1036.26
519.05	1052.91
519.41	1069.58
519.77	1086.47
520.13	1102.81
520.49	1119.42
520.85	1137.16
521.21	1154.08
521.57	1170.98
521.93	1187.40
522.29	1203.99
522.65	1220.17
523.01	1236.33
523.37	1252.15
523.73	1268.37
524.09	1284.18
524.45	1299.73
524.81	1315.67
525.17	1331.42
525.53	1347.18
525.89	1362.81
526.25	1378.42
526.61	1393.49
526.97	1409.25
527.33	1425.13
527.68	1441.72
528.04	1457.58
528.40	1472.02
528.76	1487.40
529.12	1502.45
529.48	1517.97
529.84	1532.58
530.20	1548.14
530.56	1563.30
530.91	1578.79
531.27	1593.58
531.63	1608.52
531.99	1623.36
532.35	1637.45
532.71	1651.90
533.07	1666.25
533.42	1680.41
533.78	1694.43
534.14	1708.46
534.50	1721.48
534.86	1734.69
535.21	1746.35
535.57	1758.67
535.93	1770.60
536.29	1782.38
536.65	1794.55
537.00	1806.11
537.36	1817.84
537.72	1828.33
538.08	1839.64
538.44	1850.13
538.79	1860.63
539.15	1871.18
539.51	1881.54
539.87	1891.34
540.22	1899.68
540.58	1908.75
540.94	1916.40
541.29	1923.83
541.65	1931.20
542.01	1938.67
542.37	1944.10
542.72	1950.20
543.08	1956.03
543.44	1962.32
543.79	1967.64
544.15	1972.67
544.51	1977.66
544.87	1982.23
545.22	1986.52
545.58	1989.63
545.94	1992.58
546.29	1994.80
546.65	1996.85
547.01	1998.34
547.36	2000.04
547.72	2001.51
548.07	2001.72
548.43	2003.11
548.79	2003.84
549.14	2004.06
549.50	2004.28
549.86	2004.78
550.21	2004.98
550.57	2005.15
550.92	2003.66
551.28	2002.13
551.64	2001.15
551.99	2000.00
552.35	1998.79
552.70	1997.77
553.06	1996.66
553.41	1995.20
553.77	1994.35
554.13	1992.93
554.48	1991.56
554.84	1990.25
555.19	1988.92
555.55	1988.23
555.90	1985.56
556.26	1982.85
556.61	1979.75
556.97	1976.20
557.32	1973.63
557.68	1970.86
558.03	1967.39
558.39	1964.27
558.74	1961.35
559.10	1956.92
559.45	1952.25
559.81	1946.84
560.16	1941.30
560.52	1935.95
560.87	1930.97
561.23	1925.03
561.58	1919.37
561.94	1912.82
562.29	1905.73
562.64	1898.90
563.00	1890.86
563.35	1884.52
563.71	1878.23
564.06	1871.86
564.42	1865.48
564.77	1858.86
565.12	1851.95
565.48	1845.01
565.83	1837.97
566.19	1830.93
566.54	1824.16
566.89	1817.26
567.25	1810.77
567.60	1804.16
567.96	1797.44
568.31	1790.40
568.66	1783.19
569.02	1775.42
569.37	1768.52
569.72	1761.76
570.08	1753.96
570.43	1746.04
570.78	1738.35
571.14	1730.50
571.49	1722.35
571.84	1714.45
572.20	1705.85
572.55	1697.50
572.90	1688.71
573.26	1680.56
573.61	1671.75
573.96	1662.96
574.31	1653.56
574.67	1644.34
575.02	1634.67
575.37	1624.77
575.72	1614.42
576.08	1605.20
576.43	1595.54
576.78	1585.19
577.13	1574.81
577.49	1565.43
577.84	1556.41
578.19	1547.11
578.54	1537.42
578.90	1528.30
579.25	1519.22
579.60	1509.85
579.95	1500.19
580.30	1490.54
580.66	1480.34
581.01	1470.47
581.36	1459.85
581.71	1450.33
582.06	1440.90
582.42	1431.74
582.77	1422.47
583.12	1414.06
583.47	1404.77
583.82	1396.10
584.17	1387.45
584.53	1378.99
584.88	1369.50
585.23	1360.09
585.58	1350.22
585.93	1340.73
586.28	1331.21
586.63	1320.90
586.98	1310.88
587.34	1301.62
587.69	1292.10
588.04	1283.21
588.39	1274.81
588.74	1266.29
589.09	1257.80
589.44	1248.51
589.79	1239.78
590.14	1231.35
590.49	1222.38
590.84	1213.81
591.19	1205.19
591.54	1196.74
591.89	1187.96
592.25	1180.85
592.60	1172.79
592.95	1164.85
593.30	1156.79
593.65	1148.56
594.00	1140.47
594.35	1134.00
594.70	1125.54
595.05	1117.78
595.40	1109.46
595.75	1100.88
596.10	1093.14
596.45	1085.29
596.80	1077.71
597.15	1069.76
597.50	1061.57
597.85	1054.16
598.19	1046.34
598.54	1038.52
598.89	1030.78
599.24	1023.50
599.59	1015.42
599.94	1007.91
600.29	1000.48
600.64	993.29
600.99	985.87
601.34	979.19
601.69	971.00
602.04	964.40
602.39	957.59
602.74	951.29
603.08	944.96
603.43	938.65
603.78	931.97
604.13	925.60
604.48	919.17
604.83	912.85
605.18	906.12
605.53	899.51
605.87	893.20
606.22	887.47
606.57	881.18
606.92	874.94
607.27	868.97
607.62	863.34
607.96	857.64
608.31	852.39
608.66	846.75
609.01	841.10
609.36	835.35
609.70	829.71
610.05	823.94
610.40	818.36
610.75	812.49
611.10	806.81
611.44	800.94
611.79	795.38
612.14	789.88
612.49	784.34
612.83	779.37
613.18	774.14
613.53	768.96
613.88	763.71
614.22	758.52
614.57	753.04
614.92	747.61
615.27	742.37
615.61	737.12
615.96	731.83
616.31	726.76
616.65	721.90
617.00	716.78
617.35	711.97
617.70	707.06
618.04	702.24
618.39	697.53
618.74	693.26
619.08	688.74
619.43	684.05
619.78	679.49
620.12	674.54
620.47	669.85
620.82	664.95
621.16	660.43
621.51	656.22
621.85	652.16
622.20	647.67
622.55	643.32
622.89	639.13
623.24	635.12
623.59	630.87
623.93	626.54
624.28	622.56
624.62	618.78
624.97	615.08
625.32	611.25
625.66	607.19
626.01	603.09
626.35	599.24
626.70	595.45
627.04	591.97
627.39	588.14
627.73	584.76
628.08	581.11
628.43	577.36
628.77	573.48
629.12	569.79
629.46	566.54
629.81	563.27
630.15	559.87
630.50	556.24
630.84	552.88
631.19	549.64
631.53	546.51
631.88	542.73
632.22	539.23
632.57	536.17
632.91	533.08
633.26	530.14
633.60	526.91
633.95	523.80
634.29	520.31
634.64	517.52
634.98	514.09
635.32	511.29
635.67	508.50
636.01	505.83
636.36	502.92
636.70	500.12
637.05	497.20
637.39	494.36
637.73	491.76
638.08	489.05
638.42	486.23
638.77	483.31
639.11	480.53
639.45	477.51
639.80	474.54
640.14	471.74
640.49	468.92
640.83	466.45
641.17	463.96
641.52	461.53
641.86	458.95
642.20	456.86
642.55	454.22
642.89	451.80
643.23	449.25
643.58	447.09
643.92	444.52
644.26	442.14
644.61	439.85
644.95	437.51
645.29	435.12
645.64	432.97
645.98	430.73
646.32	428.66
646.66	426.54
647.01	424.50
647.35	422.65
647.69	420.75
648.04	418.75
648.38	416.84
648.72	414.91
649.06	412.77
649.41	410.53
649.75	408.54
650.09	406.59
650.43	404.67
650.78	402.65
651.12	400.82
651.46	398.94
651.80	397.09
652.14	395.21
652.49	393.63
652.83	391.86
653.17	390.09
653.51	388.32
653.85	386.64
654.20	384.85
654.54	383.06
654.88	381.23
655.22	379.66
655.56	378.00
655.90	376.38
656.25	374.84
656.59	373.39
656.93	371.82
657.27	370.41
657.61	368.85
657.95	367.39
658.29	365.91
658.64	364.51
658.98	363.00
659.32	361.40
659.66	359.74
660.00	358.29
660.34	356.98
660.68	355.58
661.02	354.24
661.36	352.97
661.70	351.64
662.05	350.33
662.39	349.15
662.73	347.91
663.07	346.86
663.41	345.71
663.75	344.39
664.09	343.17
664.43	341.78
664.77	340.54
665.11	339.27
665.45	338.02
665.79	336.85
666.13	335.68
666.47	334.63
666.81	333.40
667.15	332.17
667.49	331.13
667.83	330.26
668.17	329.11
668.51	328.02
668.85	327.07
669.19	326.26
669.53	324.95
669.87	323.78
670.21	322.55
670.55	321.51
670.89	320.82
671.23	319.87
671.57	318.79
671.91	317.84
672.25	316.88
672.58	316.16
672.92	315.10
673.26	314.22
673.60	313.34
673.94	312.68
674.28	311.93
674.62	311.07
674.96	310.03
675.30	309.29
675.64	308.56
675.97	307.62
676.31	306.57
676.65	305.76
676.99	305.10
677.33	304.25
677.67	303.50
678.01	302.40
678.34	301.70
678.68	301.16
679.02	300.38
679.36	299.65
679.70	298.79
680.04	298.13
680.37	297.45
680.71	296.81
681.05	296.04
681.39	295.37
681.73	294.64
682.06	293.98
682.40	293.29
682.74	292.66
683.08	292.27
683.42	291.66
683.75	291.09
684.09	290.30
684.43	289.74
684.77	289.09
685.10	288.48
685.44	287.86
685.78	287.25
686.12	286.71
686.45	286.09
686.79	285.45
687.13	285.03
687.46	284.41
687.80	283.93
688.14	283.35
688.48	282.81
688.81	282.26
689.15	281.87
689.49	281.42
689.82	280.98
690.16	280.22
690.50	279.68
690.83	279.12
691.17	278.62
691.51	278.10
691.84	277.69
692.18	277.22
692.52	276.74
692.85	276.34
693.19	276.09
693.52	275.70
693.86	275.32
694.20	274.76
694.53	274.34
694.87	273.81
695.21	273.39
695.54	272.97
695.88	272.51
696.21	271.90
696.55	271.45
696.88	270.85
697.22	270.43
697.56	270.07
697.89	269.55
698.23	269.27
698.56	268.93
698.90	268.60
699.23	268.25
699.57	267.86
699.90	267.37
700.24	266.74
700.58	266.41
700.91	266.06
701.25	266.04
701.58	266.10
701.92	265.85
702.25	265.50
702.59	265.13
702.92	264.80
703.26	264.54
703.59	264.18
703.93	264.35
704.26	264.03
704.60	263.79
704.93	263.51
705.26	263.11
705.60	262.82
705.93	262.41
706.27	262.20
706.60	262.07
706.94	261.94
707.27	261.71
707.61	261.36
707.94	261.07
708.27	260.50
708.61	259.76
708.94	259.38
709.28	259.14
709.61	258.77
709.94	258.52
710.28	258.21
710.61	257.94
710.95	257.06
711.28	257.14
711.61	256.78
711.95	256.65
712.28	256.28
712.61	256.02
712.95	255.98
713.28	255.89
713.61	255.50
713.95	255.14
714.28	254.95
714.61	254.65
714.95	254.27
715.28	253.89
715.61	253.60
715.95	253.37
716.28	252.98
716.61	252.88
716.95	252.53
717.28	252.25
717.61	251.96
717.94	251.82
718.28	251.22
718.61	250.94
718.94	250.59
719.27	250.37
719.61	250.15
719.94	249.72
720.27	249.18
720.60	248.90
720.94	248.63
721.27	248.41
721.60	248.29
721.93	248.19
722.27	248.10
722.60	248.04
722.93	247.76
723.26	247.63
723.59	247.27
723.93	247.16
724.26	247.00
724.59	246.76
724.92	246.58
725.25	246.50
725.59	246.36
725.92	246.26
726.25	246.10
726.58	245.92
726.91	245.77
727.24	245.70
727.57	245.55
727.91	245.27
728.24	245.08
728.57	244.84
728.90	244.65
729.23	244.38
729.56	244.42
729.89	244.28
730.22	244.15
730.55	244.03
730.89	243.80
731.22	243.58
731.55	243.49
731.88	243.44
732.21	243.13
732.54	242.93
732.87	242.71
733.20	242.63
733.53	242.43
733.86	242.31
734.19	242.13
734.52	242.01
734.85	242.23
735.18	241.97
735.51	242.03
735.84	241.94
736.17	241.97
736.50	241.52
736.83	241.98
737.16	241.79
737.49	241.68
737.82	241.59
738.15	241.60
738.48	241.46
738.81	241.25
739.14	241.12
739.47	240.99
739.80	240.86
740.13	240.72
740.46	240.56
740.79	240.36
741.12	240.24
741.45	240.02
741.78	239.55
742.11	239.60
742.44	239.29
742.77	239.27
743.10	239.01
743.43	238.86
743.75	238.26
744.08	238.82
744.41	238.67
744.74	238.56
745.07	238.31
745.40	238.33
745.73	238.41
746.06	238.30
746.39	238.26
746.71	238.07
747.04	237.99
747.37	237.87
747.70	237.89
748.03	237.75
748.36	237.79
748.68	237.70
749.01	237.46
749.34	237.36
749.67	237.19
750.00	237.25
750.33	237.60
750.65	237.53
750.98	236.80
751.31	236.77
751.64	236.69
751.97	236.86
752.29	236.68
752.62	236.41
752.95	236.27
753.28	236.10
753.60	236.11
753.93	236.12
754.26	236.00
754.59	235.70
754.91	235.66
755.24	235.50
755.57	235.56
755.90	235.53
756.22	235.40
756.55	235.23
756.88	234.98
757.20	234.52
757.53	234.29
757.86	234.21
758.19	234.14
758.51	234.07
758.84	233.70
759.17	233.62
759.49	233.51
759.82	233.78
760.15	233.77
760.47	233.58
760.80	233.35
761.13	233.43
761.45	233.38
761.78	233.22
762.11	233.13
762.43	232.91
762.76	232.82
763.08	232.85
763.41	232.81
763.74	232.79
764.06	232.80
764.39	232.75
764.71	232.66
765.04	232.54
765.37	232.35
765.69	232.36
766.02	232.29
766.34	232.20
766.67	231.84
767.00	231.85
767.32	232.12
767.65	232.37
767.97	232.29
768.30	232.26
768.62	232.26
768.95	232.13
769.27	232.19
769.60	232.19
769.92	232.06
770.25	231.95
770.57	231.84
770.90	231.71
771.22	231.57
771.55	231.50
771.87	231.46
772.20	231.48
772.52	231.88
772.85	232.41
773.17	232.39
773.50	232.41
773.82	232.31
774.15	232.01
774.47	231.66
774.80	231.49
775.12	231.47
775.45	231.40
775.77	231.43
776.09	231.33
776.42	231.25
776.74	231.39
777.07	231.32
777.39	231.32
777.72	231.30
778.04	231.33
778.36	231.29
778.69	231.27
779.01	231.30
779.33	230.80
779.66	230.21
779.98	230.16
780.31	230.14
780.63	230.30
780.95	230.32
781.28	230.27
781.60	230.26
781.92	230.26
782.25	230.24
782.57	230.19
782.89	230.10
783.22	230.03
783.54	229.86
783.86	229.91
784.19	229.83
784.51	229.86
784.83	229.78
785.16	229.69
785.48	229.65
785.80	229.58
786.12	229.57
786.45	229.53
786.77	229.50
787.09	229.41
787.42	229.18
787.74	229.22
788.06	229.19
788.38	229.12
788.71	229.01
789.03	229.00
789.35	229.05
789.67	229.00
789.99	229.05
790.32	228.96
790.64	228.96
790.96	229.33
791.28	229.24
791.61	229.25
791.93	229.28
792.25	229.24
792.57	229.60
792.89	229.51
793.21	229.46
793.54	229.44
793.86	229.35
794.18	229.35
794.50	229.30
794.82	229.32
795.14	229.38
795.47	229.46
795.79	229.49
796.11	229.31
796.43	229.34
796.75	229.28
797.07	229.27
797.39	229.22
797.71	228.83
798.04	228.77
798.36	228.79
798.68	228.78
799.00	228.80
799.32	228.50
799.64	228.55
799.96	228.63
800.28	228.66
800.60	228.68
800.92	228.68
801.24	228.60
801.56	228.63
801.89	228.61
802.21	228.66
802.53	228.52
802.85	228.73
803.17	228.89
803.49	228.80
803.81	228.75
804.13	228.72
804.45	228.65
804.77	228.71
805.09	228.65
805.41	228.62
805.73	228.51
806.05	228.45
806.37	228.44
806.69	228.30
807.01	228.25
807.33	228.30
807.65	228.16
807.97	228.40
808.28	228.26
808.60	228.20
808.92	228.05
809.24	228.40
809.56	228.24
809.88	228.05
810.20	228.08
810.52	228.27
810.84	228.18
811.16	228.18
811.48	228.11
811.80	228.32
812.12	228.30
812.43	228.33
812.75	228.32
813.07	228.29
813.39	228.37
813.71	228.28
814.03	228.22
814.35	228.20
814.67	227.96
814.98	227.99
815.30	228.00
815.62	228.01
815.94	227.70
816.26	227.93
816.58	227.87
816.89	227.91
817.21	227.72
817.53	227.73
817.85	227.79
818.17	227.74
818.48	227.53
818.80	227.58
819.12	227.53
819.44	227.38
819.76	227.34
820.07	227.27
820.39	227.35
820.71	227.42
821.03	227.48
821.34	227.39
821.66	227.48
821.98	227.43
822.30	227.37
822.61	227.65
822.93	227.40
823.25	227.32
823.57	227.29
823.88	227.36
824.20	227.38
824.52	227.49
824.83	227.58
825.15	227.54
825.47	227.58
825.79	227.58
826.10	227.59
826.42	227.53
826.74	227.60
827.05	227.57
827.37	227.54
827.69	227.48
828.00	227.54
828.32	227.46
828.64	227.45
828.95	227.68
829.27	227.50
829.58	227.53
829.90	227.64
830.22	227.67
830.53	227.63
830.85	227.58
831.17	227.38
831.48	227.35
831.80	227.36
832.11	227.30
832.43	227.28
832.75	227.28
833.06	227.55
833.38	227.40
833.69	227.32
834.01	227.26
834.32	227.20
834.64	227.15
834.96	227.16
835.27	227.13
835.59	227.01
835.90	226.85
836.22	226.82
836.53	226.72
836.85	226.64
837.16	227.09
837.48	227.11
837.79	227.24
838.11	227.24
838.42	227.22
838.74	227.27
839.05	227.25
839.37	227.23
839.68	226.92
840.00	226.88
840.31	227.04
840.63	227.06
840.94	227.05
841.26	227.08
841.57	227.08
841.88	227.19
842.20	227.10
842.51	227.08
842.83	227.06
843.14	227.52
843.46	227.48
843.77	227.21
844.08	227.20
844.40	227.08
844.71	227.02
845.03	226.97
845.34	226.88
845.65	226.83
845.97	226.89
846.28	226.90
846.60	226.93
846.91	226.80
847.22	226.71
847.54	226.78
847.85	226.77
848.16	226.66
848.48	226.51
848.79	226.67
849.10	226.73
849.42	226.76
849.73	226.23
850.04	226.21
850.36	226.07
850.67	226.12
850.98	226.13
851.30	226.17
851.61	226.16
851.92	226.17
852.23	226.32
852.55	226.28
852.86	226.30
853.17	226.34
853.49	226.40
853.80	226.49
854.11	226.54
854.42	226.53
854.74	226.53
855.05	226.62
855.36	226.39
855.67	226.40
855.99	226.36
856.30	226.96
856.61	227.00
856.92	226.91
857.23	226.86
857.55	226.79
857.86	226.77
858.17	226.85
858.48	226.83
858.79	226.80
859.11	226.86
859.42	226.87
859.73	226.82
860.04	226.80
860.35	226.70
860.66	226.57
860.98	226.63
861.29	226.70
861.60	226.61
861.91	226.70
862.22	226.65
862.53	226.64
862.84	226.11
863.16	226.18
863.47	226.17
863.78	226.16
864.09	226.20
864.40	226.20
864.71	226.26
865.02	226.31
865.33	226.19
865.64	226.08
865.95	226.02
866.27	226.35
866.58	226.35
866.89	226.39
867.20	226.41
867.51	226.32
867.82	226.27
868.13	226.38
868.44	226.38
868.75	226.42
869.06	226.46
869.37	226.43
869.68	226.32
869.99	226.42
870.30	226.46
870.61	226.50
870.92	226.48
871.23	226.42
871.54	226.46
871.85	226.59
872.16	226.69
872.47	226.67
872.78	226.34
873.09	226.35
873.40	226.36
873.71	226.39
874.02	226.39
874.33	226.38
874.64	226.32
874.95	226.30
875.26	226.26
875.56	226.19
875.87	226.29
876.18	226.27
876.49	226.70
876.80	226.61
877.11	226.49
877.42	226.42
877.73	226.39
878.04	226.36
878.35	226.27
878.66	226.23
878.96	226.23
879.27	226.26
879.58	226.22
879.89	226.16
880.20	226.28
880.51	226.30
880.82	226.33
881.12	226.29
881.43	226.25
881.74	226.17
882.05	226.20
882.36	226.17
882.67	226.17
882.97	225.59
883.28	225.55
883.59	225.59
883.90	225.67
884.21	225.75
884.51	225.57
884.82	225.55
885.13	225.64
885.44	225.58
885.74	225.64
886.05	225.61
886.36	225.69
886.67	225.48
886.98	225.71
887.28	225.72
887.59	225.72
887.90	225.77
888.20	225.77
888.51	225.84
888.82	225.73
889.13	225.83
889.43	226.30
889.74	226.37
890.05	226.36
890.35	226.34
890.66	226.25
890.97	226.30
891.28	226.27
891.58	226.30
891.89	226.39
892.20	226.28
892.50	226.27
892.81	226.20
893.12	226.29
893.42	226.07
893.73	226.08
894.04	226.21
894.34	226.22
894.65	226.14
894.95	226.15
895.26	226.24
895.57	226.50
895.87	226.01
896.18	226.03
896.48	226.08
896.79	226.02
897.10	226.11
897.40	226.10
897.71	226.19
898.01	226.12
898.32	226.20
898.63	226.24
898.93	226.26
899.24	226.29
899.54	226.24
899.85	226.18
900.15	226.20
900.46	226.07
900.76	226.11
901.07	226.15
901.38	226.07
901.68	226.10
901.99	225.80
902.29	225.86
902.60	225.84
902.90	225.82
903.21	225.85
903.51	225.76
903.82	225.98
904.12	225.98
904.43	225.93
904.73	225.92
905.03	225.96
905.34	226.43
905.64	226.40
905.95	226.42
906.25	226.38
906.56	226.29
906.86	226.32
907.17	226.34
907.47	226.39
907.77	226.42
908.08	226.30
908.38	226.35
908.69	226.38
908.99	226.50
909.30	226.54
909.60	226.54
909.90	226.48
910.21	226.25
910.51	226.21
910.81	226.26
911.12	226.29
911.42	226.23
911.73	225.71
912.03	225.70
912.33	225.82
912.64	225.86
912.94	225.85
913.24	225.78
913.55	225.69
913.85	225.63
914.15	225.69
914.46	225.76
914.76	225.66
915.06	225.65
915.37	225.52
915.67	225.45
915.97	225.49
916.27	225.51
916.58	225.58
916.88	225.52
917.18	225.48
917.49	225.72
917.79	225.76
918.09	225.85
918.39	225.99
918.70	225.95
919.00	225.95
919.30	226.18
919.60	226.19
919.91	226.16
920.21	226.22
920.51	226.11
920.81	226.15
921.12	226.30
921.42	226.31
921.72	226.30
922.02	226.39
922.32	226.51
922.63	226.58
922.93	226.85
923.23	226.92
923.53	226.84
923.83	226.58
924.13	226.53
924.44	226.57
924.74	226.61
925.04	226.65
925.34	226.75
925.64	226.55
925.94	226.53
926.24	226.83
926.55	226.84
926.85	226.91
927.15	226.86
927.45	226.82
927.75	226.77
928.05	226.79
928.35	226.73
928.65	226.74
928.95	226.74
929.26	226.56
929.56	226.60
929.86	226.64
930.16	226.56
930.46	226.55
930.76	226.49
931.06	226.36
931.36	226.25
931.66	226.31
931.96	226.41
932.26	226.52
932.56	226.28
932.86	226.23
933.16	226.21
933.46	226.20
933.76	226.10
934.06	226.24
934.36	226.41
934.66	226.40
934.96	226.31
935.26	226.34
935.56	226.36
935.86	226.29
936.16	226.32
936.46	226.34
936.76	226.37
937.06	226.31
937.36	226.29
937.66	226.35
937.96	226.26
938.26	226.12
938.56	226.00
938.86	225.98
939.16	226.18
939.46	226.22
939.76	226.21
940.06	226.25
940.35	226.08
940.65	225.87
940.95	225.93
941.25	225.78
941.55	225.65
941.85	225.60
942.15	225.67
942.45	225.71
942.75	225.64
943.04	225.67
943.34	225.74
943.64	225.72
943.94	225.61
944.24	225.63
944.54	225.72
944.84	225.77
945.13	225.67
945.43	225.57
945.73	225.50
946.03	225.49
946.33	225.45
946.62	225.40
946.92	225.32
947.22	225.29
947.52	225.38
947.82	225.45
948.11	225.39
948.41	225.22
948.71	225.15
949.01	225.18
949.31	225.08
949.60	225.04
949.90	225.15
950.20	225.13
950.50	225.08
950.79	225.00
951.09	225.03
951.39	225.12
951.69	224.99
951.98	225.13
952.28	225.17
952.58	225.18
952.87	225.25
953.17	225.39
953.47	225.41
953.76	225.36
954.06	225.34
954.36	225.23
954.66	225.22
954.95	225.30
955.25	225.40
955.55	225.48
955.84	225.43
956.14	225.37
956.44	225.43
956.73	225.38
957.03	225.40
957.32	225.36
957.62	225.27
957.92	225.41
958.21	225.38
958.51	225.85
958.81	225.87
959.10	225.93
959.40	226.00
959.69	225.94
959.99	226.12
960.29	226.10
960.58	226.17
960.88	226.39
961.17	226.40
961.47	226.41
961.76	226.34
962.06	226.38
962.36	226.38
962.65	226.40
962.95	226.43
963.24	226.41
963.54	226.42
963.83	226.55
964.13	226.51
964.42	226.37
964.72	226.03
965.01	226.08
965.31	226.10
965.60	225.99
965.90	226.32
966.19	226.15
966.49	226.18
966.78	226.19
967.08	226.15
967.37	226.12
967.67	226.04
967.96	226.10
968.26	226.16
968.55	226.18
968.85	226.18
969.14	226.20
969.43	226.21
969.73	226.20
970.02	226.15
970.32	226.14
970.61	226.17
970.91	226.00
971.20	225.95
971.49	225.86
971.79	225.92
972.08	225.52
972.38	225.58
972.67	225.54
972.96	225.57
973.26	225.47
973.55	225.65
973.85	225.56
974.14	225.57
974.43	225.49
974.73	225.47
975.02	225.40
975.31	225.39
975.61	225.43
975.90	225.44
976.19	225.43
976.49	225.45
976.78	225.50
977.07	225.51
977.37	225.54
977.66	225.63
977.95	225.48
978.24	225.58
978.54	225.69
978.83	225.71
979.12	225.71
979.42	225.74
979.71	225.70
980.00	225.75
980.29	225.79
980.59	225.74
980.88	225.81
981.17	225.79
981.46	225.79
981.76	225.75
982.05	225.86
982.34	225.87
982.63	225.93
982.93	225.89
983.22	226.03
983.51	226.08
983.80	226.15
984.09	226.17
984.39	226.17
984.68	226.00
984.97	226.01
985.26	225.99
985.55	226.07
985.85	225.87
986.14	225.95
986.43	226.03
986.72	226.10
987.01	225.93
987.30	226.01
987.59	225.99
987.89	226.04
988.18	225.88
988.47	225.84
988.76	225.77
989.05	225.76
989.34	225.75
989.63	225.86
989.92	225.73
990.22	225.75
990.51	225.73
990.80	225.73
991.09	225.76
991.38	225.80
991.67	225.69
991.96	225.68
992.25	225.71
992.54	225.62
992.83	225.56
993.12	225.58
993.41	225.59
993.70	225.75
993.99	225.81
994.28	225.89
994.58	225.94
994.87	225.92
995.16	225.90
995.45	225.74
995.74	225.47
996.03	225.57
996.32	225.68
996.61	225.78
996.90	225.77
997.19	225.80
997.48	225.77
997.77	225.73
998.06	225.77
998.34	225.67
998.63	225.65
998.92	225.68
999.21	225.74
999.50	225.81
999.79	225.66
1000.08	225.60
1000.37	225.61
1000.66	225.55
1000.95	225.58
1001.24	225.60
1001.53	225.69
1001.82	225.77
1002.11	225.57
1002.40	225.61
1002.68	225.74
1002.97	226.05
1003.26	225.97
1003.55	225.96
1003.84	226.00
1004.13	226.17
1004.42	226.12
1004.71	226.05
1004.99	226.03
1005.28	226.11
1005.57	226.01
1005.86	225.93
1006.15	225.88
1006.44	225.78
1006.72	225.86
1007.01	225.80
1007.30	225.69
1007.59	225.65
1007.88	225.56
1008.17	225.70
1008.45	225.63
1008.74	225.35
1009.03	225.17
1009.32	225.09
1009.60	225.06
1009.89	225.00
1010.18	224.85
1010.47	224.84
1010.76	224.84
1011.04	224.82
1011.33	224.88
1011.62	224.95
1011.91	224.96
1012.19	224.97
1012.48	224.90
1012.77	224.86
1013.05	225.06
1013.34	225.13
1013.63	225.10
1013.92	225.18
1014.20	225.05
1014.49	225.04
1014.78	225.12
1015.06	224.98
1015.35	225.05
1015.64	225.07
1015.92	225.09
1016.21	225.04
1016.50	225.08
1016.78	225.18
1017.07	225.17
1017.36	225.02
1017.64	224.82
1017.93	224.90
1018.22	224.93
1018.50	225.01
1018.79	224.99
1019.08	224.74
1019.36	224.80
1019.65	224.70
1019.93	224.82
1020.22	224.96
1020.51	225.13
1020.79	225.00
1021.08	225.65
1021.36	224.70
1021.65	224.90
1021.94	223.80
1022.22	225.65
1022.51	222.90
1022.79	227.35
1023.08	226.15
1023.36	229.65
1023.65	222.70
>>>>>End Processed Spectral Data<<<<<
