SpectraSuite Data File
++++++++++++++++++++++++++++++++++++
Date: Wed Sep 04 17:50:33 EDT 2013
User: lab3
Dark Spectrum Present: Yes
Reference Spectrum Present: No
Number of Sampled Component Spectra: 1
Spectrometers: USB2E7196
Integration Time (usec): 170000 (USB2E7196)
Spectra Averaged: 20 (USB2E7196)
Boxcar Smoothing: 10 (USB2E7196)
Correct for Electrical Dark: No (USB2E7196)
Strobe/Lamp Enabled: No (USB2E7196)
Correct for Detector Non-linearity: No (USB2E7196)
Correct for Stray Light: No (USB2E7196)
Number of Pixels in Processed Spectrum: 2048
>>>>>Begin Processed Spectral Data<<<<<
339.09	0.00
339.48	212.45
339.86	213.20
340.24	215.70
340.63	215.40
341.01	226.60
341.39	220.30
341.78	222.30
342.16	224.50
342.54	222.35
342.93	212.10
343.31	222.78
343.69	223.31
344.07	223.81
344.46	224.25
344.84	224.78
345.22	224.73
345.60	224.95
345.99	225.15
346.37	225.25
346.75	225.37
347.13	225.41
347.52	225.51
347.90	225.65
348.28	225.65
348.66	225.76
349.05	225.61
349.43	225.74
349.81	225.81
350.19	225.84
350.57	225.90
350.96	226.01
351.34	226.11
351.72	226.21
352.10	226.33
352.48	226.40
352.87	226.37
353.25	226.34
353.63	226.42
354.01	226.43
354.39	226.50
354.77	226.61
355.15	226.88
355.54	226.85
355.92	226.81
356.30	226.97
356.68	227.29
357.06	227.37
357.44	227.32
357.82	227.32
358.20	227.82
358.58	227.89
358.97	227.99
359.35	228.15
359.73	228.29
360.11	228.36
360.49	228.46
360.87	228.54
361.25	228.69
361.63	228.88
362.01	228.90
362.39	228.92
362.77	229.02
363.15	228.98
363.53	228.97
363.91	229.03
364.29	229.05
364.67	228.62
365.05	228.71
365.43	228.82
365.81	228.97
366.19	228.82
366.57	229.04
366.95	228.99
367.33	228.89
367.71	228.95
368.09	229.07
368.47	229.07
368.85	229.04
369.23	229.16
369.61	228.93
369.99	229.11
370.37	229.07
370.75	229.27
371.13	229.20
371.51	229.21
371.89	229.22
372.27	229.17
372.65	229.24
373.03	229.15
373.41	229.05
373.78	228.96
374.16	228.61
374.54	228.47
374.92	228.40
375.30	228.37
375.68	228.15
376.06	228.07
376.44	227.96
376.82	227.97
377.19	227.87
377.57	227.90
377.95	227.70
378.33	227.65
378.71	227.26
379.09	227.23
379.47	227.23
379.84	227.07
380.22	226.98
380.60	226.80
380.98	226.78
381.36	226.79
381.73	226.66
382.11	226.68
382.49	226.52
382.87	226.41
383.25	226.35
383.62	226.91
384.00	226.77
384.38	226.72
384.76	226.74
385.13	226.87
385.51	226.75
385.89	226.61
386.27	226.54
386.64	226.56
387.02	226.47
387.40	226.42
387.78	226.38
388.15	226.36
388.53	226.35
388.91	226.29
389.29	226.13
389.66	226.17
390.04	226.09
390.42	226.17
390.79	226.16
391.17	226.17
391.55	225.59
391.92	225.62
392.30	225.70
392.68	225.58
393.05	225.54
393.43	225.62
393.81	225.65
394.18	225.59
394.56	225.62
394.94	225.70
395.31	225.62
395.69	225.86
396.06	225.95
396.44	226.01
396.82	226.07
397.19	226.33
397.57	226.33
397.95	226.46
398.32	226.48
398.70	226.59
399.07	226.69
399.45	226.77
399.82	226.81
400.20	226.82
400.58	226.89
400.95	226.80
401.33	226.92
401.70	227.44
402.08	227.60
402.45	227.73
402.83	228.00
403.20	228.25
403.58	228.28
403.95	228.57
404.33	228.85
404.71	228.99
405.08	229.54
405.46	229.82
405.83	230.05
406.21	230.34
406.58	230.69
406.96	230.91
407.33	231.25
407.70	231.67
408.08	232.38
408.45	232.84
408.83	233.40
409.20	233.81
409.58	233.94
409.95	234.51
410.33	235.08
410.70	235.44
411.08	236.00
411.45	236.62
411.82	237.11
412.20	237.85
412.57	238.77
412.95	239.10
413.32	239.96
413.69	240.83
414.07	241.66
414.44	242.67
414.82	243.73
415.19	244.93
415.56	246.08
415.94	247.13
416.31	248.55
416.68	249.84
417.06	251.45
417.43	253.10
417.81	254.87
418.18	256.63
418.55	258.48
418.93	260.53
419.30	262.61
419.67	264.87
420.04	267.05
420.42	269.41
420.79	272.33
421.16	275.09
421.54	278.12
421.91	281.12
422.28	284.09
422.66	287.42
423.03	290.86
423.40	294.18
423.77	297.63
424.15	301.20
424.52	304.97
424.89	309.05
425.26	313.00
425.64	316.72
426.01	320.99
426.38	325.50
426.75	329.95
427.13	334.46
427.50	339.15
427.87	343.94
428.24	348.80
428.61	353.45
428.99	358.72
429.36	364.10
429.73	369.54
430.10	375.03
430.47	380.60
430.85	386.12
431.22	392.26
431.59	398.96
431.96	405.21
432.33	412.06
432.70	418.74
433.08	426.61
433.45	434.03
433.82	441.19
434.19	449.22
434.56	457.21
434.93	464.89
435.30	472.49
435.68	481.11
436.05	489.39
436.42	497.56
436.79	505.20
437.16	513.48
437.53	522.16
437.90	530.85
438.27	539.30
438.64	548.24
439.01	556.37
439.38	563.52
439.75	570.63
440.13	578.69
440.50	586.18
440.87	592.16
441.24	598.48
441.61	605.47
441.98	610.62
442.35	616.53
442.72	622.49
443.09	628.41
443.46	631.94
443.83	634.26
444.20	636.36
444.57	639.00
444.94	640.06
445.31	641.13
445.68	642.37
446.05	642.41
446.42	641.10
446.79	639.79
447.16	638.24
447.53	636.96
447.90	633.36
448.27	629.71
448.64	624.88
449.01	621.16
449.37	615.05
449.74	608.94
450.11	602.00
450.48	594.37
450.85	586.44
451.22	579.60
451.59	572.97
451.96	566.56
452.33	558.47
452.70	551.19
453.07	542.67
453.43	533.55
453.80	525.33
454.17	517.21
454.54	509.41
454.91	501.20
455.28	493.18
455.65	485.65
456.02	478.85
456.38	472.46
456.75	464.74
457.12	458.18
457.49	451.96
457.86	445.68
458.23	440.60
458.59	434.84
458.96	429.00
459.33	424.09
459.70	419.04
460.07	415.01
460.43	410.41
460.80	406.06
461.17	402.45
461.54	398.57
461.91	394.85
462.27	391.08
462.64	387.99
463.01	384.50
463.38	381.28
463.74	377.32
464.11	374.35
464.48	371.85
464.85	369.16
465.21	367.07
465.58	364.84
465.95	361.93
466.32	359.70
466.68	357.48
467.05	355.28
467.42	353.03
467.78	350.79
468.15	348.63
468.52	347.18
468.88	345.09
469.25	343.19
469.62	341.84
469.98	340.30
470.35	338.68
470.72	337.23
471.08	335.43
471.45	334.20
471.82	332.95
472.18	331.47
472.55	330.40
472.92	329.05
473.28	327.94
473.65	326.82
474.02	325.86
474.38	325.05
474.75	324.29
475.11	323.53
475.48	322.85
475.85	322.19
476.21	321.53
476.58	320.97
476.94	320.58
477.31	320.00
477.67	319.60
478.04	319.39
478.41	319.16
478.77	319.57
479.14	319.22
479.50	319.11
479.87	319.15
480.23	319.18
480.60	319.20
480.96	319.20
481.33	319.64
481.69	319.87
482.06	320.11
482.42	320.32
482.79	320.68
483.15	321.13
483.52	321.80
483.88	322.26
484.25	322.85
484.61	323.48
484.98	324.13
485.34	325.11
485.71	325.98
486.07	326.87
486.44	327.45
486.80	328.59
487.17	329.77
487.53	331.14
487.90	332.55
488.26	334.16
488.62	335.77
488.99	337.24
489.35	338.94
489.72	340.79
490.08	342.82
490.44	344.79
490.81	346.88
491.17	349.05
491.54	351.57
491.90	354.17
492.26	356.89
492.63	359.73
492.99	362.50
493.36	365.62
493.72	369.02
494.08	372.45
494.45	376.17
494.81	380.00
495.17	383.96
495.54	388.09
495.90	392.32
496.26	396.80
496.63	401.47
496.99	406.30
497.35	411.32
497.72	416.66
498.08	422.25
498.44	427.96
498.80	434.02
499.17	440.05
499.53	446.29
499.89	452.91
500.26	459.67
500.62	466.60
500.98	473.95
501.34	481.36
501.71	489.00
502.07	496.79
502.43	504.89
502.79	513.17
503.16	521.81
503.52	530.79
503.88	540.03
504.24	549.59
504.60	559.55
504.97	569.86
505.33	580.18
505.69	591.12
506.05	602.24
506.41	613.51
506.78	625.12
507.14	637.13
507.50	649.31
507.86	662.00
508.22	675.02
508.59	688.05
508.95	701.63
509.31	715.66
509.67	729.91
510.03	744.13
510.39	758.92
510.75	773.87
511.12	788.96
511.48	804.46
511.84	820.08
512.20	835.97
512.56	852.02
512.92	868.81
513.28	885.61
513.64	902.61
514.00	919.92
514.37	937.57
514.73	955.46
515.09	973.70
515.45	991.91
515.81	1010.22
516.17	1028.79
516.53	1047.49
516.89	1066.03
517.25	1085.03
517.61	1105.25
517.97	1125.19
518.33	1145.00
518.69	1165.28
519.05	1185.68
519.41	1206.07
519.77	1226.73
520.13	1247.55
520.49	1268.02
520.85	1290.28
521.21	1311.34
521.57	1332.22
521.93	1352.64
522.29	1373.64
522.65	1394.16
523.01	1414.89
523.37	1435.35
523.73	1456.32
524.09	1476.80
524.45	1497.43
524.81	1518.38
525.17	1538.80
525.53	1559.64
525.89	1580.32
526.25	1600.72
526.61	1621.04
526.97	1642.09
527.33	1663.47
527.68	1685.16
528.04	1706.12
528.40	1725.48
528.76	1746.50
529.12	1766.98
529.48	1787.69
529.84	1807.83
530.20	1828.83
530.56	1849.24
530.91	1870.33
531.27	1890.61
531.63	1910.76
531.99	1931.32
532.35	1951.08
532.71	1970.83
533.07	1990.69
533.42	2010.30
533.78	2030.17
534.14	2049.68
534.50	2068.41
534.86	2087.36
535.21	2104.63
535.57	2123.08
535.93	2140.50
536.29	2157.80
536.65	2175.96
537.00	2193.49
537.36	2210.59
537.72	2226.81
538.08	2244.06
538.44	2259.99
538.79	2275.79
539.15	2292.50
539.51	2308.22
539.87	2323.10
540.22	2336.95
540.58	2351.35
540.94	2364.72
541.29	2377.17
541.65	2389.33
542.01	2401.96
542.37	2412.04
542.72	2422.98
543.08	2433.52
543.44	2444.97
543.79	2454.88
544.15	2464.34
544.51	2474.45
544.87	2484.03
545.22	2492.53
545.58	2500.02
545.94	2507.33
546.29	2513.80
546.65	2519.41
547.01	2524.99
547.36	2530.75
547.72	2536.30
548.07	2539.39
548.43	2544.50
548.79	2548.87
549.14	2552.99
549.50	2556.63
549.86	2560.69
550.21	2564.07
550.57	2567.07
550.92	2568.55
551.28	2569.54
551.64	2571.62
551.99	2573.26
552.35	2574.72
552.70	2576.63
553.06	2578.27
553.41	2579.45
553.77	2581.41
554.13	2583.31
554.48	2584.67
554.84	2585.89
555.19	2586.80
555.55	2588.73
555.90	2588.00
556.26	2587.43
556.61	2586.38
556.97	2584.26
557.32	2583.73
557.68	2582.76
558.03	2581.38
558.39	2579.75
558.74	2579.25
559.10	2575.92
559.45	2572.06
559.81	2567.63
560.16	2562.41
560.52	2557.43
560.87	2553.11
561.23	2547.35
561.58	2541.39
561.94	2534.24
562.29	2526.78
562.64	2519.73
563.00	2511.63
563.35	2505.07
563.71	2498.15
564.06	2491.22
564.42	2484.35
564.77	2477.08
565.12	2469.26
565.48	2461.40
565.83	2453.48
566.19	2445.31
566.54	2437.70
566.89	2429.75
567.25	2422.38
567.60	2415.16
567.96	2407.38
568.31	2399.25
568.66	2390.98
569.02	2381.80
569.37	2373.76
569.72	2366.32
570.08	2357.26
570.43	2347.83
570.78	2338.45
571.14	2328.77
571.49	2318.84
571.84	2309.31
572.20	2298.54
572.55	2288.52
572.90	2277.51
573.26	2267.38
573.61	2256.42
573.96	2245.38
574.31	2233.17
574.67	2221.06
575.02	2208.39
575.37	2195.85
575.72	2182.70
576.08	2170.41
576.43	2158.03
576.78	2145.11
577.13	2131.20
577.49	2118.53
577.84	2106.83
578.19	2094.98
578.54	2083.02
578.90	2071.24
579.25	2059.25
579.60	2046.74
579.95	2033.89
580.30	2020.91
580.66	2007.52
581.01	1994.22
581.36	1980.25
581.71	1967.92
582.06	1954.95
582.42	1942.88
582.77	1930.42
583.12	1918.67
583.47	1906.42
583.82	1894.56
584.17	1882.57
584.53	1870.92
584.88	1858.28
585.23	1845.33
585.58	1831.21
585.93	1817.83
586.28	1804.54
586.63	1790.60
586.98	1776.63
587.34	1763.54
587.69	1750.90
588.04	1738.35
588.39	1726.18
588.74	1714.26
589.09	1702.37
589.44	1689.66
589.79	1677.40
590.14	1665.66
590.49	1653.42
590.84	1641.55
591.19	1629.26
591.54	1616.98
591.89	1604.98
592.25	1594.69
592.60	1583.00
592.95	1572.05
593.30	1560.35
593.65	1548.45
594.00	1536.71
594.35	1526.95
594.70	1515.32
595.05	1503.73
595.40	1491.72
595.75	1479.80
596.10	1468.48
596.45	1457.10
596.80	1446.73
597.15	1435.66
597.50	1423.89
597.85	1412.68
598.19	1401.34
598.54	1390.24
598.89	1379.22
599.24	1368.73
599.59	1357.40
599.94	1346.84
600.29	1336.31
600.64	1326.31
600.99	1315.84
601.34	1306.40
601.69	1295.60
602.04	1285.81
602.39	1276.15
602.74	1267.06
603.08	1257.92
603.43	1248.87
603.78	1239.42
604.13	1229.72
604.48	1220.01
604.83	1210.49
605.18	1200.97
605.53	1191.38
605.87	1182.10
606.22	1173.82
606.57	1164.58
606.92	1155.25
607.27	1146.44
607.62	1137.86
607.96	1129.31
608.31	1121.56
608.66	1113.02
609.01	1104.52
609.36	1096.25
609.70	1087.95
610.05	1079.48
610.40	1071.04
610.75	1062.39
611.10	1054.00
611.44	1045.61
611.79	1037.50
612.14	1029.66
612.49	1021.98
612.83	1014.73
613.18	1007.07
613.53	999.22
613.88	991.35
614.22	983.55
614.57	975.88
614.92	968.04
615.27	960.54
615.61	952.82
615.96	945.35
616.31	937.87
616.65	930.66
617.00	923.49
617.35	916.47
617.70	909.45
618.04	902.46
618.39	895.63
618.74	889.41
619.08	882.68
619.43	875.86
619.78	868.79
620.12	861.56
620.47	854.75
620.82	847.78
621.16	841.19
621.51	835.07
621.85	828.75
622.20	822.29
622.55	815.78
622.89	809.41
623.24	803.15
623.59	796.73
623.93	790.40
624.28	784.36
624.62	778.83
624.97	773.08
625.32	767.34
625.66	761.35
626.01	755.02
626.35	749.55
626.70	744.04
627.04	738.82
627.39	733.39
627.73	728.26
628.08	723.16
628.43	717.81
628.77	712.26
629.12	707.03
629.46	702.21
629.81	697.49
630.15	692.68
630.50	687.83
630.84	683.32
631.19	678.67
631.53	674.00
631.88	668.70
632.22	663.96
632.57	659.60
632.91	655.23
633.26	650.96
633.60	646.34
633.95	641.80
634.29	637.04
634.64	632.76
634.98	628.00
635.32	623.67
635.67	619.69
636.01	615.57
636.36	611.37
636.70	607.38
637.05	603.17
637.39	599.21
637.73	595.25
638.08	591.37
638.42	587.31
638.77	583.07
639.11	578.90
639.45	574.65
639.80	570.32
640.14	566.20
640.49	562.24
640.83	558.48
641.17	554.89
641.52	551.21
641.86	547.59
642.20	544.55
642.55	540.80
642.89	537.14
643.23	533.86
643.58	530.68
643.92	527.06
644.26	523.72
644.61	520.55
644.95	517.27
645.29	513.69
645.64	510.43
645.98	507.44
646.32	504.61
646.66	501.47
647.01	498.57
647.35	495.78
647.69	492.85
648.04	490.12
648.38	487.24
648.72	484.47
649.06	481.55
649.41	478.33
649.75	475.49
650.09	472.75
650.43	469.77
650.78	466.91
651.12	464.07
651.46	461.33
651.80	458.46
652.14	455.81
652.49	453.45
652.83	450.97
653.17	448.36
653.51	445.67
653.85	443.42
654.20	440.93
654.54	438.40
654.88	435.94
655.22	433.69
655.56	431.32
655.90	428.93
656.25	426.65
656.59	424.59
656.93	422.38
657.27	420.28
657.61	418.01
657.95	415.80
658.29	413.82
658.64	411.81
658.98	409.61
659.32	407.35
659.66	405.10
660.00	403.05
660.34	400.97
660.68	398.87
661.02	396.76
661.36	394.81
661.70	392.87
662.05	390.99
662.39	388.94
662.73	387.16
663.07	385.65
663.41	383.84
663.75	381.93
664.09	380.17
664.43	378.31
664.77	376.62
665.11	374.85
665.45	373.08
665.79	371.35
666.13	369.68
666.47	368.01
666.81	366.28
667.15	364.60
667.49	363.17
667.83	361.95
668.17	360.45
668.51	358.98
668.85	357.61
669.19	356.47
669.53	355.05
669.87	353.46
670.21	351.84
670.55	350.51
670.89	349.36
671.23	347.95
671.57	346.49
671.91	345.13
672.25	343.76
672.58	342.63
672.92	341.21
673.26	340.04
673.60	338.93
673.94	337.86
674.28	336.77
674.62	335.59
674.96	334.25
675.30	333.17
675.64	332.02
675.97	330.80
676.31	329.39
676.65	328.10
676.99	327.23
677.33	326.00
677.67	324.95
678.01	323.70
678.34	322.71
678.68	321.88
679.02	320.93
679.36	320.01
679.70	318.90
680.04	318.00
680.37	317.00
680.71	316.14
681.05	315.22
681.39	314.25
681.73	313.28
682.06	312.45
682.40	311.54
682.74	310.68
683.08	310.03
683.42	309.10
683.75	308.46
684.09	307.42
684.43	306.75
684.77	305.88
685.10	305.14
685.44	304.40
685.78	303.59
686.12	302.80
686.45	301.92
686.79	301.11
687.13	300.36
687.46	299.66
687.80	298.91
688.14	298.09
688.48	297.36
688.81	296.60
689.15	295.89
689.49	295.15
689.82	294.48
690.16	293.53
690.50	292.92
690.83	292.13
691.17	291.50
691.51	290.79
691.84	290.19
692.18	289.42
692.52	288.71
692.85	288.03
693.19	287.55
693.52	286.89
693.86	286.30
694.20	285.69
694.53	285.08
694.87	284.41
695.21	283.85
695.54	283.23
695.88	282.58
696.21	281.90
696.55	281.31
696.88	280.65
697.22	279.99
697.56	279.48
697.89	278.85
698.23	278.36
698.56	277.79
698.90	277.30
699.23	276.80
699.57	276.26
699.90	275.65
700.24	275.02
700.58	274.63
700.91	274.15
701.25	273.95
701.58	273.72
701.92	273.32
702.25	272.82
702.59	272.32
702.92	271.96
703.26	271.49
703.59	271.04
703.93	271.11
704.26	270.81
704.60	270.40
704.93	270.02
705.26	269.57
705.60	269.24
705.93	268.79
706.27	268.46
706.60	268.15
706.94	268.03
707.27	267.66
707.61	267.30
707.94	266.95
708.27	266.33
708.61	265.62
708.94	265.17
709.28	264.79
709.61	264.46
709.94	264.13
710.28	263.83
710.61	263.44
710.95	262.59
711.28	262.52
711.61	262.07
711.95	261.81
712.28	261.37
712.61	260.94
712.95	260.85
713.28	260.68
713.61	260.29
713.95	259.76
714.28	259.45
714.61	258.97
714.95	258.55
715.28	258.14
715.61	257.80
715.95	257.49
716.28	257.15
716.61	256.89
716.95	256.50
717.28	256.19
717.61	255.90
717.94	255.53
718.28	254.88
718.61	254.59
718.94	254.15
719.27	253.88
719.61	253.76
719.94	253.26
720.27	252.70
720.60	252.40
720.94	252.16
721.27	251.93
721.60	251.86
721.93	251.67
722.27	251.63
722.60	251.49
722.93	251.27
723.26	251.07
723.59	250.80
723.93	250.66
724.26	250.43
724.59	250.22
724.92	250.12
725.25	250.00
725.59	249.90
725.92	249.90
726.25	249.74
726.58	249.50
726.91	249.40
727.24	249.35
727.57	249.17
727.91	248.87
728.24	248.70
728.57	248.50
728.90	248.35
729.23	247.97
729.56	248.00
729.89	247.74
730.22	247.58
730.55	247.42
730.89	247.24
731.22	247.05
731.55	246.87
731.88	246.70
732.21	246.57
732.54	246.29
732.87	246.11
733.20	245.96
733.53	245.77
733.86	245.64
734.19	245.41
734.52	245.30
734.85	245.52
735.18	245.27
735.51	245.28
735.84	245.13
736.17	245.15
736.50	244.70
736.83	245.18
737.16	244.99
737.49	244.86
737.82	244.64
738.15	244.61
738.48	244.48
738.81	244.30
739.14	244.09
739.47	243.98
739.80	243.77
740.13	243.64
740.46	243.42
740.79	243.11
741.12	242.97
741.45	242.86
741.78	242.45
742.11	242.46
742.44	242.13
742.77	242.05
743.10	241.86
743.43	241.79
743.75	241.10
744.08	241.62
744.41	241.42
744.74	241.32
745.07	241.07
745.40	241.06
745.73	241.07
746.06	240.99
746.39	240.90
746.71	240.74
747.04	240.50
747.37	240.29
747.70	240.21
748.03	240.07
748.36	239.90
748.68	239.75
749.01	239.52
749.34	239.42
749.67	239.33
750.00	239.25
750.33	239.48
750.65	239.46
750.98	238.76
751.31	238.75
751.64	238.62
751.97	238.73
752.29	238.57
752.62	238.28
752.95	238.05
753.28	237.85
753.60	237.68
753.93	237.71
754.26	237.70
754.59	237.50
754.91	237.35
755.24	237.24
755.57	237.17
755.90	237.07
756.22	236.91
756.55	236.77
756.88	236.53
757.20	236.07
757.53	235.79
757.86	235.64
758.19	235.50
758.51	235.44
758.84	235.14
759.17	234.97
759.49	234.96
759.82	235.10
760.15	235.12
760.47	235.05
760.80	234.84
761.13	234.85
761.45	234.75
761.78	234.73
762.11	234.64
762.43	234.50
762.76	234.40
763.08	234.45
763.41	234.32
763.74	234.31
764.06	234.27
764.39	234.27
764.71	234.22
765.04	234.06
765.37	233.90
765.69	233.82
766.02	233.77
766.34	233.62
766.67	233.40
767.00	233.38
767.32	233.61
767.65	233.88
767.97	233.78
768.30	233.86
768.62	233.73
768.95	233.68
769.27	233.66
769.60	233.69
769.92	233.50
770.25	233.43
770.57	233.32
770.90	233.23
771.22	233.10
771.55	233.00
771.87	233.09
772.20	233.10
772.52	233.46
772.85	233.93
773.17	233.90
773.50	233.86
773.82	233.75
774.15	233.47
774.47	233.08
774.80	233.01
775.12	232.84
775.45	232.86
775.77	232.80
776.09	232.80
776.42	232.70
776.74	232.83
777.07	232.75
777.39	232.80
777.72	232.74
778.04	232.81
778.36	232.76
778.69	232.67
779.01	232.63
779.33	232.15
779.66	231.61
779.98	231.50
780.31	231.43
780.63	231.53
780.95	231.58
781.28	231.58
781.60	231.49
781.92	231.53
782.25	231.40
782.57	231.37
782.89	231.27
783.22	231.17
783.54	230.99
783.86	230.90
784.19	230.75
784.51	230.86
784.83	230.71
785.16	230.68
785.48	230.61
785.80	230.56
786.12	230.57
786.45	230.55
786.77	230.58
787.09	230.51
787.42	230.35
787.74	230.26
788.06	230.24
788.38	230.15
788.71	230.01
789.03	230.10
789.35	230.10
789.67	229.99
789.99	230.04
790.32	230.00
790.64	230.10
790.96	230.49
791.28	230.27
791.61	230.18
791.93	230.15
792.25	230.10
792.57	230.41
792.89	230.28
793.21	230.24
793.54	230.20
793.86	230.11
794.18	230.11
794.50	230.04
794.82	230.00
795.14	230.07
795.47	230.15
795.79	229.97
796.11	229.86
796.43	229.80
796.75	229.82
797.07	229.79
797.39	229.70
797.71	229.22
798.04	229.21
798.36	229.30
798.68	229.26
799.00	229.25
799.32	228.95
799.64	229.06
799.96	229.05
800.28	229.11
800.60	229.15
800.92	229.16
801.24	229.06
801.56	229.12
801.89	229.05
802.21	229.03
802.53	229.03
802.85	229.10
803.17	229.37
803.49	229.15
803.81	229.16
804.13	229.06
804.45	229.11
804.77	229.13
805.09	229.12
805.41	229.10
805.73	229.04
806.05	228.95
806.37	228.86
806.69	228.82
807.01	228.74
807.33	228.69
807.65	228.50
807.97	228.77
808.28	228.64
808.60	228.67
808.92	228.59
809.24	228.93
809.56	228.81
809.88	228.62
810.20	228.65
810.52	228.64
810.84	228.61
811.16	228.52
811.48	228.51
811.80	228.67
812.12	228.56
812.43	228.69
812.75	228.76
813.07	228.73
813.39	228.71
813.71	228.59
814.03	228.59
814.35	228.61
814.67	228.38
814.98	228.35
815.30	228.33
815.62	228.27
815.94	227.85
816.26	228.07
816.58	227.95
816.89	228.04
817.21	227.93
817.53	227.96
817.85	227.95
818.17	227.87
818.48	227.70
818.80	227.81
819.12	227.67
819.44	227.55
819.76	227.48
820.07	227.52
820.39	227.50
820.71	227.52
821.03	227.51
821.34	227.50
821.66	227.53
821.98	227.56
822.30	227.49
822.61	227.77
822.93	227.62
823.25	227.65
823.57	227.62
823.88	227.74
824.20	227.72
824.52	227.88
824.83	227.89
825.15	227.77
825.47	227.70
825.79	227.73
826.10	227.65
826.42	227.65
826.74	227.64
827.05	227.65
827.37	227.68
827.69	227.69
828.00	227.63
828.32	227.57
828.64	227.45
828.95	227.70
829.27	227.60
829.58	227.54
829.90	227.51
830.22	227.54
830.53	227.41
830.85	227.36
831.17	227.19
831.48	227.16
831.80	227.21
832.11	227.22
832.43	227.22
832.75	227.26
833.06	227.53
833.38	227.44
833.69	227.40
834.01	227.37
834.32	227.36
834.64	227.36
834.96	227.35
835.27	227.33
835.59	227.20
835.90	227.12
836.22	227.10
836.53	227.02
836.85	226.95
837.16	227.45
837.48	227.47
837.79	227.56
838.11	227.60
838.42	227.58
838.74	227.61
839.05	227.53
839.37	227.52
839.68	227.21
840.00	227.19
840.31	227.33
840.63	227.28
840.94	227.20
841.26	227.12
841.57	227.16
841.88	227.25
842.20	227.22
842.51	227.18
842.83	227.19
843.14	227.66
843.46	227.65
843.77	227.37
844.08	227.39
844.40	227.32
844.71	227.27
845.03	227.27
845.34	227.28
845.65	227.25
845.97	227.19
846.28	227.16
846.60	227.19
846.91	227.12
847.22	227.11
847.54	227.20
847.85	227.28
848.16	227.17
848.48	227.07
848.79	227.29
849.10	227.32
849.42	227.28
849.73	226.79
850.04	226.76
850.36	226.57
850.67	226.60
850.98	226.55
851.30	226.56
851.61	226.53
851.92	226.42
852.23	226.56
852.55	226.63
852.86	226.70
853.17	226.76
853.49	226.86
853.80	227.01
854.11	226.99
854.42	227.03
854.74	227.03
855.05	227.01
855.36	226.70
855.67	226.66
855.99	226.71
856.30	227.32
856.61	227.31
856.92	227.35
857.23	227.36
857.55	227.32
857.86	227.27
858.17	227.36
858.48	227.42
858.79	227.37
859.11	227.40
859.42	227.38
859.73	227.27
860.04	227.16
860.35	226.95
860.66	226.83
860.98	226.80
861.29	226.88
861.60	226.93
861.91	227.09
862.22	227.05
862.53	227.00
862.84	226.41
863.16	226.52
863.47	226.36
863.78	226.33
864.09	226.31
864.40	226.34
864.71	226.36
865.02	226.37
865.33	226.29
865.64	226.25
865.95	226.27
866.27	226.54
866.58	226.48
866.89	226.52
867.20	226.51
867.51	226.38
867.82	226.32
868.13	226.40
868.44	226.23
868.75	226.34
869.06	226.37
869.37	226.47
869.68	226.34
869.99	226.49
870.30	226.50
870.61	226.62
870.92	226.55
871.23	226.52
871.54	226.64
871.85	226.72
872.16	226.74
872.47	226.65
872.78	226.48
873.09	226.54
873.40	226.53
873.71	226.62
874.02	226.72
874.33	226.72
874.64	226.62
874.95	226.77
875.26	226.69
875.56	226.61
875.87	226.50
876.18	226.46
876.49	226.93
876.80	226.88
877.11	226.79
877.42	226.88
877.73	226.87
878.04	226.69
878.35	226.69
878.66	226.73
878.96	226.81
879.27	226.76
879.58	226.70
879.89	226.66
880.20	226.70
880.51	226.63
880.82	226.70
881.12	226.72
881.43	226.52
881.74	226.46
882.05	226.48
882.36	226.55
882.67	226.60
882.97	226.06
883.28	226.02
883.59	226.00
883.90	226.03
884.21	226.06
884.51	226.06
884.82	226.01
885.13	225.94
885.44	225.84
885.74	225.81
886.05	225.85
886.36	225.93
886.67	225.76
886.98	226.03
887.28	226.00
887.59	225.98
887.90	226.00
888.20	226.00
888.51	226.12
888.82	226.00
889.13	226.00
889.43	226.39
889.74	226.38
890.05	226.43
890.35	226.43
890.66	226.27
890.97	226.24
891.28	226.11
891.58	226.15
891.89	226.11
892.20	226.12
892.50	226.10
892.81	225.99
893.12	226.03
893.42	225.82
893.73	225.84
894.04	225.91
894.34	226.01
894.65	225.99
894.95	225.89
895.26	226.02
895.57	226.29
895.87	225.85
896.18	225.97
896.48	225.97
896.79	225.90
897.10	226.06
897.40	226.09
897.71	226.31
898.01	226.30
898.32	226.44
898.63	226.40
898.93	226.40
899.24	226.46
899.54	226.49
899.85	226.44
900.15	226.47
900.46	226.47
900.76	226.37
901.07	226.38
901.38	226.43
901.68	226.39
901.99	226.12
902.29	226.08
902.60	226.05
902.90	226.05
903.21	226.07
903.51	226.05
903.82	226.20
904.12	226.10
904.43	226.11
904.73	226.09
905.03	226.16
905.34	226.66
905.64	226.68
905.95	226.68
906.25	226.76
906.56	226.64
906.86	226.63
907.17	226.74
907.47	226.78
907.77	226.66
908.08	226.67
908.38	226.75
908.69	226.87
908.99	226.92
909.30	226.90
909.60	226.89
909.90	226.90
910.21	226.76
910.51	226.69
910.81	226.73
911.12	226.76
911.42	226.69
911.73	226.19
912.03	226.22
912.33	226.32
912.64	226.31
912.94	226.38
913.24	226.34
913.55	226.21
913.85	226.18
914.15	226.33
914.46	226.30
914.76	226.22
915.06	226.23
915.37	226.06
915.67	226.09
915.97	226.11
916.27	225.95
916.58	225.98
916.88	225.92
917.18	225.85
917.49	226.19
917.79	226.18
918.09	226.32
918.39	226.45
918.70	226.39
919.00	226.35
919.30	226.54
919.60	226.42
919.91	226.42
920.21	226.43
920.51	226.31
920.81	226.28
921.12	226.32
921.42	226.27
921.72	226.35
922.02	226.25
922.32	226.28
922.63	226.35
922.93	226.62
923.23	226.68
923.53	226.61
923.83	226.21
924.13	226.29
924.44	226.15
924.74	226.20
925.04	226.32
925.34	226.26
925.64	226.04
925.94	226.11
926.24	226.44
926.55	226.36
926.85	226.47
927.15	226.45
927.45	226.45
927.75	226.39
928.05	226.43
928.35	226.41
928.65	226.48
928.95	226.50
929.26	226.25
929.56	226.33
929.86	226.42
930.16	226.43
930.46	226.29
930.76	226.32
931.06	226.07
931.36	225.90
931.66	226.07
931.96	226.08
932.26	226.09
932.56	225.85
932.86	225.92
933.16	225.90
933.46	225.85
933.76	225.79
934.06	225.94
934.36	226.05
934.66	226.08
934.96	225.96
935.26	225.92
935.56	225.96
935.86	225.89
936.16	225.81
936.46	225.80
936.76	225.94
937.06	225.90
937.36	225.90
937.66	225.92
937.96	225.81
938.26	225.76
938.56	225.80
938.86	225.83
939.16	225.95
939.46	225.95
939.76	226.07
940.06	226.07
940.35	226.02
940.65	225.77
940.95	225.85
941.25	225.80
941.55	225.74
941.85	225.65
942.15	225.75
942.45	225.92
942.75	225.89
943.04	225.87
943.34	225.98
943.64	225.94
943.94	225.88
944.24	225.89
944.54	225.92
944.84	225.82
945.13	225.77
945.43	225.69
945.73	225.68
946.03	225.64
946.33	225.62
946.62	225.55
946.92	225.59
947.22	225.65
947.52	225.70
947.82	225.88
948.11	225.95
948.41	225.79
948.71	225.63
949.01	225.65
949.31	225.60
949.60	225.55
949.90	225.66
950.20	225.67
950.50	225.69
950.79	225.64
951.09	225.75
951.39	225.73
951.69	225.60
951.98	225.70
952.28	225.71
952.58	225.67
952.87	225.67
953.17	225.69
953.47	225.63
953.76	225.65
954.06	225.55
954.36	225.54
954.66	225.54
954.95	225.71
955.25	225.71
955.55	225.72
955.84	225.55
956.14	225.57
956.44	225.55
956.73	225.45
957.03	225.52
957.32	225.51
957.62	225.54
957.92	225.74
958.21	225.70
958.51	226.25
958.81	226.35
959.10	226.45
959.40	226.59
959.69	226.55
959.99	226.54
960.29	226.49
960.58	226.44
960.88	226.64
961.17	226.54
961.47	226.67
961.76	226.62
962.06	226.78
962.36	226.78
962.65	226.81
962.95	226.88
963.24	226.78
963.54	226.81
963.83	226.80
964.13	226.77
964.42	226.70
964.72	226.29
965.01	226.24
965.31	226.18
965.60	226.11
965.90	226.44
966.19	226.35
966.49	226.36
966.78	226.24
967.08	226.24
967.37	226.25
967.67	226.06
967.96	226.20
968.26	226.16
968.55	226.21
968.85	226.17
969.14	226.22
969.43	226.29
969.73	226.27
970.02	226.33
970.32	226.27
970.61	226.19
970.91	226.07
971.20	226.03
971.49	226.00
971.79	225.92
972.08	225.62
972.38	225.73
972.67	225.73
972.96	225.84
973.26	225.79
973.55	225.94
973.85	226.00
974.14	225.99
974.43	226.03
974.73	225.84
975.02	225.82
975.31	225.78
975.61	225.80
975.90	225.75
976.19	225.60
976.49	225.62
976.78	225.66
977.07	225.60
977.37	225.65
977.66	225.63
977.95	225.59
978.24	225.65
978.54	225.71
978.83	225.67
979.12	225.77
979.42	225.71
979.71	225.55
980.00	225.53
980.29	225.52
980.59	225.42
980.88	225.61
981.17	225.65
981.46	225.63
981.76	225.60
982.05	225.74
982.34	225.80
982.63	225.78
982.93	225.79
983.22	225.93
983.51	226.00
983.80	226.14
984.09	226.28
984.39	226.22
984.68	226.10
984.97	226.17
985.26	226.04
985.55	226.07
985.85	226.05
986.14	226.07
986.43	226.13
986.72	226.21
987.01	226.09
987.30	226.15
987.59	226.12
987.89	226.17
988.18	225.97
988.47	225.93
988.76	225.89
989.05	225.85
989.34	225.78
989.63	225.85
989.92	225.76
990.22	225.66
990.51	225.66
990.80	225.64
991.09	225.63
991.38	225.76
991.67	225.71
991.96	225.62
992.25	225.61
992.54	225.52
992.83	225.43
993.12	225.40
993.41	225.41
993.70	225.60
993.99	225.66
994.28	225.78
994.58	225.83
994.87	225.82
995.16	225.79
995.45	225.75
995.74	225.62
996.03	225.72
996.32	225.78
996.61	225.91
996.90	225.95
997.19	225.93
997.48	225.87
997.77	225.83
998.06	225.93
998.34	225.96
998.63	225.94
998.92	225.95
999.21	226.05
999.50	226.04
999.79	225.82
1000.08	225.73
1000.37	225.76
1000.66	225.73
1000.95	225.84
1001.24	225.93
1001.53	225.97
1001.82	225.94
1002.11	225.77
1002.40	225.86
1002.68	225.95
1002.97	226.27
1003.26	226.30
1003.55	226.20
1003.84	226.26
1004.13	226.44
1004.42	226.44
1004.71	226.40
1004.99	226.39
1005.28	226.50
1005.57	226.49
1005.86	226.50
1006.15	226.53
1006.44	226.38
1006.72	226.44
1007.01	226.41
1007.30	226.35
1007.59	226.39
1007.88	226.40
1008.17	226.40
1008.45	226.22
1008.74	225.99
1009.03	225.79
1009.32	225.77
1009.60	225.84
1009.89	225.74
1010.18	225.47
1010.47	225.41
1010.76	225.45
1011.04	225.45
1011.33	225.43
1011.62	225.45
1011.91	225.50
1012.19	225.52
1012.48	225.56
1012.77	225.58
1013.05	225.78
1013.34	225.80
1013.63	225.67
1013.92	225.70
1014.20	225.68
1014.49	225.75
1014.78	225.81
1015.06	225.55
1015.35	225.45
1015.64	225.48
1015.92	225.50
1016.21	225.57
1016.50	225.61
1016.78	225.68
1017.07	225.72
1017.36	225.61
1017.64	225.60
1017.93	225.65
1018.22	225.55
1018.50	225.51
1018.79	225.46
1019.08	225.25
1019.36	225.28
1019.65	225.29
1019.93	225.36
1020.22	225.49
1020.51	225.75
1020.79	225.70
1021.08	224.10
1021.36	223.85
1021.65	225.40
1021.94	226.30
1022.22	225.50
1022.51	225.10
1022.79	227.05
1023.08	226.65
1023.36	231.65
1023.65	224.90
>>>>>End Processed Spectral Data<<<<<
