SpectraSuite Data File
++++++++++++++++++++++++++++++++++++
Date: Wed Sep 04 18:02:30 EDT 2013
User: lab3
Dark Spectrum Present: Yes
Reference Spectrum Present: No
Number of Sampled Component Spectra: 1
Spectrometers: USB2E7196
Integration Time (usec): 170000 (USB2E7196)
Spectra Averaged: 20 (USB2E7196)
Boxcar Smoothing: 10 (USB2E7196)
Correct for Electrical Dark: No (USB2E7196)
Strobe/Lamp Enabled: No (USB2E7196)
Correct for Detector Non-linearity: No (USB2E7196)
Correct for Stray Light: No (USB2E7196)
Number of Pixels in Processed Spectrum: 2048
>>>>>Begin Processed Spectral Data<<<<<
339.09	0.00
339.48	212.60
339.86	214.30
340.24	216.50
340.63	217.20
341.01	226.20
341.39	220.20
341.78	221.90
342.16	224.40
342.54	224.25
342.93	212.66
343.31	223.40
343.69	223.99
344.07	224.48
344.46	225.01
344.84	225.40
345.22	225.39
345.60	225.71
345.99	225.84
346.37	226.00
346.75	226.08
347.13	226.09
347.52	226.10
347.90	226.34
348.28	226.29
348.66	226.37
349.05	226.20
349.43	226.27
349.81	226.41
350.19	226.50
350.57	226.59
350.96	226.71
351.34	226.79
351.72	226.93
352.10	227.05
352.48	227.01
352.87	227.06
353.25	227.18
353.63	227.15
354.01	227.27
354.39	227.28
354.77	227.38
355.15	227.66
355.54	227.74
355.92	227.65
356.30	227.70
356.68	228.07
357.06	228.21
357.44	228.17
357.82	228.16
358.20	228.66
358.58	228.70
358.97	228.65
359.35	228.82
359.73	228.86
360.11	228.92
360.49	229.07
360.87	229.21
361.25	229.24
361.63	229.52
362.01	229.59
362.39	229.64
362.77	229.77
363.15	229.78
363.53	229.81
363.91	229.87
364.29	229.93
364.67	229.54
365.05	229.60
365.43	229.72
365.81	229.85
366.19	229.65
366.57	229.83
366.95	229.85
367.33	229.75
367.71	229.78
368.09	229.82
368.47	229.77
368.85	229.71
369.23	229.78
369.61	229.65
369.99	229.85
370.37	229.85
370.75	229.96
371.13	229.75
371.51	229.63
371.89	229.71
372.27	229.72
372.65	229.72
373.03	229.69
373.41	229.63
373.78	229.54
374.16	229.27
374.54	229.14
374.92	229.08
375.30	229.06
375.68	228.87
376.06	228.87
376.44	228.74
376.82	228.67
377.19	228.60
377.57	228.50
377.95	228.24
378.33	228.12
378.71	227.80
379.09	227.85
379.47	227.97
379.84	227.82
380.22	227.67
380.60	227.58
380.98	227.46
381.36	227.43
381.73	227.31
382.11	227.35
382.49	227.27
382.87	227.15
383.25	226.99
383.62	227.55
384.00	227.39
384.38	227.39
384.76	227.47
385.13	227.54
385.51	227.40
385.89	227.30
386.27	227.27
386.64	227.25
387.02	227.16
387.40	226.98
387.78	226.92
388.15	226.91
388.53	226.83
388.91	226.80
389.29	226.70
389.66	226.70
390.04	226.59
390.42	226.62
390.79	226.65
391.17	226.72
391.55	226.20
391.92	226.20
392.30	226.17
392.68	226.03
393.05	226.05
393.43	226.14
393.81	226.19
394.18	226.17
394.56	226.28
394.94	226.37
395.31	226.40
395.69	226.61
396.06	226.74
396.44	226.76
396.82	226.79
397.19	227.15
397.57	227.09
397.95	227.26
398.32	227.15
398.70	227.29
399.07	227.49
399.45	227.59
399.82	227.69
400.20	227.77
400.58	227.92
400.95	227.83
401.33	227.99
401.70	228.41
402.08	228.61
402.45	228.65
402.83	228.90
403.20	229.00
403.58	229.10
403.95	229.31
404.33	229.54
404.71	229.80
405.08	230.20
405.46	230.52
405.83	230.80
406.21	231.15
406.58	231.45
406.96	231.64
407.33	231.97
407.70	232.34
408.08	233.08
408.45	233.51
408.83	234.03
409.20	234.43
409.58	234.68
409.95	235.24
410.33	235.89
410.70	236.30
411.08	237.00
411.45	237.64
411.82	238.24
412.20	239.05
412.57	239.96
412.95	240.25
413.32	241.12
413.69	241.88
414.07	242.79
414.44	243.67
414.82	244.70
415.19	245.86
415.56	247.08
415.94	248.13
416.31	249.53
416.68	250.86
417.06	252.45
417.43	254.07
417.81	255.76
418.18	257.51
418.55	259.42
418.93	261.40
419.30	263.48
419.67	265.70
420.04	268.02
420.42	270.27
420.79	273.38
421.16	276.21
421.54	279.33
421.91	282.40
422.28	285.54
422.66	288.88
423.03	292.45
423.40	295.75
423.77	299.31
424.15	303.03
424.52	306.93
424.89	311.22
425.26	315.06
425.64	318.85
426.01	323.11
426.38	327.43
426.75	331.99
427.13	336.54
427.50	341.29
427.87	346.20
428.24	351.20
428.61	355.79
428.99	361.12
429.36	366.59
429.73	372.01
430.10	377.61
430.47	383.38
430.85	389.03
431.22	395.42
431.59	402.27
431.96	408.57
432.33	415.56
432.70	422.11
433.08	430.12
433.45	437.65
433.82	445.10
434.19	453.47
434.56	461.56
434.93	469.33
435.30	477.18
435.68	485.95
436.05	494.42
436.42	502.69
436.79	510.45
437.16	518.80
437.53	527.68
437.90	536.42
438.27	544.91
438.64	553.86
439.01	562.05
439.38	569.20
439.75	576.32
440.13	584.36
440.50	592.07
440.87	598.18
441.24	604.60
441.61	611.49
441.98	616.60
442.35	622.57
442.72	628.57
443.09	634.36
443.46	637.65
443.83	639.99
444.20	641.94
444.57	644.65
444.94	645.88
445.31	647.09
445.68	648.50
446.05	648.77
446.42	647.39
446.79	646.05
447.16	644.33
447.53	643.18
447.90	639.48
448.27	635.68
448.64	630.81
449.01	627.05
449.37	620.85
449.74	614.73
450.11	607.83
450.48	599.94
450.85	592.00
451.22	585.07
451.59	578.57
451.96	572.34
452.33	564.06
452.70	556.63
453.07	547.93
453.43	538.65
453.80	530.30
454.17	522.21
454.54	514.46
454.91	506.36
455.28	498.08
455.65	490.54
456.02	483.65
456.38	477.28
456.75	469.45
457.12	462.91
457.49	456.57
457.86	450.15
458.23	445.05
458.59	439.26
458.96	433.52
459.33	428.19
459.70	422.97
460.07	418.88
460.43	414.07
460.80	409.60
461.17	405.89
461.54	401.74
461.91	397.92
462.27	393.93
462.64	390.65
463.01	387.12
463.38	383.83
463.74	379.81
464.11	376.79
464.48	374.14
464.85	371.30
465.21	369.16
465.58	366.75
465.95	363.82
466.32	361.55
466.68	359.23
467.05	357.06
467.42	354.88
467.78	352.63
468.15	350.50
468.52	348.92
468.88	346.70
469.25	344.73
469.62	343.27
469.98	341.70
470.35	340.21
470.72	338.77
471.08	337.01
471.45	335.77
471.82	334.38
472.18	332.98
472.55	331.94
472.92	330.56
473.28	329.44
473.65	328.44
474.02	327.31
474.38	326.43
474.75	325.71
475.11	324.89
475.48	324.23
475.85	323.65
476.21	322.95
476.58	322.50
476.94	322.17
477.31	321.63
477.67	321.17
478.04	320.76
478.41	320.50
478.77	320.83
479.14	320.49
479.50	320.43
479.87	320.43
480.23	320.41
480.60	320.43
480.96	320.49
481.33	320.90
481.69	321.13
482.06	321.33
482.42	321.61
482.79	321.94
483.15	322.35
483.52	322.94
483.88	323.34
484.25	323.97
484.61	324.55
484.98	325.30
485.34	326.25
485.71	327.24
486.07	328.25
486.44	328.76
486.80	329.86
487.17	331.00
487.53	332.40
487.90	333.87
488.26	335.55
488.62	337.35
488.99	338.80
489.35	340.64
489.72	342.58
490.08	344.55
490.44	346.64
490.81	348.92
491.17	351.15
491.54	353.84
491.90	356.31
492.26	359.07
492.63	361.86
492.99	364.74
493.36	367.91
493.72	371.24
494.08	374.78
494.45	378.59
494.81	382.51
495.17	386.48
495.54	390.66
495.90	394.82
496.26	399.23
496.63	403.99
496.99	408.81
497.35	413.85
497.72	419.13
498.08	424.65
498.44	430.35
498.80	436.30
499.17	442.38
499.53	448.77
499.89	455.45
500.26	462.28
500.62	469.15
500.98	476.48
501.34	484.00
501.71	491.84
502.07	499.60
502.43	507.84
502.79	516.19
503.16	524.83
503.52	533.92
503.88	543.18
504.24	552.91
504.60	562.97
504.97	573.30
505.33	583.80
505.69	594.56
506.05	605.65
506.41	617.05
506.78	628.78
507.14	640.80
507.50	652.98
507.86	665.65
508.22	678.91
508.59	692.07
508.95	705.64
509.31	719.75
509.67	734.23
510.03	748.45
510.39	763.20
510.75	778.23
511.12	793.37
511.48	808.82
511.84	824.54
512.20	840.29
512.56	856.50
512.92	873.31
513.28	890.47
513.64	907.38
514.00	924.89
514.37	942.46
514.73	960.53
515.09	978.75
515.45	997.20
515.81	1015.61
516.17	1034.18
516.53	1052.77
516.89	1071.49
517.25	1090.74
517.61	1111.09
517.97	1131.61
518.33	1151.62
518.69	1171.96
519.05	1192.72
519.41	1213.45
519.77	1234.67
520.13	1255.60
520.49	1276.30
520.85	1298.60
521.21	1320.05
521.57	1341.28
521.93	1362.15
522.29	1383.63
522.65	1404.62
523.01	1425.51
523.37	1446.13
523.73	1467.38
524.09	1488.51
524.45	1509.51
524.81	1530.43
525.17	1550.92
525.53	1571.20
525.89	1592.31
526.25	1613.21
526.61	1633.70
526.97	1654.78
527.33	1676.24
527.68	1698.10
528.04	1719.51
528.40	1739.26
528.76	1760.43
529.12	1780.95
529.48	1801.82
529.84	1821.72
530.20	1843.14
530.56	1864.15
530.91	1885.40
531.27	1906.07
531.63	1926.88
531.99	1947.47
532.35	1967.99
532.71	1988.56
533.07	2009.60
533.42	2029.65
533.78	2050.04
534.14	2070.40
534.50	2089.55
534.86	2108.81
535.21	2126.59
535.57	2145.22
535.93	2162.98
536.29	2180.67
536.65	2199.21
537.00	2217.14
537.36	2234.91
537.72	2251.28
538.08	2268.62
538.44	2285.20
538.79	2301.61
539.15	2317.79
539.51	2333.77
539.87	2348.76
540.22	2362.67
540.58	2376.97
540.94	2390.40
541.29	2402.81
541.65	2415.16
542.01	2427.98
542.37	2438.66
542.72	2450.00
543.08	2460.60
543.44	2472.71
543.79	2483.07
544.15	2492.65
544.51	2502.76
544.87	2512.42
545.22	2521.65
545.58	2529.26
545.94	2536.68
546.29	2543.52
546.65	2549.89
547.01	2555.40
547.36	2560.91
547.72	2566.57
548.07	2570.63
548.43	2576.32
548.79	2581.22
549.14	2585.54
549.50	2589.44
549.86	2593.55
550.21	2597.19
550.57	2600.63
550.92	2601.65
551.28	2602.91
551.64	2605.74
551.99	2607.90
552.35	2609.87
552.70	2611.31
553.06	2613.06
553.41	2614.35
553.77	2616.01
554.13	2618.10
554.48	2620.00
554.84	2621.69
555.19	2622.99
555.55	2624.70
555.90	2623.84
556.26	2623.41
556.61	2621.52
556.97	2619.61
557.32	2618.85
557.68	2617.52
558.03	2616.24
558.39	2615.40
558.74	2614.68
559.10	2611.05
559.45	2607.47
559.81	2603.12
560.16	2598.43
560.52	2593.82
560.87	2589.75
561.23	2584.16
561.58	2577.99
561.94	2571.23
562.29	2563.73
562.64	2556.95
563.00	2548.85
563.35	2542.56
563.71	2535.79
564.06	2530.26
564.42	2523.72
564.77	2516.80
565.12	2509.56
565.48	2501.50
565.83	2493.55
566.19	2485.76
566.54	2478.61
566.89	2470.42
567.25	2462.79
567.60	2455.70
567.96	2448.06
568.31	2439.93
568.66	2431.54
569.02	2422.61
569.37	2414.52
569.72	2407.15
570.08	2397.70
570.43	2388.04
570.78	2378.65
571.14	2369.19
571.49	2358.39
571.84	2348.79
572.20	2338.06
572.55	2327.85
572.90	2317.30
573.26	2307.08
573.61	2295.60
573.96	2284.05
574.31	2272.36
574.67	2260.30
575.02	2247.23
575.37	2234.28
575.72	2220.75
576.08	2208.49
576.43	2195.96
576.78	2182.70
577.13	2168.83
577.49	2156.14
577.84	2144.25
578.19	2132.00
578.54	2119.20
578.90	2107.41
579.25	2094.97
579.60	2082.46
579.95	2069.41
580.30	2056.32
580.66	2042.59
581.01	2029.37
581.36	2015.48
581.71	2002.68
582.06	1989.61
582.42	1977.34
582.77	1964.80
583.12	1953.11
583.47	1940.75
583.82	1928.60
584.17	1916.46
584.53	1904.50
584.88	1891.61
585.23	1878.60
585.58	1864.22
585.93	1851.10
586.28	1837.62
586.63	1823.33
586.98	1808.95
587.34	1795.88
587.69	1782.86
588.04	1770.33
588.39	1757.93
588.74	1745.51
589.09	1733.13
589.44	1720.43
589.79	1708.13
590.14	1696.30
590.49	1684.05
590.84	1672.03
591.19	1659.68
591.54	1647.35
591.89	1635.15
592.25	1624.85
592.60	1613.26
592.95	1602.07
593.30	1590.14
593.65	1578.35
594.00	1566.42
594.35	1556.68
594.70	1544.72
595.05	1533.07
595.40	1520.80
595.75	1509.03
596.10	1497.97
596.45	1486.65
596.80	1475.65
597.15	1464.15
597.50	1452.14
597.85	1440.50
598.19	1428.83
598.54	1417.36
598.89	1406.18
599.24	1395.70
599.59	1383.97
599.94	1373.08
600.29	1362.40
600.64	1351.86
600.99	1340.83
601.34	1331.20
601.69	1319.97
602.04	1309.85
602.39	1300.03
602.74	1290.98
603.08	1281.43
603.43	1271.77
603.78	1261.74
604.13	1251.95
604.48	1242.39
604.83	1232.50
605.18	1222.81
605.53	1213.09
605.87	1203.83
606.22	1195.07
606.57	1185.54
606.92	1175.93
607.27	1166.84
607.62	1157.96
607.96	1149.34
608.31	1141.41
608.66	1133.04
609.01	1124.35
609.36	1115.70
609.70	1106.81
610.05	1097.78
610.40	1089.09
610.75	1080.38
611.10	1072.00
611.44	1063.56
611.79	1055.14
612.14	1047.32
612.49	1039.23
612.83	1031.76
613.18	1023.78
613.53	1016.05
613.88	1007.74
614.22	1000.06
614.57	992.27
614.92	984.44
615.27	976.82
615.61	968.97
615.96	961.13
616.31	953.66
616.65	946.51
617.00	939.31
617.35	932.01
617.70	924.85
618.04	917.61
618.39	910.60
618.74	904.04
619.08	896.96
619.43	889.84
619.78	882.87
620.12	875.49
620.47	868.79
620.82	861.37
621.16	854.90
621.51	848.31
621.85	841.81
622.20	835.40
622.55	828.69
622.89	822.25
623.24	815.73
623.59	809.04
623.93	802.68
624.28	796.50
624.62	790.84
624.97	785.00
625.32	779.13
625.66	773.11
626.01	766.80
626.35	761.28
626.70	755.82
627.04	750.52
627.39	744.93
627.73	739.40
628.08	734.29
628.43	728.73
628.77	723.32
629.12	717.81
629.46	712.73
629.81	707.99
630.15	703.13
630.50	698.26
630.84	693.62
631.19	688.80
631.53	684.09
631.88	678.72
632.22	673.66
632.57	669.17
632.91	664.47
633.26	660.12
633.60	655.33
633.95	650.43
634.29	645.62
634.64	641.33
634.98	636.61
635.32	632.16
635.67	628.16
636.01	624.07
636.36	619.72
636.70	615.64
637.05	611.35
637.39	607.09
637.73	602.94
638.08	598.81
638.42	594.53
638.77	590.17
639.11	585.78
639.45	581.60
639.80	577.21
640.14	572.97
640.49	568.78
640.83	564.98
641.17	561.42
641.52	557.65
641.86	553.87
642.20	550.67
642.55	546.93
642.89	543.25
643.23	539.64
643.58	536.57
643.92	533.01
644.26	529.49
644.61	526.20
644.95	522.83
645.29	519.26
645.64	516.21
645.98	513.11
646.32	510.34
646.66	507.24
647.01	504.19
647.35	501.60
647.69	498.76
648.04	495.95
648.38	492.91
648.72	489.90
649.06	486.78
649.41	483.61
649.75	480.54
650.09	477.67
650.43	474.68
650.78	471.52
651.12	468.40
651.46	465.59
651.80	462.80
652.14	460.04
652.49	457.63
652.83	454.88
653.17	452.10
653.51	449.27
653.85	446.88
654.20	444.45
654.54	441.71
654.88	439.07
655.22	436.78
655.56	434.35
655.90	432.00
656.25	429.75
656.59	427.38
656.93	425.17
657.27	423.09
657.61	420.63
657.95	418.50
658.29	416.45
658.64	414.32
658.98	412.03
659.32	409.80
659.66	407.59
660.00	405.44
660.34	403.42
660.68	401.47
661.02	399.30
661.36	397.27
661.70	395.30
662.05	393.35
662.39	391.40
662.73	389.61
663.07	387.91
663.41	386.06
663.75	384.22
664.09	382.53
664.43	380.53
664.77	379.03
665.11	377.20
665.45	375.49
665.79	373.85
666.13	372.24
666.47	370.52
666.81	368.81
667.15	367.12
667.49	365.76
667.83	364.41
668.17	362.90
668.51	361.42
668.85	360.13
669.19	358.99
669.53	357.36
669.87	355.85
670.21	354.32
670.55	353.01
670.89	351.90
671.23	350.39
671.57	348.95
671.91	347.50
672.25	346.24
672.58	344.99
672.92	343.50
673.26	342.21
673.60	341.04
673.94	339.88
674.28	338.86
674.62	337.57
674.96	336.21
675.30	335.09
675.64	333.86
675.97	332.53
676.31	331.17
676.65	329.89
676.99	328.88
677.33	327.75
677.67	326.71
678.01	325.30
678.34	324.40
678.68	323.41
679.02	322.42
679.36	321.36
679.70	320.28
680.04	319.42
680.37	318.42
680.71	317.50
681.05	316.59
681.39	315.65
681.73	314.73
682.06	313.77
682.40	312.89
682.74	312.09
683.08	311.34
683.42	310.42
683.75	309.79
684.09	308.90
684.43	308.07
684.77	307.21
685.10	306.51
685.44	305.69
685.78	304.95
686.12	304.22
686.45	303.38
686.79	302.58
687.13	301.97
687.46	301.21
687.80	300.59
688.14	299.77
688.48	299.00
688.81	298.28
689.15	297.72
689.49	296.92
689.82	296.22
690.16	295.39
690.50	294.71
690.83	293.94
691.17	293.16
691.51	292.57
691.84	291.90
692.18	291.15
692.52	290.42
692.85	289.71
693.19	289.21
693.52	288.68
693.86	287.98
694.20	287.19
694.53	286.64
694.87	285.94
695.21	285.29
695.54	284.64
695.88	283.94
696.21	283.21
696.55	282.62
696.88	281.98
697.22	281.35
697.56	280.86
697.89	280.21
698.23	279.72
698.56	279.08
698.90	278.61
699.23	278.07
699.57	277.53
699.90	276.97
700.24	276.30
700.58	275.87
700.91	275.50
701.25	275.42
701.58	275.24
701.92	274.84
702.25	274.41
702.59	273.95
702.92	273.59
703.26	273.20
703.59	272.79
703.93	272.81
704.26	272.54
704.60	272.13
704.93	271.71
705.26	271.22
705.60	270.90
705.93	270.33
706.27	270.00
706.60	269.73
706.94	269.54
707.27	269.15
707.61	268.71
707.94	268.31
708.27	267.52
708.61	266.80
708.94	266.33
709.28	265.94
709.61	265.54
709.94	265.14
710.28	264.71
710.61	264.43
710.95	263.59
711.28	263.42
711.61	262.95
711.95	262.76
712.28	262.38
712.61	262.03
712.95	261.93
713.28	261.86
713.61	261.36
713.95	260.91
714.28	260.57
714.61	260.10
714.95	259.70
715.28	259.26
715.61	258.98
715.95	258.62
716.28	258.25
716.61	258.03
716.95	257.69
717.28	257.43
717.61	257.03
717.94	256.73
718.28	256.03
718.61	255.85
718.94	255.44
719.27	255.22
719.61	254.97
719.94	254.55
720.27	254.05
720.60	253.77
720.94	253.49
721.27	253.24
721.60	253.20
721.93	252.95
722.27	252.97
722.60	252.76
722.93	252.55
723.26	252.38
723.59	252.05
723.93	251.85
724.26	251.64
724.59	251.35
724.92	251.21
725.25	251.25
725.59	251.01
725.92	250.88
726.25	250.60
726.58	250.33
726.91	250.13
727.24	250.01
727.57	249.87
727.91	249.58
728.24	249.47
728.57	249.22
728.90	249.17
729.23	248.82
729.56	248.80
729.89	248.70
730.22	248.48
730.55	248.31
730.89	248.27
731.22	248.13
731.55	247.98
731.88	247.84
732.21	247.52
732.54	247.28
732.87	247.12
733.20	247.02
733.53	246.92
733.86	246.82
734.19	246.50
734.52	246.42
734.85	246.63
735.18	246.35
735.51	246.32
735.84	246.10
736.17	246.08
736.50	245.70
736.83	246.06
737.16	245.89
737.49	245.79
737.82	245.46
738.15	245.34
738.48	245.20
738.81	244.97
739.14	244.75
739.47	244.57
739.80	244.36
740.13	244.22
740.46	243.98
740.79	243.71
741.12	243.58
741.45	243.32
741.78	242.88
742.11	242.85
742.44	242.56
742.77	242.47
743.10	242.21
743.43	242.07
743.75	241.43
744.08	241.95
744.41	241.72
744.74	241.66
745.07	241.40
745.40	241.38
745.73	241.42
746.06	241.38
746.39	241.36
746.71	241.17
747.04	241.03
747.37	240.89
747.70	240.92
748.03	240.85
748.36	240.84
748.68	240.72
749.01	240.46
749.34	240.33
749.67	240.24
750.00	240.23
750.33	240.45
750.65	240.30
750.98	239.58
751.31	239.43
751.64	239.29
751.97	239.46
752.29	239.26
752.62	238.91
752.95	238.80
753.28	238.58
753.60	238.52
753.93	238.53
754.26	238.50
754.59	238.17
754.91	237.98
755.24	237.82
755.57	237.71
755.90	237.57
756.22	237.44
756.55	237.28
756.88	237.03
757.20	236.62
757.53	236.39
757.86	236.30
758.19	236.28
758.51	236.16
758.84	235.78
759.17	235.64
759.49	235.61
759.82	235.71
760.15	235.63
760.47	235.56
760.80	235.33
761.13	235.20
761.45	235.08
761.78	235.02
762.11	235.01
762.43	234.86
762.76	234.80
763.08	234.72
763.41	234.64
763.74	234.58
764.06	234.49
764.39	234.49
764.71	234.41
765.04	234.33
765.37	234.20
765.69	234.16
766.02	234.03
766.34	233.89
766.67	233.61
767.00	233.69
767.32	233.89
767.65	234.09
767.97	234.15
768.30	234.18
768.62	234.17
768.95	234.03
769.27	234.04
769.60	234.01
769.92	233.95
770.25	233.83
770.57	233.76
770.90	233.66
771.22	233.53
771.55	233.45
771.87	233.40
772.20	233.36
772.52	233.77
772.85	234.36
773.17	234.26
773.50	234.24
773.82	234.11
774.15	233.75
774.47	233.45
774.80	233.35
775.12	233.30
775.45	233.20
775.77	233.14
776.09	233.14
776.42	233.08
776.74	233.17
777.07	233.11
777.39	233.07
777.72	233.02
778.04	233.07
778.36	232.97
778.69	232.88
779.01	232.86
779.33	232.32
779.66	231.76
779.98	231.79
780.31	231.72
780.63	231.88
780.95	231.87
781.28	231.75
781.60	231.55
781.92	231.52
782.25	231.47
782.57	231.43
782.89	231.36
783.22	231.25
783.54	231.05
783.86	231.01
784.19	230.92
784.51	230.97
784.83	230.83
785.16	230.79
785.48	230.75
785.80	230.69
786.12	230.70
786.45	230.64
786.77	230.60
787.09	230.55
787.42	230.30
787.74	230.34
788.06	230.35
788.38	230.35
788.71	230.23
789.03	230.25
789.35	230.18
789.67	230.02
789.99	230.07
790.32	229.98
790.64	229.97
790.96	230.38
791.28	230.11
791.61	230.15
791.93	230.13
792.25	230.10
792.57	230.47
792.89	230.36
793.21	230.35
793.54	230.26
793.86	230.19
794.18	230.17
794.50	230.03
794.82	229.98
795.14	230.02
795.47	230.09
795.79	230.06
796.11	230.03
796.43	229.96
796.75	229.89
797.07	229.95
797.39	229.97
797.71	229.56
798.04	229.65
798.36	229.56
798.68	229.60
799.00	229.61
799.32	229.31
799.64	229.35
799.96	229.32
800.28	229.47
800.60	229.44
800.92	229.46
801.24	229.50
801.56	229.57
801.89	229.49
802.21	229.56
802.53	229.43
802.85	229.52
803.17	229.68
803.49	229.62
803.81	229.62
804.13	229.54
804.45	229.45
804.77	229.46
805.09	229.55
805.41	229.41
805.73	229.37
806.05	229.27
806.37	229.30
806.69	229.31
807.01	229.25
807.33	229.31
807.65	229.19
807.97	229.40
808.28	229.29
808.60	229.39
808.92	229.22
809.24	229.56
809.56	229.50
809.88	229.39
810.20	229.41
810.52	229.50
810.84	229.44
811.16	229.44
811.48	229.40
811.80	229.50
812.12	229.52
812.43	229.62
812.75	229.61
813.07	229.52
813.39	229.50
813.71	229.45
814.03	229.43
814.35	229.41
814.67	229.20
814.98	229.22
815.30	229.07
815.62	229.01
815.94	228.60
816.26	228.73
816.58	228.69
816.89	228.71
817.21	228.55
817.53	228.65
817.85	228.65
818.17	228.66
818.48	228.47
818.80	228.63
819.12	228.58
819.44	228.52
819.76	228.48
820.07	228.39
820.39	228.37
820.71	228.33
821.03	228.36
821.34	228.32
821.66	228.28
821.98	228.40
822.30	228.42
822.61	228.76
822.93	228.59
823.25	228.56
823.57	228.60
823.88	228.71
824.20	228.67
824.52	228.75
824.83	228.74
825.15	228.67
825.47	228.56
825.79	228.55
826.10	228.60
826.42	228.59
826.74	228.66
827.05	228.63
827.37	228.63
827.69	228.57
828.00	228.49
828.32	228.49
828.64	228.43
828.95	228.70
829.27	228.58
829.58	228.50
829.90	228.61
830.22	228.55
830.53	228.37
830.85	228.28
831.17	228.17
831.48	228.17
831.80	228.24
832.11	228.15
832.43	228.05
832.75	227.98
833.06	228.28
833.38	228.15
833.69	228.08
834.01	228.13
834.32	228.15
834.64	228.14
834.96	228.14
835.27	228.12
835.59	227.93
835.90	227.85
836.22	227.90
836.53	227.80
836.85	227.77
837.16	228.29
837.48	228.27
837.79	228.42
838.11	228.38
838.42	228.37
838.74	228.51
839.05	228.49
839.37	228.40
839.68	228.10
840.00	228.10
840.31	228.16
840.63	228.06
840.94	227.98
841.26	227.99
841.57	227.94
841.88	227.99
842.20	227.91
842.51	227.83
842.83	227.79
843.14	228.21
843.46	228.23
843.77	227.90
844.08	227.95
844.40	227.77
844.71	227.74
845.03	227.71
845.34	227.65
845.65	227.65
845.97	227.75
846.28	227.73
846.60	227.80
846.91	227.78
847.22	227.84
847.54	228.01
847.85	228.00
848.16	227.99
848.48	227.91
848.79	228.12
849.10	228.17
849.42	228.22
849.73	227.73
850.04	227.71
850.36	227.63
850.67	227.69
850.98	227.73
851.30	227.77
851.61	227.67
851.92	227.70
852.23	227.77
852.55	227.77
852.86	227.79
853.17	227.75
853.49	227.83
853.80	227.90
854.11	227.90
854.42	228.10
854.74	228.11
855.05	228.10
855.36	227.87
855.67	227.84
855.99	227.81
856.30	228.45
856.61	228.46
856.92	228.46
857.23	228.41
857.55	228.37
857.86	228.38
858.17	228.48
858.48	228.34
858.79	228.29
859.11	228.33
859.42	228.32
859.73	228.28
860.04	228.22
860.35	228.05
860.66	227.85
860.98	227.78
861.29	227.85
861.60	227.80
861.91	227.95
862.22	227.96
862.53	227.89
862.84	227.30
863.16	227.33
863.47	227.26
863.78	227.25
864.09	227.25
864.40	227.22
864.71	227.21
865.02	227.31
865.33	227.27
865.64	227.18
865.95	227.19
866.27	227.49
866.58	227.47
866.89	227.57
867.20	227.60
867.51	227.46
867.82	227.40
868.13	227.52
868.44	227.36
868.75	227.47
869.06	227.48
869.37	227.53
869.68	227.38
869.99	227.38
870.30	227.38
870.61	227.43
870.92	227.37
871.23	227.35
871.54	227.38
871.85	227.53
872.16	227.56
872.47	227.55
872.78	227.28
873.09	227.32
873.40	227.31
873.71	227.36
874.02	227.36
874.33	227.31
874.64	227.23
874.95	227.33
875.26	227.17
875.56	227.17
875.87	227.12
876.18	227.15
876.49	227.67
876.80	227.71
877.11	227.58
877.42	227.60
877.73	227.62
878.04	227.57
878.35	227.49
878.66	227.56
878.96	227.49
879.27	227.48
879.58	227.48
879.89	227.40
880.20	227.45
880.51	227.46
880.82	227.40
881.12	227.48
881.43	227.36
881.74	227.30
882.05	227.35
882.36	227.46
882.67	227.52
882.97	227.01
883.28	226.91
883.59	226.94
883.90	227.02
884.21	227.06
884.51	226.92
884.82	226.91
885.13	226.85
885.44	226.90
885.74	226.86
886.05	226.82
886.36	226.89
886.67	226.80
886.98	227.04
887.28	227.11
887.59	227.09
887.90	227.13
888.20	227.13
888.51	227.16
888.82	227.02
889.13	227.04
889.43	227.42
889.74	227.37
890.05	227.37
890.35	227.30
890.66	227.23
890.97	227.30
891.28	227.21
891.58	227.16
891.89	227.13
892.20	227.10
892.50	227.08
892.81	226.97
893.12	226.88
893.42	226.64
893.73	226.72
894.04	226.67
894.34	226.69
894.65	226.66
894.95	226.58
895.26	226.57
895.57	226.70
895.87	226.30
896.18	226.49
896.48	226.53
896.79	226.52
897.10	226.63
897.40	226.69
897.71	226.80
898.01	226.82
898.32	226.87
898.63	226.85
898.93	226.80
899.24	226.85
899.54	226.90
899.85	226.84
900.15	226.74
900.46	226.78
900.76	226.76
901.07	226.76
901.38	226.78
901.68	226.84
901.99	226.62
902.29	226.57
902.60	226.53
902.90	226.51
903.21	226.51
903.51	226.40
903.82	226.46
904.12	226.45
904.43	226.52
904.73	226.50
905.03	226.58
905.34	227.07
905.64	227.05
905.95	227.10
906.25	227.13
906.56	227.10
906.86	227.12
907.17	227.07
907.47	227.21
907.77	227.13
908.08	227.09
908.38	227.24
908.69	227.36
908.99	227.42
909.30	227.39
909.60	227.33
909.90	227.40
910.21	227.26
910.51	227.20
910.81	227.15
911.12	227.16
911.42	227.14
911.73	226.67
912.03	226.72
912.33	226.76
912.64	226.69
912.94	226.69
913.24	226.57
913.55	226.60
913.85	226.46
914.15	226.59
914.46	226.66
914.76	226.53
915.06	226.48
915.37	226.35
915.67	226.32
915.97	226.37
916.27	226.26
916.58	226.23
916.88	226.21
917.18	226.16
917.49	226.47
917.79	226.53
918.09	226.58
918.39	226.69
918.70	226.67
919.00	226.75
919.30	226.96
919.60	227.00
919.91	226.91
920.21	226.96
920.51	226.88
920.81	226.80
921.12	226.86
921.42	226.85
921.72	226.93
922.02	227.01
922.32	227.08
922.63	227.15
922.93	227.48
923.23	227.42
923.53	227.49
923.83	227.13
924.13	227.07
924.44	227.10
924.74	227.14
925.04	227.17
925.34	227.10
925.64	226.92
925.94	226.93
926.24	227.24
926.55	227.18
926.85	227.28
927.15	227.27
927.45	227.29
927.75	227.27
928.05	227.18
928.35	227.17
928.65	227.22
928.95	227.18
929.26	226.90
929.56	227.10
929.86	227.14
930.16	227.10
930.46	227.05
930.76	227.04
931.06	226.89
931.36	226.87
931.66	227.02
931.96	227.07
932.26	227.08
932.56	226.84
932.86	226.83
933.16	226.75
933.46	226.70
933.76	226.66
934.06	226.80
934.36	227.07
934.66	226.99
934.96	226.95
935.26	227.03
935.56	227.12
935.86	227.01
936.16	226.89
936.46	226.87
936.76	226.85
937.06	226.73
937.36	226.76
937.66	226.74
937.96	226.64
938.26	226.55
938.56	226.47
938.86	226.54
939.16	226.66
939.46	226.68
939.76	226.80
940.06	226.79
940.35	226.68
940.65	226.37
940.95	226.42
941.25	226.30
941.55	226.22
941.85	226.23
942.15	226.24
942.45	226.32
942.75	226.39
943.04	226.38
943.34	226.47
943.64	226.44
943.94	226.35
944.24	226.39
944.54	226.43
944.84	226.37
945.13	226.30
945.43	226.21
945.73	226.21
946.03	226.13
946.33	226.03
946.62	225.98
946.92	225.98
947.22	226.05
947.52	226.03
947.82	226.06
948.11	225.97
948.41	225.86
948.71	225.80
949.01	225.82
949.31	225.82
949.60	225.75
949.90	225.75
950.20	225.74
950.50	225.74
950.79	225.69
951.09	225.88
951.39	225.86
951.69	225.87
951.98	226.04
952.28	226.00
952.58	226.00
952.87	225.95
953.17	226.06
953.47	225.96
953.76	225.98
954.06	225.88
954.36	225.87
954.66	225.87
954.95	225.98
955.25	225.99
955.55	226.05
955.84	225.97
956.14	226.06
956.44	226.18
956.73	226.09
957.03	226.08
957.32	226.00
957.62	225.97
957.92	226.04
958.21	225.92
958.51	226.47
958.81	226.59
959.10	226.64
959.40	226.75
959.69	226.77
959.99	226.87
960.29	226.96
960.58	226.93
960.88	227.16
961.17	227.14
961.47	227.24
961.76	227.18
962.06	227.34
962.36	227.28
962.65	227.24
962.95	227.24
963.24	227.22
963.54	227.29
963.83	227.35
964.13	227.30
964.42	227.15
964.72	226.80
965.01	226.76
965.31	226.82
965.60	226.70
965.90	227.02
966.19	226.99
966.49	226.97
966.78	227.02
967.08	226.98
967.37	226.96
967.67	226.84
967.96	226.97
968.26	226.98
968.55	226.98
968.85	226.94
969.14	227.03
969.43	227.07
969.73	227.00
970.02	226.99
970.32	227.05
970.61	227.10
970.91	227.01
971.20	226.98
971.49	226.86
971.79	226.90
972.08	226.60
972.38	226.60
972.67	226.57
972.96	226.62
973.26	226.49
973.55	226.62
973.85	226.62
974.14	226.57
974.43	226.55
974.73	226.50
975.02	226.45
975.31	226.33
975.61	226.34
975.90	226.32
976.19	226.28
976.49	226.25
976.78	226.28
977.07	226.22
977.37	226.18
977.66	226.29
977.95	226.17
978.24	226.16
978.54	226.25
978.83	226.21
979.12	226.23
979.42	226.24
979.71	226.10
980.00	226.01
980.29	226.01
980.59	226.00
980.88	226.16
981.17	226.24
981.46	226.29
981.76	226.30
982.05	226.50
982.34	226.55
982.63	226.55
982.93	226.54
983.22	226.71
983.51	226.74
983.80	226.80
984.09	226.86
984.39	226.82
984.68	226.73
984.97	226.81
985.26	226.71
985.55	226.72
985.85	226.68
986.14	226.80
986.43	226.89
986.72	226.81
987.01	226.60
987.30	226.54
987.59	226.57
987.89	226.56
988.18	226.34
988.47	226.30
988.76	226.30
989.05	226.27
989.34	226.15
989.63	226.31
989.92	226.23
990.22	226.21
990.51	226.17
990.80	226.14
991.09	226.16
991.38	226.19
991.67	226.15
991.96	226.12
992.25	226.11
992.54	225.99
992.83	226.04
993.12	226.07
993.41	226.14
993.70	226.34
993.99	226.42
994.28	226.52
994.58	226.59
994.87	226.53
995.16	226.56
995.45	226.51
995.74	226.31
996.03	226.30
996.32	226.35
996.61	226.45
996.90	226.37
997.19	226.35
997.48	226.43
997.77	226.41
998.06	226.42
998.34	226.44
998.63	226.45
998.92	226.42
999.21	226.51
999.50	226.50
999.79	226.30
1000.08	226.25
1000.37	226.23
1000.66	226.15
1000.95	226.30
1001.24	226.28
1001.53	226.34
1001.82	226.38
1002.11	226.37
1002.40	226.40
1002.68	226.58
1002.97	226.93
1003.26	226.85
1003.55	226.70
1003.84	226.79
1004.13	226.98
1004.42	226.90
1004.71	226.91
1004.99	226.86
1005.28	226.88
1005.57	226.92
1005.86	226.90
1006.15	226.85
1006.44	226.80
1006.72	226.89
1007.01	226.78
1007.30	226.77
1007.59	226.78
1007.88	226.78
1008.17	226.82
1008.45	226.73
1008.74	226.52
1009.03	226.35
1009.32	226.41
1009.60	226.44
1009.89	226.34
1010.18	226.18
1010.47	226.21
1010.76	226.21
1011.04	226.28
1011.33	226.36
1011.62	226.44
1011.91	226.49
1012.19	226.56
1012.48	226.55
1012.77	226.50
1013.05	226.72
1013.34	226.72
1013.63	226.69
1013.92	226.67
1014.20	226.57
1014.49	226.64
1014.78	226.73
1015.06	226.68
1015.35	226.69
1015.64	226.76
1015.92	226.86
1016.21	226.89
1016.50	226.88
1016.78	226.97
1017.07	226.95
1017.36	226.83
1017.64	226.74
1017.93	226.77
1018.22	226.70
1018.50	226.74
1018.79	226.75
1019.08	226.53
1019.36	226.52
1019.65	226.47
1019.93	226.63
1020.22	226.68
1020.51	226.87
1020.79	226.74
1021.08	225.65
1021.36	226.50
1021.65	226.15
1021.94	226.35
1022.22	225.35
1022.51	225.80
1022.79	228.45
1023.08	226.30
1023.36	231.40
1023.65	224.85
>>>>>End Processed Spectral Data<<<<<
