SpectraSuite Data File
++++++++++++++++++++++++++++++++++++
Date: Wed Sep 04 17:39:45 EDT 2013
User: lab3
Dark Spectrum Present: Yes
Reference Spectrum Present: No
Number of Sampled Component Spectra: 1
Spectrometers: USB2E7196
Integration Time (usec): 170000 (USB2E7196)
Spectra Averaged: 20 (USB2E7196)
Boxcar Smoothing: 10 (USB2E7196)
Correct for Electrical Dark: No (USB2E7196)
Strobe/Lamp Enabled: No (USB2E7196)
Correct for Detector Non-linearity: No (USB2E7196)
Correct for Stray Light: No (USB2E7196)
Number of Pixels in Processed Spectrum: 2048
>>>>>Begin Processed Spectral Data<<<<<
339.09	0.00
339.48	211.90
339.86	213.10
340.24	214.25
340.63	217.75
341.01	226.15
341.39	220.10
341.78	222.30
342.16	223.50
342.54	223.80
342.93	211.78
343.31	222.45
343.69	223.07
344.07	223.49
344.46	224.09
344.84	224.50
345.22	224.40
345.60	224.65
345.99	224.82
346.37	224.87
346.75	224.88
347.13	225.03
347.52	225.08
347.90	225.30
348.28	225.37
348.66	225.39
349.05	225.28
349.43	225.43
349.81	225.50
350.19	225.52
350.57	225.60
350.96	225.67
351.34	225.80
351.72	225.83
352.10	226.05
352.48	226.03
352.87	226.01
353.25	226.10
353.63	226.12
354.01	226.14
354.39	226.23
354.77	226.34
355.15	226.46
355.54	226.42
355.92	226.36
356.30	226.46
356.68	226.85
357.06	226.97
357.44	226.92
357.82	226.94
358.20	227.44
358.58	227.47
358.97	227.57
359.35	227.70
359.73	227.88
360.11	227.95
360.49	227.98
360.87	228.05
361.25	228.19
361.63	228.41
362.01	228.51
362.39	228.53
362.77	228.61
363.15	228.61
363.53	228.69
363.91	228.75
364.29	228.71
364.67	228.30
365.05	228.34
365.43	228.46
365.81	228.59
366.19	228.43
366.57	228.66
366.95	228.64
367.33	228.55
367.71	228.44
368.09	228.47
368.47	228.55
368.85	228.52
369.23	228.62
369.61	228.46
369.99	228.57
370.37	228.69
370.75	228.92
371.13	228.82
371.51	228.82
371.89	228.82
372.27	228.80
372.65	228.87
373.03	228.86
373.41	228.78
373.78	228.70
374.16	228.49
374.54	228.29
374.92	228.16
375.30	228.14
375.68	228.12
376.06	228.11
376.44	227.97
376.82	227.98
377.19	227.81
377.57	227.75
377.95	227.56
378.33	227.44
378.71	227.10
379.09	227.13
379.47	227.05
379.84	226.93
380.22	226.86
380.60	226.69
380.98	226.65
381.36	226.59
381.73	226.50
382.11	226.54
382.49	226.43
382.87	226.36
383.25	226.29
383.62	226.70
384.00	226.55
384.38	226.50
384.76	226.47
385.13	226.63
385.51	226.53
385.89	226.45
386.27	226.43
386.64	226.37
387.02	226.29
387.40	226.22
387.78	226.24
388.15	226.20
388.53	226.15
388.91	226.03
389.29	225.86
389.66	225.83
390.04	225.67
390.42	225.83
390.79	225.83
391.17	225.79
391.55	225.27
391.92	225.24
392.30	225.29
392.68	225.13
393.05	225.11
393.43	225.14
393.81	225.12
394.18	225.00
394.56	225.08
394.94	225.19
395.31	225.13
395.69	225.28
396.06	225.40
396.44	225.47
396.82	225.47
397.19	225.83
397.57	225.84
397.95	226.00
398.32	225.81
398.70	225.86
399.07	225.99
399.45	226.05
399.82	226.12
400.20	226.12
400.58	226.24
400.95	226.09
401.33	226.29
401.70	226.78
402.08	226.97
402.45	227.12
402.83	227.34
403.20	227.52
403.58	227.57
403.95	227.73
404.33	227.94
404.71	228.19
405.08	228.58
405.46	228.80
405.83	229.03
406.21	229.25
406.58	229.49
406.96	229.75
407.33	230.02
407.70	230.42
408.08	231.15
408.45	231.54
408.83	231.98
409.20	232.23
409.58	232.30
409.95	232.73
410.33	233.20
410.70	233.43
411.08	234.06
411.45	234.52
411.82	235.05
412.20	235.75
412.57	236.57
412.95	236.86
413.32	237.56
413.69	238.13
414.07	238.98
414.44	239.82
414.82	240.68
415.19	241.75
415.56	242.69
415.94	243.40
416.31	244.63
416.68	245.77
417.06	247.14
417.43	248.50
417.81	249.96
418.18	251.35
418.55	253.00
418.93	254.58
419.30	256.39
419.67	258.15
420.04	260.04
420.42	261.91
420.79	264.50
421.16	266.78
421.54	269.42
421.91	272.00
422.28	274.50
422.66	277.28
423.03	280.16
423.40	282.99
423.77	285.98
424.15	288.88
424.52	292.01
424.89	295.52
425.26	298.72
425.64	301.93
426.01	305.34
426.38	308.91
426.75	312.72
427.13	316.59
427.50	320.58
427.87	324.61
428.24	328.69
428.61	332.31
428.99	336.83
429.36	341.23
429.73	345.73
430.10	350.35
430.47	354.83
430.85	359.38
431.22	364.45
431.59	370.11
431.96	375.27
432.33	381.11
432.70	386.62
433.08	393.33
433.45	399.41
433.82	405.60
434.19	412.49
434.56	419.18
434.93	425.48
435.30	431.95
435.68	438.99
436.05	446.00
436.42	452.92
436.79	459.25
437.16	466.22
437.53	473.58
437.90	480.95
438.27	488.24
438.64	495.60
439.01	502.49
439.38	508.40
439.75	514.37
440.13	521.17
440.50	527.43
440.87	532.44
441.24	537.77
441.61	543.58
441.98	547.70
442.35	552.53
442.72	557.58
443.09	562.50
443.46	565.57
443.83	567.53
444.20	569.37
444.57	571.61
444.94	572.69
445.31	573.43
445.68	574.56
446.05	574.73
446.42	573.80
446.79	572.71
447.16	571.46
447.53	570.57
447.90	567.41
448.27	564.49
448.64	560.39
449.01	557.40
449.37	552.39
449.74	547.61
450.11	542.19
450.48	535.76
450.85	529.11
451.22	523.30
451.59	517.94
451.96	512.48
452.33	505.80
452.70	499.61
453.07	492.69
453.43	485.11
453.80	478.30
454.17	471.65
454.54	465.23
454.91	458.48
455.28	451.80
455.65	445.61
456.02	440.04
456.38	434.83
456.75	428.39
457.12	422.94
457.49	417.72
457.86	412.28
458.23	408.14
458.59	403.44
458.96	398.78
459.33	394.47
459.70	390.41
460.07	387.08
460.43	383.26
460.80	379.68
461.17	376.70
461.54	373.30
461.91	370.28
462.27	367.13
462.64	364.38
463.01	361.50
463.38	358.81
463.74	355.40
464.11	352.92
464.48	350.73
464.85	348.41
465.21	346.63
465.58	344.65
465.95	342.21
466.32	340.33
466.68	338.44
467.05	336.64
467.42	334.91
467.78	332.97
468.15	331.22
468.52	329.82
468.88	327.89
469.25	326.32
469.62	325.02
469.98	323.62
470.35	322.44
470.72	321.30
471.08	319.83
471.45	318.83
471.82	317.84
472.18	316.66
472.55	315.92
472.92	314.84
473.28	313.97
473.65	313.12
474.02	312.31
474.38	311.59
474.75	310.98
475.11	310.26
475.48	309.82
475.85	309.31
476.21	308.88
476.58	308.56
476.94	308.33
477.31	307.94
477.67	307.80
478.04	307.50
478.41	307.42
478.77	307.89
479.14	307.62
479.50	307.53
479.87	307.77
480.23	307.82
480.60	307.83
480.96	307.99
481.33	308.45
481.69	308.72
482.06	309.14
482.42	309.44
482.79	309.90
483.15	310.29
483.52	310.96
483.88	311.46
484.25	312.05
484.61	312.60
484.98	313.27
485.34	314.09
485.71	315.07
486.07	315.95
486.44	316.50
486.80	317.65
487.17	318.89
487.53	320.25
487.90	321.58
488.26	323.22
488.62	324.78
488.99	326.17
489.35	327.75
489.72	329.36
490.08	331.16
490.44	332.93
490.81	334.97
491.17	336.97
491.54	339.19
491.90	341.57
492.26	344.12
492.63	346.69
492.99	349.34
493.36	352.08
493.72	355.07
494.08	358.15
494.45	361.48
494.81	364.89
495.17	368.16
495.54	371.90
495.90	375.71
496.26	379.70
496.63	383.87
496.99	388.21
497.35	392.79
497.72	397.69
498.08	402.72
498.44	407.75
498.80	413.19
499.17	418.79
499.53	424.43
499.89	430.31
500.26	436.48
500.62	442.70
500.98	449.39
501.34	456.01
501.71	462.87
502.07	469.77
502.43	476.92
502.79	484.46
503.16	492.18
503.52	500.02
503.88	508.13
504.24	516.52
504.60	525.38
504.97	534.43
505.33	543.44
505.69	552.94
506.05	562.64
506.41	572.29
506.78	582.34
507.14	592.61
507.50	603.34
507.86	614.14
508.22	625.25
508.59	636.24
508.95	647.96
509.31	660.15
509.67	672.28
510.03	684.63
510.39	697.12
510.75	709.80
511.12	722.83
511.48	736.08
511.84	749.31
512.20	762.73
512.56	776.45
512.92	790.40
513.28	804.42
513.64	818.63
514.00	833.29
514.37	847.84
514.73	862.90
515.09	877.95
515.45	893.20
515.81	908.45
516.17	923.95
516.53	939.07
516.89	954.10
517.25	970.02
517.61	986.42
517.97	1002.92
518.33	1019.14
518.69	1035.42
519.05	1051.91
519.41	1068.69
519.77	1085.55
520.13	1102.12
520.49	1118.54
520.85	1136.62
521.21	1153.53
521.57	1170.43
521.93	1186.82
522.29	1203.52
522.65	1219.46
523.01	1235.54
523.37	1251.44
523.73	1267.84
524.09	1284.08
524.45	1300.18
524.81	1316.01
525.17	1331.33
525.53	1346.90
525.89	1362.84
526.25	1378.56
526.61	1393.81
526.97	1409.39
527.33	1425.15
527.68	1441.37
528.04	1457.37
528.40	1471.70
528.76	1487.17
529.12	1502.25
529.48	1517.57
529.84	1532.07
530.20	1547.74
530.56	1562.85
530.91	1578.34
531.27	1592.90
531.63	1607.47
531.99	1622.07
532.35	1636.46
532.71	1651.19
533.07	1665.74
533.42	1679.60
533.78	1693.47
534.14	1707.51
534.50	1720.58
534.86	1733.84
535.21	1745.54
535.57	1757.96
535.93	1769.65
536.29	1781.83
536.65	1793.81
537.00	1805.65
537.36	1817.37
537.72	1827.77
538.08	1839.19
538.44	1849.86
538.79	1860.58
539.15	1871.09
539.51	1881.22
539.87	1890.60
540.22	1898.99
540.58	1907.87
540.94	1915.73
541.29	1923.18
541.65	1930.29
542.01	1937.80
542.37	1943.17
542.72	1949.27
543.08	1954.92
543.44	1961.38
543.79	1966.28
544.15	1971.25
544.51	1976.53
544.87	1981.06
545.22	1985.03
545.58	1988.25
545.94	1990.92
546.29	1993.06
546.65	1995.39
547.01	1997.24
547.36	1998.82
547.72	2000.32
548.07	2000.56
548.43	2001.91
548.79	2002.68
549.14	2002.90
549.50	2003.23
549.86	2004.05
550.21	2004.25
550.57	2004.43
550.92	2002.80
551.28	2001.24
551.64	2000.39
551.99	1998.79
552.35	1997.70
552.70	1997.28
553.06	1996.18
553.41	1994.70
553.77	1993.85
554.13	1992.71
554.48	1991.54
554.84	1990.00
555.19	1988.45
555.55	1987.62
555.90	1984.91
556.26	1982.19
556.61	1979.26
556.97	1975.14
557.32	1972.43
557.68	1969.58
558.03	1966.20
558.39	1963.14
558.74	1960.32
559.10	1956.09
559.45	1951.78
559.81	1946.56
560.16	1940.67
560.52	1934.75
560.87	1929.58
561.23	1923.60
561.58	1917.43
561.94	1910.50
562.29	1903.44
562.64	1896.90
563.00	1888.78
563.35	1882.19
563.71	1875.76
564.06	1869.56
564.42	1863.59
564.77	1856.76
565.12	1849.82
565.48	1842.88
565.83	1836.03
566.19	1828.90
566.54	1821.66
566.89	1814.52
567.25	1807.57
567.60	1801.12
567.96	1794.85
568.31	1788.14
568.66	1780.87
569.02	1773.15
569.37	1765.95
569.72	1759.69
570.08	1751.72
570.43	1743.95
570.78	1736.51
571.14	1728.72
571.49	1720.24
571.84	1712.42
572.20	1703.71
572.55	1695.40
572.90	1686.64
573.26	1678.10
573.61	1669.36
573.96	1660.49
574.31	1650.84
574.67	1641.66
575.02	1631.90
575.37	1621.74
575.72	1611.49
576.08	1602.02
576.43	1592.47
576.78	1582.52
577.13	1571.93
577.49	1562.45
577.84	1553.49
578.19	1544.35
578.54	1534.75
578.90	1525.98
579.25	1516.51
579.60	1507.47
579.95	1497.98
580.30	1488.30
580.66	1478.33
581.01	1468.43
581.36	1458.18
581.71	1448.99
582.06	1439.56
582.42	1430.39
582.77	1421.34
583.12	1412.67
583.47	1403.67
583.82	1394.85
584.17	1386.33
584.53	1377.77
584.88	1368.50
585.23	1359.02
585.58	1348.87
585.93	1339.23
586.28	1329.73
586.63	1319.87
586.98	1309.50
587.34	1299.80
587.69	1290.33
588.04	1281.44
588.39	1272.68
588.74	1264.15
589.09	1255.57
589.44	1246.34
589.79	1237.60
590.14	1229.38
590.49	1220.66
590.84	1212.04
591.19	1203.50
591.54	1194.87
591.89	1186.36
592.25	1179.02
592.60	1170.92
592.95	1163.16
593.30	1155.11
593.65	1146.65
594.00	1138.16
594.35	1131.93
594.70	1124.00
595.05	1116.17
595.40	1107.94
595.75	1099.83
596.10	1092.23
596.45	1084.47
596.80	1076.95
597.15	1069.18
597.50	1060.95
597.85	1053.20
598.19	1045.17
598.54	1037.15
598.89	1029.56
599.24	1022.26
599.59	1014.47
599.94	1007.20
600.29	999.92
600.64	992.87
600.99	985.59
601.34	979.29
601.69	971.22
602.04	964.40
602.39	957.57
602.74	951.28
603.08	944.90
603.43	938.61
603.78	931.79
604.13	925.46
604.48	919.02
604.83	912.53
605.18	905.87
605.53	899.62
605.87	893.65
606.22	887.70
606.57	881.57
606.92	875.36
607.27	869.41
607.62	863.70
607.96	857.98
608.31	852.62
608.66	846.93
609.01	841.20
609.36	835.51
609.70	829.85
610.05	824.11
610.40	818.32
610.75	812.60
611.10	807.05
611.44	801.37
611.79	795.96
612.14	790.54
612.49	785.12
612.83	779.98
613.18	774.71
613.53	769.40
613.88	764.02
614.22	758.62
614.57	753.15
614.92	747.58
615.27	742.43
615.61	737.12
615.96	731.83
616.31	726.69
616.65	721.97
617.00	717.00
617.35	712.04
617.70	707.23
618.04	702.10
618.39	697.40
618.74	692.92
619.08	688.11
619.43	683.48
619.78	678.86
620.12	674.11
620.47	669.39
620.82	664.52
621.16	659.82
621.51	655.56
621.85	651.34
622.20	647.04
622.55	642.54
622.89	638.18
623.24	634.06
623.59	629.88
623.93	625.61
624.28	621.71
624.62	618.10
624.97	614.40
625.32	610.51
625.66	606.46
626.01	602.30
626.35	598.42
626.70	594.61
627.04	591.17
627.39	587.47
627.73	584.02
628.08	580.65
628.43	577.14
628.77	573.47
629.12	569.83
629.46	566.56
629.81	563.40
630.15	560.23
630.50	556.85
630.84	553.54
631.19	550.17
631.53	546.82
631.88	543.11
632.22	539.57
632.57	536.65
632.91	533.59
633.26	530.71
633.60	527.69
633.95	524.36
634.29	521.07
634.64	518.06
634.98	514.67
635.32	511.68
635.67	508.95
636.01	506.06
636.36	503.19
636.70	500.35
637.05	497.47
637.39	494.66
637.73	491.81
638.08	489.14
638.42	486.31
638.77	483.51
639.11	480.57
639.45	477.66
639.80	474.54
640.14	471.74
640.49	468.83
640.83	466.14
641.17	463.85
641.52	461.32
641.86	458.87
642.20	456.77
642.55	454.23
642.89	451.72
643.23	449.28
643.58	447.04
643.92	444.39
644.26	441.99
644.61	439.83
644.95	437.61
645.29	435.17
645.64	433.09
645.98	430.93
646.32	428.91
646.66	426.78
647.01	424.65
647.35	422.70
647.69	420.73
648.04	418.80
648.38	416.82
648.72	414.75
649.06	412.63
649.41	410.45
649.75	408.38
650.09	406.38
650.43	404.38
650.78	402.32
651.12	400.52
651.46	398.60
651.80	396.52
652.14	394.57
652.49	392.89
652.83	391.00
653.17	389.18
653.51	387.26
653.85	385.69
654.20	384.00
654.54	382.21
654.88	380.57
655.22	379.03
655.56	377.31
655.90	375.72
656.25	374.11
656.59	372.57
656.93	371.15
657.27	369.81
657.61	368.22
657.95	366.76
658.29	365.23
658.64	363.96
658.98	362.47
659.32	360.98
659.66	359.44
660.00	357.98
660.34	356.57
660.68	355.21
661.02	353.79
661.36	352.51
661.70	351.12
662.05	349.66
662.39	348.26
662.73	347.13
663.07	346.03
663.41	344.79
663.75	343.46
664.09	342.14
664.43	340.62
664.77	339.37
665.11	338.13
665.45	336.98
665.79	335.73
666.13	334.52
666.47	333.36
666.81	332.21
667.15	331.03
667.49	330.04
667.83	329.20
668.17	328.16
668.51	327.07
668.85	326.21
669.19	325.51
669.53	324.44
669.87	323.34
670.21	322.19
670.55	321.28
670.89	320.58
671.23	319.67
671.57	318.75
671.91	317.87
672.25	316.99
672.58	316.15
672.92	315.07
673.26	314.27
673.60	313.45
673.94	312.64
674.28	311.88
674.62	311.12
674.96	310.11
675.30	309.26
675.64	308.50
675.97	307.69
676.31	306.70
676.65	305.81
676.99	305.14
677.33	304.31
677.67	303.54
678.01	302.48
678.34	301.72
678.68	301.08
679.02	300.34
679.36	299.55
679.70	298.75
680.04	298.20
680.37	297.46
680.71	296.70
681.05	296.04
681.39	295.42
681.73	294.55
682.06	293.83
682.40	293.22
682.74	292.59
683.08	292.07
683.42	291.38
683.75	290.87
684.09	290.13
684.43	289.61
684.77	288.93
685.10	288.39
685.44	287.83
685.78	287.24
686.12	286.67
686.45	286.17
686.79	285.61
687.13	284.96
687.46	284.42
687.80	284.04
688.14	283.38
688.48	282.80
688.81	282.38
689.15	282.04
689.49	281.47
689.82	281.07
690.16	280.30
690.50	279.85
690.83	279.33
691.17	278.74
691.51	278.16
691.84	277.74
692.18	277.25
692.52	276.70
692.85	276.25
693.19	276.05
693.52	275.57
693.86	275.05
694.20	274.67
694.53	274.31
694.87	273.69
695.21	273.24
695.54	272.73
695.88	272.16
696.21	271.54
696.55	271.17
696.88	270.57
697.22	270.17
697.56	269.80
697.89	269.26
698.23	268.96
698.56	268.56
698.90	268.20
699.23	267.76
699.57	267.40
699.90	266.89
700.24	266.22
700.58	265.84
700.91	265.59
701.25	265.55
701.58	265.49
701.92	265.30
702.25	264.99
702.59	264.65
702.92	264.34
703.26	264.05
703.59	263.67
703.93	263.80
704.26	263.55
704.60	263.25
704.93	262.97
705.26	262.58
705.60	262.39
705.93	261.89
706.27	261.73
706.60	261.52
706.94	261.49
707.27	261.24
707.61	260.99
707.94	260.65
708.27	260.07
708.61	259.40
708.94	259.05
709.28	258.71
709.61	258.44
709.94	258.20
710.28	257.93
710.61	257.62
710.95	256.85
711.28	256.80
711.61	256.44
711.95	256.25
712.28	255.98
712.61	255.60
712.95	255.66
713.28	255.52
713.61	255.18
713.95	254.71
714.28	254.51
714.61	254.14
714.95	253.86
715.28	253.54
715.61	253.24
715.95	252.94
716.28	252.73
716.61	252.52
716.95	252.17
717.28	251.88
717.61	251.63
717.94	251.46
718.28	250.93
718.61	250.65
718.94	250.33
719.27	250.14
719.61	249.98
719.94	249.63
720.27	249.23
720.60	248.95
720.94	248.85
721.27	248.64
721.60	248.54
721.93	248.32
722.27	248.32
722.60	248.20
722.93	248.06
723.26	247.90
723.59	247.70
723.93	247.70
724.26	247.66
724.59	247.45
724.92	247.32
725.25	247.28
725.59	247.12
725.92	247.07
726.25	246.89
726.58	246.73
726.91	246.53
727.24	246.42
727.57	246.38
727.91	246.01
728.24	245.89
728.57	245.71
728.90	245.56
729.23	245.24
729.56	245.33
729.89	245.25
730.22	245.01
730.55	244.80
730.89	244.58
731.22	244.32
731.55	244.19
731.88	244.03
732.21	243.73
732.54	243.56
732.87	243.36
733.20	243.20
733.53	243.11
733.86	242.94
734.19	242.69
734.52	242.45
734.85	242.70
735.18	242.44
735.51	242.40
735.84	242.35
736.17	242.26
736.50	241.90
736.83	242.21
737.16	242.15
737.49	242.10
737.82	241.89
738.15	241.84
738.48	241.72
738.81	241.55
739.14	241.40
739.47	241.20
739.80	241.01
740.13	240.91
740.46	240.65
740.79	240.45
741.12	240.38
741.45	240.19
741.78	239.76
742.11	239.76
742.44	239.54
742.77	239.41
743.10	239.22
743.43	238.96
743.75	238.30
744.08	238.75
744.41	238.56
744.74	238.35
745.07	238.00
745.40	237.90
745.73	237.94
746.06	237.92
746.39	237.91
746.71	237.79
747.04	237.50
747.37	237.41
747.70	237.33
748.03	237.19
748.36	237.19
748.68	237.01
749.01	236.78
749.34	236.63
749.67	236.50
750.00	236.46
750.33	236.77
750.65	236.81
750.98	236.16
751.31	236.05
751.64	236.00
751.97	236.31
752.29	236.20
752.62	235.89
752.95	235.69
753.28	235.51
753.60	235.44
753.93	235.54
754.26	235.47
754.59	235.29
754.91	235.11
755.24	235.01
755.57	235.00
755.90	234.87
756.22	234.79
756.55	234.69
756.88	234.47
757.20	234.05
757.53	233.75
757.86	233.65
758.19	233.57
758.51	233.57
758.84	233.21
759.17	233.06
759.49	233.06
759.82	233.23
760.15	233.26
760.47	233.16
760.80	232.95
761.13	232.93
761.45	232.93
761.78	232.94
762.11	232.91
762.43	232.79
762.76	232.72
763.08	232.74
763.41	232.68
763.74	232.69
764.06	232.61
764.39	232.59
764.71	232.55
765.04	232.47
765.37	232.41
765.69	232.41
766.02	232.34
766.34	232.20
766.67	232.04
767.00	232.09
767.32	232.37
767.65	232.68
767.97	232.58
768.30	232.48
768.62	232.39
768.95	232.22
769.27	232.21
769.60	232.22
769.92	232.09
770.25	231.95
770.57	231.84
770.90	231.84
771.22	231.74
771.55	231.64
771.87	231.66
772.20	231.58
772.52	231.86
772.85	232.49
773.17	232.54
773.50	232.43
773.82	232.26
774.15	231.92
774.47	231.57
774.80	231.55
775.12	231.52
775.45	231.51
775.77	231.59
776.09	231.57
776.42	231.63
776.74	231.73
777.07	231.71
777.39	231.68
777.72	231.52
778.04	231.58
778.36	231.55
778.69	231.49
779.01	231.46
779.33	231.08
779.66	230.41
779.98	230.27
780.31	230.27
780.63	230.40
780.95	230.47
781.28	230.45
781.60	230.31
781.92	230.29
782.25	230.20
782.57	230.14
782.89	230.02
783.22	229.92
783.54	229.81
783.86	229.80
784.19	229.78
784.51	229.84
784.83	229.73
785.16	229.70
785.48	229.64
785.80	229.61
786.12	229.56
786.45	229.55
786.77	229.58
787.09	229.48
787.42	229.26
787.74	229.20
788.06	229.12
788.38	229.08
788.71	228.94
789.03	228.95
789.35	228.94
789.67	228.91
789.99	228.86
790.32	228.69
790.64	228.67
790.96	228.96
791.28	228.83
791.61	228.71
791.93	228.76
792.25	228.75
792.57	229.06
792.89	228.92
793.21	228.94
793.54	228.91
793.86	228.84
794.18	228.88
794.50	228.80
794.82	228.77
795.14	228.87
795.47	229.05
795.79	229.06
796.11	229.02
796.43	228.98
796.75	228.98
797.07	229.02
797.39	228.98
797.71	228.69
798.04	228.72
798.36	228.79
798.68	228.76
799.00	228.75
799.32	228.43
799.64	228.54
799.96	228.52
800.28	228.57
800.60	228.62
800.92	228.62
801.24	228.55
801.56	228.58
801.89	228.55
802.21	228.59
802.53	228.49
802.85	228.57
803.17	228.85
803.49	228.72
803.81	228.68
804.13	228.72
804.45	228.66
804.77	228.73
805.09	228.83
805.41	228.76
805.73	228.67
806.05	228.67
806.37	228.68
806.69	228.62
807.01	228.56
807.33	228.56
807.65	228.40
807.97	228.71
808.28	228.72
808.60	228.66
808.92	228.54
809.24	228.85
809.56	228.74
809.88	228.57
810.20	228.65
810.52	228.69
810.84	228.60
811.16	228.52
811.48	228.52
811.80	228.63
812.12	228.58
812.43	228.72
812.75	228.70
813.07	228.60
813.39	228.69
813.71	228.54
814.03	228.49
814.35	228.50
814.67	228.22
814.98	228.14
815.30	228.12
815.62	228.03
815.94	227.66
816.26	227.85
816.58	227.71
816.89	227.75
817.21	227.69
817.53	227.67
817.85	227.68
818.17	227.56
818.48	227.27
818.80	227.38
819.12	227.18
819.44	227.01
819.76	227.03
820.07	227.00
820.39	227.03
820.71	227.06
821.03	227.09
821.34	227.04
821.66	227.09
821.98	227.10
822.30	227.10
822.61	227.48
822.93	227.19
823.25	227.21
823.57	227.08
823.88	227.21
824.20	227.22
824.52	227.27
824.83	227.24
825.15	227.25
825.47	227.16
825.79	227.23
826.10	227.20
826.42	227.06
826.74	227.05
827.05	227.00
827.37	226.96
827.69	226.90
828.00	226.87
828.32	226.84
828.64	226.81
828.95	227.06
829.27	226.84
829.58	226.83
829.90	226.87
830.22	226.91
830.53	226.70
830.85	226.65
831.17	226.47
831.48	226.56
831.80	226.56
832.11	226.53
832.43	226.46
832.75	226.52
833.06	226.83
833.38	226.68
833.69	226.64
834.01	226.64
834.32	226.61
834.64	226.63
834.96	226.58
835.27	226.54
835.59	226.35
835.90	226.20
836.22	226.22
836.53	226.07
836.85	226.02
837.16	226.53
837.48	226.51
837.79	226.77
838.11	226.79
838.42	226.80
838.74	226.94
839.05	226.92
839.37	226.90
839.68	226.66
840.00	226.65
840.31	226.77
840.63	226.71
840.94	226.65
841.26	226.61
841.57	226.58
841.88	226.67
842.20	226.58
842.51	226.60
842.83	226.60
843.14	227.10
843.46	227.17
843.77	226.97
844.08	226.95
844.40	226.83
844.71	226.70
845.03	226.64
845.34	226.58
845.65	226.58
845.97	226.61
846.28	226.67
846.60	226.73
846.91	226.75
847.22	226.82
847.54	227.01
847.85	227.04
848.16	227.14
848.48	227.04
848.79	227.24
849.10	227.38
849.42	227.45
849.73	226.95
850.04	226.89
850.36	226.73
850.67	226.83
850.98	226.85
851.30	226.93
851.61	226.95
851.92	226.94
852.23	227.07
852.55	227.10
852.86	227.06
853.17	227.08
853.49	227.09
853.80	227.18
854.11	227.20
854.42	227.24
854.74	227.10
855.05	227.05
855.36	226.81
855.67	226.75
855.99	226.66
856.30	227.23
856.61	227.19
856.92	227.21
857.23	227.23
857.55	227.12
857.86	227.10
858.17	227.15
858.48	227.12
858.79	227.03
859.11	227.01
859.42	226.95
859.73	226.85
860.04	226.82
860.35	226.63
860.66	226.51
860.98	226.53
861.29	226.61
861.60	226.61
861.91	226.75
862.22	226.64
862.53	226.63
862.84	226.09
863.16	226.21
863.47	226.11
863.78	226.06
864.09	226.09
864.40	226.10
864.71	226.15
865.02	226.20
865.33	226.16
865.64	226.04
865.95	226.06
866.27	226.40
866.58	226.34
866.89	226.46
867.20	226.41
867.51	226.26
867.82	226.26
868.13	226.41
868.44	226.25
868.75	226.33
869.06	226.29
869.37	226.38
869.68	226.22
869.99	226.18
870.30	226.18
870.61	226.26
870.92	226.12
871.23	226.05
871.54	226.05
871.85	226.14
872.16	226.23
872.47	226.19
872.78	225.88
873.09	225.98
873.40	225.89
873.71	225.91
874.02	225.97
874.33	225.89
874.64	225.74
874.95	225.88
875.26	225.83
875.56	225.80
875.87	225.70
876.18	225.70
876.49	226.27
876.80	226.24
877.11	226.17
877.42	226.29
877.73	226.26
878.04	226.18
878.35	226.19
878.66	226.18
878.96	226.25
879.27	226.27
879.58	226.23
879.89	226.23
880.20	226.32
880.51	226.32
880.82	226.35
881.12	226.51
881.43	226.39
881.74	226.29
882.05	226.35
882.36	226.40
882.67	226.47
882.97	225.96
883.28	225.92
883.59	225.94
883.90	225.98
884.21	226.04
884.51	226.03
884.82	225.94
885.13	225.92
885.44	225.87
885.74	225.90
886.05	225.89
886.36	225.92
886.67	225.73
886.98	225.95
887.28	225.98
887.59	225.87
887.90	225.95
888.20	225.94
888.51	226.01
888.82	225.94
889.13	225.95
889.43	226.37
889.74	226.38
890.05	226.31
890.35	226.29
890.66	226.21
890.97	226.17
891.28	226.16
891.58	226.23
891.89	226.25
892.20	226.15
892.50	226.11
892.81	226.06
893.12	226.06
893.42	225.75
893.73	225.80
894.04	225.87
894.34	225.86
894.65	225.88
894.95	225.76
895.26	225.83
895.57	226.05
895.87	225.53
896.18	225.63
896.48	225.72
896.79	225.71
897.10	225.80
897.40	225.76
897.71	225.83
898.01	225.76
898.32	225.79
898.63	225.80
898.93	225.87
899.24	225.88
899.54	225.90
899.85	226.02
900.15	225.96
900.46	225.92
900.76	225.97
901.07	225.94
901.38	226.01
901.68	226.00
901.99	225.81
902.29	225.89
902.60	225.79
902.90	225.67
903.21	225.58
903.51	225.57
903.82	225.68
904.12	225.68
904.43	225.75
904.73	225.79
905.03	225.84
905.34	226.28
905.64	226.26
905.95	226.29
906.25	226.24
906.56	226.28
906.86	226.32
907.17	226.25
907.47	226.30
907.77	226.21
908.08	226.10
908.38	226.06
908.69	226.08
908.99	226.16
909.30	226.30
909.60	226.41
909.90	226.34
910.21	226.26
910.51	226.13
910.81	226.10
911.12	226.04
911.42	226.03
911.73	225.54
912.03	225.56
912.33	225.64
912.64	225.64
912.94	225.58
913.24	225.51
913.55	225.45
913.85	225.42
914.15	225.50
914.46	225.55
914.76	225.57
915.06	225.55
915.37	225.43
915.67	225.38
915.97	225.34
916.27	225.33
916.58	225.36
916.88	225.39
917.18	225.33
917.49	225.70
917.79	225.71
918.09	225.75
918.39	225.87
918.70	225.87
919.00	225.89
919.30	226.13
919.60	226.05
919.91	226.01
920.21	226.11
920.51	226.06
920.81	226.14
921.12	226.16
921.42	226.13
921.72	226.20
922.02	226.18
922.32	226.18
922.63	226.16
922.93	226.40
923.23	226.46
923.53	226.40
923.83	226.01
924.13	226.13
924.44	226.13
924.74	226.18
925.04	226.25
925.34	226.23
925.64	226.04
925.94	226.08
926.24	226.39
926.55	226.26
926.85	226.31
927.15	226.21
927.45	226.23
927.75	226.22
928.05	226.23
928.35	226.24
928.65	226.35
928.95	226.38
929.26	226.12
929.56	226.20
929.86	226.32
930.16	226.28
930.46	226.16
930.76	226.21
931.06	226.05
931.36	225.94
931.66	226.05
931.96	226.07
932.26	226.12
932.56	225.98
932.86	226.07
933.16	226.06
933.46	226.04
933.76	225.94
934.06	226.06
934.36	226.22
934.66	226.21
934.96	226.12
935.26	226.18
935.56	226.23
935.86	226.06
936.16	226.05
936.46	226.07
936.76	226.07
937.06	225.95
937.36	225.95
937.66	225.94
937.96	225.88
938.26	225.83
938.56	225.76
938.86	225.76
939.16	225.85
939.46	225.88
939.76	225.93
940.06	225.90
940.35	225.86
940.65	225.58
940.95	225.60
941.25	225.48
941.55	225.39
941.85	225.45
942.15	225.60
942.45	225.70
942.75	225.72
943.04	225.70
943.34	225.80
943.64	225.77
943.94	225.71
944.24	225.74
944.54	225.80
944.84	225.92
945.13	225.79
945.43	225.67
945.73	225.63
946.03	225.63
946.33	225.63
946.62	225.56
946.92	225.57
947.22	225.60
947.52	225.63
947.82	225.67
948.11	225.54
948.41	225.37
948.71	225.21
949.01	225.24
949.31	225.28
949.60	225.26
949.90	225.35
950.20	225.35
950.50	225.35
950.79	225.32
951.09	225.27
951.39	225.27
951.69	225.29
951.98	225.39
952.28	225.36
952.58	225.39
952.87	225.40
953.17	225.47
953.47	225.41
953.76	225.41
954.06	225.35
954.36	225.38
954.66	225.43
954.95	225.53
955.25	225.52
955.55	225.49
955.84	225.37
956.14	225.41
956.44	225.38
956.73	225.27
957.03	225.23
957.32	225.20
957.62	225.18
957.92	225.22
958.21	225.17
958.51	225.71
958.81	225.71
959.10	225.72
959.40	225.80
959.69	225.86
959.99	225.94
960.29	226.05
960.58	225.94
960.88	226.08
961.17	226.08
961.47	226.14
961.76	226.10
962.06	226.16
962.36	226.07
962.65	226.11
962.95	226.15
963.24	226.11
963.54	226.16
963.83	226.25
964.13	226.21
964.42	226.16
964.72	225.80
965.01	225.79
965.31	225.81
965.60	225.66
965.90	225.93
966.19	225.87
966.49	225.81
966.78	225.85
967.08	225.78
967.37	225.78
967.67	225.64
967.96	225.68
968.26	225.71
968.55	225.75
968.85	225.77
969.14	225.65
969.43	225.63
969.73	225.52
970.02	225.45
970.32	225.47
970.61	225.40
970.91	225.22
971.20	225.19
971.49	225.17
971.79	225.25
972.08	224.86
972.38	224.81
972.67	224.74
972.96	224.81
973.26	224.73
973.55	224.88
973.85	224.91
974.14	224.95
974.43	225.01
974.73	224.93
975.02	224.76
975.31	224.88
975.61	224.90
975.90	224.95
976.19	224.96
976.49	224.95
976.78	225.04
977.07	225.03
977.37	225.08
977.66	225.10
977.95	225.10
978.24	225.23
978.54	225.37
978.83	225.42
979.12	225.41
979.42	225.49
979.71	225.35
980.00	225.42
980.29	225.45
980.59	225.35
980.88	225.52
981.17	225.61
981.46	225.61
981.76	225.64
982.05	225.77
982.34	225.81
982.63	225.84
982.93	225.83
983.22	226.00
983.51	226.09
983.80	226.17
984.09	226.18
984.39	226.17
984.68	226.09
984.97	226.09
985.26	226.11
985.55	226.20
985.85	226.17
986.14	226.15
986.43	226.17
986.72	226.12
987.01	226.02
987.30	226.06
987.59	226.06
987.89	226.10
988.18	225.99
988.47	225.95
988.76	225.92
989.05	225.89
989.34	225.87
989.63	225.91
989.92	225.80
990.22	225.79
990.51	225.75
990.80	225.75
991.09	225.86
991.38	225.88
991.67	225.80
991.96	225.75
992.25	225.70
992.54	225.62
992.83	225.63
993.12	225.56
993.41	225.58
993.70	225.70
993.99	225.73
994.28	225.73
994.58	225.82
994.87	225.76
995.16	225.73
995.45	225.66
995.74	225.46
996.03	225.53
996.32	225.55
996.61	225.63
996.90	225.59
997.19	225.53
997.48	225.56
997.77	225.56
998.06	225.58
998.34	225.60
998.63	225.61
998.92	225.61
999.21	225.76
999.50	225.80
999.79	225.68
1000.08	225.66
1000.37	225.65
1000.66	225.61
1000.95	225.75
1001.24	225.75
1001.53	225.78
1001.82	225.73
1002.11	225.65
1002.40	225.64
1002.68	225.77
1002.97	226.15
1003.26	226.00
1003.55	225.93
1003.84	225.92
1004.13	226.08
1004.42	226.02
1004.71	226.03
1004.99	226.00
1005.28	226.06
1005.57	226.02
1005.86	225.93
1006.15	225.94
1006.44	225.86
1006.72	225.90
1007.01	225.79
1007.30	225.80
1007.59	225.78
1007.88	225.85
1008.17	225.91
1008.45	225.81
1008.74	225.60
1009.03	225.42
1009.32	225.53
1009.60	225.49
1009.89	225.43
1010.18	225.23
1010.47	225.27
1010.76	225.31
1011.04	225.30
1011.33	225.30
1011.62	225.35
1011.91	225.37
1012.19	225.37
1012.48	225.45
1012.77	225.45
1013.05	225.62
1013.34	225.60
1013.63	225.58
1013.92	225.63
1014.20	225.51
1014.49	225.58
1014.78	225.72
1015.06	225.52
1015.35	225.48
1015.64	225.60
1015.92	225.66
1016.21	225.73
1016.50	225.75
1016.78	225.74
1017.07	225.80
1017.36	225.71
1017.64	225.69
1017.93	225.78
1018.22	225.75
1018.50	225.67
1018.79	225.55
1019.08	225.42
1019.36	225.52
1019.65	225.47
1019.93	225.58
1020.22	225.67
1020.51	225.90
1020.79	225.72
1021.08	225.45
1021.36	223.90
1021.65	223.80
1021.94	225.55
1022.22	226.90
1022.51	224.25
1022.79	227.65
1023.08	225.60
1023.36	230.75
1023.65	223.70
>>>>>End Processed Spectral Data<<<<<
