SpectraSuite Data File
++++++++++++++++++++++++++++++++++++
Date: Wed Sep 04 17:56:45 EDT 2013
User: lab3
Dark Spectrum Present: Yes
Reference Spectrum Present: No
Number of Sampled Component Spectra: 1
Spectrometers: USB2E7196
Integration Time (usec): 170000 (USB2E7196)
Spectra Averaged: 20 (USB2E7196)
Boxcar Smoothing: 10 (USB2E7196)
Correct for Electrical Dark: No (USB2E7196)
Strobe/Lamp Enabled: No (USB2E7196)
Correct for Detector Non-linearity: No (USB2E7196)
Correct for Stray Light: No (USB2E7196)
Number of Pixels in Processed Spectrum: 2048
>>>>>Begin Processed Spectral Data<<<<<
339.09	0.00
339.48	213.00
339.86	213.90
340.24	216.45
340.63	217.20
341.01	226.35
341.39	219.90
341.78	223.20
342.16	223.95
342.54	224.25
342.93	212.45
343.31	223.15
343.69	223.69
344.07	224.21
344.46	224.69
344.84	225.13
345.22	225.07
345.60	225.35
345.99	225.46
346.37	225.61
346.75	225.70
347.13	225.79
347.52	225.93
347.90	226.16
348.28	226.16
348.66	226.25
349.05	226.17
349.43	226.23
349.81	226.35
350.19	226.39
350.57	226.48
350.96	226.62
351.34	226.74
351.72	226.86
352.10	226.94
352.48	226.97
352.87	226.97
353.25	227.07
353.63	227.11
354.01	227.19
354.39	227.20
354.77	227.23
355.15	227.39
355.54	227.38
355.92	227.24
356.30	227.33
356.68	227.74
357.06	227.83
357.44	227.83
357.82	227.83
358.20	228.30
358.58	228.29
358.97	228.29
359.35	228.46
359.73	228.61
360.11	228.63
360.49	228.70
360.87	228.78
361.25	228.85
361.63	229.07
362.01	229.18
362.39	229.23
362.77	229.36
363.15	229.39
363.53	229.39
363.91	229.51
364.29	229.57
364.67	229.10
365.05	229.07
365.43	229.14
365.81	229.24
366.19	229.05
366.57	229.26
366.95	229.33
367.33	229.19
367.71	229.21
368.09	229.40
368.47	229.40
368.85	229.36
369.23	229.44
369.61	229.30
369.99	229.42
370.37	229.52
370.75	229.69
371.13	229.60
371.51	229.58
371.89	229.55
372.27	229.59
372.65	229.62
373.03	229.68
373.41	229.67
373.78	229.66
374.16	229.37
374.54	229.21
374.92	229.15
375.30	229.14
375.68	228.93
376.06	228.91
376.44	228.88
376.82	228.90
377.19	228.85
377.57	228.78
377.95	228.53
378.33	228.39
378.71	228.07
379.09	228.03
379.47	228.02
379.84	227.95
380.22	227.79
380.60	227.65
380.98	227.51
381.36	227.37
381.73	227.23
382.11	227.35
382.49	227.28
382.87	227.14
383.25	227.08
383.62	227.60
384.00	227.38
384.38	227.27
384.76	227.33
385.13	227.45
385.51	227.37
385.89	227.35
386.27	227.36
386.64	227.37
387.02	227.31
387.40	227.20
387.78	227.18
388.15	227.19
388.53	227.13
388.91	227.08
389.29	227.07
389.66	227.07
390.04	226.97
390.42	227.01
390.79	227.08
391.17	227.05
391.55	226.51
391.92	226.52
392.30	226.55
392.68	226.40
393.05	226.38
393.43	226.40
393.81	226.38
394.18	226.26
394.56	226.32
394.94	226.45
395.31	226.45
395.69	226.57
396.06	226.70
396.44	226.82
396.82	226.92
397.19	227.18
397.57	227.17
397.95	227.30
398.32	227.21
398.70	227.31
399.07	227.50
399.45	227.55
399.82	227.61
400.20	227.65
400.58	227.72
400.95	227.54
401.33	227.73
401.70	228.14
402.08	228.29
402.45	228.34
402.83	228.55
403.20	228.75
403.58	228.85
403.95	229.08
404.33	229.32
404.71	229.49
405.08	230.01
405.46	230.23
405.83	230.52
406.21	230.81
406.58	231.02
406.96	231.24
407.33	231.58
407.70	231.96
408.08	232.72
408.45	233.23
408.83	233.79
409.20	234.21
409.58	234.39
409.95	234.98
410.33	235.53
410.70	235.90
411.08	236.53
411.45	237.21
411.82	237.76
412.20	238.49
412.57	239.48
412.95	239.77
413.32	240.68
413.69	241.43
414.07	242.42
414.44	243.46
414.82	244.52
415.19	245.75
415.56	246.92
415.94	247.93
416.31	249.36
416.68	250.73
417.06	252.43
417.43	254.05
417.81	255.79
418.18	257.63
418.55	259.63
418.93	261.65
419.30	263.73
419.67	265.97
420.04	268.18
420.42	270.48
420.79	273.51
421.16	276.27
421.54	279.37
421.91	282.31
422.28	285.37
422.66	288.60
423.03	292.10
423.40	295.51
423.77	299.07
424.15	302.62
424.52	306.43
424.89	310.48
425.26	314.45
425.64	318.20
426.01	322.40
426.38	326.81
426.75	331.33
427.13	336.01
427.50	340.73
427.87	345.67
428.24	350.58
428.61	355.10
428.99	360.48
429.36	365.83
429.73	371.44
430.10	376.87
430.47	382.64
430.85	388.15
431.22	394.28
431.59	401.12
431.96	407.39
432.33	414.33
432.70	421.05
433.08	428.90
433.45	436.38
433.82	443.63
434.19	451.69
434.56	459.91
434.93	467.37
435.30	475.17
435.68	483.84
436.05	492.28
436.42	500.64
436.79	508.20
437.16	516.66
437.53	525.34
437.90	534.12
438.27	542.67
438.64	551.55
439.01	559.99
439.38	567.12
439.75	574.28
440.13	582.29
440.50	589.80
440.87	595.92
441.24	602.35
441.61	609.54
441.98	614.67
442.35	620.41
442.72	626.51
443.09	632.30
443.46	635.71
443.83	638.05
444.20	640.03
444.57	642.83
444.94	643.95
445.31	645.08
445.68	646.43
446.05	646.70
446.42	645.40
446.79	643.86
447.16	642.17
447.53	640.96
447.90	637.40
448.27	633.78
448.64	628.97
449.01	625.26
449.37	619.00
449.74	613.02
450.11	606.16
450.48	598.39
450.85	590.33
451.22	583.46
451.59	576.85
451.96	570.70
452.33	562.64
452.70	555.25
453.07	546.70
453.43	537.59
453.80	529.07
454.17	520.99
454.54	513.28
454.91	505.08
455.28	496.99
455.65	489.43
456.02	482.42
456.38	475.99
456.75	468.09
457.12	461.61
457.49	455.22
457.86	448.82
458.23	443.74
458.59	438.11
458.96	432.36
459.33	427.24
459.70	421.98
460.07	417.74
460.43	413.07
460.80	408.61
461.17	404.95
461.54	400.92
461.91	397.18
462.27	393.34
462.64	390.14
463.01	386.54
463.38	383.23
463.74	379.34
464.11	376.26
464.48	373.69
464.85	370.79
465.21	368.68
465.58	366.31
465.95	363.37
466.32	361.11
466.68	358.76
467.05	356.52
467.42	354.26
467.78	351.99
468.15	349.81
468.52	348.29
468.88	345.94
469.25	344.02
469.62	342.55
469.98	340.89
470.35	339.35
470.72	337.93
471.08	336.20
471.45	334.87
471.82	333.71
472.18	332.30
472.55	331.28
472.92	329.88
473.28	328.76
473.65	327.65
474.02	326.50
474.38	325.69
474.75	324.89
475.11	323.95
475.48	323.39
475.85	322.78
476.21	322.11
476.58	321.71
476.94	321.30
477.31	320.82
477.67	320.34
478.04	320.03
478.41	319.81
478.77	320.02
479.14	319.73
479.50	319.53
479.87	319.48
480.23	319.42
480.60	319.33
480.96	319.29
481.33	319.79
481.69	320.01
482.06	320.19
482.42	320.45
482.79	320.93
483.15	321.31
483.52	321.91
483.88	322.41
484.25	322.99
484.61	323.61
484.98	324.29
485.34	325.35
485.71	326.25
486.07	327.24
486.44	327.96
486.80	329.13
487.17	330.36
487.53	331.75
487.90	333.22
488.26	335.04
488.62	336.71
488.99	338.26
489.35	340.09
489.72	341.97
490.08	343.96
490.44	346.02
490.81	348.20
491.17	350.39
491.54	352.75
491.90	355.27
492.26	358.13
492.63	360.89
492.99	363.69
493.36	366.80
493.72	370.05
494.08	373.50
494.45	377.18
494.81	381.01
495.17	384.89
495.54	389.09
495.90	393.30
496.26	397.84
496.63	402.45
496.99	407.22
497.35	412.29
497.72	417.60
498.08	422.93
498.44	428.52
498.80	434.52
499.17	440.72
499.53	447.19
499.89	453.63
500.26	460.46
500.62	467.57
500.98	474.95
501.34	482.44
501.71	490.23
502.07	498.11
502.43	506.27
502.79	514.61
503.16	523.23
503.52	532.18
503.88	541.41
504.24	551.06
504.60	561.20
504.97	571.58
505.33	581.91
505.69	593.25
506.05	604.39
506.41	615.76
506.78	627.36
507.14	639.30
507.50	651.80
507.86	664.56
508.22	677.41
508.59	690.40
508.95	704.20
509.31	718.27
509.67	732.57
510.03	746.80
510.39	761.61
510.75	776.85
511.12	792.22
511.48	808.07
511.84	823.88
512.20	839.74
512.56	855.96
512.92	872.91
513.28	889.50
513.64	906.78
514.00	924.22
514.37	941.98
514.73	960.27
515.09	978.33
515.45	996.80
515.81	1015.26
516.17	1034.25
516.53	1052.82
516.89	1071.52
517.25	1090.76
517.61	1110.95
517.97	1131.26
518.33	1151.11
518.69	1171.27
519.05	1191.70
519.41	1212.20
519.77	1233.21
520.13	1253.95
520.49	1274.48
520.85	1296.75
521.21	1318.03
521.57	1339.31
521.93	1360.15
522.29	1381.18
522.65	1401.80
523.01	1422.73
523.37	1443.45
523.73	1464.45
524.09	1485.10
524.45	1506.14
524.81	1527.13
525.17	1547.89
525.53	1568.69
525.89	1589.74
526.25	1610.82
526.61	1631.06
526.97	1652.22
527.33	1673.59
527.68	1695.58
528.04	1717.16
528.40	1736.89
528.76	1757.77
529.12	1778.32
529.48	1799.25
529.84	1819.25
530.20	1840.50
530.56	1861.20
530.91	1882.14
531.27	1902.38
531.63	1923.02
531.99	1943.50
532.35	1963.62
532.71	1983.89
533.07	2004.45
533.42	2024.26
533.78	2044.07
534.14	2064.24
534.50	2083.51
534.86	2102.68
535.21	2120.08
535.57	2138.35
535.93	2156.26
536.29	2174.00
536.65	2192.16
537.00	2209.82
537.36	2227.69
537.72	2244.40
538.08	2261.65
538.44	2278.44
538.79	2295.14
539.15	2311.83
539.51	2327.57
539.87	2342.71
540.22	2356.83
540.58	2370.77
540.94	2383.85
541.29	2396.43
541.65	2408.88
542.01	2421.27
542.37	2431.90
542.72	2442.95
543.08	2453.93
543.44	2465.57
543.79	2475.84
544.15	2485.66
544.51	2495.75
544.87	2505.25
545.22	2513.80
545.58	2521.35
545.94	2528.65
546.29	2535.31
546.65	2541.45
547.01	2547.38
547.36	2553.15
547.72	2558.93
548.07	2563.20
548.43	2568.98
548.79	2573.68
549.14	2577.86
549.50	2581.52
549.86	2585.42
550.21	2589.44
550.57	2592.48
550.92	2593.85
551.28	2595.04
551.64	2597.55
551.99	2599.43
552.35	2600.94
552.70	2603.09
553.06	2604.73
553.41	2605.95
553.77	2607.46
554.13	2608.90
554.48	2609.85
554.84	2611.30
555.19	2612.41
555.55	2614.23
555.90	2613.15
556.26	2612.56
556.61	2610.68
556.97	2608.72
557.32	2608.13
557.68	2606.83
558.03	2605.17
558.39	2603.76
558.74	2602.97
559.10	2599.48
559.45	2595.75
559.81	2591.27
560.16	2586.13
560.52	2581.35
560.87	2576.94
561.23	2571.72
561.58	2565.96
561.94	2559.55
562.29	2551.83
562.64	2544.60
563.00	2536.18
563.35	2529.85
563.71	2523.25
564.06	2517.36
564.42	2510.98
564.77	2504.08
565.12	2496.28
565.48	2488.93
565.83	2481.17
566.19	2473.13
566.54	2465.47
566.89	2457.33
567.25	2449.60
567.60	2442.60
567.96	2434.85
568.31	2426.71
568.66	2417.86
569.02	2408.85
569.37	2400.73
569.72	2393.41
570.08	2384.19
570.43	2374.91
570.78	2365.64
571.14	2355.89
571.49	2345.47
571.84	2335.60
572.20	2324.79
572.55	2315.06
572.90	2303.98
573.26	2293.35
573.61	2282.14
573.96	2271.01
574.31	2259.40
574.67	2247.53
575.02	2234.74
575.37	2222.16
575.72	2208.94
576.08	2197.20
576.43	2184.55
576.78	2171.22
577.13	2157.32
577.49	2144.63
577.84	2132.63
578.19	2120.53
578.54	2108.25
578.90	2096.50
579.25	2084.31
579.60	2071.60
579.95	2058.51
580.30	2045.65
580.66	2032.27
581.01	2018.89
581.36	2004.79
581.71	1991.93
582.06	1979.37
582.42	1966.63
582.77	1954.01
583.12	1942.20
583.47	1929.84
583.82	1917.85
584.17	1906.23
584.53	1894.12
584.88	1881.36
585.23	1868.30
585.58	1854.18
585.93	1840.80
586.28	1827.25
586.63	1813.19
586.98	1799.20
587.34	1785.95
587.69	1772.67
588.04	1760.11
588.39	1747.75
588.74	1735.73
589.09	1723.43
589.44	1710.65
589.79	1698.96
590.14	1686.97
590.49	1674.51
590.84	1661.90
591.19	1649.81
591.54	1637.45
591.89	1625.65
592.25	1615.42
592.60	1603.81
592.95	1592.53
593.30	1580.52
593.65	1568.65
594.00	1556.66
594.35	1546.73
594.70	1534.88
595.05	1523.55
595.40	1511.60
595.75	1499.68
596.10	1488.23
596.45	1476.61
596.80	1465.68
597.15	1453.98
597.50	1442.15
597.85	1430.86
598.19	1419.20
598.54	1407.63
598.89	1396.44
599.24	1385.70
599.59	1373.71
599.94	1362.79
600.29	1352.20
600.64	1341.60
600.99	1330.99
601.34	1321.70
601.69	1310.49
602.04	1300.78
602.39	1290.78
602.74	1281.60
603.08	1272.43
603.43	1263.29
603.78	1253.69
604.13	1243.95
604.48	1234.18
604.83	1224.63
605.18	1215.07
605.53	1205.66
605.87	1196.52
606.22	1187.57
606.57	1178.37
606.92	1169.04
607.27	1160.18
607.62	1151.58
607.96	1143.32
608.31	1135.24
608.66	1126.58
609.01	1118.14
609.36	1109.44
609.70	1101.14
610.05	1092.33
610.40	1083.78
610.75	1074.94
611.10	1066.69
611.44	1057.94
611.79	1049.77
612.14	1041.93
612.49	1033.92
612.83	1026.48
613.18	1018.67
613.53	1010.92
613.88	1002.79
614.22	995.00
614.57	986.93
614.92	978.97
615.27	971.41
615.61	963.72
615.96	956.11
616.31	948.55
616.65	941.60
617.00	934.15
617.35	927.10
617.70	920.10
618.04	913.08
618.39	906.19
618.74	900.06
619.08	893.30
619.43	886.22
619.78	879.32
620.12	872.14
620.47	865.24
620.82	858.06
621.16	851.68
621.51	845.29
621.85	839.17
622.20	832.64
622.55	826.05
622.89	819.61
623.24	813.28
623.59	806.81
623.93	800.20
624.28	794.05
624.62	788.34
624.97	782.35
625.32	776.34
625.66	770.31
626.01	763.92
626.35	758.20
626.70	752.50
627.04	747.13
627.39	741.54
627.73	736.28
628.08	731.22
628.43	725.38
628.77	719.94
629.12	714.54
629.46	709.45
629.81	704.54
630.15	699.66
630.50	694.70
630.84	689.78
631.19	684.95
631.53	680.29
631.88	674.90
632.22	669.80
632.57	665.50
632.91	660.86
633.26	656.45
633.60	651.70
633.95	647.33
634.29	642.42
634.64	638.10
634.98	633.20
635.32	628.82
635.67	624.95
636.01	620.66
636.36	616.34
636.70	612.39
637.05	608.17
637.39	604.03
637.73	599.82
638.08	595.97
638.42	591.80
638.77	587.45
639.11	583.23
639.45	579.09
639.80	574.59
640.14	570.49
640.49	566.49
640.83	562.67
641.17	558.90
641.52	555.32
641.86	551.75
642.20	548.75
642.55	544.97
642.89	541.25
643.23	537.85
643.58	534.68
643.92	530.99
644.26	527.62
644.61	524.44
644.95	521.09
645.29	517.57
645.64	514.50
645.98	511.43
646.32	508.56
646.66	505.50
647.01	502.58
647.35	499.72
647.69	496.87
648.04	494.25
648.38	491.31
648.72	488.47
649.06	485.35
649.41	482.10
649.75	479.19
650.09	476.30
650.43	473.43
650.78	470.38
651.12	467.50
651.46	464.69
651.80	461.78
652.14	459.20
652.49	456.71
652.83	453.97
653.17	451.38
653.51	448.60
653.85	446.17
654.20	443.68
654.54	441.07
654.88	438.50
655.22	436.11
655.56	433.80
655.90	431.32
656.25	429.00
656.59	426.71
656.93	424.49
657.27	422.52
657.61	420.11
657.95	417.92
658.29	415.71
658.64	413.62
658.98	411.41
659.32	409.19
659.66	406.97
660.00	404.99
660.34	402.91
660.68	400.96
661.02	399.00
661.36	397.04
661.70	395.12
662.05	393.15
662.39	391.19
662.73	389.34
663.07	387.77
663.41	386.00
663.75	384.15
664.09	382.30
664.43	380.25
664.77	378.56
665.11	376.87
665.45	375.25
665.79	373.62
666.13	371.90
666.47	370.14
666.81	368.53
667.15	366.74
667.49	365.20
667.83	363.81
668.17	362.25
668.51	360.79
668.85	359.40
669.19	358.23
669.53	356.65
669.87	355.08
670.21	353.52
670.55	352.17
670.89	351.04
671.23	349.69
671.57	348.34
671.91	347.11
672.25	345.79
672.58	344.61
672.92	343.17
673.26	342.00
673.60	340.85
673.94	339.62
674.28	338.47
674.62	337.31
674.96	336.02
675.30	334.85
675.64	333.70
675.97	332.44
676.31	331.02
676.65	329.81
676.99	328.90
677.33	327.64
677.67	326.51
678.01	325.21
678.34	324.07
678.68	323.21
679.02	321.98
679.36	320.89
679.70	319.75
680.04	318.77
680.37	317.79
680.71	316.83
681.05	315.93
681.39	315.03
681.73	314.14
682.06	313.26
682.40	312.42
682.74	311.59
683.08	310.94
683.42	310.06
683.75	309.30
684.09	308.29
684.43	307.55
684.77	306.72
685.10	305.82
685.44	305.05
685.78	304.11
686.12	303.41
686.45	302.67
686.79	301.92
687.13	301.26
687.46	300.50
687.80	299.82
688.14	298.94
688.48	298.25
688.81	297.45
689.15	296.71
689.49	295.96
689.82	295.14
690.16	294.23
690.50	293.54
690.83	292.81
691.17	292.04
691.51	291.37
691.84	290.68
692.18	290.09
692.52	289.44
692.85	288.92
693.19	288.55
693.52	287.94
693.86	287.27
694.20	286.62
694.53	286.01
694.87	285.27
695.21	284.76
695.54	284.14
695.88	283.48
696.21	282.71
696.55	282.11
696.88	281.56
697.22	280.90
697.56	280.45
697.89	279.86
698.23	279.45
698.56	278.87
698.90	278.43
699.23	277.90
699.57	277.43
699.90	276.75
700.24	275.97
700.58	275.44
700.91	275.07
701.25	274.87
701.58	274.75
701.92	274.48
702.25	274.04
702.59	273.49
702.92	273.13
703.26	272.81
703.59	272.39
703.93	272.35
704.26	272.04
704.60	271.57
704.93	271.12
705.26	270.62
705.60	270.25
705.93	269.67
706.27	269.42
706.60	269.02
706.94	268.90
707.27	268.51
707.61	268.17
707.94	267.69
708.27	267.02
708.61	266.28
708.94	265.80
709.28	265.36
709.61	265.00
709.94	264.61
710.28	264.22
710.61	263.85
710.95	263.03
711.28	262.95
711.61	262.54
711.95	262.38
712.28	262.08
712.61	261.71
712.95	261.66
713.28	261.43
713.61	261.06
713.95	260.52
714.28	260.19
714.61	259.78
714.95	259.44
715.28	258.94
715.61	258.56
715.95	258.28
716.28	257.98
716.61	257.77
716.95	257.45
717.28	257.18
717.61	256.86
717.94	256.53
718.28	255.88
718.61	255.58
718.94	255.16
719.27	254.85
719.61	254.68
719.94	254.29
720.27	253.81
720.60	253.56
720.94	253.34
721.27	253.11
721.60	252.95
721.93	252.73
722.27	252.71
722.60	252.55
722.93	252.28
723.26	252.01
723.59	251.73
723.93	251.59
724.26	251.41
724.59	251.08
724.92	250.93
725.25	250.88
725.59	250.74
725.92	250.65
726.25	250.42
726.58	250.13
726.91	249.88
727.24	249.76
727.57	249.52
727.91	249.19
728.24	249.11
728.57	248.90
728.90	248.82
729.23	248.56
729.56	248.66
729.89	248.45
730.22	248.24
730.55	248.00
730.89	247.86
731.22	247.64
731.55	247.55
731.88	247.40
732.21	247.13
732.54	246.95
732.87	246.68
733.20	246.50
733.53	246.46
733.86	246.35
734.19	246.17
734.52	246.11
734.85	246.36
735.18	246.08
735.51	246.02
735.84	245.80
736.17	245.81
736.50	245.26
736.83	245.70
737.16	245.65
737.49	245.60
737.82	245.35
738.15	245.27
738.48	245.12
738.81	244.95
739.14	244.76
739.47	244.56
739.80	244.42
740.13	244.31
740.46	244.05
740.79	243.89
741.12	243.70
741.45	243.47
741.78	243.00
742.11	243.01
742.44	242.78
742.77	242.72
743.10	242.40
743.43	242.31
743.75	241.63
744.08	242.08
744.41	241.85
744.74	241.72
745.07	241.45
745.40	241.42
745.73	241.54
746.06	241.45
746.39	241.37
746.71	241.16
747.04	240.99
747.37	240.82
747.70	240.74
748.03	240.57
748.36	240.53
748.68	240.50
749.01	240.21
749.34	240.14
749.67	240.02
750.00	240.00
750.33	240.27
750.65	240.15
750.98	239.52
751.31	239.46
751.64	239.39
751.97	239.48
752.29	239.31
752.62	238.92
752.95	238.69
753.28	238.49
753.60	238.42
753.93	238.49
754.26	238.50
754.59	238.28
754.91	238.15
755.24	238.02
755.57	237.97
755.90	237.87
756.22	237.65
756.55	237.44
756.88	237.22
757.20	236.79
757.53	236.55
757.86	236.34
758.19	236.30
758.51	236.23
758.84	236.00
759.17	235.90
759.49	235.87
759.82	236.12
760.15	236.08
760.47	235.95
760.80	235.69
761.13	235.64
761.45	235.49
761.78	235.47
762.11	235.38
762.43	235.15
762.76	235.06
763.08	235.09
763.41	235.06
763.74	235.07
764.06	235.03
764.39	235.07
764.71	234.98
765.04	234.78
765.37	234.64
765.69	234.55
766.02	234.42
766.34	234.33
766.67	234.04
767.00	234.10
767.32	234.39
767.65	234.59
767.97	234.38
768.30	234.33
768.62	234.20
768.95	234.09
769.27	234.00
769.60	234.02
769.92	233.86
770.25	233.66
770.57	233.45
770.90	233.29
771.22	233.12
771.55	233.06
771.87	233.05
772.20	232.94
772.52	233.29
772.85	233.71
773.17	233.72
773.50	233.61
773.82	233.44
774.15	233.06
774.47	232.71
774.80	232.64
775.12	232.62
775.45	232.51
775.77	232.46
776.09	232.49
776.42	232.41
776.74	232.51
777.07	232.50
777.39	232.45
777.72	232.36
778.04	232.41
778.36	232.32
778.69	232.31
779.01	232.29
779.33	231.80
779.66	231.24
779.98	231.14
780.31	231.13
780.63	231.33
780.95	231.35
781.28	231.27
781.60	231.22
781.92	231.23
782.25	231.25
782.57	231.23
782.89	231.10
783.22	231.06
783.54	230.91
783.86	230.89
784.19	230.80
784.51	230.98
784.83	230.84
785.16	230.81
785.48	230.73
785.80	230.71
786.12	230.69
786.45	230.68
786.77	230.64
787.09	230.51
787.42	230.23
787.74	230.24
788.06	230.27
788.38	230.20
788.71	230.13
789.03	230.11
789.35	230.08
789.67	230.00
789.99	230.01
790.32	229.94
790.64	229.96
790.96	230.39
791.28	230.15
791.61	230.17
791.93	230.17
792.25	230.14
792.57	230.41
792.89	230.30
793.21	230.27
793.54	230.25
793.86	230.20
794.18	230.28
794.50	230.16
794.82	230.10
795.14	230.19
795.47	230.23
795.79	230.17
796.11	230.10
796.43	230.09
796.75	229.99
797.07	229.94
797.39	229.87
797.71	229.50
798.04	229.56
798.36	229.56
798.68	229.54
799.00	229.60
799.32	229.36
799.64	229.50
799.96	229.59
800.28	229.65
800.60	229.68
800.92	229.63
801.24	229.67
801.56	229.73
801.89	229.66
802.21	229.70
802.53	229.65
802.85	229.74
803.17	229.97
803.49	229.90
803.81	229.95
804.13	229.94
804.45	229.92
804.77	229.93
805.09	229.84
805.41	229.82
805.73	229.68
806.05	229.57
806.37	229.55
806.69	229.50
807.01	229.43
807.33	229.42
807.65	229.28
807.97	229.44
808.28	229.37
808.60	229.30
808.92	229.20
809.24	229.56
809.56	229.50
809.88	229.28
810.20	229.31
810.52	229.37
810.84	229.30
811.16	229.20
811.48	229.16
811.80	229.40
812.12	229.36
812.43	229.44
812.75	229.45
813.07	229.35
813.39	229.25
813.71	229.18
814.03	229.10
814.35	229.11
814.67	228.84
814.98	228.75
815.30	228.75
815.62	228.71
815.94	228.32
816.26	228.48
816.58	228.39
816.89	228.46
817.21	228.41
817.53	228.45
817.85	228.50
818.17	228.51
818.48	228.29
818.80	228.36
819.12	228.27
819.44	228.26
819.76	228.23
820.07	228.27
820.39	228.24
820.71	228.33
821.03	228.35
821.34	228.27
821.66	228.42
821.98	228.54
822.30	228.52
822.61	228.82
822.93	228.58
823.25	228.53
823.57	228.42
823.88	228.40
824.20	228.32
824.52	228.43
824.83	228.38
825.15	228.30
825.47	228.26
825.79	228.30
826.10	228.18
826.42	228.09
826.74	228.06
827.05	228.03
827.37	227.98
827.69	227.98
828.00	228.00
828.32	227.91
828.64	227.81
828.95	228.00
829.27	227.81
829.58	227.82
829.90	227.94
830.22	227.95
830.53	227.79
830.85	227.79
831.17	227.63
831.48	227.61
831.80	227.67
832.11	227.67
832.43	227.57
832.75	227.58
833.06	227.97
833.38	227.82
833.69	227.80
834.01	227.77
834.32	227.76
834.64	227.81
834.96	227.85
835.27	227.83
835.59	227.70
835.90	227.63
836.22	227.62
836.53	227.46
836.85	227.47
837.16	228.04
837.48	228.04
837.79	228.14
838.11	228.15
838.42	228.18
838.74	228.27
839.05	228.26
839.37	228.27
839.68	227.98
840.00	228.05
840.31	228.14
840.63	228.12
840.94	228.03
841.26	228.00
841.57	227.99
841.88	228.03
842.20	227.92
842.51	227.89
842.83	227.87
843.14	228.36
843.46	228.33
843.77	227.99
844.08	227.99
844.40	227.86
844.71	227.79
845.03	227.72
845.34	227.61
845.65	227.55
845.97	227.54
846.28	227.55
846.60	227.61
846.91	227.53
847.22	227.57
847.54	227.65
847.85	227.60
848.16	227.49
848.48	227.37
848.79	227.58
849.10	227.63
849.42	227.66
849.73	227.20
850.04	227.17
850.36	227.01
850.67	227.01
850.98	227.11
851.30	227.12
851.61	227.05
851.92	227.03
852.23	227.20
852.55	227.16
852.86	227.12
853.17	227.10
853.49	227.17
853.80	227.23
854.11	227.26
854.42	227.33
854.74	227.29
855.05	227.29
855.36	226.99
855.67	226.98
855.99	226.92
856.30	227.47
856.61	227.47
856.92	227.50
857.23	227.51
857.55	227.42
857.86	227.40
858.17	227.49
858.48	227.44
858.79	227.29
859.11	227.37
859.42	227.35
859.73	227.28
860.04	227.20
860.35	227.01
860.66	226.90
860.98	226.87
861.29	226.96
861.60	226.90
861.91	227.05
862.22	226.97
862.53	226.90
862.84	226.31
863.16	226.45
863.47	226.33
863.78	226.30
864.09	226.33
864.40	226.37
864.71	226.37
865.02	226.40
865.33	226.40
865.64	226.35
865.95	226.36
866.27	226.64
866.58	226.65
866.89	226.71
867.20	226.67
867.51	226.57
867.82	226.54
868.13	226.81
868.44	226.68
868.75	226.80
869.06	226.90
869.37	226.95
869.68	226.72
869.99	226.83
870.30	226.90
870.61	226.93
870.92	226.84
871.23	226.87
871.54	226.93
871.85	227.01
872.16	226.95
872.47	226.91
872.78	226.60
873.09	226.68
873.40	226.68
873.71	226.78
874.02	226.84
874.33	226.83
874.64	226.60
874.95	226.76
875.26	226.57
875.56	226.53
875.87	226.55
876.18	226.56
876.49	227.08
876.80	226.98
877.11	226.91
877.42	226.92
877.73	226.91
878.04	226.83
878.35	226.91
878.66	227.01
878.96	227.02
879.27	227.08
879.58	227.01
879.89	227.04
880.20	227.12
880.51	227.14
880.82	227.14
881.12	227.22
881.43	227.05
881.74	227.05
882.05	227.04
882.36	227.09
882.67	227.09
882.97	226.57
883.28	226.55
883.59	226.51
883.90	226.59
884.21	226.68
884.51	226.70
884.82	226.58
885.13	226.52
885.44	226.59
885.74	226.57
886.05	226.58
886.36	226.50
886.67	226.34
886.98	226.50
887.28	226.54
887.59	226.49
887.90	226.55
888.20	226.53
888.51	226.68
888.82	226.62
889.13	226.70
889.43	227.03
889.74	227.05
890.05	227.11
890.35	227.05
890.66	226.91
890.97	226.86
891.28	226.87
891.58	226.91
891.89	226.81
892.20	226.83
892.50	226.83
892.81	226.87
893.12	226.95
893.42	226.78
893.73	226.72
894.04	226.71
894.34	226.76
894.65	226.82
894.95	226.76
895.26	226.74
895.57	226.95
895.87	226.55
896.18	226.65
896.48	226.65
896.79	226.71
897.10	226.80
897.40	226.86
897.71	226.93
898.01	226.87
898.32	226.93
898.63	226.86
898.93	226.87
899.24	226.84
899.54	226.74
899.85	226.70
900.15	226.70
900.46	226.82
900.76	226.83
901.07	226.85
901.38	226.80
901.68	226.87
901.99	226.68
902.29	226.72
902.60	226.64
902.90	226.56
903.21	226.50
903.51	226.42
903.82	226.45
904.12	226.40
904.43	226.48
904.73	226.50
905.03	226.59
905.34	227.04
905.64	227.06
905.95	227.10
906.25	227.12
906.56	227.11
906.86	227.02
907.17	227.01
907.47	227.03
907.77	227.01
908.08	226.93
908.38	226.90
908.69	226.91
908.99	227.00
909.30	227.05
909.60	227.07
909.90	227.06
910.21	226.92
910.51	226.83
910.81	226.82
911.12	226.87
911.42	226.81
911.73	226.25
912.03	226.24
912.33	226.35
912.64	226.30
912.94	226.26
913.24	226.23
913.55	226.15
913.85	226.07
914.15	226.15
914.46	226.27
914.76	226.23
915.06	226.24
915.37	226.15
915.67	226.03
915.97	226.03
916.27	225.99
916.58	226.07
916.88	226.07
917.18	226.07
917.49	226.32
917.79	226.30
918.09	226.42
918.39	226.59
918.70	226.55
919.00	226.62
919.30	226.84
919.60	226.94
919.91	226.92
920.21	226.96
920.51	226.92
920.81	226.81
921.12	226.96
921.42	226.95
921.72	226.99
922.02	227.10
922.32	227.23
922.63	227.27
922.93	227.50
923.23	227.55
923.53	227.49
923.83	227.18
924.13	227.27
924.44	227.25
924.74	227.36
925.04	227.48
925.34	227.45
925.64	227.34
925.94	227.26
926.24	227.54
926.55	227.59
926.85	227.59
927.15	227.63
927.45	227.55
927.75	227.52
928.05	227.53
928.35	227.54
928.65	227.53
928.95	227.57
929.26	227.34
929.56	227.43
929.86	227.47
930.16	227.47
930.46	227.44
930.76	227.40
931.06	227.13
931.36	226.97
931.66	227.09
931.96	227.10
932.26	227.17
932.56	226.95
932.86	226.94
933.16	226.92
933.46	226.91
933.76	226.93
934.06	227.07
934.36	227.22
934.66	227.16
934.96	227.12
935.26	227.14
935.56	227.30
935.86	227.18
936.16	227.18
936.46	227.10
936.76	227.01
937.06	227.03
937.36	227.06
937.66	227.10
937.96	226.99
938.26	226.85
938.56	226.72
938.86	226.76
939.16	226.76
939.46	226.83
939.76	226.78
940.06	226.73
940.35	226.58
940.65	226.37
940.95	226.41
941.25	226.27
941.55	226.24
941.85	226.15
942.15	226.29
942.45	226.34
942.75	226.36
943.04	226.47
943.34	226.60
943.64	226.58
943.94	226.53
944.24	226.59
944.54	226.67
944.84	226.65
945.13	226.64
945.43	226.57
945.73	226.55
946.03	226.52
946.33	226.53
946.62	226.53
946.92	226.55
947.22	226.59
947.52	226.63
947.82	226.71
948.11	226.60
948.41	226.47
948.71	226.33
949.01	226.39
949.31	226.27
949.60	226.19
949.90	226.28
950.20	226.25
950.50	226.22
950.79	226.16
951.09	226.27
951.39	226.27
951.69	226.26
951.98	226.28
952.28	226.34
952.58	226.30
952.87	226.32
953.17	226.32
953.47	226.25
953.76	226.24
954.06	226.16
954.36	226.20
954.66	226.14
954.95	226.31
955.25	226.37
955.55	226.42
955.84	226.32
956.14	226.31
956.44	226.31
956.73	226.21
957.03	226.25
957.32	226.23
957.62	226.16
957.92	226.31
958.21	226.34
958.51	226.91
958.81	226.90
959.10	226.94
959.40	227.05
959.69	227.04
959.99	227.13
960.29	227.08
960.58	226.95
960.88	227.15
961.17	227.05
961.47	226.99
961.76	226.91
962.06	227.00
962.36	226.93
962.65	226.97
962.95	227.05
963.24	227.00
963.54	227.07
963.83	227.06
964.13	226.96
964.42	226.78
964.72	226.32
965.01	226.33
965.31	226.33
965.60	226.19
965.90	226.57
966.19	226.37
966.49	226.37
966.78	226.43
967.08	226.40
967.37	226.41
967.67	226.36
967.96	226.52
968.26	226.51
968.55	226.61
968.85	226.60
969.14	226.61
969.43	226.64
969.73	226.54
970.02	226.48
970.32	226.48
970.61	226.51
970.91	226.43
971.20	226.39
971.49	226.30
971.79	226.38
972.08	226.01
972.38	226.14
972.67	226.12
972.96	226.18
973.26	226.01
973.55	226.11
973.85	226.09
974.14	226.03
974.43	226.06
974.73	225.95
975.02	225.89
975.31	225.86
975.61	225.85
975.90	225.85
976.19	225.90
976.49	225.99
976.78	225.98
977.07	226.00
977.37	226.02
977.66	226.13
977.95	226.08
978.24	226.10
978.54	226.18
978.83	226.12
979.12	226.08
979.42	226.17
979.71	226.18
980.00	226.18
980.29	226.18
980.59	226.16
980.88	226.30
981.17	226.32
981.46	226.30
981.76	226.33
982.05	226.47
982.34	226.53
982.63	226.50
982.93	226.53
983.22	226.64
983.51	226.74
983.80	226.77
984.09	226.84
984.39	226.86
984.68	226.74
984.97	226.84
985.26	226.86
985.55	226.90
985.85	226.70
986.14	226.79
986.43	226.83
986.72	226.82
987.01	226.61
987.30	226.61
987.59	226.56
987.89	226.54
988.18	226.43
988.47	226.40
988.76	226.40
989.05	226.32
989.34	226.21
989.63	226.27
989.92	226.13
990.22	226.04
990.51	225.97
990.80	226.01
991.09	226.06
991.38	226.11
991.67	226.09
991.96	226.14
992.25	226.15
992.54	226.12
992.83	226.07
993.12	226.09
993.41	226.19
993.70	226.48
993.99	226.57
994.28	226.64
994.58	226.69
994.87	226.59
995.16	226.64
995.45	226.63
995.74	226.42
996.03	226.55
996.32	226.56
996.61	226.66
996.90	226.65
997.19	226.54
997.48	226.63
997.77	226.53
998.06	226.51
998.34	226.42
998.63	226.43
998.92	226.50
999.21	226.66
999.50	226.66
999.79	226.48
1000.08	226.49
1000.37	226.44
1000.66	226.38
1000.95	226.55
1001.24	226.56
1001.53	226.66
1001.82	226.70
1002.11	226.57
1002.40	226.69
1002.68	226.77
1002.97	227.09
1003.26	227.10
1003.55	226.95
1003.84	227.05
1004.13	227.19
1004.42	227.20
1004.71	227.17
1004.99	227.10
1005.28	227.12
1005.57	227.06
1005.86	226.91
1006.15	226.81
1006.44	226.76
1006.72	226.77
1007.01	226.55
1007.30	226.57
1007.59	226.43
1007.88	226.46
1008.17	226.53
1008.45	226.51
1008.74	226.33
1009.03	226.19
1009.32	226.27
1009.60	226.24
1009.89	226.16
1010.18	225.98
1010.47	225.92
1010.76	225.90
1011.04	225.90
1011.33	225.86
1011.62	225.91
1011.91	226.03
1012.19	226.08
1012.48	226.06
1012.77	226.06
1013.05	226.37
1013.34	226.39
1013.63	226.38
1013.92	226.42
1014.20	226.27
1014.49	226.18
1014.78	226.30
1015.06	226.13
1015.35	226.01
1015.64	226.02
1015.92	226.10
1016.21	226.15
1016.50	226.18
1016.78	226.20
1017.07	226.22
1017.36	226.15
1017.64	226.10
1017.93	226.07
1018.22	226.00
1018.50	226.00
1018.79	226.00
1019.08	225.73
1019.36	225.72
1019.65	225.72
1019.93	225.81
1020.22	225.94
1020.51	226.25
1020.79	226.19
1021.08	225.05
1021.36	224.80
1021.65	226.05
1021.94	225.30
1022.22	226.05
1022.51	225.60
1022.79	228.80
1023.08	226.25
1023.36	232.55
1023.65	225.85
>>>>>End Processed Spectral Data<<<<<
