SpectraSuite Data File
++++++++++++++++++++++++++++++++++++
Date: Wed Sep 04 18:00:17 EDT 2013
User: lab3
Dark Spectrum Present: Yes
Reference Spectrum Present: No
Number of Sampled Component Spectra: 1
Spectrometers: USB2E7196
Integration Time (usec): 170000 (USB2E7196)
Spectra Averaged: 20 (USB2E7196)
Boxcar Smoothing: 10 (USB2E7196)
Correct for Electrical Dark: No (USB2E7196)
Strobe/Lamp Enabled: No (USB2E7196)
Correct for Detector Non-linearity: No (USB2E7196)
Correct for Stray Light: No (USB2E7196)
Number of Pixels in Processed Spectrum: 2048
>>>>>Begin Processed Spectral Data<<<<<
339.09	0.00
339.48	213.25
339.86	215.50
340.24	216.70
340.63	217.20
341.01	227.05
341.39	219.75
341.78	223.40
342.16	224.60
342.54	223.75
342.93	212.84
343.31	223.51
343.69	224.05
344.07	224.50
344.46	225.00
344.84	225.42
345.22	225.34
345.60	225.70
345.99	225.80
346.37	225.92
346.75	226.03
347.13	226.09
347.52	226.16
347.90	226.37
348.28	226.37
348.66	226.44
349.05	226.25
349.43	226.37
349.81	226.45
350.19	226.48
350.57	226.57
350.96	226.70
351.34	226.85
351.72	226.94
352.10	227.05
352.48	227.04
352.87	227.06
353.25	227.12
353.63	227.10
354.01	227.20
354.39	227.25
354.77	227.34
355.15	227.55
355.54	227.61
355.92	227.60
356.30	227.70
356.68	228.00
357.06	228.13
357.44	228.03
357.82	228.08
358.20	228.56
358.58	228.56
358.97	228.61
359.35	228.78
359.73	228.95
360.11	229.00
360.49	229.10
360.87	229.22
361.25	229.35
361.63	229.59
362.01	229.65
362.39	229.71
362.77	229.76
363.15	229.66
363.53	229.67
363.91	229.69
364.29	229.77
364.67	229.41
365.05	229.45
365.43	229.62
365.81	229.66
366.19	229.53
366.57	229.68
366.95	229.73
367.33	229.68
367.71	229.67
368.09	229.71
368.47	229.70
368.85	229.64
369.23	229.73
369.61	229.57
369.99	229.67
370.37	229.70
370.75	229.93
371.13	229.96
371.51	229.92
371.89	229.95
372.27	229.91
372.65	229.90
373.03	229.86
373.41	229.80
373.78	229.79
374.16	229.54
374.54	229.32
374.92	229.15
375.30	228.99
375.68	228.89
376.06	228.88
376.44	228.82
376.82	228.76
377.19	228.73
377.57	228.62
377.95	228.44
378.33	228.32
378.71	227.96
379.09	227.85
379.47	227.93
379.84	227.78
380.22	227.64
380.60	227.56
380.98	227.48
381.36	227.43
381.73	227.28
382.11	227.29
382.49	227.30
382.87	227.20
383.25	227.21
383.62	227.74
384.00	227.60
384.38	227.56
384.76	227.65
385.13	227.68
385.51	227.72
385.89	227.58
386.27	227.53
386.64	227.56
387.02	227.48
387.40	227.26
387.78	227.26
388.15	227.17
388.53	227.10
388.91	227.03
389.29	226.95
389.66	226.96
390.04	226.88
390.42	226.97
390.79	226.98
391.17	226.98
391.55	226.31
391.92	226.32
392.30	226.34
392.68	226.25
393.05	226.24
393.43	226.22
393.81	226.26
394.18	226.23
394.56	226.25
394.94	226.38
395.31	226.48
395.69	226.71
396.06	226.80
396.44	226.89
396.82	226.93
397.19	227.21
397.57	227.24
397.95	227.31
398.32	227.18
398.70	227.31
399.07	227.49
399.45	227.62
399.82	227.73
400.20	227.83
400.58	227.89
400.95	227.78
401.33	227.98
401.70	228.50
402.08	228.60
402.45	228.77
402.83	229.05
403.20	229.16
403.58	229.26
403.95	229.59
404.33	229.78
404.71	230.01
405.08	230.45
405.46	230.67
405.83	230.92
406.21	231.24
406.58	231.60
406.96	231.86
407.33	232.19
407.70	232.51
408.08	233.15
408.45	233.64
408.83	234.17
409.20	234.60
409.58	234.74
409.95	235.31
410.33	235.88
410.70	236.19
411.08	236.84
411.45	237.39
411.82	237.95
412.20	238.73
412.57	239.70
412.95	240.05
413.32	240.93
413.69	241.75
414.07	242.69
414.44	243.66
414.82	244.63
415.19	245.94
415.56	247.17
415.94	248.22
416.31	249.69
416.68	251.09
417.06	252.59
417.43	254.17
417.81	255.92
418.18	257.71
418.55	259.68
418.93	261.79
419.30	263.90
419.67	266.12
420.04	268.35
420.42	270.68
420.79	273.74
421.16	276.56
421.54	279.69
421.91	282.74
422.28	285.81
422.66	289.10
423.03	292.47
423.40	295.80
423.77	299.38
424.15	302.96
424.52	306.78
424.89	311.05
425.26	315.06
425.64	318.97
426.01	323.15
426.38	327.60
426.75	332.11
427.13	336.70
427.50	341.42
427.87	346.41
428.24	351.37
428.61	356.00
428.99	361.21
429.36	366.75
429.73	372.31
430.10	377.85
430.47	383.50
430.85	389.25
431.22	395.50
431.59	402.30
431.96	408.56
432.33	415.58
432.70	422.30
433.08	430.30
433.45	437.69
433.82	445.13
434.19	453.31
434.56	461.44
434.93	469.21
435.30	476.99
435.68	485.74
436.05	494.23
436.42	502.56
436.79	510.45
437.16	518.84
437.53	527.69
437.90	536.55
438.27	545.14
438.64	554.10
439.01	562.44
439.38	569.72
439.75	576.97
440.13	584.92
440.50	592.37
440.87	598.44
441.24	604.87
441.61	611.85
441.98	617.14
442.35	622.90
442.72	628.96
443.09	634.75
443.46	638.06
443.83	640.27
444.20	642.30
444.57	644.89
444.94	646.06
445.31	647.17
445.68	648.35
446.05	648.52
446.42	647.15
446.79	645.73
447.16	644.02
447.53	642.75
447.90	639.15
448.27	635.50
448.64	630.56
449.01	626.81
449.37	620.65
449.74	614.42
450.11	607.51
450.48	599.49
450.85	591.45
451.22	584.51
451.59	578.05
451.96	571.52
452.33	563.42
452.70	555.95
453.07	547.01
453.43	537.84
453.80	529.39
454.17	521.28
454.54	513.41
454.91	505.20
455.28	496.95
455.65	489.36
456.02	482.43
456.38	476.08
456.75	468.22
457.12	461.67
457.49	455.41
457.86	449.01
458.23	444.00
458.59	438.38
458.96	432.57
459.33	427.33
459.70	422.39
460.07	418.30
460.43	413.45
460.80	409.34
461.17	405.65
461.54	401.72
461.91	397.93
462.27	394.10
462.64	390.82
463.01	387.41
463.38	384.15
463.74	380.15
464.11	377.01
464.48	374.44
464.85	371.55
465.21	369.31
465.58	367.03
465.95	364.14
466.32	361.87
466.68	359.68
467.05	357.47
467.42	355.19
467.78	352.83
468.15	350.82
468.52	349.10
468.88	346.88
469.25	344.98
469.62	343.53
469.98	341.86
470.35	340.35
470.72	338.80
471.08	337.00
471.45	335.69
471.82	334.53
472.18	333.08
472.55	332.07
472.92	330.76
473.28	329.63
473.65	328.51
474.02	327.48
474.38	326.57
474.75	325.81
475.11	324.88
475.48	324.25
475.85	323.55
476.21	322.94
476.58	322.42
476.94	322.10
477.31	321.59
477.67	321.29
478.04	320.96
478.41	320.80
478.77	321.16
479.14	320.90
479.50	320.70
479.87	320.74
480.23	320.70
480.60	320.72
480.96	320.73
481.33	321.31
481.69	321.50
482.06	321.86
482.42	322.08
482.79	322.52
483.15	322.91
483.52	323.69
483.88	324.11
484.25	324.72
484.61	325.22
484.98	325.80
485.34	326.70
485.71	327.62
486.07	328.60
486.44	329.24
486.80	330.47
487.17	331.62
487.53	332.98
487.90	334.51
488.26	336.18
488.62	337.86
488.99	339.14
489.35	340.93
489.72	342.65
490.08	344.56
490.44	346.54
490.81	348.81
491.17	350.87
491.54	353.43
491.90	355.95
492.26	358.75
492.63	361.68
492.99	364.46
493.36	367.47
493.72	370.73
494.08	374.08
494.45	377.62
494.81	381.67
495.17	385.54
495.54	389.51
495.90	393.67
496.26	398.13
496.63	402.92
496.99	407.76
497.35	413.01
497.72	418.30
498.08	423.76
498.44	429.48
498.80	435.52
499.17	441.60
499.53	447.90
499.89	454.55
500.26	461.24
500.62	468.29
500.98	475.79
501.34	483.31
501.71	491.13
502.07	499.12
502.43	507.25
502.79	515.58
503.16	524.36
503.52	533.47
503.88	542.82
504.24	552.53
504.60	562.50
504.97	572.84
505.33	583.40
505.69	594.56
506.05	605.59
506.41	616.79
506.78	628.61
507.14	640.69
507.50	653.05
507.86	665.75
508.22	678.76
508.59	691.87
508.95	705.57
509.31	719.76
509.67	734.26
510.03	748.45
510.39	763.45
510.75	778.75
511.12	794.01
511.48	809.50
511.84	825.33
512.20	841.30
512.56	857.74
512.92	874.77
513.28	891.72
513.64	909.10
514.00	926.66
514.37	944.36
514.73	962.75
515.09	981.07
515.45	999.60
515.81	1018.00
516.17	1036.77
516.53	1055.42
516.89	1074.15
517.25	1093.41
517.61	1113.80
517.97	1133.92
518.33	1153.89
518.69	1174.22
519.05	1194.80
519.41	1215.86
519.77	1237.19
520.13	1257.88
520.49	1278.64
520.85	1301.08
521.21	1322.21
521.57	1343.73
521.93	1364.51
522.29	1385.70
522.65	1406.31
523.01	1427.38
523.37	1448.02
523.73	1469.15
524.09	1489.96
524.45	1510.91
524.81	1531.91
525.17	1552.47
525.53	1573.15
525.89	1594.15
526.25	1615.25
526.61	1636.06
526.97	1657.00
527.33	1678.17
527.68	1700.09
528.04	1721.04
528.40	1740.42
528.76	1761.53
529.12	1781.83
529.48	1802.91
529.84	1823.04
530.20	1844.42
530.56	1865.23
530.91	1886.80
531.27	1907.37
531.63	1928.37
531.99	1949.00
532.35	1969.05
532.71	1989.63
533.07	2010.59
533.42	2030.29
533.78	2050.17
534.14	2070.10
534.50	2089.20
534.86	2108.59
535.21	2126.30
535.57	2145.11
535.93	2163.19
536.29	2181.11
536.65	2199.39
537.00	2217.17
537.36	2234.90
537.72	2251.19
538.08	2268.61
538.44	2285.11
538.79	2301.58
539.15	2317.91
539.51	2334.03
539.87	2349.40
540.22	2363.85
540.58	2378.18
540.94	2391.99
541.29	2404.55
541.65	2417.19
542.01	2430.02
542.37	2440.50
542.72	2451.71
543.08	2462.72
543.44	2474.60
543.79	2484.96
544.15	2495.22
544.51	2504.93
544.87	2514.43
545.22	2523.55
545.58	2531.30
545.94	2538.65
546.29	2545.12
546.65	2551.48
547.01	2556.63
547.36	2562.14
547.72	2567.33
548.07	2571.46
548.43	2576.78
548.79	2581.71
549.14	2585.90
549.50	2589.52
549.86	2593.61
550.21	2597.08
550.57	2600.29
550.92	2601.59
551.28	2602.91
551.64	2605.06
551.99	2607.57
552.35	2609.42
552.70	2611.47
553.06	2612.90
553.41	2614.16
553.77	2616.12
554.13	2617.87
554.48	2619.84
554.84	2621.49
555.19	2622.93
555.55	2624.61
555.90	2623.62
556.26	2623.22
556.61	2621.63
556.97	2619.79
557.32	2619.48
557.68	2618.51
558.03	2617.21
558.39	2615.97
558.74	2615.00
559.10	2611.88
559.45	2608.13
559.81	2603.79
560.16	2598.95
560.52	2594.38
560.87	2590.14
561.23	2584.87
561.58	2579.05
561.94	2572.31
562.29	2565.08
562.64	2557.91
563.00	2549.69
563.35	2543.65
563.71	2536.58
564.06	2530.38
564.42	2523.35
564.77	2516.58
565.12	2509.21
565.48	2501.10
565.83	2493.11
566.19	2485.39
566.54	2477.66
566.89	2469.40
567.25	2461.56
567.60	2454.16
567.96	2446.34
568.31	2438.26
568.66	2429.57
569.02	2420.24
569.37	2412.43
569.72	2404.71
570.08	2395.36
570.43	2385.53
570.78	2376.38
571.14	2367.53
571.49	2357.35
571.84	2348.25
572.20	2336.79
572.55	2326.65
572.90	2316.01
573.26	2306.03
573.61	2294.76
573.96	2283.44
574.31	2271.64
574.67	2259.75
575.02	2247.05
575.37	2234.41
575.72	2221.28
576.08	2209.20
576.43	2196.79
576.78	2183.16
577.13	2169.26
577.49	2156.46
577.84	2144.67
578.19	2132.22
578.54	2119.14
578.90	2106.95
579.25	2094.25
579.60	2082.11
579.95	2069.20
580.30	2055.85
580.66	2042.22
581.01	2028.43
581.36	2014.45
581.71	2001.85
582.06	1988.83
582.42	1976.35
582.77	1963.51
583.12	1951.44
583.47	1939.13
583.82	1927.09
584.17	1915.13
584.53	1903.22
584.88	1890.35
585.23	1877.33
585.58	1863.03
585.93	1849.70
586.28	1836.33
586.63	1822.23
586.98	1807.63
587.34	1794.04
587.69	1780.77
588.04	1767.93
588.39	1755.73
588.74	1743.66
589.09	1731.33
589.44	1718.57
589.79	1706.39
590.14	1694.51
590.49	1682.39
590.84	1669.95
591.19	1657.74
591.54	1645.37
591.89	1633.09
592.25	1622.92
592.60	1611.26
592.95	1600.07
593.30	1588.21
593.65	1576.34
594.00	1564.50
594.35	1554.56
594.70	1542.62
595.05	1531.22
595.40	1519.06
595.75	1507.26
596.10	1495.70
596.45	1484.03
596.80	1473.26
597.15	1461.69
597.50	1449.71
597.85	1437.96
598.19	1426.20
598.54	1414.59
598.89	1403.31
599.24	1392.66
599.59	1380.61
599.94	1369.78
600.29	1359.09
600.64	1348.31
600.99	1337.62
601.34	1328.07
601.69	1316.85
602.04	1307.10
602.39	1297.39
602.74	1288.38
603.08	1278.68
603.43	1269.57
603.78	1259.89
604.13	1250.20
604.48	1240.52
604.83	1231.00
605.18	1221.37
605.53	1212.00
605.87	1202.69
606.22	1193.98
606.57	1184.78
606.92	1175.41
607.27	1166.32
607.62	1157.53
607.96	1149.08
608.31	1140.97
608.66	1132.36
609.01	1123.84
609.36	1115.01
609.70	1106.28
610.05	1097.34
610.40	1088.92
610.75	1079.93
611.10	1071.40
611.44	1062.74
611.79	1054.25
612.14	1046.32
612.49	1038.05
612.83	1030.61
613.18	1022.80
613.53	1014.88
613.88	1006.65
614.22	998.95
614.57	991.07
614.92	982.98
615.27	975.40
615.61	967.60
615.96	959.85
616.31	952.33
616.65	945.30
617.00	937.95
617.35	930.61
617.70	923.36
618.04	916.34
618.39	909.53
618.74	902.94
619.08	896.10
619.43	889.00
619.78	882.20
620.12	874.90
620.47	867.97
620.82	860.80
621.16	854.08
621.51	847.86
621.85	841.49
622.20	834.98
622.55	828.22
622.89	821.62
623.24	815.20
623.59	808.74
623.93	802.45
624.28	796.30
624.62	790.64
624.97	784.88
625.32	778.90
625.66	772.80
626.01	766.63
626.35	761.01
626.70	755.33
627.04	750.10
627.39	744.25
627.73	738.91
628.08	733.87
628.43	728.41
628.77	722.79
629.12	717.37
629.46	712.59
629.81	707.87
630.15	703.20
630.50	698.38
630.84	693.60
631.19	688.76
631.53	684.14
631.88	678.90
632.22	673.90
632.57	669.31
632.91	664.70
633.26	660.13
633.60	655.47
633.95	650.83
634.29	645.78
634.64	641.41
634.98	636.66
635.32	632.10
635.67	627.98
636.01	623.77
636.36	619.53
636.70	615.30
637.05	610.95
637.39	606.73
637.73	602.52
638.08	598.45
638.42	594.24
638.77	589.81
639.11	585.45
639.45	581.12
639.80	576.86
640.14	572.72
640.49	568.77
640.83	565.02
641.17	561.32
641.52	557.74
641.86	554.19
642.20	550.93
642.55	547.25
642.89	543.51
643.23	539.88
643.58	536.64
643.92	532.92
644.26	529.52
644.61	526.19
644.95	522.70
645.29	519.25
645.64	515.96
645.98	512.87
646.32	509.87
646.66	506.68
647.01	503.69
647.35	500.88
647.69	497.90
648.04	494.94
648.38	492.17
648.72	489.17
649.06	486.10
649.41	482.95
649.75	479.96
650.09	477.30
650.43	474.37
650.78	471.47
651.12	468.69
651.46	465.92
651.80	463.16
652.14	460.42
652.49	457.89
652.83	455.33
653.17	452.72
653.51	450.01
653.85	447.70
654.20	445.18
654.54	442.43
654.88	439.89
655.22	437.63
655.56	435.04
655.90	432.68
656.25	430.28
656.59	428.07
656.93	425.84
657.27	423.69
657.61	421.35
657.95	418.95
658.29	416.84
658.64	414.69
658.98	412.45
659.32	410.29
659.66	408.10
660.00	406.00
660.34	403.97
660.68	401.96
661.02	399.90
661.36	397.87
661.70	395.91
662.05	394.00
662.39	391.94
662.73	390.15
663.07	388.60
663.41	386.85
663.75	384.85
664.09	383.00
664.43	381.00
664.77	379.31
665.11	377.61
665.45	375.85
665.79	374.10
666.13	372.30
666.47	370.60
666.81	368.85
667.15	367.09
667.49	365.55
667.83	364.35
668.17	362.85
668.51	361.41
668.85	360.15
669.19	358.97
669.53	357.40
669.87	355.93
670.21	354.30
670.55	352.96
670.89	351.88
671.23	350.52
671.57	349.21
671.91	347.87
672.25	346.52
672.58	345.34
672.92	344.00
673.26	342.85
673.60	341.76
673.94	340.70
674.28	339.63
674.62	338.47
674.96	336.99
675.30	335.88
675.64	334.70
675.97	333.29
676.31	331.87
676.65	330.75
676.99	329.75
677.33	328.56
677.67	327.35
678.01	326.04
678.34	324.94
678.68	323.85
679.02	322.74
679.36	321.74
679.70	320.67
680.04	319.72
680.37	318.74
680.71	317.69
681.05	316.67
681.39	315.68
681.73	314.62
682.06	313.71
682.40	312.77
682.74	311.90
683.08	311.30
683.42	310.48
683.75	309.62
684.09	308.66
684.43	307.88
684.77	306.98
685.10	306.17
685.44	305.50
685.78	304.66
686.12	303.90
686.45	303.00
686.79	302.21
687.13	301.53
687.46	300.75
687.80	300.05
688.14	299.23
688.48	298.46
688.81	297.70
689.15	297.06
689.49	296.25
689.82	295.54
690.16	294.64
690.50	293.89
690.83	293.19
691.17	292.39
691.51	291.77
691.84	291.27
692.18	290.58
692.52	289.78
692.85	289.14
693.19	288.67
693.52	288.12
693.86	287.41
694.20	286.74
694.53	286.13
694.87	285.39
695.21	284.74
695.54	284.13
695.88	283.49
696.21	282.75
696.55	282.18
696.88	281.58
697.22	280.91
697.56	280.42
697.89	279.83
698.23	279.29
698.56	278.64
698.90	278.13
699.23	277.55
699.57	277.06
699.90	276.45
700.24	275.76
700.58	275.24
700.91	274.77
701.25	274.61
701.58	274.42
701.92	274.05
702.25	273.59
702.59	273.08
702.92	272.74
703.26	272.37
703.59	271.91
703.93	271.87
704.26	271.53
704.60	271.00
704.93	270.51
705.26	270.02
705.60	269.63
705.93	269.11
706.27	268.98
706.60	268.67
706.94	268.49
707.27	268.12
707.61	267.80
707.94	267.45
708.27	266.68
708.61	265.95
708.94	265.54
709.28	265.19
709.61	264.81
709.94	264.40
710.28	263.98
710.61	263.56
710.95	262.74
711.28	262.72
711.61	262.40
711.95	262.24
712.28	261.95
712.61	261.59
712.95	261.58
713.28	261.29
713.61	261.00
713.95	260.57
714.28	260.23
714.61	259.76
714.95	259.36
715.28	259.02
715.61	258.66
715.95	258.39
716.28	258.10
716.61	257.88
716.95	257.49
717.28	257.18
717.61	257.02
717.94	256.74
718.28	256.11
718.61	255.82
718.94	255.51
719.27	255.30
719.61	255.12
719.94	254.62
720.27	254.12
720.60	253.77
720.94	253.56
721.27	253.42
721.60	253.38
721.93	253.21
722.27	253.20
722.60	253.10
722.93	252.86
723.26	252.65
723.59	252.37
723.93	252.25
724.26	252.14
724.59	251.86
724.92	251.70
725.25	251.65
725.59	251.44
725.92	251.28
726.25	251.02
726.58	250.83
726.91	250.70
727.24	250.60
727.57	250.40
727.91	250.12
728.24	249.90
728.57	249.62
728.90	249.45
729.23	249.08
729.56	249.15
729.89	248.99
730.22	248.80
730.55	248.60
730.89	248.51
731.22	248.20
731.55	248.08
731.88	247.87
732.21	247.54
732.54	247.30
732.87	247.10
733.20	246.92
733.53	246.77
733.86	246.58
734.19	246.27
734.52	246.18
734.85	246.29
735.18	246.10
735.51	246.05
735.84	245.91
736.17	245.83
736.50	245.37
736.83	245.71
737.16	245.55
737.49	245.42
737.82	245.11
738.15	245.10
738.48	244.89
738.81	244.80
739.14	244.61
739.47	244.49
739.80	244.27
740.13	244.24
740.46	243.99
740.79	243.74
741.12	243.64
741.45	243.37
741.78	242.94
742.11	242.86
742.44	242.58
742.77	242.46
743.10	242.29
743.43	242.16
743.75	241.59
744.08	242.03
744.41	241.85
744.74	241.73
745.07	241.42
745.40	241.35
745.73	241.40
746.06	241.28
746.39	241.18
746.71	241.06
747.04	240.84
747.37	240.67
747.70	240.67
748.03	240.58
748.36	240.56
748.68	240.50
749.01	240.36
749.34	240.34
749.67	240.28
750.00	240.24
750.33	240.51
750.65	240.37
750.98	239.66
751.31	239.62
751.64	239.50
751.97	239.67
752.29	239.52
752.62	239.15
752.95	239.00
753.28	238.86
753.60	238.69
753.93	238.72
754.26	238.71
754.59	238.47
754.91	238.33
755.24	238.14
755.57	238.05
755.90	237.85
756.22	237.65
756.55	237.43
756.88	237.20
757.20	236.71
757.53	236.50
757.86	236.45
758.19	236.34
758.51	236.26
758.84	235.90
759.17	235.75
759.49	235.70
759.82	235.86
760.15	235.81
760.47	235.77
760.80	235.53
761.13	235.51
761.45	235.34
761.78	235.23
762.11	235.25
762.43	235.09
762.76	235.03
763.08	235.04
763.41	235.06
763.74	235.03
764.06	234.96
764.39	234.89
764.71	234.77
765.04	234.64
765.37	234.60
765.69	234.51
766.02	234.46
766.34	234.33
766.67	234.10
767.00	234.05
767.32	234.25
767.65	234.52
767.97	234.35
768.30	234.36
768.62	234.29
768.95	234.16
769.27	234.12
769.60	234.10
769.92	233.92
770.25	233.75
770.57	233.60
770.90	233.53
771.22	233.50
771.55	233.46
771.87	233.46
772.20	233.34
772.52	233.74
772.85	234.28
773.17	234.32
773.50	234.20
773.82	234.16
774.15	233.87
774.47	233.54
774.80	233.47
775.12	233.40
775.45	233.40
775.77	233.40
776.09	233.44
776.42	233.39
776.74	233.44
777.07	233.35
777.39	233.36
777.72	233.21
778.04	233.15
778.36	233.07
778.69	233.02
779.01	233.08
779.33	232.62
779.66	231.94
779.98	231.81
780.31	231.81
780.63	231.95
780.95	231.98
781.28	231.84
781.60	231.83
781.92	231.78
782.25	231.73
782.57	231.65
782.89	231.50
783.22	231.49
783.54	231.40
783.86	231.38
784.19	231.32
784.51	231.54
784.83	231.46
785.16	231.42
785.48	231.32
785.80	231.26
786.12	231.29
786.45	231.29
786.77	231.25
787.09	231.16
787.42	230.97
787.74	230.94
788.06	230.97
788.38	230.90
788.71	230.83
789.03	230.79
789.35	230.81
789.67	230.71
789.99	230.64
790.32	230.65
790.64	230.61
790.96	231.03
791.28	230.81
791.61	230.75
791.93	230.75
792.25	230.78
792.57	231.05
792.89	230.89
793.21	230.92
793.54	230.90
793.86	230.83
794.18	230.79
794.50	230.66
794.82	230.61
795.14	230.63
795.47	230.71
795.79	230.65
796.11	230.49
796.43	230.51
796.75	230.42
797.07	230.32
797.39	230.31
797.71	229.83
798.04	229.78
798.36	229.80
798.68	229.73
799.00	229.70
799.32	229.49
799.64	229.58
799.96	229.60
800.28	229.60
800.60	229.58
800.92	229.53
801.24	229.50
801.56	229.44
801.89	229.38
802.21	229.38
802.53	229.33
802.85	229.43
803.17	229.65
803.49	229.57
803.81	229.50
804.13	229.41
804.45	229.38
804.77	229.46
805.09	229.34
805.41	229.28
805.73	229.11
806.05	228.91
806.37	228.83
806.69	228.67
807.01	228.67
807.33	228.64
807.65	228.55
807.97	228.75
808.28	228.75
808.60	228.71
808.92	228.64
809.24	228.97
809.56	228.93
809.88	228.67
810.20	228.74
810.52	228.88
810.84	228.87
811.16	228.76
811.48	228.63
811.80	228.81
812.12	228.83
812.43	228.92
812.75	228.89
813.07	228.85
813.39	228.93
813.71	228.89
814.03	228.89
814.35	228.91
814.67	228.69
814.98	228.62
815.30	228.65
815.62	228.56
815.94	228.20
816.26	228.30
816.58	228.28
816.89	228.33
817.21	228.23
817.53	228.22
817.85	228.32
818.17	228.42
818.48	228.27
818.80	228.36
819.12	228.38
819.44	228.38
819.76	228.30
820.07	228.25
820.39	228.26
820.71	228.30
821.03	228.35
821.34	228.33
821.66	228.42
821.98	228.43
822.30	228.37
822.61	228.70
822.93	228.53
823.25	228.50
823.57	228.43
823.88	228.45
824.20	228.52
824.52	228.51
824.83	228.47
825.15	228.48
825.47	228.53
825.79	228.55
826.10	228.50
826.42	228.51
826.74	228.60
827.05	228.53
827.37	228.56
827.69	228.51
828.00	228.56
828.32	228.52
828.64	228.53
828.95	228.85
829.27	228.70
829.58	228.70
829.90	228.82
830.22	228.83
830.53	228.73
830.85	228.68
831.17	228.63
831.48	228.59
831.80	228.57
832.11	228.50
832.43	228.35
832.75	228.40
833.06	228.68
833.38	228.56
833.69	228.54
834.01	228.48
834.32	228.45
834.64	228.40
834.96	228.45
835.27	228.38
835.59	228.10
835.90	227.99
836.22	227.99
836.53	227.90
836.85	227.85
837.16	228.33
837.48	228.29
837.79	228.40
838.11	228.34
838.42	228.39
838.74	228.45
839.05	228.47
839.37	228.43
839.68	228.12
840.00	228.10
840.31	228.16
840.63	228.11
840.94	228.02
841.26	227.95
841.57	227.89
841.88	227.89
842.20	227.89
842.51	227.75
842.83	227.74
843.14	228.11
843.46	228.12
843.77	227.86
844.08	227.77
844.40	227.61
844.71	227.57
845.03	227.49
845.34	227.40
845.65	227.36
845.97	227.32
846.28	227.41
846.60	227.37
846.91	227.26
847.22	227.24
847.54	227.39
847.85	227.39
848.16	227.30
848.48	227.21
848.79	227.35
849.10	227.49
849.42	227.53
849.73	227.10
850.04	227.07
850.36	226.82
850.67	226.93
850.98	226.97
851.30	227.03
851.61	226.99
851.92	226.93
852.23	227.00
852.55	227.04
852.86	227.01
853.17	227.02
853.49	227.16
853.80	227.29
854.11	227.28
854.42	227.37
854.74	227.34
855.05	227.39
855.36	227.16
855.67	227.14
855.99	227.09
856.30	227.66
856.61	227.56
856.92	227.62
857.23	227.63
857.55	227.59
857.86	227.61
858.17	227.67
858.48	227.69
858.79	227.69
859.11	227.77
859.42	227.75
859.73	227.66
860.04	227.55
860.35	227.43
860.66	227.29
860.98	227.18
861.29	227.31
861.60	227.26
861.91	227.38
862.22	227.30
862.53	227.24
862.84	226.65
863.16	226.88
863.47	226.80
863.78	226.76
864.09	226.82
864.40	226.77
864.71	226.86
865.02	226.80
865.33	226.70
865.64	226.66
865.95	226.61
866.27	227.04
866.58	227.01
866.89	227.02
867.20	227.03
867.51	227.01
867.82	227.03
868.13	227.25
868.44	227.15
868.75	227.28
869.06	227.27
869.37	227.30
869.68	227.12
869.99	227.20
870.30	227.24
870.61	227.25
870.92	227.18
871.23	227.07
871.54	227.24
871.85	227.38
872.16	227.36
872.47	227.30
872.78	226.95
873.09	227.02
873.40	226.97
873.71	227.04
874.02	227.05
874.33	226.92
874.64	226.77
874.95	226.87
875.26	226.79
875.56	226.81
875.87	226.82
876.18	226.72
876.49	227.25
876.80	227.24
877.11	227.20
877.42	227.30
877.73	227.31
878.04	227.30
878.35	227.31
878.66	227.45
878.96	227.51
879.27	227.59
879.58	227.54
879.89	227.57
880.20	227.70
880.51	227.69
880.82	227.75
881.12	227.78
881.43	227.72
881.74	227.63
882.05	227.55
882.36	227.58
882.67	227.65
882.97	227.06
883.28	226.97
883.59	226.96
883.90	227.04
884.21	227.15
884.51	227.02
884.82	226.95
885.13	226.83
885.44	226.85
885.74	226.86
886.05	226.86
886.36	226.82
886.67	226.67
886.98	226.98
887.28	226.96
887.59	227.00
887.90	227.00
888.20	226.98
888.51	227.14
888.82	227.08
889.13	227.17
889.43	227.59
889.74	227.54
890.05	227.46
890.35	227.42
890.66	227.28
890.97	227.26
891.28	227.17
891.58	227.22
891.89	227.20
892.20	227.02
892.50	227.01
892.81	227.02
893.12	227.01
893.42	226.68
893.73	226.79
894.04	226.68
894.34	226.66
894.65	226.68
894.95	226.59
895.26	226.55
895.57	226.72
895.87	226.28
896.18	226.36
896.48	226.47
896.79	226.39
897.10	226.52
897.40	226.53
897.71	226.65
898.01	226.64
898.32	226.73
898.63	226.79
898.93	226.78
899.24	226.77
899.54	226.71
899.85	226.70
900.15	226.61
900.46	226.73
900.76	226.83
901.07	226.82
901.38	226.83
901.68	226.91
901.99	226.68
902.29	226.69
902.60	226.66
902.90	226.60
903.21	226.62
903.51	226.60
903.82	226.74
904.12	226.71
904.43	226.73
904.73	226.64
905.03	226.67
905.34	227.15
905.64	227.09
905.95	227.13
906.25	227.14
906.56	227.15
906.86	227.06
907.17	227.07
907.47	227.09
907.77	227.09
908.08	226.95
908.38	227.10
908.69	227.11
908.99	227.19
909.30	227.20
909.60	227.20
909.90	227.15
910.21	226.94
910.51	226.81
910.81	226.76
911.12	226.81
911.42	226.83
911.73	226.29
912.03	226.29
912.33	226.40
912.64	226.40
912.94	226.30
913.24	226.25
913.55	226.09
913.85	225.99
914.15	226.09
914.46	226.22
914.76	226.06
915.06	226.15
915.37	226.03
915.67	225.98
915.97	225.95
916.27	225.80
916.58	225.84
916.88	225.84
917.18	225.85
917.49	226.09
917.79	226.09
918.09	226.21
918.39	226.43
918.70	226.33
919.00	226.35
919.30	226.61
919.60	226.60
919.91	226.65
920.21	226.71
920.51	226.57
920.81	226.54
921.12	226.66
921.42	226.56
921.72	226.68
922.02	226.74
922.32	226.89
922.63	226.95
922.93	227.24
923.23	227.29
923.53	227.21
923.83	226.93
924.13	226.97
924.44	226.92
924.74	226.93
925.04	227.05
925.34	226.97
925.64	226.75
925.94	226.83
926.24	227.14
926.55	227.08
926.85	227.25
927.15	227.24
927.45	227.20
927.75	227.26
928.05	227.23
928.35	227.20
928.65	227.22
928.95	227.24
929.26	227.00
929.56	227.11
929.86	227.18
930.16	227.17
930.46	227.06
930.76	227.14
931.06	226.98
931.36	226.84
931.66	226.99
931.96	227.02
932.26	227.02
932.56	226.79
932.86	226.85
933.16	226.81
933.46	226.74
933.76	226.72
934.06	226.82
934.36	226.94
934.66	226.99
934.96	226.86
935.26	226.97
935.56	227.01
935.86	226.82
936.16	226.79
936.46	226.75
936.76	226.81
937.06	226.76
937.36	226.80
937.66	226.91
937.96	226.85
938.26	226.74
938.56	226.72
938.86	226.67
939.16	226.82
939.46	226.81
939.76	226.86
940.06	226.87
940.35	226.67
940.65	226.40
940.95	226.41
941.25	226.35
941.55	226.23
941.85	226.29
942.15	226.52
942.45	226.62
942.75	226.64
943.04	226.61
943.34	226.68
943.64	226.67
943.94	226.59
944.24	226.61
944.54	226.71
944.84	226.71
945.13	226.66
945.43	226.53
945.73	226.55
946.03	226.48
946.33	226.45
946.62	226.45
946.92	226.49
947.22	226.51
947.52	226.55
947.82	226.64
948.11	226.56
948.41	226.43
948.71	226.28
949.01	226.27
949.31	226.24
949.60	226.21
949.90	226.20
950.20	226.17
950.50	226.16
950.79	226.08
951.09	226.10
951.39	226.10
951.69	226.01
951.98	226.06
952.28	226.15
952.58	226.09
952.87	226.15
953.17	226.24
953.47	226.15
953.76	226.16
954.06	226.06
954.36	225.98
954.66	225.95
954.95	226.20
955.25	226.26
955.55	226.28
955.84	226.16
956.14	226.17
956.44	226.16
956.73	226.12
957.03	226.22
957.32	226.23
957.62	226.27
957.92	226.36
958.21	226.30
958.51	226.82
958.81	226.92
959.10	226.98
959.40	227.10
959.69	227.15
959.99	227.22
960.29	227.22
960.58	227.22
960.88	227.41
961.17	227.29
961.47	227.33
961.76	227.36
962.06	227.47
962.36	227.44
962.65	227.52
962.95	227.52
963.24	227.47
963.54	227.45
963.83	227.50
964.13	227.54
964.42	227.46
964.72	227.11
965.01	227.08
965.31	227.00
965.60	226.91
965.90	227.23
966.19	227.15
966.49	227.16
966.78	227.18
967.08	227.14
967.37	227.10
967.67	227.03
967.96	227.12
968.26	227.05
968.55	227.12
968.85	227.07
969.14	227.14
969.43	227.09
969.73	227.11
970.02	227.02
970.32	227.00
970.61	226.97
970.91	226.85
971.20	226.74
971.49	226.70
971.79	226.72
972.08	226.34
972.38	226.37
972.67	226.40
972.96	226.45
973.26	226.32
973.55	226.50
973.85	226.47
974.14	226.35
974.43	226.43
974.73	226.45
975.02	226.44
975.31	226.34
975.61	226.37
975.90	226.31
976.19	226.30
976.49	226.35
976.78	226.36
977.07	226.31
977.37	226.44
977.66	226.51
977.95	226.38
978.24	226.45
978.54	226.57
978.83	226.53
979.12	226.51
979.42	226.55
979.71	226.42
980.00	226.41
980.29	226.52
980.59	226.44
980.88	226.51
981.17	226.47
981.46	226.44
981.76	226.49
982.05	226.58
982.34	226.59
982.63	226.57
982.93	226.54
983.22	226.65
983.51	226.61
983.80	226.70
984.09	226.81
984.39	226.76
984.68	226.61
984.97	226.60
985.26	226.59
985.55	226.59
985.85	226.56
986.14	226.64
986.43	226.71
986.72	226.71
987.01	226.52
987.30	226.50
987.59	226.50
987.89	226.50
988.18	226.38
988.47	226.38
988.76	226.32
989.05	226.40
989.34	226.28
989.63	226.44
989.92	226.31
990.22	226.28
990.51	226.29
990.80	226.27
991.09	226.34
991.38	226.32
991.67	226.30
991.96	226.15
992.25	226.11
992.54	225.95
992.83	225.95
993.12	225.98
993.41	226.10
993.70	226.34
993.99	226.39
994.28	226.44
994.58	226.50
994.87	226.41
995.16	226.40
995.45	226.38
995.74	226.19
996.03	226.26
996.32	226.33
996.61	226.42
996.90	226.46
997.19	226.41
997.48	226.44
997.77	226.41
998.06	226.54
998.34	226.52
998.63	226.56
998.92	226.53
999.21	226.58
999.50	226.58
999.79	226.40
1000.08	226.35
1000.37	226.41
1000.66	226.35
1000.95	226.53
1001.24	226.51
1001.53	226.56
1001.82	226.52
1002.11	226.43
1002.40	226.45
1002.68	226.58
1002.97	226.93
1003.26	226.90
1003.55	226.90
1003.84	226.92
1004.13	227.05
1004.42	227.05
1004.71	227.03
1004.99	227.05
1005.28	227.21
1005.57	227.16
1005.86	227.16
1006.15	227.14
1006.44	227.05
1006.72	227.08
1007.01	227.02
1007.30	227.01
1007.59	227.01
1007.88	227.10
1008.17	227.15
1008.45	226.99
1008.74	226.76
1009.03	226.44
1009.32	226.39
1009.60	226.35
1009.89	226.27
1010.18	226.02
1010.47	226.01
1010.76	225.99
1011.04	225.97
1011.33	225.94
1011.62	225.93
1011.91	225.92
1012.19	225.92
1012.48	225.99
1012.77	225.97
1013.05	226.15
1013.34	226.17
1013.63	226.18
1013.92	226.20
1014.20	226.12
1014.49	226.19
1014.78	226.26
1015.06	226.16
1015.35	226.17
1015.64	226.17
1015.92	226.35
1016.21	226.44
1016.50	226.41
1016.78	226.41
1017.07	226.43
1017.36	226.37
1017.64	226.41
1017.93	226.47
1018.22	226.44
1018.50	226.39
1018.79	226.40
1019.08	226.17
1019.36	226.17
1019.65	226.13
1019.93	226.21
1020.22	226.30
1020.51	226.54
1020.79	226.41
1021.08	225.50
1021.36	225.55
1021.65	226.55
1021.94	225.55
1022.22	226.60
1022.51	226.10
1022.79	228.20
1023.08	226.95
1023.36	231.90
1023.65	223.95
>>>>>End Processed Spectral Data<<<<<
