SpectraSuite Data File
++++++++++++++++++++++++++++++++++++
Date: Wed Sep 04 17:44:37 EDT 2013
User: lab3
Dark Spectrum Present: Yes
Reference Spectrum Present: No
Number of Sampled Component Spectra: 1
Spectrometers: USB2E7196
Integration Time (usec): 170000 (USB2E7196)
Spectra Averaged: 20 (USB2E7196)
Boxcar Smoothing: 10 (USB2E7196)
Correct for Electrical Dark: No (USB2E7196)
Strobe/Lamp Enabled: No (USB2E7196)
Correct for Detector Non-linearity: No (USB2E7196)
Correct for Stray Light: No (USB2E7196)
Number of Pixels in Processed Spectrum: 2048
>>>>>Begin Processed Spectral Data<<<<<
339.09	0.00
339.48	212.45
339.86	215.45
340.24	215.10
340.63	216.75
341.01	225.65
341.39	220.25
341.78	221.00
342.16	223.40
342.54	222.85
342.93	212.13
343.31	222.77
343.69	223.34
344.07	223.75
344.46	224.21
344.84	224.64
345.22	224.67
345.60	224.95
345.99	225.15
346.37	225.23
346.75	225.33
347.13	225.40
347.52	225.42
347.90	225.70
348.28	225.63
348.66	225.80
349.05	225.63
349.43	225.67
349.81	225.72
350.19	225.87
350.57	225.94
350.96	225.96
351.34	226.07
351.72	226.20
352.10	226.32
352.48	226.38
352.87	226.40
353.25	226.37
353.63	226.42
354.01	226.45
354.39	226.53
354.77	226.56
355.15	226.66
355.54	226.70
355.92	226.52
356.30	226.60
356.68	226.91
357.06	227.01
357.44	226.99
357.82	227.00
358.20	227.39
358.58	227.46
358.97	227.55
359.35	227.71
359.73	227.84
360.11	227.81
360.49	227.88
360.87	228.00
361.25	228.21
361.63	228.33
362.01	228.45
362.39	228.46
362.77	228.50
363.15	228.62
363.53	228.63
363.91	228.72
364.29	228.79
364.67	228.35
365.05	228.40
365.43	228.58
365.81	228.75
366.19	228.60
366.57	228.87
366.95	228.82
367.33	228.70
367.71	228.60
368.09	228.77
368.47	228.77
368.85	228.71
369.23	228.75
369.61	228.67
369.99	228.84
370.37	228.97
370.75	229.26
371.13	229.13
371.51	229.13
371.89	229.11
372.27	229.13
372.65	229.23
373.03	229.15
373.41	229.07
373.78	229.00
374.16	228.77
374.54	228.50
374.92	228.46
375.30	228.46
375.68	228.44
376.06	228.40
376.44	228.37
376.82	228.36
377.19	228.27
377.57	228.16
377.95	227.93
378.33	227.80
378.71	227.50
379.09	227.58
379.47	227.55
379.84	227.48
380.22	227.38
380.60	227.15
380.98	227.14
381.36	227.02
381.73	226.87
382.11	226.86
382.49	226.83
382.87	226.75
383.25	226.70
383.62	227.16
384.00	226.99
384.38	226.94
384.76	226.94
385.13	227.06
385.51	227.01
385.89	226.86
386.27	226.83
386.64	226.83
387.02	226.72
387.40	226.65
387.78	226.61
388.15	226.50
388.53	226.48
388.91	226.40
389.29	226.37
389.66	226.42
390.04	226.33
390.42	226.36
390.79	226.32
391.17	226.26
391.55	225.75
391.92	225.77
392.30	225.86
392.68	225.75
393.05	225.69
393.43	225.77
393.81	225.79
394.18	225.70
394.56	225.70
394.94	225.69
395.31	225.58
395.69	225.68
396.06	225.81
396.44	225.87
396.82	225.85
397.19	226.12
397.57	226.07
397.95	226.20
398.32	226.17
398.70	226.27
399.07	226.37
399.45	226.32
399.82	226.33
400.20	226.27
400.58	226.30
400.95	226.18
401.33	226.32
401.70	226.81
402.08	226.95
402.45	227.05
402.83	227.31
403.20	227.58
403.58	227.73
403.95	228.00
404.33	228.26
404.71	228.47
405.08	228.89
405.46	229.15
405.83	229.41
406.21	229.62
406.58	229.89
406.96	230.25
407.33	230.64
407.70	231.07
408.08	231.87
408.45	232.34
408.83	232.81
409.20	233.15
409.58	233.30
409.95	233.87
410.33	234.41
410.70	234.75
411.08	235.35
411.45	235.87
411.82	236.42
412.20	237.19
412.57	238.22
412.95	238.52
413.32	239.41
413.69	240.17
414.07	241.14
414.44	242.11
414.82	243.14
415.19	244.31
415.56	245.52
415.94	246.51
416.31	247.96
416.68	249.39
417.06	251.01
417.43	252.55
417.81	254.23
418.18	255.97
418.55	257.98
418.93	259.92
419.30	262.10
419.67	264.25
420.04	266.44
420.42	268.72
420.79	271.70
421.16	274.41
421.54	277.36
421.91	280.22
422.28	283.21
422.66	286.33
423.03	289.67
423.40	292.80
423.77	296.17
424.15	299.65
424.52	303.24
424.89	307.33
425.26	311.27
425.64	314.98
426.01	319.08
426.38	323.31
426.75	327.76
427.13	332.03
427.50	336.69
427.87	341.45
428.24	346.13
428.61	350.54
428.99	355.72
429.36	361.12
429.73	366.45
430.10	371.90
430.47	377.39
430.85	382.87
431.22	388.92
431.59	395.49
431.96	401.50
432.33	408.24
432.70	414.69
433.08	422.19
433.45	429.38
433.82	436.46
434.19	444.40
434.56	452.20
434.93	459.77
435.30	467.27
435.68	475.55
436.05	483.75
436.42	491.89
436.79	499.22
437.16	507.29
437.53	515.93
437.90	524.44
438.27	532.89
438.64	541.54
439.01	549.67
439.38	556.69
439.75	563.75
440.13	571.61
440.50	578.90
440.87	584.83
441.24	591.14
441.61	597.99
441.98	602.90
442.35	608.47
442.72	614.29
443.09	619.93
443.46	623.24
443.83	625.48
444.20	627.35
444.57	630.17
444.94	631.17
445.31	632.18
445.68	633.59
446.05	633.69
446.42	632.45
446.79	630.92
447.16	629.44
447.53	628.12
447.90	624.61
448.27	621.04
448.64	616.38
449.01	612.63
449.37	606.73
449.74	600.83
450.11	594.34
450.48	586.81
450.85	579.05
451.22	572.49
451.59	566.12
451.96	560.00
452.33	552.06
452.70	545.01
453.07	536.65
453.43	527.60
453.80	519.44
454.17	511.52
454.54	504.12
454.91	496.01
455.28	488.27
455.65	480.98
456.02	474.37
456.38	468.22
456.75	460.67
457.12	454.30
457.49	448.21
457.86	442.00
458.23	437.17
458.59	431.74
458.96	426.08
459.33	421.12
459.70	416.16
460.07	412.16
460.43	407.63
460.80	403.48
461.17	399.91
461.54	396.10
461.91	392.53
462.27	388.82
462.64	385.80
463.01	382.39
463.38	379.19
463.74	375.24
464.11	372.26
464.48	369.80
464.85	367.04
465.21	365.02
465.58	362.77
465.95	359.89
466.32	357.62
466.68	355.50
467.05	353.40
467.42	351.33
467.78	349.09
468.15	346.85
468.52	345.33
468.88	343.18
469.25	341.28
469.62	339.95
469.98	338.40
470.35	336.80
470.72	335.40
471.08	333.72
471.45	332.60
471.82	331.44
472.18	329.99
472.55	329.00
472.92	327.64
473.28	326.62
473.65	325.53
474.02	324.53
474.38	323.68
474.75	322.89
475.11	322.07
475.48	321.47
475.85	320.95
476.21	320.31
476.58	319.83
476.94	319.47
477.31	318.92
477.67	318.49
478.04	318.25
478.41	318.01
478.77	318.37
479.14	317.99
479.50	317.89
479.87	318.00
480.23	318.00
480.60	318.08
480.96	318.11
481.33	318.57
481.69	318.80
482.06	319.00
482.42	319.24
482.79	319.61
483.15	320.01
483.52	320.65
483.88	321.13
484.25	321.69
484.61	322.34
484.98	323.06
485.34	324.13
485.71	325.01
486.07	325.92
486.44	326.51
486.80	327.63
487.17	328.75
487.53	330.05
487.90	331.40
488.26	332.99
488.62	334.54
488.99	335.98
489.35	337.71
489.72	339.57
490.08	341.61
490.44	343.60
490.81	345.85
491.17	348.03
491.54	350.45
491.90	353.00
492.26	355.60
492.63	358.35
492.99	361.03
493.36	364.07
493.72	367.47
494.08	370.81
494.45	374.40
494.81	378.27
495.17	382.07
495.54	386.24
495.90	390.43
496.26	394.84
496.63	399.57
496.99	404.27
497.35	409.24
497.72	414.47
498.08	419.72
498.44	425.28
498.80	431.26
499.17	437.15
499.53	443.37
499.89	449.96
500.26	456.64
500.62	463.56
500.98	470.93
501.34	478.13
501.71	485.78
502.07	493.57
502.43	501.43
502.79	509.65
503.16	518.25
503.52	527.11
503.88	536.29
504.24	545.70
504.60	555.50
504.97	565.67
505.33	575.77
505.69	586.95
506.05	597.83
506.41	608.72
506.78	620.37
507.14	632.08
507.50	644.22
507.86	656.72
508.22	669.54
508.59	682.36
508.95	695.72
509.31	709.51
509.67	723.40
510.03	737.46
510.39	752.14
510.75	766.87
511.12	781.74
511.48	796.80
511.84	812.17
512.20	827.82
512.56	843.82
512.92	860.25
513.28	876.55
513.64	893.51
514.00	910.65
514.37	927.65
514.73	945.47
515.09	963.23
515.45	981.15
515.81	999.10
516.17	1017.27
516.53	1035.51
516.89	1053.83
517.25	1072.82
517.61	1092.80
517.97	1112.41
518.33	1131.83
518.69	1151.56
519.05	1171.56
519.41	1191.95
519.77	1212.56
520.13	1232.60
520.49	1252.61
520.85	1273.06
521.21	1293.36
521.57	1314.22
521.93	1334.68
522.29	1355.26
522.65	1375.26
523.01	1395.61
523.37	1415.69
523.73	1436.19
524.09	1456.19
524.45	1476.09
524.81	1496.33
525.17	1516.10
525.53	1536.17
525.89	1556.47
526.25	1576.74
526.61	1596.56
526.97	1616.81
527.33	1637.09
527.68	1658.27
528.04	1679.26
528.40	1699.15
528.76	1719.67
529.12	1739.23
529.48	1759.47
529.84	1778.77
530.20	1799.44
530.56	1819.18
530.91	1839.11
531.27	1858.79
531.63	1878.79
531.99	1898.93
532.35	1918.17
532.71	1937.46
533.07	1957.00
533.42	1975.96
533.78	1994.96
534.14	2014.16
534.50	2032.17
534.86	2050.70
535.21	2067.50
535.57	2084.65
535.93	2101.88
536.29	2118.47
536.65	2135.31
537.00	2152.20
537.36	2168.95
537.72	2184.38
538.08	2200.92
538.44	2216.95
538.79	2232.74
539.15	2248.32
539.51	2263.08
539.87	2277.40
540.22	2290.46
540.58	2304.10
540.94	2316.70
541.29	2328.67
541.65	2340.14
542.01	2351.95
542.37	2361.60
542.72	2371.80
543.08	2381.69
543.44	2392.36
543.79	2401.88
544.15	2411.47
544.51	2420.46
544.87	2429.22
545.22	2436.94
545.58	2443.74
545.94	2450.02
546.29	2455.45
546.65	2460.84
547.01	2466.09
547.36	2471.01
547.72	2476.23
548.07	2479.26
548.43	2483.81
548.79	2487.72
549.14	2491.38
549.50	2494.42
549.86	2497.50
550.21	2500.57
550.57	2503.52
550.92	2504.57
551.28	2505.42
551.64	2507.22
551.99	2508.45
552.35	2509.55
552.70	2511.47
553.06	2512.73
553.41	2513.48
553.77	2514.87
554.13	2515.88
554.48	2516.84
554.84	2517.74
555.19	2518.16
555.55	2519.25
555.90	2518.10
556.26	2517.01
556.61	2514.85
556.97	2512.39
557.32	2511.52
557.68	2509.86
558.03	2507.99
558.39	2506.20
558.74	2504.99
559.10	2501.57
559.45	2497.37
559.81	2492.68
560.16	2487.09
560.52	2481.79
560.87	2477.07
561.23	2471.71
561.58	2465.88
561.94	2458.64
562.29	2451.12
562.64	2444.05
563.00	2435.94
563.35	2429.23
563.71	2422.13
564.06	2415.92
564.42	2409.68
564.77	2402.46
565.12	2394.95
565.48	2387.18
565.83	2378.98
566.19	2370.87
566.54	2362.64
566.89	2354.97
567.25	2347.28
567.60	2340.25
567.96	2332.95
568.31	2324.96
568.66	2316.16
569.02	2307.16
569.37	2299.49
569.72	2292.03
570.08	2282.88
570.43	2273.48
570.78	2264.75
571.14	2255.52
571.49	2245.31
571.84	2235.60
572.20	2225.28
572.55	2215.49
572.90	2204.92
573.26	2194.96
573.61	2184.10
573.96	2173.14
574.31	2161.43
574.67	2149.97
575.02	2137.53
575.37	2125.00
575.72	2112.29
576.08	2100.46
576.43	2088.35
576.78	2075.33
577.13	2062.20
577.49	2049.90
577.84	2038.63
578.19	2026.68
578.54	2014.64
578.90	2003.31
579.25	1991.66
579.60	1979.62
579.95	1967.11
580.30	1954.44
580.66	1941.46
581.01	1928.26
581.36	1915.11
581.71	1903.13
582.06	1890.51
582.42	1878.53
582.77	1866.44
583.12	1854.92
583.47	1843.31
583.82	1831.60
584.17	1820.07
584.53	1808.53
584.88	1796.02
585.23	1783.45
585.58	1769.68
585.93	1757.09
586.28	1744.12
586.63	1730.41
586.98	1716.80
587.34	1703.86
587.69	1691.12
588.04	1679.31
588.39	1668.06
588.74	1656.63
589.09	1644.74
589.44	1632.47
589.79	1620.88
590.14	1609.77
590.49	1598.07
590.84	1586.42
591.19	1574.85
591.54	1563.20
591.89	1551.56
592.25	1542.08
592.60	1530.85
592.95	1520.16
593.30	1508.69
593.65	1497.52
594.00	1486.23
594.35	1476.88
594.70	1465.80
595.05	1454.96
595.40	1443.20
595.75	1431.58
596.10	1420.54
596.45	1409.73
596.80	1399.63
597.15	1388.69
597.50	1377.34
597.85	1366.75
598.19	1355.50
598.54	1344.60
598.89	1333.72
599.24	1323.66
599.59	1312.46
599.94	1302.30
600.29	1292.58
600.64	1282.86
600.99	1272.59
601.34	1263.57
601.69	1252.98
602.04	1243.61
602.39	1234.67
602.74	1226.11
603.08	1217.34
603.43	1208.59
603.78	1199.49
604.13	1190.31
604.48	1181.10
604.83	1171.69
605.18	1162.28
605.53	1153.14
605.87	1144.48
606.22	1136.44
606.57	1127.49
606.92	1118.59
607.27	1110.22
607.62	1101.79
607.96	1093.60
608.31	1086.20
608.66	1078.03
609.01	1069.92
609.36	1061.83
609.70	1053.51
610.05	1045.36
610.40	1037.13
610.75	1028.80
611.10	1020.96
611.44	1012.79
611.79	1005.15
612.14	997.73
612.49	990.46
612.83	983.57
613.18	976.13
613.53	968.78
613.88	961.45
614.22	954.14
614.57	946.67
614.92	939.17
615.27	932.01
615.61	924.58
615.96	917.40
616.31	910.45
616.65	903.79
617.00	896.78
617.35	889.90
617.70	883.23
618.04	876.51
618.39	869.82
618.74	863.67
619.08	857.04
619.43	850.42
619.78	843.66
620.12	836.68
620.47	830.16
620.82	823.39
621.16	816.92
621.51	810.98
621.85	805.04
622.20	798.77
622.55	792.56
622.89	786.47
623.24	780.51
623.59	774.19
623.93	768.13
624.28	762.37
624.62	757.07
624.97	751.52
625.32	746.13
625.66	740.41
626.01	734.63
626.35	729.34
626.70	724.04
627.04	719.16
627.39	713.97
627.73	709.09
628.08	704.14
628.43	698.99
628.77	693.77
629.12	688.62
629.46	684.14
629.81	679.52
630.15	675.17
630.50	670.50
630.84	665.99
631.19	661.53
631.53	657.33
631.88	652.37
632.22	647.97
632.57	643.82
632.91	639.56
633.26	635.57
633.60	631.29
633.95	627.17
634.29	622.46
634.64	618.40
634.98	613.75
635.32	609.67
635.67	605.88
636.01	601.88
636.36	597.88
636.70	594.03
637.05	590.09
637.39	585.95
637.73	582.15
638.08	578.51
638.42	574.56
638.77	570.32
639.11	566.30
639.45	562.20
639.80	557.95
640.14	554.04
640.49	550.10
640.83	546.46
641.17	542.93
641.52	539.65
641.86	536.23
642.20	533.26
642.55	529.90
642.89	526.40
643.23	523.04
643.58	520.07
643.92	516.56
644.26	513.37
644.61	510.48
644.95	507.19
645.29	503.95
645.64	500.96
645.98	498.11
646.32	495.32
646.66	492.33
647.01	489.60
647.35	486.99
647.69	484.16
648.04	481.45
648.38	478.80
648.72	476.08
649.06	473.21
649.41	470.26
649.75	467.46
650.09	464.70
650.43	462.13
650.78	459.13
651.12	456.42
651.46	453.81
651.80	451.11
652.14	448.62
652.49	446.15
652.83	443.57
653.17	441.01
653.51	438.40
653.85	436.13
654.20	433.67
654.54	431.09
654.88	428.83
655.22	426.67
655.56	424.31
655.90	422.06
656.25	419.95
656.59	417.85
656.93	415.77
657.27	413.77
657.61	411.51
657.95	409.48
658.29	407.48
658.64	405.58
658.98	403.48
659.32	401.36
659.66	399.36
660.00	397.48
660.34	395.58
660.68	393.65
661.02	391.78
661.36	390.06
661.70	388.29
662.05	386.45
662.39	384.63
662.73	382.95
663.07	381.44
663.41	379.71
663.75	377.87
664.09	376.02
664.43	374.20
664.77	372.52
665.11	370.85
665.45	369.30
665.79	367.67
666.13	366.00
666.47	364.34
666.81	362.73
667.15	361.04
667.49	359.67
667.83	358.40
668.17	356.95
668.51	355.49
668.85	354.20
669.19	353.14
669.53	351.53
669.87	349.99
670.21	348.37
670.55	347.09
670.89	346.08
671.23	344.86
671.57	343.60
671.91	342.35
672.25	341.07
672.58	339.91
672.92	338.45
673.26	337.28
673.60	336.19
673.94	335.07
674.28	334.10
674.62	332.92
674.96	331.67
675.30	330.49
675.64	329.25
675.97	327.99
676.31	326.55
676.65	325.49
676.99	324.59
677.33	323.48
677.67	322.33
678.01	321.02
678.34	319.99
678.68	319.14
679.02	318.09
679.36	317.11
679.70	316.06
680.04	315.22
680.37	314.37
680.71	313.37
681.05	312.46
681.39	311.53
681.73	310.52
682.06	309.59
682.40	308.69
682.74	308.02
683.08	307.39
683.42	306.55
683.75	305.88
684.09	304.96
684.43	304.25
684.77	303.45
685.10	302.72
685.44	301.89
685.78	301.04
686.12	300.32
686.45	299.64
686.79	298.83
687.13	298.21
687.46	297.46
687.80	296.84
688.14	296.07
688.48	295.36
688.81	294.72
689.15	294.16
689.49	293.57
689.82	292.84
690.16	291.94
690.50	291.36
690.83	290.61
691.17	289.84
691.51	289.16
691.84	288.54
692.18	287.93
692.52	287.32
692.85	286.72
693.19	286.39
693.52	285.76
693.86	285.09
694.20	284.39
694.53	283.77
694.87	283.22
695.21	282.65
695.54	282.02
695.88	281.40
696.21	280.63
696.55	280.04
696.88	279.50
697.22	279.00
697.56	278.46
697.89	277.81
698.23	277.35
698.56	276.72
698.90	276.30
699.23	275.72
699.57	275.30
699.90	274.71
700.24	273.97
700.58	273.56
700.91	273.27
701.25	273.19
701.58	273.11
701.92	272.70
702.25	272.32
702.59	271.84
702.92	271.45
703.26	271.15
703.59	270.61
703.93	270.57
704.26	270.27
704.60	269.89
704.93	269.43
705.26	268.96
705.60	268.75
705.93	268.30
706.27	268.04
706.60	267.70
706.94	267.54
707.27	267.20
707.61	266.75
707.94	266.34
708.27	265.60
708.61	264.85
708.94	264.38
709.28	263.98
709.61	263.68
709.94	263.38
710.28	262.96
710.61	262.75
710.95	261.96
711.28	261.83
711.61	261.41
711.95	261.25
712.28	260.87
712.61	260.50
712.95	260.34
713.28	260.20
713.61	259.81
713.95	259.33
714.28	259.02
714.61	258.64
714.95	258.28
715.28	257.94
715.61	257.61
715.95	257.37
716.28	257.02
716.61	256.68
716.95	256.31
717.28	256.04
717.61	255.65
717.94	255.27
718.28	254.59
718.61	254.37
718.94	254.02
719.27	253.77
719.61	253.49
719.94	253.15
720.27	252.66
720.60	252.36
720.94	252.16
721.27	251.90
721.60	251.82
721.93	251.53
722.27	251.39
722.60	251.30
722.93	250.95
723.26	250.79
723.59	250.56
723.93	250.37
724.26	250.20
724.59	249.98
724.92	249.87
725.25	249.78
725.59	249.50
725.92	249.38
726.25	249.19
726.58	249.03
726.91	248.74
727.24	248.58
727.57	248.39
727.91	248.10
728.24	247.98
728.57	247.69
728.90	247.54
729.23	247.25
729.56	247.20
729.89	247.15
730.22	246.95
730.55	246.74
730.89	246.59
731.22	246.35
731.55	246.20
731.88	246.04
732.21	245.82
732.54	245.65
732.87	245.46
733.20	245.34
733.53	245.16
733.86	245.04
734.19	244.89
734.52	244.74
734.85	244.94
735.18	244.67
735.51	244.73
735.84	244.65
736.17	244.63
736.50	244.25
736.83	244.61
737.16	244.49
737.49	244.44
737.82	244.24
738.15	244.14
738.48	243.95
738.81	243.81
739.14	243.57
739.47	243.39
739.80	243.31
740.13	243.23
740.46	243.00
740.79	242.82
741.12	242.63
741.45	242.47
741.78	242.03
742.11	242.14
742.44	241.85
742.77	241.79
743.10	241.60
743.43	241.45
743.75	240.82
744.08	241.33
744.41	241.11
744.74	240.98
745.07	240.80
745.40	240.75
745.73	240.86
746.06	240.88
746.39	240.81
746.71	240.58
747.04	240.39
747.37	240.28
747.70	240.30
748.03	240.15
748.36	240.07
748.68	240.01
749.01	239.66
749.34	239.59
749.67	239.51
750.00	239.44
750.33	239.71
750.65	239.64
750.98	238.85
751.31	238.79
751.64	238.71
751.97	238.85
752.29	238.78
752.62	238.43
752.95	238.29
753.28	238.13
753.60	238.02
753.93	238.01
754.26	237.97
754.59	237.73
754.91	237.69
755.24	237.52
755.57	237.43
755.90	237.38
756.22	237.20
756.55	237.03
756.88	236.80
757.20	236.33
757.53	236.08
757.86	236.01
758.19	235.97
758.51	235.78
758.84	235.42
759.17	235.31
759.49	235.18
759.82	235.29
760.15	235.24
760.47	235.10
760.80	234.90
761.13	234.79
761.45	234.70
761.78	234.56
762.11	234.57
762.43	234.35
762.76	234.23
763.08	234.28
763.41	234.24
763.74	234.22
764.06	234.22
764.39	234.10
764.71	234.04
765.04	233.90
765.37	233.86
765.69	233.85
766.02	233.74
766.34	233.67
766.67	233.39
767.00	233.48
767.32	233.71
767.65	233.95
767.97	233.89
768.30	233.86
768.62	233.78
768.95	233.67
769.27	233.58
769.60	233.63
769.92	233.45
770.25	233.22
770.57	233.09
770.90	232.99
771.22	232.89
771.55	232.79
771.87	232.73
772.20	232.62
772.52	232.99
772.85	233.50
773.17	233.39
773.50	233.37
773.82	233.13
774.15	232.77
774.47	232.39
774.80	232.30
775.12	232.13
775.45	232.08
775.77	231.99
776.09	232.04
776.42	231.92
776.74	231.96
777.07	231.92
777.39	231.84
777.72	231.70
778.04	231.82
778.36	231.80
778.69	231.74
779.01	231.74
779.33	231.21
779.66	230.64
779.98	230.64
780.31	230.62
780.63	230.80
780.95	230.85
781.28	230.82
781.60	230.71
781.92	230.71
782.25	230.73
782.57	230.82
782.89	230.78
783.22	230.70
783.54	230.56
783.86	230.57
784.19	230.61
784.51	230.74
784.83	230.61
785.16	230.54
785.48	230.51
785.80	230.49
786.12	230.55
786.45	230.45
786.77	230.52
787.09	230.36
787.42	230.13
787.74	230.14
788.06	230.12
788.38	230.13
788.71	230.12
789.03	230.07
789.35	229.97
789.67	229.82
789.99	229.78
790.32	229.69
790.64	229.79
790.96	230.05
791.28	229.86
791.61	229.82
791.93	229.80
792.25	229.76
792.57	230.15
792.89	230.00
793.21	230.00
793.54	229.88
793.86	229.89
794.18	229.92
794.50	229.83
794.82	229.77
795.14	229.81
795.47	229.79
795.79	229.85
796.11	229.73
796.43	229.74
796.75	229.71
797.07	229.78
797.39	229.64
797.71	229.27
798.04	229.29
798.36	229.32
798.68	229.39
799.00	229.42
799.32	229.14
799.64	229.24
799.96	229.27
800.28	229.31
800.60	229.25
800.92	229.29
801.24	229.24
801.56	229.29
801.89	229.22
802.21	229.36
802.53	229.16
802.85	229.25
803.17	229.45
803.49	229.49
803.81	229.41
804.13	229.42
804.45	229.44
804.77	229.47
805.09	229.45
805.41	229.27
805.73	229.20
806.05	228.93
806.37	228.83
806.69	228.75
807.01	228.67
807.33	228.67
807.65	228.52
807.97	228.77
808.28	228.67
808.60	228.62
808.92	228.48
809.24	228.74
809.56	228.69
809.88	228.56
810.20	228.57
810.52	228.70
810.84	228.60
811.16	228.55
811.48	228.55
811.80	228.65
812.12	228.65
812.43	228.71
812.75	228.85
813.07	228.80
813.39	228.81
813.71	228.78
814.03	228.78
814.35	228.72
814.67	228.48
814.98	228.46
815.30	228.53
815.62	228.41
815.94	228.10
816.26	228.27
816.58	228.11
816.89	228.08
817.21	227.91
817.53	227.91
817.85	227.88
818.17	227.71
818.48	227.55
818.80	227.69
819.12	227.59
819.44	227.45
819.76	227.46
820.07	227.45
820.39	227.43
820.71	227.43
821.03	227.43
821.34	227.30
821.66	227.35
821.98	227.34
822.30	227.34
822.61	227.66
822.93	227.40
823.25	227.39
823.57	227.30
823.88	227.40
824.20	227.38
824.52	227.49
824.83	227.57
825.15	227.50
825.47	227.39
825.79	227.40
826.10	227.35
826.42	227.24
826.74	227.30
827.05	227.25
827.37	227.20
827.69	227.23
828.00	227.32
828.32	227.29
828.64	227.20
828.95	227.43
829.27	227.20
829.58	227.22
829.90	227.35
830.22	227.40
830.53	227.23
830.85	227.17
831.17	227.04
831.48	227.02
831.80	227.04
832.11	226.95
832.43	226.89
832.75	226.97
833.06	227.35
833.38	227.21
833.69	227.20
834.01	227.28
834.32	227.18
834.64	227.10
834.96	227.17
835.27	227.18
835.59	227.02
835.90	227.01
836.22	227.05
836.53	226.91
836.85	226.83
837.16	227.35
837.48	227.34
837.79	227.49
838.11	227.50
838.42	227.50
838.74	227.60
839.05	227.54
839.37	227.50
839.68	227.13
840.00	227.16
840.31	227.23
840.63	227.17
840.94	227.12
841.26	227.10
841.57	227.08
841.88	227.13
842.20	227.05
842.51	226.97
842.83	226.92
843.14	227.36
843.46	227.42
843.77	227.13
844.08	227.15
844.40	227.02
844.71	226.97
845.03	226.98
845.34	226.98
845.65	226.99
845.97	226.97
846.28	227.07
846.60	227.10
846.91	227.00
847.22	227.03
847.54	227.17
847.85	227.19
848.16	227.11
848.48	226.99
848.79	227.14
849.10	227.20
849.42	227.25
849.73	226.84
850.04	226.77
850.36	226.63
850.67	226.70
850.98	226.78
851.30	226.84
851.61	226.83
851.92	226.82
852.23	226.98
852.55	227.00
852.86	226.94
853.17	226.90
853.49	227.02
853.80	227.06
854.11	227.04
854.42	227.10
854.74	227.05
855.05	227.09
855.36	226.92
855.67	226.91
855.99	226.90
856.30	227.42
856.61	227.44
856.92	227.43
857.23	227.42
857.55	227.26
857.86	227.22
858.17	227.27
858.48	227.18
858.79	227.15
859.11	227.17
859.42	227.15
859.73	227.15
860.04	227.18
860.35	227.00
860.66	226.88
860.98	226.89
861.29	227.00
861.60	227.01
861.91	227.12
862.22	227.08
862.53	227.02
862.84	226.47
863.16	226.59
863.47	226.52
863.78	226.47
864.09	226.56
864.40	226.50
864.71	226.52
865.02	226.60
865.33	226.50
865.64	226.45
865.95	226.45
866.27	226.68
866.58	226.58
866.89	226.69
867.20	226.73
867.51	226.67
867.82	226.61
868.13	226.77
868.44	226.61
868.75	226.76
869.06	226.74
869.37	226.80
869.68	226.66
869.99	226.68
870.30	226.73
870.61	226.78
870.92	226.82
871.23	226.74
871.54	226.77
871.85	226.88
872.16	226.96
872.47	226.92
872.78	226.59
873.09	226.71
873.40	226.64
873.71	226.72
874.02	226.74
874.33	226.73
874.64	226.58
874.95	226.71
875.26	226.49
875.56	226.50
875.87	226.45
876.18	226.46
876.49	227.01
876.80	226.94
877.11	226.81
877.42	226.81
877.73	226.89
878.04	226.88
878.35	226.86
878.66	226.89
878.96	226.91
879.27	227.00
879.58	226.88
879.89	226.88
880.20	226.92
880.51	226.93
880.82	226.92
881.12	226.95
881.43	226.85
881.74	226.86
882.05	226.88
882.36	226.94
882.67	227.01
882.97	226.45
883.28	226.42
883.59	226.45
883.90	226.43
884.21	226.45
884.51	226.38
884.82	226.34
885.13	226.28
885.44	226.33
885.74	226.33
886.05	226.38
886.36	226.42
886.67	226.28
886.98	226.52
887.28	226.51
887.59	226.50
887.90	226.52
888.20	226.59
888.51	226.58
888.82	226.45
889.13	226.49
889.43	226.89
889.74	226.90
890.05	226.86
890.35	226.87
890.66	226.85
890.97	226.83
891.28	226.73
891.58	226.72
891.89	226.70
892.20	226.62
892.50	226.58
892.81	226.59
893.12	226.59
893.42	226.33
893.73	226.43
894.04	226.42
894.34	226.40
894.65	226.26
894.95	226.26
895.26	226.38
895.57	226.52
895.87	226.09
896.18	226.15
896.48	226.23
896.79	226.20
897.10	226.17
897.40	226.23
897.71	226.33
898.01	226.33
898.32	226.33
898.63	226.32
898.93	226.33
899.24	226.34
899.54	226.30
899.85	226.28
900.15	226.11
900.46	226.13
900.76	226.16
901.07	226.23
901.38	226.26
901.68	226.22
901.99	225.91
902.29	225.91
902.60	225.83
902.90	225.72
903.21	225.75
903.51	225.70
903.82	225.73
904.12	225.73
904.43	225.69
904.73	225.60
905.03	225.63
905.34	226.07
905.64	225.98
905.95	225.99
906.25	225.96
906.56	225.99
906.86	225.94
907.17	225.96
907.47	225.97
907.77	225.86
908.08	225.84
908.38	225.95
908.69	225.96
908.99	226.08
909.30	226.10
909.60	226.11
909.90	226.13
910.21	225.91
910.51	225.79
910.81	225.78
911.12	225.89
911.42	225.88
911.73	225.34
912.03	225.37
912.33	225.44
912.64	225.43
912.94	225.38
913.24	225.32
913.55	225.27
913.85	225.15
914.15	225.19
914.46	225.25
914.76	225.12
915.06	225.09
915.37	225.01
915.67	224.98
915.97	224.94
916.27	224.82
916.58	224.89
916.88	224.88
917.18	224.89
917.49	225.17
917.79	225.10
918.09	225.25
918.39	225.43
918.70	225.38
919.00	225.33
919.30	225.61
919.60	225.62
919.91	225.51
920.21	225.60
920.51	225.54
920.81	225.46
921.12	225.59
921.42	225.59
921.72	225.65
922.02	225.77
922.32	225.82
922.63	225.93
922.93	226.21
923.23	226.30
923.53	226.26
923.83	226.02
924.13	226.09
924.44	226.05
924.74	226.08
925.04	226.25
925.34	226.29
925.64	226.04
925.94	226.05
926.24	226.40
926.55	226.44
926.85	226.54
927.15	226.56
927.45	226.55
927.75	226.57
928.05	226.55
928.35	226.44
928.65	226.59
928.95	226.58
929.26	226.42
929.56	226.54
929.86	226.69
930.16	226.62
930.46	226.65
930.76	226.71
931.06	226.50
931.36	226.32
931.66	226.41
931.96	226.56
932.26	226.60
932.56	226.38
932.86	226.40
933.16	226.37
933.46	226.33
933.76	226.25
934.06	226.36
934.36	226.52
934.66	226.61
934.96	226.53
935.26	226.58
935.56	226.61
935.86	226.40
936.16	226.33
936.46	226.24
936.76	226.23
937.06	226.17
937.36	226.17
937.66	226.23
937.96	226.20
938.26	226.09
938.56	226.03
938.86	226.06
939.16	226.20
939.46	226.27
939.76	226.22
940.06	226.23
940.35	226.14
940.65	225.93
940.95	225.94
941.25	225.80
941.55	225.75
941.85	225.73
942.15	225.88
942.45	225.86
942.75	225.88
943.04	225.88
943.34	225.97
943.64	226.03
943.94	225.83
944.24	225.85
944.54	225.86
944.84	225.85
945.13	225.83
945.43	225.71
945.73	225.71
946.03	225.71
946.33	225.70
946.62	225.71
946.92	225.70
947.22	225.68
947.52	225.67
947.82	225.69
948.11	225.58
948.41	225.46
948.71	225.39
949.01	225.43
949.31	225.39
949.60	225.34
949.90	225.37
950.20	225.49
950.50	225.50
950.79	225.41
951.09	225.49
951.39	225.39
951.69	225.31
951.98	225.41
952.28	225.44
952.58	225.43
952.87	225.39
953.17	225.44
953.47	225.43
953.76	225.44
954.06	225.37
954.36	225.32
954.66	225.29
954.95	225.44
955.25	225.44
955.55	225.50
955.84	225.40
956.14	225.40
956.44	225.37
956.73	225.29
957.03	225.34
957.32	225.31
957.62	225.34
957.92	225.43
958.21	225.29
958.51	225.90
958.81	225.92
959.10	225.96
959.40	226.13
959.69	226.15
959.99	226.23
960.29	226.25
960.58	226.28
960.88	226.54
961.17	226.45
961.47	226.55
961.76	226.46
962.06	226.55
962.36	226.49
962.65	226.52
962.95	226.52
963.24	226.53
963.54	226.52
963.83	226.59
964.13	226.60
964.42	226.53
964.72	226.15
965.01	226.13
965.31	226.06
965.60	225.89
965.90	226.20
966.19	226.13
966.49	226.13
966.78	226.16
967.08	226.01
967.37	226.06
967.67	226.01
967.96	226.10
968.26	226.11
968.55	226.17
968.85	226.23
969.14	226.25
969.43	226.22
969.73	226.27
970.02	226.20
970.32	226.12
970.61	226.11
970.91	225.91
971.20	225.88
971.49	225.90
971.79	225.96
972.08	225.63
972.38	225.60
972.67	225.58
972.96	225.57
973.26	225.54
973.55	225.69
973.85	225.61
974.14	225.60
974.43	225.63
974.73	225.55
975.02	225.44
975.31	225.41
975.61	225.52
975.90	225.45
976.19	225.42
976.49	225.47
976.78	225.57
977.07	225.59
977.37	225.64
977.66	225.66
977.95	225.61
978.24	225.60
978.54	225.73
978.83	225.72
979.12	225.71
979.42	225.75
979.71	225.63
980.00	225.59
980.29	225.60
980.59	225.47
980.88	225.61
981.17	225.67
981.46	225.64
981.76	225.59
982.05	225.69
982.34	225.68
982.63	225.65
982.93	225.60
983.22	225.69
983.51	225.65
983.80	225.80
984.09	225.80
984.39	225.83
984.68	225.71
984.97	225.78
985.26	225.79
985.55	225.76
985.85	225.70
986.14	225.82
986.43	225.83
986.72	225.85
987.01	225.63
987.30	225.58
987.59	225.57
987.89	225.60
988.18	225.43
988.47	225.46
988.76	225.45
989.05	225.43
989.34	225.32
989.63	225.51
989.92	225.40
990.22	225.27
990.51	225.20
990.80	225.17
991.09	225.23
991.38	225.22
991.67	225.16
991.96	225.09
992.25	225.12
992.54	225.06
992.83	225.09
993.12	225.20
993.41	225.30
993.70	225.50
993.99	225.56
994.28	225.74
994.58	225.81
994.87	225.81
995.16	225.80
995.45	225.81
995.74	225.63
996.03	225.61
996.32	225.75
996.61	225.93
996.90	225.95
997.19	225.87
997.48	225.90
997.77	225.89
998.06	225.98
998.34	225.92
998.63	225.94
998.92	225.92
999.21	225.89
999.50	225.90
999.79	225.78
1000.08	225.79
1000.37	225.74
1000.66	225.68
1000.95	225.77
1001.24	225.88
1001.53	225.94
1001.82	226.01
1002.11	226.02
1002.40	226.12
1002.68	226.26
1002.97	226.69
1003.26	226.70
1003.55	226.67
1003.84	226.72
1004.13	226.78
1004.42	226.83
1004.71	226.81
1004.99	226.74
1005.28	227.00
1005.57	226.93
1005.86	226.79
1006.15	226.75
1006.44	226.70
1006.72	226.75
1007.01	226.69
1007.30	226.66
1007.59	226.60
1007.88	226.53
1008.17	226.53
1008.45	226.37
1008.74	226.06
1009.03	225.79
1009.32	225.86
1009.60	225.84
1009.89	225.80
1010.18	225.69
1010.47	225.63
1010.76	225.65
1011.04	225.76
1011.33	225.69
1011.62	225.81
1011.91	225.90
1012.19	225.92
1012.48	225.95
1012.77	225.91
1013.05	226.15
1013.34	226.11
1013.63	226.14
1013.92	226.24
1014.20	226.22
1014.49	226.26
1014.78	226.32
1015.06	226.16
1015.35	226.03
1015.64	226.09
1015.92	226.13
1016.21	226.08
1016.50	226.09
1016.78	226.08
1017.07	226.07
1017.36	225.99
1017.64	225.82
1017.93	225.90
1018.22	225.90
1018.50	225.86
1018.79	225.93
1019.08	225.69
1019.36	225.69
1019.65	225.58
1019.93	225.61
1020.22	225.69
1020.51	225.96
1020.79	225.95
1021.08	226.35
1021.36	224.90
1021.65	226.45
1021.94	226.25
1022.22	225.05
1022.51	223.95
1022.79	227.55
1023.08	227.15
1023.36	231.55
1023.65	225.75
>>>>>End Processed Spectral Data<<<<<
