SpectraSuite Data File
++++++++++++++++++++++++++++++++++++
Date: Wed Sep 04 17:46:53 EDT 2013
User: lab3
Dark Spectrum Present: Yes
Reference Spectrum Present: No
Number of Sampled Component Spectra: 1
Spectrometers: USB2E7196
Integration Time (usec): 170000 (USB2E7196)
Spectra Averaged: 20 (USB2E7196)
Boxcar Smoothing: 10 (USB2E7196)
Correct for Electrical Dark: No (USB2E7196)
Strobe/Lamp Enabled: No (USB2E7196)
Correct for Detector Non-linearity: No (USB2E7196)
Correct for Stray Light: No (USB2E7196)
Number of Pixels in Processed Spectrum: 2048
>>>>>Begin Processed Spectral Data<<<<<
339.09	0.00
339.48	213.05
339.86	212.95
340.24	215.35
340.63	217.25
341.01	225.10
341.39	219.30
341.78	223.05
342.16	223.90
342.54	223.15
342.93	211.85
343.31	222.52
343.69	223.01
344.07	223.56
344.46	224.03
344.84	224.50
345.22	224.53
345.60	224.80
345.99	224.91
346.37	225.00
346.75	225.07
347.13	225.16
347.52	225.25
347.90	225.50
348.28	225.59
348.66	225.78
349.05	225.64
349.43	225.81
349.81	225.88
350.19	225.91
350.57	226.01
350.96	226.09
351.34	226.25
351.72	226.36
352.10	226.42
352.48	226.42
352.87	226.38
353.25	226.38
353.63	226.35
354.01	226.43
354.39	226.53
354.77	226.64
355.15	226.75
355.54	226.77
355.92	226.70
356.30	226.76
356.68	227.12
357.06	227.22
357.44	227.16
357.82	227.21
358.20	227.66
358.58	227.68
358.97	227.82
359.35	227.90
359.73	228.08
360.11	228.16
360.49	228.37
360.87	228.42
361.25	228.53
361.63	228.81
362.01	228.92
362.39	228.86
362.77	228.91
363.15	228.94
363.53	228.96
363.91	228.98
364.29	229.01
364.67	228.54
365.05	228.61
365.43	228.68
365.81	228.74
366.19	228.62
366.57	228.77
366.95	228.67
367.33	228.66
367.71	228.65
368.09	228.75
368.47	228.68
368.85	228.65
369.23	228.76
369.61	228.56
369.99	228.65
370.37	228.74
370.75	228.98
371.13	228.89
371.51	228.85
371.89	228.91
372.27	228.93
372.65	228.96
373.03	228.98
373.41	228.92
373.78	228.85
374.16	228.59
374.54	228.45
374.92	228.44
375.30	228.33
375.68	228.18
376.06	228.09
376.44	227.99
376.82	227.95
377.19	227.84
377.57	227.75
377.95	227.57
378.33	227.50
378.71	227.14
379.09	227.20
379.47	227.17
379.84	227.06
380.22	226.94
380.60	226.80
380.98	226.65
381.36	226.51
381.73	226.34
382.11	226.40
382.49	226.36
382.87	226.21
383.25	226.20
383.62	226.70
384.00	226.54
384.38	226.50
384.76	226.61
385.13	226.79
385.51	226.76
385.89	226.62
386.27	226.52
386.64	226.60
387.02	226.39
387.40	226.40
387.78	226.32
388.15	226.36
388.53	226.31
388.91	226.25
389.29	226.23
389.66	226.31
390.04	226.15
390.42	226.18
390.79	226.15
391.17	226.13
391.55	225.54
391.92	225.61
392.30	225.59
392.68	225.45
393.05	225.34
393.43	225.40
393.81	225.49
394.18	225.51
394.56	225.44
394.94	225.65
395.31	225.53
395.69	225.77
396.06	225.83
396.44	225.93
396.82	226.02
397.19	226.28
397.57	226.30
397.95	226.48
398.32	226.42
398.70	226.60
399.07	226.72
399.45	226.88
399.82	226.91
400.20	227.03
400.58	227.10
400.95	227.06
401.33	227.31
401.70	227.71
402.08	227.85
402.45	228.08
402.83	228.25
403.20	228.51
403.58	228.44
403.95	228.64
404.33	228.90
404.71	229.13
405.08	229.57
405.46	229.83
405.83	230.08
406.21	230.32
406.58	230.59
406.96	230.89
407.33	231.21
407.70	231.71
408.08	232.41
408.45	232.89
408.83	233.30
409.20	233.67
409.58	233.79
409.95	234.36
410.33	234.84
410.70	235.23
411.08	235.85
411.45	236.63
411.82	237.19
412.20	238.01
412.57	239.01
412.95	239.38
413.32	240.27
413.69	241.03
414.07	241.94
414.44	242.87
414.82	243.84
415.19	245.02
415.56	246.08
415.94	247.14
416.31	248.53
416.68	250.01
417.06	251.63
417.43	253.36
417.81	255.04
418.18	256.80
418.55	258.75
418.93	260.72
419.30	262.78
419.67	264.96
420.04	267.09
420.42	269.34
420.79	272.41
421.16	275.06
421.54	278.13
421.91	281.09
422.28	284.13
422.66	287.28
423.03	290.66
423.40	293.99
423.77	297.50
424.15	300.98
424.52	304.68
424.89	308.80
425.26	312.50
425.64	316.21
426.01	320.26
426.38	324.55
426.75	329.00
427.13	333.50
427.50	338.17
427.87	343.05
428.24	347.81
428.61	352.15
428.99	357.36
429.36	362.57
429.73	367.95
430.10	373.40
430.47	379.12
430.85	384.70
431.22	390.79
431.59	397.42
431.96	403.42
432.33	410.20
432.70	416.68
433.08	424.55
433.45	431.81
433.82	439.07
434.19	447.05
434.56	454.95
434.93	462.44
435.30	470.02
435.68	478.42
436.05	486.78
436.42	494.98
436.79	502.50
437.16	510.79
437.53	519.47
437.90	527.99
438.27	536.40
438.64	545.06
439.01	553.07
439.38	560.20
439.75	567.35
440.13	575.24
440.50	582.51
440.87	588.44
441.24	594.73
441.61	601.63
441.98	606.60
442.35	612.26
442.72	618.18
443.09	624.12
443.46	627.46
443.83	629.76
444.20	631.67
444.57	634.38
444.94	635.42
445.31	636.56
445.68	637.83
446.05	638.01
446.42	636.83
446.79	635.49
447.16	633.79
447.53	632.71
447.90	629.05
448.27	625.60
448.64	620.80
449.01	617.30
449.37	611.38
449.74	605.63
450.11	598.94
450.48	591.34
450.85	583.29
451.22	576.50
451.59	570.05
451.96	564.01
452.33	556.18
452.70	549.06
453.07	540.55
453.43	531.67
453.80	523.35
454.17	515.40
454.54	507.98
454.91	500.04
455.28	492.19
455.65	484.94
456.02	478.30
456.38	472.19
456.75	464.46
457.12	457.92
457.49	451.65
457.86	445.50
458.23	440.56
458.59	434.96
458.96	429.31
459.33	424.19
459.70	419.14
460.07	415.06
460.43	410.42
460.80	406.18
461.17	402.61
461.54	398.71
461.91	394.96
462.27	391.08
462.64	387.78
463.01	384.13
463.38	380.81
463.74	376.72
464.11	373.69
464.48	371.16
464.85	368.40
465.21	366.36
465.58	363.93
465.95	360.98
466.32	358.84
466.68	356.70
467.05	354.57
467.42	352.41
467.78	350.11
468.15	347.99
468.52	346.49
468.88	344.24
469.25	342.33
469.62	340.95
469.98	339.36
470.35	337.89
470.72	336.48
471.08	334.81
471.45	333.66
471.82	332.42
472.18	331.02
472.55	330.00
472.92	328.62
473.28	327.59
473.65	326.61
474.02	325.48
474.38	324.64
474.75	323.81
475.11	322.85
475.48	322.17
475.85	321.55
476.21	320.87
476.58	320.46
476.94	320.08
477.31	319.56
477.67	319.12
478.04	318.80
478.41	318.63
478.77	318.95
479.14	318.56
479.50	318.40
479.87	318.31
480.23	318.28
480.60	318.29
480.96	318.32
481.33	318.65
481.69	318.92
482.06	319.13
482.42	319.40
482.79	319.87
483.15	320.34
483.52	320.96
483.88	321.41
484.25	321.97
484.61	322.65
484.98	323.22
485.34	324.17
485.71	325.07
486.07	326.08
486.44	326.67
486.80	327.77
487.17	328.82
487.53	330.21
487.90	331.65
488.26	333.33
488.62	334.97
488.99	336.53
489.35	338.25
489.72	340.05
490.08	341.96
490.44	343.89
490.81	346.03
491.17	348.16
491.54	350.64
491.90	353.07
492.26	355.62
492.63	358.60
492.99	361.44
493.36	364.57
493.72	367.82
494.08	371.26
494.45	375.00
494.81	378.87
495.17	382.72
495.54	386.87
495.90	390.96
496.26	395.45
496.63	400.00
496.99	404.71
497.35	409.80
497.72	415.07
498.08	420.53
498.44	426.19
498.80	432.25
499.17	438.01
499.53	444.34
499.89	451.08
500.26	457.70
500.62	464.61
500.98	471.91
501.34	479.31
501.71	486.95
502.07	494.70
502.43	502.79
502.79	511.15
503.16	519.76
503.52	528.82
503.88	537.99
504.24	547.51
504.60	557.46
504.97	567.67
505.33	577.93
505.69	588.96
506.05	599.84
506.41	611.01
506.78	622.93
507.14	634.84
507.50	646.97
507.86	659.52
508.22	672.31
508.59	685.19
508.95	698.68
509.31	712.71
509.67	726.76
510.03	741.05
510.39	755.63
510.75	770.36
511.12	785.19
511.48	800.62
511.84	816.36
512.20	832.15
512.56	848.22
512.92	864.87
513.28	881.46
513.64	898.59
514.00	915.87
514.37	933.25
514.73	950.92
515.09	968.84
515.45	986.95
515.81	1005.37
516.17	1023.94
516.53	1042.46
516.89	1060.70
517.25	1079.63
517.61	1099.46
517.97	1119.46
518.33	1139.36
518.69	1159.44
519.05	1179.73
519.41	1199.95
519.77	1220.71
520.13	1241.58
520.49	1261.89
520.85	1283.77
521.21	1304.63
521.57	1325.41
521.93	1345.93
522.29	1366.97
522.65	1387.32
523.01	1407.85
523.37	1428.06
523.73	1448.82
524.09	1468.90
524.45	1489.45
524.81	1510.19
525.17	1530.39
525.53	1550.42
525.89	1570.78
526.25	1591.26
526.61	1611.11
526.97	1631.92
527.33	1652.42
527.68	1673.37
528.04	1694.57
528.40	1713.74
528.76	1734.33
529.12	1754.56
529.48	1775.07
529.84	1794.65
530.20	1815.30
530.56	1835.57
530.91	1855.75
531.27	1875.60
531.63	1896.09
531.99	1916.39
532.35	1936.00
532.71	1955.58
533.07	1975.75
533.42	1995.39
533.78	2014.65
534.14	2034.20
534.50	2053.05
534.86	2072.19
535.21	2089.36
535.57	2107.13
535.93	2124.80
536.29	2142.16
536.65	2160.14
537.00	2177.22
537.36	2194.32
537.72	2210.26
538.08	2227.26
538.44	2243.60
538.79	2259.35
539.15	2275.30
539.51	2290.71
539.87	2305.45
540.22	2318.97
540.58	2332.77
540.94	2345.63
541.29	2358.49
541.65	2370.73
542.01	2382.82
542.37	2392.75
542.72	2403.25
543.08	2413.10
543.44	2424.18
543.79	2433.42
544.15	2442.65
544.51	2451.91
544.87	2461.36
545.22	2469.84
545.58	2477.08
545.94	2483.95
546.29	2490.27
546.65	2496.13
547.01	2501.30
547.36	2506.52
547.72	2512.19
548.07	2515.93
548.43	2520.81
548.79	2524.80
549.14	2528.35
549.50	2531.60
549.86	2535.47
550.21	2538.74
550.57	2542.18
550.92	2542.63
551.28	2544.00
551.64	2545.89
551.99	2547.44
552.35	2548.56
552.70	2550.41
553.06	2551.75
553.41	2552.75
553.77	2554.28
554.13	2555.09
554.48	2556.60
554.84	2557.74
555.19	2558.55
555.55	2560.11
555.90	2559.15
556.26	2557.83
556.61	2555.83
556.97	2553.10
557.32	2552.02
557.68	2550.71
558.03	2549.05
558.39	2547.58
558.74	2546.21
559.10	2542.72
559.45	2539.22
559.81	2534.27
560.16	2528.77
560.52	2523.48
560.87	2518.94
561.23	2513.19
561.58	2507.52
561.94	2500.27
562.29	2492.73
562.64	2485.62
563.00	2476.96
563.35	2469.84
563.71	2463.46
564.06	2457.43
564.42	2451.29
564.77	2444.10
565.12	2436.70
565.48	2428.77
565.83	2421.10
566.19	2413.30
566.54	2405.48
566.89	2397.39
567.25	2389.82
567.60	2382.83
567.96	2375.68
568.31	2367.99
568.66	2359.77
569.02	2350.66
569.37	2342.30
569.72	2334.96
570.08	2325.50
570.43	2316.69
570.78	2307.92
571.14	2298.30
571.49	2288.13
571.84	2278.48
572.20	2267.93
572.55	2257.81
572.90	2247.10
573.26	2236.95
573.61	2225.80
573.96	2214.50
574.31	2202.61
574.67	2191.32
575.02	2178.80
575.37	2166.06
575.72	2152.83
576.08	2140.76
576.43	2128.39
576.78	2115.72
577.13	2102.09
577.49	2089.88
577.84	2077.90
578.19	2065.99
578.54	2053.55
578.90	2041.87
579.25	2029.68
579.60	2017.49
579.95	2004.69
580.30	1991.80
580.66	1978.50
581.01	1965.17
581.36	1951.90
581.71	1939.67
582.06	1926.98
582.42	1914.85
582.77	1902.45
583.12	1890.57
583.47	1878.55
583.82	1867.09
584.17	1855.40
584.53	1843.58
584.88	1830.90
585.23	1817.88
585.58	1804.15
585.93	1791.32
586.28	1778.23
586.63	1764.64
586.98	1750.81
587.34	1737.80
587.69	1724.93
588.04	1712.70
588.39	1701.07
588.74	1689.00
589.09	1677.26
589.44	1664.87
589.79	1652.92
590.14	1641.08
590.49	1629.13
590.84	1617.16
591.19	1605.37
591.54	1593.39
591.89	1581.59
592.25	1571.68
592.60	1560.53
592.95	1549.57
593.30	1538.09
593.65	1526.34
594.00	1514.70
594.35	1505.32
594.70	1493.91
595.05	1482.91
595.40	1471.37
595.75	1459.68
596.10	1448.81
596.45	1437.27
596.80	1426.67
597.15	1415.38
597.50	1404.20
597.85	1393.23
598.19	1382.04
598.54	1370.58
598.89	1359.51
599.24	1349.35
599.59	1337.87
599.94	1327.46
600.29	1317.45
600.64	1307.41
600.99	1297.19
601.34	1287.92
601.69	1276.90
602.04	1267.51
602.39	1258.29
602.74	1249.41
603.08	1240.62
603.43	1231.56
603.78	1222.40
604.13	1212.87
604.48	1203.66
604.83	1194.08
605.18	1184.71
605.53	1175.64
605.87	1166.92
606.22	1158.78
606.57	1149.70
606.92	1140.61
607.27	1132.00
607.62	1123.16
607.96	1114.79
608.31	1107.03
608.66	1098.74
609.01	1090.36
609.36	1082.00
609.70	1073.21
610.05	1064.71
610.40	1056.31
610.75	1047.86
611.10	1039.69
611.44	1031.30
611.79	1023.34
612.14	1015.88
612.49	1008.46
612.83	1001.17
613.18	993.48
613.53	985.87
613.88	978.34
614.22	970.76
614.57	962.98
614.92	955.42
615.27	948.19
615.61	940.52
615.96	933.20
616.31	925.92
616.65	919.19
617.00	912.16
617.35	904.94
617.70	897.97
618.04	891.07
618.39	884.26
618.74	878.17
619.08	871.68
619.43	864.80
619.78	857.90
620.12	850.69
620.47	843.97
620.82	836.93
621.16	830.22
621.51	824.09
621.85	818.02
622.20	811.51
622.55	805.14
622.89	799.13
623.24	792.78
623.59	786.64
623.93	780.31
624.28	774.35
624.62	769.10
624.97	763.55
625.32	757.88
625.66	752.25
626.01	746.27
626.35	740.85
626.70	735.59
627.04	730.40
627.39	725.08
627.73	720.07
628.08	715.30
628.43	710.00
628.77	704.91
629.12	699.84
629.46	695.52
629.81	690.86
630.15	686.17
630.50	681.53
630.84	676.96
631.19	672.42
631.53	668.02
631.88	662.77
632.22	657.97
632.57	653.77
632.91	649.24
633.26	645.07
633.60	640.53
633.95	635.91
634.29	631.24
634.64	627.01
634.98	622.39
635.32	617.97
635.67	614.20
636.01	610.06
636.36	605.78
636.70	601.65
637.05	597.46
637.39	593.37
637.73	589.45
638.08	585.53
638.42	581.47
638.77	577.45
639.11	573.32
639.45	569.10
639.80	564.83
640.14	560.91
640.49	557.04
640.83	553.22
641.17	549.76
641.52	546.18
641.86	542.85
642.20	539.83
642.55	536.30
642.89	532.64
643.23	529.33
643.58	526.29
643.92	522.71
644.26	519.44
644.61	516.26
644.95	513.08
645.29	509.70
645.64	506.66
645.98	503.63
646.32	500.89
646.66	498.04
647.01	495.20
647.35	492.51
647.69	489.62
648.04	486.89
648.38	484.05
648.72	481.09
649.06	478.06
649.41	474.98
649.75	472.16
650.09	469.49
650.43	466.64
650.78	463.84
651.12	461.10
651.46	458.49
651.80	455.93
652.14	453.17
652.49	450.70
652.83	448.04
653.17	445.55
653.51	442.98
653.85	440.65
654.20	438.23
654.54	435.69
654.88	433.33
655.22	431.22
655.56	428.96
655.90	426.87
656.25	424.62
656.59	422.42
656.93	420.24
657.27	418.12
657.61	415.68
657.95	413.33
658.29	411.36
658.64	409.24
658.98	406.95
659.32	404.82
659.66	402.78
660.00	400.74
660.34	398.72
660.68	396.79
661.02	394.70
661.36	392.74
661.70	390.76
662.05	388.79
662.39	386.78
662.73	384.98
663.07	383.35
663.41	381.55
663.75	379.65
664.09	377.81
664.43	375.91
664.77	374.37
665.11	372.79
665.45	371.07
665.79	369.41
666.13	367.75
666.47	366.13
666.81	364.45
667.15	362.90
667.49	361.33
667.83	359.99
668.17	358.60
668.51	357.23
668.85	356.01
669.19	354.84
669.53	353.31
669.87	351.79
670.21	350.31
670.55	348.93
670.89	347.90
671.23	346.64
671.57	345.25
671.91	343.90
672.25	342.59
672.58	341.39
672.92	340.00
673.26	338.85
673.60	337.68
673.94	336.47
674.28	335.32
674.62	334.27
674.96	332.87
675.30	331.71
675.64	330.42
675.97	329.14
676.31	327.78
676.65	326.63
676.99	325.71
677.33	324.45
677.67	323.43
678.01	322.07
678.34	321.07
678.68	320.23
679.02	319.22
679.36	318.18
679.70	317.19
680.04	316.25
680.37	315.32
680.71	314.41
681.05	313.61
681.39	312.73
681.73	311.80
682.06	311.08
682.40	310.30
682.74	309.54
683.08	308.87
683.42	307.99
683.75	307.23
684.09	306.25
684.43	305.58
684.77	304.75
685.10	304.10
685.44	303.30
685.78	302.50
686.12	301.74
686.45	300.95
686.79	300.08
687.13	299.43
687.46	298.76
687.80	298.16
688.14	297.38
688.48	296.67
688.81	295.90
689.15	295.24
689.49	294.43
689.82	293.72
690.16	292.74
690.50	292.16
690.83	291.39
691.17	290.65
691.51	289.97
691.84	289.34
692.18	288.58
692.52	287.82
692.85	287.22
693.19	286.77
693.52	286.17
693.86	285.61
694.20	284.99
694.53	284.38
694.87	283.66
695.21	283.06
695.54	282.48
695.88	281.87
696.21	281.12
696.55	280.58
696.88	280.02
697.22	279.55
697.56	278.98
697.89	278.42
698.23	277.97
698.56	277.32
698.90	276.92
699.23	276.45
699.57	276.03
699.90	275.40
700.24	274.74
700.58	274.36
700.91	273.98
701.25	273.87
701.58	273.71
701.92	273.34
702.25	272.87
702.59	272.42
702.92	272.00
703.26	271.64
703.59	271.18
703.93	271.13
704.26	270.68
704.60	270.33
704.93	269.98
705.26	269.51
705.60	269.27
705.93	268.75
706.27	268.54
706.60	268.31
706.94	268.26
707.27	267.89
707.61	267.43
707.94	267.00
708.27	266.21
708.61	265.36
708.94	264.95
709.28	264.58
709.61	264.17
709.94	263.77
710.28	263.37
710.61	263.01
710.95	262.25
711.28	262.22
711.61	261.76
711.95	261.49
712.28	261.12
712.61	260.69
712.95	260.56
713.28	260.35
713.61	259.93
713.95	259.34
714.28	258.99
714.61	258.69
714.95	258.27
715.28	257.88
715.61	257.61
715.95	257.31
716.28	256.96
716.61	256.70
716.95	256.36
717.28	256.05
717.61	255.68
717.94	255.38
718.28	254.73
718.61	254.45
718.94	254.14
719.27	253.92
719.61	253.73
719.94	253.28
720.27	252.74
720.60	252.45
720.94	252.28
721.27	252.09
721.60	251.96
721.93	251.72
722.27	251.70
722.60	251.60
722.93	251.26
723.26	251.06
723.59	250.77
723.93	250.66
724.26	250.52
724.59	250.39
724.92	250.19
725.25	250.10
725.59	249.87
725.92	249.71
726.25	249.47
726.58	249.25
726.91	249.06
727.24	248.93
727.57	248.71
727.91	248.41
728.24	248.27
728.57	248.00
728.90	247.89
729.23	247.52
729.56	247.53
729.89	247.47
730.22	247.36
730.55	247.18
730.89	246.95
731.22	246.69
731.55	246.41
731.88	246.28
732.21	246.06
732.54	245.86
732.87	245.62
733.20	245.48
733.53	245.37
733.86	245.26
734.19	245.05
734.52	244.95
734.85	245.10
735.18	244.83
735.51	244.82
735.84	244.67
736.17	244.70
736.50	244.24
736.83	244.61
737.16	244.38
737.49	244.32
737.82	244.21
738.15	244.20
738.48	244.15
738.81	243.97
739.14	243.70
739.47	243.61
739.80	243.47
740.13	243.33
740.46	243.11
740.79	242.95
741.12	242.85
741.45	242.66
741.78	242.29
742.11	242.30
742.44	242.05
742.77	241.94
743.10	241.71
743.43	241.57
743.75	240.89
744.08	241.36
744.41	241.19
744.74	241.02
745.07	240.77
745.40	240.73
745.73	240.85
746.06	240.85
746.39	240.74
746.71	240.65
747.04	240.59
747.37	240.46
747.70	240.42
748.03	240.32
748.36	240.31
748.68	240.22
749.01	239.97
749.34	239.88
749.67	239.76
750.00	239.72
750.33	240.01
750.65	239.98
750.98	239.32
751.31	239.25
751.64	239.15
751.97	239.29
752.29	239.16
752.62	238.73
752.95	238.63
753.28	238.44
753.60	238.29
753.93	238.26
754.26	238.20
754.59	237.95
754.91	237.83
755.24	237.65
755.57	237.49
755.90	237.44
756.22	237.25
756.55	237.08
756.88	236.89
757.20	236.45
757.53	236.15
757.86	236.00
758.19	235.92
758.51	235.82
758.84	235.54
759.17	235.31
759.49	235.30
759.82	235.42
760.15	235.39
760.47	235.34
760.80	235.10
761.13	235.04
761.45	234.92
761.78	234.77
762.11	234.66
762.43	234.53
762.76	234.44
763.08	234.43
763.41	234.40
763.74	234.32
764.06	234.20
764.39	234.21
764.71	234.15
765.04	233.97
765.37	233.85
765.69	233.72
766.02	233.59
766.34	233.55
766.67	233.28
767.00	233.28
767.32	233.44
767.65	233.69
767.97	233.58
768.30	233.58
768.62	233.54
768.95	233.40
769.27	233.36
769.60	233.30
769.92	233.18
770.25	233.07
770.57	232.97
770.90	232.89
771.22	232.77
771.55	232.74
771.87	232.69
772.20	232.65
772.52	232.97
772.85	233.57
773.17	233.49
773.50	233.38
773.82	233.28
774.15	232.92
774.47	232.48
774.80	232.36
775.12	232.33
775.45	232.24
775.77	232.31
776.09	232.30
776.42	232.30
776.74	232.36
777.07	232.26
777.39	232.19
777.72	232.12
778.04	232.20
778.36	232.10
778.69	232.07
779.01	232.00
779.33	231.57
779.66	231.01
779.98	230.96
780.31	230.99
780.63	231.13
780.95	231.23
781.28	231.33
781.60	231.25
781.92	231.20
782.25	231.15
782.57	231.08
782.89	230.97
783.22	230.85
783.54	230.71
783.86	230.77
784.19	230.69
784.51	230.83
784.83	230.67
785.16	230.58
785.48	230.55
785.80	230.48
786.12	230.45
786.45	230.39
786.77	230.27
787.09	230.18
787.42	229.98
787.74	229.91
788.06	229.79
788.38	229.81
788.71	229.71
789.03	229.73
789.35	229.79
789.67	229.73
789.99	229.80
790.32	229.75
790.64	229.78
790.96	230.19
791.28	229.98
791.61	229.94
791.93	230.02
792.25	230.04
792.57	230.36
792.89	230.26
793.21	230.35
793.54	230.39
793.86	230.36
794.18	230.35
794.50	230.29
794.82	230.27
795.14	230.31
795.47	230.42
795.79	230.48
796.11	230.24
796.43	230.19
796.75	230.04
797.07	230.04
797.39	229.97
797.71	229.61
798.04	229.64
798.36	229.71
798.68	229.73
799.00	229.71
799.32	229.50
799.64	229.61
799.96	229.55
800.28	229.51
800.60	229.39
800.92	229.42
801.24	229.40
801.56	229.44
801.89	229.41
802.21	229.39
802.53	229.21
802.85	229.35
803.17	229.60
803.49	229.53
803.81	229.50
804.13	229.43
804.45	229.30
804.77	229.33
805.09	229.26
805.41	229.12
805.73	229.00
806.05	228.79
806.37	228.73
806.69	228.63
807.01	228.70
807.33	228.83
807.65	228.63
807.97	228.75
808.28	228.73
808.60	228.59
808.92	228.48
809.24	228.76
809.56	228.72
809.88	228.46
810.20	228.51
810.52	228.51
810.84	228.43
811.16	228.40
811.48	228.34
811.80	228.46
812.12	228.47
812.43	228.55
812.75	228.60
813.07	228.48
813.39	228.54
813.71	228.38
814.03	228.22
814.35	228.18
814.67	227.96
814.98	227.83
815.30	227.84
815.62	227.71
815.94	227.36
816.26	227.51
816.58	227.46
816.89	227.46
817.21	227.35
817.53	227.40
817.85	227.43
818.17	227.45
818.48	227.29
818.80	227.36
819.12	227.27
819.44	227.18
819.76	227.20
820.07	227.11
820.39	227.10
820.71	227.16
821.03	227.22
821.34	227.23
821.66	227.34
821.98	227.40
822.30	227.39
822.61	227.69
822.93	227.43
823.25	227.47
823.57	227.40
823.88	227.52
824.20	227.53
824.52	227.62
824.83	227.51
825.15	227.42
825.47	227.31
825.79	227.33
826.10	227.37
826.42	227.37
826.74	227.42
827.05	227.39
827.37	227.37
827.69	227.35
828.00	227.34
828.32	227.29
828.64	227.17
828.95	227.53
829.27	227.36
829.58	227.37
829.90	227.35
830.22	227.37
830.53	227.23
830.85	227.16
831.17	227.01
831.48	227.13
831.80	227.14
832.11	227.11
832.43	227.07
832.75	227.00
833.06	227.25
833.38	227.13
833.69	227.17
834.01	227.18
834.32	227.18
834.64	227.12
834.96	227.12
835.27	227.17
835.59	226.93
835.90	226.92
836.22	226.92
836.53	226.89
836.85	226.84
837.16	227.31
837.48	227.32
837.79	227.49
838.11	227.45
838.42	227.46
838.74	227.57
839.05	227.51
839.37	227.53
839.68	227.28
840.00	227.28
840.31	227.34
840.63	227.27
840.94	227.26
841.26	227.28
841.57	227.32
841.88	227.40
842.20	227.35
842.51	227.24
842.83	227.26
843.14	227.66
843.46	227.68
843.77	227.38
844.08	227.35
844.40	227.15
844.71	227.10
845.03	227.08
845.34	227.03
845.65	227.05
845.97	227.02
846.28	227.00
846.60	227.02
846.91	226.94
847.22	226.93
847.54	227.05
847.85	227.03
848.16	226.95
848.48	226.81
848.79	226.94
849.10	227.02
849.42	227.00
849.73	226.58
850.04	226.60
850.36	226.45
850.67	226.60
850.98	226.66
851.30	226.76
851.61	226.77
851.92	226.73
852.23	226.82
852.55	226.89
852.86	226.93
853.17	227.01
853.49	227.05
853.80	227.17
854.11	227.09
854.42	227.20
854.74	227.12
855.05	227.10
855.36	226.88
855.67	226.85
855.99	226.85
856.30	227.36
856.61	227.28
856.92	227.26
857.23	227.22
857.55	227.18
857.86	227.03
858.17	227.07
858.48	226.99
858.79	226.88
859.11	226.90
859.42	226.81
859.73	226.72
860.04	226.73
860.35	226.57
860.66	226.44
860.98	226.39
861.29	226.45
861.60	226.44
861.91	226.57
862.22	226.49
862.53	226.46
862.84	225.91
863.16	226.03
863.47	226.05
863.78	225.98
864.09	226.01
864.40	226.09
864.71	226.05
865.02	226.14
865.33	226.16
865.64	226.05
865.95	226.14
866.27	226.41
866.58	226.36
866.89	226.46
867.20	226.48
867.51	226.42
867.82	226.38
868.13	226.53
868.44	226.41
868.75	226.44
869.06	226.43
869.37	226.48
869.68	226.38
869.99	226.38
870.30	226.35
870.61	226.36
870.92	226.25
871.23	226.19
871.54	226.26
871.85	226.34
872.16	226.41
872.47	226.30
872.78	226.08
873.09	226.18
873.40	226.11
873.71	226.16
874.02	226.21
874.33	226.20
874.64	226.07
874.95	226.21
875.26	226.19
875.56	226.14
875.87	226.07
876.18	226.05
876.49	226.62
876.80	226.60
877.11	226.47
877.42	226.53
877.73	226.65
878.04	226.60
878.35	226.64
878.66	226.64
878.96	226.61
879.27	226.55
879.58	226.47
879.89	226.47
880.20	226.54
880.51	226.50
880.82	226.58
881.12	226.61
881.43	226.54
881.74	226.49
882.05	226.51
882.36	226.58
882.67	226.63
882.97	226.08
883.28	226.05
883.59	226.17
883.90	226.24
884.21	226.23
884.51	226.13
884.82	226.03
885.13	226.02
885.44	226.00
885.74	226.00
886.05	226.00
886.36	225.99
886.67	225.87
886.98	226.16
887.28	226.14
887.59	226.19
887.90	226.16
888.20	226.19
888.51	226.34
888.82	226.27
889.13	226.33
889.43	226.70
889.74	226.70
890.05	226.59
890.35	226.49
890.66	226.41
890.97	226.38
891.28	226.27
891.58	226.35
891.89	226.41
892.20	226.41
892.50	226.40
892.81	226.39
893.12	226.38
893.42	226.07
893.73	226.15
894.04	226.10
894.34	226.13
894.65	226.07
894.95	225.94
895.26	225.95
895.57	226.11
895.87	225.75
896.18	225.81
896.48	225.93
896.79	226.03
897.10	226.15
897.40	226.22
897.71	226.34
898.01	226.18
898.32	226.24
898.63	226.28
898.93	226.37
899.24	226.35
899.54	226.39
899.85	226.38
900.15	226.31
900.46	226.30
900.76	226.37
901.07	226.45
901.38	226.49
901.68	226.57
901.99	226.36
902.29	226.22
902.60	226.22
902.90	226.17
903.21	226.11
903.51	226.02
903.82	226.08
904.12	226.12
904.43	226.18
904.73	226.16
905.03	226.15
905.34	226.53
905.64	226.54
905.95	226.48
906.25	226.52
906.56	226.51
906.86	226.55
907.17	226.52
907.47	226.55
907.77	226.49
908.08	226.36
908.38	226.36
908.69	226.53
908.99	226.61
909.30	226.62
909.60	226.63
909.90	226.67
910.21	226.51
910.51	226.39
910.81	226.44
911.12	226.52
911.42	226.55
911.73	225.97
912.03	226.02
912.33	226.11
912.64	226.03
912.94	225.98
913.24	225.85
913.55	225.81
913.85	225.75
914.15	225.83
914.46	225.96
914.76	225.92
915.06	225.82
915.37	225.69
915.67	225.65
915.97	225.63
916.27	225.52
916.58	225.59
916.88	225.69
917.18	225.60
917.49	225.89
917.79	225.88
918.09	226.05
918.39	226.20
918.70	226.17
919.00	226.29
919.30	226.54
919.60	226.52
919.91	226.44
920.21	226.48
920.51	226.40
920.81	226.40
921.12	226.46
921.42	226.51
921.72	226.61
922.02	226.57
922.32	226.65
922.63	226.74
922.93	226.99
923.23	226.92
923.53	226.87
923.83	226.55
924.13	226.57
924.44	226.53
924.74	226.53
925.04	226.66
925.34	226.57
925.64	226.30
925.94	226.36
926.24	226.67
926.55	226.67
926.85	226.79
927.15	226.68
927.45	226.68
927.75	226.63
928.05	226.56
928.35	226.61
928.65	226.73
928.95	226.73
929.26	226.54
929.56	226.60
929.86	226.65
930.16	226.56
930.46	226.47
930.76	226.46
931.06	226.25
931.36	226.11
931.66	226.17
931.96	226.22
932.26	226.21
932.56	225.96
932.86	225.90
933.16	225.85
933.46	225.83
933.76	225.77
934.06	225.88
934.36	226.09
934.66	226.06
934.96	225.86
935.26	225.85
935.56	225.94
935.86	225.84
936.16	225.75
936.46	225.75
936.76	225.70
937.06	225.66
937.36	225.71
937.66	225.68
937.96	225.61
938.26	225.58
938.56	225.49
938.86	225.53
939.16	225.64
939.46	225.62
939.76	225.61
940.06	225.61
940.35	225.49
940.65	225.20
940.95	225.25
941.25	225.15
941.55	225.13
941.85	225.04
942.15	225.18
942.45	225.32
942.75	225.32
943.04	225.37
943.34	225.53
943.64	225.43
943.94	225.41
944.24	225.47
944.54	225.44
944.84	225.55
945.13	225.50
945.43	225.44
945.73	225.44
946.03	225.44
946.33	225.44
946.62	225.42
946.92	225.44
947.22	225.40
947.52	225.49
947.82	225.58
948.11	225.59
948.41	225.48
948.71	225.35
949.01	225.35
949.31	225.31
949.60	225.26
949.90	225.36
950.20	225.33
950.50	225.42
950.79	225.50
951.09	225.53
951.39	225.48
951.69	225.42
951.98	225.60
952.28	225.66
952.58	225.61
952.87	225.59
953.17	225.74
953.47	225.69
953.76	225.72
954.06	225.60
954.36	225.50
954.66	225.47
954.95	225.62
955.25	225.70
955.55	225.76
955.84	225.67
956.14	225.75
956.44	225.84
956.73	225.69
957.03	225.66
957.32	225.65
957.62	225.65
957.92	225.82
958.21	225.75
958.51	226.25
958.81	226.42
959.10	226.54
959.40	226.57
959.69	226.59
959.99	226.63
960.29	226.63
960.58	226.67
960.88	226.87
961.17	226.88
961.47	226.94
961.76	226.90
962.06	226.96
962.36	226.90
962.65	226.90
962.95	226.94
963.24	226.92
963.54	226.87
963.83	226.96
964.13	226.89
964.42	226.73
964.72	226.34
965.01	226.26
965.31	226.13
965.60	226.03
965.90	226.35
966.19	226.22
966.49	226.23
966.78	226.24
967.08	226.16
967.37	226.13
967.67	225.98
967.96	226.05
968.26	226.00
968.55	226.05
968.85	226.02
969.14	226.00
969.43	226.06
969.73	226.12
970.02	226.15
970.32	226.05
970.61	226.04
970.91	225.99
971.20	225.86
971.49	225.93
971.79	225.98
972.08	225.59
972.38	225.65
972.67	225.60
972.96	225.63
973.26	225.60
973.55	225.67
973.85	225.65
974.14	225.59
974.43	225.63
974.73	225.54
975.02	225.45
975.31	225.49
975.61	225.45
975.90	225.39
976.19	225.29
976.49	225.35
976.78	225.46
977.07	225.42
977.37	225.50
977.66	225.56
977.95	225.50
978.24	225.61
978.54	225.72
978.83	225.73
979.12	225.62
979.42	225.59
979.71	225.44
980.00	225.41
980.29	225.49
980.59	225.37
980.88	225.50
981.17	225.59
981.46	225.59
981.76	225.47
982.05	225.57
982.34	225.59
982.63	225.62
982.93	225.55
983.22	225.68
983.51	225.75
983.80	225.75
984.09	225.77
984.39	225.71
984.68	225.68
984.97	225.67
985.26	225.71
985.55	225.76
985.85	225.79
986.14	225.93
986.43	225.90
986.72	225.94
987.01	225.84
987.30	225.78
987.59	225.66
987.89	225.78
988.18	225.70
988.47	225.62
988.76	225.60
989.05	225.59
989.34	225.51
989.63	225.62
989.92	225.60
990.22	225.52
990.51	225.50
990.80	225.45
991.09	225.58
991.38	225.64
991.67	225.64
991.96	225.64
992.25	225.63
992.54	225.55
992.83	225.50
993.12	225.46
993.41	225.58
993.70	225.80
993.99	225.91
994.28	225.92
994.58	226.09
994.87	226.05
995.16	226.06
995.45	225.94
995.74	225.68
996.03	225.75
996.32	225.91
996.61	226.00
996.90	226.00
997.19	225.97
997.48	225.94
997.77	225.86
998.06	225.89
998.34	225.83
998.63	225.87
998.92	226.00
999.21	226.02
999.50	226.00
999.79	225.91
1000.08	225.82
1000.37	225.85
1000.66	225.73
1000.95	225.86
1001.24	225.86
1001.53	225.99
1001.82	226.02
1002.11	225.88
1002.40	225.85
1002.68	225.99
1002.97	226.34
1003.26	226.27
1003.55	226.21
1003.84	226.22
1004.13	226.31
1004.42	226.36
1004.71	226.37
1004.99	226.33
1005.28	226.50
1005.57	226.45
1005.86	226.35
1006.15	226.37
1006.44	226.23
1006.72	226.30
1007.01	226.21
1007.30	226.21
1007.59	226.12
1007.88	226.13
1008.17	226.15
1008.45	226.06
1008.74	225.81
1009.03	225.53
1009.32	225.53
1009.60	225.48
1009.89	225.48
1010.18	225.39
1010.47	225.32
1010.76	225.20
1011.04	225.10
1011.33	225.06
1011.62	225.11
1011.91	225.23
1012.19	225.18
1012.48	225.25
1012.77	225.22
1013.05	225.39
1013.34	225.42
1013.63	225.40
1013.92	225.40
1014.20	225.30
1014.49	225.29
1014.78	225.39
1015.06	225.26
1015.35	225.26
1015.64	225.44
1015.92	225.47
1016.21	225.48
1016.50	225.51
1016.78	225.70
1017.07	225.75
1017.36	225.65
1017.64	225.56
1017.93	225.54
1018.22	225.53
1018.50	225.58
1018.79	225.59
1019.08	225.42
1019.36	225.43
1019.65	225.43
1019.93	225.58
1020.22	225.73
1020.51	225.97
1020.79	225.87
1021.08	224.65
1021.36	225.70
1021.65	226.20
1021.94	226.00
1022.22	226.00
1022.51	225.10
1022.79	227.40
1023.08	226.45
1023.36	230.00
1023.65	223.65
>>>>>End Processed Spectral Data<<<<<
