SpectraSuite Data File
++++++++++++++++++++++++++++++++++++
Date: Wed Sep 04 17:51:00 EDT 2013
User: lab3
Dark Spectrum Present: Yes
Reference Spectrum Present: No
Number of Sampled Component Spectra: 1
Spectrometers: USB2E7196
Integration Time (usec): 170000 (USB2E7196)
Spectra Averaged: 20 (USB2E7196)
Boxcar Smoothing: 10 (USB2E7196)
Correct for Electrical Dark: No (USB2E7196)
Strobe/Lamp Enabled: No (USB2E7196)
Correct for Detector Non-linearity: No (USB2E7196)
Correct for Stray Light: No (USB2E7196)
Number of Pixels in Processed Spectrum: 2048
>>>>>Begin Processed Spectral Data<<<<<
339.09	0.00
339.48	212.25
339.86	215.20
340.24	216.40
340.63	217.90
341.01	226.75
341.39	220.55
341.78	223.15
342.16	223.45
342.54	222.95
342.93	212.65
343.31	223.34
343.69	223.90
344.07	224.36
344.46	224.83
344.84	225.20
345.22	225.11
345.60	225.40
345.99	225.55
346.37	225.69
346.75	225.84
347.13	225.88
347.52	225.95
347.90	226.16
348.28	226.20
348.66	226.33
349.05	226.14
349.43	226.20
349.81	226.19
350.19	226.18
350.57	226.16
350.96	226.22
351.34	226.37
351.72	226.50
352.10	226.61
352.48	226.62
352.87	226.65
353.25	226.79
353.63	226.83
354.01	226.82
354.39	226.88
354.77	226.94
355.15	227.14
355.54	227.22
355.92	227.17
356.30	227.21
356.68	227.53
357.06	227.66
357.44	227.58
357.82	227.70
358.20	228.20
358.58	228.30
358.97	228.39
359.35	228.48
359.73	228.65
360.11	228.68
360.49	228.80
360.87	228.87
361.25	228.90
361.63	229.10
362.01	229.18
362.39	229.23
362.77	229.30
363.15	229.29
363.53	229.33
363.91	229.37
364.29	229.35
364.67	229.00
365.05	228.99
365.43	229.15
365.81	229.19
366.19	229.09
366.57	229.25
366.95	229.24
367.33	229.22
367.71	229.25
368.09	229.31
368.47	229.26
368.85	229.25
369.23	229.33
369.61	229.14
369.99	229.33
370.37	229.33
370.75	229.55
371.13	229.44
371.51	229.32
371.89	229.43
372.27	229.53
372.65	229.50
373.03	229.51
373.41	229.45
373.78	229.35
374.16	229.08
374.54	228.89
374.92	228.83
375.30	228.68
375.68	228.47
376.06	228.43
376.44	228.39
376.82	228.32
377.19	228.27
377.57	228.23
377.95	227.95
378.33	227.84
378.71	227.50
379.09	227.53
379.47	227.62
379.84	227.39
380.22	227.22
380.60	227.07
380.98	226.96
381.36	226.85
381.73	226.72
382.11	226.74
382.49	226.74
382.87	226.57
383.25	226.51
383.62	227.01
384.00	226.85
384.38	226.80
384.76	226.90
385.13	227.08
385.51	226.95
385.89	226.93
386.27	226.86
386.64	226.90
387.02	226.80
387.40	226.68
387.78	226.67
388.15	226.70
388.53	226.62
388.91	226.64
389.29	226.56
389.66	226.59
390.04	226.47
390.42	226.47
390.79	226.52
391.17	226.53
391.55	225.92
391.92	225.93
392.30	225.87
392.68	225.72
393.05	225.60
393.43	225.58
393.81	225.59
394.18	225.55
394.56	225.51
394.94	225.57
395.31	225.51
395.69	225.67
396.06	225.69
396.44	225.76
396.82	225.72
397.19	226.12
397.57	226.13
397.95	226.25
398.32	226.20
398.70	226.30
399.07	226.45
399.45	226.46
399.82	226.51
400.20	226.65
400.58	226.80
400.95	226.72
401.33	227.00
401.70	227.47
402.08	227.70
402.45	227.84
402.83	228.02
403.20	228.17
403.58	228.21
403.95	228.53
404.33	228.82
404.71	229.05
405.08	229.42
405.46	229.69
405.83	229.97
406.21	230.28
406.58	230.61
406.96	230.86
407.33	231.28
407.70	231.69
408.08	232.41
408.45	232.88
408.83	233.34
409.20	233.73
409.58	233.83
409.95	234.35
410.33	234.88
410.70	235.32
411.08	236.01
411.45	236.67
411.82	237.18
412.20	237.93
412.57	238.86
412.95	239.29
413.32	240.09
413.69	240.87
414.07	241.69
414.44	242.68
414.82	243.72
415.19	244.96
415.56	246.11
415.94	247.11
416.31	248.50
416.68	249.85
417.06	251.47
417.43	253.17
417.81	254.90
418.18	256.68
418.55	258.59
418.93	260.63
419.30	262.74
419.67	264.92
420.04	267.15
420.42	269.48
420.79	272.42
421.16	275.30
421.54	278.35
421.91	281.43
422.28	284.45
422.66	287.68
423.03	291.06
423.40	294.42
423.77	297.87
424.15	301.48
424.52	305.40
424.89	309.58
425.26	313.48
425.64	317.22
426.01	321.37
426.38	325.78
426.75	330.34
427.13	334.91
427.50	339.60
427.87	344.45
428.24	349.34
428.61	353.83
428.99	359.08
429.36	364.67
429.73	370.10
430.10	375.72
430.47	381.42
430.85	386.96
431.22	393.22
431.59	400.12
431.96	406.30
432.33	413.07
432.70	419.64
433.08	427.44
433.45	434.83
433.82	442.26
434.19	450.42
434.56	458.40
434.93	465.96
435.30	473.70
435.68	482.27
436.05	490.71
436.42	498.85
436.79	506.49
437.16	514.63
437.53	523.44
437.90	531.95
438.27	540.45
438.64	549.33
439.01	557.50
439.38	564.65
439.75	571.74
440.13	579.71
440.50	587.25
440.87	593.33
441.24	599.73
441.61	606.46
441.98	611.48
442.35	617.14
442.72	623.18
443.09	629.09
443.46	632.40
443.83	634.52
444.20	636.71
444.57	639.42
444.94	640.46
445.31	641.50
445.68	642.79
446.05	642.96
446.42	641.72
446.79	640.40
447.16	638.68
447.53	637.33
447.90	633.69
448.27	630.00
448.64	625.19
449.01	621.41
449.37	615.41
449.74	609.43
450.11	602.66
450.48	594.95
450.85	586.89
451.22	580.15
451.59	573.85
451.96	567.53
452.33	559.44
452.70	552.13
453.07	543.53
453.43	534.65
453.80	526.29
454.17	518.37
454.54	510.54
454.91	502.44
455.28	494.62
455.65	487.20
456.02	480.36
456.38	473.91
456.75	466.30
457.12	459.89
457.49	453.67
457.86	447.33
458.23	442.09
458.59	436.43
458.96	430.69
459.33	425.43
459.70	420.33
460.07	416.24
460.43	411.50
460.80	407.25
461.17	403.40
461.54	399.46
461.91	395.57
462.27	391.75
462.64	388.50
463.01	384.90
463.38	381.65
463.74	377.63
464.11	374.70
464.48	372.00
464.85	369.12
465.21	366.94
465.58	364.70
465.95	362.06
466.32	359.84
466.68	357.65
467.05	355.44
467.42	353.34
467.78	350.98
468.15	348.93
468.52	347.31
468.88	345.11
469.25	343.24
469.62	341.79
469.98	340.22
470.35	338.80
470.72	337.38
471.08	335.63
471.45	334.41
471.82	333.16
472.18	331.81
472.55	330.81
472.92	329.39
473.28	328.25
473.65	327.10
474.02	326.01
474.38	325.12
474.75	324.30
475.11	323.40
475.48	322.81
475.85	322.15
476.21	321.52
476.58	321.05
476.94	320.65
477.31	320.28
477.67	319.85
478.04	319.48
478.41	319.22
478.77	319.56
479.14	319.23
479.50	319.18
479.87	319.24
480.23	319.20
480.60	319.27
480.96	319.29
481.33	319.61
481.69	319.80
482.06	320.00
482.42	320.39
482.79	320.75
483.15	321.21
483.52	321.99
483.88	322.49
484.25	323.06
484.61	323.73
484.98	324.33
485.34	325.34
485.71	326.17
486.07	327.13
486.44	327.72
486.80	328.85
487.17	329.95
487.53	331.16
487.90	332.57
488.26	334.27
488.62	335.95
488.99	337.58
489.35	339.33
489.72	341.15
490.08	343.07
490.44	344.99
490.81	347.14
491.17	349.15
491.54	351.56
491.90	354.15
492.26	356.77
492.63	359.58
492.99	362.35
493.36	365.50
493.72	368.81
494.08	372.27
494.45	375.92
494.81	379.74
495.17	383.65
495.54	387.90
495.90	392.00
496.26	396.45
496.63	400.90
496.99	405.74
497.35	410.93
497.72	416.21
498.08	421.69
498.44	427.36
498.80	433.47
499.17	439.35
499.53	445.62
499.89	452.18
500.26	459.04
500.62	465.99
500.98	473.32
501.34	480.79
501.71	488.43
502.07	496.21
502.43	504.34
502.79	512.81
503.16	521.47
503.52	530.47
503.88	539.69
504.24	549.44
504.60	559.25
504.97	569.45
505.33	579.71
505.69	590.74
506.05	601.80
506.41	612.96
506.78	624.68
507.14	636.57
507.50	649.02
507.86	661.46
508.22	674.55
508.59	687.46
508.95	701.11
509.31	715.33
509.67	729.81
510.03	743.97
510.39	758.63
510.75	773.46
511.12	788.61
511.48	804.18
511.84	819.78
512.20	835.73
512.56	851.88
512.92	868.86
513.28	885.50
513.64	902.84
514.00	920.36
514.37	938.14
514.73	956.17
515.09	974.30
515.45	992.71
515.81	1010.83
516.17	1029.61
516.53	1047.92
516.89	1066.35
517.25	1085.40
517.61	1105.48
517.97	1125.63
518.33	1145.50
518.69	1165.76
519.05	1186.34
519.41	1206.90
519.77	1227.83
520.13	1248.60
520.49	1268.98
520.85	1291.18
521.21	1312.06
521.57	1333.17
521.93	1353.76
522.29	1375.00
522.65	1395.36
523.01	1416.05
523.37	1436.45
523.73	1457.47
524.09	1478.30
524.45	1498.73
524.81	1519.52
525.17	1540.31
525.53	1560.64
525.89	1581.51
526.25	1602.13
526.61	1622.08
526.97	1643.10
527.33	1664.26
527.68	1685.82
528.04	1707.23
528.40	1726.89
528.76	1747.86
529.12	1768.32
529.48	1789.26
529.84	1809.08
530.20	1830.15
530.56	1850.97
530.91	1872.06
531.27	1892.20
531.63	1912.53
531.99	1933.05
532.35	1953.09
532.71	1972.94
533.07	1993.61
533.42	2013.53
533.78	2033.44
534.14	2053.39
534.50	2072.22
534.86	2091.24
535.21	2108.52
535.57	2126.44
535.93	2144.02
536.29	2161.31
536.65	2179.22
537.00	2196.59
537.36	2214.19
537.72	2230.36
538.08	2247.14
538.44	2263.51
538.79	2279.72
539.15	2296.02
539.51	2311.97
539.87	2326.71
540.22	2340.40
540.58	2354.57
540.94	2367.56
541.29	2380.02
541.65	2392.33
542.01	2404.58
542.37	2414.89
542.72	2425.92
543.08	2436.27
543.44	2447.73
543.79	2457.85
544.15	2467.53
544.51	2477.55
544.87	2486.79
545.22	2495.58
545.58	2503.31
545.94	2510.46
546.29	2516.92
546.65	2523.00
547.01	2528.18
547.36	2533.73
547.72	2539.31
548.07	2542.81
548.43	2547.90
548.79	2552.72
549.14	2556.75
549.50	2560.45
549.86	2564.54
550.21	2568.30
550.57	2572.04
550.92	2573.15
551.28	2574.43
551.64	2576.59
551.99	2577.98
552.35	2579.25
552.70	2581.20
553.06	2582.99
553.41	2584.21
553.77	2585.70
554.13	2586.84
554.48	2588.54
554.84	2589.60
555.19	2590.53
555.55	2592.38
555.90	2591.64
556.26	2590.35
556.61	2588.47
556.97	2586.44
557.32	2585.59
557.68	2584.42
558.03	2582.67
558.39	2581.02
558.74	2579.96
559.10	2576.67
559.45	2572.79
559.81	2568.53
560.16	2563.32
560.52	2557.93
560.87	2553.36
561.23	2547.72
561.58	2542.11
561.94	2535.45
562.29	2528.37
562.64	2521.31
563.00	2513.01
563.35	2506.41
563.71	2499.66
564.06	2493.55
564.42	2486.99
564.77	2480.10
565.12	2472.24
565.48	2464.41
565.83	2456.54
566.19	2448.70
566.54	2440.70
566.89	2433.07
567.25	2425.44
567.60	2418.31
567.96	2410.96
568.31	2403.06
568.66	2394.74
569.02	2385.74
569.37	2377.21
569.72	2369.71
570.08	2360.28
570.43	2350.66
570.78	2341.79
571.14	2332.51
571.49	2322.21
571.84	2312.83
572.20	2301.80
572.55	2291.49
572.90	2280.84
573.26	2270.72
573.61	2259.22
573.96	2247.95
574.31	2235.85
574.67	2224.19
575.02	2211.23
575.37	2198.77
575.72	2185.37
576.08	2173.35
576.43	2160.84
576.78	2147.84
577.13	2134.14
577.49	2121.79
577.84	2110.38
578.19	2097.96
578.54	2085.17
578.90	2073.57
579.25	2060.99
579.60	2048.70
579.95	2036.02
580.30	2022.92
580.66	2009.49
581.01	1996.06
581.36	1982.35
581.71	1969.81
582.06	1956.86
582.42	1944.83
582.77	1932.18
583.12	1920.38
583.47	1908.02
583.82	1896.05
584.17	1884.13
584.53	1872.24
584.88	1859.21
585.23	1845.90
585.58	1832.08
585.93	1819.32
586.28	1806.18
586.63	1792.44
586.98	1778.57
587.34	1765.49
587.69	1752.20
588.04	1740.02
588.39	1728.46
588.74	1716.66
589.09	1704.85
589.44	1692.28
589.79	1680.00
590.14	1668.00
590.49	1656.00
590.84	1644.01
591.19	1632.49
591.54	1620.44
591.89	1608.42
592.25	1598.39
592.60	1587.02
592.95	1575.75
593.30	1563.60
593.65	1551.48
594.00	1539.70
594.35	1529.85
594.70	1518.13
595.05	1507.11
595.40	1494.98
595.75	1482.92
596.10	1471.59
596.45	1460.18
596.80	1449.44
597.15	1438.26
597.50	1426.43
597.85	1415.15
598.19	1403.60
598.54	1391.93
598.89	1380.83
599.24	1370.26
599.59	1358.86
599.94	1348.11
600.29	1337.61
600.64	1327.70
600.99	1317.23
601.34	1307.57
601.69	1296.44
602.04	1286.87
602.39	1277.06
602.74	1268.04
603.08	1258.70
603.43	1249.43
603.78	1239.64
604.13	1230.04
604.48	1220.61
604.83	1211.40
605.18	1201.92
605.53	1192.57
605.87	1183.43
606.22	1174.68
606.57	1165.58
606.92	1156.30
607.27	1147.60
607.62	1138.94
607.96	1130.44
608.31	1122.58
608.66	1114.14
609.01	1105.50
609.36	1096.87
609.70	1088.52
610.05	1080.01
610.40	1071.80
610.75	1063.41
611.10	1055.30
611.44	1046.52
611.79	1038.17
612.14	1030.08
612.49	1022.16
612.83	1014.80
613.18	1007.25
613.53	999.64
613.88	991.56
614.22	983.90
614.57	976.05
614.92	968.38
615.27	960.85
615.61	953.00
615.96	945.64
616.31	938.40
616.65	931.52
617.00	924.30
617.35	917.12
617.70	910.04
618.04	902.85
618.39	896.01
618.74	890.01
619.08	883.27
619.43	876.61
619.78	869.66
620.12	862.61
620.47	855.54
620.82	848.77
621.16	842.29
621.51	836.15
621.85	829.76
622.20	823.25
622.55	816.86
622.89	810.70
623.24	804.58
623.59	798.14
623.93	791.75
624.28	785.62
624.62	779.90
624.97	774.28
625.32	768.62
625.66	762.73
626.01	756.69
626.35	751.36
626.70	745.74
627.04	740.70
627.39	735.27
627.73	730.19
628.08	725.02
628.43	719.76
628.77	714.24
629.12	709.13
629.46	704.42
629.81	699.75
630.15	694.87
630.50	689.81
630.84	685.25
631.19	680.60
631.53	676.16
631.88	671.14
632.22	666.12
632.57	661.60
632.91	656.97
633.26	652.47
633.60	647.81
633.95	643.20
634.29	638.23
634.64	633.85
634.98	629.07
635.32	624.65
635.67	620.63
636.01	616.65
636.36	612.32
636.70	608.14
637.05	603.74
637.39	599.64
637.73	595.65
638.08	591.59
638.42	587.38
638.77	583.08
639.11	578.84
639.45	574.52
639.80	570.15
640.14	566.00
640.49	562.14
640.83	558.36
641.17	554.82
641.52	551.33
641.86	547.78
642.20	544.69
642.55	541.24
642.89	537.67
643.23	534.06
643.58	530.88
643.92	527.35
644.26	523.95
644.61	520.89
644.95	517.65
645.29	514.41
645.64	511.40
645.98	508.28
646.32	505.43
646.66	502.46
647.01	499.59
647.35	496.99
647.69	493.98
648.04	491.08
648.38	488.22
648.72	485.30
649.06	482.31
649.41	479.25
649.75	476.25
650.09	473.29
650.43	470.49
650.78	467.64
651.12	464.81
651.46	462.13
651.80	459.33
652.14	456.59
652.49	454.01
652.83	451.41
653.17	448.91
653.51	446.14
653.85	443.84
654.20	441.46
654.54	438.79
654.88	436.29
655.22	434.12
655.56	431.62
655.90	429.34
656.25	427.09
656.59	424.85
656.93	422.60
657.27	420.55
657.61	418.13
657.95	415.86
658.29	413.77
658.64	411.69
658.98	409.51
659.32	407.27
659.66	405.03
660.00	402.85
660.34	400.80
660.68	398.89
661.02	396.82
661.36	394.86
661.70	392.93
662.05	391.00
662.39	388.95
662.73	387.15
663.07	385.57
663.41	383.65
663.75	381.76
664.09	379.83
664.43	377.83
664.77	376.22
665.11	374.48
665.45	372.83
665.79	371.29
666.13	369.58
666.47	368.02
666.81	366.50
667.15	364.85
667.49	363.34
667.83	362.04
668.17	360.56
668.51	359.10
668.85	357.66
669.19	356.46
669.53	354.93
669.87	353.47
670.21	351.91
670.55	350.63
670.89	349.45
671.23	348.10
671.57	346.77
671.91	345.43
672.25	344.07
672.58	342.84
672.92	341.30
673.26	340.05
673.60	338.83
673.94	337.63
674.28	336.65
674.62	335.48
674.96	334.11
675.30	332.95
675.64	331.73
675.97	330.54
676.31	329.23
676.65	328.08
676.99	327.09
677.33	325.94
677.67	324.87
678.01	323.57
678.34	322.73
678.68	321.84
679.02	320.78
679.36	319.81
679.70	318.70
680.04	317.80
680.37	316.80
680.71	315.87
681.05	314.92
681.39	314.00
681.73	313.06
682.06	312.13
682.40	311.23
682.74	310.50
683.08	309.89
683.42	309.07
683.75	308.36
684.09	307.40
684.43	306.66
684.77	305.80
685.10	305.07
685.44	304.18
685.78	303.28
686.12	302.58
686.45	301.76
686.79	301.00
687.13	300.34
687.46	299.58
687.80	298.90
688.14	298.15
688.48	297.31
688.81	296.55
689.15	295.97
689.49	295.17
689.82	294.42
690.16	293.46
690.50	292.78
690.83	291.97
691.17	291.27
691.51	290.56
691.84	289.91
692.18	289.18
692.52	288.51
692.85	287.98
693.19	287.50
693.52	286.86
693.86	286.18
694.20	285.41
694.53	284.90
694.87	284.26
695.21	283.60
695.54	283.04
695.88	282.41
696.21	281.70
696.55	281.18
696.88	280.51
697.22	279.98
697.56	279.42
697.89	278.84
698.23	278.45
698.56	277.84
698.90	277.45
699.23	276.91
699.57	276.38
699.90	275.80
700.24	275.09
700.58	274.67
700.91	274.29
701.25	274.24
701.58	274.04
701.92	273.70
702.25	273.34
702.59	272.90
702.92	272.51
703.26	272.06
703.59	271.60
703.93	271.59
704.26	271.17
704.60	270.84
704.93	270.44
705.26	269.84
705.60	269.43
705.93	268.76
706.27	268.54
706.60	268.25
706.94	268.08
707.27	267.80
707.61	267.50
707.94	267.15
708.27	266.46
708.61	265.78
708.94	265.32
709.28	264.95
709.61	264.48
709.94	264.19
710.28	263.78
710.61	263.49
710.95	262.73
711.28	262.73
711.61	262.26
711.95	262.01
712.28	261.70
712.61	261.48
712.95	261.55
713.28	261.36
713.61	260.95
713.95	260.44
714.28	260.02
714.61	259.58
714.95	259.12
715.28	258.72
715.61	258.35
715.95	258.04
716.28	257.59
716.61	257.35
716.95	256.96
717.28	256.70
717.61	256.36
717.94	256.08
718.28	255.41
718.61	255.14
718.94	254.74
719.27	254.46
719.61	254.14
719.94	253.62
720.27	253.13
720.60	252.86
720.94	252.68
721.27	252.50
721.60	252.35
721.93	252.21
722.27	252.17
722.60	252.02
722.93	251.68
723.26	251.57
723.59	251.33
723.93	251.21
724.26	251.08
724.59	250.86
724.92	250.63
725.25	250.55
725.59	250.35
725.92	250.24
726.25	250.00
726.58	249.82
726.91	249.67
727.24	249.59
727.57	249.40
727.91	249.08
728.24	248.91
728.57	248.64
728.90	248.43
729.23	248.02
729.56	248.07
729.89	247.98
730.22	247.75
730.55	247.48
730.89	247.19
731.22	246.99
731.55	246.79
731.88	246.72
732.21	246.39
732.54	246.17
732.87	246.03
733.20	246.00
733.53	245.81
733.86	245.64
734.19	245.45
734.52	245.39
734.85	245.63
735.18	245.34
735.51	245.33
735.84	245.29
736.17	245.22
736.50	244.76
736.83	245.16
737.16	244.96
737.49	244.89
737.82	244.70
738.15	244.60
738.48	244.43
738.81	244.22
739.14	244.08
739.47	243.90
739.80	243.71
740.13	243.45
740.46	243.22
740.79	243.05
741.12	242.83
741.45	242.58
741.78	242.17
742.11	242.21
742.44	242.01
742.77	241.85
743.10	241.70
743.43	241.53
743.75	240.80
744.08	241.28
744.41	241.07
744.74	240.91
745.07	240.65
745.40	240.63
745.73	240.68
746.06	240.55
746.39	240.48
746.71	240.39
747.04	240.28
747.37	240.14
747.70	240.11
748.03	240.07
748.36	239.98
748.68	239.84
749.01	239.62
749.34	239.46
749.67	239.34
750.00	239.27
750.33	239.57
750.65	239.56
750.98	238.89
751.31	238.86
751.64	238.84
751.97	239.05
752.29	238.95
752.62	238.65
752.95	238.53
753.28	238.35
753.60	238.17
753.93	238.16
754.26	238.16
754.59	237.92
754.91	237.75
755.24	237.59
755.57	237.51
755.90	237.35
756.22	237.26
756.55	237.05
756.88	236.88
757.20	236.41
757.53	236.20
757.86	236.08
758.19	235.97
758.51	235.88
758.84	235.50
759.17	235.37
759.49	235.26
759.82	235.40
760.15	235.36
760.47	235.25
760.80	235.11
761.13	235.02
761.45	234.91
761.78	234.82
762.11	234.87
762.43	234.71
762.76	234.68
763.08	234.59
763.41	234.54
763.74	234.50
764.06	234.44
764.39	234.33
764.71	234.28
765.04	234.12
765.37	233.96
765.69	233.96
766.02	233.82
766.34	233.77
766.67	233.57
767.00	233.56
767.32	233.79
767.65	233.98
767.97	233.90
768.30	233.88
768.62	233.68
768.95	233.53
769.27	233.40
769.60	233.30
769.92	233.15
770.25	233.02
770.57	232.90
770.90	232.85
771.22	232.77
771.55	232.67
771.87	232.67
772.20	232.61
772.52	232.93
772.85	233.41
773.17	233.31
773.50	233.13
773.82	233.05
774.15	232.64
774.47	232.26
774.80	232.23
775.12	232.13
775.45	232.18
775.77	232.14
776.09	232.12
776.42	232.10
776.74	232.25
777.07	232.22
777.39	232.11
777.72	232.03
778.04	232.03
778.36	232.01
778.69	231.95
779.01	231.94
779.33	231.41
779.66	230.90
779.98	230.92
780.31	230.98
780.63	231.09
780.95	231.16
781.28	231.12
781.60	230.95
781.92	230.97
782.25	230.92
782.57	230.88
782.89	230.89
783.22	230.88
783.54	230.68
783.86	230.65
784.19	230.68
784.51	230.80
784.83	230.70
785.16	230.61
785.48	230.61
785.80	230.62
786.12	230.66
786.45	230.60
786.77	230.62
787.09	230.56
787.42	230.39
787.74	230.38
788.06	230.35
788.38	230.35
788.71	230.22
789.03	230.25
789.35	230.29
789.67	230.23
789.99	230.22
790.32	230.23
790.64	230.26
790.96	230.61
791.28	230.41
791.61	230.42
791.93	230.47
792.25	230.49
792.57	230.79
792.89	230.70
793.21	230.65
793.54	230.45
793.86	230.36
794.18	230.32
794.50	230.26
794.82	230.33
795.14	230.38
795.47	230.50
795.79	230.45
796.11	230.27
796.43	230.15
796.75	230.10
797.07	230.02
797.39	229.97
797.71	229.60
798.04	229.64
798.36	229.62
798.68	229.62
799.00	229.56
799.32	229.30
799.64	229.28
799.96	229.30
800.28	229.42
800.60	229.40
800.92	229.43
801.24	229.29
801.56	229.27
801.89	229.20
802.21	229.20
802.53	229.13
802.85	229.30
803.17	229.54
803.49	229.42
803.81	229.41
804.13	229.40
804.45	229.40
804.77	229.43
805.09	229.44
805.41	229.30
805.73	229.22
806.05	229.09
806.37	229.10
806.69	229.05
807.01	229.05
807.33	229.10
807.65	228.95
807.97	229.23
808.28	229.16
808.60	229.24
808.92	229.12
809.24	229.41
809.56	229.27
809.88	229.12
810.20	229.16
810.52	229.23
810.84	229.14
811.16	229.03
811.48	229.02
811.80	229.15
812.12	229.17
812.43	229.27
812.75	229.33
813.07	229.29
813.39	229.23
813.71	229.16
814.03	229.07
814.35	229.08
814.67	228.85
814.98	228.74
815.30	228.65
815.62	228.51
815.94	228.18
816.26	228.39
816.58	228.26
816.89	228.32
817.21	228.19
817.53	228.22
817.85	228.20
818.17	228.09
818.48	227.88
818.80	227.89
819.12	227.76
819.44	227.65
819.76	227.56
820.07	227.67
820.39	227.68
820.71	227.69
821.03	227.71
821.34	227.70
821.66	227.79
821.98	227.77
822.30	227.81
822.61	228.10
822.93	227.80
823.25	227.76
823.57	227.68
823.88	227.78
824.20	227.73
824.52	227.83
824.83	227.88
825.15	227.81
825.47	227.85
825.79	227.86
826.10	227.82
826.42	227.84
826.74	227.76
827.05	227.70
827.37	227.76
827.69	227.75
828.00	227.74
828.32	227.72
828.64	227.68
828.95	227.87
829.27	227.68
829.58	227.78
829.90	227.86
830.22	227.88
830.53	227.79
830.85	227.74
831.17	227.60
831.48	227.56
831.80	227.64
832.11	227.58
832.43	227.55
832.75	227.53
833.06	227.78
833.38	227.70
833.69	227.67
834.01	227.64
834.32	227.57
834.64	227.49
834.96	227.51
835.27	227.52
835.59	227.45
835.90	227.39
836.22	227.37
836.53	227.33
836.85	227.22
837.16	227.75
837.48	227.70
837.79	227.81
838.11	227.79
838.42	227.76
838.74	227.78
839.05	227.72
839.37	227.71
839.68	227.42
840.00	227.42
840.31	227.45
840.63	227.39
840.94	227.29
841.26	227.27
841.57	227.23
841.88	227.31
842.20	227.19
842.51	227.12
842.83	227.03
843.14	227.36
843.46	227.40
843.77	227.08
844.08	227.09
844.40	226.96
844.71	226.92
845.03	226.83
845.34	226.80
845.65	226.85
845.97	226.85
846.28	226.85
846.60	226.84
846.91	226.72
847.22	226.69
847.54	226.78
847.85	226.79
848.16	226.79
848.48	226.66
848.79	226.87
849.10	226.92
849.42	226.94
849.73	226.54
850.04	226.51
850.36	226.33
850.67	226.46
850.98	226.47
851.30	226.50
851.61	226.45
851.92	226.44
852.23	226.48
852.55	226.52
852.86	226.56
853.17	226.58
853.49	226.69
853.80	226.79
854.11	226.90
854.42	226.98
854.74	226.89
855.05	226.85
855.36	226.60
855.67	226.54
855.99	226.55
856.30	227.05
856.61	227.07
856.92	227.05
857.23	226.97
857.55	226.93
857.86	226.88
858.17	226.96
858.48	226.82
858.79	226.72
859.11	226.77
859.42	226.69
859.73	226.58
860.04	226.56
860.35	226.49
860.66	226.29
860.98	226.25
861.29	226.26
861.60	226.23
861.91	226.30
862.22	226.25
862.53	226.21
862.84	225.67
863.16	225.80
863.47	225.69
863.78	225.64
864.09	225.70
864.40	225.73
864.71	225.74
865.02	225.85
865.33	225.82
865.64	225.69
865.95	225.79
866.27	226.12
866.58	226.09
866.89	226.13
867.20	226.13
867.51	226.09
867.82	226.04
868.13	226.20
868.44	226.13
868.75	226.22
869.06	226.20
869.37	226.37
869.68	226.19
869.99	226.32
870.30	226.37
870.61	226.36
870.92	226.37
871.23	226.41
871.54	226.52
871.85	226.69
872.16	226.84
872.47	226.73
872.78	226.54
873.09	226.66
873.40	226.62
873.71	226.76
874.02	226.85
874.33	226.93
874.64	226.93
874.95	227.07
875.26	226.95
875.56	226.99
875.87	226.87
876.18	226.88
876.49	227.36
876.80	227.33
877.11	227.30
877.42	227.28
877.73	227.21
878.04	227.10
878.35	227.11
878.66	227.05
878.96	227.09
879.27	227.09
879.58	226.98
879.89	226.92
880.20	227.00
880.51	226.93
880.82	226.87
881.12	226.80
881.43	226.67
881.74	226.70
882.05	226.67
882.36	226.75
882.67	226.81
882.97	226.34
883.28	226.32
883.59	226.28
883.90	226.31
884.21	226.43
884.51	226.37
884.82	226.25
885.13	226.25
885.44	226.17
885.74	226.22
886.05	226.17
886.36	226.21
886.67	226.03
886.98	226.26
887.28	226.32
887.59	226.34
887.90	226.34
888.20	226.30
888.51	226.43
888.82	226.36
889.13	226.41
889.43	226.72
889.74	226.77
890.05	226.78
890.35	226.73
890.66	226.62
890.97	226.64
891.28	226.66
891.58	226.70
891.89	226.73
892.20	226.58
892.50	226.61
892.81	226.56
893.12	226.60
893.42	226.36
893.73	226.45
894.04	226.44
894.34	226.45
894.65	226.42
894.95	226.30
895.26	226.33
895.57	226.49
895.87	226.09
896.18	226.15
896.48	226.15
896.79	226.11
897.10	226.20
897.40	226.20
897.71	226.28
898.01	226.26
898.32	226.31
898.63	226.35
898.93	226.41
899.24	226.39
899.54	226.35
899.85	226.36
900.15	226.29
900.46	226.23
900.76	226.26
901.07	226.30
901.38	226.34
901.68	226.40
901.99	226.19
902.29	226.23
902.60	226.14
902.90	226.14
903.21	226.12
903.51	226.07
903.82	226.19
904.12	226.14
904.43	226.12
904.73	226.17
905.03	226.15
905.34	226.57
905.64	226.59
905.95	226.64
906.25	226.64
906.56	226.62
906.86	226.67
907.17	226.76
907.47	226.82
907.77	226.73
908.08	226.66
908.38	226.71
908.69	226.73
908.99	226.85
909.30	226.84
909.60	226.88
909.90	226.92
910.21	226.83
910.51	226.82
910.81	226.83
911.12	226.77
911.42	226.73
911.73	226.19
912.03	226.24
912.33	226.30
912.64	226.30
912.94	226.23
913.24	226.15
913.55	226.05
913.85	225.95
914.15	226.08
914.46	226.06
914.76	225.96
915.06	225.90
915.37	225.77
915.67	225.76
915.97	225.75
916.27	225.62
916.58	225.58
916.88	225.51
917.18	225.48
917.49	225.81
917.79	225.96
918.09	226.03
918.39	226.10
918.70	226.01
919.00	226.08
919.30	226.33
919.60	226.35
919.91	226.27
920.21	226.30
920.51	226.21
920.81	226.26
921.12	226.32
921.42	226.32
921.72	226.31
922.02	226.35
922.32	226.50
922.63	226.52
922.93	226.75
923.23	226.78
923.53	226.75
923.83	226.47
924.13	226.48
924.44	226.49
924.74	226.57
925.04	226.70
925.34	226.54
925.64	226.37
925.94	226.32
926.24	226.68
926.55	226.71
926.85	226.78
927.15	226.75
927.45	226.82
927.75	226.85
928.05	226.92
928.35	226.90
928.65	226.88
928.95	226.98
929.26	226.78
929.56	226.85
929.86	226.91
930.16	226.87
930.46	226.79
930.76	226.89
931.06	226.68
931.36	226.60
931.66	226.76
931.96	226.80
932.26	226.85
932.56	226.55
932.86	226.50
933.16	226.47
933.46	226.39
933.76	226.26
934.06	226.42
934.36	226.52
934.66	226.53
934.96	226.45
935.26	226.38
935.56	226.49
935.86	226.34
936.16	226.28
936.46	226.29
936.76	226.28
937.06	226.18
937.36	226.19
937.66	226.20
937.96	226.13
938.26	226.02
938.56	226.05
938.86	226.08
939.16	226.24
939.46	226.30
939.76	226.37
940.06	226.31
940.35	226.11
940.65	225.91
940.95	225.92
941.25	225.91
941.55	225.91
941.85	225.85
942.15	225.97
942.45	226.11
942.75	226.07
943.04	226.05
943.34	226.14
943.64	226.04
943.94	225.97
944.24	225.97
944.54	226.03
944.84	225.98
945.13	225.90
945.43	225.80
945.73	225.76
946.03	225.69
946.33	225.73
946.62	225.74
946.92	225.72
947.22	225.71
947.52	225.71
947.82	225.81
948.11	225.76
948.41	225.66
948.71	225.44
949.01	225.51
949.31	225.51
949.60	225.44
949.90	225.62
950.20	225.57
950.50	225.62
950.79	225.55
951.09	225.61
951.39	225.61
951.69	225.52
951.98	225.57
952.28	225.58
952.58	225.61
952.87	225.61
953.17	225.66
953.47	225.65
953.76	225.64
954.06	225.48
954.36	225.46
954.66	225.55
954.95	225.70
955.25	225.70
955.55	225.77
955.84	225.66
956.14	225.68
956.44	225.76
956.73	225.69
957.03	225.72
957.32	225.74
957.62	225.70
957.92	225.81
958.21	225.77
958.51	226.32
958.81	226.34
959.10	226.38
959.40	226.54
959.69	226.54
959.99	226.64
960.29	226.70
960.58	226.57
960.88	226.69
961.17	226.60
961.47	226.65
961.76	226.58
962.06	226.69
962.36	226.64
962.65	226.64
962.95	226.70
963.24	226.64
963.54	226.62
963.83	226.73
964.13	226.65
964.42	226.51
964.72	226.17
965.01	226.23
965.31	226.18
965.60	225.99
965.90	226.28
966.19	226.13
966.49	226.16
966.78	226.27
967.08	226.22
967.37	226.31
967.67	226.20
967.96	226.24
968.26	226.16
968.55	226.14
968.85	226.15
969.14	226.09
969.43	226.19
969.73	226.11
970.02	226.08
970.32	226.07
970.61	226.15
970.91	225.99
971.20	225.90
971.49	225.86
971.79	225.97
972.08	225.62
972.38	225.73
972.67	225.63
972.96	225.65
973.26	225.60
973.55	225.69
973.85	225.70
974.14	225.70
974.43	225.80
974.73	225.75
975.02	225.65
975.31	225.59
975.61	225.53
975.90	225.52
976.19	225.49
976.49	225.57
976.78	225.53
977.07	225.50
977.37	225.47
977.66	225.52
977.95	225.42
978.24	225.49
978.54	225.57
978.83	225.56
979.12	225.55
979.42	225.51
979.71	225.47
980.00	225.44
980.29	225.42
980.59	225.31
980.88	225.45
981.17	225.49
981.46	225.54
981.76	225.54
982.05	225.70
982.34	225.64
982.63	225.58
982.93	225.59
983.22	225.75
983.51	225.81
983.80	225.83
984.09	225.87
984.39	225.84
984.68	225.75
984.97	225.78
985.26	225.77
985.55	225.75
985.85	225.59
986.14	225.62
986.43	225.70
986.72	225.66
987.01	225.51
987.30	225.50
987.59	225.46
987.89	225.51
988.18	225.41
988.47	225.42
988.76	225.48
989.05	225.47
989.34	225.35
989.63	225.45
989.92	225.35
990.22	225.36
990.51	225.29
990.80	225.22
991.09	225.27
991.38	225.30
991.67	225.30
991.96	225.32
992.25	225.42
992.54	225.36
992.83	225.37
993.12	225.34
993.41	225.39
993.70	225.60
993.99	225.63
994.28	225.66
994.58	225.80
994.87	225.73
995.16	225.74
995.45	225.77
995.74	225.62
996.03	225.84
996.32	225.83
996.61	226.05
996.90	226.11
997.19	226.10
997.48	226.09
997.77	226.02
998.06	226.02
998.34	225.91
998.63	225.87
998.92	225.89
999.21	225.96
999.50	225.98
999.79	225.83
1000.08	225.81
1000.37	225.80
1000.66	225.76
1000.95	225.85
1001.24	225.89
1001.53	225.89
1001.82	225.90
1002.11	225.71
1002.40	225.79
1002.68	225.83
1002.97	226.15
1003.26	226.04
1003.55	226.02
1003.84	226.06
1004.13	226.25
1004.42	226.27
1004.71	226.25
1004.99	226.27
1005.28	226.41
1005.57	226.40
1005.86	226.35
1006.15	226.28
1006.44	226.27
1006.72	226.23
1007.01	226.20
1007.30	226.17
1007.59	226.12
1007.88	226.10
1008.17	226.19
1008.45	226.14
1008.74	225.97
1009.03	225.77
1009.32	225.82
1009.60	225.81
1009.89	225.87
1010.18	225.65
1010.47	225.60
1010.76	225.64
1011.04	225.64
1011.33	225.67
1011.62	225.67
1011.91	225.69
1012.19	225.72
1012.48	225.66
1012.77	225.70
1013.05	225.90
1013.34	225.92
1013.63	225.93
1013.92	226.00
1014.20	225.92
1014.49	225.92
1014.78	226.00
1015.06	225.85
1015.35	225.89
1015.64	225.95
1015.92	226.00
1016.21	226.05
1016.50	226.06
1016.78	226.14
1017.07	226.24
1017.36	226.10
1017.64	226.15
1017.93	226.24
1018.22	226.23
1018.50	226.28
1018.79	226.28
1019.08	226.08
1019.36	226.13
1019.65	226.04
1019.93	226.07
1020.22	226.20
1020.51	226.41
1020.79	226.27
1021.08	225.55
1021.36	225.25
1021.65	226.05
1021.94	225.80
1022.22	226.60
1022.51	224.20
1022.79	227.30
1023.08	227.40
1023.36	230.95
1023.65	223.95
>>>>>End Processed Spectral Data<<<<<
