SpectraSuite Data File
++++++++++++++++++++++++++++++++++++
Date: Wed Sep 04 17:52:10 EDT 2013
User: lab3
Dark Spectrum Present: Yes
Reference Spectrum Present: No
Number of Sampled Component Spectra: 1
Spectrometers: USB2E7196
Integration Time (usec): 170000 (USB2E7196)
Spectra Averaged: 20 (USB2E7196)
Boxcar Smoothing: 10 (USB2E7196)
Correct for Electrical Dark: No (USB2E7196)
Strobe/Lamp Enabled: No (USB2E7196)
Correct for Detector Non-linearity: No (USB2E7196)
Correct for Stray Light: No (USB2E7196)
Number of Pixels in Processed Spectrum: 2048
>>>>>Begin Processed Spectral Data<<<<<
339.09	0.00
339.48	213.65
339.86	214.35
340.24	215.50
340.63	216.45
341.01	226.15
341.39	220.00
341.78	221.40
342.16	222.75
342.54	221.85
342.93	212.00
343.31	222.66
343.69	223.11
344.07	223.60
344.46	224.04
344.84	224.53
345.22	224.50
345.60	224.83
345.99	225.01
346.37	225.17
346.75	225.34
347.13	225.45
347.52	225.51
347.90	225.74
348.28	225.90
348.66	226.00
349.05	225.94
349.43	226.02
349.81	226.14
350.19	226.11
350.57	226.15
350.96	226.21
351.34	226.38
351.72	226.45
352.10	226.57
352.48	226.63
352.87	226.57
353.25	226.63
353.63	226.58
354.01	226.67
354.39	226.79
354.77	226.88
355.15	227.06
355.54	227.05
355.92	227.04
356.30	227.05
356.68	227.46
357.06	227.47
357.44	227.36
357.82	227.33
358.20	227.80
358.58	227.83
358.97	227.93
359.35	228.05
359.73	228.27
360.11	228.36
360.49	228.45
360.87	228.57
361.25	228.67
361.63	228.91
362.01	229.03
362.39	228.96
362.77	229.06
363.15	229.04
363.53	229.20
363.91	229.20
364.29	229.25
364.67	228.74
365.05	228.84
365.43	229.03
365.81	229.15
366.19	229.04
366.57	229.25
366.95	229.18
367.33	229.09
367.71	229.11
368.09	229.16
368.47	229.22
368.85	229.23
369.23	229.30
369.61	229.14
369.99	229.28
370.37	229.35
370.75	229.51
371.13	229.49
371.51	229.40
371.89	229.45
372.27	229.47
372.65	229.51
373.03	229.55
373.41	229.49
373.78	229.42
374.16	229.14
374.54	229.00
374.92	228.91
375.30	228.85
375.68	228.70
376.06	228.62
376.44	228.45
376.82	228.39
377.19	228.35
377.57	228.27
377.95	228.02
378.33	227.93
378.71	227.66
379.09	227.66
379.47	227.64
379.84	227.53
380.22	227.36
380.60	227.26
380.98	227.13
381.36	227.13
381.73	227.01
382.11	226.99
382.49	226.91
382.87	226.84
383.25	226.82
383.62	227.35
384.00	227.24
384.38	227.27
384.76	227.35
385.13	227.42
385.51	227.39
385.89	227.28
386.27	227.26
386.64	227.25
387.02	227.16
387.40	227.08
387.78	227.10
388.15	227.17
388.53	227.17
388.91	227.13
389.29	226.96
389.66	227.05
390.04	226.99
390.42	227.10
390.79	227.11
391.17	227.12
391.55	226.54
391.92	226.48
392.30	226.49
392.68	226.37
393.05	226.35
393.43	226.38
393.81	226.41
394.18	226.38
394.56	226.38
394.94	226.43
395.31	226.41
395.69	226.60
396.06	226.66
396.44	226.65
396.82	226.66
397.19	226.98
397.57	226.96
397.95	227.08
398.32	226.90
398.70	227.04
399.07	227.18
399.45	227.20
399.82	227.34
400.20	227.34
400.58	227.44
400.95	227.33
401.33	227.50
401.70	227.91
402.08	228.00
402.45	228.10
402.83	228.37
403.20	228.55
403.58	228.49
403.95	228.70
404.33	229.02
404.71	229.25
405.08	229.64
405.46	229.82
405.83	230.09
406.21	230.37
406.58	230.61
406.96	230.87
407.33	231.26
407.70	231.60
408.08	232.36
408.45	232.77
408.83	233.23
409.20	233.61
409.58	233.77
409.95	234.38
410.33	234.89
410.70	235.24
411.08	235.85
411.45	236.48
411.82	236.99
412.20	237.70
412.57	238.67
412.95	239.08
413.32	240.00
413.69	240.74
414.07	241.69
414.44	242.71
414.82	243.73
415.19	244.99
415.56	246.15
415.94	247.16
416.31	248.56
416.68	250.01
417.06	251.69
417.43	253.37
417.81	255.11
418.18	256.98
418.55	258.90
418.93	260.90
419.30	263.02
419.67	265.33
420.04	267.55
420.42	269.80
420.79	272.84
421.16	275.48
421.54	278.57
421.91	281.59
422.28	284.57
422.66	287.81
423.03	291.10
423.40	294.49
423.77	298.00
424.15	301.59
424.52	305.25
424.89	309.31
425.26	313.25
425.64	316.96
426.01	321.16
426.38	325.50
426.75	330.03
427.13	334.58
427.50	339.30
427.87	344.27
428.24	349.13
428.61	353.57
428.99	358.85
429.36	364.25
429.73	369.65
430.10	375.26
430.47	380.89
430.85	386.50
431.22	392.61
431.59	399.44
431.96	405.70
432.33	412.71
432.70	419.31
433.08	427.04
433.45	434.40
433.82	441.64
434.19	449.74
434.56	457.89
434.93	465.60
435.30	473.51
435.68	481.91
436.05	490.46
436.42	498.82
436.79	506.59
437.16	514.87
437.53	523.55
437.90	532.11
438.27	540.75
438.64	549.71
439.01	557.94
439.38	565.01
439.75	572.21
440.13	580.19
440.50	587.86
440.87	593.81
441.24	600.09
441.61	606.97
441.98	612.19
442.35	617.90
442.72	623.83
443.09	629.41
443.46	633.02
443.83	635.28
444.20	637.20
444.57	639.90
444.94	641.10
445.31	642.16
445.68	643.52
446.05	643.69
446.42	642.34
446.79	640.99
447.16	639.45
447.53	638.10
447.90	634.40
448.27	630.61
448.64	625.97
449.01	622.45
449.37	616.38
449.74	610.37
450.11	603.51
450.48	595.76
450.85	587.81
451.22	580.96
451.59	574.32
451.96	568.18
452.33	560.02
452.70	552.55
453.07	544.06
453.43	535.12
453.80	526.69
454.17	518.70
454.54	511.03
454.91	502.90
455.28	495.02
455.65	487.66
456.02	480.89
456.38	474.58
456.75	466.92
457.12	460.55
457.49	454.23
457.86	447.97
458.23	442.77
458.59	437.04
458.96	431.22
459.33	426.12
459.70	420.94
460.07	416.89
460.43	412.24
460.80	407.93
461.17	404.10
461.54	400.28
461.91	396.55
462.27	392.65
462.64	389.42
463.01	385.80
463.38	382.46
463.74	378.38
464.11	375.40
464.48	372.67
464.85	369.82
465.21	367.69
465.58	365.36
465.95	362.63
466.32	360.53
466.68	358.26
467.05	356.07
467.42	353.85
467.78	351.58
468.15	349.60
468.52	348.08
468.88	345.87
469.25	343.83
469.62	342.36
469.98	340.80
470.35	339.20
470.72	337.70
471.08	336.02
471.45	334.91
471.82	333.63
472.18	332.22
472.55	331.20
472.92	329.85
473.28	328.80
473.65	327.73
474.02	326.58
474.38	325.76
474.75	324.99
475.11	324.16
475.48	323.53
475.85	322.95
476.21	322.25
476.58	321.84
476.94	321.40
477.31	320.90
477.67	320.46
478.04	320.15
478.41	319.98
478.77	320.28
479.14	319.86
479.50	319.66
479.87	319.71
480.23	319.69
480.60	319.71
480.96	319.61
481.33	319.94
481.69	320.14
482.06	320.37
482.42	320.74
482.79	321.14
483.15	321.51
483.52	322.03
483.88	322.60
484.25	323.21
484.61	323.91
484.98	324.45
485.34	325.42
485.71	326.39
486.07	327.38
486.44	327.98
486.80	329.25
487.17	330.38
487.53	331.79
487.90	333.20
488.26	334.88
488.62	336.62
488.99	338.10
489.35	339.87
489.72	341.67
490.08	343.62
490.44	345.60
490.81	347.91
491.17	350.10
491.54	352.61
491.90	355.04
492.26	357.61
492.63	360.46
492.99	363.24
493.36	366.21
493.72	369.46
494.08	372.86
494.45	376.43
494.81	380.38
495.17	384.26
495.54	388.34
495.90	392.47
496.26	396.88
496.63	401.57
496.99	406.34
497.35	411.45
497.72	416.66
498.08	422.22
498.44	427.82
498.80	433.91
499.17	439.81
499.53	446.14
499.89	452.90
500.26	459.76
500.62	466.80
500.98	474.23
501.34	481.62
501.71	489.24
502.07	497.01
502.43	505.11
502.79	513.33
503.16	522.05
503.52	531.06
503.88	540.19
504.24	549.83
504.60	559.70
504.97	569.89
505.33	580.20
505.69	591.16
506.05	602.23
506.41	613.33
506.78	625.05
507.14	637.00
507.50	649.30
507.86	661.85
508.22	674.70
508.59	687.57
508.95	701.26
509.31	715.54
509.67	729.69
510.03	743.99
510.39	758.64
510.75	773.56
511.12	788.60
511.48	804.31
511.84	820.07
512.20	836.12
512.56	852.35
512.92	869.29
513.28	886.12
513.64	903.18
514.00	920.54
514.37	938.10
514.73	956.30
515.09	974.50
515.45	992.81
515.81	1011.03
516.17	1029.94
516.53	1048.78
516.89	1067.37
517.25	1086.79
517.61	1107.10
517.97	1127.46
518.33	1147.67
518.69	1168.00
519.05	1188.44
519.41	1208.99
519.77	1229.96
520.13	1250.63
520.49	1270.98
520.85	1293.16
521.21	1314.13
521.57	1335.36
521.93	1355.99
522.29	1377.07
522.65	1397.59
523.01	1418.46
523.37	1439.38
523.73	1460.24
524.09	1480.58
524.45	1501.12
524.81	1522.00
525.17	1542.54
525.53	1562.83
525.89	1583.53
526.25	1604.32
526.61	1624.59
526.97	1645.39
527.33	1666.42
527.68	1688.14
528.04	1709.57
528.40	1729.09
528.76	1750.17
529.12	1770.60
529.48	1791.51
529.84	1811.29
530.20	1832.31
530.56	1853.33
530.91	1873.97
531.27	1894.29
531.63	1914.80
531.99	1935.59
532.35	1955.47
532.71	1975.06
533.07	1995.77
533.42	2015.44
533.78	2034.84
534.14	2054.54
534.50	2073.66
534.86	2093.02
535.21	2110.39
535.57	2128.47
535.93	2145.76
536.29	2163.27
536.65	2181.54
537.00	2198.92
537.36	2216.51
537.72	2232.85
538.08	2249.41
538.44	2266.08
538.79	2282.14
539.15	2298.76
539.51	2314.32
539.87	2329.40
540.22	2343.51
540.58	2357.54
540.94	2370.59
541.29	2383.51
541.65	2396.11
542.01	2408.33
542.37	2418.65
542.72	2429.46
543.08	2439.94
543.44	2452.00
543.79	2461.95
544.15	2471.45
544.51	2481.34
544.87	2490.84
545.22	2499.52
545.58	2507.40
545.94	2514.53
546.29	2521.10
546.65	2527.05
547.01	2532.57
547.36	2538.09
547.72	2543.59
548.07	2547.28
548.43	2552.41
548.79	2556.80
549.14	2560.50
549.50	2564.16
549.86	2567.83
550.21	2571.60
550.57	2575.01
550.92	2576.27
551.28	2577.53
551.64	2579.66
551.99	2581.23
552.35	2582.85
552.70	2584.64
553.06	2586.15
553.41	2587.30
553.77	2588.61
554.13	2590.05
554.48	2591.41
554.84	2593.05
555.19	2594.03
555.55	2595.93
555.90	2595.57
556.26	2594.75
556.61	2593.10
556.97	2591.12
557.32	2590.47
557.68	2589.41
558.03	2588.04
558.39	2586.14
558.74	2585.26
559.10	2582.00
559.45	2578.75
559.81	2574.19
560.16	2569.37
560.52	2564.18
560.87	2559.59
561.23	2554.75
561.58	2548.53
561.94	2541.58
562.29	2533.57
562.64	2526.61
563.00	2518.16
563.35	2511.51
563.71	2504.81
564.06	2498.73
564.42	2492.12
564.77	2484.89
565.12	2477.33
565.48	2469.57
565.83	2461.93
566.19	2453.84
566.54	2446.31
566.89	2438.32
567.25	2430.52
567.60	2423.08
567.96	2415.65
568.31	2407.78
568.66	2398.94
569.02	2390.27
569.37	2382.11
569.72	2374.98
570.08	2365.71
570.43	2356.51
570.78	2347.23
571.14	2337.85
571.49	2327.71
571.84	2318.22
572.20	2307.54
572.55	2297.39
572.90	2286.22
573.26	2275.93
573.61	2264.72
573.96	2253.50
574.31	2241.42
574.67	2229.59
575.02	2216.81
575.37	2204.12
575.72	2190.82
576.08	2178.56
576.43	2166.08
576.78	2153.14
577.13	2139.23
577.49	2126.58
577.84	2114.43
578.19	2102.59
578.54	2090.21
578.90	2078.50
579.25	2066.25
579.60	2053.96
579.95	2040.90
580.30	2028.18
580.66	2014.83
581.01	2001.34
581.36	1987.23
581.71	1974.72
582.06	1961.93
582.42	1949.66
582.77	1937.19
583.12	1925.40
583.47	1913.02
583.82	1900.89
584.17	1889.04
584.53	1877.40
584.88	1864.42
585.23	1851.29
585.58	1837.10
585.93	1823.95
586.28	1810.48
586.63	1796.53
586.98	1782.28
587.34	1769.38
587.69	1756.06
588.04	1743.55
588.39	1731.91
588.74	1719.87
589.09	1707.72
589.44	1695.02
589.79	1682.91
590.14	1671.27
590.49	1659.27
590.84	1647.62
591.19	1635.73
591.54	1623.29
591.89	1611.17
592.25	1601.32
592.60	1590.00
592.95	1578.69
593.30	1566.81
593.65	1554.95
594.00	1542.99
594.35	1533.32
594.70	1521.60
595.05	1510.32
595.40	1498.14
595.75	1486.15
596.10	1475.01
596.45	1463.69
596.80	1452.88
597.15	1441.64
597.50	1429.70
597.85	1418.45
598.19	1406.77
598.54	1395.21
598.89	1384.20
599.24	1373.53
599.59	1361.64
599.94	1351.03
600.29	1340.74
600.64	1330.60
600.99	1319.96
601.34	1310.45
601.69	1299.31
602.04	1289.49
602.39	1279.83
602.74	1270.93
603.08	1261.71
603.43	1252.50
603.78	1243.19
604.13	1233.87
604.48	1224.13
604.83	1214.60
605.18	1204.89
605.53	1195.52
605.87	1186.57
606.22	1178.03
606.57	1168.99
606.92	1159.96
607.27	1151.05
607.62	1142.31
607.96	1133.73
608.31	1126.04
608.66	1117.87
609.01	1109.47
609.36	1100.88
609.70	1092.56
610.05	1083.97
610.40	1075.46
610.75	1066.95
611.10	1058.40
611.44	1049.86
611.79	1042.00
612.14	1034.12
612.49	1026.20
612.83	1018.91
613.18	1011.10
613.53	1003.44
613.88	995.50
614.22	987.69
614.57	979.90
614.92	972.00
615.27	964.57
615.61	956.68
615.96	949.15
616.31	941.78
616.65	934.75
617.00	927.44
617.35	920.29
617.70	913.43
618.04	906.28
618.39	899.30
618.74	892.84
619.08	885.85
619.43	878.94
619.78	871.97
620.12	864.77
620.47	857.83
620.82	850.57
621.16	843.84
621.51	837.57
621.85	831.32
622.20	824.82
622.55	818.10
622.89	811.75
623.24	805.22
623.59	799.02
623.93	792.83
624.28	786.73
624.62	781.24
624.97	775.28
625.32	769.48
625.66	763.65
626.01	757.60
626.35	752.04
626.70	746.52
627.04	741.31
627.39	735.87
627.73	730.69
628.08	725.76
628.43	720.44
628.77	714.97
629.12	709.72
629.46	704.87
629.81	700.16
630.15	695.53
630.50	690.79
630.84	686.00
631.19	681.10
631.53	676.46
631.88	670.99
632.22	666.03
632.57	661.45
632.91	656.78
633.26	652.54
633.60	648.02
633.95	643.42
634.29	638.72
634.64	634.22
634.98	629.54
635.32	625.15
635.67	621.15
636.01	617.15
636.36	612.90
636.70	608.80
637.05	604.58
637.39	600.32
637.73	596.25
638.08	592.20
638.42	588.10
638.77	583.80
639.11	579.70
639.45	575.48
639.80	571.40
640.14	567.26
640.49	563.16
640.83	559.45
641.17	555.80
641.52	552.11
641.86	548.59
642.20	545.50
642.55	541.83
642.89	538.17
643.23	534.57
643.58	531.42
643.92	527.96
644.26	524.76
644.61	521.65
644.95	518.27
645.29	514.81
645.64	511.83
645.98	508.76
646.32	505.79
646.66	502.83
647.01	499.82
647.35	497.07
647.69	494.21
648.04	491.35
648.38	488.62
648.72	485.75
649.06	482.81
649.41	479.73
649.75	476.89
650.09	474.01
650.43	471.27
650.78	468.37
651.12	465.56
651.46	462.78
651.80	459.90
652.14	457.38
652.49	454.98
652.83	452.28
653.17	449.78
653.51	447.16
653.85	444.79
654.20	442.38
654.54	439.89
654.88	437.35
655.22	435.06
655.56	432.71
655.90	430.38
656.25	428.08
656.59	425.79
656.93	423.59
657.27	421.59
657.61	419.15
657.95	416.83
658.29	414.63
658.64	412.53
658.98	410.47
659.32	408.16
659.66	405.94
660.00	403.96
660.34	401.91
660.68	399.93
661.02	397.88
661.36	395.96
661.70	394.01
662.05	392.05
662.39	389.98
662.73	388.14
663.07	386.46
663.41	384.65
663.75	382.87
664.09	381.00
664.43	379.11
664.77	377.63
665.11	375.96
665.45	374.31
665.79	372.56
666.13	370.82
666.47	369.22
666.81	367.65
667.15	365.90
667.49	364.34
667.83	362.99
668.17	361.55
668.51	359.96
668.85	358.66
669.19	357.50
669.53	356.05
669.87	354.49
670.21	353.04
670.55	351.75
670.89	350.60
671.23	349.26
671.57	347.83
671.91	346.36
672.25	344.97
672.58	343.78
672.92	342.36
673.26	341.15
673.60	339.92
673.94	338.69
674.28	337.62
674.62	336.52
674.96	335.08
675.30	333.84
675.64	332.76
675.97	331.44
676.31	330.01
676.65	328.70
676.99	327.66
677.33	326.46
677.67	325.36
678.01	324.00
678.34	322.95
678.68	321.96
679.02	320.93
679.36	320.01
679.70	318.88
680.04	317.96
680.37	316.98
680.71	315.96
681.05	315.08
681.39	314.04
681.73	313.15
682.06	312.33
682.40	311.50
682.74	310.67
683.08	309.98
683.42	309.13
683.75	308.56
684.09	307.71
684.43	306.90
684.77	306.00
685.10	305.15
685.44	304.42
685.78	303.58
686.12	302.68
686.45	301.83
686.79	301.00
687.13	300.33
687.46	299.58
687.80	299.02
688.14	298.14
688.48	297.44
688.81	296.63
689.15	296.05
689.49	295.25
689.82	294.55
690.16	293.64
690.50	293.03
690.83	292.17
691.17	291.34
691.51	290.71
691.84	290.09
692.18	289.40
692.52	288.73
692.85	288.14
693.19	287.80
693.52	287.29
693.86	286.72
694.20	286.11
694.53	285.50
694.87	284.80
695.21	284.22
695.54	283.63
695.88	282.97
696.21	282.20
696.55	281.63
696.88	280.97
697.22	280.38
697.56	279.84
697.89	279.28
698.23	278.83
698.56	278.25
698.90	277.79
699.23	277.18
699.57	276.70
699.90	276.14
700.24	275.43
700.58	274.87
700.91	274.43
701.25	274.30
701.58	274.24
701.92	273.87
702.25	273.42
702.59	272.91
702.92	272.51
703.26	272.24
703.59	271.70
703.93	271.68
704.26	271.37
704.60	270.96
704.93	270.47
705.26	270.00
705.60	269.60
705.93	269.05
706.27	268.93
706.60	268.53
706.94	268.36
707.27	268.02
707.61	267.66
707.94	267.24
708.27	266.51
708.61	265.61
708.94	265.12
709.28	264.78
709.61	264.37
709.94	264.03
710.28	263.51
710.61	263.21
710.95	262.43
711.28	262.37
711.61	261.91
711.95	261.72
712.28	261.33
712.61	260.94
712.95	260.84
713.28	260.63
713.61	260.29
713.95	259.75
714.28	259.41
714.61	259.02
714.95	258.72
715.28	258.22
715.61	257.93
715.95	257.64
716.28	257.33
716.61	257.13
716.95	256.74
717.28	256.44
717.61	256.21
717.94	255.89
718.28	255.24
718.61	255.03
718.94	254.71
719.27	254.53
719.61	254.30
719.94	254.00
720.27	253.52
720.60	253.19
720.94	252.95
721.27	252.72
721.60	252.58
721.93	252.25
722.27	252.32
722.60	252.24
722.93	251.99
723.26	251.83
723.59	251.58
723.93	251.50
724.26	251.29
724.59	250.99
724.92	250.82
725.25	250.76
725.59	250.55
725.92	250.29
726.25	250.03
726.58	249.86
726.91	249.59
727.24	249.45
727.57	249.34
727.91	249.08
728.24	248.96
728.57	248.70
728.90	248.68
729.23	248.21
729.56	248.21
729.89	248.01
730.22	247.78
730.55	247.53
730.89	247.35
731.22	247.17
731.55	247.05
731.88	246.86
732.21	246.53
732.54	246.22
732.87	246.14
733.20	245.97
733.53	245.85
733.86	245.68
734.19	245.45
734.52	245.25
734.85	245.43
735.18	245.15
735.51	245.15
735.84	244.96
736.17	245.03
736.50	244.52
736.83	244.89
737.16	244.70
737.49	244.60
737.82	244.39
738.15	244.37
738.48	244.26
738.81	244.10
739.14	243.95
739.47	243.84
739.80	243.69
740.13	243.57
740.46	243.36
740.79	243.11
741.12	242.87
741.45	242.67
741.78	242.23
742.11	242.27
742.44	242.00
742.77	241.92
743.10	241.72
743.43	241.65
743.75	241.05
744.08	241.50
744.41	241.40
744.74	241.16
745.07	240.91
745.40	240.78
745.73	240.91
746.06	240.79
746.39	240.72
746.71	240.53
747.04	240.41
747.37	240.18
747.70	240.23
748.03	240.20
748.36	240.21
748.68	240.02
749.01	239.74
749.34	239.61
749.67	239.48
750.00	239.40
750.33	239.63
750.65	239.57
750.98	238.88
751.31	238.73
751.64	238.70
751.97	238.85
752.29	238.66
752.62	238.35
752.95	238.28
753.28	238.09
753.60	237.99
753.93	238.02
754.26	238.01
754.59	237.77
754.91	237.65
755.24	237.47
755.57	237.44
755.90	237.36
756.22	237.20
756.55	237.06
756.88	236.83
757.20	236.44
757.53	236.18
757.86	236.15
758.19	235.99
758.51	235.90
758.84	235.55
759.17	235.51
759.49	235.40
759.82	235.51
760.15	235.52
760.47	235.38
760.80	235.15
761.13	235.15
761.45	235.02
761.78	234.91
762.11	234.88
762.43	234.82
762.76	234.67
763.08	234.70
763.41	234.65
763.74	234.65
764.06	234.58
764.39	234.53
764.71	234.46
765.04	234.42
765.37	234.39
765.69	234.32
766.02	234.19
766.34	234.10
766.67	233.84
767.00	233.78
767.32	233.98
767.65	234.19
767.97	234.09
768.30	234.14
768.62	234.05
768.95	233.93
769.27	233.82
769.60	233.83
769.92	233.72
770.25	233.56
770.57	233.44
770.90	233.33
771.22	233.21
771.55	233.13
771.87	233.07
772.20	233.02
772.52	233.33
772.85	233.91
773.17	233.79
773.50	233.68
773.82	233.57
774.15	233.25
774.47	232.90
774.80	232.72
775.12	232.57
775.45	232.58
775.77	232.52
776.09	232.57
776.42	232.52
776.74	232.58
777.07	232.44
777.39	232.35
777.72	232.24
778.04	232.36
778.36	232.26
778.69	232.26
779.01	232.16
779.33	231.74
779.66	231.18
779.98	231.16
780.31	231.23
780.63	231.41
780.95	231.49
781.28	231.41
781.60	231.41
781.92	231.40
782.25	231.30
782.57	231.31
782.89	231.19
783.22	231.17
783.54	231.00
783.86	231.07
784.19	230.97
784.51	231.09
784.83	230.86
785.16	230.79
785.48	230.66
785.80	230.61
786.12	230.61
786.45	230.51
786.77	230.55
787.09	230.39
787.42	230.17
787.74	230.09
788.06	230.08
788.38	230.05
788.71	229.96
789.03	229.96
789.35	229.94
789.67	229.83
789.99	229.78
790.32	229.74
790.64	229.73
790.96	230.08
791.28	229.91
791.61	229.89
791.93	229.95
792.25	229.97
792.57	230.20
792.89	230.10
793.21	230.06
793.54	229.93
793.86	229.87
794.18	229.84
794.50	229.74
794.82	229.71
795.14	229.68
795.47	229.82
795.79	229.77
796.11	229.66
796.43	229.59
796.75	229.56
797.07	229.57
797.39	229.55
797.71	229.26
798.04	229.25
798.36	229.27
798.68	229.22
799.00	229.22
799.32	229.05
799.64	229.11
799.96	229.11
800.28	229.18
800.60	229.20
800.92	229.28
801.24	229.26
801.56	229.37
801.89	229.40
802.21	229.42
802.53	229.42
802.85	229.54
803.17	229.81
803.49	229.74
803.81	229.68
804.13	229.63
804.45	229.63
804.77	229.65
805.09	229.65
805.41	229.59
805.73	229.53
806.05	229.40
806.37	229.38
806.69	229.36
807.01	229.28
807.33	229.24
807.65	228.97
807.97	229.16
808.28	229.07
808.60	229.01
808.92	228.83
809.24	229.05
809.56	228.97
809.88	228.78
810.20	228.78
810.52	228.85
810.84	228.85
811.16	228.74
811.48	228.69
811.80	228.80
812.12	228.83
812.43	228.92
812.75	228.91
813.07	228.86
813.39	228.80
813.71	228.75
814.03	228.73
814.35	228.82
814.67	228.63
814.98	228.58
815.30	228.47
815.62	228.43
815.94	228.10
816.26	228.24
816.58	228.10
816.89	228.14
817.21	228.04
817.53	227.94
817.85	227.99
818.17	228.01
818.48	227.82
818.80	227.85
819.12	227.75
819.44	227.67
819.76	227.55
820.07	227.57
820.39	227.60
820.71	227.59
821.03	227.56
821.34	227.58
821.66	227.61
821.98	227.65
822.30	227.62
822.61	227.88
822.93	227.70
823.25	227.75
823.57	227.69
823.88	227.75
824.20	227.78
824.52	227.72
824.83	227.65
825.15	227.65
825.47	227.60
825.79	227.62
826.10	227.58
826.42	227.62
826.74	227.63
827.05	227.60
827.37	227.61
827.69	227.57
828.00	227.54
828.32	227.52
828.64	227.46
828.95	227.71
829.27	227.48
829.58	227.43
829.90	227.50
830.22	227.58
830.53	227.42
830.85	227.30
831.17	227.22
831.48	227.22
831.80	227.20
832.11	227.20
832.43	227.16
832.75	227.17
833.06	227.45
833.38	227.26
833.69	227.22
834.01	227.24
834.32	227.20
834.64	227.11
834.96	227.14
835.27	227.16
835.59	226.99
835.90	226.97
836.22	226.95
836.53	226.86
836.85	226.76
837.16	227.32
837.48	227.35
837.79	227.59
838.11	227.61
838.42	227.61
838.74	227.66
839.05	227.61
839.37	227.57
839.68	227.31
840.00	227.41
840.31	227.51
840.63	227.48
840.94	227.48
841.26	227.46
841.57	227.38
841.88	227.46
842.20	227.39
842.51	227.42
842.83	227.39
843.14	227.80
843.46	227.86
843.77	227.57
844.08	227.60
844.40	227.44
844.71	227.42
845.03	227.42
845.34	227.35
845.65	227.29
845.97	227.35
846.28	227.35
846.60	227.35
846.91	227.27
847.22	227.28
847.54	227.37
847.85	227.37
848.16	227.34
848.48	227.22
848.79	227.45
849.10	227.43
849.42	227.50
849.73	227.02
850.04	226.90
850.36	226.75
850.67	226.86
850.98	226.88
851.30	226.90
851.61	226.90
851.92	226.88
852.23	227.10
852.55	227.09
852.86	227.11
853.17	227.18
853.49	227.28
853.80	227.33
854.11	227.40
854.42	227.48
854.74	227.47
855.05	227.49
855.36	227.26
855.67	227.33
855.99	227.30
856.30	227.84
856.61	227.87
856.92	227.83
857.23	227.77
857.55	227.64
857.86	227.61
858.17	227.70
858.48	227.53
858.79	227.42
859.11	227.48
859.42	227.47
859.73	227.34
860.04	227.29
860.35	227.19
860.66	227.00
860.98	226.96
861.29	227.05
861.60	227.02
861.91	227.18
862.22	227.02
862.53	226.99
862.84	226.41
863.16	226.54
863.47	226.46
863.78	226.44
864.09	226.44
864.40	226.48
864.71	226.38
865.02	226.57
865.33	226.47
865.64	226.37
865.95	226.33
866.27	226.60
866.58	226.59
866.89	226.56
867.20	226.52
867.51	226.47
867.82	226.36
868.13	226.43
868.44	226.23
868.75	226.39
869.06	226.37
869.37	226.48
869.68	226.27
869.99	226.40
870.30	226.39
870.61	226.47
870.92	226.37
871.23	226.31
871.54	226.30
871.85	226.43
872.16	226.42
872.47	226.41
872.78	226.23
873.09	226.17
873.40	226.17
873.71	226.21
874.02	226.31
874.33	226.35
874.64	226.24
874.95	226.32
875.26	226.14
875.56	226.13
875.87	226.06
876.18	226.06
876.49	226.48
876.80	226.44
877.11	226.39
877.42	226.50
877.73	226.52
878.04	226.49
878.35	226.47
878.66	226.55
878.96	226.52
879.27	226.45
879.58	226.50
879.89	226.53
880.20	226.66
880.51	226.54
880.82	226.52
881.12	226.60
881.43	226.59
881.74	226.59
882.05	226.57
882.36	226.69
882.67	226.78
882.97	226.30
883.28	226.30
883.59	226.28
883.90	226.30
884.21	226.45
884.51	226.39
884.82	226.36
885.13	226.35
885.44	226.35
885.74	226.39
886.05	226.41
886.36	226.44
886.67	226.33
886.98	226.60
887.28	226.68
887.59	226.69
887.90	226.65
888.20	226.73
888.51	226.88
888.82	226.77
889.13	226.75
889.43	227.11
889.74	227.10
890.05	227.11
890.35	227.07
890.66	227.00
890.97	226.98
891.28	226.95
891.58	226.92
891.89	226.94
892.20	226.88
892.50	226.81
892.81	226.81
893.12	226.78
893.42	226.59
893.73	226.65
894.04	226.65
894.34	226.65
894.65	226.56
894.95	226.46
895.26	226.50
895.57	226.71
895.87	226.24
896.18	226.37
896.48	226.40
896.79	226.35
897.10	226.38
897.40	226.40
897.71	226.44
898.01	226.47
898.32	226.49
898.63	226.40
898.93	226.40
899.24	226.29
899.54	226.34
899.85	226.26
900.15	226.12
900.46	226.11
900.76	226.19
901.07	226.20
901.38	226.20
901.68	226.22
901.99	225.96
902.29	226.06
902.60	225.91
902.90	225.87
903.21	225.89
903.51	225.82
903.82	225.88
904.12	225.83
904.43	225.90
904.73	225.85
905.03	225.93
905.34	226.45
905.64	226.49
905.95	226.40
906.25	226.49
906.56	226.49
906.86	226.47
907.17	226.42
907.47	226.43
907.77	226.38
908.08	226.26
908.38	226.32
908.69	226.31
908.99	226.40
909.30	226.41
909.60	226.40
909.90	226.55
910.21	226.48
910.51	226.39
910.81	226.29
911.12	226.39
911.42	226.46
911.73	225.95
912.03	226.05
912.33	226.22
912.64	226.24
912.94	226.30
913.24	226.31
913.55	226.26
913.85	226.25
914.15	226.41
914.46	226.52
914.76	226.42
915.06	226.46
915.37	226.36
915.67	226.35
915.97	226.36
916.27	226.18
916.58	226.17
916.88	226.24
917.18	226.19
917.49	226.51
917.79	226.46
918.09	226.49
918.39	226.58
918.70	226.47
919.00	226.45
919.30	226.63
919.60	226.59
919.91	226.51
920.21	226.55
920.51	226.44
920.81	226.37
921.12	226.43
921.42	226.41
921.72	226.48
922.02	226.55
922.32	226.53
922.63	226.62
922.93	226.91
923.23	226.97
923.53	226.97
923.83	226.65
924.13	226.67
924.44	226.66
924.74	226.68
925.04	226.84
925.34	226.83
925.64	226.62
925.94	226.60
926.24	226.98
926.55	226.90
926.85	227.00
927.15	227.08
927.45	227.08
927.75	227.10
928.05	227.10
928.35	227.04
928.65	227.18
928.95	227.20
929.26	227.00
929.56	227.09
929.86	227.25
930.16	227.16
930.46	227.16
930.76	227.21
931.06	227.02
931.36	226.83
931.66	226.89
931.96	226.92
932.26	226.95
932.56	226.70
932.86	226.71
933.16	226.61
933.46	226.50
933.76	226.48
934.06	226.57
934.36	226.67
934.66	226.70
934.96	226.65
935.26	226.67
935.56	226.71
935.86	226.48
936.16	226.31
936.46	226.30
936.76	226.28
937.06	226.15
937.36	226.16
937.66	226.28
937.96	226.18
938.26	226.05
938.56	226.01
938.86	226.01
939.16	226.19
939.46	226.22
939.76	226.25
940.06	226.24
940.35	226.09
940.65	225.93
940.95	225.94
941.25	225.80
941.55	225.68
941.85	225.69
942.15	225.81
942.45	225.94
942.75	225.92
943.04	225.86
943.34	226.00
943.64	226.00
943.94	225.87
944.24	225.89
944.54	226.00
944.84	226.00
945.13	225.95
945.43	225.80
945.73	225.75
946.03	225.75
946.33	225.77
946.62	225.75
946.92	225.77
947.22	225.79
947.52	225.88
947.82	225.96
948.11	225.80
948.41	225.67
948.71	225.57
949.01	225.59
949.31	225.61
949.60	225.54
949.90	225.54
950.20	225.51
950.50	225.51
950.79	225.40
951.09	225.47
951.39	225.48
951.69	225.45
951.98	225.60
952.28	225.56
952.58	225.45
952.87	225.47
953.17	225.45
953.47	225.43
953.76	225.35
954.06	225.26
954.36	225.26
954.66	225.26
954.95	225.38
955.25	225.46
955.55	225.48
955.84	225.39
956.14	225.36
956.44	225.45
956.73	225.35
957.03	225.42
957.32	225.37
957.62	225.31
957.92	225.43
958.21	225.43
958.51	226.00
958.81	226.19
959.10	226.26
959.40	226.45
959.69	226.52
959.99	226.64
960.29	226.69
960.58	226.67
960.88	226.92
961.17	226.90
961.47	226.94
961.76	226.99
962.06	227.12
962.36	227.12
962.65	227.14
962.95	227.20
963.24	227.19
963.54	227.28
963.83	227.40
964.13	227.40
964.42	227.28
964.72	226.91
965.01	226.88
965.31	226.83
965.60	226.69
965.90	226.93
966.19	226.82
966.49	226.81
966.78	226.79
967.08	226.78
967.37	226.82
967.67	226.72
967.96	226.80
968.26	226.80
968.55	226.92
968.85	226.86
969.14	226.83
969.43	226.81
969.73	226.76
970.02	226.76
970.32	226.72
970.61	226.69
970.91	226.57
971.20	226.46
971.49	226.45
971.79	226.53
972.08	226.21
972.38	226.26
972.67	226.22
972.96	226.31
973.26	226.14
973.55	226.19
973.85	226.20
974.14	226.21
974.43	226.29
974.73	226.20
975.02	226.18
975.31	226.25
975.61	226.27
975.90	226.24
976.19	226.20
976.49	226.23
976.78	226.27
977.07	226.32
977.37	226.41
977.66	226.45
977.95	226.32
978.24	226.33
978.54	226.43
978.83	226.44
979.12	226.43
979.42	226.52
979.71	226.45
980.00	226.40
980.29	226.33
980.59	226.22
980.88	226.35
981.17	226.35
981.46	226.32
981.76	226.35
982.05	226.47
982.34	226.47
982.63	226.48
982.93	226.48
983.22	226.48
983.51	226.47
983.80	226.52
984.09	226.68
984.39	226.60
984.68	226.47
984.97	226.51
985.26	226.50
985.55	226.42
985.85	226.27
986.14	226.35
986.43	226.41
986.72	226.33
987.01	226.17
987.30	226.13
987.59	226.09
987.89	226.05
988.18	225.91
988.47	225.82
988.76	225.77
989.05	225.71
989.34	225.65
989.63	225.73
989.92	225.69
990.22	225.58
990.51	225.61
990.80	225.61
991.09	225.64
991.38	225.71
991.67	225.68
991.96	225.72
992.25	225.72
992.54	225.61
992.83	225.58
993.12	225.59
993.41	225.69
993.70	225.94
993.99	226.02
994.28	226.11
994.58	226.23
994.87	226.18
995.16	226.21
995.45	226.18
995.74	226.09
996.03	226.07
996.32	226.14
996.61	226.20
996.90	226.15
997.19	226.12
997.48	226.11
997.77	226.17
998.06	226.17
998.34	226.13
998.63	226.11
998.92	226.19
999.21	226.23
999.50	226.17
999.79	225.98
1000.08	225.95
1000.37	225.93
1000.66	225.85
1000.95	225.97
1001.24	225.98
1001.53	226.01
1001.82	225.95
1002.11	225.92
1002.40	225.93
1002.68	226.04
1002.97	226.45
1003.26	226.40
1003.55	226.34
1003.84	226.31
1004.13	226.47
1004.42	226.40
1004.71	226.45
1004.99	226.46
1005.28	226.56
1005.57	226.60
1005.86	226.47
1006.15	226.46
1006.44	226.32
1006.72	226.42
1007.01	226.36
1007.30	226.35
1007.59	226.30
1007.88	226.26
1008.17	226.35
1008.45	226.29
1008.74	226.15
1009.03	225.94
1009.32	225.93
1009.60	225.96
1009.89	225.95
1010.18	225.70
1010.47	225.72
1010.76	225.70
1011.04	225.66
1011.33	225.70
1011.62	225.71
1011.91	225.84
1012.19	225.87
1012.48	225.97
1012.77	225.92
1013.05	226.11
1013.34	226.22
1013.63	226.20
1013.92	226.30
1014.20	226.19
1014.49	226.21
1014.78	226.24
1015.06	226.01
1015.35	225.98
1015.64	226.03
1015.92	226.08
1016.21	226.21
1016.50	226.24
1016.78	226.32
1017.07	226.37
1017.36	226.32
1017.64	226.26
1017.93	226.28
1018.22	226.25
1018.50	226.20
1018.79	226.17
1019.08	225.95
1019.36	225.91
1019.65	225.92
1019.93	226.00
1020.22	226.14
1020.51	226.33
1020.79	226.26
1021.08	225.90
1021.36	224.80
1021.65	225.55
1021.94	225.60
1022.22	226.35
1022.51	225.20
1022.79	227.80
1023.08	227.65
1023.36	231.25
1023.65	224.95
>>>>>End Processed Spectral Data<<<<<
