SpectraSuite Data File
++++++++++++++++++++++++++++++++++++
Date: Wed Sep 04 18:01:34 EDT 2013
User: lab3
Dark Spectrum Present: Yes
Reference Spectrum Present: No
Number of Sampled Component Spectra: 1
Spectrometers: USB2E7196
Integration Time (usec): 170000 (USB2E7196)
Spectra Averaged: 20 (USB2E7196)
Boxcar Smoothing: 10 (USB2E7196)
Correct for Electrical Dark: No (USB2E7196)
Strobe/Lamp Enabled: No (USB2E7196)
Correct for Detector Non-linearity: No (USB2E7196)
Correct for Stray Light: No (USB2E7196)
Number of Pixels in Processed Spectrum: 2048
>>>>>Begin Processed Spectral Data<<<<<
339.09	0.00
339.48	212.95
339.86	215.10
340.24	215.65
340.63	217.25
341.01	227.15
341.39	219.30
341.78	223.25
342.16	224.80
342.54	223.05
342.93	212.50
343.31	223.22
343.69	223.76
344.07	224.28
344.46	224.75
344.84	225.16
345.22	225.05
345.60	225.45
345.99	225.65
346.37	225.72
346.75	225.85
347.13	225.96
347.52	226.06
347.90	226.20
348.28	226.28
348.66	226.43
349.05	226.31
349.43	226.39
349.81	226.35
350.19	226.42
350.57	226.53
350.96	226.68
351.34	226.73
351.72	226.80
352.10	226.83
352.48	226.88
352.87	226.92
353.25	227.02
353.63	227.08
354.01	227.10
354.39	227.22
354.77	227.30
355.15	227.48
355.54	227.49
355.92	227.41
356.30	227.43
356.68	227.81
357.06	227.95
357.44	228.00
357.82	228.17
358.20	228.60
358.58	228.64
358.97	228.65
359.35	228.88
359.73	229.03
360.11	229.04
360.49	229.13
360.87	229.18
361.25	229.27
361.63	229.40
362.01	229.49
362.39	229.45
362.77	229.52
363.15	229.56
363.53	229.61
363.91	229.67
364.29	229.73
364.67	229.30
365.05	229.36
365.43	229.39
365.81	229.50
366.19	229.32
366.57	229.58
366.95	229.62
367.33	229.51
367.71	229.53
368.09	229.68
368.47	229.67
368.85	229.64
369.23	229.78
369.61	229.69
369.99	229.81
370.37	229.93
370.75	230.14
371.13	230.01
371.51	229.93
371.89	230.02
372.27	229.95
372.65	229.96
373.03	229.90
373.41	229.79
373.78	229.60
374.16	229.35
374.54	229.14
374.92	229.01
375.30	228.99
375.68	228.93
376.06	228.90
376.44	228.83
376.82	228.90
377.19	228.73
377.57	228.59
377.95	228.32
378.33	228.14
378.71	227.84
379.09	227.83
379.47	227.83
379.84	227.65
380.22	227.59
380.60	227.45
380.98	227.35
381.36	227.36
381.73	227.27
382.11	227.35
382.49	227.28
382.87	227.20
383.25	227.04
383.62	227.50
384.00	227.29
384.38	227.24
384.76	227.25
385.13	227.40
385.51	227.35
385.89	227.30
386.27	227.31
386.64	227.31
387.02	227.20
387.40	227.17
387.78	227.17
388.15	227.14
388.53	227.05
388.91	227.05
389.29	226.93
389.66	227.01
390.04	226.88
390.42	226.90
390.79	226.94
391.17	227.00
391.55	226.47
391.92	226.48
392.30	226.52
392.68	226.38
393.05	226.36
393.43	226.31
393.81	226.33
394.18	226.23
394.56	226.30
394.94	226.41
395.31	226.32
395.69	226.46
396.06	226.56
396.44	226.65
396.82	226.60
397.19	226.93
397.57	226.92
397.95	227.09
398.32	227.03
398.70	227.15
399.07	227.31
399.45	227.35
399.82	227.48
400.20	227.52
400.58	227.63
400.95	227.50
401.33	227.78
401.70	228.23
402.08	228.35
402.45	228.49
402.83	228.75
403.20	228.95
403.58	229.12
403.95	229.37
404.33	229.70
404.71	229.94
405.08	230.43
405.46	230.63
405.83	230.89
406.21	231.15
406.58	231.42
406.96	231.69
407.33	232.03
407.70	232.42
408.08	233.15
408.45	233.62
408.83	234.09
409.20	234.44
409.58	234.57
409.95	235.20
410.33	235.64
410.70	236.01
411.08	236.61
411.45	237.23
411.82	237.74
412.20	238.44
412.57	239.48
412.95	239.80
413.32	240.68
413.69	241.47
414.07	242.44
414.44	243.45
414.82	244.45
415.19	245.67
415.56	246.79
415.94	247.84
416.31	249.24
416.68	250.66
417.06	252.30
417.43	254.02
417.81	255.78
418.18	257.64
418.55	259.62
418.93	261.74
419.30	263.83
419.67	266.18
420.04	268.41
420.42	270.67
420.79	273.77
421.16	276.65
421.54	279.65
421.91	282.59
422.28	285.68
422.66	288.99
423.03	292.51
423.40	295.92
423.77	299.42
424.15	303.10
424.52	306.94
424.89	311.20
425.26	315.11
425.64	318.92
426.01	323.14
426.38	327.53
426.75	332.06
427.13	336.60
427.50	341.27
427.87	346.32
428.24	351.26
428.61	355.80
428.99	361.08
429.36	366.70
429.73	372.21
430.10	377.75
430.47	383.44
430.85	389.02
431.22	395.28
431.59	402.19
431.96	408.44
432.33	415.46
432.70	422.04
433.08	430.00
433.45	437.43
433.82	444.84
434.19	453.11
434.56	461.19
434.93	468.97
435.30	476.73
435.68	485.44
436.05	493.94
436.42	502.20
436.79	509.94
437.16	518.31
437.53	527.30
437.90	536.06
438.27	544.70
438.64	553.62
439.01	561.97
439.38	569.32
439.75	576.51
440.13	584.51
440.50	592.11
440.87	598.14
441.24	604.52
441.61	611.52
441.98	616.55
442.35	622.45
442.72	628.44
443.09	634.43
443.46	637.81
443.83	640.13
444.20	642.20
444.57	644.83
444.94	645.86
445.31	646.93
445.68	648.27
446.05	648.48
446.42	647.37
446.79	645.94
447.16	644.18
447.53	642.82
447.90	639.21
448.27	635.62
448.64	630.80
449.01	627.25
449.37	621.04
449.74	615.04
450.11	608.07
450.48	600.27
450.85	592.08
451.22	585.07
451.59	578.41
451.96	572.01
452.33	563.96
452.70	556.56
453.07	547.86
453.43	538.80
453.80	530.23
454.17	521.97
454.54	514.04
454.91	505.70
455.28	497.63
455.65	490.06
456.02	483.05
456.38	476.55
456.75	468.64
457.12	462.13
457.49	455.83
457.86	449.48
458.23	444.25
458.59	438.60
458.96	432.82
459.33	427.65
459.70	422.62
460.07	418.47
460.43	413.76
460.80	409.42
461.17	405.50
461.54	401.47
461.91	397.69
462.27	393.91
462.64	390.71
463.01	387.23
463.38	383.86
463.74	379.87
464.11	376.89
464.48	374.22
464.85	371.25
465.21	369.09
465.58	366.85
465.95	364.02
466.32	361.80
466.68	359.54
467.05	357.39
467.42	355.16
467.78	352.82
468.15	350.70
468.52	349.13
468.88	346.94
469.25	345.05
469.62	343.61
469.98	341.95
470.35	340.37
470.72	338.96
471.08	337.29
471.45	336.04
471.82	334.88
472.18	333.45
472.55	332.43
472.92	331.11
473.28	329.81
473.65	328.70
474.02	327.62
474.38	326.71
474.75	325.94
475.11	325.08
475.48	324.50
475.85	323.80
476.21	323.05
476.58	322.65
476.94	322.32
477.31	321.78
477.67	321.42
478.04	321.13
478.41	320.82
478.77	321.04
479.14	320.74
479.50	320.51
479.87	320.53
480.23	320.55
480.60	320.42
480.96	320.53
481.33	320.94
481.69	321.12
482.06	321.41
482.42	321.55
482.79	321.85
483.15	322.19
483.52	322.84
483.88	323.32
484.25	323.89
484.61	324.50
484.98	325.18
485.34	326.10
485.71	326.95
486.07	327.99
486.44	328.60
486.80	329.67
487.17	330.80
487.53	332.18
487.90	333.60
488.26	335.21
488.62	336.85
488.99	338.33
489.35	340.12
489.72	342.00
490.08	344.05
490.44	346.05
490.81	348.28
491.17	350.50
491.54	352.99
491.90	355.43
492.26	358.03
492.63	360.90
492.99	363.72
493.36	366.91
493.72	370.25
494.08	373.74
494.45	377.45
494.81	381.43
495.17	385.21
495.54	389.40
495.90	393.59
496.26	398.09
496.63	402.80
496.99	407.54
497.35	412.51
497.72	417.72
498.08	423.15
498.44	428.84
498.80	434.89
499.17	440.95
499.53	447.29
499.89	454.12
500.26	460.92
500.62	468.07
500.98	475.53
501.34	482.93
501.71	490.76
502.07	498.55
502.43	506.65
502.79	515.03
503.16	523.83
503.52	533.01
503.88	542.28
504.24	552.03
504.60	562.04
504.97	572.49
505.33	583.09
505.69	594.36
506.05	605.49
506.41	616.79
506.78	628.57
507.14	640.71
507.50	652.93
507.86	665.70
508.22	678.54
508.59	691.38
508.95	705.11
509.31	719.10
509.67	733.53
510.03	747.89
510.39	762.73
510.75	777.58
511.12	792.88
511.48	808.53
511.84	824.26
512.20	840.31
512.56	856.47
512.92	873.23
513.28	890.03
513.64	907.38
514.00	924.83
514.37	942.54
514.73	960.85
515.09	979.26
515.45	997.58
515.81	1016.04
516.17	1035.15
516.53	1053.61
516.89	1072.37
517.25	1091.69
517.61	1111.90
517.97	1132.04
518.33	1152.15
518.69	1172.37
519.05	1192.91
519.41	1213.56
519.77	1234.87
520.13	1255.70
520.49	1276.49
520.85	1298.73
521.21	1319.80
521.57	1341.36
521.93	1362.02
522.29	1383.06
522.65	1403.74
523.01	1424.84
523.37	1445.75
523.73	1466.94
524.09	1487.85
524.45	1508.74
524.81	1529.85
525.17	1550.53
525.53	1571.38
525.89	1592.51
526.25	1613.80
526.61	1634.26
526.97	1655.35
527.33	1676.64
527.68	1698.66
528.04	1720.01
528.40	1739.87
528.76	1760.94
529.12	1781.24
529.48	1802.48
529.84	1823.03
530.20	1843.96
530.56	1864.58
530.91	1885.87
531.27	1906.42
531.63	1927.11
531.99	1947.68
532.35	1967.66
532.71	1987.84
533.07	2008.62
533.42	2028.44
533.78	2048.20
534.14	2068.22
534.50	2087.63
534.86	2106.65
535.21	2124.30
535.57	2143.11
535.93	2160.70
536.29	2178.74
536.65	2197.34
537.00	2215.08
537.36	2232.47
537.72	2249.42
538.08	2266.91
538.44	2283.50
538.79	2299.83
539.15	2316.63
539.51	2332.71
539.87	2348.30
540.22	2362.82
540.58	2377.07
540.94	2390.50
541.29	2403.29
541.65	2416.13
542.01	2428.68
542.37	2439.50
542.72	2450.71
543.08	2461.28
543.44	2473.08
543.79	2483.08
544.15	2492.71
544.51	2502.81
544.87	2512.67
545.22	2521.63
545.58	2529.43
545.94	2536.80
546.29	2543.53
546.65	2549.74
547.01	2555.42
547.36	2561.05
547.72	2566.63
548.07	2570.77
548.43	2576.59
548.79	2581.24
549.14	2585.24
549.50	2589.28
549.86	2593.50
550.21	2597.30
550.57	2600.75
550.92	2602.62
551.28	2604.33
551.64	2606.82
551.99	2608.65
552.35	2610.32
552.70	2612.16
553.06	2613.67
553.41	2614.81
553.77	2616.58
554.13	2618.63
554.48	2620.30
554.84	2621.96
555.19	2623.23
555.55	2624.66
555.90	2623.75
556.26	2623.13
556.61	2622.29
556.97	2620.16
557.32	2619.44
557.68	2618.26
558.03	2616.73
558.39	2615.44
558.74	2614.72
559.10	2611.90
559.45	2608.35
559.81	2603.84
560.16	2599.00
560.52	2594.53
560.87	2590.22
561.23	2585.00
561.58	2578.67
561.94	2571.71
562.29	2564.32
562.64	2557.24
563.00	2549.16
563.35	2543.12
563.71	2536.39
564.06	2529.62
564.42	2523.15
564.77	2516.33
565.12	2508.81
565.48	2501.20
565.83	2493.29
566.19	2484.88
566.54	2476.77
566.89	2468.63
567.25	2461.20
567.60	2453.85
567.96	2446.17
568.31	2437.90
568.66	2429.20
569.02	2420.30
569.37	2412.44
569.72	2404.57
570.08	2395.20
570.43	2385.75
570.78	2376.33
571.14	2366.79
571.49	2356.77
571.84	2346.96
572.20	2335.76
572.55	2325.74
572.90	2314.64
573.26	2304.19
573.61	2293.05
573.96	2281.74
574.31	2270.25
574.67	2257.96
575.02	2245.39
575.37	2232.66
575.72	2219.81
576.08	2207.57
576.43	2195.15
576.78	2181.79
577.13	2168.19
577.49	2155.31
577.84	2143.53
578.19	2131.00
578.54	2118.66
578.90	2106.50
579.25	2094.22
579.60	2081.88
579.95	2068.71
580.30	2055.55
580.66	2041.98
581.01	2028.54
581.36	2014.53
581.71	2001.61
582.06	1988.76
582.42	1976.12
582.77	1963.54
583.12	1951.18
583.47	1938.51
583.82	1926.31
584.17	1914.43
584.53	1902.41
584.88	1889.92
585.23	1876.91
585.58	1862.39
585.93	1849.16
586.28	1835.78
586.63	1821.26
586.98	1806.89
587.34	1793.53
587.69	1780.36
588.04	1767.84
588.39	1755.60
588.74	1743.40
589.09	1731.03
589.44	1718.33
589.79	1706.05
590.14	1693.78
590.49	1681.66
590.84	1669.55
591.19	1657.22
591.54	1644.80
591.89	1632.42
592.25	1621.90
592.60	1610.11
592.95	1599.05
593.30	1586.80
593.65	1574.86
594.00	1563.10
594.35	1553.05
594.70	1541.22
595.05	1529.76
595.40	1517.72
595.75	1505.84
596.10	1494.44
596.45	1482.94
596.80	1471.83
597.15	1460.42
597.50	1448.52
597.85	1437.05
598.19	1425.44
598.54	1413.97
598.89	1402.64
599.24	1392.18
599.59	1380.23
599.94	1369.31
600.29	1358.72
600.64	1348.38
600.99	1337.43
601.34	1328.38
601.69	1317.33
602.04	1307.39
602.39	1297.74
602.74	1288.42
603.08	1278.99
603.43	1269.80
603.78	1260.14
604.13	1250.42
604.48	1240.48
604.83	1231.03
605.18	1221.11
605.53	1211.72
605.87	1202.22
606.22	1193.85
606.57	1184.26
606.92	1174.86
607.27	1166.05
607.62	1157.23
607.96	1148.68
608.31	1140.68
608.66	1131.81
609.01	1123.34
609.36	1114.80
609.70	1106.29
610.05	1097.27
610.40	1088.68
610.75	1079.73
611.10	1071.23
611.44	1062.76
611.79	1054.65
612.14	1046.63
612.49	1038.85
612.83	1031.40
613.18	1023.88
613.53	1015.79
613.88	1007.82
614.22	1000.27
614.57	992.20
614.92	984.45
615.27	976.70
615.61	969.13
615.96	961.25
616.31	953.77
616.65	946.65
617.00	938.98
617.35	931.87
617.70	924.63
618.04	917.69
618.39	910.74
618.74	904.31
619.08	897.30
619.43	890.17
619.78	883.05
620.12	875.68
620.47	868.69
620.82	861.47
621.16	854.68
621.51	848.15
621.85	841.91
622.20	835.24
622.55	828.47
622.89	821.76
623.24	815.42
623.59	808.94
623.93	802.70
624.28	796.57
624.62	790.77
624.97	784.87
625.32	778.89
625.66	772.75
626.01	766.53
626.35	761.07
626.70	755.35
627.04	750.07
627.39	744.46
627.73	739.08
628.08	733.92
628.43	728.45
628.77	722.93
629.12	717.50
629.46	712.41
629.81	707.60
630.15	702.70
630.50	697.77
630.84	692.78
631.19	687.80
631.53	683.08
631.88	677.98
632.22	672.91
632.57	668.44
632.91	663.83
633.26	659.34
633.60	654.62
633.95	650.04
634.29	645.21
634.64	640.82
634.98	635.90
635.32	631.50
635.67	627.40
636.01	623.25
636.36	618.80
636.70	614.87
637.05	610.74
637.39	606.68
637.73	602.51
638.08	598.51
638.42	594.16
638.77	589.95
639.11	585.39
639.45	581.24
639.80	576.76
640.14	572.64
640.49	568.40
640.83	564.50
641.17	560.76
641.52	557.11
641.86	553.38
642.20	550.25
642.55	546.45
642.89	542.88
643.23	539.25
643.58	536.09
643.92	532.40
644.26	528.99
644.61	525.59
644.95	522.31
645.29	518.80
645.64	515.72
645.98	512.61
646.32	509.79
646.66	506.66
647.01	503.80
647.35	500.98
647.69	498.20
648.04	495.34
648.38	492.59
648.72	489.55
649.06	486.52
649.41	483.34
649.75	480.44
650.09	477.52
650.43	474.63
650.78	471.72
651.12	468.91
651.46	466.07
651.80	463.38
652.14	460.76
652.49	458.31
652.83	455.60
653.17	452.96
653.51	450.30
653.85	447.93
654.20	445.39
654.54	442.86
654.88	440.27
655.22	437.95
655.56	435.42
655.90	433.02
656.25	430.87
656.59	428.65
656.93	426.39
657.27	424.33
657.61	421.92
657.95	419.72
658.29	417.56
658.64	415.47
658.98	413.15
659.32	410.75
659.66	408.57
660.00	406.54
660.34	404.54
660.68	402.42
661.02	400.34
661.36	398.29
661.70	396.22
662.05	394.20
662.39	392.23
662.73	390.50
663.07	388.94
663.41	387.04
663.75	385.07
664.09	383.25
664.43	381.21
664.77	379.55
665.11	377.70
665.45	375.98
665.79	374.22
666.13	372.49
666.47	370.84
666.81	369.06
667.15	367.27
667.49	365.73
667.83	364.34
668.17	362.76
668.51	361.29
668.85	359.83
669.19	358.77
669.53	357.23
669.87	355.70
670.21	354.08
670.55	352.64
670.89	351.50
671.23	350.09
671.57	348.70
671.91	347.36
672.25	346.03
672.58	344.83
672.92	343.48
673.26	342.23
673.60	341.03
673.94	339.92
674.28	338.76
674.62	337.55
674.96	336.18
675.30	335.09
675.64	333.93
675.97	332.75
676.31	331.34
676.65	330.07
676.99	329.01
677.33	327.82
677.67	326.73
678.01	325.37
678.34	324.29
678.68	323.39
679.02	322.31
679.36	321.29
679.70	320.11
680.04	319.17
680.37	318.23
680.71	317.29
681.05	316.35
681.39	315.57
681.73	314.60
682.06	313.71
682.40	312.69
682.74	311.83
683.08	311.09
683.42	310.22
683.75	309.45
684.09	308.45
684.43	307.74
684.77	306.86
685.10	306.20
685.44	305.45
685.78	304.56
686.12	303.74
686.45	303.01
686.79	302.25
687.13	301.56
687.46	300.79
687.80	300.07
688.14	299.18
688.48	298.43
688.81	297.64
689.15	297.10
689.49	296.42
689.82	295.67
690.16	294.80
690.50	294.18
690.83	293.49
691.17	292.75
691.51	292.06
691.84	291.46
692.18	290.69
692.52	289.95
692.85	289.38
693.19	289.03
693.52	288.36
693.86	287.72
694.20	287.08
694.53	286.45
694.87	285.78
695.21	285.19
695.54	284.68
695.88	284.06
696.21	283.25
696.55	282.59
696.88	281.97
697.22	281.34
697.56	280.80
697.89	280.20
698.23	279.78
698.56	279.18
698.90	278.70
699.23	278.22
699.57	277.69
699.90	277.05
700.24	276.33
700.58	275.87
700.91	275.45
701.25	275.30
701.58	275.21
701.92	274.80
702.25	274.40
702.59	273.80
702.92	273.43
703.26	273.07
703.59	272.69
703.93	272.66
704.26	272.34
704.60	271.85
704.93	271.40
705.26	270.90
705.60	270.56
705.93	270.01
706.27	269.72
706.60	269.50
706.94	269.34
707.27	268.95
707.61	268.53
707.94	268.11
708.27	267.39
708.61	266.57
708.94	266.22
709.28	265.86
709.61	265.39
709.94	265.08
710.28	264.70
710.61	264.34
710.95	263.54
711.28	263.46
711.61	263.10
711.95	262.85
712.28	262.49
712.61	262.15
712.95	262.03
713.28	261.85
713.61	261.42
713.95	260.86
714.28	260.49
714.61	260.09
714.95	259.73
715.28	259.30
715.61	259.06
715.95	258.63
716.28	258.34
716.61	258.21
716.95	257.73
717.28	257.38
717.61	257.09
717.94	256.88
718.28	256.19
718.61	255.86
718.94	255.47
719.27	255.13
719.61	254.88
719.94	254.51
720.27	254.12
720.60	253.83
720.94	253.68
721.27	253.47
721.60	253.41
721.93	253.24
722.27	253.20
722.60	253.06
722.93	252.85
723.26	252.59
723.59	252.23
723.93	252.18
724.26	252.02
724.59	251.81
724.92	251.57
725.25	251.52
725.59	251.32
725.92	251.18
726.25	251.09
726.58	250.84
726.91	250.60
727.24	250.31
727.57	250.14
727.91	249.86
728.24	249.71
728.57	249.36
728.90	249.18
729.23	248.81
729.56	248.89
729.89	248.72
730.22	248.48
730.55	248.31
730.89	248.08
731.22	247.83
731.55	247.61
731.88	247.45
732.21	247.21
732.54	246.94
732.87	246.79
733.20	246.60
733.53	246.42
733.86	246.35
734.19	246.15
734.52	246.03
734.85	246.23
735.18	245.93
735.51	245.88
735.84	245.71
736.17	245.74
736.50	245.24
736.83	245.60
737.16	245.44
737.49	245.38
737.82	245.14
738.15	245.03
738.48	244.96
738.81	244.84
739.14	244.67
739.47	244.50
739.80	244.32
740.13	244.22
740.46	244.02
740.79	243.81
741.12	243.62
741.45	243.35
741.78	242.92
742.11	243.00
742.44	242.82
742.77	242.73
743.10	242.43
743.43	242.32
743.75	241.77
744.08	242.27
744.41	242.00
744.74	241.94
745.07	241.75
745.40	241.62
745.73	241.65
746.06	241.55
746.39	241.60
746.71	241.40
747.04	241.24
747.37	241.13
747.70	241.03
748.03	240.92
748.36	240.88
748.68	240.74
749.01	240.51
749.34	240.37
749.67	240.28
750.00	240.29
750.33	240.51
750.65	240.39
750.98	239.63
751.31	239.65
751.64	239.52
751.97	239.63
752.29	239.51
752.62	239.15
752.95	239.02
753.28	238.78
753.60	238.71
753.93	238.63
754.26	238.65
754.59	238.35
754.91	238.19
755.24	238.08
755.57	237.98
755.90	237.88
756.22	237.77
756.55	237.54
756.88	237.31
757.20	236.89
757.53	236.70
757.86	236.66
758.19	236.55
758.51	236.51
758.84	236.25
759.17	236.15
759.49	236.13
759.82	236.23
760.15	236.25
760.47	236.16
760.80	236.05
761.13	235.95
761.45	235.96
761.78	236.00
762.11	235.96
762.43	235.85
762.76	235.73
763.08	235.69
763.41	235.68
763.74	235.69
764.06	235.55
764.39	235.52
764.71	235.40
765.04	235.30
765.37	235.14
765.69	235.04
766.02	234.86
766.34	234.72
766.67	234.50
767.00	234.52
767.32	234.71
767.65	234.94
767.97	234.87
768.30	234.84
768.62	234.69
768.95	234.55
769.27	234.43
769.60	234.44
769.92	234.31
770.25	234.13
770.57	233.89
770.90	233.89
771.22	233.75
771.55	233.65
771.87	233.59
772.20	233.57
772.52	233.94
772.85	234.50
773.17	234.50
773.50	234.37
773.82	234.23
774.15	233.94
774.47	233.53
774.80	233.35
775.12	233.28
775.45	233.21
775.77	233.21
776.09	233.26
776.42	233.20
776.74	233.30
777.07	233.29
777.39	233.30
777.72	233.18
778.04	233.23
778.36	233.21
778.69	233.19
779.01	233.13
779.33	232.62
779.66	232.01
779.98	231.99
780.31	232.02
780.63	232.11
780.95	232.12
781.28	232.06
781.60	232.06
781.92	231.99
782.25	231.98
782.57	231.97
782.89	231.85
783.22	231.73
783.54	231.60
783.86	231.53
784.19	231.36
784.51	231.47
784.83	231.30
785.16	231.20
785.48	231.11
785.80	231.09
786.12	231.08
786.45	231.10
786.77	231.03
787.09	230.90
787.42	230.73
787.74	230.67
788.06	230.65
788.38	230.58
788.71	230.51
789.03	230.47
789.35	230.49
789.67	230.46
789.99	230.45
790.32	230.36
790.64	230.38
790.96	230.85
791.28	230.60
791.61	230.61
791.93	230.68
792.25	230.65
792.57	230.99
792.89	230.91
793.21	230.87
793.54	230.84
793.86	230.79
794.18	230.80
794.50	230.77
794.82	230.78
795.14	230.88
795.47	230.96
795.79	231.00
796.11	230.82
796.43	230.77
796.75	230.83
797.07	230.79
797.39	230.90
797.71	230.54
798.04	230.61
798.36	230.53
798.68	230.48
799.00	230.52
799.32	230.28
799.64	230.35
799.96	230.32
800.28	230.36
800.60	230.38
800.92	230.39
801.24	230.38
801.56	230.42
801.89	230.25
802.21	230.26
802.53	230.13
802.85	230.20
803.17	230.45
803.49	230.36
803.81	230.40
804.13	230.21
804.45	230.13
804.77	230.20
805.09	230.24
805.41	230.15
805.73	230.03
806.05	229.81
806.37	229.82
806.69	229.79
807.01	229.76
807.33	229.79
807.65	229.55
807.97	229.75
808.28	229.64
808.60	229.71
808.92	229.61
809.24	229.92
809.56	229.84
809.88	229.63
810.20	229.60
810.52	229.63
810.84	229.62
811.16	229.61
811.48	229.53
811.80	229.62
812.12	229.61
812.43	229.69
812.75	229.66
813.07	229.50
813.39	229.50
813.71	229.37
814.03	229.29
814.35	229.27
814.67	228.94
814.98	228.86
815.30	228.76
815.62	228.66
815.94	228.27
816.26	228.46
816.58	228.27
816.89	228.27
817.21	228.11
817.53	228.05
817.85	227.96
818.17	227.85
818.48	227.68
818.80	227.75
819.12	227.68
819.44	227.59
819.76	227.56
820.07	227.50
820.39	227.48
820.71	227.48
821.03	227.55
821.34	227.56
821.66	227.69
821.98	227.71
822.30	227.72
822.61	228.09
822.93	227.82
823.25	227.88
823.57	227.85
823.88	227.98
824.20	227.95
824.52	228.08
824.83	228.13
825.15	228.09
825.47	228.13
825.79	228.17
826.10	228.18
826.42	228.14
826.74	228.12
827.05	228.04
827.37	228.02
827.69	227.90
828.00	227.95
828.32	227.82
828.64	227.75
828.95	227.99
829.27	227.80
829.58	227.84
829.90	227.88
830.22	227.90
830.53	227.75
830.85	227.78
831.17	227.63
831.48	227.63
831.80	227.59
832.11	227.52
832.43	227.44
832.75	227.45
833.06	227.78
833.38	227.71
833.69	227.79
834.01	227.87
834.32	227.93
834.64	227.93
834.96	227.98
835.27	227.96
835.59	227.75
835.90	227.68
836.22	227.65
836.53	227.53
836.85	227.54
837.16	228.02
837.48	228.00
837.79	228.16
838.11	228.16
838.42	228.24
838.74	228.25
839.05	228.20
839.37	228.28
839.68	227.97
840.00	227.99
840.31	228.00
840.63	227.92
840.94	227.92
841.26	227.85
841.57	227.88
841.88	227.92
842.20	227.88
842.51	227.82
842.83	227.80
843.14	228.30
843.46	228.31
843.77	228.09
844.08	228.14
844.40	228.00
844.71	227.89
845.03	227.86
845.34	227.84
845.65	227.85
845.97	227.83
846.28	227.92
846.60	227.97
846.91	227.90
847.22	227.89
847.54	227.94
847.85	227.96
848.16	227.91
848.48	227.89
848.79	228.16
849.10	228.23
849.42	228.33
849.73	227.84
850.04	227.76
850.36	227.55
850.67	227.51
850.98	227.53
851.30	227.71
851.61	227.69
851.92	227.70
852.23	227.82
852.55	227.80
852.86	227.79
853.17	227.81
853.49	228.00
853.80	228.12
854.11	228.20
854.42	228.21
854.74	228.16
855.05	228.17
855.36	227.87
855.67	227.83
855.99	227.76
856.30	228.32
856.61	228.30
856.92	228.31
857.23	228.35
857.55	228.30
857.86	228.21
858.17	228.23
858.48	228.13
858.79	228.01
859.11	228.05
859.42	228.00
859.73	227.89
860.04	227.81
860.35	227.62
860.66	227.44
860.98	227.41
861.29	227.44
861.60	227.36
861.91	227.47
862.22	227.40
862.53	227.36
862.84	226.81
863.16	226.87
863.47	226.77
863.78	226.73
864.09	226.80
864.40	226.88
864.71	226.88
865.02	226.89
865.33	226.88
865.64	226.76
865.95	226.74
866.27	227.04
866.58	226.96
866.89	227.05
867.20	226.99
867.51	226.93
867.82	226.93
868.13	227.10
868.44	227.04
868.75	227.17
869.06	227.12
869.37	227.17
869.68	227.05
869.99	227.20
870.30	227.24
870.61	227.24
870.92	227.05
871.23	226.98
871.54	227.13
871.85	227.25
872.16	227.29
872.47	227.26
872.78	227.00
873.09	227.05
873.40	226.96
873.71	227.05
874.02	227.07
874.33	227.05
874.64	226.95
874.95	227.00
875.26	226.94
875.56	227.02
875.87	226.98
876.18	227.06
876.49	227.46
876.80	227.37
877.11	227.31
877.42	227.38
877.73	227.43
878.04	227.29
878.35	227.23
878.66	227.22
878.96	227.20
879.27	227.20
879.58	227.26
879.89	227.27
880.20	227.44
880.51	227.45
880.82	227.44
881.12	227.49
881.43	227.34
881.74	227.22
882.05	227.18
882.36	227.21
882.67	227.24
882.97	226.80
883.28	226.84
883.59	226.86
883.90	226.96
884.21	227.06
884.51	227.02
884.82	226.98
885.13	227.03
885.44	227.04
885.74	227.01
886.05	226.92
886.36	226.94
886.67	226.70
886.98	226.92
887.28	226.98
887.59	226.94
887.90	226.97
888.20	227.00
888.51	227.07
888.82	227.02
889.13	226.97
889.43	227.33
889.74	227.33
890.05	227.28
890.35	227.18
890.66	227.08
890.97	227.08
891.28	227.06
891.58	227.07
891.89	227.16
892.20	227.15
892.50	227.07
892.81	227.04
893.12	227.11
893.42	226.93
893.73	226.94
894.04	226.97
894.34	227.00
894.65	227.04
894.95	226.96
895.26	226.99
895.57	227.17
895.87	226.69
896.18	226.74
896.48	226.74
896.79	226.73
897.10	226.73
897.40	226.78
897.71	226.81
898.01	226.83
898.32	226.86
898.63	226.90
898.93	226.94
899.24	226.98
899.54	226.89
899.85	226.85
900.15	226.84
900.46	226.82
900.76	226.93
901.07	226.88
901.38	226.95
901.68	227.06
901.99	226.85
902.29	226.90
902.60	226.88
902.90	226.89
903.21	226.80
903.51	226.81
903.82	226.92
904.12	226.90
904.43	226.92
904.73	226.89
905.03	226.84
905.34	227.33
905.64	227.25
905.95	227.30
906.25	227.30
906.56	227.25
906.86	227.22
907.17	227.20
907.47	227.27
907.77	227.19
908.08	227.05
908.38	227.16
908.69	227.17
908.99	227.24
909.30	227.20
909.60	227.28
909.90	227.32
910.21	227.21
910.51	227.10
910.81	227.04
911.12	227.05
911.42	227.07
911.73	226.53
912.03	226.65
912.33	226.77
912.64	226.75
912.94	226.74
913.24	226.74
913.55	226.62
913.85	226.56
914.15	226.62
914.46	226.68
914.76	226.63
915.06	226.58
915.37	226.46
915.67	226.55
915.97	226.61
916.27	226.48
916.58	226.41
916.88	226.47
917.18	226.43
917.49	226.73
917.79	226.70
918.09	226.89
918.39	226.94
918.70	226.90
919.00	226.94
919.30	227.12
919.60	227.10
919.91	227.05
920.21	227.10
920.51	226.99
920.81	226.94
921.12	226.96
921.42	226.99
921.72	227.06
922.02	227.03
922.32	227.07
922.63	227.12
922.93	227.46
923.23	227.50
923.53	227.48
923.83	227.14
924.13	227.24
924.44	227.19
924.74	227.20
925.04	227.25
925.34	227.27
925.64	227.05
925.94	227.05
926.24	227.33
926.55	227.33
926.85	227.49
927.15	227.50
927.45	227.52
927.75	227.56
928.05	227.55
928.35	227.50
928.65	227.63
928.95	227.61
929.26	227.38
929.56	227.41
929.86	227.49
930.16	227.49
930.46	227.33
930.76	227.35
931.06	227.17
931.36	227.09
931.66	227.10
931.96	227.20
932.26	227.24
932.56	227.04
932.86	227.02
933.16	226.93
933.46	226.94
933.76	226.85
934.06	226.97
934.36	227.07
934.66	227.14
934.96	227.00
935.26	227.07
935.56	227.08
935.86	226.91
936.16	226.82
936.46	226.77
936.76	226.83
937.06	226.70
937.36	226.74
937.66	226.79
937.96	226.72
938.26	226.63
938.56	226.59
938.86	226.64
939.16	226.77
939.46	226.82
939.76	226.85
940.06	226.84
940.35	226.66
940.65	226.45
940.95	226.46
941.25	226.34
941.55	226.26
941.85	226.25
942.15	226.43
942.45	226.59
942.75	226.62
943.04	226.73
943.34	226.85
943.64	226.77
943.94	226.65
944.24	226.72
944.54	226.72
944.84	226.67
945.13	226.57
945.43	226.44
945.73	226.44
946.03	226.31
946.33	226.32
946.62	226.33
946.92	226.35
947.22	226.35
947.52	226.36
947.82	226.42
948.11	226.38
948.41	226.28
948.71	226.17
949.01	226.19
949.31	226.09
949.60	226.01
949.90	226.17
950.20	226.14
950.50	226.08
950.79	226.12
951.09	226.20
951.39	226.25
951.69	226.28
951.98	226.34
952.28	226.38
952.58	226.35
952.87	226.44
953.17	226.51
953.47	226.44
953.76	226.49
954.06	226.45
954.36	226.41
954.66	226.40
954.95	226.48
955.25	226.50
955.55	226.49
955.84	226.42
956.14	226.40
956.44	226.50
956.73	226.48
957.03	226.46
957.32	226.43
957.62	226.41
957.92	226.51
958.21	226.43
958.51	227.00
958.81	227.12
959.10	227.07
959.40	227.15
959.69	227.18
959.99	227.27
960.29	227.30
960.58	227.30
960.88	227.47
961.17	227.46
961.47	227.49
961.76	227.49
962.06	227.68
962.36	227.57
962.65	227.58
962.95	227.60
963.24	227.54
963.54	227.53
963.83	227.55
964.13	227.47
964.42	227.43
964.72	226.95
965.01	226.90
965.31	226.88
965.60	226.72
965.90	227.04
966.19	226.98
966.49	227.02
966.78	227.03
967.08	227.02
967.37	226.97
967.67	226.94
967.96	227.05
968.26	227.04
968.55	227.14
968.85	227.13
969.14	227.14
969.43	227.17
969.73	227.15
970.02	227.16
970.32	227.16
970.61	227.03
970.91	226.93
971.20	226.81
971.49	226.79
971.79	226.86
972.08	226.51
972.38	226.50
972.67	226.48
972.96	226.57
973.26	226.37
973.55	226.61
973.85	226.54
974.14	226.44
974.43	226.32
974.73	226.22
975.02	226.17
975.31	226.19
975.61	226.13
975.90	226.07
976.19	225.97
976.49	226.00
976.78	226.08
977.07	226.09
977.37	226.15
977.66	226.24
977.95	226.17
978.24	226.22
978.54	226.28
978.83	226.18
979.12	226.04
979.42	226.09
979.71	225.91
980.00	225.91
980.29	225.99
980.59	225.94
980.88	226.08
981.17	226.08
981.46	225.97
981.76	226.02
982.05	226.17
982.34	226.21
982.63	226.18
982.93	226.16
983.22	226.29
983.51	226.32
983.80	226.35
984.09	226.45
984.39	226.38
984.68	226.28
984.97	226.23
985.26	226.25
985.55	226.29
985.85	226.18
986.14	226.25
986.43	226.27
986.72	226.26
987.01	226.14
987.30	226.13
987.59	226.14
987.89	226.11
988.18	225.98
988.47	225.95
988.76	225.86
989.05	225.84
989.34	225.79
989.63	225.91
989.92	225.77
990.22	225.69
990.51	225.65
990.80	225.64
991.09	225.77
991.38	225.88
991.67	225.79
991.96	225.80
992.25	225.80
992.54	225.66
992.83	225.69
993.12	225.67
993.41	225.70
993.70	225.86
993.99	225.95
994.28	226.00
994.58	226.10
994.87	226.05
995.16	226.10
995.45	226.06
995.74	225.86
996.03	226.05
996.32	226.19
996.61	226.39
996.90	226.41
997.19	226.41
997.48	226.43
997.77	226.51
998.06	226.48
998.34	226.45
998.63	226.48
998.92	226.53
999.21	226.70
999.50	226.73
999.79	226.68
1000.08	226.69
1000.37	226.69
1000.66	226.58
1000.95	226.78
1001.24	226.76
1001.53	226.78
1001.82	226.82
1002.11	226.60
1002.40	226.57
1002.68	226.63
1002.97	226.91
1003.26	226.82
1003.55	226.70
1003.84	226.69
1004.13	226.89
1004.42	226.88
1004.71	226.96
1004.99	226.90
1005.28	226.94
1005.57	226.89
1005.86	226.82
1006.15	226.78
1006.44	226.76
1006.72	226.86
1007.01	226.80
1007.30	226.80
1007.59	226.81
1007.88	226.80
1008.17	226.89
1008.45	226.83
1008.74	226.62
1009.03	226.52
1009.32	226.53
1009.60	226.55
1009.89	226.50
1010.18	226.30
1010.47	226.25
1010.76	226.21
1011.04	226.25
1011.33	226.18
1011.62	226.24
1011.91	226.30
1012.19	226.35
1012.48	226.34
1012.77	226.32
1013.05	226.52
1013.34	226.54
1013.63	226.50
1013.92	226.56
1014.20	226.52
1014.49	226.49
1014.78	226.58
1015.06	226.33
1015.35	226.40
1015.64	226.46
1015.92	226.52
1016.21	226.56
1016.50	226.56
1016.78	226.55
1017.07	226.52
1017.36	226.52
1017.64	226.45
1017.93	226.47
1018.22	226.37
1018.50	226.36
1018.79	226.36
1019.08	226.12
1019.36	226.17
1019.65	226.12
1019.93	226.22
1020.22	226.31
1020.51	226.51
1020.79	226.45
1021.08	225.55
1021.36	225.10
1021.65	226.50
1021.94	225.95
1022.22	226.75
1022.51	224.90
1022.79	228.70
1023.08	227.25
1023.36	230.65
1023.65	225.65
>>>>>End Processed Spectral Data<<<<<
