SpectraSuite Data File
++++++++++++++++++++++++++++++++++++
Date: Wed Sep 04 17:48:10 EDT 2013
User: lab3
Dark Spectrum Present: Yes
Reference Spectrum Present: No
Number of Sampled Component Spectra: 1
Spectrometers: USB2E7196
Integration Time (usec): 170000 (USB2E7196)
Spectra Averaged: 20 (USB2E7196)
Boxcar Smoothing: 10 (USB2E7196)
Correct for Electrical Dark: No (USB2E7196)
Strobe/Lamp Enabled: No (USB2E7196)
Correct for Detector Non-linearity: No (USB2E7196)
Correct for Stray Light: No (USB2E7196)
Number of Pixels in Processed Spectrum: 2048
>>>>>Begin Processed Spectral Data<<<<<
339.09	0.00
339.48	212.05
339.86	213.05
340.24	215.50
340.63	217.30
341.01	225.75
341.39	219.70
341.78	222.75
342.16	222.90
342.54	222.80
342.93	212.10
343.31	222.78
343.69	223.35
344.07	223.87
344.46	224.49
344.84	224.90
345.22	224.90
345.60	225.22
345.99	225.38
346.37	225.45
346.75	225.60
347.13	225.67
347.52	225.76
347.90	225.89
348.28	225.93
348.66	225.96
349.05	225.85
349.43	225.94
349.81	225.99
350.19	226.06
350.57	226.20
350.96	226.23
351.34	226.34
351.72	226.36
352.10	226.49
352.48	226.40
352.87	226.50
353.25	226.50
353.63	226.53
354.01	226.55
354.39	226.68
354.77	226.72
355.15	226.89
355.54	226.87
355.92	226.80
356.30	226.77
356.68	227.17
357.06	227.26
357.44	227.17
357.82	227.28
358.20	227.74
358.58	227.75
358.97	227.83
359.35	227.93
359.73	228.15
360.11	228.19
360.49	228.23
360.87	228.25
361.25	228.41
361.63	228.59
362.01	228.61
362.39	228.56
362.77	228.63
363.15	228.65
363.53	228.74
363.91	228.86
364.29	228.93
364.67	228.57
365.05	228.57
365.43	228.70
365.81	228.77
366.19	228.64
366.57	228.88
366.95	228.88
367.33	228.85
367.71	228.83
368.09	228.91
368.47	228.95
368.85	228.93
369.23	229.03
369.61	228.89
369.99	229.09
370.37	229.25
370.75	229.43
371.13	229.35
371.51	229.23
371.89	229.26
372.27	229.34
372.65	229.38
373.03	229.45
373.41	229.37
373.78	229.26
374.16	229.01
374.54	228.74
374.92	228.70
375.30	228.66
375.68	228.50
376.06	228.44
376.44	228.37
376.82	228.31
377.19	228.16
377.57	228.02
377.95	227.82
378.33	227.73
378.71	227.44
379.09	227.41
379.47	227.41
379.84	227.30
380.22	227.19
380.60	227.01
380.98	226.89
381.36	226.83
381.73	226.68
382.11	226.65
382.49	226.64
382.87	226.50
383.25	226.40
383.62	226.92
384.00	226.82
384.38	226.66
384.76	226.76
385.13	226.83
385.51	226.83
385.89	226.73
386.27	226.70
386.64	226.70
387.02	226.60
387.40	226.57
387.78	226.54
388.15	226.48
388.53	226.43
388.91	226.37
389.29	226.32
389.66	226.43
390.04	226.37
390.42	226.47
390.79	226.42
391.17	226.47
391.55	225.94
391.92	225.98
392.30	226.13
392.68	225.99
393.05	225.97
393.43	226.00
393.81	226.02
394.18	225.92
394.56	225.83
394.94	226.02
395.31	225.93
395.69	226.11
396.06	226.15
396.44	226.27
396.82	226.27
397.19	226.57
397.57	226.53
397.95	226.71
398.32	226.59
398.70	226.75
399.07	226.84
399.45	226.90
399.82	226.91
400.20	226.97
400.58	227.05
400.95	226.96
401.33	227.20
401.70	227.66
402.08	227.82
402.45	228.06
402.83	228.19
403.20	228.45
403.58	228.50
403.95	228.81
404.33	229.04
404.71	229.30
405.08	229.76
405.46	229.91
405.83	230.16
406.21	230.39
406.58	230.65
406.96	230.98
407.33	231.31
407.70	231.69
408.08	232.35
408.45	232.79
408.83	233.33
409.20	233.67
409.58	233.78
409.95	234.33
410.33	234.90
410.70	235.31
411.08	235.90
411.45	236.48
411.82	237.00
412.20	237.75
412.57	238.70
412.95	238.99
413.32	239.89
413.69	240.65
414.07	241.57
414.44	242.68
414.82	243.66
415.19	244.92
415.56	246.08
415.94	247.09
416.31	248.41
416.68	249.80
417.06	251.45
417.43	253.18
417.81	254.96
418.18	256.80
418.55	258.73
418.93	260.74
419.30	262.83
419.67	265.03
420.04	267.24
420.42	269.47
420.79	272.50
421.16	275.34
421.54	278.34
421.91	281.30
422.28	284.24
422.66	287.42
423.03	290.82
423.40	294.20
423.77	297.70
424.15	301.32
424.52	305.10
424.89	309.16
425.26	312.95
425.64	316.66
426.01	320.70
426.38	325.04
426.75	329.51
427.13	334.03
427.50	338.60
427.87	343.31
428.24	348.17
428.61	352.56
428.99	357.70
429.36	363.12
429.73	368.60
430.10	373.93
430.47	379.48
430.85	385.01
431.22	391.14
431.59	397.87
431.96	404.05
432.33	410.75
432.70	417.32
433.08	425.17
433.45	432.33
433.82	439.66
434.19	447.69
434.56	455.67
434.93	463.40
435.30	471.20
435.68	479.81
436.05	488.05
436.42	496.45
436.79	504.14
437.16	512.45
437.53	521.08
437.90	529.73
438.27	538.26
438.64	547.03
439.01	555.13
439.38	562.16
439.75	569.14
440.13	577.14
440.50	584.65
440.87	590.61
441.24	597.07
441.61	603.85
441.98	608.89
442.35	614.67
442.72	620.52
443.09	626.28
443.46	629.71
443.83	632.11
444.20	633.98
444.57	636.60
444.94	637.60
445.31	638.77
445.68	640.08
446.05	640.39
446.42	639.07
446.79	637.66
447.16	636.06
447.53	634.80
447.90	631.24
448.27	627.72
448.64	623.11
449.01	619.47
449.37	613.49
449.74	607.58
450.11	600.75
450.48	593.12
450.85	585.07
451.22	578.22
451.59	571.68
451.96	565.50
452.33	557.37
452.70	550.14
453.07	541.61
453.43	532.70
453.80	524.28
454.17	516.44
454.54	508.81
454.91	500.75
455.28	492.99
455.65	485.62
456.02	478.64
456.38	472.13
456.75	464.58
457.12	458.07
457.49	451.83
457.86	445.49
458.23	440.40
458.59	434.89
458.96	429.23
459.33	424.23
459.70	419.15
460.07	415.27
460.43	410.63
460.80	406.33
461.17	402.71
461.54	398.89
461.91	395.11
462.27	391.32
462.64	388.11
463.01	384.56
463.38	381.24
463.74	377.35
464.11	374.44
464.48	371.77
464.85	368.97
465.21	366.93
465.58	364.65
465.95	361.76
466.32	359.60
466.68	357.40
467.05	355.20
467.42	353.00
467.78	350.66
468.15	348.57
468.52	347.03
468.88	344.79
469.25	342.84
469.62	341.43
469.98	339.86
470.35	338.36
470.72	336.95
471.08	335.23
471.45	333.98
471.82	332.75
472.18	331.28
472.55	330.26
472.92	328.80
473.28	327.84
473.65	326.77
474.02	325.67
474.38	324.82
474.75	324.06
475.11	323.20
475.48	322.55
475.85	321.86
476.21	321.09
476.58	320.56
476.94	320.12
477.31	319.55
477.67	319.16
478.04	318.90
478.41	318.60
478.77	318.92
479.14	318.68
479.50	318.56
479.87	318.62
480.23	318.67
480.60	318.80
480.96	318.72
481.33	319.15
481.69	319.42
482.06	319.63
482.42	319.86
482.79	320.16
483.15	320.56
483.52	321.17
483.88	321.71
484.25	322.34
484.61	322.95
484.98	323.62
485.34	324.56
485.71	325.44
486.07	326.44
486.44	327.05
486.80	328.07
487.17	329.13
487.53	330.38
487.90	331.80
488.26	333.37
488.62	335.09
488.99	336.53
489.35	338.23
489.72	340.10
490.08	342.07
490.44	344.13
490.81	346.40
491.17	348.54
491.54	351.01
491.90	353.47
492.26	356.18
492.63	359.04
492.99	361.80
493.36	364.90
493.72	368.27
494.08	371.59
494.45	375.21
494.81	379.13
495.17	382.99
495.54	387.05
495.90	391.20
496.26	395.66
496.63	400.35
496.99	405.16
497.35	410.12
497.72	415.47
498.08	421.03
498.44	426.66
498.80	432.83
499.17	438.85
499.53	445.21
499.89	451.77
500.26	458.46
500.62	465.33
500.98	472.62
501.34	479.97
501.71	487.77
502.07	495.66
502.43	503.69
502.79	512.04
503.16	520.71
503.52	529.73
503.88	538.86
504.24	548.45
504.60	558.39
504.97	568.63
505.33	578.89
505.69	589.83
506.05	600.63
506.41	611.84
506.78	623.52
507.14	635.50
507.50	647.82
507.86	660.33
508.22	673.33
508.59	686.25
508.95	699.75
509.31	713.84
509.67	728.06
510.03	742.32
510.39	756.98
510.75	771.83
511.12	786.90
511.48	802.49
511.84	818.05
512.20	833.69
512.56	849.71
512.92	866.32
513.28	882.93
513.64	900.09
514.00	917.17
514.37	934.76
514.73	952.60
515.09	970.73
515.45	988.93
515.81	1007.14
516.17	1025.78
516.53	1044.30
516.89	1062.82
517.25	1082.08
517.61	1101.88
517.97	1121.98
518.33	1141.82
518.69	1162.07
519.05	1182.17
519.41	1202.70
519.77	1223.61
520.13	1244.30
520.49	1264.81
520.85	1287.05
521.21	1307.87
521.57	1329.06
521.93	1349.36
522.29	1370.45
522.65	1390.77
523.01	1411.49
523.37	1431.97
523.73	1452.70
524.09	1473.02
524.45	1493.59
524.81	1514.12
525.17	1534.50
525.53	1554.76
525.89	1575.42
526.25	1595.96
526.61	1615.90
526.97	1636.96
527.33	1658.07
527.68	1679.55
528.04	1700.60
528.40	1719.75
528.76	1740.66
529.12	1760.89
529.48	1781.55
529.84	1801.54
530.20	1822.26
530.56	1842.48
530.91	1863.07
531.27	1883.05
531.63	1903.30
531.99	1923.18
532.35	1942.81
532.71	1962.85
533.07	1983.28
533.42	2002.67
533.78	2022.10
534.14	2041.98
534.50	2060.51
534.86	2079.21
535.21	2096.64
535.57	2114.60
535.93	2132.05
536.29	2149.69
536.65	2167.43
537.00	2184.82
537.36	2201.84
537.72	2217.96
538.08	2234.90
538.44	2251.32
538.79	2267.56
539.15	2283.97
539.51	2299.82
539.87	2314.76
540.22	2328.25
540.58	2342.22
540.94	2355.40
541.29	2367.47
541.65	2379.63
542.01	2391.42
542.37	2401.68
542.72	2412.21
543.08	2422.50
543.44	2433.85
543.79	2443.43
544.15	2452.65
544.51	2462.28
544.87	2471.34
545.22	2479.79
545.58	2487.50
545.94	2494.28
546.29	2500.54
546.65	2506.30
547.01	2511.63
547.36	2516.80
547.72	2522.38
548.07	2525.82
548.43	2530.73
548.79	2535.36
549.14	2539.05
549.50	2542.69
549.86	2546.18
550.21	2549.76
550.57	2553.07
550.92	2553.93
551.28	2554.75
551.64	2557.27
551.99	2558.91
552.35	2560.46
552.70	2562.45
553.06	2563.90
553.41	2564.87
553.77	2566.35
554.13	2567.61
554.48	2569.09
554.84	2570.01
555.19	2570.73
555.55	2572.41
555.90	2571.46
556.26	2570.07
556.61	2568.48
556.97	2566.22
557.32	2565.71
557.68	2564.10
558.03	2562.57
558.39	2561.11
558.74	2560.11
559.10	2556.46
559.45	2552.65
559.81	2547.88
560.16	2542.42
560.52	2537.05
560.87	2532.65
561.23	2527.15
561.58	2521.17
561.94	2513.84
562.29	2506.65
562.64	2499.44
563.00	2490.74
563.35	2484.03
563.71	2477.39
564.06	2471.01
564.42	2464.65
564.77	2457.69
565.12	2450.49
565.48	2442.70
565.83	2435.08
566.19	2427.32
566.54	2419.63
566.89	2411.61
567.25	2404.06
567.60	2396.96
567.96	2389.82
568.31	2381.83
568.66	2373.37
569.02	2364.58
569.37	2356.38
569.72	2348.73
570.08	2339.62
570.43	2330.25
570.78	2321.28
571.14	2312.23
571.49	2301.90
571.84	2292.22
572.20	2281.28
572.55	2270.93
572.90	2259.74
573.26	2249.55
573.61	2238.34
573.96	2227.08
574.31	2214.94
574.67	2203.17
575.02	2190.64
575.37	2177.83
575.72	2164.64
576.08	2152.50
576.43	2140.31
576.78	2127.49
577.13	2114.11
577.49	2101.93
577.84	2090.60
578.19	2078.58
578.54	2066.00
578.90	2054.30
579.25	2042.16
579.60	2029.86
579.95	2017.10
580.30	2004.37
580.66	1990.94
581.01	1977.52
581.36	1963.71
581.71	1951.50
582.06	1938.62
582.42	1926.36
582.77	1913.90
583.12	1902.27
583.47	1890.14
583.82	1878.17
584.17	1866.59
584.53	1854.73
584.88	1841.66
585.23	1828.79
585.58	1814.64
585.93	1801.78
586.28	1788.77
586.63	1775.16
586.98	1761.47
587.34	1748.61
587.69	1735.54
588.04	1723.20
588.39	1711.62
588.74	1699.85
589.09	1688.15
589.44	1675.89
589.79	1664.06
590.14	1652.30
590.49	1640.27
590.84	1628.18
591.19	1616.31
591.54	1604.07
591.89	1592.19
592.25	1582.28
592.60	1570.74
592.95	1560.27
593.30	1548.63
593.65	1536.96
594.00	1525.18
594.35	1515.60
594.70	1503.88
595.05	1492.77
595.40	1481.12
595.75	1469.33
596.10	1458.39
596.45	1447.08
596.80	1436.48
597.15	1425.17
597.50	1413.81
597.85	1402.71
598.19	1391.51
598.54	1380.04
598.89	1369.00
599.24	1358.68
599.59	1347.15
599.94	1336.68
600.29	1326.21
600.64	1316.23
600.99	1305.80
601.34	1296.51
601.69	1285.22
602.04	1275.61
602.39	1266.12
602.74	1256.97
603.08	1247.75
603.43	1238.73
603.78	1229.29
604.13	1219.87
604.48	1210.45
604.83	1200.86
605.18	1191.08
605.53	1181.76
605.87	1173.00
606.22	1164.81
606.57	1155.54
606.92	1146.50
607.27	1137.73
607.62	1129.08
607.96	1120.56
608.31	1112.86
608.66	1104.62
609.01	1096.31
609.36	1087.91
609.70	1079.60
610.05	1071.35
610.40	1063.25
610.75	1054.45
611.10	1046.20
611.44	1037.69
611.79	1029.53
612.14	1021.79
612.49	1014.12
612.83	1006.95
613.18	999.42
613.53	991.65
613.88	984.23
614.22	976.59
614.57	968.84
614.92	961.24
615.27	953.87
615.61	946.24
615.96	938.55
616.31	931.25
616.65	924.37
617.00	917.20
617.35	909.82
617.70	902.72
618.04	895.77
618.39	888.95
618.74	882.53
619.08	876.02
619.43	869.13
619.78	862.44
620.12	855.32
620.47	848.31
620.82	841.26
621.16	834.47
621.51	828.29
621.85	822.05
622.20	815.33
622.55	808.80
622.89	802.53
623.24	796.42
623.59	790.15
623.93	783.95
624.28	778.02
624.62	772.53
624.97	766.75
625.32	761.12
625.66	755.23
626.01	749.28
626.35	743.76
626.70	738.49
627.04	733.41
627.39	727.93
627.73	722.77
628.08	717.80
628.43	712.57
628.77	707.08
629.12	702.10
629.46	697.51
629.81	692.93
630.15	688.23
630.50	683.41
630.84	678.72
631.19	674.17
631.53	669.60
631.88	664.43
632.22	659.67
632.57	655.30
632.91	650.80
633.26	646.77
633.60	642.13
633.95	637.49
634.29	632.75
634.64	628.62
634.98	624.04
635.32	619.85
635.67	615.99
636.01	612.03
636.36	607.66
636.70	603.85
637.05	599.70
637.39	595.72
637.73	591.97
638.08	588.19
638.42	584.02
638.77	580.00
639.11	575.91
639.45	571.69
639.80	567.47
640.14	563.60
640.49	559.55
640.83	555.90
641.17	552.40
641.52	548.82
641.86	545.23
642.20	542.06
642.55	538.49
642.89	534.92
643.23	531.54
643.58	528.54
643.92	524.78
644.26	521.49
644.61	518.25
644.95	514.72
645.29	511.43
645.64	508.34
645.98	505.20
646.32	502.47
646.66	499.56
647.01	496.69
647.35	493.93
647.69	491.06
648.04	488.28
648.38	485.43
648.72	482.66
649.06	479.69
649.41	476.73
649.75	473.80
650.09	470.96
650.43	468.22
650.78	465.27
651.12	462.65
651.46	459.90
651.80	457.27
652.14	454.72
652.49	452.24
652.83	449.72
653.17	447.28
653.51	444.51
653.85	442.15
654.20	439.66
654.54	437.05
654.88	434.65
655.22	432.45
655.56	430.12
655.90	427.85
656.25	425.60
656.59	423.35
656.93	421.19
657.27	419.03
657.61	416.51
657.95	414.41
658.29	412.22
658.64	410.15
658.98	407.82
659.32	405.59
659.66	403.21
660.00	401.09
660.34	399.01
660.68	397.08
661.02	395.02
661.36	393.17
661.70	391.29
662.05	389.32
662.39	387.32
662.73	385.52
663.07	384.02
663.41	382.25
663.75	380.43
664.09	378.60
664.43	376.72
664.77	375.10
665.11	373.36
665.45	371.76
665.79	370.15
666.13	368.58
666.47	367.00
666.81	365.51
667.15	363.89
667.49	362.30
667.83	360.99
668.17	359.55
668.51	358.09
668.85	356.83
669.19	355.77
669.53	354.36
669.87	352.92
670.21	351.27
670.55	349.90
670.89	348.80
671.23	347.55
671.57	346.28
671.91	345.05
672.25	343.69
672.58	342.48
672.92	341.09
673.26	339.82
673.60	338.57
673.94	337.48
674.28	336.33
674.62	335.27
674.96	333.96
675.30	332.84
675.64	331.69
675.97	330.44
676.31	329.10
676.65	327.82
676.99	326.86
677.33	325.75
677.67	324.71
678.01	323.36
678.34	322.24
678.68	321.25
679.02	320.22
679.36	319.26
679.70	318.15
680.04	317.16
680.37	316.28
680.71	315.41
681.05	314.51
681.39	313.73
681.73	312.68
682.06	311.82
682.40	310.95
682.74	310.16
683.08	309.46
683.42	308.55
683.75	307.85
684.09	306.94
684.43	306.18
684.77	305.39
685.10	304.67
685.44	303.92
685.78	303.14
686.12	302.38
686.45	301.55
686.79	300.89
687.13	300.30
687.46	299.55
687.80	298.91
688.14	298.07
688.48	297.27
688.81	296.61
689.15	296.00
689.49	295.27
689.82	294.57
690.16	293.69
690.50	293.10
690.83	292.38
691.17	291.57
691.51	290.87
691.84	290.30
692.18	289.60
692.52	288.93
692.85	288.36
693.19	287.99
693.52	287.39
693.86	286.67
694.20	286.01
694.53	285.31
694.87	284.59
695.21	283.95
695.54	283.34
695.88	282.64
696.21	281.84
696.55	281.20
696.88	280.59
697.22	279.90
697.56	279.26
697.89	278.66
698.23	278.30
698.56	277.68
698.90	277.09
699.23	276.50
699.57	276.01
699.90	275.36
700.24	274.66
700.58	274.21
700.91	273.87
701.25	273.72
701.58	273.63
701.92	273.29
702.25	272.83
702.59	272.34
702.92	271.92
703.26	271.51
703.59	271.13
703.93	271.04
704.26	270.72
704.60	270.35
704.93	269.84
705.26	269.22
705.60	268.85
705.93	268.31
706.27	268.10
706.60	267.81
706.94	267.66
707.27	267.23
707.61	266.87
707.94	266.42
708.27	265.64
708.61	264.89
708.94	264.40
709.28	264.07
709.61	263.71
709.94	263.39
710.28	263.05
710.61	262.66
710.95	261.91
711.28	261.86
711.61	261.37
711.95	261.19
712.28	260.90
712.61	260.55
712.95	260.45
713.28	260.25
713.61	259.87
713.95	259.37
714.28	259.02
714.61	258.71
714.95	258.36
715.28	258.04
715.61	257.67
715.95	257.42
716.28	257.03
716.61	256.76
716.95	256.44
717.28	256.08
717.61	255.80
717.94	255.47
718.28	254.83
718.61	254.55
718.94	254.15
719.27	253.84
719.61	253.60
719.94	253.28
720.27	252.78
720.60	252.46
720.94	252.22
721.27	252.07
721.60	251.85
721.93	251.47
722.27	251.43
722.60	251.39
722.93	251.05
723.26	250.87
723.59	250.60
723.93	250.40
724.26	250.28
724.59	250.10
724.92	249.92
725.25	249.85
725.59	249.70
725.92	249.59
726.25	249.43
726.58	249.27
726.91	249.02
727.24	248.88
727.57	248.62
727.91	248.34
728.24	248.19
728.57	247.85
728.90	247.86
729.23	247.54
729.56	247.45
729.89	247.38
730.22	247.14
730.55	246.91
730.89	246.77
731.22	246.60
731.55	246.35
731.88	246.17
732.21	245.93
732.54	245.75
732.87	245.60
733.20	245.46
733.53	245.28
733.86	245.20
734.19	244.94
734.52	244.96
734.85	245.14
735.18	244.89
735.51	244.99
735.84	244.80
736.17	244.77
736.50	244.41
736.83	244.80
737.16	244.70
737.49	244.66
737.82	244.45
738.15	244.30
738.48	244.18
738.81	244.09
739.14	243.89
739.47	243.68
739.80	243.47
740.13	243.33
740.46	243.12
740.79	242.92
741.12	242.84
741.45	242.57
741.78	242.22
742.11	242.24
742.44	241.92
742.77	241.86
743.10	241.60
743.43	241.46
743.75	240.76
744.08	241.23
744.41	240.97
744.74	240.80
745.07	240.61
745.40	240.54
745.73	240.55
746.06	240.39
746.39	240.36
746.71	240.16
747.04	239.97
747.37	239.87
747.70	239.80
748.03	239.69
748.36	239.64
748.68	239.49
749.01	239.16
749.34	239.11
749.67	238.95
750.00	238.94
750.33	239.16
750.65	239.13
750.98	238.37
751.31	238.33
751.64	238.30
751.97	238.46
752.29	238.36
752.62	238.09
752.95	238.02
753.28	237.90
753.60	237.86
753.93	237.91
754.26	237.84
754.59	237.60
754.91	237.41
755.24	237.26
755.57	237.26
755.90	237.19
756.22	236.96
756.55	236.76
756.88	236.56
757.20	236.07
757.53	235.79
757.86	235.75
758.19	235.72
758.51	235.54
758.84	235.23
759.17	235.03
759.49	234.94
759.82	235.09
760.15	234.94
760.47	234.78
760.80	234.57
761.13	234.53
761.45	234.39
761.78	234.38
762.11	234.31
762.43	234.05
762.76	233.92
763.08	233.94
763.41	233.93
763.74	233.86
764.06	233.85
764.39	233.88
764.71	233.80
765.04	233.74
765.37	233.65
765.69	233.50
766.02	233.46
766.34	233.35
766.67	233.10
767.00	233.16
767.32	233.40
767.65	233.65
767.97	233.53
768.30	233.54
768.62	233.42
768.95	233.28
769.27	233.25
769.60	233.25
769.92	233.10
770.25	232.94
770.57	232.78
770.90	232.68
771.22	232.57
771.55	232.51
771.87	232.35
772.20	232.30
772.52	232.70
772.85	233.27
773.17	233.25
773.50	233.15
773.82	233.03
774.15	232.79
774.47	232.37
774.80	232.31
775.12	232.28
775.45	232.20
775.77	232.17
776.09	232.15
776.42	232.17
776.74	232.32
777.07	232.23
777.39	232.23
777.72	232.20
778.04	232.22
778.36	232.18
778.69	232.14
779.01	232.17
779.33	231.72
779.66	231.10
779.98	231.03
780.31	231.05
780.63	231.19
780.95	231.20
781.28	231.21
781.60	231.11
781.92	231.08
782.25	231.07
782.57	231.03
782.89	230.93
783.22	230.86
783.54	230.77
783.86	230.90
784.19	230.83
784.51	230.91
784.83	230.76
785.16	230.63
785.48	230.64
785.80	230.55
786.12	230.60
786.45	230.47
786.77	230.43
787.09	230.37
787.42	230.17
787.74	230.20
788.06	230.24
788.38	230.16
788.71	230.06
789.03	230.03
789.35	230.10
789.67	230.02
789.99	230.00
790.32	229.84
790.64	229.85
790.96	230.25
791.28	230.02
791.61	229.97
791.93	230.02
792.25	229.98
792.57	230.32
792.89	230.16
793.21	230.23
793.54	230.19
793.86	230.05
794.18	230.10
794.50	229.95
794.82	229.87
795.14	229.99
795.47	230.07
795.79	230.05
796.11	229.87
796.43	229.85
796.75	229.74
797.07	229.76
797.39	229.66
797.71	229.22
798.04	229.26
798.36	229.30
798.68	229.33
799.00	229.43
799.32	229.09
799.64	229.14
799.96	229.13
800.28	229.25
800.60	229.28
800.92	229.21
801.24	229.15
801.56	229.16
801.89	229.09
802.21	229.07
802.53	229.03
802.85	229.19
803.17	229.47
803.49	229.54
803.81	229.50
804.13	229.43
804.45	229.40
804.77	229.40
805.09	229.36
805.41	229.26
805.73	229.10
806.05	229.03
806.37	229.01
806.69	228.97
807.01	228.86
807.33	228.87
807.65	228.73
807.97	229.00
808.28	228.92
808.60	228.84
808.92	228.77
809.24	229.04
809.56	228.95
809.88	228.70
810.20	228.66
810.52	228.72
810.84	228.69
811.16	228.66
811.48	228.59
811.80	228.81
812.12	228.76
812.43	228.81
812.75	228.80
813.07	228.70
813.39	228.73
813.71	228.64
814.03	228.61
814.35	228.65
814.67	228.30
814.98	228.30
815.30	228.29
815.62	228.16
815.94	227.78
816.26	228.00
816.58	227.90
816.89	227.89
817.21	227.72
817.53	227.74
817.85	227.72
818.17	227.74
818.48	227.55
818.80	227.68
819.12	227.60
819.44	227.53
819.76	227.45
820.07	227.40
820.39	227.37
820.71	227.38
821.03	227.30
821.34	227.31
821.66	227.33
821.98	227.41
822.30	227.37
822.61	227.64
822.93	227.30
823.25	227.35
823.57	227.31
823.88	227.40
824.20	227.37
824.52	227.46
824.83	227.48
825.15	227.36
825.47	227.23
825.79	227.22
826.10	227.18
826.42	227.20
826.74	227.19
827.05	227.21
827.37	227.19
827.69	227.25
828.00	227.35
828.32	227.37
828.64	227.30
828.95	227.60
829.27	227.57
829.58	227.56
829.90	227.65
830.22	227.65
830.53	227.55
830.85	227.49
831.17	227.35
831.48	227.34
831.80	227.36
832.11	227.34
832.43	227.36
832.75	227.37
833.06	227.65
833.38	227.62
833.69	227.59
834.01	227.65
834.32	227.65
834.64	227.46
834.96	227.44
835.27	227.36
835.59	227.18
835.90	226.99
836.22	227.04
836.53	226.90
836.85	226.95
837.16	227.52
837.48	227.51
837.79	227.65
838.11	227.63
838.42	227.63
838.74	227.77
839.05	227.77
839.37	227.80
839.68	227.62
840.00	227.60
840.31	227.68
840.63	227.61
840.94	227.54
841.26	227.55
841.57	227.55
841.88	227.68
842.20	227.65
842.51	227.66
842.83	227.64
843.14	228.09
843.46	228.01
843.77	227.63
844.08	227.61
844.40	227.56
844.71	227.49
845.03	227.52
845.34	227.42
845.65	227.37
845.97	227.35
846.28	227.32
846.60	227.32
846.91	227.27
847.22	227.20
847.54	227.35
847.85	227.41
848.16	227.43
848.48	227.31
848.79	227.46
849.10	227.47
849.42	227.51
849.73	227.07
850.04	227.01
850.36	226.88
850.67	226.97
850.98	226.90
851.30	226.98
851.61	226.92
851.92	226.93
852.23	227.09
852.55	227.13
852.86	227.12
853.17	227.11
853.49	227.10
853.80	227.29
854.11	227.26
854.42	227.32
854.74	227.20
855.05	227.23
855.36	226.98
855.67	227.02
855.99	227.00
856.30	227.50
856.61	227.50
856.92	227.49
857.23	227.44
857.55	227.42
857.86	227.39
858.17	227.47
858.48	227.36
858.79	227.23
859.11	227.24
859.42	227.17
859.73	227.12
860.04	227.13
860.35	226.98
860.66	226.80
860.98	226.75
861.29	226.86
861.60	226.77
861.91	226.89
862.22	226.79
862.53	226.68
862.84	226.19
863.16	226.30
863.47	226.17
863.78	226.17
864.09	226.23
864.40	226.18
864.71	226.15
865.02	226.21
865.33	226.12
865.64	226.03
865.95	226.05
866.27	226.32
866.58	226.25
866.89	226.31
867.20	226.26
867.51	226.17
867.82	226.06
868.13	226.23
868.44	226.04
868.75	226.15
869.06	226.19
869.37	226.12
869.68	225.94
869.99	226.14
870.30	226.10
870.61	226.11
870.92	226.09
871.23	226.02
871.54	226.09
871.85	226.28
872.16	226.40
872.47	226.38
872.78	226.13
873.09	226.20
873.40	226.07
873.71	226.19
874.02	226.22
874.33	226.18
874.64	226.02
874.95	226.20
875.26	226.12
875.56	226.13
875.87	226.29
876.18	226.32
876.49	226.73
876.80	226.73
877.11	226.66
877.42	226.72
877.73	226.71
878.04	226.62
878.35	226.59
878.66	226.59
878.96	226.61
879.27	226.62
879.58	226.66
879.89	226.71
880.20	226.83
880.51	226.85
880.82	226.94
881.12	227.05
881.43	226.96
881.74	226.83
882.05	226.80
882.36	226.77
882.67	226.84
882.97	226.33
883.28	226.29
883.59	226.31
883.90	226.36
884.21	226.49
884.51	226.56
884.82	226.54
885.13	226.47
885.44	226.50
885.74	226.49
886.05	226.44
886.36	226.41
886.67	226.26
886.98	226.50
887.28	226.49
887.59	226.44
887.90	226.48
888.20	226.58
888.51	226.63
888.82	226.56
889.13	226.54
889.43	227.00
889.74	227.03
890.05	227.01
890.35	227.05
890.66	226.94
890.97	226.84
891.28	226.82
891.58	226.81
891.89	226.75
892.20	226.64
892.50	226.59
892.81	226.61
893.12	226.60
893.42	226.35
893.73	226.36
894.04	226.45
894.34	226.43
894.65	226.45
894.95	226.39
895.26	226.46
895.57	226.68
895.87	226.22
896.18	226.27
896.48	226.27
896.79	226.18
897.10	226.22
897.40	226.26
897.71	226.25
898.01	226.24
898.32	226.28
898.63	226.33
898.93	226.38
899.24	226.38
899.54	226.39
899.85	226.35
900.15	226.31
900.46	226.26
900.76	226.35
901.07	226.24
901.38	226.29
901.68	226.32
901.99	226.09
902.29	226.10
902.60	226.12
902.90	226.05
903.21	226.03
903.51	226.03
903.82	226.12
904.12	226.11
904.43	226.05
904.73	226.07
905.03	226.10
905.34	226.54
905.64	226.42
905.95	226.43
906.25	226.45
906.56	226.38
906.86	226.40
907.17	226.35
907.47	226.50
907.77	226.39
908.08	226.28
908.38	226.35
908.69	226.36
908.99	226.42
909.30	226.48
909.60	226.46
909.90	226.48
910.21	226.36
910.51	226.30
910.81	226.41
911.12	226.50
911.42	226.50
911.73	225.99
912.03	226.08
912.33	226.16
912.64	226.13
912.94	226.19
913.24	226.08
913.55	226.05
913.85	225.95
914.15	226.13
914.46	226.15
914.76	226.06
915.06	226.08
915.37	225.99
915.67	225.95
915.97	226.02
916.27	225.95
916.58	225.95
916.88	225.92
917.18	225.86
917.49	226.12
917.79	226.13
918.09	226.26
918.39	226.39
918.70	226.32
919.00	226.41
919.30	226.62
919.60	226.66
919.91	226.67
920.21	226.67
920.51	226.45
920.81	226.42
921.12	226.46
921.42	226.40
921.72	226.40
922.02	226.50
922.32	226.51
922.63	226.51
922.93	226.81
923.23	226.80
923.53	226.74
923.83	226.40
924.13	226.44
924.44	226.40
924.74	226.49
925.04	226.64
925.34	226.61
925.64	226.43
925.94	226.38
926.24	226.57
926.55	226.57
926.85	226.77
927.15	226.79
927.45	226.81
927.75	226.88
928.05	226.95
928.35	226.87
928.65	227.01
928.95	227.09
929.26	226.88
929.56	227.00
929.86	227.10
930.16	227.07
930.46	227.02
930.76	227.02
931.06	226.73
931.36	226.61
931.66	226.70
931.96	226.68
932.26	226.75
932.56	226.56
932.86	226.63
933.16	226.60
933.46	226.55
933.76	226.52
934.06	226.48
934.36	226.65
934.66	226.56
934.96	226.48
935.26	226.44
935.56	226.49
935.86	226.32
936.16	226.22
936.46	226.20
936.76	226.16
937.06	226.09
937.36	226.20
937.66	226.24
937.96	226.15
938.26	226.07
938.56	226.02
938.86	226.07
939.16	226.09
939.46	226.15
939.76	226.19
940.06	226.14
940.35	226.10
940.65	225.83
940.95	225.98
941.25	225.84
941.55	225.82
941.85	225.77
942.15	225.96
942.45	226.10
942.75	226.10
943.04	226.17
943.34	226.28
943.64	226.19
943.94	226.12
944.24	226.14
944.54	226.16
944.84	226.11
945.13	226.14
945.43	226.08
945.73	225.99
946.03	225.95
946.33	226.00
946.62	226.03
946.92	226.02
947.22	225.94
947.52	226.03
947.82	226.08
948.11	226.03
948.41	225.96
948.71	225.82
949.01	225.82
949.31	225.81
949.60	225.77
949.90	225.88
950.20	225.79
950.50	225.77
950.79	225.76
951.09	225.91
951.39	225.81
951.69	225.76
951.98	225.91
952.28	225.94
952.58	225.89
952.87	225.88
953.17	225.99
953.47	226.01
953.76	226.00
954.06	225.90
954.36	225.87
954.66	225.82
954.95	225.94
955.25	225.99
955.55	225.97
955.84	225.97
956.14	226.07
956.44	226.17
956.73	226.18
957.03	226.23
957.32	226.17
957.62	226.12
957.92	226.28
958.21	226.26
958.51	226.85
958.81	226.89
959.10	226.85
959.40	226.91
959.69	226.92
959.99	226.96
960.29	227.01
960.58	226.97
960.88	227.18
961.17	227.11
961.47	227.21
961.76	227.19
962.06	227.22
962.36	227.06
962.65	227.08
962.95	227.04
963.24	226.98
963.54	227.04
963.83	227.04
964.13	226.94
964.42	226.75
964.72	226.33
965.01	226.38
965.31	226.40
965.60	226.23
965.90	226.55
966.19	226.51
966.49	226.51
966.78	226.51
967.08	226.45
967.37	226.49
967.67	226.34
967.96	226.38
968.26	226.38
968.55	226.40
968.85	226.34
969.14	226.35
969.43	226.35
969.73	226.29
970.02	226.36
970.32	226.37
970.61	226.43
970.91	226.31
971.20	226.21
971.49	226.12
971.79	226.17
972.08	225.74
972.38	225.72
972.67	225.68
972.96	225.74
973.26	225.60
973.55	225.79
973.85	225.69
974.14	225.59
974.43	225.59
974.73	225.58
975.02	225.57
975.31	225.66
975.61	225.63
975.90	225.61
976.19	225.56
976.49	225.56
976.78	225.53
977.07	225.51
977.37	225.61
977.66	225.70
977.95	225.66
978.24	225.69
978.54	225.79
978.83	225.77
979.12	225.75
979.42	225.77
979.71	225.61
980.00	225.68
980.29	225.75
980.59	225.61
980.88	225.71
981.17	225.72
981.46	225.63
981.76	225.65
982.05	225.76
982.34	225.74
982.63	225.68
982.93	225.71
983.22	225.84
983.51	225.81
983.80	225.87
984.09	225.93
984.39	225.93
984.68	225.82
984.97	225.86
985.26	225.76
985.55	225.78
985.85	225.67
986.14	225.68
986.43	225.83
986.72	225.87
987.01	225.73
987.30	225.71
987.59	225.66
987.89	225.63
988.18	225.54
988.47	225.46
988.76	225.53
989.05	225.47
989.34	225.41
989.63	225.53
989.92	225.46
990.22	225.37
990.51	225.40
990.80	225.37
991.09	225.40
991.38	225.53
991.67	225.48
991.96	225.44
992.25	225.47
992.54	225.32
992.83	225.36
993.12	225.34
993.41	225.42
993.70	225.63
993.99	225.74
994.28	225.75
994.58	225.89
994.87	225.84
995.16	225.83
995.45	225.80
995.74	225.66
996.03	225.76
996.32	225.85
996.61	225.94
996.90	225.95
997.19	225.94
997.48	225.94
997.77	225.92
998.06	226.02
998.34	226.03
998.63	226.02
998.92	226.00
999.21	226.15
999.50	226.18
999.79	226.01
1000.08	225.97
1000.37	226.03
1000.66	225.96
1000.95	226.02
1001.24	226.02
1001.53	226.00
1001.82	225.96
1002.11	225.80
1002.40	225.90
1002.68	226.03
1002.97	226.45
1003.26	226.42
1003.55	226.33
1003.84	226.37
1004.13	226.53
1004.42	226.40
1004.71	226.44
1004.99	226.44
1005.28	226.45
1005.57	226.39
1005.86	226.30
1006.15	226.34
1006.44	226.24
1006.72	226.34
1007.01	226.36
1007.30	226.38
1007.59	226.37
1007.88	226.40
1008.17	226.49
1008.45	226.32
1008.74	226.15
1009.03	225.86
1009.32	225.80
1009.60	225.83
1009.89	225.83
1010.18	225.65
1010.47	225.71
1010.76	225.71
1011.04	225.61
1011.33	225.62
1011.62	225.70
1011.91	225.77
1012.19	225.73
1012.48	225.70
1012.77	225.70
1013.05	225.80
1013.34	225.81
1013.63	225.80
1013.92	225.83
1014.20	225.70
1014.49	225.69
1014.78	225.73
1015.06	225.62
1015.35	225.59
1015.64	225.63
1015.92	225.68
1016.21	225.62
1016.50	225.59
1016.78	225.61
1017.07	225.70
1017.36	225.58
1017.64	225.44
1017.93	225.52
1018.22	225.47
1018.50	225.49
1018.79	225.42
1019.08	225.28
1019.36	225.27
1019.65	225.21
1019.93	225.33
1020.22	225.48
1020.51	225.78
1020.79	225.72
1021.08	224.70
1021.36	224.90
1021.65	225.00
1021.94	226.10
1022.22	225.45
1022.51	224.40
1022.79	228.10
1023.08	226.95
1023.36	231.35
1023.65	225.30
>>>>>End Processed Spectral Data<<<<<
