SpectraSuite Data File
++++++++++++++++++++++++++++++++++++
Date: Wed Sep 04 18:00:59 EDT 2013
User: lab3
Dark Spectrum Present: Yes
Reference Spectrum Present: No
Number of Sampled Component Spectra: 1
Spectrometers: USB2E7196
Integration Time (usec): 170000 (USB2E7196)
Spectra Averaged: 20 (USB2E7196)
Boxcar Smoothing: 10 (USB2E7196)
Correct for Electrical Dark: No (USB2E7196)
Strobe/Lamp Enabled: No (USB2E7196)
Correct for Detector Non-linearity: No (USB2E7196)
Correct for Stray Light: No (USB2E7196)
Number of Pixels in Processed Spectrum: 2048
>>>>>Begin Processed Spectral Data<<<<<
339.09	0.00
339.48	212.45
339.86	215.00
340.24	217.00
340.63	218.35
341.01	225.55
341.39	220.30
341.78	221.85
342.16	224.50
342.54	223.75
342.93	212.64
343.31	223.31
343.69	223.90
344.07	224.44
344.46	224.89
344.84	225.27
345.22	225.29
345.60	225.60
345.99	225.83
346.37	225.86
346.75	226.02
347.13	225.97
347.52	226.01
347.90	226.34
348.28	226.33
348.66	226.48
349.05	226.25
349.43	226.30
349.81	226.41
350.19	226.52
350.57	226.60
350.96	226.71
351.34	226.82
351.72	226.96
352.10	226.94
352.48	226.89
352.87	226.90
353.25	226.97
353.63	226.96
354.01	227.00
354.39	227.16
354.77	227.16
355.15	227.39
355.54	227.41
355.92	227.26
356.30	227.32
356.68	227.70
357.06	227.79
357.44	227.80
357.82	227.80
358.20	228.18
358.58	228.25
358.97	228.37
359.35	228.55
359.73	228.62
360.11	228.69
360.49	228.86
360.87	228.96
361.25	229.08
361.63	229.32
362.01	229.35
362.39	229.39
362.77	229.42
363.15	229.39
363.53	229.39
363.91	229.53
364.29	229.53
364.67	229.09
365.05	229.17
365.43	229.35
365.81	229.49
366.19	229.32
366.57	229.63
366.95	229.62
367.33	229.50
367.71	229.53
368.09	229.63
368.47	229.65
368.85	229.63
369.23	229.70
369.61	229.45
369.99	229.64
370.37	229.67
370.75	229.98
371.13	229.90
371.51	229.80
371.89	229.77
372.27	229.87
372.65	229.82
373.03	229.80
373.41	229.63
373.78	229.52
374.16	229.19
374.54	228.94
374.92	228.84
375.30	228.85
375.68	228.71
376.06	228.70
376.44	228.53
376.82	228.51
377.19	228.45
377.57	228.44
377.95	228.30
378.33	228.17
378.71	227.80
379.09	227.84
379.47	227.90
379.84	227.82
380.22	227.61
380.60	227.50
380.98	227.42
381.36	227.39
381.73	227.27
382.11	227.37
382.49	227.29
382.87	227.14
383.25	227.06
383.62	227.55
384.00	227.44
384.38	227.44
384.76	227.49
385.13	227.58
385.51	227.55
385.89	227.40
386.27	227.37
386.64	227.42
387.02	227.33
387.40	227.19
387.78	227.20
388.15	227.28
388.53	227.30
388.91	227.20
389.29	227.15
389.66	227.25
390.04	227.16
390.42	227.26
390.79	227.34
391.17	227.35
391.55	226.80
391.92	226.74
392.30	226.82
392.68	226.77
393.05	226.77
393.43	226.86
393.81	226.89
394.18	226.87
394.56	226.90
394.94	227.06
395.31	227.13
395.69	227.30
396.06	227.42
396.44	227.48
396.82	227.54
397.19	227.85
397.57	227.80
397.95	228.02
398.32	227.84
398.70	227.92
399.07	228.14
399.45	228.24
399.82	228.31
400.20	228.35
400.58	228.41
400.95	228.18
401.33	228.29
401.70	228.70
402.08	228.82
402.45	228.88
402.83	229.07
403.20	229.25
403.58	229.27
403.95	229.49
404.33	229.74
404.71	229.99
405.08	230.31
405.46	230.57
405.83	230.77
406.21	231.09
406.58	231.37
406.96	231.58
407.33	231.88
407.70	232.35
408.08	233.03
408.45	233.45
408.83	234.05
409.20	234.39
409.58	234.56
409.95	235.17
410.33	235.69
410.70	236.07
411.08	236.69
411.45	237.45
411.82	237.95
412.20	238.64
412.57	239.63
412.95	240.06
413.32	240.92
413.69	241.73
414.07	242.68
414.44	243.69
414.82	244.74
415.19	245.96
415.56	247.10
415.94	248.12
416.31	249.60
416.68	251.05
417.06	252.65
417.43	254.30
417.81	256.02
418.18	257.86
418.55	259.78
418.93	261.86
419.30	263.88
419.67	266.11
420.04	268.40
420.42	270.74
420.79	273.83
421.16	276.67
421.54	279.67
421.91	282.64
422.28	285.81
422.66	289.06
423.03	292.45
423.40	295.80
423.77	299.38
424.15	302.91
424.52	306.63
424.89	310.88
425.26	314.89
425.64	318.75
426.01	322.88
426.38	327.35
426.75	331.88
427.13	336.53
427.50	341.42
427.87	346.31
428.24	351.20
428.61	355.74
428.99	361.06
429.36	366.64
429.73	372.22
430.10	377.77
430.47	383.50
430.85	389.22
431.22	395.45
431.59	402.27
431.96	408.59
432.33	415.53
432.70	422.25
433.08	430.22
433.45	437.69
433.82	445.15
434.19	453.36
434.56	461.46
434.93	469.18
435.30	477.02
435.68	485.78
436.05	494.33
436.42	502.77
436.79	510.47
437.16	518.88
437.53	527.95
437.90	536.61
438.27	545.28
438.64	554.23
439.01	562.63
439.38	569.83
439.75	577.06
440.13	585.14
440.50	592.66
440.87	598.63
441.24	604.97
441.61	612.13
441.98	617.30
442.35	623.10
442.72	629.17
443.09	634.92
443.46	638.33
443.83	640.62
444.20	642.52
444.57	645.26
444.94	646.32
445.31	647.25
445.68	648.66
446.05	648.79
446.42	647.51
446.79	646.00
447.16	644.40
447.53	643.07
447.90	639.37
448.27	635.77
448.64	630.89
449.01	627.13
449.37	620.87
449.74	614.67
450.11	607.76
450.48	599.78
450.85	591.76
451.22	584.89
451.59	578.26
451.96	571.91
452.33	563.67
452.70	556.22
453.07	547.37
453.43	538.15
453.80	529.66
454.17	521.54
454.54	513.80
454.91	505.53
455.28	497.54
455.65	490.19
456.02	483.18
456.38	476.82
456.75	469.16
457.12	462.68
457.49	456.36
457.86	450.01
458.23	444.90
458.59	439.15
458.96	433.29
459.33	428.16
459.70	423.12
460.07	419.04
460.43	414.33
460.80	410.02
461.17	406.33
461.54	402.31
461.91	398.43
462.27	394.51
462.64	391.20
463.01	387.59
463.38	384.20
463.74	380.25
464.11	377.19
464.48	374.45
464.85	371.44
465.21	369.28
465.58	366.91
465.95	364.02
466.32	361.68
466.68	359.25
467.05	356.98
467.42	354.62
467.78	352.20
468.15	350.14
468.52	348.58
468.88	346.30
469.25	344.33
469.62	342.88
469.98	341.24
470.35	339.66
470.72	338.19
471.08	336.36
471.45	335.04
471.82	333.74
472.18	332.25
472.55	331.13
472.92	329.79
473.28	328.74
473.65	327.59
474.02	326.64
474.38	325.87
474.75	325.14
475.11	324.29
475.48	323.73
475.85	323.00
476.21	322.32
476.58	321.90
476.94	321.58
477.31	321.08
477.67	320.73
478.04	320.48
478.41	320.35
478.77	320.72
479.14	320.45
479.50	320.40
479.87	320.42
480.23	320.54
480.60	320.57
480.96	320.61
481.33	321.03
481.69	321.29
482.06	321.58
482.42	321.83
482.79	322.15
483.15	322.57
483.52	323.20
483.88	323.82
484.25	324.35
484.61	324.98
484.98	325.69
485.34	326.74
485.71	327.79
486.07	328.66
486.44	329.25
486.80	330.45
487.17	331.52
487.53	332.98
487.90	334.34
488.26	335.96
488.62	337.65
488.99	339.14
489.35	340.89
489.72	342.73
490.08	344.67
490.44	346.72
490.81	348.97
491.17	351.24
491.54	353.70
491.90	356.31
492.26	359.08
492.63	361.97
492.99	364.60
493.36	367.69
493.72	371.07
494.08	374.55
494.45	378.24
494.81	382.25
495.17	386.14
495.54	390.37
495.90	394.54
496.26	398.97
496.63	403.69
496.99	408.45
497.35	413.59
497.72	418.88
498.08	424.27
498.44	429.87
498.80	435.93
499.17	442.06
499.53	448.23
499.89	454.90
500.26	461.66
500.62	468.73
500.98	476.15
501.34	483.59
501.71	491.32
502.07	499.09
502.43	507.14
502.79	515.48
503.16	524.19
503.52	533.19
503.88	542.33
504.24	552.01
504.60	562.03
504.97	572.29
505.33	582.76
505.69	593.92
506.05	605.19
506.41	616.53
506.78	628.07
507.14	640.05
507.50	652.45
507.86	665.04
508.22	678.02
508.59	691.06
508.95	704.70
509.31	718.92
509.67	733.21
510.03	747.55
510.39	762.52
510.75	777.56
511.12	793.06
511.48	808.75
511.84	824.64
512.20	840.66
512.56	857.05
512.92	874.01
513.28	890.89
513.64	908.12
514.00	925.68
514.37	943.56
514.73	961.99
515.09	980.22
515.45	999.03
515.81	1017.76
516.17	1036.58
516.53	1055.39
516.89	1074.16
517.25	1093.64
517.61	1113.87
517.97	1134.14
518.33	1154.11
518.69	1174.42
519.05	1195.15
519.41	1215.84
519.77	1236.98
520.13	1257.76
520.49	1278.33
520.85	1300.84
521.21	1322.12
521.57	1343.59
521.93	1364.37
522.29	1385.72
522.65	1406.36
523.01	1426.92
523.37	1447.53
523.73	1468.53
524.09	1489.30
524.45	1509.95
524.81	1530.95
525.17	1551.72
525.53	1572.24
525.89	1593.18
526.25	1614.31
526.61	1634.52
526.97	1655.75
527.33	1677.17
527.68	1699.15
528.04	1720.58
528.40	1740.13
528.76	1760.90
529.12	1781.12
529.48	1802.24
529.84	1822.24
530.20	1843.83
530.56	1864.77
530.91	1885.94
531.27	1906.54
531.63	1927.18
531.99	1948.00
532.35	1968.38
532.71	1988.58
533.07	2009.63
533.42	2029.76
533.78	2049.59
534.14	2069.87
534.50	2088.93
534.86	2107.92
535.21	2125.62
535.57	2144.39
535.93	2162.39
536.29	2180.28
536.65	2198.69
537.00	2216.56
537.36	2234.40
537.72	2250.72
538.08	2268.12
538.44	2285.03
538.79	2301.75
539.15	2318.12
539.51	2334.09
539.87	2349.01
540.22	2363.43
540.58	2377.40
540.94	2391.02
541.29	2403.93
541.65	2416.64
542.01	2429.75
542.37	2440.68
542.72	2451.90
543.08	2462.75
543.44	2474.52
543.79	2484.84
544.15	2494.72
544.51	2504.45
544.87	2514.17
545.22	2523.03
545.58	2530.74
545.94	2537.79
546.29	2544.37
546.65	2550.95
547.01	2556.60
547.36	2562.30
547.72	2567.87
548.07	2572.12
548.43	2577.58
548.79	2581.95
549.14	2586.07
549.50	2589.57
549.86	2593.77
550.21	2597.34
550.57	2600.35
550.92	2601.84
551.28	2603.22
551.64	2605.53
551.99	2607.84
552.35	2609.47
552.70	2611.51
553.06	2613.61
553.41	2614.70
553.77	2616.48
554.13	2618.28
554.48	2620.07
554.84	2621.83
555.19	2623.10
555.55	2624.69
555.90	2623.76
556.26	2623.18
556.61	2621.68
556.97	2619.93
557.32	2619.26
557.68	2618.14
558.03	2616.92
558.39	2615.52
558.74	2614.81
559.10	2611.35
559.45	2607.71
559.81	2603.18
560.16	2598.34
560.52	2593.23
560.87	2588.87
561.23	2583.44
561.58	2576.95
561.94	2570.20
562.29	2562.61
562.64	2555.49
563.00	2547.60
563.35	2541.26
563.71	2534.75
564.06	2528.70
564.42	2521.99
564.77	2514.98
565.12	2507.51
565.48	2499.79
565.83	2491.88
566.19	2483.95
566.54	2476.75
566.89	2468.61
567.25	2461.14
567.60	2453.45
567.96	2446.06
568.31	2438.21
568.66	2429.61
569.02	2420.94
569.37	2412.87
569.72	2405.57
570.08	2396.20
570.43	2386.71
570.78	2377.50
571.14	2367.93
571.49	2357.59
571.84	2347.65
572.20	2336.47
572.55	2326.61
572.90	2315.48
573.26	2305.14
573.61	2294.14
573.96	2282.95
574.31	2271.03
574.67	2259.07
575.02	2246.84
575.37	2233.94
575.72	2220.86
576.08	2208.46
576.43	2195.95
576.78	2182.68
577.13	2168.62
577.49	2156.01
577.84	2143.89
578.19	2131.65
578.54	2118.87
578.90	2106.89
579.25	2094.61
579.60	2082.35
579.95	2068.87
580.30	2055.99
580.66	2042.40
581.01	2028.67
581.36	2014.47
581.71	2001.92
582.06	1988.92
582.42	1976.31
582.77	1963.53
583.12	1951.42
583.47	1939.15
583.82	1927.30
584.17	1915.25
584.53	1903.12
584.88	1890.03
585.23	1876.84
585.58	1862.24
585.93	1849.15
586.28	1835.58
586.63	1821.58
586.98	1807.33
587.34	1794.16
587.69	1780.71
588.04	1768.32
588.39	1755.87
588.74	1743.76
589.09	1731.22
589.44	1718.39
589.79	1706.07
590.14	1694.27
590.49	1682.03
590.84	1669.81
591.19	1657.35
591.54	1644.84
591.89	1632.87
592.25	1622.69
592.60	1611.03
592.95	1599.89
593.30	1587.68
593.65	1575.80
594.00	1564.01
594.35	1554.12
594.70	1542.31
595.05	1531.04
595.40	1518.82
595.75	1506.92
596.10	1495.40
596.45	1483.99
596.80	1473.09
597.15	1461.49
597.50	1449.39
597.85	1437.79
598.19	1426.28
598.54	1414.77
598.89	1403.50
599.24	1392.92
599.59	1381.20
599.94	1370.35
600.29	1359.77
600.64	1349.55
600.99	1338.88
601.34	1329.07
601.69	1317.84
602.04	1308.11
602.39	1298.09
602.74	1288.73
603.08	1279.62
603.43	1270.22
603.78	1260.34
604.13	1250.49
604.48	1240.87
604.83	1231.35
605.18	1221.74
605.53	1212.15
605.87	1202.93
606.22	1194.30
606.57	1184.86
606.92	1175.18
607.27	1166.47
607.62	1157.86
607.96	1149.08
608.31	1140.73
608.66	1132.20
609.01	1123.47
609.36	1114.68
609.70	1106.23
610.05	1097.65
610.40	1088.72
610.75	1079.89
611.10	1071.58
611.44	1063.12
611.79	1054.77
612.14	1046.69
612.49	1038.74
612.83	1031.15
613.18	1023.32
613.53	1015.50
613.88	1007.39
614.22	999.76
614.57	991.41
614.92	983.50
615.27	976.04
615.61	968.47
615.96	960.59
616.31	953.02
616.65	945.82
617.00	938.46
617.35	931.07
617.70	924.19
618.04	917.12
618.39	910.10
618.74	903.62
619.08	896.74
619.43	889.60
619.78	882.57
620.12	875.32
620.47	868.25
620.82	861.14
621.16	854.40
621.51	848.02
621.85	841.74
622.20	834.93
622.55	828.20
622.89	821.70
623.24	815.28
623.59	808.83
623.93	802.68
624.28	796.40
624.62	790.70
624.97	784.39
625.32	778.64
625.66	772.54
626.01	766.19
626.35	760.58
626.70	755.08
627.04	749.88
627.39	744.25
627.73	738.90
628.08	733.51
628.43	728.07
628.77	722.56
629.12	717.16
629.46	712.23
629.81	707.51
630.15	702.60
630.50	697.81
630.84	692.91
631.19	687.82
631.53	683.20
631.88	677.90
632.22	673.15
632.57	668.65
632.91	663.84
633.26	659.47
633.60	654.81
633.95	650.20
634.29	645.18
634.64	640.75
634.98	636.20
635.32	631.79
635.67	627.62
636.01	623.42
636.36	619.12
636.70	615.08
637.05	610.81
637.39	606.78
637.73	602.50
638.08	598.55
638.42	594.45
638.77	590.15
639.11	585.81
639.45	581.56
639.80	577.01
640.14	573.06
640.49	568.95
640.83	565.04
641.17	561.33
641.52	557.53
641.86	553.87
642.20	550.53
642.55	546.75
642.89	543.12
643.23	539.57
643.58	536.27
643.92	532.59
644.26	529.08
644.61	525.60
644.95	522.26
645.29	518.80
645.64	515.60
645.98	512.48
646.32	509.51
646.66	506.33
647.01	503.40
647.35	500.53
647.69	497.59
648.04	494.77
648.38	491.83
648.72	489.05
649.06	485.99
649.41	482.77
649.75	479.87
650.09	476.97
650.43	474.00
650.78	471.14
651.12	468.29
651.46	465.47
651.80	462.69
652.14	460.03
652.49	457.45
652.83	454.80
653.17	452.05
653.51	449.19
653.85	446.83
654.20	444.32
654.54	441.70
654.88	439.09
655.22	436.75
655.56	434.25
655.90	431.74
656.25	429.44
656.59	427.15
656.93	424.96
657.27	422.93
657.61	420.61
657.95	418.34
658.29	416.22
658.64	414.14
658.98	411.88
659.32	409.59
659.66	407.36
660.00	405.23
660.34	403.16
660.68	401.25
661.02	399.12
661.36	397.11
661.70	395.19
662.05	393.25
662.39	391.22
662.73	389.44
663.07	387.89
663.41	386.11
663.75	384.26
664.09	382.38
664.43	380.32
664.77	378.58
665.11	376.79
665.45	375.05
665.79	373.27
666.13	371.63
666.47	370.00
666.81	368.38
667.15	366.61
667.49	365.17
667.83	363.92
668.17	362.50
668.51	360.94
668.85	359.60
669.19	358.45
669.53	357.03
669.87	355.45
670.21	353.80
670.55	352.43
670.89	351.35
671.23	349.99
671.57	348.54
671.91	347.26
672.25	345.98
672.58	344.82
672.92	343.44
673.26	342.18
673.60	341.01
673.94	339.90
674.28	338.95
674.62	337.69
674.96	336.25
675.30	335.12
675.64	333.97
675.97	332.74
676.31	331.35
676.65	330.05
676.99	329.08
677.33	328.01
677.67	326.81
678.01	325.46
678.34	324.45
678.68	323.59
679.02	322.51
679.36	321.61
679.70	320.48
680.04	319.59
680.37	318.61
680.71	317.75
681.05	316.82
681.39	315.87
681.73	314.98
682.06	314.10
682.40	313.21
682.74	312.49
683.08	311.79
683.42	310.97
683.75	310.27
684.09	309.38
684.43	308.44
684.77	307.64
685.10	306.82
685.44	306.01
685.78	305.18
686.12	304.44
686.45	303.56
686.79	302.79
687.13	302.17
687.46	301.45
687.80	300.70
688.14	299.80
688.48	298.99
688.81	298.22
689.15	297.65
689.49	296.85
689.82	296.02
690.16	295.03
690.50	294.34
690.83	293.54
691.17	292.69
691.51	292.09
691.84	291.51
692.18	290.83
692.52	290.11
692.85	289.54
693.19	289.10
693.52	288.44
693.86	287.75
694.20	287.00
694.53	286.43
694.87	285.70
695.21	285.09
695.54	284.46
695.88	283.73
696.21	282.90
696.55	282.29
696.88	281.63
697.22	281.07
697.56	280.45
697.89	279.81
698.23	279.44
698.56	278.84
698.90	278.33
699.23	277.86
699.57	277.34
699.90	276.69
700.24	275.93
700.58	275.44
700.91	275.06
701.25	274.90
701.58	274.67
701.92	274.37
702.25	274.00
702.59	273.55
702.92	273.24
703.26	272.91
703.59	272.46
703.93	272.51
704.26	272.14
704.60	271.74
704.93	271.34
705.26	270.75
705.60	270.45
705.93	269.89
706.27	269.53
706.60	269.22
706.94	269.03
707.27	268.67
707.61	268.40
707.94	267.98
708.27	267.25
708.61	266.53
708.94	266.07
709.28	265.66
709.61	265.20
709.94	264.80
710.28	264.40
710.61	264.20
710.95	263.40
711.28	263.34
711.61	263.00
711.95	262.81
712.28	262.51
712.61	262.12
712.95	262.11
713.28	262.00
713.61	261.55
713.95	261.05
714.28	260.74
714.61	260.30
714.95	259.93
715.28	259.60
715.61	259.30
715.95	259.03
716.28	258.65
716.61	258.48
716.95	258.13
717.28	257.85
717.61	257.45
717.94	257.14
718.28	256.45
718.61	256.10
718.94	255.74
719.27	255.45
719.61	255.27
719.94	254.82
720.27	254.24
720.60	254.07
720.94	253.91
721.27	253.68
721.60	253.54
721.93	253.30
722.27	253.16
722.60	253.02
722.93	252.68
723.26	252.51
723.59	252.17
723.93	252.10
724.26	251.84
724.59	251.58
724.92	251.36
725.25	251.36
725.59	251.20
725.92	251.06
726.25	250.92
726.58	250.66
726.91	250.48
727.24	250.34
727.57	250.10
727.91	249.77
728.24	249.60
728.57	249.36
728.90	249.19
729.23	248.92
729.56	248.97
729.89	248.78
730.22	248.52
730.55	248.38
730.89	248.10
731.22	247.90
731.55	247.70
731.88	247.59
732.21	247.32
732.54	247.11
732.87	246.84
733.20	246.69
733.53	246.60
733.86	246.57
734.19	246.41
734.52	246.26
734.85	246.50
735.18	246.25
735.51	246.21
735.84	246.10
736.17	246.05
736.50	245.63
736.83	246.10
737.16	246.03
737.49	245.94
737.82	245.77
738.15	245.74
738.48	245.66
738.81	245.50
739.14	245.29
739.47	245.07
739.80	244.96
740.13	244.85
740.46	244.65
740.79	244.30
741.12	244.15
741.45	243.95
741.78	243.47
742.11	243.46
742.44	243.18
742.77	243.02
743.10	242.73
743.43	242.51
743.75	241.75
744.08	242.22
744.41	242.00
744.74	241.84
745.07	241.54
745.40	241.47
745.73	241.49
746.06	241.36
746.39	241.30
746.71	241.01
747.04	240.80
747.37	240.58
747.70	240.52
748.03	240.41
748.36	240.35
748.68	240.26
749.01	240.00
749.34	239.88
749.67	239.80
750.00	239.86
750.33	240.11
750.65	240.10
750.98	239.35
751.31	239.20
751.64	239.12
751.97	239.28
752.29	239.09
752.62	238.76
752.95	238.65
753.28	238.50
753.60	238.45
753.93	238.46
754.26	238.36
754.59	238.16
754.91	237.99
755.24	237.88
755.57	237.82
755.90	237.71
756.22	237.51
756.55	237.35
756.88	237.09
757.20	236.68
757.53	236.49
757.86	236.43
758.19	236.42
758.51	236.33
758.84	236.05
759.17	235.93
759.49	235.86
759.82	236.01
760.15	235.92
760.47	235.91
760.80	235.68
761.13	235.66
761.45	235.54
761.78	235.45
762.11	235.32
762.43	235.07
762.76	234.97
763.08	235.02
763.41	234.99
763.74	234.86
764.06	234.79
764.39	234.74
764.71	234.66
765.04	234.53
765.37	234.44
765.69	234.35
766.02	234.24
766.34	234.11
766.67	233.83
767.00	233.87
767.32	233.99
767.65	234.21
767.97	234.14
768.30	234.04
768.62	233.98
768.95	233.98
769.27	234.00
769.60	234.06
769.92	233.98
770.25	233.86
770.57	233.79
770.90	233.68
771.22	233.52
771.55	233.46
771.87	233.45
772.20	233.38
772.52	233.77
772.85	234.26
773.17	234.24
773.50	234.17
773.82	234.05
774.15	233.81
774.47	233.50
774.80	233.46
775.12	233.40
775.45	233.28
775.77	233.22
776.09	233.12
776.42	233.03
776.74	233.11
777.07	233.05
777.39	233.05
777.72	232.94
778.04	232.97
778.36	232.87
778.69	232.81
779.01	232.81
779.33	232.28
779.66	231.72
779.98	231.66
780.31	231.63
780.63	231.80
780.95	231.87
781.28	231.79
781.60	231.63
781.92	231.70
782.25	231.74
782.57	231.60
782.89	231.56
783.22	231.48
783.54	231.31
783.86	231.30
784.19	231.16
784.51	231.30
784.83	231.19
785.16	231.10
785.48	231.07
785.80	230.99
786.12	230.97
786.45	230.97
786.77	230.98
787.09	230.90
787.42	230.72
787.74	230.60
788.06	230.58
788.38	230.60
788.71	230.54
789.03	230.45
789.35	230.51
789.67	230.46
789.99	230.46
790.32	230.40
790.64	230.38
790.96	230.74
791.28	230.54
791.61	230.48
791.93	230.51
792.25	230.43
792.57	230.76
792.89	230.64
793.21	230.68
793.54	230.62
793.86	230.54
794.18	230.49
794.50	230.37
794.82	230.41
795.14	230.41
795.47	230.46
795.79	230.47
796.11	230.44
796.43	230.38
796.75	230.36
797.07	230.37
797.39	230.38
797.71	230.12
798.04	230.20
798.36	230.22
798.68	230.22
799.00	230.26
799.32	229.92
799.64	230.10
799.96	230.04
800.28	230.10
800.60	230.07
800.92	230.13
801.24	230.15
801.56	230.18
801.89	230.15
802.21	230.12
802.53	230.02
802.85	230.05
803.17	230.32
803.49	230.26
803.81	230.21
804.13	230.15
804.45	230.08
804.77	230.05
805.09	230.03
805.41	229.94
805.73	229.84
806.05	229.78
806.37	229.74
806.69	229.65
807.01	229.61
807.33	229.71
807.65	229.51
807.97	229.74
808.28	229.56
808.60	229.52
808.92	229.45
809.24	229.75
809.56	229.64
809.88	229.41
810.20	229.33
810.52	229.48
810.84	229.31
811.16	229.31
811.48	229.24
811.80	229.40
812.12	229.47
812.43	229.55
812.75	229.57
813.07	229.47
813.39	229.50
813.71	229.45
814.03	229.35
814.35	229.36
814.67	229.16
814.98	229.11
815.30	229.09
815.62	228.95
815.94	228.57
816.26	228.78
816.58	228.65
816.89	228.70
817.21	228.47
817.53	228.59
817.85	228.59
818.17	228.55
818.48	228.34
818.80	228.36
819.12	228.23
819.44	228.17
819.76	228.08
820.07	228.01
820.39	227.93
820.71	227.90
821.03	227.95
821.34	227.85
821.66	227.91
821.98	227.95
822.30	227.99
822.61	228.30
822.93	228.05
823.25	228.04
823.57	227.98
823.88	228.07
824.20	228.06
824.52	228.06
824.83	228.07
825.15	228.01
825.47	227.81
825.79	227.92
826.10	227.84
826.42	227.83
826.74	227.86
827.05	227.87
827.37	227.95
827.69	227.84
828.00	227.84
828.32	227.90
828.64	227.85
828.95	228.11
829.27	228.03
829.58	228.01
829.90	228.08
830.22	228.10
830.53	228.02
830.85	227.93
831.17	227.82
831.48	227.89
831.80	227.94
832.11	228.06
832.43	227.90
832.75	227.92
833.06	228.20
833.38	228.15
833.69	228.09
834.01	228.13
834.32	228.11
834.64	228.12
834.96	228.08
835.27	228.05
835.59	227.90
835.90	227.80
836.22	227.88
836.53	227.84
836.85	227.79
837.16	228.24
837.48	228.25
837.79	228.38
838.11	228.32
838.42	228.31
838.74	228.25
839.05	228.27
839.37	228.29
839.68	228.03
840.00	227.96
840.31	228.09
840.63	227.98
840.94	227.93
841.26	227.81
841.57	227.77
841.88	227.79
842.20	227.70
842.51	227.60
842.83	227.58
843.14	227.93
843.46	227.95
843.77	227.70
844.08	227.73
844.40	227.65
844.71	227.59
845.03	227.51
845.34	227.55
845.65	227.55
845.97	227.53
846.28	227.53
846.60	227.59
846.91	227.46
847.22	227.45
847.54	227.59
847.85	227.68
848.16	227.62
848.48	227.58
848.79	227.77
849.10	227.84
849.42	227.80
849.73	227.45
850.04	227.40
850.36	227.24
850.67	227.33
850.98	227.28
851.30	227.30
851.61	227.35
851.92	227.41
852.23	227.51
852.55	227.51
852.86	227.60
853.17	227.60
853.49	227.71
853.80	227.82
854.11	227.85
854.42	227.90
854.74	227.91
855.05	227.96
855.36	227.69
855.67	227.74
855.99	227.73
856.30	228.23
856.61	228.29
856.92	228.33
857.23	228.26
857.55	228.23
857.86	228.27
858.17	228.29
858.48	228.14
858.79	228.10
859.11	228.24
859.42	228.16
859.73	228.18
860.04	228.17
860.35	228.07
860.66	227.89
860.98	227.85
861.29	227.95
861.60	227.89
861.91	228.03
862.22	227.94
862.53	227.89
862.84	227.35
863.16	227.46
863.47	227.31
863.78	227.31
864.09	227.45
864.40	227.48
864.71	227.55
865.02	227.65
865.33	227.52
865.64	227.36
865.95	227.37
866.27	227.63
866.58	227.60
866.89	227.62
867.20	227.63
867.51	227.56
867.82	227.45
868.13	227.63
868.44	227.45
868.75	227.56
869.06	227.55
869.37	227.64
869.68	227.47
869.99	227.59
870.30	227.56
870.61	227.51
870.92	227.43
871.23	227.35
871.54	227.42
871.85	227.58
872.16	227.64
872.47	227.53
872.78	227.24
873.09	227.23
873.40	227.21
873.71	227.28
874.02	227.35
874.33	227.30
874.64	227.16
874.95	227.28
875.26	227.17
875.56	227.15
875.87	227.03
876.18	227.06
876.49	227.46
876.80	227.49
877.11	227.39
877.42	227.41
877.73	227.41
878.04	227.38
878.35	227.42
878.66	227.44
878.96	227.55
879.27	227.51
879.58	227.52
879.89	227.51
880.20	227.67
880.51	227.68
880.82	227.71
881.12	227.70
881.43	227.56
881.74	227.53
882.05	227.50
882.36	227.64
882.67	227.65
882.97	227.15
883.28	227.07
883.59	227.10
883.90	227.16
884.21	227.17
884.51	227.08
884.82	226.95
885.13	226.92
885.44	226.86
885.74	226.95
886.05	226.89
886.36	226.83
886.67	226.63
886.98	226.81
887.28	226.85
887.59	226.87
887.90	226.96
888.20	226.90
888.51	227.07
888.82	226.96
889.13	226.92
889.43	227.37
889.74	227.37
890.05	227.35
890.35	227.25
890.66	227.17
890.97	227.13
891.28	227.07
891.58	227.02
891.89	227.01
892.20	226.89
892.50	226.94
892.81	226.94
893.12	226.96
893.42	226.66
893.73	226.67
894.04	226.68
894.34	226.75
894.65	226.81
894.95	226.73
895.26	226.75
895.57	226.99
895.87	226.51
896.18	226.60
896.48	226.55
896.79	226.55
897.10	226.63
897.40	226.66
897.71	226.76
898.01	226.81
898.32	226.94
898.63	226.89
898.93	226.89
899.24	227.01
899.54	226.94
899.85	226.98
900.15	226.98
900.46	226.93
900.76	226.91
901.07	226.84
901.38	226.75
901.68	226.73
901.99	226.59
902.29	226.56
902.60	226.47
902.90	226.49
903.21	226.50
903.51	226.47
903.82	226.53
904.12	226.47
904.43	226.55
904.73	226.48
905.03	226.57
905.34	227.02
905.64	226.91
905.95	226.97
906.25	226.94
906.56	226.90
906.86	226.92
907.17	226.92
907.47	226.99
907.77	227.08
908.08	227.03
908.38	227.03
908.69	227.15
908.99	227.29
909.30	227.32
909.60	227.34
909.90	227.38
910.21	227.29
910.51	227.23
910.81	227.19
911.12	227.18
911.42	227.18
911.73	226.70
912.03	226.77
912.33	226.86
912.64	226.89
912.94	226.86
913.24	226.76
913.55	226.75
913.85	226.73
914.15	226.74
914.46	226.82
914.76	226.72
915.06	226.64
915.37	226.54
915.67	226.43
915.97	226.42
916.27	226.34
916.58	226.29
916.88	226.31
917.18	226.25
917.49	226.52
917.79	226.48
918.09	226.52
918.39	226.52
918.70	226.44
919.00	226.45
919.30	226.71
919.60	226.73
919.91	226.70
920.21	226.67
920.51	226.61
920.81	226.53
921.12	226.64
921.42	226.72
921.72	226.77
922.02	226.83
922.32	226.83
922.63	226.85
922.93	227.09
923.23	227.17
923.53	227.10
923.83	226.85
924.13	226.91
924.44	226.92
924.74	227.01
925.04	227.11
925.34	227.10
925.64	226.89
925.94	226.87
926.24	227.10
926.55	227.05
926.85	227.07
927.15	227.09
927.45	227.08
927.75	226.97
928.05	226.94
928.35	226.94
928.65	227.03
928.95	227.01
929.26	226.88
929.56	226.89
929.86	226.93
930.16	226.87
930.46	226.82
930.76	226.86
931.06	226.66
931.36	226.61
931.66	226.70
931.96	226.73
932.26	226.81
932.56	226.55
932.86	226.60
933.16	226.64
933.46	226.65
933.76	226.59
934.06	226.72
934.36	226.84
934.66	226.81
934.96	226.76
935.26	226.82
935.56	226.90
935.86	226.71
936.16	226.66
936.46	226.65
936.76	226.57
937.06	226.56
937.36	226.57
937.66	226.50
937.96	226.46
938.26	226.35
938.56	226.26
938.86	226.33
939.16	226.41
939.46	226.47
939.76	226.48
940.06	226.39
940.35	226.30
940.65	226.11
940.95	226.10
941.25	225.95
941.55	225.93
941.85	225.83
942.15	226.03
942.45	226.18
942.75	226.18
943.04	226.23
943.34	226.22
943.64	226.23
943.94	226.18
944.24	226.16
944.54	226.21
944.84	226.27
945.13	226.20
945.43	226.10
945.73	226.13
946.03	226.05
946.33	226.12
946.62	226.08
946.92	226.04
947.22	226.14
947.52	226.12
947.82	226.09
948.11	226.01
948.41	225.92
948.71	225.81
949.01	225.84
949.31	225.84
949.60	225.85
949.90	225.87
950.20	225.92
950.50	225.91
950.79	225.85
951.09	225.86
951.39	225.88
951.69	225.94
951.98	225.97
952.28	226.01
952.58	225.97
952.87	226.00
953.17	226.09
953.47	226.06
953.76	226.16
954.06	226.14
954.36	226.19
954.66	226.17
954.95	226.27
955.25	226.33
955.55	226.37
955.84	226.28
956.14	226.31
956.44	226.26
956.73	226.23
957.03	226.26
957.32	226.30
957.62	226.29
957.92	226.37
958.21	226.30
958.51	226.82
958.81	226.89
959.10	226.93
959.40	227.06
959.69	227.09
959.99	227.14
960.29	227.12
960.58	227.04
960.88	227.20
961.17	227.13
961.47	227.24
961.76	227.21
962.06	227.25
962.36	227.17
962.65	227.25
962.95	227.28
963.24	227.20
963.54	227.15
963.83	227.19
964.13	227.05
964.42	226.93
964.72	226.54
965.01	226.53
965.31	226.46
965.60	226.36
965.90	226.63
966.19	226.50
966.49	226.54
966.78	226.54
967.08	226.50
967.37	226.47
967.67	226.25
967.96	226.31
968.26	226.30
968.55	226.37
968.85	226.34
969.14	226.32
969.43	226.35
969.73	226.26
970.02	226.23
970.32	226.22
970.61	226.15
970.91	226.04
971.20	226.00
971.49	225.96
971.79	225.99
972.08	225.59
972.38	225.68
972.67	225.67
972.96	225.79
973.26	225.70
973.55	225.95
973.85	225.95
974.14	225.90
974.43	225.96
974.73	225.86
975.02	225.83
975.31	225.82
975.61	225.90
975.90	225.89
976.19	225.86
976.49	225.88
976.78	225.99
977.07	225.98
977.37	225.98
977.66	226.08
977.95	226.00
978.24	226.12
978.54	226.24
978.83	226.20
979.12	226.13
979.42	226.12
979.71	225.95
980.00	225.99
980.29	226.00
980.59	225.90
980.88	226.08
981.17	226.09
981.46	226.08
981.76	226.06
982.05	226.27
982.34	226.28
982.63	226.33
982.93	226.35
983.22	226.51
983.51	226.51
983.80	226.60
984.09	226.62
984.39	226.68
984.68	226.58
984.97	226.67
985.26	226.67
985.55	226.75
985.85	226.65
986.14	226.75
986.43	226.84
986.72	226.84
987.01	226.72
987.30	226.75
987.59	226.77
987.89	226.78
988.18	226.68
988.47	226.69
988.76	226.65
989.05	226.64
989.34	226.56
989.63	226.78
989.92	226.63
990.22	226.67
990.51	226.56
990.80	226.51
991.09	226.56
991.38	226.61
991.67	226.55
991.96	226.57
992.25	226.59
992.54	226.52
992.83	226.49
993.12	226.51
993.41	226.53
993.70	226.70
993.99	226.80
994.28	226.87
994.58	226.85
994.87	226.79
995.16	226.75
995.45	226.79
995.74	226.65
996.03	226.73
996.32	226.78
996.61	226.90
996.90	226.91
997.19	226.87
997.48	226.87
997.77	226.83
998.06	226.89
998.34	226.83
998.63	226.79
998.92	226.85
999.21	226.89
999.50	226.88
999.79	226.70
1000.08	226.63
1000.37	226.56
1000.66	226.58
1000.95	226.69
1001.24	226.74
1001.53	226.70
1001.82	226.63
1002.11	226.55
1002.40	226.56
1002.68	226.67
1002.97	226.97
1003.26	226.79
1003.55	226.77
1003.84	226.81
1004.13	226.94
1004.42	226.91
1004.71	226.90
1004.99	226.85
1005.28	226.94
1005.57	226.92
1005.86	226.87
1006.15	226.76
1006.44	226.73
1006.72	226.73
1007.01	226.69
1007.30	226.67
1007.59	226.67
1007.88	226.63
1008.17	226.57
1008.45	226.50
1008.74	226.30
1009.03	226.13
1009.32	226.24
1009.60	226.20
1009.89	226.19
1010.18	225.92
1010.47	225.87
1010.76	225.83
1011.04	225.80
1011.33	225.77
1011.62	225.74
1011.91	225.74
1012.19	225.85
1012.48	225.85
1012.77	225.81
1013.05	226.02
1013.34	225.96
1013.63	225.90
1013.92	225.94
1014.20	225.96
1014.49	225.95
1014.78	225.91
1015.06	225.72
1015.35	225.69
1015.64	225.70
1015.92	225.73
1016.21	225.77
1016.50	225.83
1016.78	225.93
1017.07	225.98
1017.36	225.88
1017.64	225.81
1017.93	225.88
1018.22	225.87
1018.50	225.86
1018.79	225.82
1019.08	225.59
1019.36	225.70
1019.65	225.60
1019.93	225.76
1020.22	225.79
1020.51	226.04
1020.79	226.08
1021.08	226.25
1021.36	224.95
1021.65	224.40
1021.94	225.70
1022.22	226.95
1022.51	224.20
1022.79	228.80
1023.08	226.00
1023.36	231.65
1023.65	225.60
>>>>>End Processed Spectral Data<<<<<
