SpectraSuite Data File
++++++++++++++++++++++++++++++++++++
Date: Wed Sep 04 17:48:27 EDT 2013
User: lab3
Dark Spectrum Present: Yes
Reference Spectrum Present: No
Number of Sampled Component Spectra: 1
Spectrometers: USB2E7196
Integration Time (usec): 170000 (USB2E7196)
Spectra Averaged: 20 (USB2E7196)
Boxcar Smoothing: 10 (USB2E7196)
Correct for Electrical Dark: No (USB2E7196)
Strobe/Lamp Enabled: No (USB2E7196)
Correct for Detector Non-linearity: No (USB2E7196)
Correct for Stray Light: No (USB2E7196)
Number of Pixels in Processed Spectrum: 2048
>>>>>Begin Processed Spectral Data<<<<<
339.09	0.00
339.48	212.40
339.86	213.05
340.24	215.60
340.63	217.35
341.01	225.40
341.39	220.10
341.78	222.50
342.16	224.75
342.54	222.60
342.93	211.82
343.31	222.48
343.69	223.03
344.07	223.57
344.46	224.10
344.84	224.48
345.22	224.43
345.60	224.73
345.99	224.89
346.37	224.92
346.75	225.02
347.13	225.15
347.52	225.29
347.90	225.51
348.28	225.59
348.66	225.69
349.05	225.60
349.43	225.64
349.81	225.70
350.19	225.82
350.57	225.97
350.96	226.07
351.34	226.17
351.72	226.29
352.10	226.40
352.48	226.39
352.87	226.38
353.25	226.49
353.63	226.50
354.01	226.52
354.39	226.55
354.77	226.65
355.15	226.80
355.54	226.82
355.92	226.75
356.30	226.81
356.68	227.17
357.06	227.27
357.44	227.19
357.82	227.22
358.20	227.60
358.58	227.57
358.97	227.62
359.35	227.84
359.73	227.96
360.11	227.97
360.49	228.03
360.87	228.16
361.25	228.25
361.63	228.42
362.01	228.50
362.39	228.62
362.77	228.70
363.15	228.66
363.53	228.66
363.91	228.74
364.29	228.81
364.67	228.40
365.05	228.51
365.43	228.68
365.81	228.81
366.19	228.65
366.57	228.93
366.95	228.88
367.33	228.74
367.71	228.70
368.09	228.82
368.47	228.83
368.85	228.79
369.23	228.90
369.61	228.71
369.99	228.83
370.37	228.91
370.75	229.14
371.13	229.09
371.51	229.09
371.89	229.12
372.27	229.08
372.65	229.06
373.03	229.02
373.41	228.98
373.78	228.89
374.16	228.63
374.54	228.50
374.92	228.45
375.30	228.38
375.68	228.30
376.06	228.22
376.44	228.14
376.82	228.13
377.19	227.95
377.57	227.90
377.95	227.77
378.33	227.56
378.71	227.15
379.09	227.14
379.47	227.00
379.84	226.83
380.22	226.80
380.60	226.69
380.98	226.53
381.36	226.44
381.73	226.32
382.11	226.36
382.49	226.30
382.87	226.20
383.25	226.15
383.62	226.69
384.00	226.58
384.38	226.53
384.76	226.62
385.13	226.80
385.51	226.74
385.89	226.59
386.27	226.56
386.64	226.55
387.02	226.46
387.40	226.44
387.78	226.45
388.15	226.30
388.53	226.23
388.91	226.25
389.29	226.18
389.66	226.17
390.04	226.10
390.42	226.05
390.79	226.06
391.17	226.05
391.55	225.46
391.92	225.44
392.30	225.49
392.68	225.25
393.05	225.17
393.43	225.25
393.81	225.21
394.18	225.19
394.56	225.32
394.94	225.42
395.31	225.38
395.69	225.62
396.06	225.74
396.44	225.81
396.82	225.84
397.19	226.06
397.57	226.05
397.95	226.24
398.32	226.20
398.70	226.30
399.07	226.51
399.45	226.58
399.82	226.63
400.20	226.66
400.58	226.83
400.95	226.84
401.33	226.96
401.70	227.51
402.08	227.67
402.45	227.81
402.83	228.11
403.20	228.31
403.58	228.32
403.95	228.66
404.33	228.96
404.71	229.17
405.08	229.59
405.46	229.90
405.83	230.05
406.21	230.29
406.58	230.59
406.96	230.85
407.33	231.19
407.70	231.64
408.08	232.41
408.45	232.86
408.83	233.28
409.20	233.68
409.58	233.81
409.95	234.37
410.33	234.83
410.70	235.14
411.08	235.75
411.45	236.40
411.82	236.89
412.20	237.61
412.57	238.60
412.95	239.00
413.32	239.84
413.69	240.73
414.07	241.69
414.44	242.69
414.82	243.66
415.19	244.84
415.56	246.01
415.94	246.95
416.31	248.35
416.68	249.81
417.06	251.44
417.43	253.08
417.81	254.81
418.18	256.62
418.55	258.58
418.93	260.61
419.30	262.62
419.67	264.81
420.04	267.06
420.42	269.37
420.79	272.46
421.16	275.28
421.54	278.21
421.91	281.24
422.28	284.30
422.66	287.53
423.03	290.95
423.40	294.23
423.77	297.77
424.15	301.26
424.52	305.00
424.89	309.14
425.26	313.10
425.64	316.84
426.01	321.02
426.38	325.36
426.75	329.90
427.13	334.49
427.50	339.14
427.87	344.03
428.24	348.72
428.61	353.03
428.99	358.25
429.36	363.69
429.73	368.96
430.10	374.42
430.47	380.01
430.85	385.53
431.22	391.66
431.59	398.30
431.96	404.45
432.33	411.32
432.70	417.90
433.08	425.63
433.45	432.98
433.82	440.28
434.19	448.32
434.56	456.24
434.93	463.84
435.30	471.60
435.68	480.01
436.05	488.48
436.42	496.85
436.79	504.34
437.16	512.51
437.53	521.30
437.90	529.77
438.27	538.24
438.64	546.97
439.01	555.05
439.38	562.19
439.75	569.24
440.13	577.08
440.50	584.51
440.87	590.34
441.24	596.64
441.61	603.53
441.98	608.56
442.35	614.22
442.72	620.31
443.09	626.03
443.46	629.41
443.83	631.77
444.20	633.68
444.57	636.44
444.94	637.62
445.31	638.69
445.68	640.19
446.05	640.38
446.42	639.18
446.79	637.97
447.16	636.39
447.53	635.16
447.90	631.43
448.27	627.71
448.64	623.09
449.01	619.49
449.37	613.41
449.74	607.59
450.11	601.02
450.48	593.24
450.85	585.38
451.22	578.66
451.59	572.07
451.96	565.85
452.33	557.84
452.70	550.61
453.07	542.12
453.43	533.14
453.80	524.86
454.17	517.00
454.54	509.32
454.91	501.30
455.28	493.52
455.65	486.27
456.02	479.55
456.38	473.21
456.75	465.46
457.12	459.00
457.49	452.70
457.86	446.30
458.23	441.22
458.59	435.50
458.96	429.71
459.33	424.67
459.70	419.67
460.07	415.66
460.43	411.02
460.80	406.73
461.17	403.02
461.54	399.05
461.91	395.25
462.27	391.34
462.64	388.10
463.01	384.51
463.38	381.33
463.74	377.40
464.11	374.47
464.48	371.90
464.85	369.08
465.21	366.91
465.58	364.69
465.95	361.78
466.32	359.64
466.68	357.50
467.05	355.32
467.42	353.13
467.78	350.88
468.15	348.70
468.52	347.14
468.88	344.90
469.25	343.06
469.62	341.68
469.98	340.17
470.35	338.66
470.72	337.20
471.08	335.45
471.45	334.18
471.82	332.89
472.18	331.48
472.55	330.45
472.92	329.20
473.28	328.07
473.65	327.10
474.02	325.95
474.38	325.04
474.75	324.27
475.11	323.36
475.48	322.59
475.85	321.93
476.21	321.15
476.58	320.65
476.94	320.24
477.31	319.72
477.67	319.25
478.04	318.95
478.41	318.84
478.77	319.08
479.14	318.76
479.50	318.69
479.87	318.64
480.23	318.62
480.60	318.51
480.96	318.50
481.33	318.90
481.69	319.15
482.06	319.40
482.42	319.66
482.79	320.00
483.15	320.49
483.52	321.18
483.88	321.74
484.25	322.36
484.61	322.97
484.98	323.55
485.34	324.47
485.71	325.43
486.07	326.38
486.44	327.03
486.80	328.21
487.17	329.33
487.53	330.76
487.90	332.10
488.26	333.87
488.62	335.57
488.99	337.03
489.35	338.76
489.72	340.59
490.08	342.50
490.44	344.64
490.81	346.83
491.17	348.98
491.54	351.48
491.90	354.04
492.26	356.78
492.63	359.66
492.99	362.48
493.36	365.49
493.72	368.80
494.08	372.15
494.45	375.84
494.81	379.65
495.17	383.44
495.54	387.69
495.90	391.75
496.26	396.09
496.63	400.69
496.99	405.53
497.35	410.55
497.72	415.86
498.08	421.21
498.44	426.90
498.80	433.05
499.17	439.04
499.53	445.20
499.89	451.84
500.26	458.68
500.62	465.73
500.98	473.09
501.34	480.37
501.71	488.18
502.07	495.97
502.43	504.23
502.79	512.70
503.16	521.36
503.52	530.34
503.88	539.56
504.24	549.29
504.60	559.29
504.97	569.65
505.33	580.14
505.69	591.29
506.05	602.20
506.41	613.20
506.78	624.95
507.14	636.99
507.50	649.13
507.86	661.62
508.22	674.48
508.59	687.44
508.95	700.97
509.31	714.87
509.67	729.02
510.03	743.11
510.39	757.85
510.75	772.69
511.12	787.80
511.48	803.38
511.84	818.95
512.20	834.77
512.56	850.86
512.92	867.53
513.28	884.09
513.64	901.20
514.00	918.64
514.37	936.16
514.73	954.16
515.09	972.36
515.45	990.59
515.81	1008.84
516.17	1027.53
516.53	1046.18
516.89	1064.86
517.25	1083.94
517.61	1104.02
517.97	1123.96
518.33	1143.92
518.69	1164.07
519.05	1184.63
519.41	1205.15
519.77	1225.96
520.13	1246.40
520.49	1266.71
520.85	1288.65
521.21	1309.46
521.57	1330.31
521.93	1350.76
522.29	1371.72
522.65	1392.00
523.01	1412.41
523.37	1432.89
523.73	1453.79
524.09	1474.11
524.45	1494.60
524.81	1515.20
525.17	1535.54
525.53	1555.81
525.89	1576.31
526.25	1596.87
526.61	1616.58
526.97	1637.29
527.33	1658.19
527.68	1680.05
528.04	1701.12
528.40	1720.48
528.76	1741.45
529.12	1761.69
529.48	1782.33
529.84	1801.97
530.20	1822.97
530.56	1843.58
530.91	1864.24
531.27	1884.07
531.63	1904.38
531.99	1924.68
532.35	1944.45
532.71	1964.24
533.07	1984.65
533.42	2003.81
533.78	2023.19
534.14	2042.63
534.50	2061.33
534.86	2080.34
535.21	2097.29
535.57	2115.26
535.93	2132.85
536.29	2150.11
536.65	2168.44
537.00	2185.69
537.36	2203.11
537.72	2219.11
538.08	2236.24
538.44	2252.71
538.79	2268.79
539.15	2284.60
539.51	2300.17
539.87	2315.07
540.22	2329.00
540.58	2343.06
540.94	2356.66
541.29	2369.38
541.65	2381.80
542.01	2394.02
542.37	2404.31
542.72	2415.12
543.08	2425.72
543.44	2437.17
543.79	2446.98
544.15	2456.11
544.51	2465.94
544.87	2475.09
545.22	2483.93
545.58	2491.24
545.94	2497.82
546.29	2504.16
546.65	2510.46
547.01	2515.75
547.36	2521.27
547.72	2526.54
548.07	2529.93
548.43	2534.93
548.79	2539.09
549.14	2543.26
549.50	2546.92
549.86	2550.57
550.21	2553.96
550.57	2557.07
550.92	2557.91
551.28	2559.32
551.64	2561.35
551.99	2562.70
552.35	2564.14
552.70	2565.84
553.06	2567.02
553.41	2568.16
553.77	2569.63
554.13	2571.13
554.48	2572.42
554.84	2573.62
555.19	2574.31
555.55	2576.13
555.90	2575.11
556.26	2574.34
556.61	2572.63
556.97	2570.17
557.32	2569.11
557.68	2567.82
558.03	2566.06
558.39	2564.62
558.74	2563.22
559.10	2559.73
559.45	2556.37
559.81	2551.51
560.16	2546.23
560.52	2541.75
560.87	2537.27
561.23	2531.90
561.58	2525.83
561.94	2519.03
562.29	2511.36
562.64	2504.42
563.00	2495.81
563.35	2489.10
563.71	2482.11
564.06	2475.64
564.42	2469.37
564.77	2462.41
565.12	2454.79
565.48	2447.13
565.83	2439.06
566.19	2431.25
566.54	2423.67
566.89	2415.31
567.25	2408.03
567.60	2400.61
567.96	2392.99
568.31	2384.83
568.66	2376.12
569.02	2367.28
569.37	2359.09
569.72	2351.56
570.08	2342.08
570.43	2332.63
570.78	2323.64
571.14	2314.39
571.49	2304.15
571.84	2294.40
572.20	2283.61
572.55	2273.70
572.90	2262.85
573.26	2253.04
573.61	2242.01
573.96	2230.91
574.31	2219.23
574.67	2207.14
575.02	2194.88
575.37	2181.92
575.72	2169.00
576.08	2157.21
576.43	2144.66
576.78	2131.65
577.13	2118.03
577.49	2105.65
577.84	2093.83
578.19	2082.03
578.54	2069.71
578.90	2058.00
579.25	2045.76
579.60	2033.51
579.95	2020.59
580.30	2007.58
580.66	1994.10
581.01	1980.56
581.36	1966.76
581.71	1954.32
582.06	1941.73
582.42	1929.29
582.77	1916.99
583.12	1905.17
583.47	1892.75
583.82	1881.18
584.17	1869.68
584.53	1858.40
584.88	1845.77
585.23	1833.21
585.58	1819.21
585.93	1806.20
586.28	1793.00
586.63	1779.22
586.98	1765.35
587.34	1752.54
587.69	1739.66
588.04	1727.36
588.39	1715.69
588.74	1703.57
589.09	1691.69
589.44	1679.24
589.79	1667.23
590.14	1655.63
590.49	1643.70
590.84	1631.74
591.19	1619.60
591.54	1607.28
591.89	1595.08
592.25	1585.00
592.60	1573.63
592.95	1562.43
593.30	1550.77
593.65	1538.78
594.00	1527.06
594.35	1517.52
594.70	1505.80
595.05	1494.81
595.40	1483.00
595.75	1470.87
596.10	1460.03
596.45	1448.65
596.80	1438.05
597.15	1426.84
597.50	1415.10
597.85	1404.07
598.19	1392.68
598.54	1381.30
598.89	1370.34
599.24	1359.99
599.59	1348.69
599.94	1338.11
600.29	1327.92
600.64	1317.75
600.99	1307.52
601.34	1298.25
601.69	1287.26
602.04	1277.76
602.39	1268.09
602.74	1259.23
603.08	1250.39
603.43	1241.41
603.78	1232.08
604.13	1222.75
604.48	1213.18
604.83	1203.75
605.18	1194.07
605.53	1185.08
605.87	1176.12
606.22	1167.71
606.57	1158.42
606.92	1149.23
607.27	1140.31
607.62	1131.64
607.96	1123.16
608.31	1115.43
608.66	1107.20
609.01	1098.82
609.36	1090.42
609.70	1081.90
610.05	1073.29
610.40	1064.89
610.75	1056.27
611.10	1047.99
611.44	1039.48
611.79	1031.43
612.14	1023.62
612.49	1016.01
612.83	1008.51
613.18	1000.88
613.53	993.19
613.88	985.64
614.22	978.06
614.57	970.25
614.92	962.51
615.27	954.97
615.61	947.39
615.96	939.85
616.31	932.42
616.65	925.40
617.00	918.22
617.35	911.12
617.70	904.13
618.04	897.29
618.39	890.52
618.74	884.27
619.08	877.79
619.43	870.89
619.78	863.93
620.12	857.01
620.47	850.32
620.82	843.23
621.16	836.55
621.51	830.47
621.85	824.52
622.20	818.16
622.55	811.98
622.89	805.65
623.24	799.51
623.59	793.34
623.93	787.16
624.28	781.38
624.62	775.80
624.97	770.06
625.32	764.38
625.66	758.37
626.01	752.11
626.35	746.55
626.70	741.36
627.04	736.27
627.39	730.79
627.73	725.56
628.08	720.50
628.43	715.20
628.77	709.80
629.12	704.63
629.46	699.92
629.81	695.25
630.15	690.58
630.50	685.69
630.84	680.93
631.19	676.28
631.53	671.77
631.88	666.55
632.22	661.80
632.57	657.34
632.91	652.97
633.26	648.89
633.60	644.36
633.95	639.66
634.29	635.05
634.64	630.77
634.98	626.18
635.32	621.97
635.67	618.00
636.01	613.75
636.36	609.43
636.70	605.35
637.05	601.11
637.39	597.09
637.73	593.22
638.08	589.34
638.42	585.15
638.77	580.80
639.11	576.77
639.45	572.51
639.80	568.19
640.14	564.20
640.49	560.24
640.83	556.48
641.17	552.85
641.52	549.16
641.86	545.62
642.20	542.54
642.55	538.86
642.89	535.28
643.23	531.78
643.58	528.58
643.92	524.98
644.26	521.65
644.61	518.34
644.95	514.88
645.29	511.45
645.64	508.42
645.98	505.50
646.32	502.56
646.66	499.62
647.01	496.75
647.35	494.02
647.69	491.31
648.04	488.68
648.38	486.03
648.72	483.20
649.06	480.18
649.41	477.01
649.75	474.14
650.09	471.30
650.43	468.57
650.78	465.75
651.12	463.00
651.46	460.18
651.80	457.60
652.14	454.91
652.49	452.53
652.83	450.00
653.17	447.41
653.51	444.68
653.85	442.36
654.20	439.77
654.54	437.14
654.88	434.50
655.22	432.15
655.56	429.78
655.90	427.55
656.25	425.39
656.59	423.35
656.93	421.23
657.27	419.24
657.61	416.84
657.95	414.60
658.29	412.45
658.64	410.44
658.98	408.19
659.32	406.09
659.66	403.88
660.00	401.83
660.34	399.76
660.68	397.80
661.02	395.83
661.36	393.96
661.70	391.97
662.05	390.08
662.39	388.00
662.73	386.21
663.07	384.56
663.41	382.67
663.75	380.65
664.09	378.86
664.43	376.83
664.77	375.31
665.11	373.58
665.45	372.09
665.79	370.48
666.13	368.85
666.47	367.21
666.81	365.61
667.15	363.89
667.49	362.31
667.83	361.00
668.17	359.41
668.51	357.95
668.85	356.64
669.19	355.55
669.53	354.20
669.87	352.65
670.21	351.06
670.55	349.73
670.89	348.73
671.23	347.41
671.57	346.15
671.91	344.74
672.25	343.45
672.58	342.14
672.92	340.75
673.26	339.43
673.60	338.30
673.94	337.06
674.28	336.00
674.62	335.00
674.96	333.74
675.30	332.59
675.64	331.43
675.97	330.26
676.31	328.90
676.65	327.66
676.99	326.74
677.33	325.60
677.67	324.59
678.01	323.35
678.34	322.31
678.68	321.42
679.02	320.41
679.36	319.42
679.70	318.45
680.04	317.56
680.37	316.61
680.71	315.68
681.05	314.83
681.39	313.83
681.73	312.80
682.06	311.94
682.40	311.16
682.74	310.39
683.08	309.73
683.42	308.80
683.75	308.08
684.09	307.15
684.43	306.38
684.77	305.53
685.10	304.77
685.44	304.00
685.78	303.18
686.12	302.35
686.45	301.57
686.79	300.74
687.13	300.08
687.46	299.31
687.80	298.65
688.14	297.79
688.48	297.14
688.81	296.42
689.15	295.75
689.49	294.97
689.82	294.30
690.16	293.42
690.50	292.73
690.83	291.99
691.17	291.21
691.51	290.50
691.84	289.89
692.18	289.08
692.52	288.36
692.85	287.73
693.19	287.31
693.52	286.72
693.86	286.12
694.20	285.42
694.53	284.81
694.87	284.10
695.21	283.49
695.54	282.90
695.88	282.25
696.21	281.52
696.55	280.93
696.88	280.26
697.22	279.65
697.56	279.18
697.89	278.67
698.23	278.23
698.56	277.79
698.90	277.36
699.23	276.85
699.57	276.37
699.90	275.79
700.24	275.18
700.58	274.75
700.91	274.36
701.25	274.19
701.58	274.09
701.92	273.79
702.25	273.41
702.59	272.95
702.92	272.56
703.26	272.21
703.59	271.84
703.93	271.95
704.26	271.56
704.60	271.05
704.93	270.52
705.26	269.98
705.60	269.56
705.93	268.94
706.27	268.69
706.60	268.44
706.94	268.26
707.27	267.80
707.61	267.38
707.94	266.90
708.27	266.19
708.61	265.43
708.94	264.95
709.28	264.61
709.61	264.15
709.94	263.71
710.28	263.30
710.61	262.89
710.95	261.98
711.28	261.86
711.61	261.50
711.95	261.28
712.28	260.91
712.61	260.58
712.95	260.60
713.28	260.43
713.61	260.00
713.95	259.50
714.28	259.30
714.61	258.92
714.95	258.55
715.28	258.15
715.61	257.87
715.95	257.58
716.28	257.21
716.61	256.98
716.95	256.62
717.28	256.31
717.61	255.98
717.94	255.67
718.28	255.12
718.61	254.82
718.94	254.48
719.27	254.29
719.61	253.97
719.94	253.45
720.27	252.92
720.60	252.57
720.94	252.33
721.27	252.06
721.60	251.92
721.93	251.74
722.27	251.76
722.60	251.58
722.93	251.30
723.26	251.13
723.59	250.83
723.93	250.80
724.26	250.65
724.59	250.46
724.92	250.28
725.25	250.23
725.59	250.03
725.92	249.92
726.25	249.66
726.58	249.54
726.91	249.39
727.24	249.30
727.57	249.16
727.91	248.90
728.24	248.74
728.57	248.44
728.90	248.34
729.23	247.90
729.56	248.05
729.89	247.82
730.22	247.65
730.55	247.51
730.89	247.27
731.22	247.02
731.55	246.80
731.88	246.66
732.21	246.35
732.54	246.20
732.87	245.97
733.20	245.80
733.53	245.66
733.86	245.52
734.19	245.28
734.52	245.17
734.85	245.30
735.18	245.05
735.51	245.07
735.84	244.90
736.17	244.92
736.50	244.42
736.83	244.82
737.16	244.55
737.49	244.37
737.82	244.21
738.15	244.09
738.48	243.96
738.81	243.85
739.14	243.68
739.47	243.50
739.80	243.32
740.13	243.27
740.46	243.04
740.79	242.84
741.12	242.64
741.45	242.50
741.78	242.13
742.11	242.16
742.44	241.91
742.77	241.80
743.10	241.57
743.43	241.35
743.75	240.74
744.08	241.38
744.41	241.19
744.74	241.08
745.07	240.88
745.40	240.86
745.73	240.89
746.06	240.80
746.39	240.72
746.71	240.55
747.04	240.38
747.37	240.25
747.70	240.15
748.03	240.10
748.36	240.00
748.68	239.92
749.01	239.68
749.34	239.56
749.67	239.40
750.00	239.46
750.33	239.80
750.65	239.71
750.98	238.90
751.31	238.91
751.64	238.74
751.97	238.92
752.29	238.78
752.62	238.52
752.95	238.44
753.28	238.29
753.60	238.25
753.93	238.33
754.26	238.29
754.59	238.04
754.91	237.96
755.24	237.84
755.57	237.77
755.90	237.60
756.22	237.43
756.55	237.26
756.88	236.96
757.20	236.47
757.53	236.20
757.86	236.10
758.19	235.93
758.51	235.83
758.84	235.49
759.17	235.29
759.49	235.19
759.82	235.34
760.15	235.27
760.47	235.16
760.80	234.85
761.13	234.80
761.45	234.74
761.78	234.58
762.11	234.46
762.43	234.25
762.76	234.20
763.08	234.22
763.41	234.25
763.74	234.22
764.06	234.21
764.39	234.25
764.71	234.19
765.04	234.15
765.37	234.00
765.69	233.92
766.02	233.89
766.34	233.78
766.67	233.53
767.00	233.53
767.32	233.67
767.65	233.89
767.97	233.80
768.30	233.81
768.62	233.76
768.95	233.70
769.27	233.63
769.60	233.63
769.92	233.49
770.25	233.33
770.57	233.17
770.90	233.12
771.22	233.02
771.55	232.90
771.87	232.81
772.20	232.71
772.52	233.06
772.85	233.59
773.17	233.51
773.50	233.35
773.82	233.18
774.15	232.95
774.47	232.58
774.80	232.41
775.12	232.30
775.45	232.21
775.77	232.19
776.09	232.18
776.42	232.16
776.74	232.22
777.07	232.15
777.39	232.12
777.72	232.02
778.04	231.96
778.36	231.90
778.69	231.85
779.01	231.99
779.33	231.54
779.66	230.95
779.98	230.88
780.31	230.89
780.63	231.03
780.95	231.01
781.28	230.99
781.60	230.95
781.92	230.98
782.25	230.90
782.57	230.79
782.89	230.72
783.22	230.62
783.54	230.51
783.86	230.46
784.19	230.47
784.51	230.54
784.83	230.46
785.16	230.41
785.48	230.41
785.80	230.30
786.12	230.30
786.45	230.24
786.77	230.26
787.09	230.18
787.42	230.02
787.74	230.02
788.06	229.98
788.38	229.92
788.71	229.84
789.03	229.87
789.35	229.97
789.67	229.85
789.99	229.87
790.32	229.74
790.64	229.73
790.96	230.08
791.28	229.92
791.61	229.85
791.93	229.86
792.25	229.86
792.57	230.20
792.89	230.08
793.21	230.11
793.54	230.00
793.86	229.98
794.18	229.97
794.50	229.89
794.82	229.95
795.14	229.97
795.47	230.09
795.79	230.06
796.11	229.87
796.43	229.89
796.75	229.82
797.07	229.93
797.39	229.94
797.71	229.55
798.04	229.60
798.36	229.65
798.68	229.66
799.00	229.65
799.32	229.34
799.64	229.46
799.96	229.52
800.28	229.58
800.60	229.42
800.92	229.51
801.24	229.40
801.56	229.33
801.89	229.27
802.21	229.18
802.53	229.12
802.85	229.21
803.17	229.45
803.49	229.33
803.81	229.27
804.13	229.19
804.45	229.13
804.77	229.10
805.09	229.04
805.41	228.91
805.73	228.74
806.05	228.64
806.37	228.57
806.69	228.40
807.01	228.37
807.33	228.46
807.65	228.16
807.97	228.34
808.28	228.27
808.60	228.28
808.92	228.22
809.24	228.50
809.56	228.39
809.88	228.16
810.20	228.23
810.52	228.26
810.84	228.21
811.16	228.10
811.48	228.03
811.80	228.22
812.12	228.22
812.43	228.35
812.75	228.32
813.07	228.29
813.39	228.34
813.71	228.24
814.03	228.22
814.35	228.28
814.67	228.10
814.98	228.09
815.30	228.07
815.62	227.98
815.94	227.55
816.26	227.79
816.58	227.69
816.89	227.67
817.21	227.56
817.53	227.56
817.85	227.60
818.17	227.55
818.48	227.39
818.80	227.49
819.12	227.44
819.44	227.36
819.76	227.30
820.07	227.34
820.39	227.38
820.71	227.44
821.03	227.47
821.34	227.41
821.66	227.41
821.98	227.42
822.30	227.39
822.61	227.80
822.93	227.45
823.25	227.45
823.57	227.49
823.88	227.58
824.20	227.60
824.52	227.74
824.83	227.77
825.15	227.73
825.47	227.69
825.79	227.72
826.10	227.74
826.42	227.67
826.74	227.68
827.05	227.61
827.37	227.54
827.69	227.47
828.00	227.54
828.32	227.56
828.64	227.54
828.95	227.81
829.27	227.65
829.58	227.81
829.90	227.95
830.22	227.91
830.53	227.79
830.85	227.82
831.17	227.64
831.48	227.69
831.80	227.74
832.11	227.75
832.43	227.65
832.75	227.66
833.06	227.97
833.38	227.82
833.69	227.85
834.01	227.90
834.32	227.93
834.64	227.85
834.96	227.88
835.27	227.87
835.59	227.68
835.90	227.58
836.22	227.50
836.53	227.38
836.85	227.30
837.16	227.79
837.48	227.69
837.79	227.90
838.11	227.94
838.42	227.90
838.74	227.93
839.05	227.90
839.37	227.86
839.68	227.55
840.00	227.57
840.31	227.63
840.63	227.58
840.94	227.54
841.26	227.53
841.57	227.55
841.88	227.59
842.20	227.56
842.51	227.54
842.83	227.54
843.14	228.00
843.46	227.98
843.77	227.60
844.08	227.60
844.40	227.37
844.71	227.24
845.03	227.25
845.34	227.20
845.65	227.14
845.97	227.15
846.28	227.19
846.60	227.20
846.91	227.08
847.22	227.03
847.54	227.10
847.85	227.10
848.16	227.00
848.48	226.94
848.79	227.15
849.10	227.20
849.42	227.24
849.73	226.76
850.04	226.76
850.36	226.63
850.67	226.76
850.98	226.83
851.30	226.89
851.61	226.80
851.92	226.73
852.23	226.87
852.55	226.92
852.86	226.93
853.17	227.00
853.49	227.12
853.80	227.23
854.11	227.27
854.42	227.35
854.74	227.27
855.05	227.22
855.36	226.90
855.67	226.87
855.99	226.78
856.30	227.32
856.61	227.34
856.92	227.40
857.23	227.34
857.55	227.33
857.86	227.29
858.17	227.40
858.48	227.38
858.79	227.33
859.11	227.37
859.42	227.32
859.73	227.20
860.04	227.23
860.35	227.09
860.66	226.95
860.98	226.88
861.29	226.97
861.60	227.00
861.91	227.18
862.22	227.12
862.53	227.10
862.84	226.54
863.16	226.72
863.47	226.64
863.78	226.59
864.09	226.57
864.40	226.60
864.71	226.60
865.02	226.60
865.33	226.54
865.64	226.40
865.95	226.37
866.27	226.63
866.58	226.53
866.89	226.63
867.20	226.56
867.51	226.56
867.82	226.49
868.13	226.60
868.44	226.46
868.75	226.60
869.06	226.60
869.37	226.68
869.68	226.44
869.99	226.56
870.30	226.57
870.61	226.61
870.92	226.54
871.23	226.55
871.54	226.65
871.85	226.81
872.16	226.92
872.47	226.94
872.78	226.70
873.09	226.76
873.40	226.66
873.71	226.77
874.02	226.85
874.33	226.83
874.64	226.78
874.95	226.85
875.26	226.70
875.56	226.65
875.87	226.62
876.18	226.71
876.49	227.14
876.80	227.07
877.11	227.08
877.42	227.07
877.73	227.05
878.04	227.01
878.35	226.99
878.66	227.09
878.96	227.08
879.27	227.08
879.58	227.06
879.89	227.06
880.20	227.10
880.51	226.99
880.82	227.06
881.12	227.04
881.43	227.00
881.74	227.01
882.05	227.07
882.36	227.09
882.67	227.06
882.97	226.55
883.28	226.59
883.59	226.59
883.90	226.58
884.21	226.60
884.51	226.56
884.82	226.49
885.13	226.41
885.44	226.41
885.74	226.42
886.05	226.41
886.36	226.41
886.67	226.29
886.98	226.58
887.28	226.62
887.59	226.64
887.90	226.57
888.20	226.48
888.51	226.50
888.82	226.49
889.13	226.53
889.43	226.93
889.74	226.90
890.05	226.80
890.35	226.79
890.66	226.70
890.97	226.65
891.28	226.59
891.58	226.54
891.89	226.55
892.20	226.44
892.50	226.37
892.81	226.36
893.12	226.41
893.42	226.16
893.73	226.05
894.04	226.01
894.34	226.12
894.65	226.15
894.95	226.08
895.26	226.05
895.57	226.21
895.87	225.68
896.18	225.73
896.48	225.73
896.79	225.69
897.10	225.72
897.40	225.61
897.71	225.68
898.01	225.66
898.32	225.71
898.63	225.76
898.93	225.84
899.24	225.77
899.54	225.59
899.85	225.63
900.15	225.63
900.46	225.63
900.76	225.59
901.07	225.59
901.38	225.59
901.68	225.58
901.99	225.31
902.29	225.39
902.60	225.30
902.90	225.30
903.21	225.28
903.51	225.20
903.82	225.45
904.12	225.39
904.43	225.41
904.73	225.36
905.03	225.28
905.34	225.70
905.64	225.71
905.95	225.85
906.25	225.74
906.56	225.78
906.86	225.72
907.17	225.72
907.47	225.71
907.77	225.66
908.08	225.62
908.38	225.67
908.69	225.70
908.99	225.78
909.30	225.88
909.60	225.92
909.90	226.04
910.21	225.80
910.51	225.77
910.81	225.76
911.12	225.76
911.42	225.90
911.73	225.34
912.03	225.41
912.33	225.51
912.64	225.58
912.94	225.46
913.24	225.50
913.55	225.43
913.85	225.44
914.15	225.59
914.46	225.67
914.76	225.67
915.06	225.60
915.37	225.59
915.67	225.54
915.97	225.56
916.27	225.45
916.58	225.56
916.88	225.62
917.18	225.64
917.49	226.01
917.79	226.00
918.09	226.16
918.39	226.29
918.70	226.27
919.00	226.26
919.30	226.58
919.60	226.54
919.91	226.55
920.21	226.53
920.51	226.45
920.81	226.46
921.12	226.51
921.42	226.59
921.72	226.60
922.02	226.63
922.32	226.70
922.63	226.71
922.93	226.99
923.23	226.97
923.53	226.86
923.83	226.56
924.13	226.56
924.44	226.55
924.74	226.65
925.04	226.70
925.34	226.67
925.64	226.53
925.94	226.54
926.24	226.82
926.55	226.87
926.85	226.89
927.15	226.89
927.45	226.93
927.75	226.93
928.05	227.00
928.35	226.95
928.65	227.01
928.95	227.11
929.26	226.89
929.56	226.97
929.86	227.11
930.16	227.05
930.46	227.03
930.76	227.00
931.06	226.77
931.36	226.63
931.66	226.72
931.96	226.69
932.26	226.74
932.56	226.52
932.86	226.48
933.16	226.53
933.46	226.45
933.76	226.37
934.06	226.47
934.36	226.60
934.66	226.55
934.96	226.48
935.26	226.52
935.56	226.58
935.86	226.43
936.16	226.24
936.46	226.20
936.76	226.16
937.06	226.10
937.36	226.01
937.66	226.04
937.96	225.96
938.26	225.81
938.56	225.77
938.86	225.76
939.16	225.84
939.46	225.89
939.76	225.85
940.06	225.83
940.35	225.67
940.65	225.47
940.95	225.51
941.25	225.41
941.55	225.27
941.85	225.18
942.15	225.30
942.45	225.48
942.75	225.44
943.04	225.51
943.34	225.60
943.64	225.59
943.94	225.52
944.24	225.58
944.54	225.68
944.84	225.64
945.13	225.56
945.43	225.53
945.73	225.43
946.03	225.43
946.33	225.34
946.62	225.29
946.92	225.25
947.22	225.32
947.52	225.36
947.82	225.44
948.11	225.38
948.41	225.23
948.71	225.14
949.01	225.14
949.31	225.00
949.60	224.97
949.90	225.07
950.20	225.06
950.50	225.09
950.79	225.02
951.09	225.14
951.39	225.14
951.69	224.99
951.98	225.09
952.28	225.10
952.58	225.12
952.87	225.15
953.17	225.21
953.47	225.15
953.76	225.20
954.06	225.13
954.36	225.10
954.66	225.11
954.95	225.23
955.25	225.37
955.55	225.50
955.84	225.43
956.14	225.48
956.44	225.57
956.73	225.47
957.03	225.52
957.32	225.49
957.62	225.56
957.92	225.82
958.21	225.75
958.51	226.27
958.81	226.35
959.10	226.39
959.40	226.51
959.69	226.54
959.99	226.55
960.29	226.55
960.58	226.58
960.88	226.79
961.17	226.69
961.47	226.68
961.76	226.56
962.06	226.70
962.36	226.60
962.65	226.55
962.95	226.62
963.24	226.56
963.54	226.58
963.83	226.59
964.13	226.53
964.42	226.41
964.72	226.07
965.01	226.04
965.31	226.09
965.60	225.95
965.90	226.25
966.19	226.09
966.49	226.14
966.78	226.14
967.08	226.11
967.37	226.18
967.67	226.08
967.96	226.25
968.26	226.26
968.55	226.36
968.85	226.34
969.14	226.39
969.43	226.38
969.73	226.34
970.02	226.32
970.32	226.31
970.61	226.38
970.91	226.21
971.20	226.20
971.49	226.13
971.79	226.16
972.08	225.83
972.38	225.93
972.67	225.89
972.96	225.88
973.26	225.77
973.55	225.88
973.85	225.89
974.14	225.75
974.43	225.76
974.73	225.68
975.02	225.68
975.31	225.59
975.61	225.65
975.90	225.62
976.19	225.56
976.49	225.52
976.78	225.48
977.07	225.48
977.37	225.48
977.66	225.54
977.95	225.46
978.24	225.50
978.54	225.56
978.83	225.49
979.12	225.52
979.42	225.51
979.71	225.34
980.00	225.35
980.29	225.46
980.59	225.31
980.88	225.44
981.17	225.35
981.46	225.36
981.76	225.31
982.05	225.40
982.34	225.38
982.63	225.36
982.93	225.33
983.22	225.54
983.51	225.60
983.80	225.61
984.09	225.71
984.39	225.60
984.68	225.55
984.97	225.58
985.26	225.56
985.55	225.67
985.85	225.61
986.14	225.64
986.43	225.63
986.72	225.60
987.01	225.40
987.30	225.47
987.59	225.44
987.89	225.46
988.18	225.39
988.47	225.37
988.76	225.39
989.05	225.43
989.34	225.30
989.63	225.41
989.92	225.32
990.22	225.21
990.51	225.23
990.80	225.24
991.09	225.31
991.38	225.36
991.67	225.23
991.96	225.26
992.25	225.19
992.54	225.12
992.83	225.15
993.12	225.16
993.41	225.28
993.70	225.49
993.99	225.62
994.28	225.73
994.58	225.82
994.87	225.78
995.16	225.76
995.45	225.79
995.74	225.67
996.03	225.87
996.32	225.99
996.61	226.13
996.90	226.09
997.19	226.11
997.48	226.19
997.77	226.24
998.06	226.30
998.34	226.37
998.63	226.35
998.92	226.42
999.21	226.54
999.50	226.53
999.79	226.36
1000.08	226.27
1000.37	226.21
1000.66	226.15
1000.95	226.22
1001.24	226.28
1001.53	226.33
1001.82	226.23
1002.11	226.05
1002.40	226.09
1002.68	226.21
1002.97	226.59
1003.26	226.52
1003.55	226.37
1003.84	226.35
1004.13	226.40
1004.42	226.41
1004.71	226.44
1004.99	226.36
1005.28	226.49
1005.57	226.51
1005.86	226.48
1006.15	226.51
1006.44	226.46
1006.72	226.54
1007.01	226.51
1007.30	226.48
1007.59	226.39
1007.88	226.48
1008.17	226.60
1008.45	226.48
1008.74	226.31
1009.03	226.08
1009.32	226.03
1009.60	226.02
1009.89	226.00
1010.18	225.87
1010.47	225.87
1010.76	225.93
1011.04	225.99
1011.33	225.95
1011.62	225.93
1011.91	225.96
1012.19	225.97
1012.48	225.96
1012.77	226.01
1013.05	226.22
1013.34	226.25
1013.63	226.19
1013.92	226.19
1014.20	226.06
1014.49	226.16
1014.78	226.16
1015.06	225.94
1015.35	225.96
1015.64	226.00
1015.92	226.12
1016.21	226.18
1016.50	226.18
1016.78	226.15
1017.07	226.12
1017.36	226.03
1017.64	225.95
1017.93	225.95
1018.22	225.91
1018.50	225.93
1018.79	225.87
1019.08	225.67
1019.36	225.70
1019.65	225.70
1019.93	225.72
1020.22	225.84
1020.51	225.99
1020.79	225.95
1021.08	225.45
1021.36	225.30
1021.65	226.30
1021.94	225.80
1022.22	226.70
1022.51	224.75
1022.79	226.70
1023.08	226.95
1023.36	230.95
1023.65	224.80
>>>>>End Processed Spectral Data<<<<<
