SpectraSuite Data File
++++++++++++++++++++++++++++++++++++
Date: Wed Sep 04 18:00:35 EDT 2013
User: lab3
Dark Spectrum Present: Yes
Reference Spectrum Present: No
Number of Sampled Component Spectra: 1
Spectrometers: USB2E7196
Integration Time (usec): 170000 (USB2E7196)
Spectra Averaged: 20 (USB2E7196)
Boxcar Smoothing: 10 (USB2E7196)
Correct for Electrical Dark: No (USB2E7196)
Strobe/Lamp Enabled: No (USB2E7196)
Correct for Detector Non-linearity: No (USB2E7196)
Correct for Stray Light: No (USB2E7196)
Number of Pixels in Processed Spectrum: 2048
>>>>>Begin Processed Spectral Data<<<<<
339.09	0.00
339.48	213.45
339.86	214.55
340.24	216.70
340.63	218.20
341.01	226.45
341.39	220.65
341.78	221.85
342.16	224.15
342.54	223.80
342.93	212.78
343.31	223.46
343.69	224.03
344.07	224.50
344.46	224.98
344.84	225.40
345.22	225.33
345.60	225.59
345.99	225.82
346.37	225.93
346.75	226.05
347.13	226.16
347.52	226.23
347.90	226.40
348.28	226.51
348.66	226.64
349.05	226.46
349.43	226.56
349.81	226.68
350.19	226.76
350.57	226.80
350.96	226.91
351.34	227.11
351.72	227.19
352.10	227.30
352.48	227.33
352.87	227.31
353.25	227.40
353.63	227.44
354.01	227.41
354.39	227.49
354.77	227.54
355.15	227.66
355.54	227.64
355.92	227.52
356.30	227.55
356.68	227.90
357.06	227.99
357.44	227.97
357.82	227.98
358.20	228.44
358.58	228.45
358.97	228.48
359.35	228.59
359.73	228.71
360.11	228.77
360.49	228.85
360.87	228.95
361.25	229.13
361.63	229.35
362.01	229.50
362.39	229.53
362.77	229.61
363.15	229.61
363.53	229.63
363.91	229.63
364.29	229.68
364.67	229.27
365.05	229.34
365.43	229.45
365.81	229.52
366.19	229.30
366.57	229.53
366.95	229.58
367.33	229.51
367.71	229.57
368.09	229.65
368.47	229.68
368.85	229.66
369.23	229.69
369.61	229.49
369.99	229.65
370.37	229.69
370.75	229.98
371.13	229.94
371.51	229.88
371.89	230.04
372.27	230.10
372.65	230.12
373.03	230.09
373.41	230.00
373.78	230.03
374.16	229.83
374.54	229.63
374.92	229.53
375.30	229.45
375.68	229.26
376.06	229.25
376.44	229.14
376.82	229.09
377.19	228.94
377.57	228.90
377.95	228.69
378.33	228.58
378.71	228.19
379.09	228.11
379.47	228.09
379.84	227.89
380.22	227.71
380.60	227.49
380.98	227.36
381.36	227.21
381.73	227.06
382.11	227.03
382.49	226.97
382.87	226.81
383.25	226.69
383.62	227.20
384.00	227.00
384.38	226.92
384.76	226.98
385.13	227.13
385.51	227.03
385.89	226.81
386.27	226.78
386.64	226.77
387.02	226.71
387.40	226.64
387.78	226.66
388.15	226.60
388.53	226.54
388.91	226.52
389.29	226.54
389.66	226.54
390.04	226.51
390.42	226.55
390.79	226.57
391.17	226.59
391.55	225.96
391.92	225.92
392.30	225.97
392.68	225.84
393.05	225.77
393.43	225.84
393.81	225.99
394.18	225.89
394.56	225.85
394.94	226.02
395.31	226.02
395.69	226.17
396.06	226.27
396.44	226.43
396.82	226.40
397.19	226.65
397.57	226.61
397.95	226.75
398.32	226.70
398.70	226.84
399.07	226.97
399.45	227.07
399.82	227.21
400.20	227.23
400.58	227.37
400.95	227.33
401.33	227.52
401.70	227.94
402.08	228.12
402.45	228.23
402.83	228.44
403.20	228.65
403.58	228.66
403.95	228.95
404.33	229.20
404.71	229.51
405.08	229.98
405.46	230.30
405.83	230.54
406.21	230.80
406.58	231.09
406.96	231.44
407.33	231.79
407.70	232.22
408.08	233.02
408.45	233.43
408.83	233.86
409.20	234.23
409.58	234.32
409.95	234.95
410.33	235.58
410.70	235.99
411.08	236.61
411.45	237.30
411.82	237.81
412.20	238.58
412.57	239.45
412.95	239.82
413.32	240.75
413.69	241.56
414.07	242.52
414.44	243.56
414.82	244.57
415.19	245.83
415.56	246.99
415.94	248.04
416.31	249.52
416.68	250.98
417.06	252.60
417.43	254.41
417.81	256.09
418.18	257.96
418.55	259.94
418.93	261.98
419.30	264.13
419.67	266.45
420.04	268.78
420.42	271.21
420.79	274.25
421.16	276.99
421.54	280.05
421.91	283.09
422.28	286.08
422.66	289.40
423.03	292.90
423.40	296.25
423.77	299.84
424.15	303.31
424.52	307.15
424.89	311.48
425.26	315.37
425.64	319.20
426.01	323.34
426.38	327.67
426.75	332.13
427.13	336.73
427.50	341.47
427.87	346.34
428.24	351.27
428.61	355.88
428.99	361.21
429.36	366.76
429.73	372.30
430.10	377.97
430.47	383.65
430.85	389.36
431.22	395.72
431.59	402.47
431.96	408.87
432.33	415.81
432.70	422.41
433.08	430.38
433.45	437.85
433.82	445.35
434.19	453.64
434.56	461.89
434.93	469.57
435.30	477.45
435.68	486.22
436.05	494.71
436.42	503.15
436.79	510.79
437.16	519.13
437.53	528.03
437.90	536.77
438.27	545.40
438.64	554.37
439.01	562.64
439.38	569.97
439.75	577.21
440.13	585.37
440.50	592.84
440.87	598.94
441.24	605.37
441.61	612.31
441.98	617.45
442.35	623.21
442.72	629.38
443.09	635.15
443.46	638.52
443.83	640.91
444.20	642.86
444.57	645.60
444.94	646.78
445.31	647.69
445.68	648.97
446.05	649.11
446.42	647.75
446.79	646.34
447.16	644.60
447.53	643.27
447.90	639.60
448.27	636.05
448.64	631.15
449.01	627.41
449.37	621.19
449.74	615.08
450.11	608.20
450.48	600.33
450.85	592.28
451.22	585.35
451.59	578.57
451.96	572.26
452.33	564.11
452.70	556.72
453.07	548.05
453.43	538.85
453.80	530.46
454.17	522.25
454.54	514.31
454.91	506.14
455.28	498.09
455.65	490.47
456.02	483.42
456.38	476.98
456.75	469.25
457.12	462.65
457.49	456.25
457.86	449.92
458.23	444.66
458.59	439.02
458.96	433.22
459.33	428.03
459.70	422.87
460.07	418.76
460.43	413.92
460.80	409.63
461.17	405.96
461.54	401.96
461.91	398.16
462.27	394.38
462.64	391.02
463.01	387.46
463.38	384.11
463.74	380.17
464.11	377.10
464.48	374.34
464.85	371.63
465.21	369.52
465.58	367.12
465.95	364.32
466.32	361.97
466.68	359.61
467.05	357.40
467.42	355.10
467.78	352.79
468.15	350.77
468.52	349.14
468.88	346.89
469.25	344.92
469.62	343.35
469.98	341.70
470.35	340.18
470.72	338.71
471.08	337.10
471.45	335.75
471.82	334.52
472.18	333.07
472.55	331.95
472.92	330.62
473.28	329.56
473.65	328.40
474.02	327.38
474.38	326.53
474.75	325.79
475.11	324.90
475.48	324.28
475.85	323.50
476.21	322.81
476.58	322.31
476.94	321.86
477.31	321.48
477.67	321.08
478.04	320.77
478.41	320.57
478.77	320.75
479.14	320.44
479.50	320.37
479.87	320.37
480.23	320.47
480.60	320.42
480.96	320.35
481.33	320.71
481.69	320.90
482.06	321.18
482.42	321.45
482.79	321.75
483.15	322.20
483.52	322.94
483.88	323.47
484.25	324.06
484.61	324.79
484.98	325.41
485.34	326.36
485.71	327.20
486.07	328.06
486.44	328.67
486.80	329.90
487.17	331.02
487.53	332.43
487.90	333.67
488.26	335.38
488.62	337.22
488.99	338.76
489.35	340.56
489.72	342.41
490.08	344.40
490.44	346.48
490.81	348.66
491.17	350.82
491.54	353.34
491.90	355.87
492.26	358.50
492.63	361.35
492.99	364.17
493.36	367.39
493.72	370.75
494.08	374.21
494.45	377.84
494.81	381.69
495.17	385.56
495.54	389.72
495.90	393.92
496.26	398.29
496.63	403.09
496.99	407.81
497.35	412.99
497.72	418.34
498.08	423.80
498.44	429.50
498.80	435.59
499.17	441.63
499.53	447.99
499.89	454.59
500.26	461.50
500.62	468.53
500.98	475.77
501.34	483.25
501.71	491.02
502.07	498.97
502.43	507.10
502.79	515.57
503.16	524.43
503.52	533.50
503.88	542.78
504.24	552.59
504.60	562.67
504.97	572.81
505.33	583.30
505.69	594.48
506.05	605.62
506.41	616.82
506.78	628.59
507.14	640.62
507.50	653.03
507.86	665.60
508.22	678.91
508.59	692.19
508.95	705.93
509.31	720.02
509.67	734.21
510.03	748.56
510.39	763.17
510.75	778.21
511.12	793.51
511.48	809.34
511.84	824.86
512.20	840.81
512.56	857.12
512.92	874.00
513.28	890.76
513.64	907.93
514.00	925.59
514.37	943.38
514.73	961.63
515.09	980.11
515.45	998.61
515.81	1016.79
516.17	1035.73
516.53	1054.34
516.89	1073.19
517.25	1092.77
517.61	1112.93
517.97	1133.46
518.33	1153.42
518.69	1173.69
519.05	1194.12
519.41	1215.11
519.77	1236.43
520.13	1257.45
520.49	1278.03
520.85	1300.44
521.21	1321.78
521.57	1343.23
521.93	1364.24
522.29	1385.44
522.65	1406.06
523.01	1427.20
523.37	1448.02
523.73	1469.20
524.09	1490.05
524.45	1511.19
524.81	1532.04
525.17	1553.06
525.53	1573.71
525.89	1594.85
526.25	1615.69
526.61	1636.26
526.97	1657.35
527.33	1678.81
527.68	1700.80
528.04	1722.27
528.40	1742.31
528.76	1763.58
529.12	1783.87
529.48	1804.87
529.84	1825.00
530.20	1846.32
530.56	1867.00
530.91	1887.99
531.27	1908.29
531.63	1929.02
531.99	1949.66
532.35	1969.88
532.71	1990.29
533.07	2010.95
533.42	2031.05
533.78	2051.33
534.14	2071.20
534.50	2090.38
534.86	2109.46
535.21	2127.21
535.57	2146.01
535.93	2163.62
536.29	2181.59
536.65	2199.96
537.00	2217.34
537.36	2235.37
537.72	2252.09
538.08	2269.73
538.44	2286.69
538.79	2303.36
539.15	2320.05
539.51	2335.64
539.87	2350.88
540.22	2365.09
540.58	2379.62
540.94	2393.13
541.29	2405.84
541.65	2418.62
542.01	2430.98
542.37	2441.35
542.72	2451.94
543.08	2462.64
543.44	2474.28
543.79	2484.05
544.15	2494.27
544.51	2504.53
544.87	2514.05
545.22	2522.63
545.58	2529.91
545.94	2537.09
546.29	2543.78
546.65	2550.27
547.01	2556.50
547.36	2561.89
547.72	2567.08
548.07	2570.95
548.43	2576.30
548.79	2580.89
549.14	2585.05
549.50	2589.04
549.86	2593.35
550.21	2597.50
550.57	2600.96
550.92	2602.37
551.28	2603.94
551.64	2606.24
551.99	2608.10
552.35	2609.77
552.70	2612.09
553.06	2613.96
553.41	2615.42
553.77	2617.16
554.13	2618.70
554.48	2620.14
554.84	2622.02
555.19	2623.55
555.55	2625.56
555.90	2624.55
556.26	2623.85
556.61	2622.30
556.97	2620.12
557.32	2619.56
557.68	2618.70
558.03	2616.91
558.39	2615.99
558.74	2615.48
559.10	2612.31
559.45	2609.30
559.81	2605.00
560.16	2599.90
560.52	2595.14
560.87	2590.62
561.23	2585.34
561.58	2579.40
561.94	2572.53
562.29	2565.05
562.64	2557.85
563.00	2549.44
563.35	2543.19
563.71	2536.56
564.06	2530.33
564.42	2524.19
564.77	2517.39
565.12	2509.49
565.48	2501.98
565.83	2494.24
566.19	2485.66
566.54	2477.46
566.89	2468.81
567.25	2461.10
567.60	2453.87
567.96	2446.43
568.31	2438.48
568.66	2429.67
569.02	2420.22
569.37	2412.06
569.72	2404.54
570.08	2395.14
570.43	2385.75
570.78	2376.57
571.14	2367.14
571.49	2357.03
571.84	2347.55
572.20	2336.38
572.55	2326.24
572.90	2315.34
573.26	2304.74
573.61	2293.76
573.96	2282.85
574.31	2270.98
574.67	2259.19
575.02	2246.55
575.37	2233.60
575.72	2220.28
576.08	2208.21
576.43	2196.14
576.78	2182.74
577.13	2168.94
577.49	2156.35
577.84	2144.28
578.19	2131.98
578.54	2119.35
578.90	2107.18
579.25	2094.54
579.60	2082.03
579.95	2069.08
580.30	2055.71
580.66	2042.02
581.01	2028.62
581.36	2014.48
581.71	2002.19
582.06	1988.90
582.42	1976.05
582.77	1963.36
583.12	1951.59
583.47	1939.05
583.82	1927.04
584.17	1915.16
584.53	1903.45
584.88	1890.67
585.23	1877.63
585.58	1863.26
585.93	1850.01
586.28	1836.63
586.63	1822.47
586.98	1808.29
587.34	1795.18
587.69	1782.13
588.04	1769.41
588.39	1757.06
588.74	1744.83
589.09	1732.27
589.44	1719.55
589.79	1707.56
590.14	1695.35
590.49	1682.70
590.84	1670.27
591.19	1657.76
591.54	1645.29
591.89	1632.98
592.25	1622.59
592.60	1611.01
592.95	1599.84
593.30	1587.78
593.65	1576.05
594.00	1564.13
594.35	1554.45
594.70	1542.25
595.05	1530.69
595.40	1518.51
595.75	1506.43
596.10	1495.19
596.45	1483.75
596.80	1472.75
597.15	1461.17
597.50	1449.61
597.85	1438.51
598.19	1426.72
598.54	1415.26
598.89	1404.07
599.24	1393.36
599.59	1381.52
599.94	1370.71
600.29	1360.08
600.64	1349.80
600.99	1338.74
601.34	1329.20
601.69	1317.65
602.04	1307.83
602.39	1298.05
602.74	1288.92
603.08	1279.75
603.43	1270.34
603.78	1260.36
604.13	1250.75
604.48	1240.81
604.83	1231.03
605.18	1221.06
605.53	1211.71
605.87	1202.42
606.22	1193.64
606.57	1184.15
606.92	1174.70
607.27	1165.48
607.62	1156.73
607.96	1147.80
608.31	1139.94
608.66	1131.44
609.01	1122.79
609.36	1114.20
609.70	1105.63
610.05	1096.57
610.40	1087.81
610.75	1078.92
611.10	1070.44
611.44	1061.87
611.79	1053.79
612.14	1045.82
612.49	1037.86
612.83	1030.30
613.18	1022.35
613.53	1014.55
613.88	1006.44
614.22	998.63
614.57	990.59
614.92	982.54
615.27	975.15
615.61	967.19
615.96	959.35
616.31	951.97
616.65	944.92
617.00	937.67
617.35	930.66
617.70	923.42
618.04	916.39
618.39	909.48
618.74	903.01
619.08	895.84
619.43	888.69
619.78	881.69
620.12	874.61
620.47	867.75
620.82	860.48
621.16	853.86
621.51	847.51
621.85	841.44
622.20	834.84
622.55	828.01
622.89	821.47
623.24	815.03
623.59	808.65
623.93	802.24
624.28	795.96
624.62	790.40
624.97	784.71
625.32	778.72
625.66	772.75
626.01	766.38
626.35	760.90
626.70	755.50
627.04	750.29
627.39	744.67
627.73	739.31
628.08	734.21
628.43	728.60
628.77	722.96
629.12	717.51
629.46	712.77
629.81	708.03
630.15	703.27
630.50	698.32
630.84	693.29
631.19	688.46
631.53	683.66
631.88	678.23
632.22	673.02
632.57	668.45
632.91	663.68
633.26	659.37
633.60	654.61
633.95	649.91
634.29	644.84
634.64	640.57
634.98	635.77
635.32	631.39
635.67	627.39
636.01	623.34
636.36	618.75
636.70	614.55
637.05	610.39
637.39	606.29
637.73	602.22
638.08	598.26
638.42	593.95
638.77	589.62
639.11	585.39
639.45	581.26
639.80	576.90
640.14	572.75
640.49	568.65
640.83	564.93
641.17	561.29
641.52	557.76
641.86	553.99
642.20	550.71
642.55	546.95
642.89	543.26
643.23	539.61
643.58	536.57
643.92	532.93
644.26	529.45
644.61	526.12
644.95	522.64
645.29	519.10
645.64	515.95
645.98	512.83
646.32	509.95
646.66	506.77
647.01	503.79
647.35	501.07
647.69	498.09
648.04	495.17
648.38	492.17
648.72	489.14
649.06	486.03
649.41	483.01
649.75	480.03
650.09	477.07
650.43	474.20
650.78	471.19
651.12	468.30
651.46	465.49
651.80	462.68
652.14	460.03
652.49	457.62
652.83	455.03
653.17	452.48
653.51	449.69
653.85	447.29
654.20	444.83
654.54	442.14
654.88	439.66
655.22	437.37
655.56	434.95
655.90	432.59
656.25	430.23
656.59	428.11
656.93	425.86
657.27	423.93
657.61	421.48
657.95	419.24
658.29	417.03
658.64	414.97
658.98	412.73
659.32	410.45
659.66	408.20
660.00	406.04
660.34	403.92
660.68	401.99
661.02	399.94
661.36	397.99
661.70	396.09
662.05	394.05
662.39	392.09
662.73	390.35
663.07	388.67
663.41	386.98
663.75	384.87
664.09	383.11
664.43	381.01
664.77	379.41
665.11	377.77
665.45	376.05
665.79	374.34
666.13	372.65
666.47	371.01
666.81	369.25
667.15	367.50
667.49	365.97
667.83	364.47
668.17	363.03
668.51	361.57
668.85	360.17
669.19	359.05
669.53	357.55
669.87	355.83
670.21	354.32
670.55	352.85
670.89	351.78
671.23	350.33
671.57	348.93
671.91	347.54
672.25	346.11
672.58	345.00
672.92	343.50
673.26	342.23
673.60	341.10
673.94	339.86
674.28	338.82
674.62	337.66
674.96	336.35
675.30	335.18
675.64	333.94
675.97	332.62
676.31	331.22
676.65	329.97
676.99	329.19
677.33	327.97
677.67	326.89
678.01	325.52
678.34	324.54
678.68	323.72
679.02	322.69
679.36	321.75
679.70	320.67
680.04	319.72
680.37	318.74
680.71	317.70
681.05	316.92
681.39	316.07
681.73	315.15
682.06	314.29
682.40	313.37
682.74	312.50
683.08	311.86
683.42	310.99
683.75	310.18
684.09	309.08
684.43	308.37
684.77	307.57
685.10	306.82
685.44	305.95
685.78	305.12
686.12	304.37
686.45	303.49
686.79	302.65
687.13	302.00
687.46	301.20
687.80	300.55
688.14	299.71
688.48	298.91
688.81	298.16
689.15	297.50
689.49	296.70
689.82	296.00
690.16	295.09
690.50	294.40
690.83	293.60
691.17	292.87
691.51	292.14
691.84	291.50
692.18	290.79
692.52	290.14
692.85	289.45
693.19	288.97
693.52	288.32
693.86	287.72
694.20	287.08
694.53	286.48
694.87	285.67
695.21	284.97
695.54	284.34
695.88	283.62
696.21	282.90
696.55	282.32
696.88	281.74
697.22	281.09
697.56	280.65
697.89	280.11
698.23	279.66
698.56	279.07
698.90	278.53
699.23	277.96
699.57	277.54
699.90	277.00
700.24	276.34
700.58	275.83
700.91	275.39
701.25	275.29
701.58	275.18
701.92	274.91
702.25	274.63
702.59	274.14
702.92	273.74
703.26	273.34
703.59	272.86
703.93	272.79
704.26	272.46
704.60	272.01
704.93	271.56
705.26	271.05
705.60	270.71
705.93	270.15
706.27	269.86
706.60	269.56
706.94	269.32
707.27	268.93
707.61	268.58
707.94	268.12
708.27	267.31
708.61	266.56
708.94	266.10
709.28	265.67
709.61	265.31
709.94	264.95
710.28	264.53
710.61	264.24
710.95	263.50
711.28	263.49
711.61	263.07
711.95	262.87
712.28	262.43
712.61	262.01
712.95	261.99
713.28	261.90
713.61	261.39
713.95	260.89
714.28	260.56
714.61	260.16
714.95	259.83
715.28	259.40
715.61	259.05
715.95	258.75
716.28	258.39
716.61	258.11
716.95	257.70
717.28	257.44
717.61	257.08
717.94	256.82
718.28	256.16
718.61	255.80
718.94	255.39
719.27	255.19
719.61	255.03
719.94	254.57
720.27	254.03
720.60	253.82
720.94	253.54
721.27	253.32
721.60	253.25
721.93	253.02
722.27	253.00
722.60	252.88
722.93	252.54
723.26	252.35
723.59	252.07
723.93	251.93
724.26	251.68
724.59	251.38
724.92	251.14
725.25	251.04
725.59	250.81
725.92	250.67
726.25	250.45
726.58	250.20
726.91	249.99
727.24	249.85
727.57	249.59
727.91	249.36
728.24	249.15
728.57	248.85
728.90	248.74
729.23	248.47
729.56	248.45
729.89	248.33
730.22	248.10
730.55	247.88
730.89	247.76
731.22	247.53
731.55	247.44
731.88	247.17
732.21	246.94
732.54	246.72
732.87	246.52
733.20	246.34
733.53	246.10
733.86	245.96
734.19	245.74
734.52	245.65
734.85	245.84
735.18	245.55
735.51	245.54
735.84	245.32
736.17	245.13
736.50	244.74
736.83	245.13
737.16	244.97
737.49	244.86
737.82	244.57
738.15	244.57
738.48	244.40
738.81	244.28
739.14	244.02
739.47	243.90
739.80	243.78
740.13	243.67
740.46	243.50
740.79	243.28
741.12	243.14
741.45	242.91
741.78	242.47
742.11	242.60
742.44	242.34
742.77	242.32
743.10	242.13
743.43	241.94
743.75	241.37
744.08	241.84
744.41	241.59
744.74	241.59
745.07	241.32
745.40	241.23
745.73	241.39
746.06	241.30
746.39	241.24
746.71	241.07
747.04	240.86
747.37	240.69
747.70	240.64
748.03	240.53
748.36	240.53
748.68	240.39
749.01	240.11
749.34	239.96
749.67	239.81
750.00	239.81
750.33	240.04
750.65	239.91
750.98	239.25
751.31	239.28
751.64	239.19
751.97	239.31
752.29	239.22
752.62	238.78
752.95	238.66
753.28	238.53
753.60	238.48
753.93	238.51
754.26	238.50
754.59	238.35
754.91	238.10
755.24	237.99
755.57	237.94
755.90	237.76
756.22	237.70
756.55	237.46
756.88	237.21
757.20	236.84
757.53	236.64
757.86	236.53
758.19	236.42
758.51	236.30
758.84	235.96
759.17	235.87
759.49	235.89
759.82	236.03
760.15	235.95
760.47	235.82
760.80	235.66
761.13	235.61
761.45	235.46
761.78	235.44
762.11	235.31
762.43	235.13
762.76	235.18
763.08	235.07
763.41	235.12
763.74	235.14
764.06	235.06
764.39	234.94
764.71	234.89
765.04	234.77
765.37	234.64
765.69	234.59
766.02	234.49
766.34	234.32
766.67	234.06
767.00	234.06
767.32	234.28
767.65	234.50
767.97	234.49
768.30	234.54
768.62	234.47
768.95	234.34
769.27	234.25
769.60	234.10
769.92	234.05
770.25	233.89
770.57	233.76
770.90	233.63
771.22	233.63
771.55	233.53
771.87	233.52
772.20	233.48
772.52	233.84
772.85	234.39
773.17	234.38
773.50	234.28
773.82	234.18
774.15	233.84
774.47	233.49
774.80	233.35
775.12	233.24
775.45	233.14
775.77	233.16
776.09	233.20
776.42	233.21
776.74	233.26
777.07	233.20
777.39	233.22
777.72	233.14
778.04	233.11
778.36	233.02
778.69	232.90
779.01	232.87
779.33	232.37
779.66	231.76
779.98	231.66
780.31	231.62
780.63	231.75
780.95	231.81
781.28	231.74
781.60	231.66
781.92	231.61
782.25	231.60
782.57	231.54
782.89	231.34
783.22	231.21
783.54	231.05
783.86	230.98
784.19	230.94
784.51	231.06
784.83	230.92
785.16	230.86
785.48	230.83
785.80	230.76
786.12	230.76
786.45	230.68
786.77	230.66
787.09	230.64
787.42	230.47
787.74	230.41
788.06	230.35
788.38	230.29
788.71	230.18
789.03	230.18
789.35	230.14
789.67	230.13
789.99	230.20
790.32	230.20
790.64	230.26
790.96	230.50
791.28	230.32
791.61	230.27
791.93	230.35
792.25	230.31
792.57	230.63
792.89	230.55
793.21	230.58
793.54	230.63
793.86	230.53
794.18	230.47
794.50	230.38
794.82	230.45
795.14	230.45
795.47	230.49
795.79	230.48
796.11	230.39
796.43	230.37
796.75	230.25
797.07	230.26
797.39	230.20
797.71	229.85
798.04	229.93
798.36	229.97
798.68	229.91
799.00	229.92
799.32	229.70
799.64	229.78
799.96	229.68
800.28	229.75
800.60	229.77
800.92	229.83
801.24	229.76
801.56	229.80
801.89	229.75
802.21	229.84
802.53	229.69
802.85	229.78
803.17	230.08
803.49	230.06
803.81	229.92
804.13	229.94
804.45	229.90
804.77	229.85
805.09	229.81
805.41	229.75
805.73	229.64
806.05	229.41
806.37	229.40
806.69	229.40
807.01	229.25
807.33	229.28
807.65	229.05
807.97	229.27
808.28	229.13
808.60	229.18
808.92	229.11
809.24	229.49
809.56	229.41
809.88	229.13
810.20	229.11
810.52	229.24
810.84	229.08
811.16	228.98
811.48	228.93
811.80	229.14
812.12	229.16
812.43	229.34
812.75	229.39
813.07	229.35
813.39	229.43
813.71	229.43
814.03	229.36
814.35	229.40
814.67	229.17
814.98	229.18
815.30	229.08
815.62	228.92
815.94	228.58
816.26	228.80
816.58	228.74
816.89	228.76
817.21	228.60
817.53	228.69
817.85	228.81
818.17	228.74
818.48	228.45
818.80	228.47
819.12	228.35
819.44	228.25
819.76	228.13
820.07	228.07
820.39	228.04
820.71	228.04
821.03	228.03
821.34	228.05
821.66	228.04
821.98	228.10
822.30	228.15
822.61	228.42
822.93	228.17
823.25	228.17
823.57	228.22
823.88	228.24
824.20	228.20
824.52	228.27
824.83	228.29
825.15	228.30
825.47	228.37
825.79	228.43
826.10	228.43
826.42	228.41
826.74	228.42
827.05	228.45
827.37	228.48
827.69	228.49
828.00	228.46
828.32	228.45
828.64	228.34
828.95	228.47
829.27	228.36
829.58	228.25
829.90	228.28
830.22	228.25
830.53	228.25
830.85	228.18
831.17	228.03
831.48	228.09
831.80	228.10
832.11	227.94
832.43	227.80
832.75	227.84
833.06	228.19
833.38	228.03
833.69	227.92
834.01	227.91
834.32	227.91
834.64	227.81
834.96	227.81
835.27	227.83
835.59	227.72
835.90	227.69
836.22	227.68
836.53	227.63
836.85	227.50
837.16	227.93
837.48	227.94
837.79	228.04
838.11	227.98
838.42	227.97
838.74	228.05
839.05	228.05
839.37	227.95
839.68	227.57
840.00	227.59
840.31	227.67
840.63	227.60
840.94	227.57
841.26	227.56
841.57	227.59
841.88	227.72
842.20	227.72
842.51	227.55
842.83	227.61
843.14	228.06
843.46	228.10
843.77	227.85
844.08	227.85
844.40	227.78
844.71	227.74
845.03	227.75
845.34	227.73
845.65	227.72
845.97	227.76
846.28	227.82
846.60	227.82
846.91	227.75
847.22	227.77
847.54	227.86
847.85	227.96
848.16	227.86
848.48	227.67
848.79	227.77
849.10	227.83
849.42	227.87
849.73	227.43
850.04	227.50
850.36	227.35
850.67	227.40
850.98	227.41
851.30	227.47
851.61	227.38
851.92	227.35
852.23	227.47
852.55	227.53
852.86	227.49
853.17	227.58
853.49	227.67
853.80	227.75
854.11	227.72
854.42	227.80
854.74	227.81
855.05	227.90
855.36	227.71
855.67	227.80
855.99	227.82
856.30	228.37
856.61	228.31
856.92	228.30
857.23	228.33
857.55	228.23
857.86	228.21
858.17	228.33
858.48	228.25
858.79	228.20
859.11	228.29
859.42	228.36
859.73	228.35
860.04	228.32
860.35	228.22
860.66	228.15
860.98	228.05
861.29	228.10
861.60	228.10
861.91	228.24
862.22	228.06
862.53	228.01
862.84	227.41
863.16	227.54
863.47	227.45
863.78	227.41
864.09	227.48
864.40	227.51
864.71	227.53
865.02	227.62
865.33	227.56
865.64	227.46
865.95	227.43
866.27	227.74
866.58	227.73
866.89	227.79
867.20	227.75
867.51	227.72
867.82	227.70
868.13	227.79
868.44	227.60
868.75	227.71
869.06	227.70
869.37	227.76
869.68	227.57
869.99	227.66
870.30	227.74
870.61	227.76
870.92	227.66
871.23	227.59
871.54	227.63
871.85	227.74
872.16	227.78
872.47	227.72
872.78	227.37
873.09	227.39
873.40	227.35
873.71	227.33
874.02	227.34
874.33	227.28
874.64	227.17
874.95	227.30
875.26	227.18
875.56	227.22
875.87	227.23
876.18	227.17
876.49	227.61
876.80	227.53
877.11	227.45
877.42	227.45
877.73	227.46
878.04	227.38
878.35	227.35
878.66	227.31
878.96	227.29
879.27	227.29
879.58	227.32
879.89	227.28
880.20	227.41
880.51	227.40
880.82	227.39
881.12	227.37
881.43	227.26
881.74	227.16
882.05	227.06
882.36	227.08
882.67	227.08
882.97	226.59
883.28	226.45
883.59	226.49
883.90	226.53
884.21	226.55
884.51	226.51
884.82	226.47
885.13	226.51
885.44	226.49
885.74	226.42
886.05	226.33
886.36	226.36
886.67	226.20
886.98	226.40
887.28	226.38
887.59	226.39
887.90	226.51
888.20	226.58
888.51	226.74
888.82	226.66
889.13	226.78
889.43	227.15
889.74	227.19
890.05	227.16
890.35	227.11
890.66	227.08
890.97	227.05
891.28	227.01
891.58	226.98
891.89	227.02
892.20	227.07
892.50	226.98
892.81	226.96
893.12	227.00
893.42	226.79
893.73	226.90
894.04	226.89
894.34	226.81
894.65	226.78
894.95	226.70
895.26	226.71
895.57	226.92
895.87	226.51
896.18	226.58
896.48	226.60
896.79	226.63
897.10	226.69
897.40	226.74
897.71	226.74
898.01	226.76
898.32	226.87
898.63	226.86
898.93	227.02
899.24	227.04
899.54	227.05
899.85	227.04
900.15	226.98
900.46	227.04
900.76	227.11
901.07	227.18
901.38	227.14
901.68	227.26
901.99	227.05
902.29	227.07
902.60	227.08
902.90	227.07
903.21	227.02
903.51	227.00
903.82	227.11
904.12	227.14
904.43	227.11
904.73	227.05
905.03	227.07
905.34	227.42
905.64	227.39
905.95	227.45
906.25	227.44
906.56	227.37
906.86	227.34
907.17	227.25
907.47	227.30
907.77	227.26
908.08	227.10
908.38	227.13
908.69	227.17
908.99	227.18
909.30	227.19
909.60	227.19
909.90	227.18
910.21	227.03
910.51	226.97
910.81	227.04
911.12	227.10
911.42	227.06
911.73	226.63
912.03	226.65
912.33	226.63
912.64	226.68
912.94	226.73
913.24	226.69
913.55	226.69
913.85	226.61
914.15	226.79
914.46	226.84
914.76	226.74
915.06	226.66
915.37	226.59
915.67	226.55
915.97	226.58
916.27	226.51
916.58	226.54
916.88	226.57
917.18	226.43
917.49	226.68
917.79	226.65
918.09	226.70
918.39	226.79
918.70	226.84
919.00	226.78
919.30	226.94
919.60	226.90
919.91	226.86
920.21	226.88
920.51	226.77
920.81	226.73
921.12	226.82
921.42	226.81
921.72	226.87
922.02	226.84
922.32	226.90
922.63	226.86
922.93	227.05
923.23	227.06
923.53	227.03
923.83	226.69
924.13	226.74
924.44	226.71
924.74	226.77
925.04	226.82
925.34	226.86
925.64	226.66
925.94	226.68
926.24	226.93
926.55	226.89
926.85	226.92
927.15	226.89
927.45	226.95
927.75	226.98
928.05	226.99
928.35	226.96
928.65	227.06
928.95	227.17
929.26	227.03
929.56	227.10
929.86	227.22
930.16	227.23
930.46	227.20
930.76	227.27
931.06	227.06
931.36	226.94
931.66	226.98
931.96	227.10
932.26	227.15
932.56	226.94
932.86	226.98
933.16	226.97
933.46	227.00
933.76	226.91
934.06	227.08
934.36	227.26
934.66	227.25
934.96	227.15
935.26	227.13
935.56	227.10
935.86	226.95
936.16	226.87
936.46	226.85
936.76	226.85
937.06	226.74
937.36	226.81
937.66	226.88
937.96	226.90
938.26	226.83
938.56	226.79
938.86	226.86
939.16	226.93
939.46	226.96
939.76	227.00
940.06	226.95
940.35	226.79
940.65	226.48
940.95	226.55
941.25	226.45
941.55	226.38
941.85	226.41
942.15	226.51
942.45	226.64
942.75	226.61
943.04	226.65
943.34	226.75
943.64	226.66
943.94	226.55
944.24	226.57
944.54	226.51
944.84	226.51
945.13	226.49
945.43	226.41
945.73	226.39
946.03	226.32
946.33	226.29
946.62	226.28
946.92	226.31
947.22	226.35
947.52	226.40
947.82	226.46
948.11	226.51
948.41	226.40
948.71	226.29
949.01	226.33
949.31	226.29
949.60	226.21
949.90	226.30
950.20	226.27
950.50	226.20
950.79	226.26
951.09	226.30
951.39	226.25
951.69	226.20
951.98	226.28
952.28	226.39
952.58	226.39
952.87	226.46
953.17	226.50
953.47	226.41
953.76	226.39
954.06	226.25
954.36	226.09
954.66	226.12
954.95	226.25
955.25	226.27
955.55	226.29
955.84	226.25
956.14	226.31
956.44	226.34
956.73	226.28
957.03	226.20
957.32	226.18
957.62	226.09
957.92	226.15
958.21	226.06
958.51	226.56
958.81	226.65
959.10	226.62
959.40	226.75
959.69	226.91
959.99	227.01
960.29	227.16
960.58	227.18
960.88	227.34
961.17	227.24
961.47	227.34
961.76	227.24
962.06	227.36
962.36	227.32
962.65	227.32
962.95	227.37
963.24	227.38
963.54	227.45
963.83	227.60
964.13	227.57
964.42	227.46
964.72	227.04
965.01	227.05
965.31	227.04
965.60	226.91
965.90	227.10
966.19	227.05
966.49	227.01
966.78	226.96
967.08	226.92
967.37	226.97
967.67	226.88
967.96	227.10
968.26	227.05
968.55	227.05
968.85	227.05
969.14	226.98
969.43	226.95
969.73	226.90
970.02	226.87
970.32	226.90
970.61	226.91
970.91	226.79
971.20	226.77
971.49	226.74
971.79	226.80
972.08	226.44
972.38	226.44
972.67	226.37
972.96	226.51
973.26	226.43
973.55	226.55
973.85	226.54
974.14	226.39
974.43	226.38
974.73	226.39
975.02	226.33
975.31	226.35
975.61	226.32
975.90	226.25
976.19	226.14
976.49	226.16
976.78	226.18
977.07	226.18
977.37	226.15
977.66	226.16
977.95	226.05
978.24	226.09
978.54	226.18
978.83	226.21
979.12	226.11
979.42	226.12
979.71	226.00
980.00	225.93
980.29	225.97
980.59	225.95
980.88	225.99
981.17	226.02
981.46	226.08
981.76	226.16
982.05	226.29
982.34	226.39
982.63	226.38
982.93	226.33
983.22	226.51
983.51	226.55
983.80	226.64
984.09	226.74
984.39	226.76
984.68	226.58
984.97	226.57
985.26	226.52
985.55	226.56
985.85	226.45
986.14	226.58
986.43	226.63
986.72	226.58
987.01	226.47
987.30	226.47
987.59	226.37
987.89	226.30
988.18	226.19
988.47	226.19
988.76	226.18
989.05	226.18
989.34	226.00
989.63	226.12
989.92	226.00
990.22	225.95
990.51	225.92
990.80	226.02
991.09	226.08
991.38	226.16
991.67	226.02
991.96	226.08
992.25	226.06
992.54	225.95
992.83	225.97
993.12	225.92
993.41	226.01
993.70	226.30
993.99	226.43
994.28	226.50
994.58	226.57
994.87	226.52
995.16	226.54
995.45	226.55
995.74	226.35
996.03	226.53
996.32	226.61
996.61	226.75
996.90	226.67
997.19	226.63
997.48	226.62
997.77	226.69
998.06	226.68
998.34	226.55
998.63	226.53
998.92	226.56
999.21	226.66
999.50	226.56
999.79	226.36
1000.08	226.26
1000.37	226.29
1000.66	226.20
1000.95	226.28
1001.24	226.32
1001.53	226.32
1001.82	226.27
1002.11	226.08
1002.40	226.08
1002.68	226.16
1002.97	226.60
1003.26	226.55
1003.55	226.49
1003.84	226.50
1004.13	226.63
1004.42	226.72
1004.71	226.70
1004.99	226.64
1005.28	226.71
1005.57	226.71
1005.86	226.62
1006.15	226.66
1006.44	226.49
1006.72	226.52
1007.01	226.46
1007.30	226.42
1007.59	226.42
1007.88	226.39
1008.17	226.43
1008.45	226.28
1008.74	226.02
1009.03	225.68
1009.32	225.59
1009.60	225.60
1009.89	225.53
1010.18	225.33
1010.47	225.26
1010.76	225.31
1011.04	225.29
1011.33	225.32
1011.62	225.36
1011.91	225.42
1012.19	225.40
1012.48	225.43
1012.77	225.40
1013.05	225.58
1013.34	225.51
1013.63	225.42
1013.92	225.53
1014.20	225.48
1014.49	225.51
1014.78	225.57
1015.06	225.51
1015.35	225.59
1015.64	225.60
1015.92	225.65
1016.21	225.70
1016.50	225.62
1016.78	225.62
1017.07	225.61
1017.36	225.50
1017.64	225.44
1017.93	225.49
1018.22	225.47
1018.50	225.48
1018.79	225.45
1019.08	225.19
1019.36	225.24
1019.65	225.22
1019.93	225.31
1020.22	225.46
1020.51	225.74
1020.79	225.71
1021.08	225.75
1021.36	224.80
1021.65	225.15
1021.94	224.45
1022.22	224.85
1022.51	223.90
1022.79	227.95
1023.08	227.80
1023.36	231.75
1023.65	224.80
>>>>>End Processed Spectral Data<<<<<
