SpectraSuite Data File
++++++++++++++++++++++++++++++++++++
Date: Wed Sep 04 17:46:36 EDT 2013
User: lab3
Dark Spectrum Present: Yes
Reference Spectrum Present: No
Number of Sampled Component Spectra: 1
Spectrometers: USB2E7196
Integration Time (usec): 170000 (USB2E7196)
Spectra Averaged: 20 (USB2E7196)
Boxcar Smoothing: 10 (USB2E7196)
Correct for Electrical Dark: No (USB2E7196)
Strobe/Lamp Enabled: No (USB2E7196)
Correct for Detector Non-linearity: No (USB2E7196)
Correct for Stray Light: No (USB2E7196)
Number of Pixels in Processed Spectrum: 2048
>>>>>Begin Processed Spectral Data<<<<<
339.09	0.00
339.48	212.15
339.86	213.85
340.24	214.70
340.63	217.20
341.01	225.40
341.39	220.10
341.78	222.10
342.16	224.20
342.54	222.00
342.93	211.78
343.31	222.45
343.69	223.10
344.07	223.59
344.46	224.10
344.84	224.53
345.22	224.55
345.60	224.79
345.99	224.96
346.37	225.01
346.75	225.23
347.13	225.27
347.52	225.43
347.90	225.61
348.28	225.68
348.66	225.86
349.05	225.84
349.43	225.99
349.81	226.10
350.19	226.21
350.57	226.29
350.96	226.44
351.34	226.56
351.72	226.59
352.10	226.63
352.48	226.75
352.87	226.75
353.25	226.81
353.63	226.84
354.01	226.83
354.39	226.93
354.77	226.92
355.15	227.12
355.54	227.08
355.92	227.02
356.30	227.15
356.68	227.48
357.06	227.57
357.44	227.49
357.82	227.53
358.20	228.01
358.58	228.04
358.97	228.03
359.35	228.17
359.73	228.35
360.11	228.51
360.49	228.46
360.87	228.47
361.25	228.53
361.63	228.76
362.01	228.94
362.39	228.96
362.77	229.08
363.15	229.08
363.53	229.14
363.91	229.19
364.29	229.20
364.67	228.76
365.05	228.73
365.43	228.80
365.81	228.88
366.19	228.66
366.57	228.85
366.95	228.85
367.33	228.74
367.71	228.71
368.09	228.83
368.47	228.85
368.85	228.87
369.23	229.00
369.61	228.81
369.99	228.94
370.37	228.99
370.75	229.18
371.13	229.08
371.51	228.99
371.89	228.98
372.27	229.00
372.65	229.02
373.03	229.03
373.41	228.98
373.78	228.81
374.16	228.53
374.54	228.41
374.92	228.35
375.30	228.37
375.68	228.15
376.06	228.05
376.44	227.95
376.82	227.90
377.19	227.78
377.57	227.74
377.95	227.46
378.33	227.31
378.71	226.92
379.09	226.98
379.47	227.01
379.84	226.83
380.22	226.67
380.60	226.51
380.98	226.47
381.36	226.44
381.73	226.36
382.11	226.34
382.49	226.19
382.87	226.06
383.25	226.02
383.62	226.58
384.00	226.42
384.38	226.37
384.76	226.46
385.13	226.53
385.51	226.49
385.89	226.42
386.27	226.40
386.64	226.43
387.02	226.25
387.40	226.14
387.78	226.21
388.15	226.17
388.53	226.14
388.91	226.06
389.29	225.98
389.66	226.03
390.04	225.97
390.42	226.12
390.79	226.18
391.17	226.10
391.55	225.55
391.92	225.50
392.30	225.62
392.68	225.51
393.05	225.51
393.43	225.50
393.81	225.54
394.18	225.52
394.56	225.59
394.94	225.81
395.31	225.80
395.69	226.03
396.06	226.16
396.44	226.21
396.82	226.25
397.19	226.54
397.57	226.55
397.95	226.75
398.32	226.55
398.70	226.64
399.07	226.87
399.45	226.87
399.82	226.92
400.20	226.90
400.58	226.98
400.95	226.87
401.33	227.07
401.70	227.49
402.08	227.58
402.45	227.67
402.83	227.83
403.20	228.02
403.58	228.03
403.95	228.25
404.33	228.50
404.71	228.73
405.08	229.12
405.46	229.32
405.83	229.54
406.21	229.90
406.58	230.25
406.96	230.45
407.33	230.88
407.70	231.35
408.08	232.09
408.45	232.63
408.83	233.15
409.20	233.53
409.58	233.72
409.95	234.38
410.33	234.90
410.70	235.32
411.08	235.93
411.45	236.54
411.82	237.15
412.20	237.93
412.57	238.93
412.95	239.25
413.32	240.20
413.69	240.96
414.07	241.86
414.44	242.82
414.82	243.80
415.19	244.99
415.56	246.19
415.94	247.25
416.31	248.58
416.68	249.95
417.06	251.55
417.43	253.12
417.81	254.75
418.18	256.55
418.55	258.49
418.93	260.45
419.30	262.51
419.67	264.67
420.04	266.86
420.42	269.06
420.79	272.10
421.16	274.78
421.54	277.86
421.91	280.79
422.28	283.73
422.66	286.93
423.03	290.30
423.40	293.52
423.77	297.02
424.15	300.50
424.52	304.21
424.89	308.33
425.26	312.15
425.64	315.94
426.01	319.93
426.38	324.22
426.75	328.69
427.13	333.21
427.50	337.76
427.87	342.58
428.24	347.36
428.61	351.82
428.99	356.99
429.36	362.26
429.73	367.70
430.10	373.09
430.47	378.61
430.85	384.02
431.22	390.09
431.59	396.69
431.96	402.71
432.33	409.50
432.70	416.01
433.08	423.77
433.45	430.97
433.82	438.17
434.19	446.05
434.56	453.92
434.93	461.39
435.30	469.10
435.68	477.70
436.05	485.83
436.42	494.05
436.79	501.58
437.16	509.80
437.53	518.37
437.90	526.93
438.27	535.46
438.64	544.16
439.01	552.23
439.38	559.30
439.75	566.48
440.13	574.40
440.50	581.65
440.87	587.49
441.24	593.70
441.61	600.65
441.98	605.74
442.35	611.40
442.72	617.36
443.09	623.06
443.46	626.29
443.83	628.83
444.20	630.57
444.57	633.35
444.94	634.51
445.31	635.62
445.68	637.01
446.05	637.27
446.42	636.12
446.79	634.77
447.16	633.12
447.53	631.84
447.90	628.25
448.27	624.87
448.64	620.29
449.01	616.83
449.37	611.01
449.74	605.07
450.11	598.51
450.48	590.92
450.85	583.23
451.22	576.51
451.59	570.02
451.96	564.04
452.33	556.04
452.70	548.81
453.07	540.23
453.43	531.22
453.80	522.85
454.17	515.02
454.54	507.55
454.91	499.59
455.28	491.72
455.65	484.45
456.02	477.73
456.38	471.55
456.75	463.90
457.12	457.39
457.49	451.37
457.86	445.11
458.23	440.01
458.59	434.36
458.96	428.77
459.33	423.72
459.70	418.66
460.07	414.68
460.43	410.04
460.80	406.00
461.17	402.29
461.54	398.35
461.91	394.52
462.27	390.61
462.64	387.39
463.01	384.00
463.38	380.73
463.74	376.70
464.11	373.60
464.48	370.97
464.85	368.15
465.21	365.94
465.58	363.58
465.95	360.73
466.32	358.49
466.68	356.14
467.05	353.85
467.42	351.68
467.78	349.41
468.15	347.19
468.52	345.55
468.88	343.40
469.25	341.61
469.62	340.25
469.98	338.70
470.35	337.15
470.72	335.60
471.08	333.94
471.45	332.64
471.82	331.41
472.18	329.98
472.55	328.95
472.92	327.55
473.28	326.50
473.65	325.50
474.02	324.43
474.38	323.62
474.75	322.91
475.11	322.07
475.48	321.40
475.85	320.89
476.21	320.21
476.58	319.84
476.94	319.42
477.31	318.93
477.67	318.56
478.04	318.39
478.41	318.25
478.77	318.51
479.14	318.35
479.50	318.20
479.87	318.36
480.23	318.42
480.60	318.39
480.96	318.41
481.33	318.78
481.69	319.02
482.06	319.29
482.42	319.58
482.79	320.00
483.15	320.41
483.52	321.00
483.88	321.51
484.25	322.07
484.61	322.71
484.98	323.33
485.34	324.28
485.71	325.15
486.07	326.12
486.44	326.70
486.80	327.81
487.17	329.05
487.53	330.41
487.90	331.81
488.26	333.54
488.62	335.24
488.99	336.76
489.35	338.52
489.72	340.40
490.08	342.41
490.44	344.39
490.81	346.67
491.17	348.96
491.54	351.43
491.90	353.94
492.26	356.65
492.63	359.50
492.99	362.35
493.36	365.48
493.72	368.81
494.08	372.23
494.45	375.90
494.81	379.66
495.17	383.39
495.54	387.59
495.90	391.85
496.26	396.28
496.63	400.90
496.99	405.62
497.35	410.74
497.72	416.04
498.08	421.45
498.44	427.00
498.80	432.97
499.17	438.99
499.53	445.29
499.89	451.81
500.26	458.54
500.62	465.48
500.98	472.74
501.34	480.19
501.71	487.84
502.07	495.64
502.43	503.76
502.79	512.15
503.16	520.71
503.52	529.55
503.88	538.74
504.24	548.31
504.60	558.35
504.97	568.35
505.33	578.63
505.69	589.58
506.05	600.62
506.41	611.51
506.78	623.06
507.14	635.02
507.50	647.24
507.86	659.62
508.22	672.42
508.59	685.34
508.95	698.70
509.31	712.66
509.67	726.84
510.03	740.97
510.39	755.44
510.75	770.18
511.12	785.23
511.48	800.58
511.84	816.26
512.20	831.95
512.56	847.91
512.92	864.53
513.28	881.17
513.64	897.94
514.00	915.40
514.37	932.88
514.73	950.76
515.09	968.77
515.45	987.03
515.81	1005.14
516.17	1023.85
516.53	1042.22
516.89	1060.72
517.25	1079.48
517.61	1099.43
517.97	1119.45
518.33	1139.23
518.69	1159.06
519.05	1179.30
519.41	1199.57
519.77	1220.22
520.13	1240.74
520.49	1260.97
520.85	1282.89
521.21	1303.72
521.57	1324.36
521.93	1344.69
522.29	1365.44
522.65	1385.77
523.01	1406.22
523.37	1426.70
523.73	1447.16
524.09	1467.60
524.45	1487.84
524.81	1508.20
525.17	1528.34
525.53	1548.40
525.89	1568.72
526.25	1589.34
526.61	1609.20
526.97	1629.91
527.33	1650.55
527.68	1671.98
528.04	1692.88
528.40	1712.12
528.76	1733.00
529.12	1753.20
529.48	1773.80
529.84	1793.53
530.20	1814.29
530.56	1834.66
530.91	1855.11
531.27	1874.93
531.63	1894.98
531.99	1915.10
532.35	1934.89
532.71	1954.53
533.07	1974.84
533.42	1994.32
533.78	2013.52
534.14	2032.94
534.50	2051.36
534.86	2070.44
535.21	2087.65
535.57	2105.58
535.93	2122.79
536.29	2139.96
536.65	2157.78
537.00	2174.88
537.36	2191.79
537.72	2207.86
538.08	2224.78
538.44	2240.69
538.79	2256.68
539.15	2272.54
539.51	2288.18
539.87	2302.96
540.22	2316.39
540.58	2330.37
540.94	2343.24
541.29	2355.71
541.65	2368.00
542.01	2379.85
542.37	2389.53
542.72	2400.04
543.08	2410.27
543.44	2421.17
543.79	2430.72
544.15	2440.00
544.51	2449.45
544.87	2458.74
545.22	2467.00
545.58	2473.99
545.94	2480.78
546.29	2486.95
546.65	2492.71
547.01	2497.90
547.36	2502.94
547.72	2508.31
548.07	2511.84
548.43	2516.94
548.79	2521.06
549.14	2524.61
549.50	2528.03
549.86	2531.61
550.21	2534.81
550.57	2537.75
550.92	2539.02
551.28	2540.13
551.64	2541.95
551.99	2543.53
552.35	2544.63
552.70	2546.58
553.06	2548.15
553.41	2549.02
553.77	2550.37
554.13	2551.71
554.48	2552.84
554.84	2553.88
555.19	2554.81
555.55	2555.90
555.90	2554.74
556.26	2553.49
556.61	2551.85
556.97	2549.64
557.32	2548.97
557.68	2547.67
558.03	2546.10
558.39	2544.12
558.74	2542.91
559.10	2539.62
559.45	2535.60
559.81	2531.17
560.16	2525.68
560.52	2520.34
560.87	2516.06
561.23	2510.57
561.58	2504.57
561.94	2497.58
562.29	2490.12
562.64	2482.97
563.00	2474.63
563.35	2467.81
563.71	2461.24
564.06	2454.83
564.42	2448.20
564.77	2440.91
565.12	2433.46
565.48	2425.47
565.83	2418.03
566.19	2409.83
566.54	2401.92
566.89	2394.35
567.25	2386.71
567.60	2379.39
567.96	2372.33
568.31	2364.06
568.66	2355.36
569.02	2346.37
569.37	2338.27
569.72	2330.86
570.08	2321.73
570.43	2312.26
570.78	2303.54
571.14	2294.35
571.49	2284.04
571.84	2274.55
572.20	2264.16
572.55	2254.06
572.90	2243.46
573.26	2233.28
573.61	2222.60
573.96	2211.43
574.31	2199.14
574.67	2187.55
575.02	2175.11
575.37	2162.14
575.72	2149.39
576.08	2137.50
576.43	2124.97
576.78	2112.01
577.13	2098.56
577.49	2085.96
577.84	2074.65
578.19	2062.81
578.54	2050.37
578.90	2038.68
579.25	2026.73
579.60	2014.34
579.95	2001.66
580.30	1988.84
580.66	1975.63
581.01	1962.36
581.36	1949.11
581.71	1936.83
582.06	1924.11
582.42	1911.82
582.77	1899.55
583.12	1887.93
583.47	1875.81
583.82	1864.41
584.17	1852.66
584.53	1841.04
584.88	1828.45
585.23	1815.53
585.58	1801.48
585.93	1788.61
586.28	1775.79
586.63	1762.15
586.98	1748.45
587.34	1735.53
587.69	1722.48
588.04	1710.35
588.39	1698.47
588.74	1686.50
589.09	1674.74
589.44	1662.09
589.79	1650.31
590.14	1638.59
590.49	1626.79
590.84	1615.24
591.19	1603.65
591.54	1591.82
591.89	1580.18
592.25	1570.17
592.60	1558.96
592.95	1547.85
593.30	1536.11
593.65	1524.48
594.00	1512.58
594.35	1502.97
594.70	1491.40
595.05	1480.62
595.40	1468.52
595.75	1456.89
596.10	1446.09
596.45	1434.88
596.80	1424.68
597.15	1413.48
597.50	1402.28
597.85	1391.20
598.19	1379.83
598.54	1368.52
598.89	1357.95
599.24	1347.39
599.59	1336.33
599.94	1325.95
600.29	1316.05
600.64	1306.22
600.99	1295.93
601.34	1286.88
601.69	1275.97
602.04	1266.39
602.39	1256.68
602.74	1248.08
603.08	1239.15
603.43	1230.02
603.78	1220.69
604.13	1211.09
604.48	1201.62
604.83	1192.05
605.18	1182.43
605.53	1173.23
605.87	1164.25
606.22	1155.52
606.57	1146.63
606.92	1137.48
607.27	1128.64
607.62	1120.15
607.96	1111.90
608.31	1104.16
608.66	1095.97
609.01	1087.93
609.36	1079.91
609.70	1071.85
610.05	1063.49
610.40	1055.21
610.75	1046.91
611.10	1038.95
611.44	1030.60
611.79	1022.74
612.14	1015.29
612.49	1007.71
612.83	1000.52
613.18	993.00
613.53	985.56
613.88	977.75
614.22	970.30
614.57	962.66
614.92	954.70
615.27	947.40
615.61	939.98
615.96	932.58
616.31	925.10
616.65	918.02
617.00	910.85
617.35	903.66
617.70	896.71
618.04	889.64
618.39	882.84
618.74	876.79
619.08	870.25
619.43	863.23
619.78	856.55
620.12	849.52
620.47	842.82
620.82	835.91
621.16	829.55
621.51	823.34
621.85	817.17
622.20	810.90
622.55	804.34
622.89	798.08
623.24	792.03
623.59	786.05
623.93	780.08
624.28	773.98
624.62	768.60
624.97	762.94
625.32	757.43
625.66	751.65
626.01	745.59
626.35	740.18
626.70	735.00
627.04	729.70
627.39	724.38
627.73	719.31
628.08	714.29
628.43	709.06
628.77	703.82
629.12	698.87
629.46	694.35
629.81	689.85
630.15	685.05
630.50	680.14
630.84	675.29
631.19	670.72
631.53	666.43
631.88	661.33
632.22	656.64
632.57	652.29
632.91	647.81
633.26	643.63
633.60	639.07
633.95	634.59
634.29	630.11
634.64	625.94
634.98	621.24
635.32	617.04
635.67	613.21
636.01	609.13
636.36	604.89
636.70	600.89
637.05	596.89
637.39	593.05
637.73	589.29
638.08	585.43
638.42	581.25
638.77	577.10
639.11	573.07
639.45	568.73
639.80	564.42
640.14	560.50
640.49	556.60
640.83	552.96
641.17	549.35
641.52	545.74
641.86	542.12
642.20	539.13
642.55	535.56
642.89	531.97
643.23	528.55
643.58	525.55
643.92	522.05
644.26	518.83
644.61	515.75
644.95	512.43
645.29	509.18
645.64	506.14
645.98	503.11
646.32	500.22
646.66	497.46
647.01	494.65
647.35	492.02
647.69	489.05
648.04	486.40
648.38	483.60
648.72	480.88
649.06	478.05
649.41	475.02
649.75	472.16
650.09	469.45
650.43	466.64
650.78	463.77
651.12	460.93
651.46	458.02
651.80	455.21
652.14	452.58
652.49	450.14
652.83	447.50
653.17	445.10
653.51	442.50
653.85	440.08
654.20	437.64
654.54	435.08
654.88	432.73
655.22	430.48
655.56	428.22
655.90	425.97
656.25	423.79
656.59	421.60
656.93	419.48
657.27	417.26
657.61	414.97
657.95	412.74
658.29	410.73
658.64	408.71
658.98	406.48
659.32	404.36
659.66	402.29
660.00	400.25
660.34	398.13
660.68	396.15
661.02	394.14
661.36	392.29
661.70	390.36
662.05	388.47
662.39	386.38
662.73	384.64
663.07	382.99
663.41	381.22
663.75	379.27
664.09	377.51
664.43	375.73
664.77	374.21
665.11	372.42
665.45	370.82
665.79	369.21
666.13	367.69
666.47	366.10
666.81	364.49
667.15	362.99
667.49	361.57
667.83	360.26
668.17	358.83
668.51	357.42
668.85	356.13
669.19	354.96
669.53	353.55
669.87	352.02
670.21	350.49
670.55	349.09
670.89	348.09
671.23	346.69
671.57	345.33
671.91	344.00
672.25	342.79
672.58	341.63
672.92	340.28
673.26	338.99
673.60	337.82
673.94	336.61
674.28	335.50
674.62	334.41
674.96	333.15
675.30	332.09
675.64	330.82
675.97	329.61
676.31	328.30
676.65	327.21
676.99	326.25
677.33	325.09
677.67	324.02
678.01	322.73
678.34	321.74
678.68	320.85
679.02	319.76
679.36	318.74
679.70	317.61
680.04	316.66
680.37	315.84
680.71	314.88
681.05	313.98
681.39	313.06
681.73	312.07
682.06	311.22
682.40	310.30
682.74	309.52
683.08	308.88
683.42	308.07
683.75	307.31
684.09	306.38
684.43	305.67
684.77	304.88
685.10	304.11
685.44	303.23
685.78	302.37
686.12	301.62
686.45	300.92
686.79	300.06
687.13	299.44
687.46	298.60
687.80	297.99
688.14	297.21
688.48	296.41
688.81	295.67
689.15	295.04
689.49	294.45
689.82	293.79
690.16	292.77
690.50	292.13
690.83	291.35
691.17	290.68
691.51	289.90
691.84	289.25
692.18	288.60
692.52	288.01
692.85	287.47
693.19	287.07
693.52	286.41
693.86	285.92
694.20	285.21
694.53	284.63
694.87	283.91
695.21	283.30
695.54	282.74
695.88	282.11
696.21	281.39
696.55	280.75
696.88	280.14
697.22	279.64
697.56	279.08
697.89	278.48
698.23	278.00
698.56	277.52
698.90	277.03
699.23	276.46
699.57	275.94
699.90	275.32
700.24	274.59
700.58	274.14
700.91	273.74
701.25	273.72
701.58	273.61
701.92	273.31
702.25	272.93
702.59	272.45
702.92	272.05
703.26	271.68
703.59	271.28
703.93	271.29
704.26	270.98
704.60	270.63
704.93	270.16
705.26	269.63
705.60	269.36
705.93	268.85
706.27	268.68
706.60	268.50
706.94	268.36
707.27	267.98
707.61	267.65
707.94	267.22
708.27	266.38
708.61	265.65
708.94	265.15
709.28	264.75
709.61	264.48
709.94	264.08
710.28	263.67
710.61	263.32
710.95	262.44
711.28	262.34
711.61	261.90
711.95	261.68
712.28	261.32
712.61	260.94
712.95	260.78
713.28	260.52
713.61	260.06
713.95	259.60
714.28	259.38
714.61	258.96
714.95	258.57
715.28	258.28
715.61	257.94
715.95	257.65
716.28	257.30
716.61	257.00
716.95	256.61
717.28	256.31
717.61	255.97
717.94	255.71
718.28	255.05
718.61	254.74
718.94	254.42
719.27	254.17
719.61	253.79
719.94	253.53
720.27	253.06
720.60	252.73
720.94	252.51
721.27	252.24
721.60	252.05
721.93	251.85
722.27	251.70
722.60	251.63
722.93	251.33
723.26	251.14
723.59	250.85
723.93	250.71
724.26	250.55
724.59	250.32
724.92	250.17
725.25	250.16
725.59	249.89
725.92	249.78
726.25	249.59
726.58	249.49
726.91	249.19
727.24	249.06
727.57	248.83
727.91	248.48
728.24	248.34
728.57	248.09
728.90	248.01
729.23	247.69
729.56	247.61
729.89	247.43
730.22	247.24
730.55	247.11
730.89	246.97
731.22	246.77
731.55	246.55
731.88	246.34
732.21	246.06
732.54	245.95
732.87	245.70
733.20	245.58
733.53	245.46
733.86	245.37
734.19	245.11
734.52	245.08
734.85	245.31
735.18	245.07
735.51	245.10
735.84	244.90
736.17	244.88
736.50	244.44
736.83	244.81
737.16	244.70
737.49	244.57
737.82	244.44
738.15	244.36
738.48	244.26
738.81	244.12
739.14	243.95
739.47	243.74
739.80	243.64
740.13	243.51
740.46	243.18
740.79	242.93
741.12	242.80
741.45	242.58
741.78	242.10
742.11	242.06
742.44	241.79
742.77	241.68
743.10	241.46
743.43	241.39
743.75	240.79
744.08	241.21
744.41	241.00
744.74	240.81
745.07	240.52
745.40	240.38
745.73	240.47
746.06	240.29
746.39	240.32
746.71	240.10
747.04	239.90
747.37	239.85
747.70	239.83
748.03	239.74
748.36	239.68
748.68	239.59
749.01	239.34
749.34	239.25
749.67	239.26
750.00	239.26
750.33	239.45
750.65	239.36
750.98	238.69
751.31	238.59
751.64	238.48
751.97	238.64
752.29	238.52
752.62	238.15
752.95	238.05
753.28	237.80
753.60	237.77
753.93	237.80
754.26	237.72
754.59	237.45
754.91	237.34
755.24	237.24
755.57	237.18
755.90	237.05
756.22	236.90
756.55	236.64
756.88	236.42
757.20	236.01
757.53	235.80
757.86	235.63
758.19	235.54
758.51	235.46
758.84	235.18
759.17	235.00
759.49	234.97
759.82	235.12
760.15	235.20
760.47	235.09
760.80	234.86
761.13	234.86
761.45	234.84
761.78	234.75
762.11	234.74
762.43	234.59
762.76	234.51
763.08	234.48
763.41	234.46
763.74	234.42
764.06	234.34
764.39	234.34
764.71	234.31
765.04	234.23
765.37	234.13
765.69	234.06
766.02	234.00
766.34	233.86
766.67	233.57
767.00	233.52
767.32	233.61
767.65	233.86
767.97	233.79
768.30	233.75
768.62	233.63
768.95	233.41
769.27	233.32
769.60	233.39
769.92	233.22
770.25	233.02
770.57	232.92
770.90	232.81
771.22	232.63
771.55	232.64
771.87	232.65
772.20	232.53
772.52	232.80
772.85	233.33
773.17	233.25
773.50	233.18
773.82	233.12
774.15	232.86
774.47	232.50
774.80	232.28
775.12	232.16
775.45	232.07
775.77	232.03
776.09	232.02
776.42	231.90
776.74	232.05
777.07	232.00
777.39	231.92
777.72	231.87
778.04	231.92
778.36	231.77
778.69	231.68
779.01	231.67
779.33	231.29
779.66	230.73
779.98	230.72
780.31	230.67
780.63	230.75
780.95	230.82
781.28	230.80
781.60	230.76
781.92	230.71
782.25	230.76
782.57	230.69
782.89	230.63
783.22	230.60
783.54	230.44
783.86	230.41
784.19	230.28
784.51	230.44
784.83	230.23
785.16	230.19
785.48	230.11
785.80	230.16
786.12	230.17
786.45	230.17
786.77	230.15
787.09	230.06
787.42	229.88
787.74	229.81
788.06	229.78
788.38	229.76
788.71	229.69
789.03	229.62
789.35	229.68
789.67	229.56
789.99	229.52
790.32	229.44
790.64	229.49
790.96	229.95
791.28	229.67
791.61	229.65
791.93	229.66
792.25	229.64
792.57	229.92
792.89	229.77
793.21	229.76
793.54	229.68
793.86	229.60
794.18	229.54
794.50	229.49
794.82	229.51
795.14	229.55
795.47	229.64
795.79	229.62
796.11	229.51
796.43	229.52
796.75	229.47
797.07	229.49
797.39	229.47
797.71	229.08
798.04	229.18
798.36	229.24
798.68	229.28
799.00	229.34
799.32	229.00
799.64	229.13
799.96	229.05
800.28	229.21
800.60	229.26
800.92	229.34
801.24	229.27
801.56	229.28
801.89	229.24
802.21	229.25
802.53	229.18
802.85	229.25
803.17	229.44
803.49	229.36
803.81	229.29
804.13	229.18
804.45	229.12
804.77	229.15
805.09	229.13
805.41	229.01
805.73	228.95
806.05	228.90
806.37	228.84
806.69	228.84
807.01	228.66
807.33	228.69
807.65	228.50
807.97	228.73
808.28	228.70
808.60	228.61
808.92	228.50
809.24	228.81
809.56	228.76
809.88	228.59
810.20	228.67
810.52	228.76
810.84	228.74
811.16	228.75
811.48	228.69
811.80	228.85
812.12	228.83
812.43	228.83
812.75	228.76
813.07	228.75
813.39	228.71
813.71	228.65
814.03	228.61
814.35	228.60
814.67	228.40
814.98	228.30
815.30	228.28
815.62	228.28
815.94	227.93
816.26	228.12
816.58	228.05
816.89	228.06
817.21	227.91
817.53	227.91
817.85	227.91
818.17	227.84
818.48	227.65
818.80	227.72
819.12	227.62
819.44	227.61
819.76	227.49
820.07	227.49
820.39	227.52
820.71	227.52
821.03	227.50
821.34	227.54
821.66	227.60
821.98	227.71
822.30	227.57
822.61	227.89
822.93	227.63
823.25	227.60
823.57	227.56
823.88	227.69
824.20	227.70
824.52	227.72
824.83	227.75
825.15	227.72
825.47	227.67
825.79	227.71
826.10	227.70
826.42	227.68
826.74	227.69
827.05	227.67
827.37	227.71
827.69	227.70
828.00	227.69
828.32	227.65
828.64	227.53
828.95	227.91
829.27	227.79
829.58	227.75
829.90	227.79
830.22	227.79
830.53	227.65
830.85	227.60
831.17	227.43
831.48	227.39
831.80	227.39
832.11	227.38
832.43	227.29
832.75	227.25
833.06	227.57
833.38	227.45
833.69	227.43
834.01	227.40
834.32	227.35
834.64	227.23
834.96	227.26
835.27	227.27
835.59	227.06
835.90	227.04
836.22	227.07
836.53	227.02
836.85	226.94
837.16	227.42
837.48	227.43
837.79	227.67
838.11	227.68
838.42	227.72
838.74	227.74
839.05	227.73
839.37	227.70
839.68	227.37
840.00	227.37
840.31	227.46
840.63	227.50
840.94	227.45
841.26	227.40
841.57	227.40
841.88	227.45
842.20	227.39
842.51	227.20
842.83	227.15
843.14	227.57
843.46	227.54
843.77	227.28
844.08	227.30
844.40	227.12
844.71	227.07
845.03	226.99
845.34	226.93
845.65	226.86
845.97	226.95
846.28	227.00
846.60	227.01
846.91	226.92
847.22	226.86
847.54	227.00
847.85	227.05
848.16	227.01
848.48	226.90
848.79	227.06
849.10	227.17
849.42	227.20
849.73	226.76
850.04	226.81
850.36	226.55
850.67	226.58
850.98	226.62
851.30	226.67
851.61	226.61
851.92	226.60
852.23	226.83
852.55	226.84
852.86	226.87
853.17	226.91
853.49	226.93
853.80	227.04
854.11	227.00
854.42	227.00
854.74	226.93
855.05	226.98
855.36	226.71
855.67	226.72
855.99	226.70
856.30	227.25
856.61	227.18
856.92	227.29
857.23	227.29
857.55	227.24
857.86	227.22
858.17	227.34
858.48	227.21
858.79	227.08
859.11	227.11
859.42	227.04
859.73	226.98
860.04	226.98
860.35	226.85
860.66	226.70
860.98	226.72
861.29	226.78
861.60	226.75
861.91	226.90
862.22	226.78
862.53	226.78
862.84	226.20
863.16	226.33
863.47	226.24
863.78	226.14
864.09	226.15
864.40	226.21
864.71	226.22
865.02	226.31
865.33	226.19
865.64	226.03
865.95	226.04
866.27	226.29
866.58	226.28
866.89	226.32
867.20	226.38
867.51	226.22
867.82	226.17
868.13	226.31
868.44	226.18
868.75	226.30
869.06	226.28
869.37	226.34
869.68	226.16
869.99	226.21
870.30	226.25
870.61	226.31
870.92	226.21
871.23	226.16
871.54	226.26
871.85	226.41
872.16	226.47
872.47	226.40
872.78	226.14
873.09	226.17
873.40	226.13
873.71	226.17
874.02	226.27
874.33	226.26
874.64	226.13
874.95	226.20
875.26	226.08
875.56	226.06
875.87	225.99
876.18	226.05
876.49	226.50
876.80	226.46
877.11	226.29
877.42	226.28
877.73	226.21
878.04	226.11
878.35	226.05
878.66	226.09
878.96	226.10
879.27	226.04
879.58	226.00
879.89	225.97
880.20	226.05
880.51	226.07
880.82	226.05
881.12	226.10
881.43	226.03
881.74	225.94
882.05	225.95
882.36	226.03
882.67	226.03
882.97	225.55
883.28	225.49
883.59	225.48
883.90	225.57
884.21	225.66
884.51	225.65
884.82	225.62
885.13	225.61
885.44	225.61
885.74	225.71
886.05	225.74
886.36	225.71
886.67	225.52
886.98	225.72
887.28	225.76
887.59	225.72
887.90	225.79
888.20	225.83
888.51	225.97
888.82	225.90
889.13	225.92
889.43	226.32
889.74	226.36
890.05	226.42
890.35	226.39
890.66	226.30
890.97	226.26
891.28	226.28
891.58	226.38
891.89	226.40
892.20	226.30
892.50	226.23
892.81	226.20
893.12	226.29
893.42	226.10
893.73	226.11
894.04	226.09
894.34	226.08
894.65	226.04
894.95	225.91
895.26	225.99
895.57	226.23
895.87	225.78
896.18	225.87
896.48	225.88
896.79	225.81
897.10	225.97
897.40	225.97
897.71	225.97
898.01	225.86
898.32	225.96
898.63	226.00
898.93	226.06
899.24	226.09
899.54	226.01
899.85	225.92
900.15	225.92
900.46	225.99
900.76	226.05
901.07	226.11
901.38	226.12
901.68	226.11
901.99	225.86
902.29	225.88
902.60	225.84
902.90	225.82
903.21	225.79
903.51	225.70
903.82	225.85
904.12	225.89
904.43	225.89
904.73	225.85
905.03	225.81
905.34	226.23
905.64	226.21
905.95	226.29
906.25	226.29
906.56	226.24
906.86	226.24
907.17	226.20
907.47	226.20
907.77	226.16
908.08	226.07
908.38	226.08
908.69	226.04
908.99	226.10
909.30	226.15
909.60	226.20
909.90	226.21
910.21	226.01
910.51	226.01
910.81	226.02
911.12	226.01
911.42	226.08
911.73	225.60
912.03	225.70
912.33	225.77
912.64	225.79
912.94	225.79
913.24	225.66
913.55	225.58
913.85	225.57
914.15	225.62
914.46	225.74
914.76	225.74
915.06	225.76
915.37	225.66
915.67	225.63
915.97	225.63
916.27	225.59
916.58	225.64
916.88	225.56
917.18	225.56
917.49	225.83
917.79	225.83
918.09	225.89
918.39	225.94
918.70	225.92
919.00	225.91
919.30	226.16
919.60	226.19
919.91	226.08
920.21	226.06
920.51	226.02
920.81	225.95
921.12	226.02
921.42	226.07
921.72	226.12
922.02	226.15
922.32	226.16
922.63	226.13
922.93	226.38
923.23	226.43
923.53	226.35
923.83	226.04
924.13	226.05
924.44	226.10
924.74	226.15
925.04	226.30
925.34	226.28
925.64	226.09
925.94	226.07
926.24	226.47
926.55	226.46
926.85	226.54
927.15	226.53
927.45	226.59
927.75	226.55
928.05	226.61
928.35	226.55
928.65	226.67
928.95	226.69
929.26	226.50
929.56	226.62
929.86	226.70
930.16	226.70
930.46	226.74
930.76	226.74
931.06	226.55
931.36	226.40
931.66	226.54
931.96	226.64
932.26	226.66
932.56	226.44
932.86	226.58
933.16	226.53
933.46	226.47
933.76	226.34
934.06	226.53
934.36	226.71
934.66	226.79
934.96	226.76
935.26	226.82
935.56	226.90
935.86	226.73
936.16	226.64
936.46	226.62
936.76	226.55
937.06	226.55
937.36	226.62
937.66	226.60
937.96	226.56
938.26	226.41
938.56	226.34
938.86	226.35
939.16	226.35
939.46	226.45
939.76	226.49
940.06	226.46
940.35	226.26
940.65	225.95
940.95	225.95
941.25	225.68
941.55	225.62
941.85	225.58
942.15	225.71
942.45	225.89
942.75	225.83
943.04	225.85
943.34	225.88
943.64	225.83
943.94	225.80
944.24	225.79
944.54	225.80
944.84	225.87
945.13	225.86
945.43	225.79
945.73	225.73
946.03	225.68
946.33	225.66
946.62	225.67
946.92	225.67
947.22	225.69
947.52	225.83
947.82	225.86
948.11	225.78
948.41	225.66
948.71	225.50
949.01	225.59
949.31	225.51
949.60	225.44
949.90	225.52
950.20	225.44
950.50	225.39
950.79	225.32
951.09	225.33
951.39	225.22
951.69	225.17
951.98	225.33
952.28	225.37
952.58	225.41
952.87	225.33
953.17	225.41
953.47	225.35
953.76	225.36
954.06	225.30
954.36	225.28
954.66	225.29
954.95	225.40
955.25	225.41
955.55	225.44
955.84	225.37
956.14	225.31
956.44	225.38
956.73	225.38
957.03	225.47
957.32	225.45
957.62	225.47
957.92	225.60
958.21	225.47
958.51	226.00
958.81	226.04
959.10	226.16
959.40	226.19
959.69	226.20
959.99	226.28
960.29	226.27
960.58	226.28
960.88	226.52
961.17	226.50
961.47	226.56
961.76	226.53
962.06	226.65
962.36	226.68
962.65	226.70
962.95	226.66
963.24	226.62
963.54	226.70
963.83	226.80
964.13	226.75
964.42	226.60
964.72	226.20
965.01	226.21
965.31	226.21
965.60	226.13
965.90	226.47
966.19	226.33
966.49	226.37
966.78	226.37
967.08	226.23
967.37	226.27
967.67	226.22
967.96	226.39
968.26	226.31
968.55	226.35
968.85	226.35
969.14	226.36
969.43	226.38
969.73	226.33
970.02	226.30
970.32	226.24
970.61	226.25
970.91	226.18
971.20	226.06
971.49	225.98
971.79	226.01
972.08	225.66
972.38	225.74
972.67	225.71
972.96	225.78
973.26	225.74
973.55	225.92
973.85	225.82
974.14	225.78
974.43	225.85
974.73	225.70
975.02	225.65
975.31	225.71
975.61	225.72
975.90	225.66
976.19	225.59
976.49	225.63
976.78	225.70
977.07	225.67
977.37	225.75
977.66	225.86
977.95	225.81
978.24	225.90
978.54	226.02
978.83	226.01
979.12	225.91
979.42	225.94
979.71	225.79
980.00	225.81
980.29	225.78
980.59	225.67
980.88	225.85
981.17	225.90
981.46	225.92
981.76	225.85
982.05	226.07
982.34	226.05
982.63	226.05
982.93	226.07
983.22	226.20
983.51	226.19
983.80	226.28
984.09	226.27
984.39	226.23
984.68	226.15
984.97	226.18
985.26	226.13
985.55	226.15
985.85	226.00
986.14	226.09
986.43	226.09
986.72	226.09
987.01	225.91
987.30	225.84
987.59	225.76
987.89	225.83
988.18	225.60
988.47	225.57
988.76	225.56
989.05	225.50
989.34	225.43
989.63	225.54
989.92	225.40
990.22	225.42
990.51	225.35
990.80	225.27
991.09	225.35
991.38	225.44
991.67	225.36
991.96	225.33
992.25	225.36
992.54	225.35
992.83	225.30
993.12	225.32
993.41	225.38
993.70	225.61
993.99	225.72
994.28	225.82
994.58	225.96
994.87	225.88
995.16	225.86
995.45	225.78
995.74	225.63
996.03	225.65
996.32	225.73
996.61	225.79
996.90	225.85
997.19	225.78
997.48	225.83
997.77	225.77
998.06	225.84
998.34	225.77
998.63	225.72
998.92	225.80
999.21	225.88
999.50	225.88
999.79	225.69
1000.08	225.68
1000.37	225.65
1000.66	225.60
1000.95	225.73
1001.24	225.76
1001.53	225.85
1001.82	225.87
1002.11	225.77
1002.40	225.80
1002.68	226.00
1002.97	226.25
1003.26	226.24
1003.55	226.17
1003.84	226.22
1004.13	226.44
1004.42	226.38
1004.71	226.41
1004.99	226.43
1005.28	226.57
1005.57	226.63
1005.86	226.53
1006.15	226.46
1006.44	226.44
1006.72	226.46
1007.01	226.40
1007.30	226.41
1007.59	226.35
1007.88	226.31
1008.17	226.42
1008.45	226.27
1008.74	226.06
1009.03	225.92
1009.32	226.00
1009.60	225.98
1009.89	225.95
1010.18	225.72
1010.47	225.76
1010.76	225.71
1011.04	225.71
1011.33	225.76
1011.62	225.78
1011.91	225.85
1012.19	225.88
1012.48	225.94
1012.77	225.96
1013.05	226.18
1013.34	226.16
1013.63	226.18
1013.92	226.20
1014.20	226.18
1014.49	226.21
1014.78	226.23
1015.06	226.00
1015.35	225.95
1015.64	226.05
1015.92	226.15
1016.21	226.15
1016.50	226.15
1016.78	226.23
1017.07	226.26
1017.36	226.13
1017.64	226.00
1017.93	226.05
1018.22	226.02
1018.50	225.99
1018.79	225.95
1019.08	225.70
1019.36	225.70
1019.65	225.65
1019.93	225.78
1020.22	225.86
1020.51	226.15
1020.79	226.09
1021.08	225.70
1021.36	225.70
1021.65	225.85
1021.94	225.20
1022.22	225.15
1022.51	225.05
1022.79	227.90
1023.08	227.00
1023.36	231.60
1023.65	224.50
>>>>>End Processed Spectral Data<<<<<
