SpectraSuite Data File
++++++++++++++++++++++++++++++++++++
Date: Wed Sep 04 17:57:16 EDT 2013
User: lab3
Dark Spectrum Present: Yes
Reference Spectrum Present: No
Number of Sampled Component Spectra: 1
Spectrometers: USB2E7196
Integration Time (usec): 170000 (USB2E7196)
Spectra Averaged: 20 (USB2E7196)
Boxcar Smoothing: 10 (USB2E7196)
Correct for Electrical Dark: No (USB2E7196)
Strobe/Lamp Enabled: No (USB2E7196)
Correct for Detector Non-linearity: No (USB2E7196)
Correct for Stray Light: No (USB2E7196)
Number of Pixels in Processed Spectrum: 2048
>>>>>Begin Processed Spectral Data<<<<<
339.09	0.00
339.48	212.90
339.86	214.80
340.24	217.05
340.63	217.15
341.01	225.90
341.39	219.40
341.78	222.90
342.16	223.50
342.54	222.80
342.93	212.42
343.31	223.11
343.69	223.70
344.07	224.25
344.46	224.72
344.84	225.11
345.22	225.07
345.60	225.44
345.99	225.64
346.37	225.75
346.75	225.92
347.13	225.99
347.52	226.10
347.90	226.32
348.28	226.31
348.66	226.46
349.05	226.31
349.43	226.41
349.81	226.51
350.19	226.67
350.57	226.68
350.96	226.82
351.34	226.98
351.72	227.01
352.10	227.01
352.48	227.09
352.87	227.15
353.25	227.29
353.63	227.32
354.01	227.32
354.39	227.37
354.77	227.41
355.15	227.56
355.54	227.51
355.92	227.42
356.30	227.61
356.68	227.90
357.06	228.07
357.44	228.08
357.82	228.01
358.20	228.48
358.58	228.57
358.97	228.58
359.35	228.73
359.73	228.96
360.11	229.03
360.49	229.05
360.87	229.11
361.25	229.21
361.63	229.39
362.01	229.48
362.39	229.54
362.77	229.63
363.15	229.65
363.53	229.71
363.91	229.75
364.29	229.73
364.67	229.34
365.05	229.34
365.43	229.38
365.81	229.61
366.19	229.35
366.57	229.60
366.95	229.63
367.33	229.52
367.71	229.48
368.09	229.59
368.47	229.52
368.85	229.55
369.23	229.65
369.61	229.46
369.99	229.57
370.37	229.61
370.75	229.87
371.13	229.77
371.51	229.79
371.89	229.72
372.27	229.75
372.65	229.77
373.03	229.71
373.41	229.67
373.78	229.55
374.16	229.30
374.54	229.07
374.92	228.90
375.30	228.79
375.68	228.61
376.06	228.58
376.44	228.49
376.82	228.43
377.19	228.31
377.57	228.29
377.95	228.07
378.33	227.97
378.71	227.53
379.09	227.50
379.47	227.48
379.84	227.35
380.22	227.19
380.60	227.09
380.98	227.01
381.36	226.88
381.73	226.72
382.11	226.74
382.49	226.70
382.87	226.65
383.25	226.63
383.62	227.09
384.00	226.96
384.38	226.96
384.76	227.00
385.13	227.08
385.51	227.02
385.89	226.94
386.27	226.89
386.64	226.94
387.02	226.85
387.40	226.71
387.78	226.68
388.15	226.77
388.53	226.67
388.91	226.63
389.29	226.52
389.66	226.57
390.04	226.53
390.42	226.56
390.79	226.60
391.17	226.61
391.55	226.06
391.92	226.05
392.30	226.07
392.68	225.93
393.05	225.92
393.43	225.90
393.81	225.97
394.18	225.94
394.56	225.97
394.94	226.11
395.31	226.13
395.69	226.35
396.06	226.28
396.44	226.37
396.82	226.35
397.19	226.72
397.57	226.74
397.95	226.87
398.32	226.78
398.70	226.86
399.07	227.00
399.45	227.12
399.82	227.19
400.20	227.23
400.58	227.35
400.95	227.16
401.33	227.42
401.70	227.81
402.08	227.94
402.45	228.06
402.83	228.31
403.20	228.52
403.58	228.61
403.95	228.88
404.33	229.17
404.71	229.50
405.08	229.98
405.46	230.22
405.83	230.49
406.21	230.78
406.58	231.05
406.96	231.30
407.33	231.65
407.70	232.01
408.08	232.82
408.45	233.30
408.83	233.81
409.20	234.09
409.58	234.33
409.95	234.85
410.33	235.41
410.70	235.76
411.08	236.35
411.45	237.00
411.82	237.62
412.20	238.31
412.57	239.20
412.95	239.49
413.32	240.35
413.69	241.17
414.07	242.11
414.44	243.14
414.82	244.16
415.19	245.33
415.56	246.51
415.94	247.43
416.31	248.85
416.68	250.37
417.06	252.03
417.43	253.63
417.81	255.48
418.18	257.27
418.55	259.14
418.93	261.30
419.30	263.39
419.67	265.57
420.04	267.88
420.42	270.29
420.79	273.44
421.16	276.26
421.54	279.30
421.91	282.30
422.28	285.33
422.66	288.51
423.03	291.99
423.40	295.37
423.77	298.98
424.15	302.52
424.52	306.22
424.89	310.40
425.26	314.36
425.64	318.09
426.01	322.18
426.38	326.65
426.75	331.09
427.13	335.71
427.50	340.44
427.87	345.38
428.24	350.27
428.61	354.75
428.99	360.13
429.36	365.65
429.73	371.13
430.10	376.65
430.47	382.52
430.85	388.15
431.22	394.37
431.59	401.14
431.96	407.46
432.33	414.53
432.70	421.15
433.08	429.10
433.45	436.54
433.82	444.12
434.19	452.39
434.56	460.43
434.93	468.18
435.30	476.14
435.68	484.71
436.05	493.16
436.42	501.51
436.79	509.31
437.16	517.72
437.53	526.64
437.90	535.47
438.27	544.06
438.64	552.90
439.01	561.12
439.38	568.43
439.75	575.65
440.13	583.73
440.50	591.40
440.87	597.45
441.24	603.98
441.61	610.96
441.98	615.96
442.35	621.92
442.72	627.86
443.09	633.69
443.46	637.15
443.83	639.49
444.20	641.45
444.57	643.89
444.94	644.97
445.31	646.02
445.68	647.36
446.05	647.54
446.42	646.34
446.79	645.03
447.16	643.26
447.53	641.88
447.90	638.02
448.27	634.33
448.64	629.39
449.01	625.53
449.37	619.16
449.74	613.18
450.11	606.29
450.48	598.51
450.85	590.33
451.22	583.35
451.59	576.80
451.96	570.43
452.33	562.40
452.70	554.93
453.07	546.20
453.43	537.08
453.80	528.50
454.17	520.33
454.54	512.59
454.91	504.47
455.28	496.52
455.65	489.26
456.02	482.21
456.38	475.85
456.75	468.17
457.12	461.75
457.49	455.41
457.86	449.01
458.23	443.82
458.59	438.19
458.96	432.47
459.33	427.22
459.70	422.20
460.07	418.06
460.43	413.43
460.80	409.23
461.17	405.44
461.54	401.42
461.91	397.78
462.27	393.90
462.64	390.65
463.01	387.01
463.38	383.57
463.74	379.68
464.11	376.63
464.48	373.90
464.85	371.07
465.21	368.91
465.58	366.55
465.95	363.72
466.32	361.40
466.68	359.14
467.05	356.81
467.42	354.55
467.78	352.33
468.15	350.19
468.52	348.42
468.88	346.20
469.25	344.33
469.62	342.79
469.98	341.18
470.35	339.65
470.72	338.23
471.08	336.50
471.45	335.26
471.82	334.11
472.18	332.70
472.55	331.71
472.92	330.36
473.28	329.25
473.65	328.02
474.02	326.95
474.38	326.10
474.75	325.33
475.11	324.53
475.48	323.72
475.85	323.08
476.21	322.53
476.58	322.09
476.94	321.71
477.31	321.25
477.67	320.73
478.04	320.38
478.41	320.20
478.77	320.55
479.14	320.28
479.50	320.07
479.87	320.10
480.23	320.09
480.60	320.14
480.96	320.22
481.33	320.75
481.69	321.00
482.06	321.19
482.42	321.60
482.79	321.99
483.15	322.53
483.52	323.15
483.88	323.59
484.25	324.12
484.61	324.92
484.98	325.49
485.34	326.59
485.71	327.56
486.07	328.43
486.44	329.00
486.80	330.06
487.17	331.19
487.53	332.56
487.90	334.03
488.26	335.73
488.62	337.42
488.99	338.95
489.35	340.76
489.72	342.72
490.08	344.71
490.44	346.67
490.81	348.93
491.17	351.10
491.54	353.55
491.90	356.21
492.26	358.84
492.63	361.77
492.99	364.57
493.36	367.62
493.72	371.04
494.08	374.49
494.45	378.24
494.81	382.19
495.17	386.16
495.54	390.16
495.90	394.27
496.26	398.67
496.63	403.39
496.99	408.18
497.35	413.26
497.72	418.49
498.08	423.90
498.44	429.55
498.80	435.59
499.17	441.72
499.53	447.90
499.89	454.55
500.26	461.30
500.62	468.29
500.98	475.65
501.34	483.00
501.71	490.74
502.07	498.58
502.43	506.69
502.79	515.01
503.16	523.88
503.52	532.94
503.88	542.08
504.24	551.61
504.60	561.66
504.97	571.83
505.33	582.41
505.69	593.52
506.05	604.48
506.41	615.78
506.78	627.47
507.14	639.60
507.50	651.79
507.86	664.37
508.22	677.18
508.59	690.20
508.95	703.95
509.31	718.01
509.67	732.35
510.03	746.61
510.39	761.42
510.75	776.23
511.12	791.61
511.48	807.41
511.84	823.30
512.20	839.31
512.56	855.64
512.92	872.45
513.28	889.29
513.64	906.68
514.00	924.28
514.37	941.90
514.73	959.98
515.09	978.25
515.45	996.82
515.81	1015.40
516.17	1034.36
516.53	1053.11
516.89	1071.93
517.25	1091.27
517.61	1111.82
517.97	1131.79
518.33	1152.15
518.69	1172.30
519.05	1192.94
519.41	1213.69
519.77	1234.67
520.13	1255.66
520.49	1276.21
520.85	1298.62
521.21	1319.65
521.57	1340.97
521.93	1362.09
522.29	1383.39
522.65	1404.22
523.01	1425.13
523.37	1445.96
523.73	1467.01
524.09	1487.40
524.45	1508.04
524.81	1529.00
525.17	1549.60
525.53	1570.29
525.89	1590.91
526.25	1611.80
526.61	1631.85
526.97	1652.80
527.33	1673.77
527.68	1695.50
528.04	1717.09
528.40	1736.72
528.76	1757.62
529.12	1778.25
529.48	1799.03
529.84	1818.95
530.20	1840.33
530.56	1861.14
530.91	1882.23
531.27	1903.03
531.63	1923.88
531.99	1944.71
532.35	1964.65
532.71	1984.87
533.07	2005.66
533.42	2026.06
533.78	2046.07
534.14	2066.22
534.50	2085.41
534.86	2105.14
535.21	2122.37
535.57	2141.08
535.93	2159.10
536.29	2177.37
536.65	2195.47
537.00	2213.25
537.36	2231.19
537.72	2247.45
538.08	2264.46
538.44	2281.18
538.79	2297.54
539.15	2314.24
539.51	2329.98
539.87	2345.39
540.22	2359.35
540.58	2373.99
540.94	2387.16
541.29	2399.76
541.65	2412.83
542.01	2425.58
542.37	2435.95
542.72	2447.61
543.08	2457.97
543.44	2469.71
543.79	2479.45
544.15	2489.48
544.51	2499.34
544.87	2509.14
545.22	2517.78
545.58	2525.85
545.94	2533.18
546.29	2539.67
546.65	2545.92
547.01	2551.85
547.36	2557.29
547.72	2562.86
548.07	2566.57
548.43	2572.13
548.79	2576.85
549.14	2580.80
549.50	2584.44
549.86	2588.57
550.21	2592.23
550.57	2595.64
550.92	2596.74
551.28	2598.52
551.64	2600.68
551.99	2602.60
552.35	2603.80
552.70	2606.19
553.06	2607.85
553.41	2609.16
553.77	2610.50
554.13	2611.91
554.48	2613.31
554.84	2614.75
555.19	2616.16
555.55	2617.89
555.90	2616.84
556.26	2615.99
556.61	2614.07
556.97	2611.96
557.32	2611.30
557.68	2610.04
558.03	2608.56
558.39	2607.59
558.74	2606.49
559.10	2603.12
559.45	2599.48
559.81	2595.27
560.16	2590.07
560.52	2585.01
560.87	2580.42
561.23	2575.40
561.58	2569.56
561.94	2562.89
562.29	2555.47
562.64	2548.17
563.00	2539.91
563.35	2533.52
563.71	2526.96
564.06	2520.99
564.42	2514.72
564.77	2507.75
565.12	2499.99
565.48	2492.11
565.83	2483.95
566.19	2475.97
566.54	2468.25
566.89	2460.17
567.25	2452.53
567.60	2445.61
567.96	2438.39
568.31	2430.51
568.66	2421.86
569.02	2412.90
569.37	2404.71
569.72	2397.18
570.08	2387.70
570.43	2377.99
570.78	2369.00
571.14	2359.70
571.49	2349.56
571.84	2339.73
572.20	2328.92
572.55	2319.10
572.90	2308.19
573.26	2297.61
573.61	2286.77
573.96	2275.58
574.31	2263.53
574.67	2251.71
575.02	2238.74
575.37	2225.95
575.72	2212.44
576.08	2200.44
576.43	2187.87
576.78	2174.66
577.13	2160.83
577.49	2148.44
577.84	2136.93
578.19	2124.61
578.54	2111.77
578.90	2099.48
579.25	2087.11
579.60	2074.75
579.95	2061.65
580.30	2048.65
580.66	2035.40
581.01	2021.69
581.36	2007.77
581.71	1995.37
582.06	1982.25
582.42	1969.70
582.77	1957.00
583.12	1945.15
583.47	1932.60
583.82	1920.76
584.17	1908.84
584.53	1897.13
584.88	1884.24
585.23	1871.14
585.58	1856.99
585.93	1843.96
586.28	1830.77
586.63	1816.81
586.98	1802.31
587.34	1789.09
587.69	1775.62
588.04	1763.10
588.39	1750.82
588.74	1738.55
589.09	1726.29
589.44	1713.58
589.79	1701.50
590.14	1689.77
590.49	1677.61
590.84	1665.22
591.19	1653.17
591.54	1640.55
591.89	1628.23
592.25	1617.92
592.60	1606.25
592.95	1594.83
593.30	1582.91
593.65	1570.92
594.00	1559.01
594.35	1549.39
594.70	1537.48
595.05	1526.66
595.40	1514.47
595.75	1502.48
596.10	1491.20
596.45	1479.57
596.80	1468.75
597.15	1457.11
597.50	1445.04
597.85	1433.59
598.19	1422.10
598.54	1410.32
598.89	1399.18
599.24	1388.60
599.59	1377.09
599.94	1366.34
600.29	1355.82
600.64	1345.22
600.99	1334.40
601.34	1324.67
601.69	1313.26
602.04	1303.50
602.39	1293.43
602.74	1284.39
603.08	1275.13
603.43	1265.85
603.78	1256.28
604.13	1246.47
604.48	1236.95
604.83	1227.19
605.18	1217.30
605.53	1207.91
605.87	1198.85
606.22	1190.46
606.57	1181.22
606.92	1171.67
607.27	1162.76
607.62	1153.91
607.96	1145.22
608.31	1137.35
608.66	1128.86
609.01	1120.20
609.36	1111.60
609.70	1102.99
610.05	1094.08
610.40	1085.34
610.75	1076.44
611.10	1068.09
611.44	1059.50
611.79	1051.28
612.14	1043.34
612.49	1035.50
612.83	1027.89
613.18	1019.94
613.53	1011.95
613.88	1004.00
614.22	996.28
614.57	988.24
614.92	980.35
615.27	972.91
615.61	965.10
615.96	957.42
616.31	949.99
616.65	942.92
617.00	935.58
617.35	928.42
617.70	921.49
618.04	914.55
618.39	907.61
618.74	901.26
619.08	894.20
619.43	887.18
619.78	880.09
620.12	872.90
620.47	865.78
620.82	858.64
621.16	851.88
621.51	845.40
621.85	838.90
622.20	832.46
622.55	825.86
622.89	819.34
623.24	812.98
623.59	806.73
623.93	800.22
624.28	794.00
624.62	788.23
624.97	782.20
625.32	776.28
625.66	770.25
626.01	764.13
626.35	758.58
626.70	753.00
627.04	747.85
627.39	742.29
627.73	737.17
628.08	731.97
628.43	726.43
628.77	721.06
629.12	715.89
629.46	710.90
629.81	706.20
630.15	701.41
630.50	696.59
630.84	691.62
631.19	687.08
631.53	682.55
631.88	677.28
632.22	672.45
632.57	667.96
632.91	663.12
633.26	658.57
633.60	653.81
633.95	649.30
634.29	644.44
634.64	639.91
634.98	634.91
635.32	630.54
635.67	626.53
636.01	622.10
636.36	617.85
636.70	613.72
637.05	609.42
637.39	605.36
637.73	601.05
638.08	596.99
638.42	592.55
638.77	588.09
639.11	583.88
639.45	579.44
639.80	575.03
640.14	571.03
640.49	567.01
640.83	563.18
641.17	559.33
641.52	555.51
641.86	551.98
642.20	548.90
642.55	545.06
642.89	541.33
643.23	537.92
643.58	534.57
643.92	530.76
644.26	527.22
644.61	523.85
644.95	520.49
645.29	517.05
645.64	513.84
645.98	510.75
646.32	507.85
646.66	504.87
647.01	501.95
647.35	499.21
647.69	496.29
648.04	493.41
648.38	490.48
648.72	487.66
649.06	484.52
649.41	481.43
649.75	478.51
650.09	475.63
650.43	472.75
650.78	469.86
651.12	467.20
651.46	464.49
651.80	461.77
652.14	459.10
652.49	456.70
652.83	454.16
653.17	451.64
653.51	448.90
653.85	446.43
654.20	443.99
654.54	441.28
654.88	438.73
655.22	436.66
655.56	434.31
655.90	432.03
656.25	429.92
656.59	427.64
656.93	425.52
657.27	423.47
657.61	421.05
657.95	418.76
658.29	416.49
658.64	414.40
658.98	412.11
659.32	409.87
659.66	407.60
660.00	405.45
660.34	403.25
660.68	401.24
661.02	399.21
661.36	397.19
661.70	395.27
662.05	393.41
662.39	391.28
662.73	389.39
663.07	387.75
663.41	385.76
663.75	383.92
664.09	382.12
664.43	380.25
664.77	378.69
665.11	376.96
665.45	375.24
665.79	373.56
666.13	371.87
666.47	370.27
666.81	368.68
667.15	367.05
667.49	365.67
667.83	364.31
668.17	362.86
668.51	361.40
668.85	360.04
669.19	358.76
669.53	357.28
669.87	355.86
670.21	354.29
670.55	352.95
670.89	351.83
671.23	350.52
671.57	349.06
671.91	347.56
672.25	346.22
672.58	345.16
672.92	343.72
673.26	342.50
673.60	341.30
673.94	340.08
674.28	338.95
674.62	337.73
674.96	336.41
675.30	335.23
675.64	333.90
675.97	332.66
676.31	331.28
676.65	330.14
676.99	329.12
677.33	327.87
677.67	326.90
678.01	325.53
678.34	324.41
678.68	323.56
679.02	322.58
679.36	321.60
679.70	320.50
680.04	319.55
680.37	318.50
680.71	317.54
681.05	316.66
681.39	315.76
681.73	314.67
682.06	313.67
682.40	312.82
682.74	312.08
683.08	311.31
683.42	310.40
683.75	309.58
684.09	308.62
684.43	307.78
684.77	306.87
685.10	306.08
685.44	305.27
685.78	304.32
686.12	303.60
686.45	302.75
686.79	301.86
687.13	301.23
687.46	300.56
687.80	299.79
688.14	298.89
688.48	298.10
688.81	297.46
689.15	296.86
689.49	295.99
689.82	295.36
690.16	294.40
690.50	293.80
690.83	293.04
691.17	292.28
691.51	291.68
691.84	290.99
692.18	290.29
692.52	289.59
692.85	288.96
693.19	288.40
693.52	287.71
693.86	287.10
694.20	286.39
694.53	285.71
694.87	285.10
695.21	284.54
695.54	283.95
695.88	283.21
696.21	282.43
696.55	281.94
696.88	281.25
697.22	280.80
697.56	280.18
697.89	279.63
698.23	279.14
698.56	278.59
698.90	278.13
699.23	277.57
699.57	277.07
699.90	276.51
700.24	275.91
700.58	275.55
700.91	275.07
701.25	275.01
701.58	274.85
701.92	274.49
702.25	274.08
702.59	273.65
702.92	273.34
703.26	273.01
703.59	272.51
703.93	272.49
704.26	272.13
704.60	271.79
704.93	271.29
705.26	270.83
705.60	270.45
705.93	269.93
706.27	269.65
706.60	269.35
706.94	269.15
707.27	268.66
707.61	268.28
707.94	267.99
708.27	267.16
708.61	266.43
708.94	265.99
709.28	265.59
709.61	265.10
709.94	264.72
710.28	264.36
710.61	264.07
710.95	263.21
711.28	263.15
711.61	262.77
711.95	262.54
712.28	262.21
712.61	261.92
712.95	261.86
713.28	261.77
713.61	261.29
713.95	260.87
714.28	260.55
714.61	260.16
714.95	259.78
715.28	259.50
715.61	259.16
715.95	258.82
716.28	258.49
716.61	258.31
716.95	257.99
717.28	257.59
717.61	257.21
717.94	257.04
718.28	256.39
718.61	255.99
718.94	255.70
719.27	255.39
719.61	255.09
719.94	254.69
720.27	254.16
720.60	253.96
720.94	253.70
721.27	253.49
721.60	253.34
721.93	253.07
722.27	252.95
722.60	252.82
722.93	252.51
723.26	252.32
723.59	251.97
723.93	251.81
724.26	251.70
724.59	251.50
724.92	251.18
725.25	251.06
725.59	250.90
725.92	250.73
726.25	250.49
726.58	250.27
726.91	250.05
727.24	249.89
727.57	249.63
727.91	249.31
728.24	249.20
728.57	248.89
728.90	248.78
729.23	248.40
729.56	248.46
729.89	248.34
730.22	248.00
730.55	247.83
730.89	247.59
731.22	247.33
731.55	247.10
731.88	246.97
732.21	246.65
732.54	246.40
732.87	246.16
733.20	245.99
733.53	245.75
733.86	245.55
734.19	245.32
734.52	245.22
734.85	245.40
735.18	245.13
735.51	245.12
735.84	244.96
736.17	244.92
736.50	244.41
736.83	244.74
737.16	244.60
737.49	244.52
737.82	244.34
738.15	244.27
738.48	244.13
738.81	243.86
739.14	243.70
739.47	243.57
739.80	243.40
740.13	243.29
740.46	243.09
740.79	242.86
741.12	242.66
741.45	242.39
741.78	241.82
742.11	241.77
742.44	241.46
742.77	241.24
743.10	241.09
743.43	240.97
743.75	240.30
744.08	240.89
744.41	240.72
744.74	240.56
745.07	240.30
745.40	240.17
745.73	240.30
746.06	240.20
746.39	240.14
746.71	239.95
747.04	239.73
747.37	239.58
747.70	239.54
748.03	239.49
748.36	239.49
748.68	239.47
749.01	239.18
749.34	239.16
749.67	239.17
750.00	239.12
750.33	239.37
750.65	239.32
750.98	238.60
751.31	238.39
751.64	238.28
751.97	238.41
752.29	238.32
752.62	238.03
752.95	237.90
753.28	237.70
753.60	237.57
753.93	237.68
754.26	237.62
754.59	237.40
754.91	237.27
755.24	237.15
755.57	237.13
755.90	237.06
756.22	236.94
756.55	236.79
756.88	236.59
757.20	236.22
757.53	236.01
757.86	235.91
758.19	235.84
758.51	235.78
758.84	235.54
759.17	235.44
759.49	235.41
759.82	235.55
760.15	235.54
760.47	235.53
760.80	235.27
761.13	235.37
761.45	235.34
761.78	235.24
762.11	235.21
762.43	235.05
762.76	235.01
763.08	234.96
763.41	234.95
763.74	234.90
764.06	234.82
764.39	234.75
764.71	234.66
765.04	234.65
765.37	234.54
765.69	234.45
766.02	234.37
766.34	234.23
766.67	234.04
767.00	234.08
767.32	234.25
767.65	234.40
767.97	234.27
768.30	234.15
768.62	234.07
768.95	233.95
769.27	233.90
769.60	233.93
769.92	233.81
770.25	233.58
770.57	233.41
770.90	233.39
771.22	233.33
771.55	233.33
771.87	233.20
772.20	233.10
772.52	233.48
772.85	233.98
773.17	233.95
773.50	233.87
773.82	233.72
774.15	233.49
774.47	233.18
774.80	233.01
775.12	233.03
775.45	232.95
775.77	232.89
776.09	232.82
776.42	232.70
776.74	232.74
777.07	232.73
777.39	232.71
777.72	232.56
778.04	232.66
778.36	232.51
778.69	232.54
779.01	232.56
779.33	232.05
779.66	231.44
779.98	231.35
780.31	231.26
780.63	231.40
780.95	231.41
781.28	231.37
781.60	231.26
781.92	231.22
782.25	231.15
782.57	231.15
782.89	231.12
783.22	231.06
783.54	230.91
783.86	230.92
784.19	230.88
784.51	231.02
784.83	230.80
785.16	230.73
785.48	230.66
785.80	230.59
786.12	230.61
786.45	230.64
786.77	230.67
787.09	230.67
787.42	230.44
787.74	230.45
788.06	230.55
788.38	230.51
788.71	230.40
789.03	230.43
789.35	230.40
789.67	230.35
789.99	230.35
790.32	230.30
790.64	230.27
790.96	230.61
791.28	230.39
791.61	230.40
791.93	230.45
792.25	230.45
792.57	230.78
792.89	230.68
793.21	230.63
793.54	230.57
793.86	230.45
794.18	230.45
794.50	230.32
794.82	230.24
795.14	230.28
795.47	230.39
795.79	230.41
796.11	230.30
796.43	230.16
796.75	230.15
797.07	230.21
797.39	230.16
797.71	229.78
798.04	229.83
798.36	229.86
798.68	229.77
799.00	229.77
799.32	229.44
799.64	229.56
799.96	229.63
800.28	229.69
800.60	229.70
800.92	229.76
801.24	229.66
801.56	229.74
801.89	229.70
802.21	229.65
802.53	229.60
802.85	229.76
803.17	230.08
803.49	229.94
803.81	229.86
804.13	229.84
804.45	229.82
804.77	229.83
805.09	229.82
805.41	229.87
805.73	229.76
806.05	229.72
806.37	229.65
806.69	229.51
807.01	229.49
807.33	229.47
807.65	229.35
807.97	229.58
808.28	229.41
808.60	229.45
808.92	229.40
809.24	229.59
809.56	229.47
809.88	229.25
810.20	229.30
810.52	229.40
810.84	229.24
811.16	229.22
811.48	229.15
811.80	229.26
812.12	229.16
812.43	229.26
812.75	229.29
813.07	229.21
813.39	229.19
813.71	229.15
814.03	229.14
814.35	229.07
814.67	228.86
814.98	228.80
815.30	228.76
815.62	228.69
815.94	228.30
816.26	228.49
816.58	228.40
816.89	228.42
817.21	228.35
817.53	228.41
817.85	228.37
818.17	228.30
818.48	228.13
818.80	228.26
819.12	228.20
819.44	228.08
819.76	228.00
820.07	228.04
820.39	227.98
820.71	227.97
821.03	227.95
821.34	227.93
821.66	228.02
821.98	228.01
822.30	227.99
822.61	228.34
822.93	228.07
823.25	228.07
823.57	228.01
823.88	228.00
824.20	227.98
824.52	228.06
824.83	228.10
825.15	228.02
825.47	227.95
825.79	227.90
826.10	227.92
826.42	227.91
826.74	227.89
827.05	227.87
827.37	227.86
827.69	227.87
828.00	227.96
828.32	227.95
828.64	227.95
828.95	228.25
829.27	228.14
829.58	228.18
829.90	228.30
830.22	228.35
830.53	228.24
830.85	228.24
831.17	228.08
831.48	228.07
831.80	228.11
832.11	228.16
832.43	228.16
832.75	228.15
833.06	228.50
833.38	228.36
833.69	228.36
834.01	228.44
834.32	228.45
834.64	228.33
834.96	228.37
835.27	228.32
835.59	228.14
835.90	228.06
836.22	228.01
836.53	227.93
836.85	227.86
837.16	228.41
837.48	228.36
837.79	228.57
838.11	228.61
838.42	228.62
838.74	228.62
839.05	228.54
839.37	228.52
839.68	228.20
840.00	228.29
840.31	228.33
840.63	228.25
840.94	228.24
841.26	228.24
841.57	228.19
841.88	228.24
842.20	228.16
842.51	228.12
842.83	228.09
843.14	228.46
843.46	228.51
843.77	228.26
844.08	228.30
844.40	228.17
844.71	228.11
845.03	228.04
845.34	227.94
845.65	228.00
845.97	228.02
846.28	228.07
846.60	228.02
846.91	227.91
847.22	227.92
847.54	228.04
847.85	228.08
848.16	228.05
848.48	228.01
848.79	228.19
849.10	228.15
849.42	228.20
849.73	227.76
850.04	227.70
850.36	227.50
850.67	227.55
850.98	227.50
851.30	227.55
851.61	227.58
851.92	227.64
852.23	227.83
852.55	227.88
852.86	227.83
853.17	227.88
853.49	228.11
853.80	228.09
854.11	228.03
854.42	228.00
854.74	227.91
855.05	227.88
855.36	227.65
855.67	227.71
855.99	227.70
856.30	228.26
856.61	228.20
856.92	228.15
857.23	228.15
857.55	228.11
857.86	228.03
858.17	228.09
858.48	227.92
858.79	227.75
859.11	227.72
859.42	227.71
859.73	227.64
860.04	227.46
860.35	227.35
860.66	227.22
860.98	227.18
861.29	227.28
861.60	227.23
861.91	227.29
862.22	227.18
862.53	227.14
862.84	226.57
863.16	226.71
863.47	226.64
863.78	226.58
864.09	226.63
864.40	226.69
864.71	226.68
865.02	226.77
865.33	226.71
865.64	226.56
865.95	226.55
866.27	226.90
866.58	226.94
866.89	226.98
867.20	226.99
867.51	227.03
867.82	226.97
868.13	227.14
868.44	227.07
868.75	227.15
869.06	227.13
869.37	227.19
869.68	226.99
869.99	227.06
870.30	227.06
870.61	227.08
870.92	227.01
871.23	226.97
871.54	226.96
871.85	227.03
872.16	227.15
872.47	227.11
872.78	226.75
873.09	226.79
873.40	226.71
873.71	226.79
874.02	226.81
874.33	226.75
874.64	226.58
874.95	226.68
875.26	226.64
875.56	226.61
875.87	226.59
876.18	226.60
876.49	227.03
876.80	227.05
877.11	226.95
877.42	227.00
877.73	227.02
878.04	227.07
878.35	227.10
878.66	227.07
878.96	227.06
879.27	227.09
879.58	227.05
879.89	227.14
880.20	227.26
880.51	227.23
880.82	227.26
881.12	227.31
881.43	227.17
881.74	227.09
882.05	227.10
882.36	227.08
882.67	227.20
882.97	226.71
883.28	226.60
883.59	226.60
883.90	226.63
884.21	226.69
884.51	226.62
884.82	226.54
885.13	226.63
885.44	226.65
885.74	226.66
886.05	226.59
886.36	226.61
886.67	226.44
886.98	226.62
887.28	226.68
887.59	226.73
887.90	226.77
888.20	226.75
888.51	226.84
888.82	226.69
889.13	226.70
889.43	227.15
889.74	227.13
890.05	227.20
890.35	227.13
890.66	227.04
890.97	227.03
891.28	227.00
891.58	226.98
891.89	226.90
892.20	226.84
892.50	226.87
892.81	226.80
893.12	226.76
893.42	226.55
893.73	226.55
894.04	226.51
894.34	226.52
894.65	226.52
894.95	226.49
895.26	226.61
895.57	226.75
895.87	226.28
896.18	226.48
896.48	226.46
896.79	226.43
897.10	226.48
897.40	226.49
897.71	226.53
898.01	226.43
898.32	226.51
898.63	226.47
898.93	226.48
899.24	226.45
899.54	226.48
899.85	226.42
900.15	226.40
900.46	226.41
900.76	226.47
901.07	226.55
901.38	226.49
901.68	226.45
901.99	226.24
902.29	226.23
902.60	226.15
902.90	226.13
903.21	226.13
903.51	226.11
903.82	226.17
904.12	226.18
904.43	226.22
904.73	226.20
905.03	226.28
905.34	226.74
905.64	226.80
905.95	226.78
906.25	226.81
906.56	226.73
906.86	226.71
907.17	226.63
907.47	226.64
907.77	226.66
908.08	226.64
908.38	226.65
908.69	226.73
908.99	226.74
909.30	226.80
909.60	226.85
909.90	226.88
910.21	226.76
910.51	226.63
910.81	226.62
911.12	226.65
911.42	226.64
911.73	226.10
912.03	226.06
912.33	226.17
912.64	226.17
912.94	226.20
913.24	226.14
913.55	226.14
913.85	226.08
914.15	226.20
914.46	226.25
914.76	226.25
915.06	226.20
915.37	226.14
915.67	226.12
915.97	226.10
916.27	226.05
916.58	226.09
916.88	226.24
917.18	226.23
917.49	226.50
917.79	226.50
918.09	226.64
918.39	226.78
918.70	226.71
919.00	226.75
919.30	226.94
919.60	226.94
919.91	226.91
920.21	226.96
920.51	226.85
920.81	226.80
921.12	226.85
921.42	226.87
921.72	226.87
922.02	226.85
922.32	226.95
922.63	226.95
922.93	227.15
923.23	227.06
923.53	227.10
923.83	226.84
924.13	226.80
924.44	226.74
924.74	226.74
925.04	226.86
925.34	226.79
925.64	226.62
925.94	226.64
926.24	226.88
926.55	226.84
926.85	226.84
927.15	226.85
927.45	226.80
927.75	226.78
928.05	226.87
928.35	226.80
928.65	226.77
928.95	226.73
929.26	226.55
929.56	226.60
929.86	226.60
930.16	226.50
930.46	226.43
930.76	226.45
931.06	226.19
931.36	226.01
931.66	226.10
931.96	226.11
932.26	226.14
932.56	225.97
932.86	225.98
933.16	225.97
933.46	225.89
933.76	225.84
934.06	225.91
934.36	226.07
934.66	226.05
934.96	226.03
935.26	226.11
935.56	226.18
935.86	226.13
936.16	226.11
936.46	226.09
936.76	226.18
937.06	226.01
937.36	226.12
937.66	226.14
937.96	226.06
938.26	225.99
938.56	225.97
938.86	225.92
939.16	226.02
939.46	226.11
939.76	226.23
940.06	226.23
940.35	226.12
940.65	225.77
940.95	225.79
941.25	225.65
941.55	225.55
941.85	225.50
942.15	225.63
942.45	225.70
942.75	225.71
943.04	225.68
943.34	225.83
943.64	225.80
943.94	225.81
944.24	225.84
944.54	225.90
944.84	225.85
945.13	225.82
945.43	225.80
945.73	225.77
946.03	225.72
946.33	225.72
946.62	225.75
946.92	225.83
947.22	225.96
947.52	226.00
947.82	226.18
948.11	226.14
948.41	225.95
948.71	225.85
949.01	225.95
949.31	225.97
949.60	226.02
949.90	226.08
950.20	226.10
950.50	226.08
950.79	226.02
951.09	226.16
951.39	226.14
951.69	226.02
951.98	226.07
952.28	226.13
952.58	226.17
952.87	226.21
953.17	226.33
953.47	226.23
953.76	226.26
954.06	226.10
954.36	226.15
954.66	226.25
954.95	226.39
955.25	226.46
955.55	226.52
955.84	226.45
956.14	226.53
956.44	226.57
956.73	226.56
957.03	226.58
957.32	226.52
957.62	226.54
957.92	226.71
958.21	226.71
958.51	227.25
958.81	227.25
959.10	227.27
959.40	227.33
959.69	227.39
959.99	227.47
960.29	227.53
960.58	227.51
960.88	227.67
961.17	227.54
961.47	227.53
961.76	227.48
962.06	227.56
962.36	227.48
962.65	227.52
962.95	227.52
963.24	227.52
963.54	227.57
963.83	227.68
964.13	227.65
964.42	227.51
964.72	227.10
965.01	227.10
965.31	227.09
965.60	226.99
965.90	227.22
966.19	227.03
966.49	227.00
966.78	226.99
967.08	226.84
967.37	226.90
967.67	226.78
967.96	226.79
968.26	226.76
968.55	226.83
968.85	226.79
969.14	226.77
969.43	226.77
969.73	226.71
970.02	226.58
970.32	226.49
970.61	226.49
970.91	226.36
971.20	226.31
971.49	226.23
971.79	226.19
972.08	225.83
972.38	225.94
972.67	226.00
972.96	225.97
973.26	225.90
973.55	226.03
973.85	226.10
974.14	226.06
974.43	226.05
974.73	225.86
975.02	225.76
975.31	225.75
975.61	225.75
975.90	225.74
976.19	225.77
976.49	225.82
976.78	225.84
977.07	225.78
977.37	225.84
977.66	225.91
977.95	225.89
978.24	225.94
978.54	225.98
978.83	225.93
979.12	225.96
979.42	226.01
979.71	225.90
980.00	225.89
980.29	225.94
980.59	225.88
980.88	226.07
981.17	226.10
981.46	226.16
981.76	226.12
982.05	226.25
982.34	226.20
982.63	226.22
982.93	226.15
983.22	226.37
983.51	226.40
983.80	226.44
984.09	226.52
984.39	226.58
984.68	226.63
984.97	226.61
985.26	226.56
985.55	226.65
985.85	226.55
986.14	226.65
986.43	226.69
986.72	226.66
987.01	226.54
987.30	226.53
987.59	226.40
987.89	226.49
988.18	226.32
988.47	226.35
988.76	226.21
989.05	226.28
989.34	226.15
989.63	226.26
989.92	226.25
990.22	226.23
990.51	226.19
990.80	226.11
991.09	226.15
991.38	226.22
991.67	226.07
991.96	226.10
992.25	226.14
992.54	226.05
992.83	226.12
993.12	226.13
993.41	226.31
993.70	226.57
993.99	226.63
994.28	226.74
994.58	226.85
994.87	226.95
995.16	226.89
995.45	226.89
995.74	226.66
996.03	226.71
996.32	226.81
996.61	226.95
996.90	226.92
997.19	226.88
997.48	226.92
997.77	226.91
998.06	226.92
998.34	226.78
998.63	226.88
998.92	226.85
999.21	226.93
999.50	226.90
999.79	226.69
1000.08	226.68
1000.37	226.62
1000.66	226.54
1000.95	226.60
1001.24	226.61
1001.53	226.65
1001.82	226.73
1002.11	226.67
1002.40	226.65
1002.68	226.70
1002.97	227.08
1003.26	226.97
1003.55	226.93
1003.84	226.96
1004.13	227.09
1004.42	227.10
1004.71	227.03
1004.99	227.05
1005.28	227.11
1005.57	226.97
1005.86	226.98
1006.15	226.89
1006.44	226.90
1006.72	226.94
1007.01	226.87
1007.30	226.92
1007.59	226.89
1007.88	226.86
1008.17	226.81
1008.45	226.69
1008.74	226.46
1009.03	226.19
1009.32	226.19
1009.60	226.17
1009.89	226.08
1010.18	225.84
1010.47	225.80
1010.76	225.81
1011.04	225.76
1011.33	225.81
1011.62	225.90
1011.91	225.99
1012.19	226.01
1012.48	226.01
1012.77	226.00
1013.05	226.19
1013.34	226.18
1013.63	226.07
1013.92	226.03
1014.20	226.02
1014.49	226.11
1014.78	226.27
1015.06	226.06
1015.35	226.08
1015.64	226.15
1015.92	226.24
1016.21	226.36
1016.50	226.37
1016.78	226.39
1017.07	226.49
1017.36	226.36
1017.64	226.29
1017.93	226.21
1018.22	226.16
1018.50	226.11
1018.79	226.04
1019.08	225.80
1019.36	225.80
1019.65	225.82
1019.93	225.98
1020.22	226.08
1020.51	226.29
1020.79	226.20
1021.08	225.15
1021.36	225.05
1021.65	225.15
1021.94	225.35
1022.22	225.70
1022.51	224.75
1022.79	228.35
1023.08	227.60
1023.36	231.95
1023.65	226.10
>>>>>End Processed Spectral Data<<<<<
