SpectraSuite Data File
++++++++++++++++++++++++++++++++++++
Date: Wed Sep 04 17:57:41 EDT 2013
User: lab3
Dark Spectrum Present: Yes
Reference Spectrum Present: No
Number of Sampled Component Spectra: 1
Spectrometers: USB2E7196
Integration Time (usec): 170000 (USB2E7196)
Spectra Averaged: 20 (USB2E7196)
Boxcar Smoothing: 10 (USB2E7196)
Correct for Electrical Dark: No (USB2E7196)
Strobe/Lamp Enabled: No (USB2E7196)
Correct for Detector Non-linearity: No (USB2E7196)
Correct for Stray Light: No (USB2E7196)
Number of Pixels in Processed Spectrum: 2048
>>>>>Begin Processed Spectral Data<<<<<
339.09	0.00
339.48	213.35
339.86	214.35
340.24	216.65
340.63	216.15
341.01	226.75
341.39	220.90
341.78	222.50
342.16	223.60
342.54	223.50
342.93	212.50
343.31	223.21
343.69	223.75
344.07	224.24
344.46	224.77
344.84	225.25
345.22	225.21
345.60	225.49
345.99	225.72
346.37	225.88
346.75	225.97
347.13	226.05
347.52	226.14
347.90	226.42
348.28	226.48
348.66	226.70
349.05	226.59
349.43	226.71
349.81	226.81
350.19	226.81
350.57	226.96
350.96	226.98
351.34	227.10
351.72	227.20
352.10	227.30
352.48	227.18
352.87	227.23
353.25	227.28
353.63	227.31
354.01	227.31
354.39	227.39
354.77	227.45
355.15	227.65
355.54	227.58
355.92	227.50
356.30	227.52
356.68	227.94
357.06	228.04
357.44	227.95
357.82	228.01
358.20	228.54
358.58	228.50
358.97	228.62
359.35	228.75
359.73	228.93
360.11	229.01
360.49	229.12
360.87	229.15
361.25	229.25
361.63	229.43
362.01	229.53
362.39	229.54
362.77	229.66
363.15	229.67
363.53	229.69
363.91	229.70
364.29	229.79
364.67	229.30
365.05	229.28
365.43	229.44
365.81	229.57
366.19	229.42
366.57	229.66
366.95	229.61
367.33	229.50
367.71	229.44
368.09	229.49
368.47	229.48
368.85	229.51
369.23	229.56
369.61	229.39
369.99	229.48
370.37	229.46
370.75	229.76
371.13	229.65
371.51	229.61
371.89	229.64
372.27	229.60
372.65	229.69
373.03	229.69
373.41	229.58
373.78	229.44
374.16	229.11
374.54	228.89
374.92	228.88
375.30	228.81
375.68	228.68
376.06	228.61
376.44	228.52
376.82	228.50
377.19	228.48
377.57	228.44
377.95	228.24
378.33	228.21
378.71	227.79
379.09	227.76
379.47	227.73
379.84	227.67
380.22	227.53
380.60	227.37
380.98	227.20
381.36	227.12
381.73	226.94
382.11	227.00
382.49	227.03
382.87	226.90
383.25	226.90
383.62	227.43
384.00	227.32
384.38	227.31
384.76	227.33
385.13	227.37
385.51	227.34
385.89	227.28
386.27	227.18
386.64	227.15
387.02	227.02
387.40	226.93
387.78	226.94
388.15	226.89
388.53	226.81
388.91	226.82
389.29	226.77
389.66	226.89
390.04	226.79
390.42	226.79
390.79	226.75
391.17	226.80
391.55	226.18
391.92	226.23
392.30	226.29
392.68	226.21
393.05	226.17
393.43	226.15
393.81	226.15
394.18	226.05
394.56	226.03
394.94	226.20
395.31	226.20
395.69	226.33
396.06	226.46
396.44	226.52
396.82	226.61
397.19	227.01
397.57	226.94
397.95	227.01
398.32	226.88
398.70	227.04
399.07	227.13
399.45	227.24
399.82	227.29
400.20	227.32
400.58	227.39
400.95	227.30
401.33	227.52
401.70	227.97
402.08	228.20
402.45	228.40
402.83	228.57
403.20	228.76
403.58	228.73
403.95	229.04
404.33	229.34
404.71	229.57
405.08	229.91
405.46	230.21
405.83	230.53
406.21	230.87
406.58	231.15
406.96	231.38
407.33	231.74
407.70	232.19
408.08	232.92
408.45	233.42
408.83	233.99
409.20	234.30
409.58	234.42
409.95	234.96
410.33	235.55
410.70	236.02
411.08	236.64
411.45	237.35
411.82	237.88
412.20	238.64
412.57	239.61
412.95	239.92
413.32	240.90
413.69	241.75
414.07	242.69
414.44	243.66
414.82	244.80
415.19	246.01
415.56	247.08
415.94	248.06
416.31	249.46
416.68	250.80
417.06	252.44
417.43	254.15
417.81	256.01
418.18	257.77
418.55	259.72
418.93	261.74
419.30	263.85
419.67	266.04
420.04	268.20
420.42	270.55
420.79	273.76
421.16	276.46
421.54	279.53
421.91	282.47
422.28	285.60
422.66	288.89
423.03	292.36
423.40	295.79
423.77	299.43
424.15	303.00
424.52	306.89
424.89	311.16
425.26	315.14
425.64	318.84
426.01	323.11
426.38	327.53
426.75	332.08
427.13	336.65
427.50	341.45
427.87	346.45
428.24	351.33
428.61	355.81
428.99	361.15
429.36	366.65
429.73	372.16
430.10	377.63
430.47	383.29
430.85	388.95
431.22	395.27
431.59	402.15
431.96	408.37
432.33	415.34
432.70	422.01
433.08	429.85
433.45	437.32
433.82	444.68
434.19	452.80
434.56	460.95
434.93	468.68
435.30	476.44
435.68	485.14
436.05	493.47
436.42	501.75
436.79	509.45
437.16	517.90
437.53	526.81
437.90	535.66
438.27	544.26
438.64	553.10
439.01	561.35
439.38	568.49
439.75	575.76
440.13	583.80
440.50	591.43
440.87	597.67
441.24	604.25
441.61	611.32
441.98	616.52
442.35	622.24
442.72	628.37
443.09	634.40
443.46	637.77
443.83	640.18
444.20	642.02
444.57	644.74
444.94	645.67
445.31	646.74
445.68	647.91
446.05	648.05
446.42	646.82
446.79	645.39
447.16	643.71
447.53	642.44
447.90	638.62
448.27	634.87
448.64	629.88
449.01	626.05
449.37	619.86
449.74	613.83
450.11	606.97
450.48	599.08
450.85	590.90
451.22	584.03
451.59	577.39
451.96	571.25
452.33	563.06
452.70	555.75
453.07	547.06
453.43	537.98
453.80	529.49
454.17	521.40
454.54	513.62
454.91	505.42
455.28	497.40
455.65	489.96
456.02	483.04
456.38	476.70
456.75	468.79
457.12	462.23
457.49	455.81
457.86	449.44
458.23	444.20
458.59	438.48
458.96	432.66
459.33	427.50
459.70	422.36
460.07	418.17
460.43	413.38
460.80	409.00
461.17	405.31
461.54	401.36
461.91	397.55
462.27	393.59
462.64	390.31
463.01	386.70
463.38	383.45
463.74	379.43
464.11	376.45
464.48	373.89
464.85	370.94
465.21	368.85
465.58	366.54
465.95	363.72
466.32	361.49
466.68	359.25
467.05	357.12
467.42	354.89
467.78	352.64
468.15	350.43
468.52	348.87
468.88	346.65
469.25	344.70
469.62	343.23
469.98	341.71
470.35	340.20
470.72	338.71
471.08	336.94
471.45	335.69
471.82	334.29
472.18	332.84
472.55	331.83
472.92	330.45
473.28	329.30
473.65	328.27
474.02	327.19
474.38	326.32
474.75	325.54
475.11	324.65
475.48	323.98
475.85	323.45
476.21	322.77
476.58	322.19
476.94	321.78
477.31	321.25
477.67	320.76
478.04	320.42
478.41	320.20
478.77	320.50
479.14	320.08
479.50	320.01
479.87	320.08
480.23	320.08
480.60	319.98
480.96	320.09
481.33	320.48
481.69	320.68
482.06	320.87
482.42	321.12
482.79	321.53
483.15	322.04
483.52	322.67
483.88	323.28
484.25	323.96
484.61	324.66
484.98	325.26
485.34	326.24
485.71	327.16
486.07	328.14
486.44	328.79
486.80	329.97
487.17	331.05
487.53	332.41
487.90	333.71
488.26	335.53
488.62	337.23
488.99	338.67
489.35	340.45
489.72	342.33
490.08	344.29
490.44	346.29
490.81	348.50
491.17	350.70
491.54	353.15
491.90	355.63
492.26	358.30
492.63	361.13
492.99	364.00
493.36	367.09
493.72	370.44
494.08	373.81
494.45	377.50
494.81	381.44
495.17	385.37
495.54	389.64
495.90	393.80
496.26	398.34
496.63	402.98
496.99	407.64
497.35	412.72
497.72	417.99
498.08	423.51
498.44	429.17
498.80	435.17
499.17	441.27
499.53	447.52
499.89	454.13
500.26	460.99
500.62	467.92
500.98	475.37
501.34	482.87
501.71	490.67
502.07	498.53
502.43	506.66
502.79	515.00
503.16	523.77
503.52	532.78
503.88	541.95
504.24	551.70
504.60	561.90
504.97	572.12
505.33	582.66
505.69	593.73
506.05	604.81
506.41	616.14
506.78	627.75
507.14	639.96
507.50	652.23
507.86	664.89
508.22	677.90
508.59	690.87
508.95	704.53
509.31	718.77
509.67	733.14
510.03	747.41
510.39	762.20
510.75	777.23
511.12	792.59
511.48	808.40
511.84	824.06
512.20	839.92
512.56	856.45
512.92	873.29
513.28	890.22
513.64	907.42
514.00	924.77
514.37	942.57
514.73	960.70
515.09	979.17
515.45	997.55
515.81	1015.92
516.17	1034.94
516.53	1053.71
516.89	1072.28
517.25	1091.74
517.61	1112.17
517.97	1132.38
518.33	1152.21
518.69	1172.40
519.05	1192.86
519.41	1213.82
519.77	1234.98
520.13	1255.75
520.49	1276.25
520.85	1298.41
521.21	1319.88
521.57	1341.52
521.93	1362.59
522.29	1383.68
522.65	1404.35
523.01	1425.63
523.37	1446.39
523.73	1467.44
524.09	1487.92
524.45	1508.80
524.81	1529.55
525.17	1550.23
525.53	1571.04
525.89	1592.23
526.25	1613.43
526.61	1633.53
526.97	1654.35
527.33	1675.61
527.68	1697.53
528.04	1719.21
528.40	1739.01
528.76	1759.55
529.12	1780.00
529.48	1800.68
529.84	1820.96
530.20	1842.23
530.56	1862.79
530.91	1883.84
531.27	1904.58
531.63	1925.49
531.99	1946.10
532.35	1966.29
532.71	1986.40
533.07	2006.89
533.42	2026.85
533.78	2046.57
534.14	2066.75
534.50	2086.10
534.86	2105.33
535.21	2122.95
535.57	2141.09
535.93	2159.00
536.29	2177.00
536.65	2195.21
537.00	2212.93
537.36	2230.82
537.72	2247.04
538.08	2264.36
538.44	2281.08
538.79	2297.17
539.15	2313.69
539.51	2329.94
539.87	2345.13
540.22	2359.10
540.58	2373.20
540.94	2386.52
541.29	2399.24
541.65	2412.11
542.01	2424.64
542.37	2435.26
542.72	2446.17
543.08	2457.04
543.44	2468.59
543.79	2478.99
544.15	2488.94
544.51	2499.12
544.87	2508.49
545.22	2517.78
545.58	2525.62
545.94	2533.18
546.29	2539.80
546.65	2546.05
547.01	2551.63
547.36	2557.04
547.72	2563.02
548.07	2567.28
548.43	2572.55
548.79	2577.42
549.14	2581.40
549.50	2585.28
549.86	2589.51
550.21	2593.44
550.57	2596.81
550.92	2598.17
551.28	2599.36
551.64	2601.96
551.99	2603.55
552.35	2605.25
552.70	2606.83
553.06	2608.48
553.41	2609.65
553.77	2611.50
554.13	2613.05
554.48	2614.43
554.84	2616.22
555.19	2617.20
555.55	2618.82
555.90	2618.16
556.26	2617.13
556.61	2615.54
556.97	2613.26
557.32	2612.22
557.68	2611.13
558.03	2609.99
558.39	2608.82
558.74	2608.23
559.10	2604.51
559.45	2600.93
559.81	2596.34
560.16	2591.35
560.52	2586.33
560.87	2581.84
561.23	2576.38
561.58	2570.52
561.94	2563.89
562.29	2556.43
562.64	2549.37
563.00	2541.18
563.35	2534.61
563.71	2528.34
564.06	2522.17
564.42	2516.12
564.77	2509.15
565.12	2501.50
565.48	2493.71
565.83	2485.61
566.19	2477.30
566.54	2469.42
566.89	2461.74
567.25	2454.52
567.60	2447.83
567.96	2440.47
568.31	2432.47
568.66	2424.04
569.02	2415.44
569.37	2407.28
569.72	2399.96
570.08	2390.61
570.43	2381.40
570.78	2372.27
571.14	2362.77
571.49	2352.58
571.84	2342.84
572.20	2332.30
572.55	2322.02
572.90	2310.63
573.26	2300.54
573.61	2289.54
573.96	2278.32
574.31	2266.51
574.67	2254.43
575.02	2241.25
575.37	2228.53
575.72	2215.37
576.08	2203.15
576.43	2190.30
576.78	2176.94
577.13	2162.96
577.49	2150.46
577.84	2138.71
578.19	2126.52
578.54	2113.60
578.90	2101.77
579.25	2089.25
579.60	2076.47
579.95	2063.85
580.30	2050.98
580.66	2037.37
581.01	2023.55
581.36	2009.64
581.71	1996.74
582.06	1983.65
582.42	1970.98
582.77	1958.52
583.12	1946.55
583.47	1933.97
583.82	1921.83
584.17	1909.74
584.53	1897.70
584.88	1884.71
585.23	1871.10
585.58	1857.29
585.93	1844.17
586.28	1830.91
586.63	1816.93
586.98	1802.75
587.34	1789.22
587.69	1775.90
588.04	1763.27
588.39	1751.53
588.74	1739.47
589.09	1727.33
589.44	1714.50
589.79	1702.60
590.14	1690.19
590.49	1677.83
590.84	1665.53
591.19	1653.59
591.54	1641.26
591.89	1628.94
592.25	1618.64
592.60	1607.40
592.95	1595.63
593.30	1583.37
593.65	1571.12
594.00	1559.07
594.35	1549.27
594.70	1537.46
595.05	1526.09
595.40	1513.75
595.75	1501.54
596.10	1490.51
596.45	1478.80
596.80	1467.72
597.15	1456.12
597.50	1444.33
597.85	1433.05
598.19	1421.65
598.54	1410.01
598.89	1398.79
599.24	1388.22
599.59	1376.58
599.94	1365.74
600.29	1355.49
600.64	1345.36
600.99	1334.45
601.34	1324.90
601.69	1313.67
602.04	1303.81
602.39	1294.08
602.74	1285.01
603.08	1275.59
603.43	1265.88
603.78	1256.18
604.13	1246.74
604.48	1237.13
604.83	1227.46
605.18	1217.62
605.53	1208.20
605.87	1198.90
606.22	1190.35
606.57	1181.15
606.92	1171.68
607.27	1162.64
607.62	1153.68
607.96	1145.18
608.31	1137.35
608.66	1128.92
609.01	1120.43
609.36	1111.87
609.70	1103.24
610.05	1094.63
610.40	1086.30
610.75	1077.68
611.10	1069.23
611.44	1060.55
611.79	1052.25
612.14	1044.34
612.49	1036.51
612.83	1028.80
613.18	1020.96
613.53	1013.07
613.88	1005.14
614.22	997.40
614.57	989.26
614.92	981.22
615.27	973.52
615.61	965.56
615.96	957.67
616.31	950.12
616.65	942.94
617.00	935.73
617.35	928.44
617.70	921.22
618.04	914.02
618.39	906.99
618.74	900.75
619.08	894.00
619.43	886.99
619.78	879.72
620.12	872.46
620.47	865.42
620.82	858.33
621.16	851.47
621.51	845.01
621.85	838.78
622.20	832.39
622.55	825.76
622.89	819.33
623.24	813.08
623.59	806.65
623.93	800.27
624.28	793.94
624.62	788.40
624.97	782.47
625.32	776.70
625.66	770.60
626.01	764.15
626.35	758.54
626.70	752.97
627.04	747.71
627.39	742.17
627.73	736.84
628.08	731.69
628.43	726.24
628.77	720.95
629.12	715.71
629.46	710.73
629.81	706.01
630.15	701.29
630.50	696.32
630.84	691.45
631.19	686.61
631.53	682.16
631.88	676.80
632.22	671.91
632.57	667.36
632.91	662.74
633.26	658.44
633.60	653.64
633.95	648.98
634.29	644.11
634.64	639.74
634.98	634.97
635.32	630.38
635.67	626.44
636.01	622.06
636.36	617.59
636.70	613.38
637.05	609.01
637.39	604.79
637.73	600.76
638.08	596.80
638.42	592.56
638.77	587.99
639.11	583.73
639.45	579.46
639.80	575.05
640.14	571.12
640.49	567.05
640.83	563.29
641.17	559.50
641.52	555.98
641.86	552.36
642.20	549.24
642.55	545.68
642.89	541.91
643.23	538.37
643.58	535.22
643.92	531.57
644.26	528.29
644.61	525.00
644.95	521.58
645.29	518.13
645.64	515.02
645.98	512.00
646.32	509.03
646.66	505.93
647.01	503.03
647.35	500.13
647.69	497.22
648.04	494.21
648.38	491.46
648.72	488.57
649.06	485.57
649.41	482.40
649.75	479.49
650.09	476.66
650.43	473.84
650.78	470.87
651.12	468.11
651.46	465.28
651.80	462.67
652.14	459.94
652.49	457.33
652.83	454.68
653.17	452.16
653.51	449.47
653.85	447.14
654.20	444.59
654.54	442.10
654.88	439.50
655.22	437.26
655.56	434.74
655.90	432.30
656.25	429.94
656.59	427.67
656.93	425.42
657.27	423.35
657.61	420.89
657.95	418.63
658.29	416.37
658.64	414.27
658.98	411.91
659.32	409.81
659.66	407.72
660.00	405.65
660.34	403.55
660.68	401.47
661.02	399.31
661.36	397.29
661.70	395.13
662.05	393.26
662.39	391.34
662.73	389.60
663.07	387.96
663.41	386.15
663.75	384.28
664.09	382.40
664.43	380.37
664.77	378.80
665.11	376.99
665.45	375.36
665.79	373.55
666.13	371.82
666.47	370.14
666.81	368.42
667.15	366.71
667.49	365.15
667.83	363.79
668.17	362.27
668.51	360.87
668.85	359.64
669.19	358.50
669.53	356.91
669.87	355.40
670.21	353.85
670.55	352.52
670.89	351.46
671.23	350.11
671.57	348.76
671.91	347.36
672.25	346.05
672.58	344.90
672.92	343.50
673.26	342.23
673.60	341.00
673.94	339.93
674.28	338.73
674.62	337.59
674.96	336.24
675.30	335.13
675.64	333.88
675.97	332.71
676.31	331.34
676.65	330.17
676.99	329.19
677.33	328.04
677.67	326.90
678.01	325.49
678.34	324.45
678.68	323.50
679.02	322.40
679.36	321.40
679.70	320.33
680.04	319.43
680.37	318.46
680.71	317.37
681.05	316.37
681.39	315.49
681.73	314.60
682.06	313.69
682.40	312.72
682.74	311.98
683.08	311.24
683.42	310.41
683.75	309.66
684.09	308.63
684.43	307.87
684.77	307.08
685.10	306.33
685.44	305.55
685.78	304.74
686.12	303.94
686.45	303.17
686.79	302.35
687.13	301.61
687.46	300.84
687.80	300.28
688.14	299.45
688.48	298.74
688.81	297.90
689.15	297.42
689.49	296.79
689.82	296.02
690.16	295.11
690.50	294.41
690.83	293.65
691.17	292.95
691.51	292.28
691.84	291.60
692.18	290.97
692.52	290.25
692.85	289.61
693.19	289.24
693.52	288.67
693.86	287.98
694.20	287.37
694.53	286.88
694.87	286.19
695.21	285.61
695.54	285.06
695.88	284.39
696.21	283.51
696.55	282.86
696.88	282.30
697.22	281.70
697.56	281.11
697.89	280.57
698.23	280.14
698.56	279.46
698.90	278.89
699.23	278.34
699.57	277.80
699.90	277.16
700.24	276.45
700.58	275.84
700.91	275.48
701.25	275.35
701.58	275.10
701.92	274.74
702.25	274.25
702.59	273.61
702.92	273.24
703.26	272.91
703.59	272.39
703.93	272.31
704.26	271.95
704.60	271.52
704.93	271.03
705.26	270.41
705.60	270.05
705.93	269.49
706.27	269.20
706.60	268.93
706.94	268.82
707.27	268.41
707.61	268.13
707.94	267.75
708.27	267.06
708.61	266.36
708.94	265.87
709.28	265.44
709.61	265.10
709.94	264.78
710.28	264.36
710.61	264.04
710.95	263.28
711.28	263.21
711.61	262.84
711.95	262.56
712.28	262.24
712.61	261.93
712.95	261.96
713.28	261.80
713.61	261.38
713.95	260.90
714.28	260.65
714.61	260.29
714.95	259.83
715.28	259.35
715.61	259.02
715.95	258.77
716.28	258.51
716.61	258.30
716.95	257.88
717.28	257.58
717.61	257.30
717.94	256.95
718.28	256.23
718.61	255.93
718.94	255.55
719.27	255.31
719.61	255.08
719.94	254.65
720.27	254.12
720.60	253.85
720.94	253.58
721.27	253.27
721.60	253.14
721.93	252.94
722.27	252.90
722.60	252.67
722.93	252.32
723.26	252.13
723.59	251.85
723.93	251.70
724.26	251.56
724.59	251.31
724.92	251.15
725.25	251.15
725.59	250.93
725.92	250.88
726.25	250.63
726.58	250.41
726.91	250.23
727.24	250.05
727.57	249.85
727.91	249.60
728.24	249.46
728.57	249.23
728.90	249.05
729.23	248.71
729.56	248.80
729.89	248.74
730.22	248.50
730.55	248.30
730.89	248.13
731.22	247.90
731.55	247.81
731.88	247.60
732.21	247.29
732.54	247.07
732.87	246.82
733.20	246.68
733.53	246.49
733.86	246.41
734.19	246.20
734.52	246.11
734.85	246.26
735.18	245.98
735.51	245.89
735.84	245.80
736.17	245.77
736.50	245.44
736.83	245.76
737.16	245.63
737.49	245.54
737.82	245.43
738.15	245.31
738.48	245.12
738.81	244.95
739.14	244.73
739.47	244.58
739.80	244.49
740.13	244.40
740.46	244.27
740.79	243.98
741.12	243.79
741.45	243.43
741.78	243.04
742.11	243.08
742.44	242.77
742.77	242.66
743.10	242.44
743.43	242.23
743.75	241.59
744.08	242.09
744.41	241.86
744.74	241.59
745.07	241.27
745.40	241.07
745.73	241.12
746.06	240.99
746.39	240.95
746.71	240.73
747.04	240.52
747.37	240.35
747.70	240.26
748.03	240.23
748.36	240.26
748.68	240.06
749.01	239.73
749.34	239.64
749.67	239.56
750.00	239.48
750.33	239.74
750.65	239.65
750.98	238.93
751.31	238.89
751.64	238.84
751.97	239.05
752.29	239.03
752.62	238.72
752.95	238.61
753.28	238.41
753.60	238.22
753.93	238.29
754.26	238.24
754.59	238.08
754.91	237.90
755.24	237.78
755.57	237.77
755.90	237.79
756.22	237.69
756.55	237.47
756.88	237.25
757.20	236.78
757.53	236.57
757.86	236.37
758.19	236.27
758.51	236.17
758.84	235.87
759.17	235.70
759.49	235.66
759.82	235.86
760.15	235.81
760.47	235.77
760.80	235.55
761.13	235.45
761.45	235.33
761.78	235.27
762.11	235.16
762.43	235.00
762.76	234.90
763.08	234.92
763.41	234.89
763.74	234.91
764.06	234.81
764.39	234.76
764.71	234.76
765.04	234.62
765.37	234.51
765.69	234.39
766.02	234.28
766.34	234.14
766.67	233.84
767.00	233.86
767.32	234.10
767.65	234.23
767.97	234.11
768.30	234.05
768.62	234.01
768.95	233.96
769.27	233.86
769.60	233.81
769.92	233.63
770.25	233.53
770.57	233.39
770.90	233.34
771.22	233.22
771.55	233.12
771.87	233.10
772.20	232.98
772.52	233.29
772.85	233.81
773.17	233.78
773.50	233.75
773.82	233.68
774.15	233.31
774.47	233.00
774.80	232.93
775.12	232.92
775.45	232.82
775.77	232.79
776.09	232.81
776.42	232.76
776.74	232.83
777.07	232.67
777.39	232.61
777.72	232.53
778.04	232.58
778.36	232.55
778.69	232.51
779.01	232.57
779.33	232.15
779.66	231.60
779.98	231.57
780.31	231.54
780.63	231.62
780.95	231.73
781.28	231.73
781.60	231.65
781.92	231.62
782.25	231.60
782.57	231.56
782.89	231.46
783.22	231.40
783.54	231.33
783.86	231.42
784.19	231.39
784.51	231.49
784.83	231.39
785.16	231.36
785.48	231.35
785.80	231.28
786.12	231.34
786.45	231.30
786.77	231.33
787.09	231.25
787.42	231.09
787.74	231.05
788.06	231.06
788.38	231.01
788.71	230.85
789.03	230.87
789.35	230.89
789.67	230.76
789.99	230.76
790.32	230.66
790.64	230.59
790.96	230.89
791.28	230.75
791.61	230.64
791.93	230.53
792.25	230.48
792.57	230.86
792.89	230.76
793.21	230.68
793.54	230.55
793.86	230.50
794.18	230.43
794.50	230.28
794.82	230.20
795.14	230.27
795.47	230.35
795.79	230.28
796.11	230.09
796.43	230.12
796.75	230.09
797.07	230.06
797.39	230.04
797.71	229.71
798.04	229.69
798.36	229.74
798.68	229.77
799.00	229.72
799.32	229.34
799.64	229.41
799.96	229.38
800.28	229.44
800.60	229.38
800.92	229.39
801.24	229.41
801.56	229.38
801.89	229.36
802.21	229.36
802.53	229.26
802.85	229.37
803.17	229.60
803.49	229.42
803.81	229.41
804.13	229.37
804.45	229.27
804.77	229.25
805.09	229.27
805.41	229.23
805.73	229.16
806.05	229.08
806.37	229.02
806.69	229.04
807.01	228.96
807.33	228.93
807.65	228.85
807.97	229.00
808.28	228.96
808.60	228.91
808.92	228.81
809.24	229.09
809.56	229.04
809.88	228.83
810.20	228.91
810.52	228.97
810.84	228.91
811.16	228.93
811.48	228.95
811.80	229.05
812.12	228.98
812.43	229.05
812.75	229.09
813.07	229.07
813.39	229.00
813.71	228.96
814.03	229.01
814.35	229.05
814.67	228.83
814.98	228.83
815.30	228.74
815.62	228.76
815.94	228.48
816.26	228.75
816.58	228.68
816.89	228.68
817.21	228.61
817.53	228.63
817.85	228.62
818.17	228.60
818.48	228.41
818.80	228.60
819.12	228.57
819.44	228.52
819.76	228.44
820.07	228.55
820.39	228.51
820.71	228.47
821.03	228.38
821.34	228.37
821.66	228.48
821.98	228.58
822.30	228.45
822.61	228.71
822.93	228.38
823.25	228.40
823.57	228.38
823.88	228.39
824.20	228.39
824.52	228.45
824.83	228.46
825.15	228.45
825.47	228.37
825.79	228.31
826.10	228.28
826.42	228.35
826.74	228.30
827.05	228.36
827.37	228.40
827.69	228.47
828.00	228.50
828.32	228.42
828.64	228.43
828.95	228.74
829.27	228.61
829.58	228.63
829.90	228.68
830.22	228.76
830.53	228.71
830.85	228.68
831.17	228.55
831.48	228.50
831.80	228.54
832.11	228.48
832.43	228.53
832.75	228.52
833.06	228.65
833.38	228.58
833.69	228.60
834.01	228.60
834.32	228.61
834.64	228.56
834.96	228.59
835.27	228.54
835.59	228.39
835.90	228.34
836.22	228.32
836.53	228.15
836.85	228.07
837.16	228.52
837.48	228.50
837.79	228.62
838.11	228.61
838.42	228.55
838.74	228.58
839.05	228.53
839.37	228.55
839.68	228.28
840.00	228.26
840.31	228.27
840.63	228.22
840.94	228.06
841.26	228.01
841.57	228.00
841.88	228.03
842.20	227.95
842.51	227.85
842.83	227.87
843.14	228.33
843.46	228.29
843.77	227.94
844.08	227.92
844.40	227.79
844.71	227.68
845.03	227.68
845.34	227.64
845.65	227.57
845.97	227.51
846.28	227.49
846.60	227.51
846.91	227.39
847.22	227.37
847.54	227.52
847.85	227.48
848.16	227.34
848.48	227.22
848.79	227.39
849.10	227.42
849.42	227.45
849.73	226.96
850.04	226.97
850.36	226.84
850.67	226.87
850.98	226.86
851.30	226.96
851.61	226.93
851.92	226.85
852.23	226.95
852.55	226.92
852.86	227.00
853.17	226.95
853.49	227.07
853.80	227.12
854.11	227.14
854.42	227.15
854.74	227.09
855.05	227.09
855.36	226.80
855.67	226.75
855.99	226.66
856.30	227.22
856.61	227.21
856.92	227.19
857.23	227.23
857.55	227.21
857.86	227.21
858.17	227.30
858.48	227.29
858.79	227.21
859.11	227.33
859.42	227.27
859.73	227.22
860.04	227.20
860.35	227.09
860.66	226.92
860.98	226.94
861.29	227.05
861.60	227.01
861.91	227.22
862.22	227.25
862.53	227.21
862.84	226.69
863.16	226.79
863.47	226.72
863.78	226.66
864.09	226.68
864.40	226.70
864.71	226.69
865.02	226.81
865.33	226.75
865.64	226.67
865.95	226.66
866.27	227.03
866.58	226.91
866.89	226.95
867.20	226.95
867.51	226.93
867.82	226.93
868.13	227.16
868.44	227.00
868.75	227.08
869.06	227.16
869.37	227.19
869.68	227.07
869.99	227.13
870.30	227.23
870.61	227.30
870.92	227.18
871.23	227.11
871.54	227.12
871.85	227.25
872.16	227.26
872.47	227.24
872.78	226.90
873.09	226.98
873.40	227.02
873.71	227.14
874.02	227.15
874.33	227.08
874.64	226.92
874.95	227.04
875.26	226.90
875.56	226.90
875.87	226.91
876.18	226.81
876.49	227.32
876.80	227.26
877.11	227.16
877.42	227.27
877.73	227.27
878.04	227.21
878.35	227.21
878.66	227.20
878.96	227.22
879.27	227.32
879.58	227.32
879.89	227.25
880.20	227.28
880.51	227.32
880.82	227.32
881.12	227.26
881.43	227.10
881.74	227.14
882.05	227.05
882.36	227.00
882.67	227.18
882.97	226.65
883.28	226.60
883.59	226.57
883.90	226.62
884.21	226.68
884.51	226.71
884.82	226.65
885.13	226.71
885.44	226.69
885.74	226.62
886.05	226.60
886.36	226.59
886.67	226.45
886.98	226.66
887.28	226.73
887.59	226.81
887.90	226.89
888.20	226.88
888.51	226.99
888.82	227.00
889.13	226.94
889.43	227.42
889.74	227.38
890.05	227.39
890.35	227.30
890.66	227.22
890.97	227.14
891.28	227.09
891.58	227.05
891.89	227.08
892.20	227.04
892.50	226.98
892.81	227.01
893.12	227.01
893.42	226.72
893.73	226.67
894.04	226.53
894.34	226.55
894.65	226.49
894.95	226.40
895.26	226.42
895.57	226.60
895.87	226.04
896.18	226.13
896.48	226.15
896.79	226.17
897.10	226.15
897.40	226.12
897.71	226.16
898.01	226.13
898.32	226.14
898.63	226.08
898.93	226.12
899.24	226.12
899.54	226.10
899.85	226.18
900.15	226.25
900.46	226.37
900.76	226.40
901.07	226.44
901.38	226.50
901.68	226.61
901.99	226.40
902.29	226.47
902.60	226.42
902.90	226.38
903.21	226.40
903.51	226.47
903.82	226.58
904.12	226.56
904.43	226.59
904.73	226.57
905.03	226.72
905.34	227.20
905.64	227.20
905.95	227.15
906.25	227.13
906.56	227.08
906.86	227.08
907.17	227.05
907.47	227.10
907.77	227.03
908.08	226.87
908.38	226.92
908.69	227.00
908.99	227.11
909.30	227.18
909.60	227.14
909.90	227.19
910.21	227.07
910.51	227.07
910.81	227.08
911.12	227.16
911.42	227.14
911.73	226.65
912.03	226.66
912.33	226.81
912.64	226.81
912.94	226.73
913.24	226.69
913.55	226.68
913.85	226.64
914.15	226.74
914.46	226.81
914.76	226.78
915.06	226.75
915.37	226.62
915.67	226.59
915.97	226.67
916.27	226.49
916.58	226.59
916.88	226.55
917.18	226.55
917.49	226.88
917.79	226.81
918.09	226.90
918.39	227.06
918.70	227.00
919.00	227.04
919.30	227.35
919.60	227.27
919.91	227.24
920.21	227.27
920.51	227.17
920.81	227.17
921.12	227.22
921.42	227.14
921.72	227.20
922.02	227.20
922.32	227.25
922.63	227.34
922.93	227.55
923.23	227.64
923.53	227.55
923.83	227.21
924.13	227.32
924.44	227.27
924.74	227.29
925.04	227.43
925.34	227.40
925.64	227.21
925.94	227.25
926.24	227.51
926.55	227.46
926.85	227.53
927.15	227.55
927.45	227.56
927.75	227.59
928.05	227.63
928.35	227.66
928.65	227.67
928.95	227.74
929.26	227.54
929.56	227.60
929.86	227.67
930.16	227.59
930.46	227.50
930.76	227.59
931.06	227.40
931.36	227.25
931.66	227.30
931.96	227.37
932.26	227.38
932.56	227.21
932.86	227.25
933.16	227.27
933.46	227.21
933.76	227.09
934.06	227.26
934.36	227.44
934.66	227.39
934.96	227.36
935.26	227.34
935.56	227.44
935.86	227.32
936.16	227.25
936.46	227.21
936.76	227.16
937.06	227.05
937.36	227.05
937.66	227.08
937.96	227.09
938.26	226.94
938.56	226.90
938.86	226.91
939.16	227.00
939.46	226.99
939.76	226.95
940.06	226.99
940.35	226.80
940.65	226.55
940.95	226.60
941.25	226.40
941.55	226.36
941.85	226.34
942.15	226.45
942.45	226.61
942.75	226.63
943.04	226.71
943.34	226.78
943.64	226.76
943.94	226.73
944.24	226.72
944.54	226.80
944.84	226.82
945.13	226.70
945.43	226.61
945.73	226.65
946.03	226.75
946.33	226.74
946.62	226.72
946.92	226.67
947.22	226.74
947.52	226.83
947.82	226.88
948.11	226.80
948.41	226.74
948.71	226.63
949.01	226.65
949.31	226.58
949.60	226.50
949.90	226.58
950.20	226.56
950.50	226.51
950.79	226.49
951.09	226.56
951.39	226.63
951.69	226.58
951.98	226.62
952.28	226.55
952.58	226.56
952.87	226.53
953.17	226.65
953.47	226.58
953.76	226.55
954.06	226.53
954.36	226.42
954.66	226.34
954.95	226.50
955.25	226.51
955.55	226.59
955.84	226.56
956.14	226.54
956.44	226.60
956.73	226.56
957.03	226.53
957.32	226.47
957.62	226.44
957.92	226.55
958.21	226.51
958.51	227.08
958.81	227.03
959.10	227.14
959.40	227.27
959.69	227.25
959.99	227.38
960.29	227.36
960.58	227.33
960.88	227.53
961.17	227.45
961.47	227.53
961.76	227.41
962.06	227.47
962.36	227.41
962.65	227.38
962.95	227.40
963.24	227.36
963.54	227.38
963.83	227.39
964.13	227.37
964.42	227.27
964.72	226.90
965.01	226.90
965.31	226.86
965.60	226.59
965.90	226.88
966.19	226.72
966.49	226.77
966.78	226.77
967.08	226.73
967.37	226.67
967.67	226.62
967.96	226.64
968.26	226.62
968.55	226.75
968.85	226.74
969.14	226.70
969.43	226.73
969.73	226.71
970.02	226.64
970.32	226.62
970.61	226.58
970.91	226.43
971.20	226.43
971.49	226.37
971.79	226.51
972.08	226.19
972.38	226.25
972.67	226.21
972.96	226.26
973.26	226.14
973.55	226.34
973.85	226.26
974.14	226.34
974.43	226.35
974.73	226.23
975.02	226.21
975.31	226.22
975.61	226.14
975.90	226.05
976.19	226.05
976.49	226.06
976.78	226.08
977.07	226.11
977.37	226.19
977.66	226.20
977.95	226.10
978.24	226.14
978.54	226.27
978.83	226.22
979.12	226.19
979.42	226.17
979.71	226.03
980.00	226.05
980.29	226.00
980.59	225.96
980.88	226.09
981.17	226.05
981.46	226.04
981.76	226.05
982.05	226.25
982.34	226.26
982.63	226.29
982.93	226.25
983.22	226.30
983.51	226.26
983.80	226.43
984.09	226.51
984.39	226.47
984.68	226.34
984.97	226.36
985.26	226.31
985.55	226.42
985.85	226.30
986.14	226.36
986.43	226.41
986.72	226.37
987.01	226.19
987.30	226.17
987.59	226.20
987.89	226.24
988.18	226.20
988.47	226.15
988.76	226.09
989.05	226.10
989.34	226.05
989.63	226.10
989.92	225.96
990.22	225.96
990.51	225.89
990.80	225.83
991.09	225.84
991.38	226.02
991.67	225.93
991.96	225.98
992.25	225.97
992.54	225.93
992.83	225.98
993.12	226.00
993.41	226.14
993.70	226.32
993.99	226.45
994.28	226.43
994.58	226.52
994.87	226.45
995.16	226.44
995.45	226.44
995.74	226.34
996.03	226.41
996.32	226.45
996.61	226.59
996.90	226.66
997.19	226.71
997.48	226.58
997.77	226.55
998.06	226.52
998.34	226.53
998.63	226.59
998.92	226.60
999.21	226.72
999.50	226.69
999.79	226.57
1000.08	226.52
1000.37	226.51
1000.66	226.48
1000.95	226.59
1001.24	226.61
1001.53	226.64
1001.82	226.65
1002.11	226.65
1002.40	226.62
1002.68	226.77
1002.97	227.05
1003.26	226.91
1003.55	226.90
1003.84	226.90
1004.13	227.10
1004.42	227.11
1004.71	227.03
1004.99	226.96
1005.28	227.00
1005.57	226.99
1005.86	226.92
1006.15	226.89
1006.44	226.83
1006.72	226.86
1007.01	226.77
1007.30	226.81
1007.59	226.71
1007.88	226.76
1008.17	226.69
1008.45	226.65
1008.74	226.42
1009.03	226.19
1009.32	226.28
1009.60	226.28
1009.89	226.23
1010.18	226.02
1010.47	225.96
1010.76	225.96
1011.04	225.94
1011.33	226.00
1011.62	225.92
1011.91	225.92
1012.19	225.88
1012.48	225.84
1012.77	225.85
1013.05	226.12
1013.34	226.05
1013.63	226.04
1013.92	226.06
1014.20	226.08
1014.49	226.09
1014.78	226.15
1015.06	225.96
1015.35	225.83
1015.64	225.92
1015.92	225.99
1016.21	226.03
1016.50	226.00
1016.78	226.05
1017.07	226.12
1017.36	225.91
1017.64	225.88
1017.93	225.89
1018.22	225.89
1018.50	225.92
1018.79	225.90
1019.08	225.61
1019.36	225.68
1019.65	225.64
1019.93	225.78
1020.22	225.80
1020.51	226.07
1020.79	225.95
1021.08	225.40
1021.36	225.20
1021.65	226.55
1021.94	224.70
1022.22	226.35
1022.51	225.10
1022.79	229.30
1023.08	226.40
1023.36	232.50
1023.65	224.15
>>>>>End Processed Spectral Data<<<<<
