SpectraSuite Data File
++++++++++++++++++++++++++++++++++++
Date: Wed Sep 04 17:59:11 EDT 2013
User: lab3
Dark Spectrum Present: Yes
Reference Spectrum Present: No
Number of Sampled Component Spectra: 1
Spectrometers: USB2E7196
Integration Time (usec): 170000 (USB2E7196)
Spectra Averaged: 20 (USB2E7196)
Boxcar Smoothing: 10 (USB2E7196)
Correct for Electrical Dark: No (USB2E7196)
Strobe/Lamp Enabled: No (USB2E7196)
Correct for Detector Non-linearity: No (USB2E7196)
Correct for Stray Light: No (USB2E7196)
Number of Pixels in Processed Spectrum: 2048
>>>>>Begin Processed Spectral Data<<<<<
339.09	0.00
339.48	212.55
339.86	215.25
340.24	216.10
340.63	218.15
341.01	226.90
341.39	220.55
341.78	221.20
342.16	224.90
342.54	223.05
342.93	212.85
343.31	223.59
343.69	224.21
344.07	224.72
344.46	225.20
344.84	225.59
345.22	225.55
345.60	225.87
345.99	226.15
346.37	226.27
346.75	226.43
347.13	226.55
347.52	226.65
347.90	226.79
348.28	226.76
348.66	226.84
349.05	226.74
349.43	226.86
349.81	226.98
350.19	227.00
350.57	227.09
350.96	227.16
351.34	227.25
351.72	227.29
352.10	227.34
352.48	227.39
352.87	227.40
353.25	227.43
353.63	227.45
354.01	227.45
354.39	227.48
354.77	227.50
355.15	227.65
355.54	227.62
355.92	227.57
356.30	227.62
356.68	228.01
357.06	228.15
357.44	228.10
357.82	228.09
358.20	228.54
358.58	228.54
358.97	228.62
359.35	228.82
359.73	229.04
360.11	229.08
360.49	229.16
360.87	229.20
361.25	229.36
361.63	229.56
362.01	229.67
362.39	229.65
362.77	229.74
363.15	229.77
363.53	229.84
363.91	229.83
364.29	229.93
364.67	229.51
365.05	229.53
365.43	229.63
365.81	229.71
366.19	229.58
366.57	229.85
366.95	229.81
367.33	229.69
367.71	229.61
368.09	229.74
368.47	229.77
368.85	229.80
369.23	229.80
369.61	229.59
369.99	229.71
370.37	229.76
370.75	230.05
371.13	229.91
371.51	229.82
371.89	229.89
372.27	229.89
372.65	229.81
373.03	229.79
373.41	229.78
373.78	229.76
374.16	229.55
374.54	229.27
374.92	229.20
375.30	229.14
375.68	229.05
376.06	229.08
376.44	228.97
376.82	228.95
377.19	228.88
377.57	228.80
377.95	228.59
378.33	228.46
378.71	228.12
379.09	228.18
379.47	228.20
379.84	228.16
380.22	228.05
380.60	227.98
380.98	227.85
381.36	227.75
381.73	227.69
382.11	227.67
382.49	227.71
382.87	227.54
383.25	227.51
383.62	228.00
384.00	227.79
384.38	227.71
384.76	227.71
385.13	227.90
385.51	227.85
385.89	227.78
386.27	227.84
386.64	227.76
387.02	227.58
387.40	227.51
387.78	227.44
388.15	227.42
388.53	227.40
388.91	227.38
389.29	227.29
389.66	227.27
390.04	227.18
390.42	227.21
390.79	227.21
391.17	227.21
391.55	226.68
391.92	226.63
392.30	226.71
392.68	226.68
393.05	226.63
393.43	226.70
393.81	226.72
394.18	226.60
394.56	226.73
394.94	226.91
395.31	226.83
395.69	226.96
396.06	226.98
396.44	227.06
396.82	227.07
397.19	227.35
397.57	227.29
397.95	227.40
398.32	227.21
398.70	227.37
399.07	227.48
399.45	227.50
399.82	227.63
400.20	227.62
400.58	227.70
400.95	227.60
401.33	227.77
401.70	228.25
402.08	228.46
402.45	228.54
402.83	228.71
403.20	228.95
403.58	228.98
403.95	229.21
404.33	229.41
404.71	229.61
405.08	230.05
405.46	230.36
405.83	230.60
406.21	230.91
406.58	231.15
406.96	231.41
407.33	231.70
407.70	232.02
408.08	232.80
408.45	233.19
408.83	233.70
409.20	234.05
409.58	234.17
409.95	234.67
410.33	235.26
410.70	235.67
411.08	236.30
411.45	236.97
411.82	237.56
412.20	238.34
412.57	239.41
412.95	239.80
413.32	240.66
413.69	241.50
414.07	242.50
414.44	243.47
414.82	244.54
415.19	245.79
415.56	247.08
415.94	248.11
416.31	249.55
416.68	250.95
417.06	252.56
417.43	254.17
417.81	256.00
418.18	257.77
418.55	259.76
418.93	261.76
419.30	263.89
419.67	266.20
420.04	268.47
420.42	270.69
420.79	273.74
421.16	276.51
421.54	279.58
421.91	282.59
422.28	285.72
422.66	289.00
423.03	292.50
423.40	295.83
423.77	299.35
424.15	302.97
424.52	306.77
424.89	311.09
425.26	315.13
425.64	318.91
426.01	323.15
426.38	327.58
426.75	332.20
427.13	336.76
427.50	341.57
427.87	346.53
428.24	351.56
428.61	356.11
428.99	361.39
429.36	366.76
429.73	372.24
430.10	377.84
430.47	383.54
430.85	389.17
431.22	395.40
431.59	402.36
431.96	408.66
432.33	415.58
432.70	422.20
433.08	430.02
433.45	437.62
433.82	445.02
434.19	453.34
434.56	461.49
434.93	469.25
435.30	477.06
435.68	485.80
436.05	494.35
436.42	502.67
436.79	510.47
437.16	518.97
437.53	527.91
437.90	536.73
438.27	545.23
438.64	554.35
439.01	562.71
439.38	569.86
439.75	577.01
440.13	585.12
440.50	592.64
440.87	598.86
441.24	605.24
441.61	612.29
441.98	617.25
442.35	623.11
442.72	629.25
443.09	635.12
443.46	638.49
443.83	640.79
444.20	642.83
444.57	645.55
444.94	646.66
445.31	647.57
445.68	648.90
446.05	649.13
446.42	647.71
446.79	646.25
447.16	644.59
447.53	643.40
447.90	639.60
448.27	635.95
448.64	631.07
449.01	627.14
449.37	620.81
449.74	614.69
450.11	607.68
450.48	599.73
450.85	591.46
451.22	584.54
451.59	577.76
451.96	571.38
452.33	563.17
452.70	555.66
453.07	547.09
453.43	537.89
453.80	529.40
454.17	521.21
454.54	513.34
454.91	505.15
455.28	497.05
455.65	489.60
456.02	482.65
456.38	476.11
456.75	468.31
457.12	461.95
457.49	455.68
457.86	449.23
458.23	444.13
458.59	438.51
458.96	432.70
459.33	427.52
459.70	422.38
460.07	418.23
460.43	413.57
460.80	409.24
461.17	405.45
461.54	401.52
461.91	397.70
462.27	393.84
462.64	390.51
463.01	386.89
463.38	383.64
463.74	379.66
464.11	376.62
464.48	374.14
464.85	371.15
465.21	369.01
465.58	366.73
465.95	363.77
466.32	361.45
466.68	359.23
467.05	357.16
467.42	355.02
467.78	352.78
468.15	350.67
468.52	349.06
468.88	346.83
469.25	344.97
469.62	343.53
469.98	342.00
470.35	340.44
470.72	339.00
471.08	337.24
471.45	335.98
471.82	334.77
472.18	333.22
472.55	332.18
472.92	330.76
473.28	329.64
473.65	328.60
474.02	327.49
474.38	326.64
474.75	325.83
475.11	324.90
475.48	324.29
475.85	323.72
476.21	323.05
476.58	322.56
476.94	322.02
477.31	321.62
477.67	321.15
478.04	320.89
478.41	320.76
478.77	321.02
479.14	320.74
479.50	320.62
479.87	320.71
480.23	320.72
480.60	320.78
480.96	320.91
481.33	321.29
481.69	321.60
482.06	321.78
482.42	321.93
482.79	322.32
483.15	322.75
483.52	323.25
483.88	323.72
484.25	324.34
484.61	325.14
484.98	325.77
485.34	326.79
485.71	327.65
486.07	328.54
486.44	329.10
486.80	330.19
487.17	331.37
487.53	332.73
487.90	334.14
488.26	335.77
488.62	337.45
488.99	338.99
489.35	340.80
489.72	342.67
490.08	344.80
490.44	346.81
490.81	348.90
491.17	351.13
491.54	353.71
491.90	356.30
492.26	358.95
492.63	361.67
492.99	364.43
493.36	367.61
493.72	370.99
494.08	374.52
494.45	378.21
494.81	382.07
495.17	385.95
495.54	390.19
495.90	394.45
496.26	398.89
496.63	403.70
496.99	408.50
497.35	413.57
497.72	418.90
498.08	424.44
498.44	430.24
498.80	436.35
499.17	442.45
499.53	448.56
499.89	455.20
500.26	462.09
500.62	469.09
500.98	476.45
501.34	483.90
501.71	491.74
502.07	499.59
502.43	507.79
502.79	516.22
503.16	524.91
503.52	533.91
503.88	543.17
504.24	552.79
504.60	562.77
504.97	573.00
505.33	583.40
505.69	594.49
506.05	605.52
506.41	616.85
506.78	628.44
507.14	640.83
507.50	653.12
507.86	665.91
508.22	678.97
508.59	692.14
508.95	705.82
509.31	719.90
509.67	734.36
510.03	748.65
510.39	763.62
510.75	778.64
511.12	793.95
511.48	809.58
511.84	825.39
512.20	841.34
512.56	857.85
512.92	874.56
513.28	891.49
513.64	908.73
514.00	926.21
514.37	943.93
514.73	961.72
515.09	980.07
515.45	998.35
515.81	1016.78
516.17	1035.47
516.53	1054.26
516.89	1072.93
517.25	1092.49
517.61	1113.01
517.97	1133.11
518.33	1153.35
518.69	1173.87
519.05	1194.57
519.41	1215.09
519.77	1236.31
520.13	1257.18
520.49	1277.93
520.85	1300.11
521.21	1321.43
521.57	1342.93
521.93	1363.85
522.29	1385.23
522.65	1406.11
523.01	1427.34
523.37	1448.22
523.73	1469.45
524.09	1490.20
524.45	1511.04
524.81	1531.80
525.17	1552.38
525.53	1572.92
525.89	1593.69
526.25	1614.60
526.61	1635.21
526.97	1656.62
527.33	1677.69
527.68	1699.22
528.04	1720.62
528.40	1740.51
528.76	1761.86
529.12	1782.24
529.48	1803.19
529.84	1823.35
530.20	1844.73
530.56	1865.36
530.91	1886.15
531.27	1906.70
531.63	1927.39
531.99	1948.37
532.35	1968.50
532.71	1988.72
533.07	2009.70
533.42	2030.07
533.78	2050.22
534.14	2070.12
534.50	2089.04
534.86	2108.68
535.21	2126.40
535.57	2145.00
535.93	2162.69
536.29	2180.06
536.65	2198.40
537.00	2216.11
537.36	2234.12
537.72	2250.68
538.08	2268.20
538.44	2285.23
538.79	2301.60
539.15	2318.06
539.51	2333.82
539.87	2349.28
540.22	2363.56
540.58	2377.86
540.94	2391.02
541.29	2403.62
541.65	2416.25
542.01	2429.09
542.37	2439.60
542.72	2450.60
543.08	2461.40
543.44	2473.24
543.79	2483.70
544.15	2493.78
544.51	2504.10
544.87	2513.60
545.22	2522.38
545.58	2530.05
545.94	2537.36
546.29	2544.02
546.65	2550.14
547.01	2556.05
547.36	2561.65
547.72	2567.07
548.07	2571.11
548.43	2576.77
548.79	2581.47
549.14	2585.34
549.50	2588.95
549.86	2593.26
550.21	2597.47
550.57	2600.84
550.92	2602.22
551.28	2603.51
551.64	2605.96
551.99	2607.70
552.35	2609.47
552.70	2611.48
553.06	2613.22
553.41	2614.27
553.77	2616.07
554.13	2618.09
554.48	2619.48
554.84	2620.83
555.19	2622.10
555.55	2623.79
555.90	2622.61
556.26	2621.67
556.61	2620.19
556.97	2618.56
557.32	2617.99
557.68	2616.82
558.03	2615.49
558.39	2614.26
558.74	2613.52
559.10	2609.85
559.45	2606.26
559.81	2601.72
560.16	2596.54
560.52	2591.70
560.87	2587.66
561.23	2582.25
561.58	2576.10
561.94	2569.28
562.29	2561.73
562.64	2554.75
563.00	2546.57
563.35	2540.34
563.71	2533.72
564.06	2527.92
564.42	2521.30
564.77	2514.00
565.12	2506.51
565.48	2498.61
565.83	2490.58
566.19	2482.36
566.54	2474.75
566.89	2466.61
567.25	2458.72
567.60	2451.63
567.96	2444.13
568.31	2436.13
568.66	2427.38
569.02	2418.47
569.37	2410.36
569.72	2402.80
570.08	2393.67
570.43	2384.12
570.78	2375.05
571.14	2365.77
571.49	2355.41
571.84	2345.23
572.20	2334.31
572.55	2324.42
572.90	2313.46
573.26	2303.32
573.61	2292.50
573.96	2281.17
574.31	2269.25
574.67	2257.59
575.02	2244.48
575.37	2231.66
575.72	2218.22
576.08	2206.30
576.43	2193.61
576.78	2180.28
577.13	2166.49
577.49	2153.74
577.84	2142.07
578.19	2129.62
578.54	2116.77
578.90	2104.65
579.25	2092.65
579.60	2080.07
579.95	2066.78
580.30	2053.74
580.66	2040.22
581.01	2026.38
581.36	2012.64
581.71	2000.25
582.06	1987.10
582.42	1974.90
582.77	1962.43
583.12	1950.65
583.47	1937.98
583.82	1926.10
584.17	1914.00
584.53	1902.05
584.88	1889.00
585.23	1875.65
585.58	1861.40
585.93	1848.29
586.28	1835.08
586.63	1821.11
586.98	1807.14
587.34	1793.56
587.69	1780.40
588.04	1767.55
588.39	1755.37
588.74	1742.95
589.09	1730.54
589.44	1717.73
589.79	1705.44
590.14	1693.26
590.49	1680.86
590.84	1668.74
591.19	1656.53
591.54	1644.21
591.89	1632.30
592.25	1621.87
592.60	1610.25
592.95	1598.73
593.30	1586.58
593.65	1574.60
594.00	1562.44
594.35	1552.64
594.70	1540.89
595.05	1529.46
595.40	1517.43
595.75	1505.75
596.10	1494.42
596.45	1482.84
596.80	1472.07
597.15	1460.51
597.50	1448.55
597.85	1437.18
598.19	1425.55
598.54	1413.92
598.89	1402.50
599.24	1391.79
599.59	1380.07
599.94	1369.12
600.29	1358.73
600.64	1348.41
600.99	1337.39
601.34	1327.74
601.69	1316.07
602.04	1306.32
602.39	1296.35
602.74	1287.23
603.08	1277.40
603.43	1267.95
603.78	1258.12
604.13	1248.43
604.48	1238.71
604.83	1228.92
605.18	1219.12
605.53	1209.54
605.87	1200.33
606.22	1192.00
606.57	1182.49
606.92	1173.13
607.27	1164.11
607.62	1155.26
607.96	1146.82
608.31	1138.89
608.66	1130.60
609.01	1122.09
609.36	1113.28
609.70	1104.59
610.05	1095.86
610.40	1087.55
610.75	1078.79
611.10	1070.32
611.44	1061.79
611.79	1053.54
612.14	1045.69
612.49	1037.58
612.83	1030.10
613.18	1022.34
613.53	1014.51
613.88	1006.41
614.22	998.50
614.57	990.44
614.92	982.58
615.27	974.85
615.61	966.96
615.96	959.21
616.31	951.79
616.65	944.88
617.00	937.63
617.35	930.19
617.70	922.89
618.04	915.82
618.39	908.82
618.74	902.32
619.08	895.38
619.43	888.26
619.78	881.23
620.12	873.95
620.47	866.94
620.82	859.74
621.16	853.07
621.51	846.77
621.85	840.59
622.20	833.90
622.55	827.27
622.89	820.81
623.24	814.15
623.59	807.76
623.93	801.25
624.28	795.03
624.62	789.38
624.97	783.41
625.32	777.57
625.66	771.52
626.01	765.22
626.35	759.76
626.70	754.28
627.04	748.97
627.39	743.48
627.73	738.19
628.08	732.90
628.43	727.40
628.77	721.89
629.12	716.50
629.46	711.67
629.81	706.82
630.15	702.08
630.50	697.32
630.84	692.49
631.19	687.75
631.53	683.22
631.88	677.99
632.22	673.19
632.57	668.70
632.91	664.08
633.26	659.69
633.60	655.01
633.95	650.24
634.29	645.47
634.64	640.98
634.98	636.09
635.32	631.66
635.67	627.67
636.01	623.35
636.36	619.03
636.70	614.90
637.05	610.78
637.39	606.51
637.73	602.37
638.08	598.18
638.42	593.84
638.77	589.37
639.11	585.09
639.45	580.79
639.80	576.28
640.14	572.15
640.49	568.08
640.83	564.18
641.17	560.45
641.52	556.67
641.86	553.05
642.20	549.92
642.55	546.25
642.89	542.65
643.23	539.27
643.58	536.10
643.92	532.41
644.26	528.78
644.61	525.49
644.95	522.09
645.29	518.70
645.64	515.60
645.98	512.55
646.32	509.52
646.66	506.35
647.01	503.42
647.35	500.81
647.69	497.90
648.04	495.07
648.38	492.27
648.72	489.35
649.06	486.29
649.41	483.12
649.75	480.09
650.09	477.17
650.43	474.18
650.78	471.17
651.12	468.32
651.46	465.56
651.80	462.69
652.14	460.00
652.49	457.47
652.83	454.87
653.17	452.27
653.51	449.60
653.85	447.30
654.20	444.72
654.54	442.16
654.88	439.52
655.22	437.22
655.56	434.78
655.90	432.49
656.25	430.15
656.59	427.88
656.93	425.76
657.27	423.60
657.61	421.35
657.95	419.06
658.29	416.87
658.64	414.75
658.98	412.69
659.32	410.31
659.66	408.03
660.00	405.80
660.34	403.57
660.68	401.47
661.02	399.37
661.36	397.55
661.70	395.43
662.05	393.53
662.39	391.36
662.73	389.47
663.07	387.85
663.41	386.04
663.75	384.11
664.09	382.16
664.43	380.23
664.77	378.41
665.11	376.65
665.45	375.05
665.79	373.38
666.13	371.59
666.47	370.05
666.81	368.40
667.15	366.76
667.49	365.49
667.83	364.16
668.17	362.64
668.51	361.05
668.85	359.77
669.19	358.64
669.53	357.19
669.87	355.74
670.21	354.14
670.55	352.77
670.89	351.68
671.23	350.40
671.57	348.95
671.91	347.60
672.25	346.25
672.58	345.08
672.92	343.56
673.26	342.34
673.60	341.16
673.94	340.02
674.28	338.94
674.62	337.70
674.96	336.28
675.30	335.03
675.64	333.80
675.97	332.51
676.31	331.16
676.65	329.98
676.99	328.96
677.33	327.74
677.67	326.68
678.01	325.38
678.34	324.30
678.68	323.40
679.02	322.35
679.36	321.34
679.70	320.27
680.04	319.37
680.37	318.38
680.71	317.38
681.05	316.54
681.39	315.64
681.73	314.65
682.06	313.86
682.40	313.01
682.74	312.19
683.08	311.55
683.42	310.59
683.75	309.83
684.09	308.91
684.43	308.19
684.77	307.30
685.10	306.56
685.44	305.70
685.78	304.89
686.12	304.16
686.45	303.38
686.79	302.55
687.13	301.88
687.46	301.06
687.80	300.48
688.14	299.66
688.48	298.82
688.81	297.95
689.15	297.27
689.49	296.53
689.82	295.87
690.16	294.82
690.50	294.17
690.83	293.40
691.17	292.57
691.51	291.85
691.84	291.24
692.18	290.51
692.52	289.95
692.85	289.31
693.19	288.85
693.52	288.18
693.86	287.35
694.20	286.72
694.53	286.18
694.87	285.39
695.21	284.68
695.54	284.12
695.88	283.55
696.21	282.73
696.55	282.18
696.88	281.53
697.22	281.02
697.56	280.48
697.89	279.82
698.23	279.30
698.56	278.64
698.90	278.17
699.23	277.56
699.57	276.97
699.90	276.40
700.24	275.73
700.58	275.34
700.91	275.10
701.25	274.95
701.58	274.81
701.92	274.49
702.25	274.13
702.59	273.60
702.92	273.16
703.26	272.86
703.59	272.39
703.93	272.32
704.26	271.98
704.60	271.60
704.93	271.21
705.26	270.78
705.60	270.44
705.93	269.85
706.27	269.61
706.60	269.30
706.94	269.09
707.27	268.63
707.61	268.24
707.94	267.71
708.27	266.98
708.61	266.24
708.94	265.70
709.28	265.21
709.61	264.94
709.94	264.58
710.28	264.25
710.61	263.89
710.95	263.10
711.28	262.99
711.61	262.62
711.95	262.38
712.28	262.05
712.61	261.72
712.95	261.70
713.28	261.56
713.61	261.16
713.95	260.70
714.28	260.45
714.61	260.12
714.95	259.87
715.28	259.48
715.61	259.10
715.95	258.90
716.28	258.59
716.61	258.24
716.95	257.98
717.28	257.61
717.61	257.30
717.94	257.03
718.28	256.40
718.61	256.00
718.94	255.63
719.27	255.41
719.61	255.19
719.94	254.75
720.27	254.27
720.60	253.96
720.94	253.73
721.27	253.55
721.60	253.33
721.93	253.07
722.27	253.00
722.60	252.90
722.93	252.71
723.26	252.59
723.59	252.32
723.93	252.14
724.26	252.00
724.59	251.74
724.92	251.62
725.25	251.57
725.59	251.41
725.92	251.28
726.25	251.06
726.58	250.91
726.91	250.66
727.24	250.48
727.57	250.26
727.91	249.93
728.24	249.68
728.57	249.41
728.90	249.25
729.23	248.91
729.56	248.92
729.89	248.66
730.22	248.46
730.55	248.25
730.89	248.02
731.22	247.80
731.55	247.62
731.88	247.41
732.21	247.12
732.54	246.86
732.87	246.64
733.20	246.41
733.53	246.13
733.86	246.00
734.19	245.79
734.52	245.74
734.85	245.95
735.18	245.69
735.51	245.73
735.84	245.67
736.17	245.64
736.50	245.25
736.83	245.62
737.16	245.45
737.49	245.35
737.82	245.16
738.15	245.06
738.48	244.98
738.81	244.77
739.14	244.62
739.47	244.49
739.80	244.40
740.13	244.36
740.46	244.18
740.79	244.03
741.12	243.93
741.45	243.64
741.78	243.24
742.11	243.23
742.44	242.96
742.77	242.82
743.10	242.60
743.43	242.40
743.75	241.71
744.08	242.14
744.41	241.97
744.74	241.83
745.07	241.62
745.40	241.48
745.73	241.60
746.06	241.45
746.39	241.36
746.71	241.18
747.04	240.96
747.37	240.78
747.70	240.77
748.03	240.67
748.36	240.79
748.68	240.64
749.01	240.42
749.34	240.26
749.67	240.15
750.00	240.12
750.33	240.46
750.65	240.45
750.98	239.81
751.31	239.72
751.64	239.66
751.97	239.75
752.29	239.74
752.62	239.46
752.95	239.30
753.28	239.23
753.60	239.12
753.93	239.22
754.26	239.19
754.59	238.90
754.91	238.75
755.24	238.47
755.57	238.40
755.90	238.33
756.22	238.25
756.55	238.00
756.88	237.78
757.20	237.30
757.53	237.09
757.86	237.00
758.19	236.90
758.51	236.78
758.84	236.43
759.17	236.23
759.49	236.11
759.82	236.31
760.15	236.20
760.47	236.10
760.80	235.83
761.13	235.82
761.45	235.65
761.78	235.59
762.11	235.56
762.43	235.37
762.76	235.22
763.08	235.17
763.41	235.28
763.74	235.24
764.06	235.17
764.39	235.10
764.71	234.99
765.04	234.91
765.37	234.89
765.69	234.84
766.02	234.81
766.34	234.69
766.67	234.44
767.00	234.48
767.32	234.65
767.65	234.85
767.97	234.75
768.30	234.78
768.62	234.63
768.95	234.49
769.27	234.50
769.60	234.54
769.92	234.40
770.25	234.18
770.57	234.03
770.90	233.90
771.22	233.81
771.55	233.72
771.87	233.66
772.20	233.56
772.52	233.92
772.85	234.41
773.17	234.34
773.50	234.31
773.82	234.17
774.15	233.92
774.47	233.55
774.80	233.49
775.12	233.39
775.45	233.38
775.77	233.38
776.09	233.39
776.42	233.34
776.74	233.44
777.07	233.33
777.39	233.32
777.72	233.25
778.04	233.32
778.36	233.28
778.69	233.24
779.01	233.16
779.33	232.77
779.66	232.16
779.98	232.12
780.31	232.07
780.63	232.17
780.95	232.20
781.28	232.17
781.60	232.07
781.92	232.11
782.25	231.98
782.57	231.93
782.89	231.80
783.22	231.72
783.54	231.55
783.86	231.61
784.19	231.56
784.51	231.74
784.83	231.56
785.16	231.45
785.48	231.39
785.80	231.41
786.12	231.33
786.45	231.30
786.77	231.37
787.09	231.34
787.42	231.17
787.74	231.15
788.06	231.17
788.38	231.10
788.71	231.00
789.03	231.03
789.35	231.04
789.67	231.00
789.99	231.05
790.32	230.98
790.64	230.90
790.96	231.19
791.28	230.93
791.61	230.89
791.93	230.88
792.25	230.87
792.57	231.13
792.89	231.05
793.21	231.07
793.54	230.91
793.86	230.78
794.18	230.80
794.50	230.67
794.82	230.66
795.14	230.69
795.47	230.79
795.79	230.79
796.11	230.65
796.43	230.58
796.75	230.53
797.07	230.54
797.39	230.52
797.71	230.15
798.04	230.19
798.36	230.23
798.68	230.23
799.00	230.20
799.32	229.96
799.64	230.10
799.96	230.07
800.28	230.17
800.60	230.10
800.92	230.10
801.24	230.02
801.56	229.99
801.89	229.95
802.21	229.99
802.53	229.94
802.85	230.05
803.17	230.20
803.49	230.08
803.81	230.04
804.13	229.94
804.45	229.94
804.77	229.92
805.09	229.89
805.41	229.79
805.73	229.77
806.05	229.62
806.37	229.51
806.69	229.45
807.01	229.45
807.33	229.53
807.65	229.36
807.97	229.60
808.28	229.58
808.60	229.53
808.92	229.40
809.24	229.61
809.56	229.51
809.88	229.41
810.20	229.44
810.52	229.49
810.84	229.50
811.16	229.45
811.48	229.40
811.80	229.53
812.12	229.53
812.43	229.52
812.75	229.50
813.07	229.44
813.39	229.44
813.71	229.22
814.03	229.11
814.35	229.06
814.67	228.87
814.98	228.81
815.30	228.83
815.62	228.71
815.94	228.42
816.26	228.61
816.58	228.50
816.89	228.48
817.21	228.32
817.53	228.34
817.85	228.37
818.17	228.35
818.48	228.15
818.80	228.22
819.12	228.21
819.44	228.13
819.76	228.07
820.07	227.99
820.39	228.04
820.71	228.15
821.03	228.11
821.34	228.02
821.66	228.03
821.98	228.02
822.30	228.06
822.61	228.31
822.93	228.08
823.25	228.08
823.57	228.05
823.88	228.18
824.20	228.12
824.52	228.15
824.83	228.16
825.15	228.08
825.47	228.05
825.79	228.09
826.10	228.03
826.42	227.98
826.74	228.09
827.05	228.12
827.37	228.08
827.69	228.06
828.00	228.08
828.32	228.09
828.64	228.09
828.95	228.35
829.27	228.13
829.58	228.09
829.90	228.08
830.22	228.15
830.53	228.05
830.85	228.00
831.17	227.91
831.48	227.79
831.80	227.83
832.11	227.75
832.43	227.60
832.75	227.65
833.06	227.90
833.38	227.69
833.69	227.64
834.01	227.59
834.32	227.50
834.64	227.48
834.96	227.45
835.27	227.45
835.59	227.23
835.90	227.22
836.22	227.27
836.53	227.18
836.85	227.11
837.16	227.56
837.48	227.62
837.79	227.67
838.11	227.83
838.42	227.80
838.74	227.95
839.05	227.90
839.37	227.90
839.68	227.62
840.00	227.63
840.31	227.71
840.63	227.63
840.94	227.66
841.26	227.60
841.57	227.55
841.88	227.53
842.20	227.47
842.51	227.40
842.83	227.33
843.14	227.82
843.46	227.77
843.77	227.56
844.08	227.56
844.40	227.45
844.71	227.34
845.03	227.29
845.34	227.15
845.65	227.21
845.97	227.20
846.28	227.29
846.60	227.34
846.91	227.27
847.22	227.33
847.54	227.46
847.85	227.52
848.16	227.52
848.48	227.43
848.79	227.61
849.10	227.69
849.42	227.76
849.73	227.24
850.04	227.20
850.36	226.95
850.67	226.99
850.98	227.04
851.30	227.10
851.61	227.09
851.92	227.14
852.23	227.30
852.55	227.37
852.86	227.36
853.17	227.37
853.49	227.45
853.80	227.58
854.11	227.64
854.42	227.68
854.74	227.66
855.05	227.72
855.36	227.49
855.67	227.48
855.99	227.50
856.30	228.15
856.61	228.15
856.92	228.18
857.23	228.22
857.55	228.15
857.86	228.14
858.17	228.24
858.48	228.15
858.79	228.02
859.11	228.00
859.42	227.91
859.73	227.88
860.04	227.82
860.35	227.66
860.66	227.45
860.98	227.49
861.29	227.52
861.60	227.45
861.91	227.49
862.22	227.42
862.53	227.35
862.84	226.72
863.16	226.84
863.47	226.78
863.78	226.74
864.09	226.82
864.40	226.78
864.71	226.76
865.02	226.88
865.33	226.85
865.64	226.80
865.95	226.83
866.27	227.17
866.58	227.16
866.89	227.17
867.20	227.22
867.51	227.05
867.82	227.07
868.13	227.19
868.44	227.13
868.75	227.23
869.06	227.23
869.37	227.35
869.68	227.22
869.99	227.31
870.30	227.34
870.61	227.36
870.92	227.38
871.23	227.38
871.54	227.42
871.85	227.50
872.16	227.57
872.47	227.55
872.78	227.21
873.09	227.24
873.40	227.25
873.71	227.33
874.02	227.45
874.33	227.32
874.64	227.25
874.95	227.34
875.26	227.21
875.56	227.25
875.87	227.19
876.18	227.22
876.49	227.69
876.80	227.62
877.11	227.55
877.42	227.49
877.73	227.49
878.04	227.39
878.35	227.42
878.66	227.45
878.96	227.45
879.27	227.41
879.58	227.37
879.89	227.35
880.20	227.41
880.51	227.39
880.82	227.41
881.12	227.45
881.43	227.30
881.74	227.28
882.05	227.21
882.36	227.15
882.67	227.18
882.97	226.61
883.28	226.60
883.59	226.52
883.90	226.60
884.21	226.65
884.51	226.59
884.82	226.48
885.13	226.46
885.44	226.53
885.74	226.56
886.05	226.49
886.36	226.43
886.67	226.23
886.98	226.40
887.28	226.44
887.59	226.50
887.90	226.59
888.20	226.57
888.51	226.66
888.82	226.67
889.13	226.64
889.43	227.08
889.74	227.00
890.05	227.02
890.35	226.97
890.66	226.88
890.97	226.83
891.28	226.83
891.58	226.76
891.89	226.67
892.20	226.58
892.50	226.55
892.81	226.57
893.12	226.60
893.42	226.44
893.73	226.44
894.04	226.36
894.34	226.36
894.65	226.33
894.95	226.32
895.26	226.33
895.57	226.52
895.87	226.02
896.18	226.16
896.48	226.23
896.79	226.28
897.10	226.34
897.40	226.41
897.71	226.46
898.01	226.43
898.32	226.54
898.63	226.65
898.93	226.80
899.24	226.83
899.54	226.82
899.85	226.80
900.15	226.81
900.46	226.92
900.76	226.99
901.07	227.00
901.38	226.99
901.68	227.08
901.99	226.88
902.29	226.95
902.60	226.90
902.90	226.84
903.21	226.82
903.51	226.84
903.82	226.92
904.12	226.91
904.43	227.00
904.73	226.95
905.03	226.96
905.34	227.31
905.64	227.27
905.95	227.27
906.25	227.26
906.56	227.27
906.86	227.15
907.17	227.05
907.47	227.08
907.77	227.03
908.08	226.91
908.38	226.95
908.69	226.95
908.99	227.01
909.30	227.10
909.60	227.12
909.90	227.10
910.21	226.95
910.51	226.82
910.81	226.79
911.12	226.77
911.42	226.74
911.73	226.27
912.03	226.30
912.33	226.34
912.64	226.31
912.94	226.23
913.24	226.19
913.55	226.19
913.85	226.22
914.15	226.34
914.46	226.43
914.76	226.35
915.06	226.35
915.37	226.25
915.67	226.17
915.97	226.13
916.27	225.99
916.58	225.98
916.88	225.95
917.18	225.90
917.49	226.19
917.79	226.17
918.09	226.26
918.39	226.38
918.70	226.33
919.00	226.32
919.30	226.55
919.60	226.52
919.91	226.46
920.21	226.45
920.51	226.22
920.81	226.16
921.12	226.28
921.42	226.29
921.72	226.31
922.02	226.26
922.32	226.25
922.63	226.23
922.93	226.56
923.23	226.65
923.53	226.56
923.83	226.28
924.13	226.37
924.44	226.35
924.74	226.38
925.04	226.50
925.34	226.53
925.64	226.24
925.94	226.20
926.24	226.48
926.55	226.43
926.85	226.55
927.15	226.55
927.45	226.53
927.75	226.47
928.05	226.51
928.35	226.50
928.65	226.61
928.95	226.70
929.26	226.42
929.56	226.46
929.86	226.63
930.16	226.61
930.46	226.62
930.76	226.65
931.06	226.51
931.36	226.45
931.66	226.45
931.96	226.64
932.26	226.72
932.56	226.47
932.86	226.58
933.16	226.58
933.46	226.54
933.76	226.48
934.06	226.64
934.36	226.75
934.66	226.73
934.96	226.76
935.26	226.82
935.56	226.92
935.86	226.82
936.16	226.86
936.46	226.78
936.76	226.65
937.06	226.59
937.36	226.62
937.66	226.64
937.96	226.67
938.26	226.56
938.56	226.59
938.86	226.66
939.16	226.70
939.46	226.75
939.76	226.82
940.06	226.84
940.35	226.74
940.65	226.57
940.95	226.69
941.25	226.50
941.55	226.41
941.85	226.43
942.15	226.60
942.45	226.62
942.75	226.70
943.04	226.78
943.34	226.87
943.64	226.74
943.94	226.67
944.24	226.73
944.54	226.78
944.84	226.75
945.13	226.67
945.43	226.65
945.73	226.70
946.03	226.66
946.33	226.53
946.62	226.55
946.92	226.53
947.22	226.53
947.52	226.59
947.82	226.70
948.11	226.63
948.41	226.52
948.71	226.40
949.01	226.43
949.31	226.39
949.60	226.35
949.90	226.49
950.20	226.46
950.50	226.38
950.79	226.30
951.09	226.39
951.39	226.41
951.69	226.31
951.98	226.32
952.28	226.37
952.58	226.43
952.87	226.35
953.17	226.43
953.47	226.42
953.76	226.42
954.06	226.30
954.36	226.23
954.66	226.22
954.95	226.35
955.25	226.37
955.55	226.40
955.84	226.35
956.14	226.38
956.44	226.41
956.73	226.35
957.03	226.41
957.32	226.37
957.62	226.30
957.92	226.40
958.21	226.31
958.51	226.75
958.81	226.80
959.10	226.89
959.40	227.02
959.69	227.00
959.99	227.08
960.29	227.05
960.58	227.03
960.88	227.22
961.17	227.11
961.47	227.14
961.76	227.11
962.06	227.17
962.36	227.11
962.65	227.17
962.95	227.17
963.24	227.10
963.54	227.08
963.83	227.11
964.13	227.08
964.42	227.00
964.72	226.67
965.01	226.66
965.31	226.61
965.60	226.43
965.90	226.72
966.19	226.62
966.49	226.69
966.78	226.70
967.08	226.61
967.37	226.65
967.67	226.56
967.96	226.63
968.26	226.59
968.55	226.67
968.85	226.65
969.14	226.66
969.43	226.67
969.73	226.65
970.02	226.70
970.32	226.64
970.61	226.63
970.91	226.52
971.20	226.49
971.49	226.44
971.79	226.53
972.08	226.18
972.38	226.20
972.67	226.20
972.96	226.24
973.26	226.16
973.55	226.33
973.85	226.32
974.14	226.25
974.43	226.33
974.73	226.25
975.02	226.17
975.31	226.23
975.61	226.23
975.90	226.24
976.19	226.23
976.49	226.29
976.78	226.33
977.07	226.29
977.37	226.28
977.66	226.38
977.95	226.31
978.24	226.38
978.54	226.49
978.83	226.46
979.12	226.45
979.42	226.41
979.71	226.28
980.00	226.29
980.29	226.33
980.59	226.28
980.88	226.36
981.17	226.39
981.46	226.40
981.76	226.40
982.05	226.52
982.34	226.55
982.63	226.53
982.93	226.55
983.22	226.74
983.51	226.80
983.80	226.84
984.09	226.94
984.39	226.94
984.68	226.86
984.97	226.90
985.26	226.88
985.55	226.95
985.85	226.90
986.14	226.92
986.43	226.98
986.72	226.99
987.01	226.85
987.30	226.82
987.59	226.77
987.89	226.75
988.18	226.57
988.47	226.45
988.76	226.45
989.05	226.43
989.34	226.31
989.63	226.41
989.92	226.29
990.22	226.15
990.51	226.10
990.80	226.11
991.09	226.14
991.38	226.16
991.67	226.16
991.96	226.07
992.25	226.09
992.54	225.97
992.83	225.84
993.12	225.84
993.41	225.97
993.70	226.17
993.99	226.28
994.28	226.36
994.58	226.47
994.87	226.42
995.16	226.40
995.45	226.37
995.74	226.15
996.03	226.24
996.32	226.33
996.61	226.38
996.90	226.32
997.19	226.27
997.48	226.32
997.77	226.24
998.06	226.30
998.34	226.25
998.63	226.21
998.92	226.31
999.21	226.37
999.50	226.37
999.79	226.20
1000.08	226.16
1000.37	226.19
1000.66	226.14
1000.95	226.27
1001.24	226.35
1001.53	226.35
1001.82	226.42
1002.11	226.32
1002.40	226.35
1002.68	226.55
1002.97	226.92
1003.26	226.85
1003.55	226.77
1003.84	226.86
1004.13	227.05
1004.42	227.07
1004.71	227.09
1004.99	227.07
1005.28	227.20
1005.57	227.15
1005.86	227.05
1006.15	227.00
1006.44	226.91
1006.72	226.92
1007.01	226.85
1007.30	226.79
1007.59	226.74
1007.88	226.72
1008.17	226.73
1008.45	226.69
1008.74	226.45
1009.03	226.20
1009.32	226.25
1009.60	226.25
1009.89	226.24
1010.18	225.96
1010.47	226.00
1010.76	226.05
1011.04	226.04
1011.33	226.07
1011.62	226.03
1011.91	226.10
1012.19	226.19
1012.48	226.23
1012.77	226.25
1013.05	226.45
1013.34	226.52
1013.63	226.53
1013.92	226.55
1014.20	226.57
1014.49	226.54
1014.78	226.55
1015.06	226.42
1015.35	226.44
1015.64	226.49
1015.92	226.51
1016.21	226.64
1016.50	226.63
1016.78	226.70
1017.07	226.71
1017.36	226.57
1017.64	226.57
1017.93	226.60
1018.22	226.53
1018.50	226.56
1018.79	226.55
1019.08	226.32
1019.36	226.27
1019.65	226.25
1019.93	226.36
1020.22	226.40
1020.51	226.70
1020.79	226.67
1021.08	225.40
1021.36	226.90
1021.65	226.25
1021.94	225.70
1022.22	226.00
1022.51	225.20
1022.79	228.45
1023.08	226.45
1023.36	232.95
1023.65	225.00
>>>>>End Processed Spectral Data<<<<<
