SpectraSuite Data File
++++++++++++++++++++++++++++++++++++
Date: Wed Sep 04 17:57:09 EDT 2013
User: lab3
Dark Spectrum Present: Yes
Reference Spectrum Present: No
Number of Sampled Component Spectra: 1
Spectrometers: USB2E7196
Integration Time (usec): 170000 (USB2E7196)
Spectra Averaged: 20 (USB2E7196)
Boxcar Smoothing: 10 (USB2E7196)
Correct for Electrical Dark: No (USB2E7196)
Strobe/Lamp Enabled: No (USB2E7196)
Correct for Detector Non-linearity: No (USB2E7196)
Correct for Stray Light: No (USB2E7196)
Number of Pixels in Processed Spectrum: 2048
>>>>>Begin Processed Spectral Data<<<<<
339.09	0.00
339.48	213.30
339.86	215.90
340.24	215.95
340.63	217.15
341.01	225.90
341.39	220.05
341.78	222.70
342.16	223.75
342.54	222.65
342.93	212.39
343.31	223.13
343.69	223.65
344.07	224.07
344.46	224.55
344.84	225.01
345.22	224.93
345.60	225.21
345.99	225.34
346.37	225.44
346.75	225.55
347.13	225.69
347.52	225.81
347.90	226.05
348.28	226.06
348.66	226.20
349.05	226.06
349.43	226.17
349.81	226.22
350.19	226.23
350.57	226.32
350.96	226.36
351.34	226.44
351.72	226.57
352.10	226.67
352.48	226.75
352.87	226.73
353.25	226.84
353.63	226.89
354.01	227.00
354.39	227.08
354.77	227.18
355.15	227.24
355.54	227.17
355.92	227.08
356.30	227.21
356.68	227.62
357.06	227.68
357.44	227.63
357.82	227.66
358.20	228.15
358.58	228.15
358.97	228.22
359.35	228.37
359.73	228.52
360.11	228.63
360.49	228.70
360.87	228.78
361.25	228.87
361.63	229.06
362.01	229.13
362.39	229.10
362.77	229.22
363.15	229.33
363.53	229.49
363.91	229.54
364.29	229.54
364.67	229.14
365.05	229.21
365.43	229.28
365.81	229.35
366.19	229.17
366.57	229.40
366.95	229.43
367.33	229.23
367.71	229.21
368.09	229.22
368.47	229.21
368.85	229.20
369.23	229.29
369.61	229.18
369.99	229.30
370.37	229.40
370.75	229.60
371.13	229.49
371.51	229.37
371.89	229.39
372.27	229.40
372.65	229.42
373.03	229.39
373.41	229.36
373.78	229.35
374.16	229.00
374.54	228.81
374.92	228.66
375.30	228.70
375.68	228.60
376.06	228.59
376.44	228.48
376.82	228.39
377.19	228.26
377.57	228.12
377.95	227.92
378.33	227.77
378.71	227.41
379.09	227.43
379.47	227.43
379.84	227.22
380.22	227.03
380.60	226.90
380.98	226.78
381.36	226.71
381.73	226.53
382.11	226.63
382.49	226.53
382.87	226.48
383.25	226.38
383.62	226.74
384.00	226.65
384.38	226.55
384.76	226.68
385.13	226.88
385.51	226.86
385.89	226.75
386.27	226.77
386.64	226.78
387.02	226.70
387.40	226.57
387.78	226.66
388.15	226.69
388.53	226.59
388.91	226.50
389.29	226.41
389.66	226.49
390.04	226.40
390.42	226.47
390.79	226.42
391.17	226.39
391.55	225.96
391.92	225.89
392.30	225.98
392.68	225.81
393.05	225.75
393.43	225.82
393.81	225.84
394.18	225.79
394.56	225.82
394.94	225.98
395.31	226.03
395.69	226.21
396.06	226.32
396.44	226.40
396.82	226.52
397.19	226.90
397.57	226.96
397.95	227.10
398.32	227.05
398.70	227.24
399.07	227.52
399.45	227.51
399.82	227.64
400.20	227.69
400.58	227.84
400.95	227.84
401.33	228.02
401.70	228.44
402.08	228.60
402.45	228.72
402.83	228.89
403.20	229.07
403.58	229.13
403.95	229.37
404.33	229.62
404.71	229.83
405.08	230.20
405.46	230.38
405.83	230.65
406.21	230.87
406.58	231.14
406.96	231.35
407.33	231.73
407.70	232.09
408.08	232.79
408.45	233.22
408.83	233.63
409.20	233.95
409.58	234.15
409.95	234.70
410.33	235.26
410.70	235.62
411.08	236.32
411.45	236.97
411.82	237.47
412.20	238.29
412.57	239.21
412.95	239.55
413.32	240.45
413.69	241.29
414.07	242.31
414.44	243.29
414.82	244.32
415.19	245.49
415.56	246.66
415.94	247.73
416.31	249.15
416.68	250.55
417.06	252.17
417.43	253.79
417.81	255.53
418.18	257.29
418.55	259.33
418.93	261.33
419.30	263.42
419.67	265.75
420.04	267.98
420.42	270.25
420.79	273.42
421.16	276.21
421.54	279.28
421.91	282.23
422.28	285.36
422.66	288.60
423.03	292.08
423.40	295.40
423.77	298.84
424.15	302.44
424.52	306.29
424.89	310.49
425.26	314.50
425.64	318.31
426.01	322.44
426.38	326.74
426.75	331.30
427.13	335.89
427.50	340.62
427.87	345.52
428.24	350.49
428.61	354.97
428.99	360.22
429.36	365.62
429.73	371.15
430.10	376.64
430.47	382.31
430.85	387.95
431.22	394.26
431.59	401.14
431.96	407.32
432.33	414.29
432.70	420.96
433.08	428.86
433.45	436.26
433.82	443.76
434.19	452.20
434.56	460.26
434.93	467.91
435.30	475.77
435.68	484.50
436.05	492.96
436.42	501.38
436.79	509.17
437.16	517.62
437.53	526.46
437.90	535.24
438.27	543.77
438.64	552.70
439.01	561.05
439.38	568.20
439.75	575.44
440.13	583.56
440.50	590.99
440.87	597.07
441.24	603.57
441.61	610.51
441.98	615.47
442.35	621.35
442.72	627.51
443.09	633.24
443.46	636.51
443.83	638.89
444.20	640.85
444.57	643.54
444.94	644.65
445.31	645.72
445.68	647.06
446.05	647.36
446.42	646.13
446.79	644.57
447.16	643.00
447.53	641.69
447.90	637.92
448.27	634.38
448.64	629.51
449.01	625.75
449.37	619.72
449.74	613.59
450.11	606.62
450.48	598.65
450.85	590.66
451.22	583.85
451.59	577.20
451.96	570.87
452.33	562.66
452.70	555.31
453.07	546.61
453.43	537.44
453.80	528.98
454.17	520.87
454.54	513.17
454.91	505.05
455.28	497.11
455.65	489.62
456.02	482.82
456.38	476.40
456.75	468.53
457.12	461.90
457.49	455.60
457.86	449.26
458.23	444.24
458.59	438.52
458.96	432.61
459.33	427.45
459.70	422.28
460.07	418.25
460.43	413.42
460.80	409.11
461.17	405.35
461.54	401.39
461.91	397.63
462.27	393.84
462.64	390.48
463.01	386.92
463.38	383.57
463.74	379.44
464.11	376.45
464.48	373.81
464.85	370.98
465.21	368.89
465.58	366.62
465.95	363.74
466.32	361.49
466.68	359.34
467.05	357.07
467.42	354.92
467.78	352.60
468.15	350.50
468.52	348.88
468.88	346.67
469.25	344.82
469.62	343.39
469.98	341.74
470.35	340.17
470.72	338.58
471.08	336.85
471.45	335.68
471.82	334.35
472.18	332.93
472.55	331.93
472.92	330.47
473.28	329.18
473.65	328.12
474.02	327.07
474.38	326.26
474.75	325.52
475.11	324.49
475.48	323.77
475.85	323.10
476.21	322.46
476.58	321.95
476.94	321.45
477.31	320.84
477.67	320.47
478.04	320.18
478.41	320.03
478.77	320.34
479.14	320.00
479.50	319.95
479.87	320.03
480.23	320.00
480.60	319.96
480.96	320.08
481.33	320.42
481.69	320.69
482.06	320.90
482.42	321.25
482.79	321.75
483.15	322.27
483.52	322.92
483.88	323.45
484.25	324.04
484.61	324.69
484.98	325.35
485.34	326.23
485.71	327.18
486.07	328.17
486.44	328.74
486.80	329.78
487.17	330.86
487.53	332.21
487.90	333.52
488.26	335.19
488.62	336.82
488.99	338.39
489.35	340.04
489.72	341.86
490.08	343.75
490.44	345.66
490.81	347.84
491.17	350.06
491.54	352.60
491.90	355.23
492.26	357.91
492.63	360.76
492.99	363.50
493.36	366.56
493.72	369.88
494.08	373.40
494.45	377.19
494.81	381.11
495.17	384.91
495.54	389.16
495.90	393.53
496.26	398.05
496.63	402.62
496.99	407.42
497.35	412.47
497.72	417.87
498.08	423.45
498.44	429.08
498.80	435.07
499.17	441.10
499.53	447.32
499.89	454.07
500.26	460.87
500.62	467.87
500.98	475.35
501.34	482.85
501.71	490.58
502.07	498.36
502.43	506.41
502.79	514.83
503.16	523.61
503.52	532.59
503.88	541.70
504.24	551.48
504.60	561.63
504.97	571.88
505.33	582.24
505.69	593.27
506.05	604.40
506.41	615.66
506.78	627.37
507.14	639.39
507.50	651.59
507.86	664.09
508.22	677.21
508.59	690.40
508.95	703.99
509.31	717.99
509.67	732.34
510.03	746.59
510.39	761.43
510.75	776.35
511.12	791.63
511.48	807.48
511.84	823.32
512.20	839.07
512.56	855.45
512.92	872.27
513.28	889.02
513.64	906.32
514.00	923.83
514.37	941.54
514.73	959.85
515.09	978.32
515.45	997.02
515.81	1015.48
516.17	1034.07
516.53	1053.00
516.89	1071.77
517.25	1091.16
517.61	1111.53
517.97	1131.64
518.33	1151.74
518.69	1172.02
519.05	1192.74
519.41	1213.30
519.77	1234.52
520.13	1255.30
520.49	1275.82
520.85	1298.27
521.21	1319.40
521.57	1340.68
521.93	1361.73
522.29	1383.08
522.65	1403.66
523.01	1424.67
523.37	1445.32
523.73	1466.45
524.09	1487.00
524.45	1508.07
524.81	1529.21
525.17	1549.93
525.53	1570.54
525.89	1591.51
526.25	1612.40
526.61	1632.49
526.97	1653.62
527.33	1675.13
527.68	1697.19
528.04	1718.66
528.40	1738.11
528.76	1759.25
529.12	1779.74
529.48	1800.54
529.84	1820.26
530.20	1841.53
530.56	1862.15
530.91	1883.20
531.27	1903.82
531.63	1924.44
531.99	1945.00
532.35	1964.77
532.71	1985.03
533.07	2006.11
533.42	2026.17
533.78	2046.27
534.14	2066.38
534.50	2085.47
534.86	2104.56
535.21	2122.15
535.57	2140.49
535.93	2158.47
536.29	2176.30
536.65	2194.60
537.00	2212.09
537.36	2230.16
537.72	2246.69
538.08	2264.12
538.44	2280.87
538.79	2297.41
539.15	2313.86
539.51	2329.41
539.87	2344.83
540.22	2358.73
540.58	2373.12
540.94	2386.67
541.29	2399.37
541.65	2411.82
542.01	2424.83
542.37	2435.49
542.72	2446.59
543.08	2457.32
543.44	2469.33
543.79	2479.31
544.15	2489.30
544.51	2499.52
544.87	2508.93
545.22	2517.70
545.58	2525.43
545.94	2532.60
546.29	2539.04
546.65	2545.48
547.01	2551.49
547.36	2557.17
547.72	2562.95
548.07	2566.44
548.43	2571.61
548.79	2576.50
549.14	2580.61
549.50	2584.09
549.86	2587.70
550.21	2591.07
550.57	2594.63
550.92	2595.84
551.28	2597.51
551.64	2599.84
551.99	2601.65
552.35	2603.31
552.70	2605.31
553.06	2606.78
553.41	2608.21
553.77	2609.79
554.13	2611.23
554.48	2612.67
554.84	2614.14
555.19	2615.35
555.55	2617.47
555.90	2616.40
556.26	2615.37
556.61	2613.83
556.97	2611.49
557.32	2611.38
557.68	2610.69
558.03	2609.00
558.39	2607.70
558.74	2606.65
559.10	2603.19
559.45	2599.71
559.81	2595.10
560.16	2590.20
560.52	2585.32
560.87	2581.04
561.23	2575.61
561.58	2570.04
561.94	2563.41
562.29	2555.93
562.64	2549.10
563.00	2540.76
563.35	2534.45
563.71	2528.00
564.06	2521.89
564.42	2515.74
564.77	2508.70
565.12	2500.84
565.48	2493.46
565.83	2485.33
566.19	2477.23
566.54	2469.60
566.89	2461.48
567.25	2454.06
567.60	2446.92
567.96	2439.72
568.31	2431.45
568.66	2422.84
569.02	2413.71
569.37	2405.73
569.72	2398.13
570.08	2388.56
570.43	2378.95
570.78	2369.89
571.14	2360.20
571.49	2350.06
571.84	2340.49
572.20	2329.64
572.55	2319.48
572.90	2308.12
573.26	2298.29
573.61	2287.51
573.96	2276.45
574.31	2264.32
574.67	2252.15
575.02	2239.13
575.37	2226.10
575.72	2212.97
576.08	2200.92
576.43	2188.49
576.78	2175.06
577.13	2161.40
577.49	2148.75
577.84	2137.23
578.19	2125.15
578.54	2112.46
578.90	2100.46
579.25	2088.05
579.60	2075.41
579.95	2062.67
580.30	2049.96
580.66	2036.14
581.01	2022.02
581.36	2007.74
581.71	1995.33
582.06	1982.41
582.42	1969.78
582.77	1957.10
583.12	1945.03
583.47	1932.79
583.82	1920.46
584.17	1908.35
584.53	1896.54
584.88	1883.63
585.23	1870.04
585.58	1855.73
585.93	1842.55
586.28	1829.20
586.63	1815.02
586.98	1800.80
587.34	1787.39
587.69	1774.25
588.04	1761.76
588.39	1749.95
588.74	1738.02
589.09	1725.69
589.44	1712.96
589.79	1701.02
590.14	1689.10
590.49	1677.00
590.84	1664.76
591.19	1652.87
591.54	1640.64
591.89	1628.32
592.25	1618.24
592.60	1606.88
592.95	1595.52
593.30	1583.60
593.65	1571.51
594.00	1559.59
594.35	1549.82
594.70	1538.04
595.05	1526.21
595.40	1513.83
595.75	1501.82
596.10	1490.36
596.45	1478.80
596.80	1468.20
597.15	1456.62
597.50	1444.83
597.85	1433.35
598.19	1421.65
598.54	1409.85
598.89	1398.56
599.24	1387.93
599.59	1375.95
599.94	1365.08
600.29	1354.46
600.64	1344.14
600.99	1333.63
601.34	1323.80
601.69	1312.39
602.04	1302.37
602.39	1293.03
602.74	1284.04
603.08	1274.77
603.43	1265.78
603.78	1256.15
604.13	1246.26
604.48	1236.81
604.83	1226.97
605.18	1217.32
605.53	1207.90
605.87	1198.85
606.22	1190.14
606.57	1180.70
606.92	1171.28
607.27	1162.35
607.62	1153.73
607.96	1144.96
608.31	1136.87
608.66	1128.60
609.01	1119.91
609.36	1111.58
609.70	1102.71
610.05	1093.96
610.40	1085.22
610.75	1076.17
611.10	1067.75
611.44	1059.18
611.79	1050.84
612.14	1043.09
612.49	1034.98
612.83	1027.26
613.18	1019.33
613.53	1011.50
613.88	1003.56
614.22	996.05
614.57	988.03
614.92	979.97
615.27	972.44
615.61	964.62
615.96	956.92
616.31	949.69
616.65	942.48
617.00	935.17
617.35	927.89
617.70	920.55
618.04	913.45
618.39	906.60
618.74	900.23
619.08	893.32
619.43	886.25
619.78	879.40
620.12	872.43
620.47	865.52
620.82	858.41
621.16	851.66
621.51	845.08
621.85	838.71
622.20	832.14
622.55	825.63
622.89	819.03
623.24	812.51
623.59	806.21
623.93	799.67
624.28	793.71
624.62	788.05
624.97	782.58
625.32	776.81
625.66	770.68
626.01	764.41
626.35	758.89
626.70	753.38
627.04	747.83
627.39	742.20
627.73	736.94
628.08	731.85
628.43	726.42
628.77	720.88
629.12	715.75
629.46	710.94
629.81	706.17
630.15	701.42
630.50	696.71
630.84	691.55
631.19	686.84
631.53	682.07
631.88	676.78
632.22	671.68
632.57	667.16
632.91	662.51
633.26	658.15
633.60	653.32
633.95	648.50
634.29	643.76
634.64	639.34
634.98	634.39
635.32	629.85
635.67	625.68
636.01	621.63
636.36	617.01
636.70	612.90
637.05	608.51
637.39	604.46
637.73	600.20
638.08	596.31
638.42	592.09
638.77	587.85
639.11	583.48
639.45	579.31
639.80	574.95
640.14	570.92
640.49	566.87
640.83	563.13
641.17	559.55
641.52	555.96
641.86	552.33
642.20	549.21
642.55	545.64
642.89	541.90
643.23	538.25
643.58	535.16
643.92	531.41
644.26	528.04
644.61	524.69
644.95	521.41
645.29	518.04
645.64	514.84
645.98	511.78
646.32	508.87
646.66	505.74
647.01	502.78
647.35	500.03
647.69	497.04
648.04	494.11
648.38	491.33
648.72	488.47
649.06	485.30
649.41	482.21
649.75	479.13
650.09	476.45
650.43	473.64
650.78	470.67
651.12	467.91
651.46	465.07
651.80	462.32
652.14	459.63
652.49	457.06
652.83	454.38
653.17	451.69
653.51	449.07
653.85	446.65
654.20	443.99
654.54	441.29
654.88	438.77
655.22	436.46
655.56	433.95
655.90	431.52
656.25	429.39
656.59	427.10
656.93	425.09
657.27	422.96
657.61	420.55
657.95	418.32
658.29	416.15
658.64	413.96
658.98	411.70
659.32	409.43
659.66	407.16
660.00	405.26
660.34	403.12
660.68	401.10
661.02	399.02
661.36	397.07
661.70	395.12
662.05	393.21
662.39	391.28
662.73	389.50
663.07	388.00
663.41	386.24
663.75	384.28
664.09	382.36
664.43	380.41
664.77	378.77
665.11	377.09
665.45	375.48
665.79	373.94
666.13	372.20
666.47	370.46
666.81	368.89
667.15	367.11
667.49	365.67
667.83	364.26
668.17	362.78
668.51	361.32
668.85	359.93
669.19	358.74
669.53	357.13
669.87	355.58
670.21	353.96
670.55	352.45
670.89	351.34
671.23	350.01
671.57	348.61
671.91	347.28
672.25	345.99
672.58	344.82
672.92	343.34
673.26	342.12
673.60	341.03
673.94	339.91
674.28	338.79
674.62	337.58
674.96	336.29
675.30	335.18
675.64	333.97
675.97	332.77
676.31	331.39
676.65	330.26
676.99	329.30
677.33	328.05
677.67	327.08
678.01	325.79
678.34	324.75
678.68	323.83
679.02	322.69
679.36	321.60
679.70	320.45
680.04	319.61
680.37	318.59
680.71	317.55
681.05	316.60
681.39	315.64
681.73	314.75
682.06	313.85
682.40	312.91
682.74	312.18
683.08	311.45
683.42	310.54
683.75	309.74
684.09	308.75
684.43	307.94
684.77	306.93
685.10	306.15
685.44	305.21
685.78	304.24
686.12	303.48
686.45	302.67
686.79	301.82
687.13	301.17
687.46	300.40
687.80	299.75
688.14	298.88
688.48	298.08
688.81	297.25
689.15	296.60
689.49	295.85
689.82	295.00
690.16	294.13
690.50	293.38
690.83	292.59
691.17	291.65
691.51	290.91
691.84	290.31
692.18	289.67
692.52	289.05
692.85	288.54
693.19	288.12
693.52	287.49
693.86	286.74
694.20	285.99
694.53	285.47
694.87	284.77
695.21	284.12
695.54	283.62
695.88	282.99
696.21	282.21
696.55	281.60
696.88	281.08
697.22	280.47
697.56	280.01
697.89	279.47
698.23	279.11
698.56	278.57
698.90	278.08
699.23	277.47
699.57	276.92
699.90	276.29
700.24	275.56
700.58	275.06
700.91	274.73
701.25	274.64
701.58	274.49
701.92	274.17
702.25	273.77
702.59	273.36
702.92	273.03
703.26	272.63
703.59	272.24
703.93	272.17
704.26	271.87
704.60	271.44
704.93	270.92
705.26	270.49
705.60	270.17
705.93	269.66
706.27	269.44
706.60	269.21
706.94	269.05
707.27	268.73
707.61	268.46
707.94	268.05
708.27	267.34
708.61	266.53
708.94	266.13
709.28	265.80
709.61	265.31
709.94	264.95
710.28	264.60
710.61	264.21
710.95	263.50
711.28	263.34
711.61	262.95
711.95	262.85
712.28	262.46
712.61	262.13
712.95	262.14
713.28	261.94
713.61	261.58
713.95	261.10
714.28	260.74
714.61	260.26
714.95	259.94
715.28	259.52
715.61	259.26
715.95	258.91
716.28	258.50
716.61	258.23
716.95	257.82
717.28	257.57
717.61	257.20
717.94	256.85
718.28	256.23
718.61	255.97
718.94	255.57
719.27	255.32
719.61	255.02
719.94	254.59
720.27	254.03
720.60	253.67
720.94	253.45
721.27	253.25
721.60	253.09
721.93	252.79
722.27	252.72
722.60	252.50
722.93	252.23
723.26	252.02
723.59	251.80
723.93	251.63
724.26	251.29
724.59	251.18
724.92	250.93
725.25	250.86
725.59	250.62
725.92	250.40
726.25	250.19
726.58	250.00
726.91	249.70
727.24	249.61
727.57	249.44
727.91	249.13
728.24	248.95
728.57	248.70
728.90	248.59
729.23	248.31
729.56	248.28
729.89	248.19
730.22	248.01
730.55	247.77
730.89	247.57
731.22	247.47
731.55	247.18
731.88	247.08
732.21	246.79
732.54	246.61
732.87	246.47
733.20	246.27
733.53	246.09
733.86	246.00
734.19	245.73
734.52	245.64
734.85	245.86
735.18	245.64
735.51	245.71
735.84	245.51
736.17	245.41
736.50	245.05
736.83	245.37
737.16	245.18
737.49	245.05
737.82	244.85
738.15	244.73
738.48	244.67
738.81	244.54
739.14	244.35
739.47	244.17
739.80	243.98
740.13	243.88
740.46	243.66
740.79	243.52
741.12	243.36
741.45	243.11
741.78	242.61
742.11	242.60
742.44	242.27
742.77	242.21
743.10	241.98
743.43	241.84
743.75	241.20
744.08	241.74
744.41	241.54
744.74	241.36
745.07	241.15
745.40	241.04
745.73	241.05
746.06	240.99
746.39	240.97
746.71	240.89
747.04	240.78
747.37	240.70
747.70	240.64
748.03	240.65
748.36	240.62
748.68	240.60
749.01	240.32
749.34	240.26
749.67	240.17
750.00	240.12
750.33	240.38
750.65	240.32
750.98	239.55
751.31	239.57
751.64	239.55
751.97	239.69
752.29	239.62
752.62	239.29
752.95	239.13
753.28	238.90
753.60	238.80
753.93	238.82
754.26	238.73
754.59	238.43
754.91	238.22
755.24	238.08
755.57	238.00
755.90	237.98
756.22	237.84
756.55	237.64
756.88	237.45
757.20	237.04
757.53	236.83
757.86	236.75
758.19	236.62
758.51	236.53
758.84	236.23
759.17	236.09
759.49	236.11
759.82	236.27
760.15	236.24
760.47	236.12
760.80	235.91
761.13	235.89
761.45	235.84
761.78	235.80
762.11	235.76
762.43	235.64
762.76	235.53
763.08	235.53
763.41	235.52
763.74	235.51
764.06	235.45
764.39	235.40
764.71	235.39
765.04	235.30
765.37	235.21
765.69	235.11
766.02	234.99
766.34	234.82
766.67	234.51
767.00	234.52
767.32	234.76
767.65	235.03
767.97	234.89
768.30	234.80
768.62	234.73
768.95	234.58
769.27	234.49
769.60	234.45
769.92	234.32
770.25	234.11
770.57	233.91
770.90	233.80
771.22	233.72
771.55	233.61
771.87	233.57
772.20	233.42
772.52	233.74
772.85	234.17
773.17	234.15
773.50	234.06
773.82	233.95
774.15	233.62
774.47	233.19
774.80	233.15
775.12	233.12
775.45	233.10
775.77	233.15
776.09	233.07
776.42	233.03
776.74	233.08
777.07	233.04
777.39	233.11
777.72	233.10
778.04	233.06
778.36	232.98
778.69	232.88
779.01	232.91
779.33	232.53
779.66	231.95
779.98	231.87
780.31	231.84
780.63	231.95
780.95	232.03
781.28	231.97
781.60	231.91
781.92	231.83
782.25	231.70
782.57	231.63
782.89	231.53
783.22	231.42
783.54	231.32
783.86	231.35
784.19	231.17
784.51	231.24
784.83	231.12
785.16	231.05
785.48	231.02
785.80	230.94
786.12	230.84
786.45	230.82
786.77	230.84
787.09	230.81
787.42	230.62
787.74	230.54
788.06	230.53
788.38	230.41
788.71	230.32
789.03	230.34
789.35	230.28
789.67	230.20
789.99	230.24
790.32	230.09
790.64	230.05
790.96	230.48
791.28	230.28
791.61	230.27
791.93	230.31
792.25	230.33
792.57	230.70
792.89	230.61
793.21	230.67
793.54	230.59
793.86	230.49
794.18	230.47
794.50	230.37
794.82	230.41
795.14	230.49
795.47	230.56
795.79	230.45
796.11	230.35
796.43	230.35
796.75	230.29
797.07	230.36
797.39	230.35
797.71	229.98
798.04	230.07
798.36	230.05
798.68	230.02
799.00	229.94
799.32	229.66
799.64	229.77
799.96	229.70
800.28	229.77
800.60	229.79
800.92	229.83
801.24	229.74
801.56	229.69
801.89	229.62
802.21	229.70
802.53	229.71
802.85	229.86
803.17	230.07
803.49	229.95
803.81	229.89
804.13	229.82
804.45	229.80
804.77	229.75
805.09	229.74
805.41	229.69
805.73	229.63
806.05	229.58
806.37	229.58
806.69	229.56
807.01	229.48
807.33	229.55
807.65	229.35
807.97	229.60
808.28	229.60
808.60	229.61
808.92	229.52
809.24	229.86
809.56	229.78
809.88	229.65
810.20	229.66
810.52	229.82
810.84	229.78
811.16	229.73
811.48	229.69
811.80	229.82
812.12	229.79
812.43	229.90
812.75	229.90
813.07	229.78
813.39	229.86
813.71	229.83
814.03	229.68
814.35	229.74
814.67	229.50
814.98	229.45
815.30	229.37
815.62	229.21
815.94	228.76
816.26	228.88
816.58	228.80
816.89	228.85
817.21	228.65
817.53	228.69
817.85	228.61
818.17	228.57
818.48	228.35
818.80	228.44
819.12	228.29
819.44	228.18
819.76	228.06
820.07	228.02
820.39	227.96
820.71	227.93
821.03	227.88
821.34	227.76
821.66	227.73
821.98	227.74
822.30	227.76
822.61	228.10
822.93	227.84
823.25	227.75
823.57	227.72
823.88	227.77
824.20	227.70
824.52	227.74
824.83	227.68
825.15	227.62
825.47	227.58
825.79	227.64
826.10	227.56
826.42	227.63
826.74	227.61
827.05	227.67
827.37	227.72
827.69	227.74
828.00	227.82
828.32	227.86
828.64	227.85
828.95	228.15
829.27	227.99
829.58	228.00
829.90	228.08
830.22	228.06
830.53	227.98
830.85	227.90
831.17	227.84
831.48	227.85
831.80	227.85
832.11	227.81
832.43	227.79
832.75	227.80
833.06	228.01
833.38	227.92
833.69	227.81
834.01	227.90
834.32	227.84
834.64	227.79
834.96	227.71
835.27	227.72
835.59	227.54
835.90	227.43
836.22	227.43
836.53	227.36
836.85	227.37
837.16	227.79
837.48	227.82
837.79	227.93
838.11	227.99
838.42	228.05
838.74	228.07
839.05	227.95
839.37	228.00
839.68	227.74
840.00	227.72
840.31	227.80
840.63	227.68
840.94	227.64
841.26	227.63
841.57	227.72
841.88	227.73
842.20	227.61
842.51	227.58
842.83	227.55
843.14	227.92
843.46	227.88
843.77	227.60
844.08	227.61
844.40	227.52
844.71	227.44
845.03	227.38
845.34	227.37
845.65	227.34
845.97	227.22
846.28	227.22
846.60	227.22
846.91	227.15
847.22	227.16
847.54	227.26
847.85	227.25
848.16	227.18
848.48	227.09
848.79	227.33
849.10	227.42
849.42	227.43
849.73	227.01
850.04	227.02
850.36	226.85
850.67	226.97
850.98	226.92
851.30	227.00
851.61	226.95
851.92	226.97
852.23	227.19
852.55	227.27
852.86	227.34
853.17	227.35
853.49	227.45
853.80	227.53
854.11	227.63
854.42	227.74
854.74	227.70
855.05	227.71
855.36	227.46
855.67	227.39
855.99	227.39
856.30	227.94
856.61	227.88
856.92	227.90
857.23	227.87
857.55	227.84
857.86	227.76
858.17	227.87
858.48	227.76
858.79	227.66
859.11	227.67
859.42	227.53
859.73	227.44
860.04	227.38
860.35	227.24
860.66	227.06
860.98	226.93
861.29	227.03
861.60	226.99
861.91	227.12
862.22	227.11
862.53	227.07
862.84	226.53
863.16	226.73
863.47	226.74
863.78	226.70
864.09	226.83
864.40	226.86
864.71	226.83
865.02	226.92
865.33	226.84
865.64	226.80
865.95	226.95
866.27	227.28
866.58	227.31
866.89	227.42
867.20	227.41
867.51	227.46
867.82	227.39
868.13	227.56
868.44	227.41
868.75	227.47
869.06	227.45
869.37	227.51
869.68	227.30
869.99	227.36
870.30	227.35
870.61	227.32
870.92	227.31
871.23	227.28
871.54	227.30
871.85	227.40
872.16	227.46
872.47	227.37
872.78	227.10
873.09	227.12
873.40	227.03
873.71	227.12
874.02	227.16
874.33	227.08
874.64	226.96
874.95	227.01
875.26	226.92
875.56	226.95
875.87	226.86
876.18	226.83
876.49	227.26
876.80	227.24
877.11	227.13
877.42	227.09
877.73	227.04
878.04	226.99
878.35	226.95
878.66	226.96
878.96	227.00
879.27	226.97
879.58	226.88
879.89	226.84
880.20	226.92
880.51	226.81
880.82	226.85
881.12	226.87
881.43	226.85
881.74	226.73
882.05	226.67
882.36	226.78
882.67	226.83
882.97	226.32
883.28	226.30
883.59	226.33
883.90	226.43
884.21	226.55
884.51	226.57
884.82	226.61
885.13	226.60
885.44	226.50
885.74	226.53
886.05	226.54
886.36	226.56
886.67	226.36
886.98	226.72
887.28	226.75
887.59	226.74
887.90	226.78
888.20	226.86
888.51	226.92
888.82	226.83
889.13	226.78
889.43	227.23
889.74	227.19
890.05	227.15
890.35	227.05
890.66	226.93
890.97	226.86
891.28	226.77
891.58	226.73
891.89	226.71
892.20	226.65
892.50	226.61
892.81	226.59
893.12	226.62
893.42	226.27
893.73	226.31
894.04	226.35
894.34	226.30
894.65	226.28
894.95	226.30
895.26	226.32
895.57	226.62
895.87	226.09
896.18	226.23
896.48	226.20
896.79	226.17
897.10	226.26
897.40	226.23
897.71	226.29
898.01	226.21
898.32	226.32
898.63	226.28
898.93	226.34
899.24	226.38
899.54	226.32
899.85	226.39
900.15	226.29
900.46	226.21
900.76	226.23
901.07	226.24
901.38	226.26
901.68	226.28
901.99	226.00
902.29	226.09
902.60	226.00
902.90	226.05
903.21	226.12
903.51	226.03
903.82	226.21
904.12	226.18
904.43	226.31
904.73	226.23
905.03	226.27
905.34	226.68
905.64	226.60
905.95	226.64
906.25	226.52
906.56	226.58
906.86	226.60
907.17	226.60
907.47	226.64
907.77	226.60
908.08	226.54
908.38	226.63
908.69	226.58
908.99	226.69
909.30	226.70
909.60	226.70
909.90	226.81
910.21	226.62
910.51	226.62
910.81	226.58
911.12	226.61
911.42	226.64
911.73	226.13
912.03	226.19
912.33	226.29
912.64	226.34
912.94	226.25
913.24	226.21
913.55	226.20
913.85	226.12
914.15	226.14
914.46	226.21
914.76	226.16
915.06	226.11
915.37	225.98
915.67	225.97
915.97	225.93
916.27	225.81
916.58	225.82
916.88	225.73
917.18	225.67
917.49	225.97
917.79	225.99
918.09	226.10
918.39	226.21
918.70	226.10
919.00	226.08
919.30	226.29
919.60	226.23
919.91	226.17
920.21	226.23
920.51	226.12
920.81	226.10
921.12	226.15
921.42	226.19
921.72	226.26
922.02	226.31
922.32	226.37
922.63	226.37
922.93	226.56
923.23	226.64
923.53	226.64
923.83	226.43
924.13	226.39
924.44	226.33
924.74	226.44
925.04	226.56
925.34	226.59
925.64	226.38
925.94	226.43
926.24	226.74
926.55	226.73
926.85	226.89
927.15	226.92
927.45	226.85
927.75	226.84
928.05	226.85
928.35	226.80
928.65	226.83
928.95	226.81
929.26	226.72
929.56	226.80
929.86	226.82
930.16	226.68
930.46	226.73
930.76	226.82
931.06	226.60
931.36	226.51
931.66	226.55
931.96	226.67
932.26	226.72
932.56	226.47
932.86	226.48
933.16	226.45
933.46	226.35
933.76	226.35
934.06	226.47
934.36	226.64
934.66	226.63
934.96	226.66
935.26	226.70
935.56	226.78
935.86	226.69
936.16	226.62
936.46	226.64
936.76	226.60
937.06	226.48
937.36	226.45
937.66	226.47
937.96	226.45
938.26	226.35
938.56	226.34
938.86	226.44
939.16	226.52
939.46	226.57
939.76	226.58
940.06	226.58
940.35	226.53
940.65	226.33
940.95	226.34
941.25	226.16
941.55	226.10
941.85	226.03
942.15	226.12
942.45	226.38
942.75	226.42
943.04	226.51
943.34	226.65
943.64	226.67
943.94	226.64
944.24	226.71
944.54	226.76
944.84	226.77
945.13	226.66
945.43	226.57
945.73	226.60
946.03	226.60
946.33	226.54
946.62	226.43
946.92	226.37
947.22	226.47
947.52	226.61
947.82	226.77
948.11	226.72
948.41	226.60
948.71	226.35
949.01	226.35
949.31	226.25
949.60	226.12
949.90	226.25
950.20	226.20
950.50	226.13
950.79	226.14
951.09	226.15
951.39	226.21
951.69	226.17
951.98	226.20
952.28	226.24
952.58	226.25
952.87	226.34
953.17	226.45
953.47	226.37
953.76	226.30
954.06	226.13
954.36	226.14
954.66	226.16
954.95	226.31
955.25	226.33
955.55	226.46
955.84	226.46
956.14	226.39
956.44	226.45
956.73	226.34
957.03	226.34
957.32	226.32
957.62	226.34
957.92	226.41
958.21	226.28
958.51	226.82
958.81	226.89
959.10	226.88
959.40	226.93
959.69	226.91
959.99	226.92
960.29	226.95
960.58	226.90
960.88	227.02
961.17	226.98
961.47	227.06
961.76	226.85
962.06	226.95
962.36	226.89
962.65	226.91
962.95	226.95
963.24	226.92
963.54	226.87
963.83	226.80
964.13	226.75
964.42	226.68
964.72	226.24
965.01	226.18
965.31	226.13
965.60	226.00
965.90	226.27
966.19	226.20
966.49	226.21
966.78	226.16
967.08	226.12
967.37	226.04
967.67	225.84
967.96	226.00
968.26	225.94
968.55	226.00
968.85	225.94
969.14	225.98
969.43	225.94
969.73	225.96
970.02	225.96
970.32	225.95
970.61	225.94
970.91	225.77
971.20	225.74
971.49	225.72
971.79	225.74
972.08	225.46
972.38	225.49
972.67	225.43
972.96	225.55
973.26	225.47
973.55	225.65
973.85	225.68
974.14	225.67
974.43	225.68
974.73	225.62
975.02	225.65
975.31	225.70
975.61	225.75
975.90	225.73
976.19	225.70
976.49	225.72
976.78	225.75
977.07	225.85
977.37	225.87
977.66	225.98
977.95	225.96
978.24	225.99
978.54	226.09
978.83	226.11
979.12	226.07
979.42	226.10
979.71	226.07
980.00	226.13
980.29	226.20
980.59	226.14
980.88	226.25
981.17	226.24
981.46	226.22
981.76	226.23
982.05	226.43
982.34	226.47
982.63	226.61
982.93	226.62
983.22	226.76
983.51	226.81
983.80	226.86
984.09	226.88
984.39	226.92
984.68	226.90
984.97	227.03
985.26	227.05
985.55	227.12
985.85	227.05
986.14	227.13
986.43	227.09
986.72	227.13
987.01	227.03
987.30	226.99
987.59	226.98
987.89	226.99
988.18	226.75
988.47	226.71
988.76	226.60
989.05	226.59
989.34	226.49
989.63	226.60
989.92	226.48
990.22	226.46
990.51	226.43
990.80	226.39
991.09	226.33
991.38	226.28
991.67	226.19
991.96	226.05
992.25	226.06
992.54	225.98
992.83	226.02
993.12	225.99
993.41	226.09
993.70	226.24
993.99	226.24
994.28	226.35
994.58	226.40
994.87	226.33
995.16	226.31
995.45	226.19
995.74	226.01
996.03	226.07
996.32	226.06
996.61	226.13
996.90	226.12
997.19	226.10
997.48	226.12
997.77	226.03
998.06	226.08
998.34	226.07
998.63	226.02
998.92	225.99
999.21	225.99
999.50	225.95
999.79	225.78
1000.08	225.77
1000.37	225.81
1000.66	225.71
1000.95	225.81
1001.24	225.85
1001.53	225.95
1001.82	225.94
1002.11	225.86
1002.40	225.86
1002.68	225.95
1002.97	226.27
1003.26	226.19
1003.55	226.09
1003.84	226.15
1004.13	226.40
1004.42	226.25
1004.71	226.26
1004.99	226.18
1005.28	226.34
1005.57	226.34
1005.86	226.30
1006.15	226.27
1006.44	226.13
1006.72	226.25
1007.01	226.18
1007.30	226.20
1007.59	226.13
1007.88	226.10
1008.17	226.16
1008.45	226.20
1008.74	226.02
1009.03	225.76
1009.32	225.84
1009.60	225.80
1009.89	225.80
1010.18	225.48
1010.47	225.61
1010.76	225.65
1011.04	225.70
1011.33	225.71
1011.62	225.74
1011.91	225.75
1012.19	225.84
1012.48	225.85
1012.77	225.79
1013.05	226.01
1013.34	225.98
1013.63	226.05
1013.92	226.21
1014.20	226.10
1014.49	226.10
1014.78	226.18
1015.06	226.11
1015.35	226.08
1015.64	226.29
1015.92	226.38
1016.21	226.44
1016.50	226.38
1016.78	226.46
1017.07	226.48
1017.36	226.46
1017.64	226.40
1017.93	226.48
1018.22	226.44
1018.50	226.44
1018.79	226.49
1019.08	226.28
1019.36	226.30
1019.65	226.21
1019.93	226.29
1020.22	226.47
1020.51	226.68
1020.79	226.67
1021.08	226.00
1021.36	225.05
1021.65	226.60
1021.94	226.00
1022.22	226.00
1022.51	225.15
1022.79	229.20
1023.08	228.10
1023.36	231.50
1023.65	226.60
>>>>>End Processed Spectral Data<<<<<
