SpectraSuite Data File
++++++++++++++++++++++++++++++++++++
Date: Wed Sep 04 17:48:59 EDT 2013
User: lab3
Dark Spectrum Present: Yes
Reference Spectrum Present: No
Number of Sampled Component Spectra: 1
Spectrometers: USB2E7196
Integration Time (usec): 170000 (USB2E7196)
Spectra Averaged: 20 (USB2E7196)
Boxcar Smoothing: 10 (USB2E7196)
Correct for Electrical Dark: No (USB2E7196)
Strobe/Lamp Enabled: No (USB2E7196)
Correct for Detector Non-linearity: No (USB2E7196)
Correct for Stray Light: No (USB2E7196)
Number of Pixels in Processed Spectrum: 2048
>>>>>Begin Processed Spectral Data<<<<<
339.09	0.00
339.48	212.85
339.86	214.10
340.24	215.80
340.63	215.90
341.01	225.50
341.39	219.85
341.78	222.40
342.16	222.45
342.54	223.05
342.93	211.81
343.31	222.47
343.69	223.01
344.07	223.46
344.46	223.97
344.84	224.42
345.22	224.41
345.60	224.71
345.99	224.83
346.37	224.96
346.75	224.99
347.13	225.05
347.52	225.21
347.90	225.49
348.28	225.59
348.66	225.76
349.05	225.71
349.43	225.79
349.81	225.83
350.19	225.87
350.57	225.90
350.96	225.93
351.34	226.05
351.72	226.18
352.10	226.26
352.48	226.26
352.87	226.30
353.25	226.35
353.63	226.39
354.01	226.48
354.39	226.62
354.77	226.79
355.15	227.00
355.54	226.93
355.92	226.79
356.30	226.76
356.68	227.08
357.06	227.13
357.44	227.15
357.82	227.26
358.20	227.74
358.58	227.81
358.97	227.88
359.35	227.97
359.73	228.07
360.11	228.17
360.49	228.20
360.87	228.29
361.25	228.38
361.63	228.58
362.01	228.67
362.39	228.60
362.77	228.69
363.15	228.70
363.53	228.74
363.91	228.80
364.29	228.98
364.67	228.58
365.05	228.60
365.43	228.66
365.81	228.78
366.19	228.67
366.57	228.91
366.95	228.93
367.33	228.94
367.71	228.91
368.09	229.00
368.47	229.10
368.85	229.11
369.23	229.21
369.61	229.06
369.99	229.18
370.37	229.29
370.75	229.55
371.13	229.49
371.51	229.43
371.89	229.50
372.27	229.50
372.65	229.49
373.03	229.51
373.41	229.45
373.78	229.31
374.16	229.02
374.54	228.92
374.92	228.83
375.30	228.73
375.68	228.60
376.06	228.58
376.44	228.53
376.82	228.41
377.19	228.31
377.57	228.24
377.95	228.05
378.33	227.96
378.71	227.56
379.09	227.53
379.47	227.54
379.84	227.37
380.22	227.22
380.60	227.15
380.98	227.07
381.36	227.01
381.73	226.89
382.11	226.98
382.49	226.84
382.87	226.76
383.25	226.73
383.62	227.26
384.00	227.10
384.38	226.94
384.76	227.07
385.13	227.16
385.51	227.09
385.89	227.00
386.27	226.92
386.64	226.91
387.02	226.83
387.40	226.72
387.78	226.73
388.15	226.66
388.53	226.55
388.91	226.51
389.29	226.43
389.66	226.44
390.04	226.23
390.42	226.26
390.79	226.29
391.17	226.31
391.55	225.72
391.92	225.77
392.30	225.84
392.68	225.74
393.05	225.74
393.43	225.74
393.81	225.75
394.18	225.73
394.56	225.74
394.94	225.87
395.31	225.85
395.69	226.03
396.06	226.14
396.44	226.25
396.82	226.28
397.19	226.60
397.57	226.67
397.95	226.86
398.32	226.81
398.70	226.90
399.07	227.06
399.45	227.12
399.82	227.13
400.20	227.18
400.58	227.20
400.95	227.08
401.33	227.27
401.70	227.78
402.08	227.91
402.45	228.14
402.83	228.32
403.20	228.54
403.58	228.57
403.95	228.85
404.33	229.11
404.71	229.27
405.08	229.68
405.46	229.87
405.83	230.11
406.21	230.38
406.58	230.69
406.96	230.96
407.33	231.39
407.70	231.82
408.08	232.51
408.45	232.94
408.83	233.48
409.20	233.85
409.58	234.01
409.95	234.59
410.33	235.06
410.70	235.45
411.08	236.04
411.45	236.67
411.82	237.18
412.20	237.88
412.57	238.91
412.95	239.22
413.32	240.17
413.69	240.95
414.07	241.75
414.44	242.71
414.82	243.67
415.19	244.80
415.56	245.96
415.94	246.99
416.31	248.34
416.68	249.67
417.06	251.30
417.43	252.83
417.81	254.52
418.18	256.34
418.55	258.23
418.93	260.22
419.30	262.31
419.67	264.53
420.04	266.80
420.42	269.05
420.79	272.17
421.16	274.83
421.54	277.90
421.91	280.97
422.28	284.00
422.66	287.26
423.03	290.66
423.40	293.88
423.77	297.40
424.15	301.04
424.52	304.94
424.89	309.09
425.26	312.99
425.64	316.72
426.01	320.84
426.38	325.23
426.75	329.75
427.13	334.25
427.50	339.00
427.87	343.88
428.24	348.77
428.61	353.16
428.99	358.51
429.36	363.87
429.73	369.26
430.10	374.68
430.47	380.31
430.85	385.84
431.22	392.01
431.59	398.72
431.96	404.89
432.33	411.68
432.70	418.21
433.08	425.99
433.45	433.43
433.82	440.76
434.19	448.81
434.56	456.77
434.93	464.41
435.30	472.03
435.68	480.62
436.05	488.88
436.42	497.03
436.79	504.52
437.16	512.81
437.53	521.54
437.90	530.30
438.27	538.68
438.64	547.56
439.01	555.75
439.38	562.75
439.75	569.79
440.13	577.65
440.50	585.19
440.87	591.14
441.24	597.32
441.61	604.32
441.98	609.30
442.35	614.98
442.72	620.88
443.09	626.63
443.46	629.83
443.83	632.21
444.20	634.23
444.57	636.85
444.94	637.87
445.31	638.90
445.68	640.22
446.05	640.58
446.42	639.20
446.79	637.91
447.16	636.55
447.53	635.37
447.90	631.87
448.27	628.25
448.64	623.53
449.01	619.94
449.37	613.57
449.74	607.70
450.11	601.04
450.48	593.38
450.85	585.50
451.22	578.73
451.59	572.23
451.96	566.02
452.33	558.15
452.70	550.94
453.07	542.42
453.43	533.30
453.80	524.80
454.17	516.87
454.54	509.14
454.91	500.82
455.28	492.84
455.65	485.45
456.02	478.63
456.38	472.33
456.75	464.71
457.12	458.39
457.49	452.10
457.86	445.79
458.23	440.57
458.59	434.80
458.96	429.12
459.33	424.06
459.70	419.02
460.07	414.82
460.43	410.19
460.80	405.97
461.17	402.29
461.54	398.43
461.91	394.73
462.27	390.93
462.64	387.76
463.01	384.31
463.38	380.94
463.74	376.99
464.11	374.12
464.48	371.42
464.85	368.67
465.21	366.47
465.58	364.21
465.95	361.54
466.32	359.53
466.68	357.32
467.05	355.16
467.42	352.85
467.78	350.64
468.15	348.51
468.52	346.88
468.88	344.78
469.25	342.93
469.62	341.50
469.98	339.85
470.35	338.32
470.72	336.76
471.08	335.15
471.45	333.84
471.82	332.45
472.18	330.98
472.55	329.90
472.92	328.65
473.28	327.50
473.65	326.36
474.02	325.16
474.38	324.34
474.75	323.53
475.11	322.72
475.48	322.12
475.85	321.49
476.21	320.85
476.58	320.27
476.94	319.86
477.31	319.35
477.67	319.01
478.04	318.74
478.41	318.57
478.77	318.80
479.14	318.50
479.50	318.35
479.87	318.46
480.23	318.48
480.60	318.48
480.96	318.53
481.33	318.89
481.69	319.11
482.06	319.30
482.42	319.58
482.79	319.97
483.15	320.37
483.52	320.88
483.88	321.31
484.25	321.92
484.61	322.54
484.98	323.23
485.34	324.16
485.71	325.10
486.07	326.14
486.44	326.73
486.80	327.87
487.17	329.05
487.53	330.44
487.90	331.85
488.26	333.48
488.62	335.10
488.99	336.69
489.35	338.45
489.72	340.24
490.08	342.25
490.44	344.28
490.81	346.55
491.17	348.83
491.54	351.36
491.90	353.88
492.26	356.59
492.63	359.42
492.99	362.26
493.36	365.28
493.72	368.58
494.08	372.03
494.45	375.80
494.81	379.69
495.17	383.46
495.54	387.61
495.90	391.86
496.26	396.37
496.63	400.95
496.99	405.82
497.35	410.98
497.72	416.26
498.08	421.76
498.44	427.36
498.80	433.40
499.17	439.44
499.53	445.73
499.89	452.29
500.26	458.97
500.62	465.89
500.98	473.41
501.34	480.73
501.71	488.62
502.07	496.33
502.43	504.45
502.79	512.82
503.16	521.39
503.52	530.33
503.88	539.42
504.24	549.08
504.60	558.99
504.97	569.32
505.33	579.65
505.69	590.72
506.05	601.60
506.41	612.88
506.78	624.44
507.14	636.43
507.50	648.75
507.86	661.34
508.22	674.17
508.59	687.14
508.95	700.85
509.31	714.69
509.67	728.97
510.03	743.18
510.39	757.74
510.75	772.64
511.12	787.85
511.48	803.40
511.84	818.92
512.20	834.66
512.56	850.76
512.92	867.21
513.28	883.84
513.64	901.16
514.00	918.62
514.37	936.25
514.73	954.10
515.09	972.13
515.45	990.31
515.81	1008.69
516.17	1027.11
516.53	1045.67
516.89	1064.31
517.25	1083.57
517.61	1103.56
517.97	1123.74
518.33	1143.57
518.69	1163.60
519.05	1183.84
519.41	1204.41
519.77	1225.55
520.13	1246.09
520.49	1266.77
520.85	1288.86
521.21	1309.85
521.57	1330.95
521.93	1351.48
522.29	1372.37
522.65	1392.84
523.01	1413.81
523.37	1434.51
523.73	1455.65
524.09	1475.87
524.45	1496.18
524.81	1516.78
525.17	1537.11
525.53	1557.48
525.89	1578.49
526.25	1598.78
526.61	1619.00
526.97	1639.75
527.33	1660.28
527.68	1681.77
528.04	1702.70
528.40	1721.81
528.76	1742.39
529.12	1762.46
529.48	1783.03
529.84	1803.02
530.20	1824.04
530.56	1844.47
530.91	1865.00
531.27	1885.04
531.63	1905.25
531.99	1925.77
532.35	1945.35
532.71	1965.48
533.07	1985.85
533.42	2005.09
533.78	2025.09
534.14	2044.68
534.50	2063.56
534.86	2082.68
535.21	2100.15
535.57	2118.21
535.93	2135.79
536.29	2153.08
536.65	2170.73
537.00	2188.30
537.36	2205.60
537.72	2221.55
538.08	2238.25
538.44	2254.70
538.79	2270.59
539.15	2286.77
539.51	2302.33
539.87	2317.32
540.22	2330.78
540.58	2345.04
540.94	2358.10
541.29	2370.57
541.65	2382.82
542.01	2395.20
542.37	2405.22
542.72	2415.85
543.08	2426.43
543.44	2437.84
543.79	2447.78
544.15	2457.31
544.51	2467.14
544.87	2476.60
545.22	2485.12
545.58	2493.04
545.94	2499.93
546.29	2506.22
546.65	2512.47
547.01	2517.97
547.36	2523.23
547.72	2528.72
548.07	2532.09
548.43	2537.25
548.79	2541.36
549.14	2545.22
549.50	2548.82
549.86	2552.87
550.21	2556.47
550.57	2559.54
550.92	2560.94
551.28	2561.91
551.64	2564.12
551.99	2565.53
552.35	2566.80
552.70	2568.59
553.06	2569.85
553.41	2570.94
553.77	2572.44
554.13	2573.80
554.48	2575.07
554.84	2576.31
555.19	2577.26
555.55	2578.95
555.90	2578.17
556.26	2577.38
556.61	2576.01
556.97	2573.55
557.32	2572.41
557.68	2571.15
558.03	2569.47
558.39	2567.66
558.74	2566.87
559.10	2563.68
559.45	2559.73
559.81	2555.02
560.16	2550.05
560.52	2544.72
560.87	2540.40
561.23	2534.86
561.58	2529.03
561.94	2521.77
562.29	2514.37
562.64	2507.47
563.00	2499.13
563.35	2492.59
563.71	2485.66
564.06	2479.58
564.42	2473.29
564.77	2466.60
565.12	2458.85
565.48	2451.18
565.83	2443.35
566.19	2435.33
566.54	2427.28
566.89	2419.31
567.25	2411.91
567.60	2404.69
567.96	2397.35
568.31	2389.09
568.66	2380.70
569.02	2371.70
569.37	2363.92
569.72	2356.39
570.08	2347.30
570.43	2337.55
570.78	2328.43
571.14	2319.29
571.49	2308.45
571.84	2298.70
572.20	2288.11
572.55	2277.83
572.90	2267.25
573.26	2257.05
573.61	2245.92
573.96	2234.71
574.31	2222.98
574.67	2211.01
575.02	2198.35
575.37	2185.76
575.72	2172.93
576.08	2160.85
576.43	2148.40
576.78	2135.23
577.13	2121.57
577.49	2108.58
577.84	2097.24
578.19	2085.14
578.54	2072.75
578.90	2061.30
579.25	2049.17
579.60	2036.62
579.95	2024.10
580.30	2011.15
580.66	1997.82
581.01	1984.60
581.36	1970.96
581.71	1958.42
582.06	1945.79
582.42	1933.65
582.77	1921.16
583.12	1909.25
583.47	1897.02
583.82	1885.24
584.17	1873.43
584.53	1861.99
584.88	1849.30
585.23	1836.33
585.58	1822.32
585.93	1809.16
586.28	1795.98
586.63	1782.12
586.98	1768.36
587.34	1755.12
587.69	1742.05
588.04	1729.94
588.39	1718.03
588.74	1706.25
589.09	1694.63
589.44	1681.97
589.79	1669.75
590.14	1657.84
590.49	1645.51
590.84	1633.80
591.19	1621.87
591.54	1609.88
591.89	1597.62
592.25	1587.62
592.60	1576.51
592.95	1565.37
593.30	1553.60
593.65	1541.78
594.00	1530.05
594.35	1520.12
594.70	1508.80
595.05	1497.47
595.40	1485.27
595.75	1473.51
596.10	1462.31
596.45	1450.94
596.80	1440.57
597.15	1429.42
597.50	1417.89
597.85	1406.94
598.19	1395.43
598.54	1383.98
598.89	1372.98
599.24	1362.84
599.59	1351.27
599.94	1340.28
600.29	1330.13
600.64	1320.36
600.99	1309.91
601.34	1300.55
601.69	1289.68
602.04	1279.94
602.39	1270.38
602.74	1261.57
603.08	1252.50
603.43	1243.38
603.78	1233.85
604.13	1224.33
604.48	1215.03
604.83	1205.81
605.18	1196.19
605.53	1186.91
605.87	1177.81
606.22	1169.61
606.57	1160.42
606.92	1151.52
607.27	1142.83
607.62	1134.34
607.96	1125.91
608.31	1118.01
608.66	1109.65
609.01	1101.21
609.36	1092.62
609.70	1084.57
610.05	1075.97
610.40	1067.60
610.75	1059.13
611.10	1050.82
611.44	1042.21
611.79	1034.06
612.14	1026.18
612.49	1018.53
612.83	1011.15
613.18	1003.61
613.53	995.64
613.88	987.62
614.22	979.75
614.57	972.03
614.92	964.04
615.27	956.48
615.61	948.96
615.96	941.50
616.31	934.19
616.65	927.45
617.00	919.89
617.35	912.81
617.70	905.82
618.04	898.88
618.39	892.02
618.74	885.80
619.08	878.97
619.43	872.05
619.78	865.01
620.12	857.85
620.47	851.03
620.82	844.18
621.16	837.57
621.51	831.55
621.85	825.31
622.20	819.04
622.55	812.40
622.89	806.10
623.24	799.95
623.59	793.70
623.93	787.42
624.28	781.61
624.62	775.98
624.97	770.18
625.32	764.47
625.66	758.69
626.01	752.75
626.35	747.35
626.70	741.85
627.04	736.73
627.39	731.43
627.73	726.31
628.08	721.19
628.43	716.07
628.77	710.60
629.12	705.46
629.46	700.68
629.81	696.05
630.15	691.45
630.50	686.50
630.84	681.66
631.19	676.93
631.53	672.27
631.88	667.15
632.22	662.34
632.57	658.06
632.91	653.58
633.26	649.20
633.60	644.69
633.95	640.20
634.29	635.60
634.64	631.22
634.98	626.64
635.32	622.35
635.67	618.41
636.01	614.43
636.36	610.14
636.70	606.10
637.05	601.99
637.39	597.91
637.73	594.07
638.08	590.38
638.42	586.25
638.77	581.98
639.11	577.78
639.45	573.58
639.80	569.19
640.14	565.04
640.49	561.02
640.83	557.29
641.17	553.78
641.52	550.17
641.86	546.60
642.20	543.58
642.55	540.02
642.89	536.37
643.23	532.71
643.58	529.72
643.92	526.07
644.26	522.68
644.61	519.41
644.95	515.99
645.29	512.58
645.64	509.56
645.98	506.59
646.32	503.76
646.66	500.74
647.01	497.79
647.35	495.06
647.69	492.28
648.04	489.44
648.38	486.75
648.72	483.95
649.06	480.99
649.41	477.69
649.75	474.82
650.09	472.01
650.43	469.30
650.78	466.25
651.12	463.48
651.46	460.78
651.80	458.10
652.14	455.50
652.49	453.09
652.83	450.60
653.17	448.01
653.51	445.36
653.85	443.07
654.20	440.55
654.54	438.08
654.88	435.50
655.22	433.25
655.56	430.78
655.90	428.40
656.25	426.30
656.59	424.22
656.93	422.01
657.27	419.94
657.61	417.55
657.95	415.38
658.29	413.29
658.64	411.23
658.98	408.95
659.32	406.65
659.66	404.41
660.00	402.33
660.34	400.31
660.68	398.45
661.02	396.31
661.36	394.44
661.70	392.43
662.05	390.67
662.39	388.61
662.73	386.71
663.07	385.09
663.41	383.29
663.75	381.34
664.09	379.50
664.43	377.50
664.77	375.86
665.11	374.15
665.45	372.47
665.79	370.89
666.13	369.29
666.47	367.77
666.81	366.11
667.15	364.30
667.49	362.83
667.83	361.45
668.17	359.99
668.51	358.62
668.85	357.26
669.19	356.07
669.53	354.57
669.87	353.05
670.21	351.49
670.55	350.06
670.89	348.89
671.23	347.53
671.57	346.25
671.91	344.89
672.25	343.62
672.58	342.44
672.92	340.92
673.26	339.65
673.60	338.40
673.94	337.22
674.28	336.15
674.62	334.98
674.96	333.73
675.30	332.55
675.64	331.38
675.97	330.23
676.31	328.88
676.65	327.68
676.99	326.76
677.33	325.64
677.67	324.59
678.01	323.30
678.34	322.29
678.68	321.45
679.02	320.46
679.36	319.43
679.70	318.40
680.04	317.56
680.37	316.64
680.71	315.62
681.05	314.80
681.39	313.90
681.73	313.02
682.06	312.03
682.40	311.24
682.74	310.42
683.08	309.63
683.42	308.72
683.75	308.10
684.09	307.17
684.43	306.42
684.77	305.52
685.10	304.75
685.44	303.96
685.78	303.05
686.12	302.27
686.45	301.48
686.79	300.66
687.13	299.92
687.46	299.15
687.80	298.62
688.14	297.81
688.48	297.05
688.81	296.26
689.15	295.70
689.49	294.92
689.82	294.18
690.16	293.33
690.50	292.65
690.83	291.81
691.17	290.98
691.51	290.30
691.84	289.75
692.18	289.14
692.52	288.43
692.85	287.82
693.19	287.45
693.52	286.91
693.86	286.31
694.20	285.65
694.53	285.10
694.87	284.36
695.21	283.72
695.54	283.18
695.88	282.56
696.21	281.80
696.55	281.23
696.88	280.55
697.22	279.96
697.56	279.45
697.89	278.84
698.23	278.42
698.56	277.84
698.90	277.31
699.23	276.76
699.57	276.32
699.90	275.74
700.24	275.03
700.58	274.53
700.91	274.10
701.25	273.98
701.58	273.89
701.92	273.59
702.25	273.17
702.59	272.76
702.92	272.30
703.26	271.94
703.59	271.59
703.93	271.60
704.26	271.28
704.60	270.87
704.93	270.43
705.26	269.94
705.60	269.57
705.93	268.99
706.27	268.66
706.60	268.36
706.94	268.12
707.27	267.71
707.61	267.40
707.94	266.95
708.27	266.22
708.61	265.38
708.94	264.88
709.28	264.52
709.61	264.09
709.94	263.83
710.28	263.42
710.61	263.04
710.95	262.17
711.28	262.04
711.61	261.65
711.95	261.46
712.28	261.10
712.61	260.68
712.95	260.60
713.28	260.53
713.61	260.10
713.95	259.68
714.28	259.44
714.61	258.91
714.95	258.56
715.28	258.15
715.61	257.85
715.95	257.52
716.28	257.06
716.61	256.74
716.95	256.29
717.28	255.98
717.61	255.59
717.94	255.35
718.28	254.75
718.61	254.41
718.94	254.06
719.27	253.91
719.61	253.68
719.94	253.35
720.27	252.82
720.60	252.50
720.94	252.26
721.27	251.93
721.60	251.80
721.93	251.56
722.27	251.56
722.60	251.35
722.93	251.05
723.26	250.95
723.59	250.63
723.93	250.60
724.26	250.39
724.59	250.17
724.92	250.02
725.25	249.94
725.59	249.75
725.92	249.62
726.25	249.32
726.58	249.21
726.91	248.96
727.24	248.83
727.57	248.64
727.91	248.37
728.24	248.26
728.57	247.95
728.90	247.88
729.23	247.49
729.56	247.56
729.89	247.49
730.22	247.24
730.55	247.12
730.89	246.88
731.22	246.74
731.55	246.58
731.88	246.38
732.21	246.18
732.54	246.05
732.87	245.77
733.20	245.65
733.53	245.45
733.86	245.37
734.19	245.13
734.52	245.03
734.85	245.17
735.18	245.00
735.51	245.10
735.84	244.95
736.17	244.93
736.50	244.47
736.83	244.90
737.16	244.84
737.49	244.68
737.82	244.46
738.15	244.32
738.48	244.17
738.81	244.08
739.14	243.90
739.47	243.68
739.80	243.60
740.13	243.54
740.46	243.42
740.79	243.20
741.12	243.08
741.45	242.90
741.78	242.55
742.11	242.55
742.44	242.31
742.77	242.23
743.10	242.06
743.43	241.89
743.75	241.19
744.08	241.68
744.41	241.53
744.74	241.43
745.07	241.23
745.40	241.20
745.73	241.22
746.06	241.09
746.39	241.03
746.71	240.90
747.04	240.62
747.37	240.46
747.70	240.40
748.03	240.18
748.36	240.15
748.68	239.99
749.01	239.75
749.34	239.59
749.67	239.46
750.00	239.35
750.33	239.62
750.65	239.59
750.98	238.84
751.31	238.76
751.64	238.65
751.97	238.77
752.29	238.59
752.62	238.23
752.95	238.05
753.28	237.86
753.60	237.64
753.93	237.71
754.26	237.58
754.59	237.29
754.91	237.19
755.24	236.99
755.57	236.91
755.90	236.75
756.22	236.63
756.55	236.37
756.88	236.16
757.20	235.80
757.53	235.55
757.86	235.42
758.19	235.38
758.51	235.28
758.84	234.95
759.17	234.81
759.49	234.82
759.82	234.99
760.15	234.98
760.47	234.90
760.80	234.70
761.13	234.74
761.45	234.66
761.78	234.64
762.11	234.61
762.43	234.45
762.76	234.35
763.08	234.41
763.41	234.44
763.74	234.38
764.06	234.28
764.39	234.23
764.71	234.15
765.04	233.98
765.37	233.92
765.69	233.83
766.02	233.78
766.34	233.60
766.67	233.30
767.00	233.22
767.32	233.41
767.65	233.60
767.97	233.45
768.30	233.39
768.62	233.38
768.95	233.27
769.27	233.22
769.60	233.25
769.92	233.02
770.25	232.91
770.57	232.84
770.90	232.77
771.22	232.73
771.55	232.67
771.87	232.65
772.20	232.62
772.52	232.95
772.85	233.48
773.17	233.50
773.50	233.45
773.82	233.37
774.15	233.14
774.47	232.85
774.80	232.77
775.12	232.80
775.45	232.67
775.77	232.67
776.09	232.69
776.42	232.63
776.74	232.83
777.07	232.74
777.39	232.68
777.72	232.64
778.04	232.60
778.36	232.49
778.69	232.46
779.01	232.42
779.33	232.08
779.66	231.52
779.98	231.52
780.31	231.48
780.63	231.65
780.95	231.71
781.28	231.62
781.60	231.57
781.92	231.53
782.25	231.48
782.57	231.36
782.89	231.25
783.22	231.13
783.54	230.84
783.86	230.86
784.19	230.82
784.51	230.92
784.83	230.83
785.16	230.81
785.48	230.76
785.80	230.68
786.12	230.69
786.45	230.69
786.77	230.56
787.09	230.52
787.42	230.27
787.74	230.20
788.06	230.22
788.38	230.06
788.71	229.97
789.03	229.95
789.35	229.96
789.67	229.91
789.99	229.88
790.32	229.81
790.64	229.80
790.96	230.13
791.28	229.86
791.61	229.75
791.93	229.77
792.25	229.80
792.57	230.10
792.89	229.89
793.21	229.84
793.54	229.80
793.86	229.78
794.18	229.80
794.50	229.70
794.82	229.62
795.14	229.77
795.47	229.83
795.79	229.80
796.11	229.67
796.43	229.57
796.75	229.56
797.07	229.54
797.39	229.49
797.71	229.16
798.04	229.18
798.36	229.16
798.68	229.11
799.00	229.06
799.32	228.81
799.64	228.88
799.96	228.81
800.28	228.85
800.60	228.81
800.92	228.82
801.24	228.72
801.56	228.80
801.89	228.70
802.21	228.70
802.53	228.62
802.85	228.73
803.17	228.94
803.49	228.84
803.81	228.84
804.13	228.82
804.45	228.75
804.77	228.80
805.09	228.85
805.41	228.84
805.73	228.70
806.05	228.55
806.37	228.50
806.69	228.36
807.01	228.36
807.33	228.40
807.65	228.19
807.97	228.46
808.28	228.31
808.60	228.28
808.92	228.19
809.24	228.49
809.56	228.46
809.88	228.30
810.20	228.35
810.52	228.45
810.84	228.34
811.16	228.35
811.48	228.28
811.80	228.45
812.12	228.40
812.43	228.51
812.75	228.57
813.07	228.52
813.39	228.58
813.71	228.46
814.03	228.45
814.35	228.53
814.67	228.35
814.98	228.37
815.30	228.44
815.62	228.42
815.94	228.07
816.26	228.32
816.58	228.19
816.89	228.26
817.21	228.18
817.53	228.26
817.85	228.31
818.17	228.32
818.48	228.17
818.80	228.34
819.12	228.30
819.44	228.23
819.76	228.21
820.07	228.26
820.39	228.29
820.71	228.25
821.03	228.27
821.34	228.20
821.66	228.28
821.98	228.27
822.30	228.27
822.61	228.60
822.93	228.32
823.25	228.38
823.57	228.30
823.88	228.40
824.20	228.37
824.52	228.38
824.83	228.37
825.15	228.24
825.47	228.16
825.79	228.21
826.10	228.14
826.42	228.16
826.74	228.15
827.05	228.10
827.37	228.15
827.69	228.04
828.00	228.04
828.32	228.02
828.64	227.95
828.95	228.14
829.27	227.96
829.58	227.92
829.90	228.02
830.22	228.02
830.53	227.86
830.85	227.78
831.17	227.62
831.48	227.60
831.80	227.65
832.11	227.57
832.43	227.47
832.75	227.54
833.06	227.81
833.38	227.67
833.69	227.64
834.01	227.62
834.32	227.58
834.64	227.53
834.96	227.47
835.27	227.49
835.59	227.30
835.90	227.18
836.22	227.20
836.53	227.04
836.85	226.99
837.16	227.45
837.48	227.41
837.79	227.57
838.11	227.46
838.42	227.44
838.74	227.42
839.05	227.38
839.37	227.31
839.68	226.94
840.00	227.00
840.31	227.09
840.63	226.99
840.94	226.94
841.26	226.89
841.57	226.80
841.88	226.76
842.20	226.76
842.51	226.66
842.83	226.61
843.14	227.01
843.46	227.03
843.77	226.72
844.08	226.74
844.40	226.57
844.71	226.60
845.03	226.54
845.34	226.58
845.65	226.53
845.97	226.60
846.28	226.65
846.60	226.57
846.91	226.48
847.22	226.52
847.54	226.71
847.85	226.79
848.16	226.81
848.48	226.73
848.79	226.83
849.10	226.92
849.42	226.96
849.73	226.55
850.04	226.51
850.36	226.32
850.67	226.42
850.98	226.52
851.30	226.54
851.61	226.55
851.92	226.52
852.23	226.72
852.55	226.71
852.86	226.74
853.17	226.86
853.49	226.96
853.80	227.04
854.11	227.03
854.42	227.07
854.74	227.08
855.05	227.13
855.36	227.01
855.67	227.01
855.99	227.00
856.30	227.65
856.61	227.65
856.92	227.77
857.23	227.72
857.55	227.60
857.86	227.58
858.17	227.72
858.48	227.65
858.79	227.56
859.11	227.59
859.42	227.53
859.73	227.44
860.04	227.39
860.35	227.24
860.66	227.13
860.98	227.12
861.29	227.20
861.60	227.14
861.91	227.21
862.22	227.17
862.53	227.11
862.84	226.46
863.16	226.55
863.47	226.43
863.78	226.41
864.09	226.50
864.40	226.57
864.71	226.50
865.02	226.51
865.33	226.40
865.64	226.30
865.95	226.29
866.27	226.59
866.58	226.58
866.89	226.65
867.20	226.63
867.51	226.53
867.82	226.45
868.13	226.68
868.44	226.55
868.75	226.63
869.06	226.63
869.37	226.76
869.68	226.69
869.99	226.83
870.30	226.83
870.61	226.86
870.92	226.75
871.23	226.67
871.54	226.68
871.85	226.82
872.16	226.90
872.47	226.89
872.78	226.58
873.09	226.56
873.40	226.49
873.71	226.44
874.02	226.47
874.33	226.40
874.64	226.25
874.95	226.34
875.26	226.23
875.56	226.26
875.87	226.11
876.18	226.06
876.49	226.43
876.80	226.38
877.11	226.35
877.42	226.44
877.73	226.46
878.04	226.42
878.35	226.35
878.66	226.34
878.96	226.31
879.27	226.34
879.58	226.34
879.89	226.33
880.20	226.48
880.51	226.44
880.82	226.46
881.12	226.51
881.43	226.34
881.74	226.30
882.05	226.30
882.36	226.38
882.67	226.45
882.97	225.93
883.28	225.95
883.59	225.93
883.90	225.98
884.21	226.05
884.51	226.08
884.82	226.08
885.13	226.12
885.44	226.21
885.74	226.22
886.05	226.21
886.36	226.27
886.67	226.14
886.98	226.46
887.28	226.55
887.59	226.45
887.90	226.53
888.20	226.55
888.51	226.57
888.82	226.56
889.13	226.58
889.43	227.06
889.74	226.99
890.05	226.97
890.35	226.86
890.66	226.87
890.97	226.86
891.28	226.81
891.58	226.78
891.89	226.75
892.20	226.69
892.50	226.65
892.81	226.63
893.12	226.69
893.42	226.48
893.73	226.48
894.04	226.54
894.34	226.63
894.65	226.60
894.95	226.58
895.26	226.55
895.57	226.75
895.87	226.30
896.18	226.41
896.48	226.40
896.79	226.36
897.10	226.40
897.40	226.45
897.71	226.53
898.01	226.50
898.32	226.51
898.63	226.56
898.93	226.65
899.24	226.62
899.54	226.58
899.85	226.50
900.15	226.41
900.46	226.43
900.76	226.40
901.07	226.42
901.38	226.46
901.68	226.47
901.99	226.22
902.29	226.24
902.60	226.24
902.90	226.23
903.21	226.28
903.51	226.20
903.82	226.23
904.12	226.21
904.43	226.19
904.73	226.18
905.03	226.14
905.34	226.53
905.64	226.51
905.95	226.49
906.25	226.47
906.56	226.54
906.86	226.48
907.17	226.41
907.47	226.44
907.77	226.35
908.08	226.31
908.38	226.33
908.69	226.40
908.99	226.43
909.30	226.44
909.60	226.45
909.90	226.50
910.21	226.30
910.51	226.21
910.81	226.19
911.12	226.25
911.42	226.28
911.73	225.82
912.03	225.80
912.33	225.89
912.64	225.84
912.94	225.83
913.24	225.69
913.55	225.70
913.85	225.67
914.15	225.77
914.46	225.78
914.76	225.73
915.06	225.68
915.37	225.64
915.67	225.57
915.97	225.54
916.27	225.41
916.58	225.50
916.88	225.44
917.18	225.42
917.49	225.76
917.79	225.74
918.09	225.86
918.39	226.02
918.70	226.01
919.00	226.11
919.30	226.29
919.60	226.32
919.91	226.29
920.21	226.28
920.51	226.15
920.81	226.15
921.12	226.23
921.42	226.19
921.72	226.19
922.02	226.24
922.32	226.39
922.63	226.41
922.93	226.68
923.23	226.80
923.53	226.76
923.83	226.39
924.13	226.44
924.44	226.42
924.74	226.46
925.04	226.59
925.34	226.51
925.64	226.25
925.94	226.33
926.24	226.62
926.55	226.64
926.85	226.80
927.15	226.86
927.45	226.87
927.75	226.85
928.05	226.90
928.35	226.87
928.65	226.86
928.95	226.95
929.26	226.79
929.56	226.89
929.86	226.96
930.16	226.93
930.46	226.85
930.76	226.86
931.06	226.70
931.36	226.51
931.66	226.63
931.96	226.79
932.26	226.81
932.56	226.62
932.86	226.65
933.16	226.56
933.46	226.48
933.76	226.46
934.06	226.58
934.36	226.66
934.66	226.70
934.96	226.65
935.26	226.66
935.56	226.69
935.86	226.57
936.16	226.55
936.46	226.52
936.76	226.55
937.06	226.43
937.36	226.49
937.66	226.56
937.96	226.54
938.26	226.36
938.56	226.45
938.86	226.42
939.16	226.53
939.46	226.57
939.76	226.61
940.06	226.55
940.35	226.44
940.65	226.22
940.95	226.29
941.25	226.19
941.55	226.11
941.85	226.08
942.15	226.16
942.45	226.26
942.75	226.26
943.04	226.23
943.34	226.37
943.64	226.30
943.94	226.23
944.24	226.23
944.54	226.28
944.84	226.14
945.13	226.08
945.43	225.94
945.73	225.88
946.03	225.80
946.33	225.73
946.62	225.67
946.92	225.69
947.22	225.65
947.52	225.62
947.82	225.63
948.11	225.49
948.41	225.37
948.71	225.20
949.01	225.18
949.31	225.08
949.60	224.97
949.90	225.00
950.20	224.96
950.50	224.91
950.79	224.89
951.09	224.93
951.39	224.91
951.69	224.81
951.98	224.86
952.28	224.86
952.58	224.87
952.87	224.86
953.17	224.85
953.47	224.76
953.76	224.68
954.06	224.60
954.36	224.55
954.66	224.51
954.95	224.59
955.25	224.67
955.55	224.74
955.84	224.67
956.14	224.68
956.44	224.75
956.73	224.68
957.03	224.67
957.32	224.73
957.62	224.68
957.92	224.85
958.21	224.81
958.51	225.38
958.81	225.45
959.10	225.54
959.40	225.71
959.69	225.77
959.99	225.95
960.29	225.92
960.58	225.99
960.88	226.23
961.17	226.20
961.47	226.18
961.76	226.12
962.06	226.23
962.36	226.23
962.65	226.25
962.95	226.31
963.24	226.25
963.54	226.26
963.83	226.34
964.13	226.29
964.42	226.25
964.72	225.82
965.01	225.87
965.31	225.75
965.60	225.68
965.90	225.98
966.19	225.85
966.49	225.93
966.78	225.95
967.08	225.96
967.37	225.96
967.67	225.90
967.96	226.03
968.26	226.06
968.55	226.12
968.85	226.02
969.14	226.00
969.43	226.04
969.73	225.97
970.02	225.99
970.32	225.94
970.61	225.92
970.91	225.80
971.20	225.73
971.49	225.77
971.79	225.75
972.08	225.45
972.38	225.51
972.67	225.47
972.96	225.60
973.26	225.44
973.55	225.69
973.85	225.70
974.14	225.68
974.43	225.66
974.73	225.61
975.02	225.65
975.31	225.66
975.61	225.76
975.90	225.77
976.19	225.70
976.49	225.73
976.78	225.74
977.07	225.82
977.37	225.82
977.66	225.90
977.95	225.85
978.24	225.88
978.54	226.02
978.83	226.02
979.12	225.95
979.42	225.88
979.71	225.74
980.00	225.72
980.29	225.77
980.59	225.68
980.88	225.83
981.17	225.85
981.46	225.82
981.76	225.77
982.05	225.90
982.34	225.96
982.63	225.98
982.93	226.03
983.22	226.09
983.51	226.17
983.80	226.22
984.09	226.32
984.39	226.26
984.68	226.14
984.97	226.12
985.26	226.07
985.55	226.20
985.85	226.06
986.14	226.15
986.43	226.25
986.72	226.31
987.01	226.10
987.30	226.07
987.59	226.11
987.89	226.10
988.18	226.00
988.47	225.96
988.76	225.89
989.05	225.82
989.34	225.81
989.63	225.89
989.92	225.76
990.22	225.69
990.51	225.72
990.80	225.65
991.09	225.78
991.38	225.83
991.67	225.75
991.96	225.70
992.25	225.76
992.54	225.66
992.83	225.63
993.12	225.65
993.41	225.70
993.70	225.94
993.99	225.98
994.28	226.08
994.58	226.12
994.87	226.04
995.16	226.04
995.45	225.96
995.74	225.78
996.03	225.85
996.32	225.92
996.61	226.01
996.90	226.06
997.19	226.04
997.48	226.04
997.77	226.00
998.06	226.06
998.34	225.98
998.63	225.91
998.92	225.88
999.21	225.93
999.50	225.95
999.79	225.71
1000.08	225.71
1000.37	225.65
1000.66	225.60
1000.95	225.77
1001.24	225.85
1001.53	225.90
1001.82	225.93
1002.11	225.94
1002.40	225.96
1002.68	226.08
1002.97	226.45
1003.26	226.37
1003.55	226.32
1003.84	226.42
1004.13	226.62
1004.42	226.62
1004.71	226.64
1004.99	226.64
1005.28	226.70
1005.57	226.65
1005.86	226.58
1006.15	226.60
1006.44	226.51
1006.72	226.57
1007.01	226.51
1007.30	226.53
1007.59	226.47
1007.88	226.39
1008.17	226.33
1008.45	226.26
1008.74	226.05
1009.03	225.80
1009.32	225.86
1009.60	225.87
1009.89	225.79
1010.18	225.61
1010.47	225.62
1010.76	225.61
1011.04	225.59
1011.33	225.67
1011.62	225.73
1011.91	225.71
1012.19	225.68
1012.48	225.74
1012.77	225.72
1013.05	225.95
1013.34	225.95
1013.63	225.92
1013.92	226.04
1014.20	226.00
1014.49	226.01
1014.78	226.04
1015.06	225.83
1015.35	225.73
1015.64	225.74
1015.92	225.79
1016.21	225.79
1016.50	225.77
1016.78	225.85
1017.07	225.93
1017.36	225.90
1017.64	225.83
1017.93	225.91
1018.22	225.85
1018.50	225.79
1018.79	225.82
1019.08	225.59
1019.36	225.57
1019.65	225.55
1019.93	225.60
1020.22	225.68
1020.51	225.79
1020.79	225.73
1021.08	224.25
1021.36	224.55
1021.65	226.25
1021.94	225.95
1022.22	225.85
1022.51	224.50
1022.79	227.10
1023.08	226.30
1023.36	228.90
1023.65	224.60
>>>>>End Processed Spectral Data<<<<<
