SpectraSuite Data File
++++++++++++++++++++++++++++++++++++
Date: Wed Sep 04 17:44:34 EDT 2013
User: lab3
Dark Spectrum Present: Yes
Reference Spectrum Present: No
Number of Sampled Component Spectra: 1
Spectrometers: USB2E7196
Integration Time (usec): 170000 (USB2E7196)
Spectra Averaged: 20 (USB2E7196)
Boxcar Smoothing: 10 (USB2E7196)
Correct for Electrical Dark: No (USB2E7196)
Strobe/Lamp Enabled: No (USB2E7196)
Correct for Detector Non-linearity: No (USB2E7196)
Correct for Stray Light: No (USB2E7196)
Number of Pixels in Processed Spectrum: 2048
>>>>>Begin Processed Spectral Data<<<<<
339.09	0.00
339.48	211.80
339.86	214.40
340.24	215.30
340.63	216.35
341.01	225.45
341.39	220.40
341.78	221.90
342.16	223.95
342.54	223.00
342.93	211.89
343.31	222.56
343.69	223.17
344.07	223.59
344.46	224.05
344.84	224.48
345.22	224.37
345.60	224.60
345.99	224.85
346.37	224.96
346.75	225.05
347.13	225.06
347.52	225.15
347.90	225.35
348.28	225.31
348.66	225.49
349.05	225.39
349.43	225.46
349.81	225.56
350.19	225.56
350.57	225.65
350.96	225.78
351.34	225.91
351.72	225.95
352.10	226.12
352.48	226.15
352.87	226.25
353.25	226.39
353.63	226.40
354.01	226.35
354.39	226.39
354.77	226.52
355.15	226.74
355.54	226.80
355.92	226.70
356.30	226.80
356.68	227.19
357.06	227.31
357.44	227.26
357.82	227.24
358.20	227.70
358.58	227.77
358.97	227.84
359.35	227.94
359.73	228.06
360.11	228.09
360.49	228.20
360.87	228.16
361.25	228.29
361.63	228.57
362.01	228.64
362.39	228.65
362.77	228.76
363.15	228.74
363.53	228.69
363.91	228.80
364.29	228.79
364.67	228.29
365.05	228.31
365.43	228.46
365.81	228.51
366.19	228.41
366.57	228.60
366.95	228.62
367.33	228.57
367.71	228.67
368.09	228.81
368.47	228.85
368.85	228.80
369.23	228.88
369.61	228.70
369.99	228.87
370.37	228.96
370.75	229.13
371.13	229.05
371.51	229.03
371.89	229.01
372.27	229.06
372.65	229.18
373.03	229.14
373.41	229.09
373.78	229.10
374.16	228.78
374.54	228.59
374.92	228.50
375.30	228.49
375.68	228.30
376.06	228.16
376.44	228.03
376.82	228.14
377.19	228.08
377.57	228.00
377.95	227.75
378.33	227.56
378.71	227.19
379.09	227.15
379.47	227.14
379.84	227.06
380.22	226.88
380.60	226.68
380.98	226.62
381.36	226.48
381.73	226.37
382.11	226.41
382.49	226.30
382.87	226.19
383.25	226.09
383.62	226.58
384.00	226.43
384.38	226.37
384.76	226.33
385.13	226.40
385.51	226.35
385.89	226.26
386.27	226.28
386.64	226.29
387.02	226.18
387.40	226.11
387.78	226.05
388.15	226.13
388.53	226.10
388.91	226.07
389.29	226.00
389.66	226.12
390.04	226.00
390.42	226.12
390.79	226.12
391.17	226.04
391.55	225.53
391.92	225.57
392.30	225.70
392.68	225.55
393.05	225.52
393.43	225.49
393.81	225.55
394.18	225.51
394.56	225.48
394.94	225.62
395.31	225.60
395.69	225.76
396.06	225.82
396.44	225.93
396.82	225.91
397.19	226.25
397.57	226.09
397.95	226.29
398.32	226.25
398.70	226.33
399.07	226.67
399.45	226.73
399.82	226.82
400.20	226.80
400.58	226.99
400.95	226.82
401.33	227.02
401.70	227.49
402.08	227.64
402.45	227.82
402.83	228.08
403.20	228.25
403.58	228.31
403.95	228.61
404.33	228.80
404.71	229.00
405.08	229.41
405.46	229.63
405.83	229.84
406.21	230.08
406.58	230.40
406.96	230.53
407.33	230.85
407.70	231.25
408.08	232.04
408.45	232.43
408.83	233.03
409.20	233.41
409.58	233.44
409.95	233.93
410.33	234.45
410.70	234.77
411.08	235.40
411.45	236.05
411.82	236.53
412.20	237.26
412.57	238.26
412.95	238.64
413.32	239.55
413.69	240.30
414.07	241.13
414.44	242.11
414.82	243.11
415.19	244.25
415.56	245.36
415.94	246.27
416.31	247.71
416.68	248.97
417.06	250.59
417.43	252.35
417.81	254.15
418.18	256.00
418.55	257.89
418.93	259.92
419.30	261.97
419.67	264.11
420.04	266.35
420.42	268.58
420.79	271.54
421.16	274.22
421.54	277.16
421.91	280.21
422.28	283.07
422.66	286.31
423.03	289.61
423.40	292.85
423.77	296.39
424.15	299.85
424.52	303.59
424.89	307.53
425.26	311.17
425.64	314.84
426.01	318.82
426.38	323.16
426.75	327.54
427.13	332.00
427.50	336.60
427.87	341.35
428.24	346.11
428.61	350.50
428.99	355.69
429.36	361.06
429.73	366.41
430.10	371.92
430.47	377.38
430.85	382.85
431.22	388.87
431.59	395.40
431.96	401.36
432.33	408.07
432.70	414.64
433.08	422.34
433.45	429.49
433.82	436.62
434.19	444.56
434.56	452.34
434.93	459.67
435.30	467.28
435.68	475.70
436.05	483.94
436.42	492.21
436.79	499.62
437.16	507.76
437.53	516.07
437.90	524.40
438.27	532.76
438.64	541.55
439.01	549.72
439.38	556.64
439.75	563.69
440.13	571.45
440.50	578.69
440.87	584.63
441.24	590.89
441.61	597.73
441.98	602.57
442.35	608.23
442.72	614.20
443.09	619.79
443.46	622.99
443.83	625.10
444.20	626.80
444.57	629.47
444.94	630.51
445.31	631.70
445.68	633.24
446.05	633.30
446.42	631.96
446.79	630.55
447.16	629.07
447.53	627.91
447.90	624.38
448.27	620.98
448.64	616.36
449.01	612.75
449.37	606.72
449.74	600.85
450.11	594.13
450.48	586.50
450.85	578.74
451.22	572.09
451.59	565.86
451.96	559.85
452.33	551.90
452.70	544.77
453.07	536.28
453.43	527.29
453.80	519.19
454.17	511.44
454.54	503.99
454.91	496.02
455.28	488.08
455.65	480.92
456.02	474.32
456.38	468.06
456.75	460.54
457.12	454.36
457.49	448.19
457.86	442.10
458.23	437.19
458.59	431.74
458.96	426.20
459.33	421.04
459.70	415.95
460.07	412.12
460.43	407.58
460.80	403.55
461.17	399.87
461.54	396.03
461.91	392.31
462.27	388.49
462.64	385.34
463.01	381.95
463.38	378.74
463.74	374.68
464.11	371.85
464.48	369.32
464.85	366.44
465.21	364.54
465.58	362.27
465.95	359.55
466.32	357.39
466.68	355.14
467.05	353.08
467.42	350.96
467.78	348.69
468.15	346.57
468.52	345.07
468.88	343.00
469.25	341.15
469.62	339.65
469.98	338.06
470.35	336.59
470.72	335.16
471.08	333.51
471.45	332.36
471.82	331.05
472.18	329.61
472.55	328.61
472.92	327.26
473.28	326.12
473.65	325.05
474.02	323.98
474.38	323.18
474.75	322.46
475.11	321.65
475.48	320.90
475.85	320.28
476.21	319.52
476.58	319.01
476.94	318.61
477.31	318.21
477.67	317.77
478.04	317.42
478.41	317.30
478.77	317.52
479.14	317.23
479.50	317.13
479.87	317.20
480.23	317.22
480.60	317.16
480.96	317.23
481.33	317.61
481.69	317.80
482.06	318.04
482.42	318.32
482.79	318.78
483.15	319.33
483.52	319.99
483.88	320.51
484.25	321.09
484.61	321.77
484.98	322.45
485.34	323.40
485.71	324.27
486.07	325.15
486.44	325.78
486.80	326.84
487.17	327.92
487.53	329.25
487.90	330.57
488.26	332.29
488.62	333.97
488.99	335.52
489.35	337.38
489.72	339.24
490.08	341.23
490.44	343.06
490.81	345.21
491.17	347.45
491.54	349.93
491.90	352.49
492.26	355.12
492.63	357.92
492.99	360.80
493.36	363.83
493.72	367.23
494.08	370.60
494.45	374.36
494.81	378.32
495.17	382.14
495.54	386.31
495.90	390.42
496.26	394.80
496.63	399.30
496.99	403.96
497.35	408.95
497.72	414.18
498.08	419.73
498.44	425.32
498.80	431.19
499.17	437.14
499.53	443.41
499.89	450.00
500.26	456.58
500.62	463.44
500.98	470.78
501.34	478.07
501.71	485.71
502.07	493.36
502.43	501.18
502.79	509.39
503.16	517.98
503.52	526.87
503.88	535.93
504.24	545.48
504.60	555.36
504.97	565.48
505.33	575.78
505.69	586.67
506.05	597.61
506.41	608.70
506.78	620.16
507.14	631.77
507.50	643.78
507.86	656.30
508.22	669.10
508.59	681.91
508.95	695.15
509.31	709.01
509.67	722.92
510.03	737.19
510.39	751.65
510.75	766.29
511.12	781.16
511.48	796.46
511.84	811.94
512.20	827.35
512.56	843.49
512.92	859.66
513.28	875.91
513.64	892.65
514.00	909.70
514.37	927.20
514.73	944.79
515.09	962.65
515.45	980.78
515.81	998.72
516.17	1016.95
516.53	1035.29
516.89	1053.61
517.25	1072.44
517.61	1091.95
517.97	1111.82
518.33	1131.52
518.69	1151.58
519.05	1171.67
519.41	1191.57
519.77	1212.05
520.13	1232.10
520.49	1252.27
520.85	1272.69
521.21	1293.44
521.57	1314.15
521.93	1334.43
522.29	1355.45
522.65	1375.54
523.01	1395.70
523.37	1415.69
523.73	1436.20
524.09	1456.26
524.45	1476.20
524.81	1496.55
525.17	1516.59
525.53	1536.45
525.89	1556.73
526.25	1576.61
526.61	1596.19
526.97	1616.79
527.33	1637.32
527.68	1658.27
528.04	1678.96
528.40	1699.28
528.76	1719.69
529.12	1739.57
529.48	1759.45
529.84	1778.60
530.20	1798.90
530.56	1818.96
530.91	1839.26
531.27	1858.89
531.63	1878.60
531.99	1898.17
532.35	1917.38
532.71	1936.77
533.07	1956.45
533.42	1975.28
533.78	1994.45
534.14	2013.77
534.50	2031.90
534.86	2050.31
535.21	2067.09
535.57	2084.53
535.93	2101.55
536.29	2117.97
536.65	2135.06
537.00	2151.85
537.36	2168.30
537.72	2183.67
538.08	2199.74
538.44	2215.61
538.79	2231.04
539.15	2246.84
539.51	2262.09
539.87	2276.55
540.22	2289.71
540.58	2303.36
540.94	2315.75
541.29	2327.71
541.65	2339.09
542.01	2350.67
542.37	2360.24
542.72	2370.39
543.08	2380.31
543.44	2390.97
543.79	2400.15
544.15	2409.28
544.51	2418.66
544.87	2427.62
545.22	2435.85
545.58	2442.74
545.94	2448.75
546.29	2454.72
546.65	2460.10
547.01	2465.07
547.36	2469.84
547.72	2474.97
548.07	2477.87
548.43	2482.44
548.79	2486.06
549.14	2489.44
549.50	2492.74
549.86	2496.20
550.21	2499.28
550.57	2501.92
550.92	2502.61
551.28	2503.49
551.64	2505.39
551.99	2505.97
552.35	2507.07
552.70	2508.70
553.06	2509.79
553.41	2510.69
553.77	2511.96
554.13	2512.80
554.48	2513.90
554.84	2514.53
555.19	2514.89
555.55	2516.08
555.90	2515.06
556.26	2513.94
556.61	2511.83
556.97	2509.30
557.32	2508.33
557.68	2506.76
558.03	2504.97
558.39	2503.37
558.74	2502.53
559.10	2498.98
559.45	2495.43
559.81	2490.58
560.16	2484.95
560.52	2479.95
560.87	2475.26
561.23	2469.44
561.58	2463.63
561.94	2456.75
562.29	2449.40
562.64	2442.26
563.00	2434.18
563.35	2427.47
563.71	2420.70
564.06	2414.62
564.42	2407.76
564.77	2400.50
565.12	2393.07
565.48	2385.32
565.83	2377.36
566.19	2369.20
566.54	2361.03
566.89	2352.92
567.25	2345.29
567.60	2338.41
567.96	2330.81
568.31	2323.09
568.66	2314.70
569.02	2305.70
569.37	2297.20
569.72	2289.84
570.08	2280.76
570.43	2271.39
570.78	2262.35
571.14	2253.11
571.49	2242.94
571.84	2233.47
572.20	2222.96
572.55	2212.90
572.90	2202.26
573.26	2191.87
573.61	2180.92
573.96	2170.22
574.31	2158.93
574.67	2147.55
575.02	2135.27
575.37	2123.00
575.72	2109.93
576.08	2098.09
576.43	2086.06
576.78	2073.62
577.13	2060.28
577.49	2048.09
577.84	2036.81
578.19	2025.23
578.54	2013.17
578.90	2001.86
579.25	1990.28
579.60	1978.15
579.95	1965.61
580.30	1953.00
580.66	1940.03
581.01	1926.93
581.36	1913.69
581.71	1901.37
582.06	1888.97
582.42	1876.70
582.77	1864.78
583.12	1853.55
583.47	1841.74
583.82	1830.34
584.17	1818.62
584.53	1807.31
584.88	1794.90
585.23	1782.06
585.58	1768.55
585.93	1755.80
586.28	1743.13
586.63	1729.69
586.98	1716.22
587.34	1703.76
587.69	1691.16
588.04	1679.44
588.39	1667.77
588.74	1655.93
589.09	1644.20
589.44	1632.13
589.79	1620.39
590.14	1608.85
590.49	1597.09
590.84	1585.25
591.19	1573.28
591.54	1562.01
591.89	1550.34
592.25	1540.48
592.60	1529.55
592.95	1518.74
593.30	1507.10
593.65	1495.50
594.00	1484.04
594.35	1474.60
594.70	1463.38
595.05	1452.41
595.40	1440.94
595.75	1429.60
596.10	1418.59
596.45	1407.84
596.80	1397.47
597.15	1386.83
597.50	1375.69
597.85	1364.84
598.19	1354.11
598.54	1343.11
598.89	1332.05
599.24	1321.98
599.59	1310.78
599.94	1300.29
600.29	1290.28
600.64	1280.87
600.99	1270.85
601.34	1261.81
601.69	1251.12
602.04	1241.66
602.39	1232.49
602.74	1223.75
603.08	1214.85
603.43	1206.31
603.78	1197.11
604.13	1187.82
604.48	1178.47
604.83	1169.09
605.18	1159.76
605.53	1150.50
605.87	1142.02
606.22	1134.02
606.57	1125.11
606.92	1116.34
607.27	1108.09
607.62	1099.68
607.96	1091.60
608.31	1084.12
608.66	1076.08
609.01	1068.26
609.36	1060.23
609.70	1052.03
610.05	1043.87
610.40	1036.08
610.75	1027.92
611.10	1020.01
611.44	1011.86
611.79	1004.13
612.14	996.75
612.49	989.44
612.83	982.40
613.18	975.01
613.53	967.67
613.88	960.34
614.22	953.10
614.57	945.45
614.92	937.96
615.27	930.68
615.61	923.23
615.96	916.09
616.31	909.02
616.65	902.43
617.00	895.53
617.35	888.60
617.70	881.85
618.04	875.02
618.39	868.45
618.74	862.42
619.08	856.11
619.43	849.53
619.78	842.85
620.12	836.21
620.47	829.72
620.82	822.81
621.16	816.31
621.51	810.35
621.85	804.53
622.20	798.51
622.55	792.35
622.89	786.37
623.24	780.42
623.59	774.32
623.93	768.17
624.28	762.49
624.62	757.33
624.97	751.89
625.32	746.40
625.66	740.76
626.01	735.06
626.35	729.85
626.70	724.65
627.04	719.70
627.39	714.48
627.73	709.50
628.08	704.68
628.43	699.39
628.77	694.23
629.12	689.38
629.46	684.89
629.81	680.35
630.15	675.86
630.50	671.23
630.84	666.72
631.19	662.29
631.53	657.91
631.88	652.93
632.22	648.17
632.57	644.07
632.91	639.63
633.26	635.34
633.60	630.88
633.95	626.51
634.29	621.98
634.64	617.81
634.98	613.24
635.32	609.16
635.67	605.58
636.01	601.52
636.36	597.34
636.70	593.42
637.05	589.32
637.39	585.33
637.73	581.42
638.08	577.73
638.42	573.84
638.77	569.77
639.11	565.67
639.45	561.58
639.80	557.27
640.14	553.43
640.49	549.73
640.83	546.04
641.17	542.52
641.52	539.09
641.86	535.64
642.20	532.50
642.55	529.08
642.89	525.50
643.23	522.15
643.58	519.12
643.92	515.52
644.26	512.51
644.61	509.42
644.95	506.24
645.29	503.02
645.64	499.88
645.98	496.90
646.32	494.27
646.66	491.46
647.01	488.75
647.35	486.14
647.69	483.26
648.04	480.61
648.38	477.87
648.72	475.20
649.06	472.41
649.41	469.63
649.75	466.76
650.09	464.14
650.43	461.46
650.78	458.66
651.12	456.07
651.46	453.29
651.80	450.72
652.14	448.18
652.49	445.69
652.83	443.31
653.17	440.93
653.51	438.28
653.85	435.95
654.20	433.63
654.54	431.24
654.88	428.87
655.22	426.78
655.56	424.59
655.90	422.19
656.25	420.00
656.59	418.00
656.93	415.89
657.27	414.01
657.61	411.76
657.95	409.58
658.29	407.55
658.64	405.51
658.98	403.35
659.32	401.18
659.66	399.10
660.00	397.07
660.34	395.16
660.68	393.29
661.02	391.33
661.36	389.49
661.70	387.51
662.05	385.68
662.39	383.71
662.73	381.96
663.07	380.58
663.41	378.85
663.75	376.95
664.09	375.23
664.43	373.30
664.77	371.67
665.11	370.03
665.45	368.45
665.79	366.97
666.13	365.34
666.47	363.87
666.81	362.40
667.15	360.77
667.49	359.27
667.83	358.00
668.17	356.50
668.51	355.01
668.85	353.77
669.19	352.74
669.53	351.29
669.87	349.82
670.21	348.29
670.55	346.89
670.89	345.86
671.23	344.61
671.57	343.23
671.91	342.05
672.25	340.83
672.58	339.65
672.92	338.35
673.26	337.26
673.60	336.09
673.94	334.94
674.28	333.92
674.62	332.86
674.96	331.60
675.30	330.55
675.64	329.35
675.97	328.22
676.31	326.95
676.65	325.82
676.99	324.88
677.33	323.74
677.67	322.72
678.01	321.41
678.34	320.35
678.68	319.55
679.02	318.46
679.36	317.56
679.70	316.57
680.04	315.67
680.37	314.67
680.71	313.71
681.05	312.83
681.39	311.87
681.73	310.95
682.06	310.07
682.40	309.29
682.74	308.60
683.08	307.89
683.42	306.91
683.75	306.16
684.09	305.33
684.43	304.61
684.77	303.88
685.10	303.15
685.44	302.39
685.78	301.56
686.12	300.79
686.45	299.97
686.79	299.15
687.13	298.45
687.46	297.70
687.80	297.12
688.14	296.31
688.48	295.65
688.81	294.97
689.15	294.43
689.49	293.62
689.82	292.96
690.16	292.05
690.50	291.51
690.83	290.78
691.17	289.90
691.51	289.22
691.84	288.61
692.18	287.91
692.52	287.27
692.85	286.73
693.19	286.39
693.52	285.76
693.86	285.15
694.20	284.53
694.53	283.98
694.87	283.32
695.21	282.73
695.54	282.14
695.88	281.43
696.21	280.62
696.55	280.05
696.88	279.37
697.22	278.75
697.56	278.22
697.89	277.66
698.23	277.30
698.56	276.74
698.90	276.28
699.23	275.80
699.57	275.31
699.90	274.67
700.24	273.97
700.58	273.52
700.91	273.10
701.25	272.99
701.58	272.86
701.92	272.50
702.25	272.02
702.59	271.58
702.92	271.22
703.26	270.87
703.59	270.45
703.93	270.50
704.26	270.27
704.60	269.76
704.93	269.36
705.26	268.92
705.60	268.60
705.93	268.04
706.27	267.73
706.60	267.45
706.94	267.29
707.27	266.89
707.61	266.58
707.94	266.21
708.27	265.44
708.61	264.70
708.94	264.26
709.28	263.97
709.61	263.50
709.94	263.17
710.28	262.81
710.61	262.53
710.95	261.70
711.28	261.58
711.61	261.25
711.95	261.05
712.28	260.64
712.61	260.24
712.95	260.23
713.28	260.10
713.61	259.66
713.95	259.19
714.28	258.90
714.61	258.50
714.95	258.10
715.28	257.76
715.61	257.41
715.95	257.12
716.28	256.79
716.61	256.56
716.95	256.24
717.28	255.99
717.61	255.66
717.94	255.40
718.28	254.73
718.61	254.45
718.94	254.13
719.27	253.86
719.61	253.72
719.94	253.28
720.27	252.73
720.60	252.43
720.94	252.20
721.27	251.96
721.60	251.80
721.93	251.58
722.27	251.52
722.60	251.36
722.93	251.06
723.26	250.80
723.59	250.57
723.93	250.33
724.26	250.02
724.59	249.87
724.92	249.70
725.25	249.65
725.59	249.46
725.92	249.24
726.25	249.04
726.58	248.80
726.91	248.62
727.24	248.54
727.57	248.45
727.91	248.18
728.24	248.05
728.57	247.79
728.90	247.69
729.23	247.33
729.56	247.33
729.89	247.17
730.22	246.99
730.55	246.78
730.89	246.62
731.22	246.43
731.55	246.16
731.88	246.00
732.21	245.85
732.54	245.63
732.87	245.50
733.20	245.43
733.53	245.29
733.86	245.14
734.19	244.97
734.52	244.81
734.85	244.97
735.18	244.75
735.51	244.80
735.84	244.65
736.17	244.64
736.50	244.29
736.83	244.75
737.16	244.61
737.49	244.53
737.82	244.41
738.15	244.35
738.48	244.25
738.81	244.08
739.14	243.74
739.47	243.61
739.80	243.44
740.13	243.33
740.46	243.10
740.79	242.87
741.12	242.71
741.45	242.56
741.78	242.11
742.11	242.17
742.44	241.87
742.77	241.79
743.10	241.53
743.43	241.34
743.75	240.62
744.08	241.10
744.41	240.89
744.74	240.72
745.07	240.47
745.40	240.42
745.73	240.44
746.06	240.35
746.39	240.27
746.71	240.03
747.04	239.84
747.37	239.70
747.70	239.71
748.03	239.58
748.36	239.55
748.68	239.42
749.01	239.13
749.34	239.02
749.67	238.90
750.00	238.84
750.33	239.11
750.65	239.00
750.98	238.24
751.31	238.21
751.64	238.06
751.97	238.28
752.29	238.15
752.62	237.84
752.95	237.72
753.28	237.57
753.60	237.48
753.93	237.46
754.26	237.43
754.59	237.20
754.91	237.08
755.24	236.91
755.57	236.88
755.90	236.79
756.22	236.73
756.55	236.60
756.88	236.44
757.20	236.00
757.53	235.80
757.86	235.78
758.19	235.66
758.51	235.61
758.84	235.26
759.17	235.10
759.49	235.04
759.82	235.23
760.15	235.26
760.47	235.19
760.80	234.98
761.13	234.90
761.45	234.78
761.78	234.67
762.11	234.58
762.43	234.49
762.76	234.34
763.08	234.29
763.41	234.30
763.74	234.34
764.06	234.36
764.39	234.33
764.71	234.25
765.04	234.07
765.37	233.95
765.69	233.89
766.02	233.86
766.34	233.75
766.67	233.59
767.00	233.51
767.32	233.66
767.65	233.87
767.97	233.76
768.30	233.74
768.62	233.70
768.95	233.57
769.27	233.44
769.60	233.50
769.92	233.31
770.25	233.07
770.57	232.85
770.90	232.70
771.22	232.62
771.55	232.53
771.87	232.59
772.20	232.56
772.52	232.96
772.85	233.43
773.17	233.39
773.50	233.18
773.82	233.07
774.15	232.80
774.47	232.53
774.80	232.44
775.12	232.34
775.45	232.26
775.77	232.24
776.09	232.24
776.42	232.19
776.74	232.27
777.07	232.20
777.39	232.24
777.72	232.20
778.04	232.19
778.36	232.12
778.69	232.01
779.01	232.03
779.33	231.41
779.66	230.80
779.98	230.76
780.31	230.70
780.63	230.86
780.95	230.99
781.28	230.81
781.60	230.78
781.92	230.79
782.25	230.79
782.57	230.82
782.89	230.73
783.22	230.61
783.54	230.47
783.86	230.48
784.19	230.34
784.51	230.40
784.83	230.25
785.16	230.17
785.48	230.15
785.80	230.09
786.12	230.25
786.45	230.22
786.77	230.20
787.09	230.15
787.42	229.92
787.74	229.88
788.06	229.90
788.38	229.80
788.71	229.71
789.03	229.69
789.35	229.66
789.67	229.58
789.99	229.64
790.32	229.60
790.64	229.67
790.96	230.02
791.28	229.86
791.61	229.80
791.93	229.75
792.25	229.75
792.57	230.05
792.89	229.87
793.21	229.97
793.54	229.90
793.86	229.94
794.18	229.96
794.50	229.85
794.82	229.90
795.14	229.97
795.47	230.01
795.79	229.95
796.11	229.77
796.43	229.74
796.75	229.69
797.07	229.64
797.39	229.59
797.71	229.28
798.04	229.27
798.36	229.42
798.68	229.55
799.00	229.65
799.32	229.43
799.64	229.58
799.96	229.50
800.28	229.60
800.60	229.52
800.92	229.58
801.24	229.59
801.56	229.55
801.89	229.52
802.21	229.56
802.53	229.55
802.85	229.73
803.17	230.00
803.49	229.92
803.81	229.92
804.13	229.85
804.45	229.80
804.77	229.83
805.09	229.81
805.41	229.70
805.73	229.51
806.05	229.38
806.37	229.31
806.69	229.25
807.01	229.20
807.33	229.25
807.65	229.04
807.97	229.17
808.28	229.13
808.60	229.10
808.92	228.98
809.24	229.22
809.56	229.10
809.88	228.89
810.20	228.88
810.52	228.97
810.84	228.89
811.16	228.79
811.48	228.70
811.80	228.83
812.12	228.77
812.43	228.84
812.75	228.82
813.07	228.73
813.39	228.73
813.71	228.65
814.03	228.55
814.35	228.52
814.67	228.30
814.98	228.25
815.30	228.20
815.62	228.17
815.94	227.79
816.26	227.91
816.58	227.76
816.89	227.71
817.21	227.55
817.53	227.66
817.85	227.64
818.17	227.61
818.48	227.32
818.80	227.40
819.12	227.25
819.44	227.20
819.76	227.08
820.07	227.05
820.39	227.02
820.71	227.05
821.03	227.10
821.34	227.02
821.66	227.06
821.98	227.11
822.30	227.04
822.61	227.34
822.93	227.13
823.25	227.11
823.57	227.13
823.88	227.25
824.20	227.14
824.52	227.22
824.83	227.26
825.15	227.21
825.47	227.26
825.79	227.26
826.10	227.25
826.42	227.26
826.74	227.27
827.05	227.21
827.37	227.23
827.69	227.23
828.00	227.28
828.32	227.23
828.64	227.12
828.95	227.35
829.27	227.26
829.58	227.21
829.90	227.27
830.22	227.31
830.53	227.17
830.85	227.17
831.17	227.05
831.48	226.98
831.80	227.06
832.11	226.97
832.43	226.95
832.75	226.93
833.06	227.27
833.38	227.16
833.69	227.18
834.01	227.18
834.32	227.07
834.64	227.05
834.96	227.07
835.27	227.11
835.59	226.96
835.90	226.90
836.22	226.95
836.53	226.91
836.85	226.85
837.16	227.37
837.48	227.37
837.79	227.55
838.11	227.60
838.42	227.66
838.74	227.76
839.05	227.75
839.37	227.74
839.68	227.44
840.00	227.44
840.31	227.48
840.63	227.49
840.94	227.47
841.26	227.40
841.57	227.38
841.88	227.40
842.20	227.34
842.51	227.24
842.83	227.24
843.14	227.75
843.46	227.72
843.77	227.36
844.08	227.31
844.40	227.21
844.71	227.16
845.03	227.10
845.34	227.02
845.65	227.02
845.97	226.98
846.28	227.02
846.60	227.07
846.91	227.04
847.22	226.96
847.54	227.06
847.85	227.14
848.16	227.08
848.48	227.04
848.79	227.25
849.10	227.24
849.42	227.27
849.73	226.76
850.04	226.76
850.36	226.63
850.67	226.66
850.98	226.62
851.30	226.67
851.61	226.56
851.92	226.51
852.23	226.65
852.55	226.66
852.86	226.60
853.17	226.64
853.49	226.72
853.80	226.82
854.11	226.84
854.42	226.90
854.74	226.89
855.05	226.87
855.36	226.72
855.67	226.75
855.99	226.74
856.30	227.25
856.61	227.27
856.92	227.22
857.23	227.25
857.55	227.27
857.86	227.19
858.17	227.34
858.48	227.32
858.79	227.22
859.11	227.25
859.42	227.30
859.73	227.28
860.04	227.31
860.35	227.10
860.66	226.97
860.98	226.90
861.29	226.95
861.60	226.95
861.91	226.93
862.22	226.83
862.53	226.73
862.84	226.18
863.16	226.24
863.47	226.26
863.78	226.18
864.09	226.18
864.40	226.22
864.71	226.22
865.02	226.28
865.33	226.16
865.64	226.15
865.95	226.06
866.27	226.32
866.58	226.19
866.89	226.31
867.20	226.33
867.51	226.28
867.82	226.27
868.13	226.38
868.44	226.30
868.75	226.45
869.06	226.47
869.37	226.49
869.68	226.35
869.99	226.42
870.30	226.47
870.61	226.51
870.92	226.44
871.23	226.38
871.54	226.38
871.85	226.63
872.16	226.63
872.47	226.58
872.78	226.27
873.09	226.28
873.40	226.20
873.71	226.22
874.02	226.22
874.33	226.18
874.64	226.09
874.95	226.22
875.26	226.18
875.56	226.18
875.87	226.18
876.18	226.19
876.49	226.62
876.80	226.58
877.11	226.45
877.42	226.41
877.73	226.38
878.04	226.35
878.35	226.24
878.66	226.28
878.96	226.30
879.27	226.29
879.58	226.31
879.89	226.29
880.20	226.46
880.51	226.45
880.82	226.46
881.12	226.49
881.43	226.36
881.74	226.28
882.05	226.28
882.36	226.30
882.67	226.31
882.97	225.82
883.28	225.78
883.59	225.76
883.90	225.83
884.21	225.87
884.51	225.80
884.82	225.75
885.13	225.76
885.44	225.73
885.74	225.74
886.05	225.63
886.36	225.69
886.67	225.48
886.98	225.71
887.28	225.74
887.59	225.71
887.90	225.75
888.20	225.72
888.51	225.78
888.82	225.68
889.13	225.76
889.43	226.16
889.74	226.17
890.05	226.20
890.35	226.27
890.66	226.26
890.97	226.24
891.28	226.19
891.58	226.11
891.89	226.15
892.20	226.15
892.50	226.17
892.81	226.12
893.12	226.13
893.42	225.96
893.73	225.99
894.04	225.98
894.34	226.02
894.65	226.04
894.95	226.02
895.26	226.12
895.57	226.36
895.87	225.90
896.18	225.94
896.48	225.97
896.79	225.92
897.10	226.00
897.40	226.07
897.71	226.13
898.01	226.07
898.32	226.19
898.63	226.08
898.93	226.08
899.24	226.10
899.54	226.04
899.85	226.00
900.15	225.99
900.46	226.03
900.76	226.08
901.07	226.04
901.38	226.02
901.68	226.09
901.99	225.79
902.29	225.77
902.60	225.85
902.90	225.84
903.21	225.83
903.51	225.78
903.82	225.89
904.12	225.89
904.43	225.99
904.73	225.92
905.03	226.01
905.34	226.52
905.64	226.59
905.95	226.68
906.25	226.63
906.56	226.59
906.86	226.58
907.17	226.50
907.47	226.51
907.77	226.47
908.08	226.35
908.38	226.36
908.69	226.44
908.99	226.45
909.30	226.45
909.60	226.37
909.90	226.42
910.21	226.27
910.51	226.23
910.81	226.23
911.12	226.22
911.42	226.27
911.73	225.75
912.03	225.68
912.33	225.77
912.64	225.76
912.94	225.72
913.24	225.63
913.55	225.60
913.85	225.62
914.15	225.70
914.46	225.80
914.76	225.87
915.06	225.90
915.37	225.87
915.67	225.86
915.97	225.97
916.27	225.82
916.58	225.80
916.88	225.84
917.18	225.82
917.49	226.25
917.79	226.12
918.09	226.21
918.39	226.37
918.70	226.35
919.00	226.32
919.30	226.61
919.60	226.67
919.91	226.59
920.21	226.55
920.51	226.45
920.81	226.36
921.12	226.38
921.42	226.34
921.72	226.27
922.02	226.29
922.32	226.27
922.63	226.31
922.93	226.66
923.23	226.70
923.53	226.62
923.83	226.22
924.13	226.40
924.44	226.36
924.74	226.37
925.04	226.39
925.34	226.40
925.64	226.19
925.94	226.12
926.24	226.46
926.55	226.45
926.85	226.59
927.15	226.60
927.45	226.54
927.75	226.57
928.05	226.66
928.35	226.62
928.65	226.74
928.95	226.81
929.26	226.54
929.56	226.60
929.86	226.68
930.16	226.60
930.46	226.47
930.76	226.47
931.06	226.30
931.36	226.17
931.66	226.34
931.96	226.33
932.26	226.34
932.56	226.13
932.86	226.15
933.16	226.10
933.46	226.13
933.76	226.13
934.06	226.20
934.36	226.25
934.66	226.24
934.96	226.15
935.26	226.09
935.56	226.16
935.86	225.97
936.16	225.88
936.46	225.90
936.76	225.89
937.06	225.88
937.36	225.99
937.66	226.01
937.96	225.94
938.26	225.82
938.56	225.84
938.86	225.86
939.16	225.93
939.46	225.90
939.76	225.86
940.06	225.79
940.35	225.65
940.65	225.40
940.95	225.49
941.25	225.41
941.55	225.36
941.85	225.33
942.15	225.44
942.45	225.59
942.75	225.57
943.04	225.61
943.34	225.75
943.64	225.62
943.94	225.58
944.24	225.51
944.54	225.55
944.84	225.54
945.13	225.48
945.43	225.49
945.73	225.50
946.03	225.50
946.33	225.53
946.62	225.53
946.92	225.59
947.22	225.56
947.52	225.66
947.82	225.84
948.11	225.77
948.41	225.71
948.71	225.56
949.01	225.55
949.31	225.55
949.60	225.43
949.90	225.53
950.20	225.52
950.50	225.54
950.79	225.52
951.09	225.61
951.39	225.58
951.69	225.52
951.98	225.61
952.28	225.64
952.58	225.62
952.87	225.59
953.17	225.72
953.47	225.60
953.76	225.56
954.06	225.39
954.36	225.33
954.66	225.39
954.95	225.54
955.25	225.62
955.55	225.65
955.84	225.54
956.14	225.56
956.44	225.60
956.73	225.61
957.03	225.70
957.32	225.76
957.62	225.71
957.92	225.82
958.21	225.74
958.51	226.24
958.81	226.25
959.10	226.31
959.40	226.32
959.69	226.45
959.99	226.46
960.29	226.49
960.58	226.51
960.88	226.67
961.17	226.68
961.47	226.72
961.76	226.66
962.06	226.79
962.36	226.71
962.65	226.78
962.95	226.83
963.24	226.85
963.54	226.74
963.83	226.79
964.13	226.71
964.42	226.64
964.72	226.27
965.01	226.32
965.31	226.30
965.60	226.25
965.90	226.55
966.19	226.41
966.49	226.44
966.78	226.43
967.08	226.42
967.37	226.32
967.67	226.24
967.96	226.30
968.26	226.29
968.55	226.43
968.85	226.40
969.14	226.39
969.43	226.28
969.73	226.25
970.02	226.24
970.32	226.22
970.61	226.26
970.91	226.16
971.20	226.05
971.49	225.97
971.79	225.94
972.08	225.58
972.38	225.64
972.67	225.61
972.96	225.66
973.26	225.51
973.55	225.74
973.85	225.75
974.14	225.62
974.43	225.66
974.73	225.49
975.02	225.43
975.31	225.41
975.61	225.41
975.90	225.44
976.19	225.40
976.49	225.41
976.78	225.35
977.07	225.25
977.37	225.34
977.66	225.44
977.95	225.43
978.24	225.46
978.54	225.55
978.83	225.45
979.12	225.40
979.42	225.40
979.71	225.23
980.00	225.16
980.29	225.29
980.59	225.20
980.88	225.37
981.17	225.37
981.46	225.29
981.76	225.28
982.05	225.38
982.34	225.47
982.63	225.44
982.93	225.49
983.22	225.72
983.51	225.71
983.80	225.78
984.09	225.86
984.39	225.80
984.68	225.81
984.97	225.89
985.26	225.85
985.55	225.88
985.85	225.79
986.14	225.91
986.43	225.93
986.72	225.94
987.01	225.75
987.30	225.73
987.59	225.77
987.89	225.85
988.18	225.72
988.47	225.60
988.76	225.61
989.05	225.53
989.34	225.38
989.63	225.50
989.92	225.39
990.22	225.31
990.51	225.35
990.80	225.27
991.09	225.30
991.38	225.38
991.67	225.30
991.96	225.26
992.25	225.28
992.54	225.25
992.83	225.26
993.12	225.31
993.41	225.36
993.70	225.54
993.99	225.59
994.28	225.66
994.58	225.68
994.87	225.67
995.16	225.67
995.45	225.66
995.74	225.46
996.03	225.58
996.32	225.65
996.61	225.76
996.90	225.74
997.19	225.74
997.48	225.73
997.77	225.73
998.06	225.79
998.34	225.72
998.63	225.68
998.92	225.64
999.21	225.66
999.50	225.67
999.79	225.54
1000.08	225.49
1000.37	225.44
1000.66	225.47
1000.95	225.54
1001.24	225.60
1001.53	225.70
1001.82	225.69
1002.11	225.58
1002.40	225.68
1002.68	225.79
1002.97	226.24
1003.26	226.17
1003.55	226.04
1003.84	226.11
1004.13	226.28
1004.42	226.21
1004.71	226.20
1004.99	226.20
1005.28	226.32
1005.57	226.28
1005.86	226.17
1006.15	226.08
1006.44	226.01
1006.72	226.05
1007.01	225.96
1007.30	226.01
1007.59	225.93
1007.88	226.00
1008.17	226.00
1008.45	225.89
1008.74	225.63
1009.03	225.28
1009.32	225.31
1009.60	225.38
1009.89	225.38
1010.18	225.13
1010.47	225.18
1010.76	225.16
1011.04	225.14
1011.33	225.03
1011.62	225.06
1011.91	225.19
1012.19	225.26
1012.48	225.27
1012.77	225.24
1013.05	225.49
1013.34	225.41
1013.63	225.39
1013.92	225.34
1014.20	225.36
1014.49	225.33
1014.78	225.37
1015.06	225.28
1015.35	225.28
1015.64	225.35
1015.92	225.37
1016.21	225.40
1016.50	225.45
1016.78	225.50
1017.07	225.56
1017.36	225.54
1017.64	225.52
1017.93	225.55
1018.22	225.49
1018.50	225.53
1018.79	225.54
1019.08	225.30
1019.36	225.32
1019.65	225.28
1019.93	225.40
1020.22	225.40
1020.51	225.68
1020.79	225.62
1021.08	224.50
1021.36	224.60
1021.65	225.65
1021.94	224.85
1022.22	225.25
1022.51	224.60
1022.79	226.75
1023.08	225.50
1023.36	231.95
1023.65	223.70
>>>>>End Processed Spectral Data<<<<<
