SpectraSuite Data File
++++++++++++++++++++++++++++++++++++
Date: Wed Sep 04 17:44:48 EDT 2013
User: lab3
Dark Spectrum Present: Yes
Reference Spectrum Present: No
Number of Sampled Component Spectra: 1
Spectrometers: USB2E7196
Integration Time (usec): 170000 (USB2E7196)
Spectra Averaged: 20 (USB2E7196)
Boxcar Smoothing: 10 (USB2E7196)
Correct for Electrical Dark: No (USB2E7196)
Strobe/Lamp Enabled: No (USB2E7196)
Correct for Detector Non-linearity: No (USB2E7196)
Correct for Stray Light: No (USB2E7196)
Number of Pixels in Processed Spectrum: 2048
>>>>>Begin Processed Spectral Data<<<<<
339.09	0.00
339.48	213.55
339.86	213.35
340.24	215.50
340.63	216.30
341.01	224.55
341.39	218.15
341.78	221.45
342.16	224.25
342.54	221.80
342.93	211.45
343.31	222.10
343.69	222.60
344.07	223.12
344.46	223.60
344.84	224.04
345.22	224.06
345.60	224.42
345.99	224.56
346.37	224.62
346.75	224.76
347.13	224.83
347.52	224.92
347.90	225.14
348.28	225.17
348.66	225.33
349.05	225.25
349.43	225.31
349.81	225.40
350.19	225.47
350.57	225.54
350.96	225.64
351.34	225.79
351.72	225.90
352.10	225.99
352.48	226.05
352.87	226.03
353.25	226.10
353.63	226.13
354.01	226.25
354.39	226.30
354.77	226.40
355.15	226.67
355.54	226.66
355.92	226.54
356.30	226.66
356.68	227.02
357.06	227.07
357.44	227.08
357.82	227.10
358.20	227.61
358.58	227.66
358.97	227.79
359.35	227.90
359.73	228.07
360.11	228.12
360.49	228.13
360.87	228.27
361.25	228.37
361.63	228.60
362.01	228.65
362.39	228.68
362.77	228.77
363.15	228.75
363.53	228.83
363.91	228.93
364.29	228.95
364.67	228.54
365.05	228.55
365.43	228.66
365.81	228.78
366.19	228.63
366.57	228.87
366.95	228.85
367.33	228.73
367.71	228.64
368.09	228.75
368.47	228.72
368.85	228.65
369.23	228.76
369.61	228.54
369.99	228.65
370.37	228.72
370.75	228.91
371.13	228.88
371.51	228.83
371.89	228.85
372.27	228.85
372.65	228.85
373.03	228.88
373.41	228.75
373.78	228.62
374.16	228.31
374.54	228.12
374.92	228.02
375.30	228.05
375.68	228.00
376.06	227.95
376.44	227.90
376.82	227.89
377.19	227.78
377.57	227.76
377.95	227.57
378.33	227.50
378.71	227.16
379.09	227.09
379.47	227.06
379.84	226.93
380.22	226.83
380.60	226.66
380.98	226.56
381.36	226.48
381.73	226.44
382.11	226.50
382.49	226.50
382.87	226.46
383.25	226.45
383.62	226.90
384.00	226.79
384.38	226.76
384.76	226.84
385.13	227.00
385.51	226.99
385.89	226.92
386.27	226.81
386.64	226.87
387.02	226.85
387.40	226.76
387.78	226.74
388.15	226.71
388.53	226.73
388.91	226.80
389.29	226.75
389.66	226.83
390.04	226.80
390.42	226.86
390.79	226.81
391.17	226.74
391.55	226.20
391.92	226.16
392.30	226.26
392.68	226.16
393.05	226.10
393.43	226.05
393.81	226.11
394.18	226.19
394.56	226.21
394.94	226.34
395.31	226.27
395.69	226.45
396.06	226.57
396.44	226.69
396.82	226.67
397.19	227.01
397.57	226.95
397.95	227.10
398.32	227.03
398.70	227.19
399.07	227.36
399.45	227.42
399.82	227.57
400.20	227.58
400.58	227.64
400.95	227.52
401.33	227.83
401.70	228.27
402.08	228.35
402.45	228.45
402.83	228.63
403.20	228.90
403.58	228.99
403.95	229.23
404.33	229.38
404.71	229.56
405.08	229.95
405.46	230.20
405.83	230.36
406.21	230.64
406.58	230.89
406.96	231.14
407.33	231.49
407.70	231.81
408.08	232.59
408.45	233.08
408.83	233.58
409.20	233.78
409.58	233.90
409.95	234.49
410.33	235.00
410.70	235.40
411.08	235.95
411.45	236.53
411.82	237.10
412.20	237.85
412.57	238.84
412.95	239.22
413.32	240.05
413.69	240.86
414.07	241.71
414.44	242.68
414.82	243.60
415.19	244.84
415.56	246.01
415.94	246.98
416.31	248.27
416.68	249.58
417.06	251.24
417.43	252.81
417.81	254.52
418.18	256.21
418.55	258.11
418.93	260.05
419.30	262.14
419.67	264.25
420.04	266.44
420.42	268.56
420.79	271.49
421.16	274.23
421.54	277.20
421.91	280.12
422.28	283.06
422.66	286.35
423.03	289.58
423.40	292.86
423.77	296.22
424.15	299.76
424.52	303.50
424.89	307.45
425.26	311.30
425.64	314.96
426.01	319.09
426.38	323.25
426.75	327.61
427.13	332.02
427.50	336.68
427.87	341.50
428.24	346.32
428.61	350.66
428.99	355.74
429.36	361.02
429.73	366.31
430.10	371.65
430.47	377.02
430.85	382.50
431.22	388.41
431.59	395.01
431.96	401.05
432.33	407.71
432.70	414.26
433.08	421.86
433.45	428.97
433.82	436.10
434.19	444.08
434.56	452.09
434.93	459.63
435.30	467.15
435.68	475.41
436.05	483.67
436.42	491.83
436.79	499.28
437.16	507.37
437.53	515.93
437.90	524.46
438.27	532.86
438.64	541.50
439.01	549.58
439.38	556.68
439.75	563.63
440.13	571.45
440.50	578.71
440.87	584.68
441.24	591.01
441.61	597.87
441.98	602.81
442.35	608.37
442.72	614.27
443.09	620.13
443.46	623.54
443.83	625.66
444.20	627.56
444.57	630.30
444.94	631.41
445.31	632.50
445.68	633.91
446.05	634.05
446.42	632.84
446.79	631.51
447.16	629.75
447.53	628.61
447.90	625.02
448.27	621.56
448.64	616.73
449.01	613.07
449.37	606.95
449.74	601.14
450.11	594.58
450.48	586.96
450.85	578.99
451.22	572.31
451.59	566.03
451.96	559.91
452.33	552.00
452.70	544.88
453.07	536.50
453.43	527.56
453.80	519.40
454.17	511.61
454.54	504.10
454.91	496.21
455.28	488.39
455.65	481.23
456.02	474.50
456.38	468.42
456.75	460.90
457.12	454.56
457.49	448.43
457.86	442.18
458.23	437.16
458.59	431.60
458.96	425.97
459.33	420.97
459.70	415.92
460.07	411.93
460.43	407.38
460.80	403.15
461.17	399.62
461.54	395.87
461.91	392.13
462.27	388.38
462.64	385.16
463.01	381.67
463.38	378.43
463.74	374.58
464.11	371.65
464.48	369.07
464.85	366.41
465.21	364.33
465.58	362.13
465.95	359.37
466.32	357.28
466.68	355.08
467.05	352.85
467.42	350.83
467.78	348.57
468.15	346.51
468.52	345.04
468.88	342.78
469.25	340.87
469.62	339.48
469.98	337.88
470.35	336.50
470.72	335.14
471.08	333.50
471.45	332.35
471.82	331.10
472.18	329.82
472.55	328.88
472.92	327.56
473.28	326.45
473.65	325.45
474.02	324.44
474.38	323.65
474.75	322.98
475.11	322.13
475.48	321.62
475.85	320.96
476.21	320.33
476.58	319.92
476.94	319.61
477.31	319.21
477.67	318.89
478.04	318.50
478.41	318.33
478.77	318.66
479.14	318.22
479.50	318.13
479.87	318.18
480.23	318.22
480.60	318.26
480.96	318.32
481.33	318.68
481.69	318.83
482.06	318.99
482.42	319.30
482.79	319.70
483.15	320.06
483.52	320.73
483.88	321.20
484.25	321.77
484.61	322.40
484.98	323.05
485.34	324.05
485.71	325.09
486.07	326.04
486.44	326.58
486.80	327.79
487.17	328.93
487.53	330.21
487.90	331.51
488.26	333.11
488.62	334.77
488.99	336.12
489.35	337.85
489.72	339.75
490.08	341.71
490.44	343.68
490.81	345.96
491.17	348.10
491.54	350.50
491.90	353.06
492.26	355.60
492.63	358.38
492.99	361.06
493.36	364.17
493.72	367.44
494.08	370.80
494.45	374.41
494.81	378.41
495.17	382.29
495.54	386.52
495.90	390.84
496.26	395.19
496.63	399.88
496.99	404.66
497.35	409.70
497.72	414.82
498.08	420.23
498.44	425.64
498.80	431.65
499.17	437.73
499.53	443.95
499.89	450.47
500.26	457.22
500.62	464.19
500.98	471.40
501.34	478.68
501.71	486.34
502.07	494.10
502.43	502.00
502.79	510.41
503.16	518.82
503.52	527.58
503.88	536.63
504.24	546.25
504.60	556.18
504.97	566.25
505.33	576.53
505.69	587.43
506.05	598.38
506.41	609.30
506.78	620.64
507.14	632.40
507.50	644.64
507.86	657.07
508.22	669.76
508.59	682.62
508.95	696.09
509.31	710.13
509.67	724.02
510.03	737.90
510.39	752.09
510.75	766.90
511.12	781.81
511.48	797.16
511.84	812.45
512.20	828.05
512.56	844.02
512.92	860.69
513.28	877.08
513.64	894.00
514.00	911.22
514.37	928.71
514.73	946.54
515.09	964.43
515.45	982.21
515.81	1000.31
516.17	1018.66
516.53	1036.73
516.89	1054.77
517.25	1073.90
517.61	1093.88
517.97	1113.72
518.33	1133.51
518.69	1153.28
519.05	1173.54
519.41	1193.68
519.77	1214.03
520.13	1234.41
520.49	1254.34
520.85	1274.77
521.21	1295.25
521.57	1315.84
521.93	1336.28
522.29	1356.78
522.65	1376.51
523.01	1397.16
523.37	1417.21
523.73	1437.60
524.09	1457.72
524.45	1477.86
524.81	1498.06
525.17	1517.91
525.53	1537.93
525.89	1557.83
526.25	1577.90
526.61	1597.44
526.97	1617.60
527.33	1638.19
527.68	1659.15
528.04	1679.85
528.40	1700.27
528.76	1720.66
529.12	1740.69
529.48	1760.62
529.84	1779.91
530.20	1800.40
530.56	1820.49
530.91	1840.62
531.27	1860.30
531.63	1880.30
531.99	1900.42
532.35	1919.47
532.71	1938.85
533.07	1958.58
533.42	1977.88
533.78	1997.23
534.14	2016.43
534.50	2034.93
534.86	2053.55
535.21	2070.48
535.57	2088.25
535.93	2105.10
536.29	2122.39
536.65	2139.74
537.00	2156.33
537.36	2173.43
537.72	2189.02
538.08	2204.63
538.44	2220.73
538.79	2236.34
539.15	2251.67
539.51	2266.74
539.87	2281.23
540.22	2294.36
540.58	2308.17
540.94	2320.50
541.29	2332.27
541.65	2344.10
542.01	2355.89
542.37	2365.57
542.72	2375.94
543.08	2385.42
543.44	2396.22
543.79	2405.16
544.15	2414.25
544.51	2423.59
544.87	2432.31
545.22	2440.41
545.58	2447.93
545.94	2454.21
546.29	2460.01
546.65	2465.74
547.01	2470.43
547.36	2475.43
547.72	2480.41
548.07	2483.16
548.43	2487.67
548.79	2491.81
549.14	2495.10
549.50	2498.07
549.86	2501.23
550.21	2503.75
550.57	2507.02
550.92	2507.93
551.28	2508.83
551.64	2510.40
551.99	2511.54
552.35	2512.42
552.70	2514.31
553.06	2515.57
553.41	2516.32
553.77	2517.68
554.13	2518.69
554.48	2519.84
554.84	2520.67
555.19	2521.40
555.55	2522.98
555.90	2522.01
556.26	2520.52
556.61	2518.37
556.97	2516.06
557.32	2515.18
557.68	2514.06
558.03	2512.30
558.39	2510.30
558.74	2508.78
559.10	2505.23
559.45	2501.31
559.81	2496.67
560.16	2491.02
560.52	2485.76
560.87	2481.22
561.23	2475.37
561.58	2469.61
561.94	2462.46
562.29	2455.06
562.64	2447.82
563.00	2439.46
563.35	2432.57
563.71	2426.07
564.06	2419.85
564.42	2413.22
564.77	2406.05
565.12	2398.53
565.48	2390.58
565.83	2383.00
566.19	2375.21
566.54	2367.29
566.89	2359.64
567.25	2352.28
567.60	2345.15
567.96	2337.78
568.31	2329.82
568.66	2321.42
569.02	2312.42
569.37	2304.69
569.72	2297.30
570.08	2288.26
570.43	2279.02
570.78	2270.29
571.14	2260.97
571.49	2251.20
571.84	2241.82
572.20	2231.61
572.55	2221.49
572.90	2210.47
573.26	2200.40
573.61	2189.59
573.96	2178.60
574.31	2166.52
574.67	2154.81
575.02	2142.43
575.37	2129.65
575.72	2116.83
576.08	2105.20
576.43	2093.10
576.78	2080.20
577.13	2066.77
577.49	2054.59
577.84	2042.90
578.19	2031.05
578.54	2018.78
578.90	2007.30
579.25	1995.27
579.60	1982.95
579.95	1970.51
580.30	1957.87
580.66	1944.78
581.01	1931.70
581.36	1918.29
581.71	1906.21
582.06	1893.75
582.42	1881.99
582.77	1870.08
583.12	1858.48
583.47	1846.37
583.82	1834.66
584.17	1822.91
584.53	1811.71
584.88	1798.92
585.23	1786.46
585.58	1772.82
585.93	1760.01
586.28	1746.91
586.63	1733.74
586.98	1720.12
587.34	1707.70
587.69	1695.22
588.04	1683.30
588.39	1671.79
588.74	1660.28
589.09	1649.10
589.44	1636.89
589.79	1624.96
590.14	1613.48
590.49	1601.80
590.84	1590.10
591.19	1578.53
591.54	1566.76
591.89	1554.78
592.25	1545.43
592.60	1534.09
592.95	1523.14
593.30	1511.79
593.65	1500.24
594.00	1488.56
594.35	1479.00
594.70	1467.16
595.05	1456.15
595.40	1444.57
595.75	1432.99
596.10	1422.15
596.45	1410.81
596.80	1400.36
597.15	1389.49
597.50	1378.33
597.85	1367.45
598.19	1356.66
598.54	1345.44
598.89	1334.82
599.24	1324.79
599.59	1313.54
599.94	1303.55
600.29	1294.02
600.64	1284.45
600.99	1274.31
601.34	1265.21
601.69	1254.69
602.04	1245.53
602.39	1236.21
602.74	1227.31
603.08	1218.39
603.43	1209.57
603.78	1200.43
604.13	1191.26
604.48	1182.20
604.83	1172.87
605.18	1163.57
605.53	1154.53
605.87	1145.99
606.22	1137.95
606.57	1129.23
606.92	1120.41
607.27	1111.83
607.62	1103.35
607.96	1095.13
608.31	1087.76
608.66	1079.88
609.01	1071.85
609.36	1063.84
609.70	1055.92
610.05	1047.92
610.40	1040.00
610.75	1031.79
611.10	1023.95
611.44	1015.79
611.79	1008.03
612.14	1000.63
612.49	993.32
612.83	986.08
613.18	978.79
613.53	971.40
613.88	963.65
614.22	956.20
614.57	948.52
614.92	940.99
615.27	933.50
615.61	926.20
615.96	919.03
616.31	911.74
616.65	905.05
617.00	898.15
617.35	891.27
617.70	884.40
618.04	877.67
618.39	870.97
618.74	865.00
619.08	858.41
619.43	851.68
619.78	844.94
620.12	838.10
620.47	831.41
620.82	824.56
621.16	818.27
621.51	812.29
621.85	806.44
622.20	800.15
622.55	794.14
622.89	787.88
623.24	781.72
623.59	775.84
623.93	769.74
624.28	763.78
624.62	758.29
624.97	752.71
625.32	747.19
625.66	741.64
626.01	735.59
626.35	730.35
626.70	725.13
627.04	720.13
627.39	714.95
627.73	709.86
628.08	705.01
628.43	699.90
628.77	694.73
629.12	689.70
629.46	685.23
629.81	680.89
630.15	676.37
630.50	671.71
630.84	667.02
631.19	662.41
631.53	658.12
631.88	653.25
632.22	648.75
632.57	644.59
632.91	640.31
633.26	636.39
633.60	631.85
633.95	627.40
634.29	622.79
634.64	618.42
634.98	614.01
635.32	609.91
635.67	606.10
636.01	602.15
636.36	598.01
636.70	594.13
637.05	589.92
637.39	586.03
637.73	582.18
638.08	578.36
638.42	574.38
638.77	570.24
639.11	566.07
639.45	561.95
639.80	557.74
640.14	553.68
640.49	549.76
640.83	546.25
641.17	542.85
641.52	539.49
641.86	536.17
642.20	533.28
642.55	529.62
642.89	526.12
643.23	522.73
643.58	519.74
643.92	516.17
644.26	512.91
644.61	509.82
644.95	506.66
645.29	503.64
645.64	500.85
645.98	497.95
646.32	495.19
646.66	492.32
647.01	489.51
647.35	486.99
647.69	484.20
648.04	481.45
648.38	478.80
648.72	476.04
649.06	473.08
649.41	470.11
649.75	467.37
650.09	464.68
650.43	462.05
650.78	459.35
651.12	456.75
651.46	454.03
651.80	451.38
652.14	448.66
652.49	446.11
652.83	443.52
653.17	440.98
653.51	438.54
653.85	436.22
654.20	433.88
654.54	431.18
654.88	428.82
655.22	426.72
655.56	424.42
655.90	422.32
656.25	420.37
656.59	418.21
656.93	416.27
657.27	414.37
657.61	412.03
657.95	409.91
658.29	407.84
658.64	405.99
658.98	403.83
659.32	401.82
659.66	399.81
660.00	397.86
660.34	396.01
660.68	394.13
661.02	392.24
661.36	390.31
661.70	388.52
662.05	386.61
662.39	384.69
662.73	382.95
663.07	381.28
663.41	379.55
663.75	377.67
664.09	375.87
664.43	373.90
664.77	372.33
665.11	370.60
665.45	369.08
665.79	367.52
666.13	365.89
666.47	364.37
666.81	362.73
667.15	361.00
667.49	359.48
667.83	358.12
668.17	356.55
668.51	355.17
668.85	353.95
669.19	352.91
669.53	351.41
669.87	350.06
670.21	348.58
670.55	347.21
670.89	346.16
671.23	344.79
671.57	343.52
671.91	342.14
672.25	340.83
672.58	339.56
672.92	338.19
673.26	337.07
673.60	335.92
673.94	334.84
674.28	333.82
674.62	332.72
674.96	331.42
675.30	330.37
675.64	329.29
675.97	328.08
676.31	326.76
676.65	325.61
676.99	324.60
677.33	323.51
677.67	322.41
678.01	321.14
678.34	320.21
678.68	319.32
679.02	318.29
679.36	317.39
679.70	316.38
680.04	315.37
680.37	314.48
680.71	313.51
681.05	312.61
681.39	311.72
681.73	310.75
682.06	309.96
682.40	309.05
682.74	308.20
683.08	307.52
683.42	306.61
683.75	305.84
684.09	304.94
684.43	304.16
684.77	303.40
685.10	302.65
685.44	301.79
685.78	300.89
686.12	300.19
686.45	299.43
686.79	298.63
687.13	298.01
687.46	297.26
687.80	296.72
688.14	295.97
688.48	295.25
688.81	294.59
689.15	293.97
689.49	293.25
689.82	292.55
690.16	291.62
690.50	290.96
690.83	290.25
691.17	289.53
691.51	288.79
691.84	288.15
692.18	287.45
692.52	286.78
692.85	286.29
693.19	285.90
693.52	285.27
693.86	284.77
694.20	284.12
694.53	283.54
694.87	282.81
695.21	282.23
695.54	281.64
695.88	281.05
696.21	280.35
696.55	279.81
696.88	279.31
697.22	278.70
697.56	278.22
697.89	277.68
698.23	277.18
698.56	276.65
698.90	276.23
699.23	275.76
699.57	275.37
699.90	274.76
700.24	274.10
700.58	273.70
700.91	273.19
701.25	273.12
701.58	273.00
701.92	272.64
702.25	272.15
702.59	271.71
702.92	271.32
703.26	270.95
703.59	270.61
703.93	270.54
704.26	270.33
704.60	269.96
704.93	269.49
705.26	268.95
705.60	268.63
705.93	268.08
706.27	267.82
706.60	267.50
706.94	267.34
707.27	266.95
707.61	266.60
707.94	266.24
708.27	265.50
708.61	264.72
708.94	264.32
709.28	264.06
709.61	263.71
709.94	263.39
710.28	262.97
710.61	262.57
710.95	261.74
711.28	261.63
711.61	261.17
711.95	261.02
712.28	260.70
712.61	260.34
712.95	260.31
713.28	260.16
713.61	259.73
713.95	259.28
714.28	259.03
714.61	258.67
714.95	258.34
715.28	257.95
715.61	257.62
715.95	257.26
716.28	256.92
716.61	256.65
716.95	256.23
717.28	256.01
717.61	255.75
717.94	255.52
718.28	254.90
718.61	254.64
718.94	254.31
719.27	253.99
719.61	253.74
719.94	253.40
720.27	252.86
720.60	252.62
720.94	252.39
721.27	252.15
721.60	252.02
721.93	251.76
722.27	251.74
722.60	251.70
722.93	251.39
723.26	251.16
723.59	250.93
723.93	250.79
724.26	250.58
724.59	250.28
724.92	250.05
725.25	250.01
725.59	249.83
725.92	249.61
726.25	249.52
726.58	249.34
726.91	249.08
727.24	249.04
727.57	248.80
727.91	248.50
728.24	248.40
728.57	248.13
728.90	248.01
729.23	247.70
729.56	247.70
729.89	247.63
730.22	247.43
730.55	247.17
730.89	246.99
731.22	246.84
731.55	246.70
731.88	246.53
732.21	246.28
732.54	246.11
732.87	245.96
733.20	245.81
733.53	245.67
733.86	245.53
734.19	245.22
734.52	245.16
734.85	245.37
735.18	245.13
735.51	245.11
735.84	244.98
736.17	244.95
736.50	244.57
736.83	245.00
737.16	244.80
737.49	244.70
737.82	244.55
738.15	244.45
738.48	244.27
738.81	244.17
739.14	243.99
739.47	243.79
739.80	243.65
740.13	243.54
740.46	243.40
740.79	243.17
741.12	243.02
741.45	242.94
741.78	242.48
742.11	242.45
742.44	242.20
742.77	242.09
743.10	241.90
743.43	241.75
743.75	241.13
744.08	241.69
744.41	241.55
744.74	241.40
745.07	241.15
745.40	241.12
745.73	241.20
746.06	241.12
746.39	241.06
746.71	240.92
747.04	240.78
747.37	240.59
747.70	240.57
748.03	240.46
748.36	240.24
748.68	240.12
749.01	239.85
749.34	239.71
749.67	239.60
750.00	239.56
750.33	239.77
750.65	239.63
750.98	238.90
751.31	238.79
751.64	238.71
751.97	238.84
752.29	238.79
752.62	238.45
752.95	238.25
753.28	238.08
753.60	237.95
753.93	237.88
754.26	237.83
754.59	237.53
754.91	237.32
755.24	237.18
755.57	237.14
755.90	237.06
756.22	236.89
756.55	236.66
756.88	236.35
757.20	235.90
757.53	235.68
757.86	235.59
758.19	235.52
758.51	235.38
758.84	235.04
759.17	234.79
759.49	234.69
759.82	234.88
760.15	234.84
760.47	234.74
760.80	234.55
761.13	234.44
761.45	234.36
761.78	234.43
762.11	234.44
762.43	234.26
762.76	234.19
763.08	234.20
763.41	234.20
763.74	234.26
764.06	234.14
764.39	234.09
764.71	233.97
765.04	233.85
765.37	233.74
765.69	233.75
766.02	233.71
766.34	233.65
766.67	233.35
767.00	233.36
767.32	233.49
767.65	233.64
767.97	233.63
768.30	233.64
768.62	233.53
768.95	233.37
769.27	233.33
769.60	233.34
769.92	233.23
770.25	233.07
770.57	232.91
770.90	232.89
771.22	232.83
771.55	232.74
771.87	232.70
772.20	232.65
772.52	232.91
772.85	233.43
773.17	233.38
773.50	233.32
773.82	233.22
774.15	232.95
774.47	232.67
774.80	232.53
775.12	232.43
775.45	232.30
775.77	232.30
776.09	232.27
776.42	232.13
776.74	232.21
777.07	232.16
777.39	232.10
777.72	232.03
778.04	232.06
778.36	232.03
778.69	232.02
779.01	232.02
779.33	231.63
779.66	231.02
779.98	230.97
780.31	230.91
780.63	231.07
780.95	231.13
781.28	231.06
781.60	230.99
781.92	230.97
782.25	231.01
782.57	230.95
782.89	230.85
783.22	230.79
783.54	230.66
783.86	230.68
784.19	230.57
784.51	230.68
784.83	230.51
785.16	230.43
785.48	230.30
785.80	230.29
786.12	230.20
786.45	230.17
786.77	230.19
787.09	230.18
787.42	229.93
787.74	229.92
788.06	229.95
788.38	229.98
788.71	229.88
789.03	229.84
789.35	229.90
789.67	229.84
789.99	229.82
790.32	229.76
790.64	229.80
790.96	230.23
791.28	229.96
791.61	229.94
791.93	230.00
792.25	230.02
792.57	230.31
792.89	230.20
793.21	230.18
793.54	230.03
793.86	229.96
794.18	229.99
794.50	229.92
794.82	229.94
795.14	229.89
795.47	229.97
795.79	229.99
796.11	229.86
796.43	229.81
796.75	229.82
797.07	229.75
797.39	229.67
797.71	229.30
798.04	229.37
798.36	229.37
798.68	229.27
799.00	229.25
799.32	228.97
799.64	229.06
799.96	229.08
800.28	229.18
800.60	229.17
800.92	229.15
801.24	229.12
801.56	229.05
801.89	229.01
802.21	229.01
802.53	228.89
802.85	228.92
803.17	229.14
803.49	229.06
803.81	229.07
804.13	229.02
804.45	228.92
804.77	228.96
805.09	228.95
805.41	228.94
805.73	228.87
806.05	228.77
806.37	228.70
806.69	228.60
807.01	228.55
807.33	228.52
807.65	228.35
807.97	228.50
808.28	228.36
808.60	228.36
808.92	228.25
809.24	228.55
809.56	228.52
809.88	228.31
810.20	228.25
810.52	228.26
810.84	228.19
811.16	228.13
811.48	228.06
811.80	228.22
812.12	228.30
812.43	228.39
812.75	228.35
813.07	228.34
813.39	228.32
813.71	228.23
814.03	228.18
814.35	228.22
814.67	228.00
814.98	228.06
815.30	228.05
815.62	227.95
815.94	227.57
816.26	227.72
816.58	227.69
816.89	227.79
817.21	227.73
817.53	227.70
817.85	227.78
818.17	227.75
818.48	227.50
818.80	227.49
819.12	227.40
819.44	227.30
819.76	227.20
820.07	227.19
820.39	227.22
820.71	227.18
821.03	227.18
821.34	227.14
821.66	227.15
821.98	227.17
822.30	227.22
822.61	227.57
822.93	227.31
823.25	227.24
823.57	227.13
823.88	227.24
824.20	227.25
824.52	227.32
824.83	227.35
825.15	227.32
825.47	227.28
825.79	227.32
826.10	227.40
826.42	227.42
826.74	227.44
827.05	227.42
827.37	227.46
827.69	227.43
828.00	227.47
828.32	227.45
828.64	227.34
828.95	227.54
829.27	227.47
829.58	227.55
829.90	227.64
830.22	227.67
830.53	227.51
830.85	227.45
831.17	227.35
831.48	227.36
831.80	227.39
832.11	227.26
832.43	227.25
832.75	227.15
833.06	227.42
833.38	227.33
833.69	227.31
834.01	227.37
834.32	227.31
834.64	227.17
834.96	227.18
835.27	227.17
835.59	227.02
835.90	226.89
836.22	226.82
836.53	226.76
836.85	226.72
837.16	227.26
837.48	227.28
837.79	227.38
838.11	227.32
838.42	227.30
838.74	227.48
839.05	227.41
839.37	227.47
839.68	227.20
840.00	227.19
840.31	227.24
840.63	227.08
840.94	227.08
841.26	227.12
841.57	227.11
841.88	227.17
842.20	227.10
842.51	227.04
842.83	227.02
843.14	227.49
843.46	227.55
843.77	227.15
844.08	227.16
844.40	227.00
844.71	226.95
845.03	226.95
845.34	226.88
845.65	226.87
845.97	226.88
846.28	226.84
846.60	226.88
846.91	226.79
847.22	226.88
847.54	227.01
847.85	227.02
848.16	226.95
848.48	226.88
848.79	227.07
849.10	227.13
849.42	227.13
849.73	226.64
850.04	226.58
850.36	226.50
850.67	226.61
850.98	226.69
851.30	226.76
851.61	226.70
851.92	226.70
852.23	226.82
852.55	226.83
852.86	226.92
853.17	226.91
853.49	227.01
853.80	227.10
854.11	227.15
854.42	227.25
854.74	227.27
855.05	227.31
855.36	227.14
855.67	227.10
855.99	227.17
856.30	227.77
856.61	227.80
856.92	227.76
857.23	227.73
857.55	227.66
857.86	227.64
858.17	227.76
858.48	227.68
858.79	227.59
859.11	227.59
859.42	227.52
859.73	227.49
860.04	227.42
860.35	227.30
860.66	227.11
860.98	227.03
861.29	227.07
861.60	227.00
861.91	227.10
862.22	226.99
862.53	226.90
862.84	226.32
863.16	226.42
863.47	226.34
863.78	226.28
864.09	226.35
864.40	226.35
864.71	226.34
865.02	226.41
865.33	226.35
865.64	226.24
865.95	226.27
866.27	226.59
866.58	226.60
866.89	226.59
867.20	226.64
867.51	226.58
867.82	226.48
868.13	226.65
868.44	226.48
868.75	226.65
869.06	226.64
869.37	226.66
869.68	226.55
869.99	226.66
870.30	226.64
870.61	226.61
870.92	226.53
871.23	226.47
871.54	226.54
871.85	226.66
872.16	226.74
872.47	226.69
872.78	226.37
873.09	226.44
873.40	226.41
873.71	226.37
874.02	226.45
874.33	226.45
874.64	226.28
874.95	226.42
875.26	226.28
875.56	226.24
875.87	226.28
876.18	226.18
876.49	226.66
876.80	226.59
877.11	226.55
877.42	226.60
877.73	226.59
878.04	226.50
878.35	226.45
878.66	226.50
878.96	226.44
879.27	226.47
879.58	226.39
879.89	226.41
880.20	226.54
880.51	226.47
880.82	226.53
881.12	226.61
881.43	226.51
881.74	226.45
882.05	226.39
882.36	226.33
882.67	226.46
882.97	225.86
883.28	225.87
883.59	225.89
883.90	225.89
884.21	225.95
884.51	225.88
884.82	225.87
885.13	225.82
885.44	225.90
885.74	225.91
886.05	225.91
886.36	225.84
886.67	225.68
886.98	226.02
887.28	225.99
887.59	226.00
887.90	225.97
888.20	226.04
888.51	226.14
888.82	226.10
889.13	226.05
889.43	226.49
889.74	226.49
890.05	226.43
890.35	226.40
890.66	226.36
890.97	226.37
891.28	226.32
891.58	226.33
891.89	226.35
892.20	226.32
892.50	226.33
892.81	226.30
893.12	226.33
893.42	226.00
893.73	226.03
894.04	225.97
894.34	226.04
894.65	225.98
894.95	226.00
895.26	226.03
895.57	226.30
895.87	225.85
896.18	225.93
896.48	225.98
896.79	226.00
897.10	226.02
897.40	225.97
897.71	226.02
898.01	225.93
898.32	225.85
898.63	225.82
898.93	225.75
899.24	225.72
899.54	225.70
899.85	225.70
900.15	225.72
900.46	225.76
900.76	225.84
901.07	225.80
901.38	225.74
901.68	225.79
901.99	225.48
902.29	225.52
902.60	225.45
902.90	225.38
903.21	225.37
903.51	225.41
903.82	225.49
904.12	225.50
904.43	225.60
904.73	225.63
905.03	225.66
905.34	226.15
905.64	226.26
905.95	226.26
906.25	226.28
906.56	226.31
906.86	226.37
907.17	226.25
907.47	226.37
907.77	226.35
908.08	226.23
908.38	226.32
908.69	226.38
908.99	226.46
909.30	226.53
909.60	226.55
909.90	226.52
910.21	226.46
910.51	226.34
910.81	226.32
911.12	226.33
911.42	226.31
911.73	225.83
912.03	225.86
912.33	225.97
912.64	225.93
912.94	225.91
913.24	225.76
913.55	225.83
913.85	225.81
914.15	225.90
914.46	226.00
914.76	225.93
915.06	225.82
915.37	225.78
915.67	225.72
915.97	225.72
916.27	225.68
916.58	225.72
916.88	225.75
917.18	225.77
917.49	226.14
917.79	226.18
918.09	226.27
918.39	226.39
918.70	226.39
919.00	226.48
919.30	226.69
919.60	226.66
919.91	226.58
920.21	226.61
920.51	226.52
920.81	226.50
921.12	226.57
921.42	226.63
921.72	226.60
922.02	226.71
922.32	226.76
922.63	226.73
922.93	226.94
923.23	226.98
923.53	226.87
923.83	226.53
924.13	226.59
924.44	226.57
924.74	226.61
925.04	226.68
925.34	226.66
925.64	226.45
925.94	226.55
926.24	226.87
926.55	226.81
926.85	226.91
927.15	226.85
927.45	226.87
927.75	226.85
928.05	226.89
928.35	226.77
928.65	226.88
928.95	226.92
929.26	226.71
929.56	226.84
929.86	226.94
930.16	226.92
930.46	226.84
930.76	226.85
931.06	226.63
931.36	226.52
931.66	226.55
931.96	226.62
932.26	226.58
932.56	226.36
932.86	226.37
933.16	226.32
933.46	226.34
933.76	226.27
934.06	226.41
934.36	226.56
934.66	226.59
934.96	226.50
935.26	226.54
935.56	226.64
935.86	226.50
936.16	226.41
936.46	226.39
936.76	226.31
937.06	226.17
937.36	226.25
937.66	226.22
937.96	226.24
938.26	226.07
938.56	226.09
938.86	226.00
939.16	226.09
939.46	226.10
939.76	226.15
940.06	226.13
940.35	226.05
940.65	225.86
940.95	225.89
941.25	225.83
941.55	225.69
941.85	225.64
942.15	225.72
942.45	225.88
942.75	225.87
943.04	225.95
943.34	226.08
943.64	226.00
943.94	225.96
944.24	225.94
944.54	225.99
944.84	225.91
945.13	225.89
945.43	225.80
945.73	225.83
946.03	225.75
946.33	225.74
946.62	225.67
946.92	225.69
947.22	225.75
947.52	225.71
947.82	225.82
948.11	225.84
948.41	225.72
948.71	225.53
949.01	225.58
949.31	225.56
949.60	225.57
949.90	225.66
950.20	225.61
950.50	225.59
950.79	225.57
951.09	225.72
951.39	225.73
951.69	225.64
951.98	225.73
952.28	225.77
952.58	225.68
952.87	225.63
953.17	225.61
953.47	225.45
953.76	225.44
954.06	225.33
954.36	225.25
954.66	225.26
954.95	225.48
955.25	225.49
955.55	225.49
955.84	225.41
956.14	225.44
956.44	225.48
956.73	225.40
957.03	225.40
957.32	225.38
957.62	225.41
957.92	225.58
958.21	225.56
958.51	226.10
958.81	226.25
959.10	226.34
959.40	226.47
959.69	226.60
959.99	226.71
960.29	226.72
960.58	226.74
960.88	226.85
961.17	226.78
961.47	226.85
961.76	226.85
962.06	226.93
962.36	226.89
962.65	226.95
962.95	226.98
963.24	227.00
963.54	227.08
963.83	227.12
964.13	227.07
964.42	226.94
964.72	226.54
965.01	226.52
965.31	226.51
965.60	226.40
965.90	226.68
966.19	226.54
966.49	226.60
966.78	226.61
967.08	226.66
967.37	226.60
967.67	226.54
967.96	226.62
968.26	226.60
968.55	226.66
968.85	226.57
969.14	226.55
969.43	226.53
969.73	226.36
970.02	226.32
970.32	226.30
970.61	226.28
970.91	226.18
971.20	226.12
971.49	226.03
971.79	226.10
972.08	225.77
972.38	225.87
972.67	225.89
972.96	225.92
973.26	225.80
973.55	225.99
973.85	225.86
974.14	225.78
974.43	225.85
974.73	225.64
975.02	225.62
975.31	225.59
975.61	225.55
975.90	225.53
976.19	225.47
976.49	225.53
976.78	225.55
977.07	225.47
977.37	225.50
977.66	225.55
977.95	225.45
978.24	225.47
978.54	225.51
978.83	225.41
979.12	225.33
979.42	225.42
979.71	225.30
980.00	225.28
980.29	225.27
980.59	225.11
980.88	225.31
981.17	225.29
981.46	225.34
981.76	225.32
982.05	225.40
982.34	225.41
982.63	225.39
982.93	225.34
983.22	225.51
983.51	225.55
983.80	225.61
984.09	225.67
984.39	225.64
984.68	225.59
984.97	225.67
985.26	225.64
985.55	225.60
985.85	225.50
986.14	225.61
986.43	225.67
986.72	225.69
987.01	225.52
987.30	225.55
987.59	225.48
987.89	225.55
988.18	225.42
988.47	225.36
988.76	225.26
989.05	225.33
989.34	225.22
989.63	225.35
989.92	225.24
990.22	225.20
990.51	225.20
990.80	225.18
991.09	225.19
991.38	225.34
991.67	225.26
991.96	225.20
992.25	225.21
992.54	225.11
992.83	225.10
993.12	225.11
993.41	225.14
993.70	225.45
993.99	225.58
994.28	225.69
994.58	225.78
994.87	225.75
995.16	225.76
995.45	225.80
995.74	225.60
996.03	225.77
996.32	225.85
996.61	225.98
996.90	226.00
997.19	226.03
997.48	225.99
997.77	226.00
998.06	226.09
998.34	226.08
998.63	226.12
998.92	226.14
999.21	226.20
999.50	226.28
999.79	226.01
1000.08	225.99
1000.37	225.93
1000.66	225.85
1000.95	226.02
1001.24	226.02
1001.53	226.03
1001.82	226.05
1002.11	225.90
1002.40	226.00
1002.68	226.12
1002.97	226.50
1003.26	226.40
1003.55	226.32
1003.84	226.33
1004.13	226.53
1004.42	226.47
1004.71	226.50
1004.99	226.46
1005.28	226.62
1005.57	226.58
1005.86	226.61
1006.15	226.55
1006.44	226.60
1006.72	226.65
1007.01	226.56
1007.30	226.53
1007.59	226.49
1007.88	226.47
1008.17	226.50
1008.45	226.38
1008.74	226.12
1009.03	225.86
1009.32	225.88
1009.60	225.89
1009.89	225.84
1010.18	225.61
1010.47	225.65
1010.76	225.62
1011.04	225.66
1011.33	225.63
1011.62	225.69
1011.91	225.65
1012.19	225.71
1012.48	225.65
1012.77	225.71
1013.05	225.93
1013.34	225.88
1013.63	225.91
1013.92	225.89
1014.20	225.87
1014.49	225.87
1014.78	225.87
1015.06	225.60
1015.35	225.58
1015.64	225.68
1015.92	225.74
1016.21	225.80
1016.50	225.80
1016.78	225.84
1017.07	225.80
1017.36	225.73
1017.64	225.56
1017.93	225.70
1018.22	225.59
1018.50	225.58
1018.79	225.50
1019.08	225.30
1019.36	225.34
1019.65	225.18
1019.93	225.30
1020.22	225.35
1020.51	225.59
1020.79	225.56
1021.08	224.80
1021.36	224.65
1021.65	224.95
1021.94	225.65
1022.22	225.15
1022.51	223.35
1022.79	226.90
1023.08	226.10
1023.36	231.55
1023.65	224.00
>>>>>End Processed Spectral Data<<<<<
