SpectraSuite Data File
++++++++++++++++++++++++++++++++++++
Date: Wed Sep 04 17:56:03 EDT 2013
User: lab3
Dark Spectrum Present: Yes
Reference Spectrum Present: No
Number of Sampled Component Spectra: 1
Spectrometers: USB2E7196
Integration Time (usec): 170000 (USB2E7196)
Spectra Averaged: 20 (USB2E7196)
Boxcar Smoothing: 10 (USB2E7196)
Correct for Electrical Dark: No (USB2E7196)
Strobe/Lamp Enabled: No (USB2E7196)
Correct for Detector Non-linearity: No (USB2E7196)
Correct for Stray Light: No (USB2E7196)
Number of Pixels in Processed Spectrum: 2048
>>>>>Begin Processed Spectral Data<<<<<
339.09	0.00
339.48	214.30
339.86	214.50
340.24	215.95
340.63	217.35
341.01	225.75
341.39	220.35
341.78	222.80
342.16	224.05
342.54	223.70
342.93	212.49
343.31	223.22
343.69	223.70
344.07	224.18
344.46	224.71
344.84	225.12
345.22	225.17
345.60	225.46
345.99	225.65
346.37	225.69
346.75	225.85
347.13	225.85
347.52	225.97
347.90	226.14
348.28	226.33
348.66	226.53
349.05	226.45
349.43	226.48
349.81	226.52
350.19	226.55
350.57	226.57
350.96	226.73
351.34	226.82
351.72	226.90
352.10	226.93
352.48	226.95
352.87	226.98
353.25	226.93
353.63	226.90
354.01	226.85
354.39	227.04
354.77	226.97
355.15	227.24
355.54	227.20
355.92	227.17
356.30	227.17
356.68	227.58
357.06	227.67
357.44	227.62
357.82	227.65
358.20	228.13
358.58	228.24
358.97	228.25
359.35	228.37
359.73	228.59
360.11	228.69
360.49	228.72
360.87	228.81
361.25	228.94
361.63	229.17
362.01	229.36
362.39	229.33
362.77	229.50
363.15	229.45
363.53	229.53
363.91	229.55
364.29	229.59
364.67	229.10
365.05	229.08
365.43	229.14
365.81	229.21
366.19	229.01
366.57	229.18
366.95	229.23
367.33	229.10
367.71	229.05
368.09	229.17
368.47	229.26
368.85	229.28
369.23	229.43
369.61	229.25
369.99	229.41
370.37	229.43
370.75	229.65
371.13	229.56
371.51	229.49
371.89	229.52
372.27	229.56
372.65	229.58
373.03	229.60
373.41	229.57
373.78	229.50
374.16	229.30
374.54	229.17
374.92	229.06
375.30	229.10
375.68	228.93
376.06	228.91
376.44	228.78
376.82	228.66
377.19	228.50
377.57	228.44
377.95	228.18
378.33	228.14
378.71	227.80
379.09	227.86
379.47	227.83
379.84	227.67
380.22	227.44
380.60	227.28
380.98	227.14
381.36	227.05
381.73	226.91
382.11	226.93
382.49	226.84
382.87	226.65
383.25	226.51
383.62	227.00
384.00	226.78
384.38	226.71
384.76	226.76
385.13	226.94
385.51	226.87
385.89	226.70
386.27	226.61
386.64	226.58
387.02	226.42
387.40	226.35
387.78	226.38
388.15	226.41
388.53	226.35
388.91	226.32
389.29	226.20
389.66	226.27
390.04	226.16
390.42	226.17
390.79	226.27
391.17	226.26
391.55	225.70
391.92	225.76
392.30	225.75
392.68	225.70
393.05	225.64
393.43	225.68
393.81	225.78
394.18	225.70
394.56	225.75
394.94	225.91
395.31	225.89
395.69	226.05
396.06	226.16
396.44	226.27
396.82	226.30
397.19	226.70
397.57	226.72
397.95	226.85
398.32	226.79
398.70	226.89
399.07	227.12
399.45	227.18
399.82	227.23
400.20	227.28
400.58	227.36
400.95	227.26
401.33	227.53
401.70	227.96
402.08	228.16
402.45	228.30
402.83	228.48
403.20	228.67
403.58	228.72
403.95	228.95
404.33	229.19
404.71	229.42
405.08	229.80
405.46	229.95
405.83	230.20
406.21	230.49
406.58	230.76
406.96	230.92
407.33	231.38
407.70	231.73
408.08	232.50
408.45	232.93
408.83	233.41
409.20	233.74
409.58	233.91
409.95	234.48
410.33	235.05
410.70	235.45
411.08	236.16
411.45	236.83
411.82	237.41
412.20	238.26
412.57	239.25
412.95	239.61
413.32	240.59
413.69	241.47
414.07	242.40
414.44	243.31
414.82	244.37
415.19	245.60
415.56	246.81
415.94	247.82
416.31	249.25
416.68	250.75
417.06	252.38
417.43	253.95
417.81	255.68
418.18	257.50
418.55	259.47
418.93	261.39
419.30	263.49
419.67	265.72
420.04	267.94
420.42	270.31
420.79	273.42
421.16	276.13
421.54	279.11
421.91	282.14
422.28	285.34
422.66	288.58
423.03	292.01
423.40	295.35
423.77	298.79
424.15	302.41
424.52	306.20
424.89	310.27
425.26	314.25
425.64	318.03
426.01	322.22
426.38	326.55
426.75	331.12
427.13	335.77
427.50	340.52
427.87	345.41
428.24	350.24
428.61	354.81
428.99	360.20
429.36	365.73
429.73	371.12
430.10	376.60
430.47	382.37
430.85	388.00
431.22	394.13
431.59	401.00
431.96	407.11
432.33	413.96
432.70	420.70
433.08	428.64
433.45	436.01
433.82	443.34
434.19	451.55
434.56	459.69
434.93	467.31
435.30	475.06
435.68	483.66
436.05	492.17
436.42	500.36
436.79	508.02
437.16	516.41
437.53	525.30
437.90	534.07
438.27	542.50
438.64	551.35
439.01	559.72
439.38	566.85
439.75	574.01
440.13	582.08
440.50	589.61
440.87	595.63
441.24	602.18
441.61	609.22
441.98	614.33
442.35	619.93
442.72	625.96
443.09	631.90
443.46	635.47
443.83	637.77
444.20	639.90
444.57	642.51
444.94	643.52
445.31	644.65
445.68	645.96
446.05	646.27
446.42	644.91
446.79	643.59
447.16	642.04
447.53	640.87
447.90	637.13
448.27	633.46
448.64	628.72
449.01	624.86
449.37	618.55
449.74	612.52
450.11	605.83
450.48	598.00
450.85	589.78
451.22	582.67
451.59	576.05
451.96	569.80
452.33	561.74
452.70	554.36
453.07	545.65
453.43	536.50
453.80	528.18
454.17	520.16
454.54	512.35
454.91	504.18
455.28	496.20
455.65	488.87
456.02	482.03
456.38	475.55
456.75	467.84
457.12	461.41
457.49	455.23
457.86	448.81
458.23	443.65
458.59	437.98
458.96	432.35
459.33	427.12
459.70	421.87
460.07	417.78
460.43	413.13
460.80	408.87
461.17	405.26
461.54	401.15
461.91	397.43
462.27	393.62
462.64	390.44
463.01	386.93
463.38	383.60
463.74	379.61
464.11	376.59
464.48	373.96
464.85	371.11
465.21	368.87
465.58	366.64
465.95	363.84
466.32	361.68
466.68	359.32
467.05	357.17
467.42	355.00
467.78	352.69
468.15	350.52
468.52	348.87
468.88	346.61
469.25	344.72
469.62	343.25
469.98	341.60
470.35	339.99
470.72	338.51
471.08	336.71
471.45	335.40
471.82	334.17
472.18	332.66
472.55	331.63
472.92	330.13
473.28	328.91
473.65	327.77
474.02	326.73
474.38	325.85
474.75	325.20
475.11	324.20
475.48	323.55
475.85	322.95
476.21	322.23
476.58	321.69
476.94	321.35
477.31	320.83
477.67	320.42
478.04	320.14
478.41	319.94
478.77	320.26
479.14	319.99
479.50	319.86
479.87	320.06
480.23	320.10
480.60	320.20
480.96	320.25
481.33	320.61
481.69	320.79
482.06	321.06
482.42	321.30
482.79	321.72
483.15	322.11
483.52	322.79
483.88	323.26
484.25	323.79
484.61	324.29
484.98	325.00
485.34	325.94
485.71	326.82
486.07	327.71
486.44	328.28
486.80	329.32
487.17	330.51
487.53	331.76
487.90	333.19
488.26	334.86
488.62	336.56
488.99	338.18
489.35	339.89
489.72	341.76
490.08	343.60
490.44	345.60
490.81	347.82
491.17	349.95
491.54	352.53
491.90	355.19
492.26	357.91
492.63	360.68
492.99	363.40
493.36	366.56
493.72	369.96
494.08	373.40
494.45	377.21
494.81	381.04
495.17	384.93
495.54	389.16
495.90	393.42
496.26	397.96
496.63	402.61
496.99	407.49
497.35	412.61
497.72	417.88
498.08	423.37
498.44	429.10
498.80	435.30
499.17	441.44
499.53	447.70
499.89	454.39
500.26	461.26
500.62	468.27
500.98	475.68
501.34	483.05
501.71	490.88
502.07	498.54
502.43	506.81
502.79	515.15
503.16	523.87
503.52	532.88
503.88	542.05
504.24	551.74
504.60	561.65
504.97	572.04
505.33	582.64
505.69	593.62
506.05	604.70
506.41	615.78
506.78	627.40
507.14	639.40
507.50	651.63
507.86	664.21
508.22	677.22
508.59	690.20
508.95	703.87
509.31	717.85
509.67	732.28
510.03	746.47
510.39	761.42
510.75	776.23
511.12	791.36
511.48	807.13
511.84	822.86
512.20	839.01
512.56	855.20
512.92	871.79
513.28	888.44
513.64	905.80
514.00	923.34
514.37	940.96
514.73	958.90
515.09	977.10
515.45	995.38
515.81	1013.84
516.17	1032.69
516.53	1051.39
516.89	1070.27
517.25	1089.64
517.61	1109.89
517.97	1129.94
518.33	1150.28
518.69	1170.65
519.05	1190.93
519.41	1211.64
519.77	1232.35
520.13	1253.20
520.49	1273.95
520.85	1296.68
521.21	1317.72
521.57	1339.00
521.93	1359.74
522.29	1381.18
522.65	1402.07
523.01	1423.25
523.37	1443.91
523.73	1464.65
524.09	1485.27
524.45	1505.93
524.81	1526.72
525.17	1547.29
525.53	1567.91
525.89	1588.62
526.25	1609.59
526.61	1630.31
526.97	1651.34
527.33	1672.78
527.68	1694.25
528.04	1715.70
528.40	1735.24
528.76	1756.29
529.12	1776.39
529.48	1797.52
529.84	1817.38
530.20	1838.56
530.56	1859.34
530.91	1880.30
531.27	1901.10
531.63	1921.59
531.99	1942.53
532.35	1962.60
532.71	1983.01
533.07	2003.42
533.42	2023.43
533.78	2043.20
534.14	2062.79
534.50	2081.82
534.86	2101.08
535.21	2118.82
535.57	2137.49
535.93	2155.24
536.29	2172.89
536.65	2191.18
537.00	2208.47
537.36	2226.23
537.72	2242.74
538.08	2259.97
538.44	2276.66
538.79	2293.04
539.15	2309.69
539.51	2325.01
539.87	2340.57
540.22	2354.26
540.58	2369.01
540.94	2382.19
541.29	2395.09
541.65	2407.69
542.01	2419.96
542.37	2430.52
542.72	2441.48
543.08	2451.79
543.44	2463.74
543.79	2473.81
544.15	2483.97
544.51	2494.17
544.87	2503.94
545.22	2512.55
545.58	2519.97
545.94	2527.51
546.29	2534.38
546.65	2540.60
547.01	2546.53
547.36	2551.90
547.72	2557.43
548.07	2561.10
548.43	2566.57
548.79	2570.87
549.14	2574.96
549.50	2579.13
549.86	2583.05
550.21	2586.96
550.57	2590.47
550.92	2591.67
551.28	2593.27
551.64	2595.20
551.99	2597.38
552.35	2598.78
552.70	2600.86
553.06	2602.87
553.41	2603.82
553.77	2605.34
554.13	2607.16
554.48	2608.51
554.84	2610.02
555.19	2611.34
555.55	2612.95
555.90	2612.10
556.26	2611.22
556.61	2609.93
556.97	2607.98
557.32	2607.32
557.68	2606.08
558.03	2604.55
558.39	2603.33
558.74	2602.16
559.10	2599.27
559.45	2595.57
559.81	2590.93
560.16	2585.81
560.52	2581.06
560.87	2576.90
561.23	2571.31
561.58	2565.09
561.94	2558.43
562.29	2550.75
562.64	2543.91
563.00	2535.90
563.35	2529.50
563.71	2523.19
564.06	2517.13
564.42	2510.13
564.77	2502.91
565.12	2495.23
565.48	2487.55
565.83	2479.27
566.19	2471.34
566.54	2463.57
566.89	2455.38
567.25	2448.51
567.60	2441.49
567.96	2433.46
568.31	2425.47
568.66	2416.70
569.02	2407.57
569.37	2399.53
569.72	2392.14
570.08	2382.83
570.43	2373.41
570.78	2364.33
571.14	2354.86
571.49	2344.46
571.84	2335.09
572.20	2324.48
572.55	2314.65
572.90	2303.77
573.26	2293.48
573.61	2282.42
573.96	2271.18
574.31	2259.19
574.67	2246.91
575.02	2234.06
575.37	2221.52
575.72	2208.05
576.08	2196.20
576.43	2183.99
576.78	2170.78
577.13	2157.04
577.49	2144.05
577.84	2131.96
578.19	2119.81
578.54	2107.05
578.90	2094.98
579.25	2082.48
579.60	2070.12
579.95	2057.19
580.30	2043.99
580.66	2030.52
581.01	2017.20
581.36	2003.07
581.71	1990.50
582.06	1977.66
582.42	1965.18
582.77	1952.74
583.12	1940.69
583.47	1928.17
583.82	1916.27
584.17	1904.03
584.53	1892.03
584.88	1879.14
585.23	1866.33
585.58	1851.88
585.93	1838.71
586.28	1825.10
586.63	1811.25
586.98	1796.95
587.34	1783.42
587.69	1770.14
588.04	1757.81
588.39	1745.54
588.74	1733.54
589.09	1721.08
589.44	1708.20
589.79	1696.24
590.14	1684.08
590.49	1671.93
590.84	1660.11
591.19	1647.82
591.54	1635.84
591.89	1623.80
592.25	1613.73
592.60	1602.10
592.95	1590.66
593.30	1578.77
593.65	1567.01
594.00	1555.13
594.35	1545.22
594.70	1533.76
595.05	1522.43
595.40	1510.17
595.75	1498.10
596.10	1486.85
596.45	1475.54
596.80	1464.73
597.15	1453.13
597.50	1441.31
597.85	1430.04
598.19	1418.27
598.54	1406.44
598.89	1395.09
599.24	1384.45
599.59	1372.87
599.94	1361.70
600.29	1351.40
600.64	1341.20
600.99	1330.65
601.34	1321.10
601.69	1310.20
602.04	1300.18
602.39	1290.40
602.74	1281.25
603.08	1271.96
603.43	1262.57
603.78	1252.94
604.13	1243.00
604.48	1233.19
604.83	1223.51
605.18	1213.93
605.53	1204.25
605.87	1195.30
606.22	1186.53
606.57	1177.19
606.92	1167.71
607.27	1159.22
607.62	1150.34
607.96	1141.74
608.31	1133.58
608.66	1124.91
609.01	1116.08
609.36	1107.45
609.70	1098.93
610.05	1090.17
610.40	1081.86
610.75	1073.25
611.10	1064.85
611.44	1056.41
611.79	1048.34
612.14	1040.58
612.49	1032.56
612.83	1025.10
613.18	1017.38
613.53	1009.88
613.88	1001.91
614.22	994.15
614.57	985.98
614.92	978.24
615.27	970.64
615.61	963.03
615.96	955.48
616.31	947.90
616.65	940.92
617.00	933.62
617.35	926.56
617.70	919.27
618.04	912.04
618.39	905.24
618.74	899.07
619.08	892.22
619.43	885.04
619.78	877.83
620.12	870.55
620.47	863.51
620.82	856.26
621.16	849.66
621.51	843.50
621.85	837.24
622.20	830.70
622.55	823.94
622.89	817.29
623.24	810.89
623.59	804.79
623.93	798.40
624.28	792.32
624.62	786.68
624.97	780.82
625.32	775.07
625.66	768.98
626.01	762.63
626.35	756.97
626.70	751.38
627.04	746.25
627.39	740.84
627.73	735.50
628.08	730.37
628.43	724.98
628.77	719.28
629.12	713.93
629.46	709.12
629.81	704.55
630.15	699.87
630.50	695.12
630.84	690.37
631.19	685.59
631.53	681.00
631.88	675.61
632.22	670.65
632.57	666.30
632.91	661.73
633.26	657.31
633.60	652.73
633.95	648.17
634.29	643.34
634.64	639.07
634.98	634.39
635.32	629.88
635.67	625.73
636.01	621.62
636.36	617.35
636.70	613.15
637.05	608.84
637.39	604.86
637.73	600.71
638.08	596.46
638.42	592.28
638.77	588.02
639.11	583.85
639.45	579.66
639.80	575.17
640.14	571.03
640.49	567.08
640.83	563.24
641.17	559.56
641.52	555.95
641.86	552.33
642.20	549.19
642.55	545.66
642.89	541.92
643.23	538.38
643.58	535.20
643.92	531.51
644.26	528.08
644.61	524.72
644.95	521.40
645.29	517.97
645.64	514.80
645.98	511.54
646.32	508.49
646.66	505.31
647.01	502.28
647.35	499.58
647.69	496.57
648.04	493.68
648.38	490.89
648.72	488.02
649.06	484.97
649.41	481.79
649.75	478.73
650.09	475.85
650.43	472.92
650.78	470.02
651.12	467.22
651.46	464.37
651.80	461.57
652.14	458.83
652.49	456.39
652.83	453.73
653.17	451.17
653.51	448.53
653.85	446.18
654.20	443.83
654.54	441.21
654.88	438.63
655.22	436.45
655.56	433.86
655.90	431.47
656.25	429.07
656.59	426.90
656.93	424.79
657.27	422.79
657.61	420.40
657.95	418.01
658.29	415.81
658.64	413.82
658.98	411.61
659.32	409.33
659.66	407.18
660.00	404.96
660.34	402.91
660.68	400.87
661.02	398.76
661.36	396.72
661.70	394.65
662.05	392.82
662.39	390.70
662.73	389.00
663.07	387.31
663.41	385.56
663.75	383.62
664.09	381.66
664.43	379.71
664.77	378.17
665.11	376.47
665.45	374.81
665.79	373.16
666.13	371.44
666.47	369.81
666.81	368.08
667.15	366.51
667.49	364.95
667.83	363.66
668.17	362.11
668.51	360.55
668.85	359.20
669.19	357.99
669.53	356.57
669.87	354.94
670.21	353.47
670.55	352.02
670.89	350.89
671.23	349.57
671.57	348.10
671.91	346.65
672.25	345.30
672.58	344.14
672.92	342.64
673.26	341.33
673.60	340.17
673.94	339.01
674.28	337.96
674.62	336.88
674.96	335.45
675.30	334.33
675.64	333.27
675.97	332.07
676.31	330.61
676.65	329.29
676.99	328.40
677.33	327.19
677.67	326.17
678.01	324.85
678.34	323.84
678.68	323.05
679.02	322.06
679.36	321.06
679.70	319.87
680.04	319.00
680.37	318.09
680.71	317.05
681.05	316.11
681.39	315.15
681.73	314.22
682.06	313.44
682.40	312.63
682.74	311.83
683.08	311.12
683.42	310.30
683.75	309.55
684.09	308.64
684.43	307.81
684.77	306.91
685.10	306.22
685.44	305.38
685.78	304.43
686.12	303.69
686.45	302.95
686.79	302.17
687.13	301.49
687.46	300.70
687.80	300.03
688.14	299.22
688.48	298.48
688.81	297.60
689.15	296.87
689.49	296.06
689.82	295.24
690.16	294.34
690.50	293.63
690.83	292.92
691.17	292.12
691.51	291.45
691.84	290.83
692.18	290.15
692.52	289.49
692.85	289.00
693.19	288.62
693.52	287.97
693.86	287.33
694.20	286.62
694.53	285.99
694.87	285.28
695.21	284.70
695.54	284.09
695.88	283.53
696.21	282.88
696.55	282.31
696.88	281.68
697.22	281.00
697.56	280.50
697.89	279.94
698.23	279.51
698.56	278.98
698.90	278.64
699.23	278.00
699.57	277.49
699.90	276.79
700.24	275.98
700.58	275.54
700.91	275.17
701.25	275.11
701.58	275.04
701.92	274.77
702.25	274.28
702.59	273.75
702.92	273.25
703.26	272.80
703.59	272.37
703.93	272.35
704.26	272.05
704.60	271.66
704.93	271.25
705.26	270.72
705.60	270.35
705.93	269.69
706.27	269.44
706.60	269.15
706.94	269.03
707.27	268.60
707.61	268.21
707.94	267.75
708.27	266.95
708.61	266.20
708.94	265.75
709.28	265.44
709.61	265.11
709.94	264.85
710.28	264.47
710.61	264.09
710.95	263.34
711.28	263.34
711.61	262.89
711.95	262.60
712.28	262.20
712.61	261.82
712.95	261.72
713.28	261.50
713.61	261.00
713.95	260.45
714.28	260.21
714.61	259.92
714.95	259.54
715.28	259.16
715.61	258.86
715.95	258.54
716.28	258.21
716.61	257.93
716.95	257.54
717.28	257.27
717.61	256.99
717.94	256.70
718.28	256.03
718.61	255.79
718.94	255.39
719.27	255.16
719.61	254.84
719.94	254.50
720.27	253.98
720.60	253.79
720.94	253.60
721.27	253.45
721.60	253.23
721.93	253.04
722.27	252.95
722.60	252.75
722.93	252.35
723.26	252.17
723.59	251.85
723.93	251.71
724.26	251.53
724.59	251.27
724.92	251.04
725.25	250.89
725.59	250.65
725.92	250.53
726.25	250.30
726.58	250.11
726.91	249.93
727.24	249.90
727.57	249.75
727.91	249.41
728.24	249.23
728.57	249.02
728.90	248.96
729.23	248.69
729.56	248.69
729.89	248.69
730.22	248.46
730.55	248.36
730.89	248.15
731.22	247.87
731.55	247.72
731.88	247.54
732.21	247.28
732.54	247.04
732.87	246.89
733.20	246.70
733.53	246.59
733.86	246.41
734.19	246.16
734.52	245.99
734.85	246.21
735.18	245.94
735.51	245.90
735.84	245.68
736.17	245.56
736.50	245.21
736.83	245.51
737.16	245.39
737.49	245.26
737.82	245.10
738.15	245.07
738.48	244.86
738.81	244.70
739.14	244.49
739.47	244.42
739.80	244.20
740.13	244.13
740.46	243.93
740.79	243.69
741.12	243.53
741.45	243.37
741.78	242.92
742.11	242.95
742.44	242.66
742.77	242.60
743.10	242.42
743.43	242.22
743.75	241.69
744.08	242.23
744.41	242.03
744.74	241.86
745.07	241.61
745.40	241.61
745.73	241.74
746.06	241.63
746.39	241.52
746.71	241.40
747.04	241.24
747.37	241.06
747.70	240.98
748.03	240.89
748.36	240.86
748.68	240.74
749.01	240.50
749.34	240.36
749.67	240.31
750.00	240.23
750.33	240.53
750.65	240.37
750.98	239.57
751.31	239.51
751.64	239.45
751.97	239.64
752.29	239.43
752.62	238.98
752.95	238.92
753.28	238.79
753.60	238.67
753.93	238.69
754.26	238.69
754.59	238.47
754.91	238.29
755.24	238.08
755.57	238.01
755.90	237.87
756.22	237.73
756.55	237.41
756.88	237.15
757.20	236.77
757.53	236.52
757.86	236.44
758.19	236.32
758.51	236.22
758.84	235.85
759.17	235.71
759.49	235.74
759.82	235.92
760.15	235.84
760.47	235.78
760.80	235.49
761.13	235.49
761.45	235.43
761.78	235.27
762.11	235.24
762.43	235.06
762.76	234.95
763.08	234.85
763.41	234.89
763.74	234.93
764.06	234.81
764.39	234.80
764.71	234.76
765.04	234.60
765.37	234.42
765.69	234.40
766.02	234.37
766.34	234.26
766.67	233.92
767.00	233.93
767.32	234.13
767.65	234.35
767.97	234.18
768.30	234.17
768.62	234.14
768.95	234.05
769.27	234.01
769.60	234.04
769.92	233.99
770.25	233.85
770.57	233.76
770.90	233.70
771.22	233.59
771.55	233.48
771.87	233.48
772.20	233.39
772.52	233.74
772.85	234.24
773.17	234.24
773.50	234.22
773.82	234.08
774.15	233.72
774.47	233.39
774.80	233.29
775.12	233.17
775.45	233.13
775.77	233.05
776.09	233.03
776.42	232.97
776.74	233.09
777.07	232.99
777.39	232.89
777.72	232.81
778.04	232.82
778.36	232.72
778.69	232.69
779.01	232.76
779.33	232.22
779.66	231.60
779.98	231.46
780.31	231.45
780.63	231.64
780.95	231.70
781.28	231.69
781.60	231.53
781.92	231.56
782.25	231.50
782.57	231.44
782.89	231.40
783.22	231.30
783.54	231.13
783.86	231.11
784.19	231.08
784.51	231.20
784.83	231.10
785.16	231.02
785.48	230.94
785.80	230.90
786.12	230.99
786.45	231.01
786.77	230.97
787.09	230.88
787.42	230.61
787.74	230.63
788.06	230.65
788.38	230.70
788.71	230.57
789.03	230.59
789.35	230.68
789.67	230.55
789.99	230.58
790.32	230.46
790.64	230.52
790.96	230.95
791.28	230.67
791.61	230.60
791.93	230.63
792.25	230.61
792.57	230.92
792.89	230.79
793.21	230.80
793.54	230.80
793.86	230.81
794.18	230.85
794.50	230.75
794.82	230.66
795.14	230.70
795.47	230.81
795.79	230.75
796.11	230.52
796.43	230.52
796.75	230.43
797.07	230.47
797.39	230.41
797.71	229.97
798.04	230.06
798.36	230.10
798.68	230.05
799.00	230.03
799.32	229.78
799.64	229.87
799.96	229.79
800.28	229.86
800.60	229.75
800.92	229.74
801.24	229.68
801.56	229.77
801.89	229.72
802.21	229.71
802.53	229.58
802.85	229.75
803.17	229.94
803.49	229.87
803.81	229.87
804.13	229.79
804.45	229.70
804.77	229.65
805.09	229.64
805.41	229.60
805.73	229.50
806.05	229.31
806.37	229.26
806.69	229.21
807.01	229.20
807.33	229.25
807.65	229.10
807.97	229.29
808.28	229.16
808.60	229.07
808.92	229.03
809.24	229.40
809.56	229.30
809.88	229.17
810.20	229.18
810.52	229.16
810.84	229.10
811.16	229.10
811.48	229.06
811.80	229.19
812.12	229.21
812.43	229.29
812.75	229.37
813.07	229.29
813.39	229.23
813.71	229.13
814.03	229.12
814.35	229.08
814.67	228.85
814.98	228.82
815.30	228.82
815.62	228.66
815.94	228.33
816.26	228.54
816.58	228.38
816.89	228.38
817.21	228.31
817.53	228.34
817.85	228.28
818.17	228.22
818.48	227.97
818.80	228.05
819.12	228.02
819.44	227.88
819.76	227.89
820.07	227.89
820.39	227.81
820.71	227.82
821.03	227.86
821.34	227.82
821.66	227.88
821.98	227.89
822.30	227.90
822.61	228.20
822.93	227.88
823.25	227.85
823.57	227.83
823.88	227.91
824.20	227.89
824.52	228.03
824.83	228.10
825.15	228.13
825.47	228.13
825.79	228.10
826.10	228.10
826.42	228.08
826.74	228.12
827.05	228.18
827.37	228.14
827.69	228.10
828.00	228.05
828.32	228.07
828.64	228.00
828.95	228.27
829.27	228.09
829.58	228.13
829.90	228.24
830.22	228.27
830.53	228.10
830.85	228.00
831.17	227.87
831.48	227.85
831.80	227.87
832.11	227.82
832.43	227.79
832.75	227.82
833.06	228.06
833.38	227.98
833.69	227.90
834.01	227.86
834.32	227.89
834.64	227.96
834.96	227.98
835.27	228.05
835.59	227.94
835.90	227.90
836.22	227.97
836.53	227.89
836.85	227.87
837.16	228.41
837.48	228.50
837.79	228.60
838.11	228.61
838.42	228.58
838.74	228.66
839.05	228.62
839.37	228.53
839.68	228.23
840.00	228.25
840.31	228.34
840.63	228.34
840.94	228.23
841.26	228.17
841.57	228.11
841.88	228.14
842.20	228.05
842.51	227.97
842.83	227.92
843.14	228.36
843.46	228.37
843.77	228.10
844.08	228.05
844.40	227.93
844.71	227.91
845.03	227.86
845.34	227.76
845.65	227.75
845.97	227.80
846.28	227.85
846.60	227.85
846.91	227.80
847.22	227.80
847.54	227.89
847.85	227.88
848.16	227.86
848.48	227.78
848.79	227.99
849.10	228.05
849.42	228.02
849.73	227.58
850.04	227.53
850.36	227.35
850.67	227.47
850.98	227.47
851.30	227.55
851.61	227.55
851.92	227.54
852.23	227.71
852.55	227.70
852.86	227.73
853.17	227.73
853.49	227.76
853.80	227.90
854.11	228.01
854.42	228.08
854.74	228.06
855.05	228.08
855.36	227.74
855.67	227.75
855.99	227.75
856.30	228.30
856.61	228.26
856.92	228.21
857.23	228.21
857.55	228.18
857.86	228.12
858.17	228.18
858.48	228.11
858.79	227.97
859.11	228.00
859.42	227.94
859.73	227.91
860.04	227.94
860.35	227.73
860.66	227.53
860.98	227.51
861.29	227.58
861.60	227.56
861.91	227.65
862.22	227.56
862.53	227.55
862.84	227.04
863.16	227.14
863.47	227.11
863.78	227.02
864.09	227.01
864.40	226.96
864.71	226.91
865.02	226.98
865.33	226.86
865.64	226.78
865.95	226.80
866.27	227.09
866.58	227.00
866.89	227.02
867.20	227.02
867.51	226.85
867.82	226.77
868.13	226.83
868.44	226.77
868.75	226.81
869.06	226.78
869.37	226.76
869.68	226.65
869.99	226.70
870.30	226.73
870.61	226.80
870.92	226.76
871.23	226.73
871.54	226.79
871.85	226.99
872.16	227.06
872.47	226.99
872.78	226.69
873.09	226.70
873.40	226.74
873.71	226.78
874.02	226.91
874.33	226.84
874.64	226.84
874.95	226.90
875.26	226.81
875.56	226.84
875.87	226.75
876.18	226.73
876.49	227.17
876.80	227.11
877.11	227.02
877.42	227.04
877.73	227.08
878.04	226.94
878.35	226.86
878.66	226.87
878.96	226.88
879.27	226.84
879.58	226.79
879.89	226.73
880.20	226.80
880.51	226.70
880.82	226.74
881.12	226.65
881.43	226.50
881.74	226.46
882.05	226.47
882.36	226.53
882.67	226.61
882.97	226.14
883.28	226.13
883.59	226.15
883.90	226.20
884.21	226.21
884.51	226.25
884.82	226.15
885.13	226.18
885.44	226.16
885.74	226.24
886.05	226.29
886.36	226.29
886.67	226.19
886.98	226.48
887.28	226.49
887.59	226.50
887.90	226.54
888.20	226.56
888.51	226.62
888.82	226.58
889.13	226.59
889.43	226.95
889.74	226.86
890.05	226.88
890.35	226.79
890.66	226.71
890.97	226.59
891.28	226.60
891.58	226.58
891.89	226.59
892.20	226.57
892.50	226.53
892.81	226.55
893.12	226.43
893.42	226.18
893.73	226.27
894.04	226.23
894.34	226.36
894.65	226.27
894.95	226.23
895.26	226.23
895.57	226.42
895.87	226.02
896.18	226.16
896.48	226.20
896.79	226.21
897.10	226.27
897.40	226.36
897.71	226.45
898.01	226.42
898.32	226.44
898.63	226.40
898.93	226.44
899.24	226.41
899.54	226.49
899.85	226.52
900.15	226.43
900.46	226.43
900.76	226.43
901.07	226.50
901.38	226.52
901.68	226.62
901.99	226.45
902.29	226.47
902.60	226.45
902.90	226.35
903.21	226.36
903.51	226.34
903.82	226.45
904.12	226.47
904.43	226.57
904.73	226.50
905.03	226.52
905.34	226.95
905.64	227.00
905.95	227.03
906.25	227.05
906.56	227.01
906.86	227.08
907.17	227.02
907.47	227.00
907.77	226.91
908.08	226.75
908.38	226.75
908.69	226.79
908.99	226.88
909.30	226.94
909.60	227.00
909.90	227.06
910.21	226.96
910.51	226.86
910.81	226.80
911.12	226.87
911.42	226.91
911.73	226.37
912.03	226.33
912.33	226.41
912.64	226.37
912.94	226.36
913.24	226.29
913.55	226.28
913.85	226.28
914.15	226.36
914.46	226.44
914.76	226.35
915.06	226.34
915.37	226.28
915.67	226.19
915.97	226.10
916.27	226.05
916.58	226.03
916.88	226.05
917.18	225.94
917.49	226.38
917.79	226.36
918.09	226.48
918.39	226.64
918.70	226.60
919.00	226.59
919.30	226.86
919.60	226.84
919.91	226.77
920.21	226.79
920.51	226.69
920.81	226.66
921.12	226.73
921.42	226.62
921.72	226.62
922.02	226.68
922.32	226.81
922.63	226.79
922.93	227.05
923.23	227.07
923.53	227.09
923.83	226.71
924.13	226.74
924.44	226.72
924.74	226.74
925.04	226.85
925.34	226.84
925.64	226.69
925.94	226.79
926.24	227.14
926.55	227.06
926.85	227.20
927.15	227.22
927.45	227.24
927.75	227.31
928.05	227.33
928.35	227.33
928.65	227.36
928.95	227.40
929.26	227.16
929.56	227.28
929.86	227.34
930.16	227.24
930.46	227.21
930.76	227.25
931.06	227.03
931.36	226.91
931.66	227.01
931.96	226.99
932.26	226.91
932.56	226.65
932.86	226.70
933.16	226.70
933.46	226.71
933.76	226.61
934.06	226.75
934.36	226.92
934.66	226.86
934.96	226.84
935.26	226.85
935.56	226.92
935.86	226.73
936.16	226.66
936.46	226.63
936.76	226.56
937.06	226.50
937.36	226.61
937.66	226.67
937.96	226.63
938.26	226.52
938.56	226.57
938.86	226.58
939.16	226.70
939.46	226.68
939.76	226.69
940.06	226.70
940.35	226.59
940.65	226.28
940.95	226.37
941.25	226.29
941.55	226.23
941.85	226.24
942.15	226.38
942.45	226.50
942.75	226.57
943.04	226.62
943.34	226.65
943.64	226.59
943.94	226.50
944.24	226.49
944.54	226.57
944.84	226.46
945.13	226.41
945.43	226.36
945.73	226.32
946.03	226.23
946.33	226.25
946.62	226.19
946.92	226.28
947.22	226.25
947.52	226.26
947.82	226.32
948.11	226.29
948.41	226.15
948.71	226.01
949.01	226.00
949.31	225.96
949.60	225.94
949.90	225.95
950.20	225.95
950.50	225.95
950.79	225.90
951.09	226.03
951.39	226.05
951.69	225.95
951.98	226.08
952.28	226.15
952.58	226.10
952.87	226.09
953.17	226.13
953.47	226.13
953.76	226.08
954.06	225.95
954.36	225.84
954.66	225.84
954.95	225.94
955.25	225.89
955.55	225.96
955.84	225.96
956.14	225.99
956.44	226.00
956.73	225.91
957.03	225.90
957.32	225.87
957.62	225.78
957.92	225.85
958.21	225.76
958.51	226.25
958.81	226.26
959.10	226.31
959.40	226.37
959.69	226.39
959.99	226.50
960.29	226.51
960.58	226.45
960.88	226.71
961.17	226.69
961.47	226.76
961.76	226.65
962.06	226.74
962.36	226.68
962.65	226.69
962.95	226.69
963.24	226.66
963.54	226.63
963.83	226.70
964.13	226.63
964.42	226.55
964.72	226.21
965.01	226.20
965.31	226.18
965.60	226.03
965.90	226.34
966.19	226.21
966.49	226.31
966.78	226.31
967.08	226.26
967.37	226.28
967.67	226.24
967.96	226.33
968.26	226.26
968.55	226.39
968.85	226.40
969.14	226.49
969.43	226.45
969.73	226.47
970.02	226.45
970.32	226.50
970.61	226.51
970.91	226.37
971.20	226.40
971.49	226.43
971.79	226.51
972.08	226.21
972.38	226.28
972.67	226.15
972.96	226.28
973.26	226.15
973.55	226.30
973.85	226.28
974.14	226.26
974.43	226.31
974.73	226.16
975.02	226.06
975.31	226.06
975.61	226.12
975.90	226.05
976.19	226.05
976.49	226.13
976.78	226.13
977.07	226.09
977.37	226.14
977.66	226.14
977.95	226.13
978.24	226.14
978.54	226.26
978.83	226.32
979.12	226.29
979.42	226.36
979.71	226.25
980.00	226.26
980.29	226.24
980.59	226.20
980.88	226.35
981.17	226.42
981.46	226.40
981.76	226.45
982.05	226.60
982.34	226.61
982.63	226.60
982.93	226.62
983.22	226.85
983.51	226.91
983.80	226.94
984.09	227.00
984.39	226.93
984.68	226.82
984.97	226.83
985.26	226.87
985.55	226.79
985.85	226.68
986.14	226.77
986.43	226.83
986.72	226.78
987.01	226.66
987.30	226.57
987.59	226.56
987.89	226.62
988.18	226.51
988.47	226.47
988.76	226.41
989.05	226.33
989.34	226.26
989.63	226.32
989.92	226.27
990.22	226.15
990.51	226.16
990.80	226.14
991.09	226.15
991.38	226.22
991.67	226.22
991.96	226.18
992.25	226.20
992.54	226.10
992.83	226.13
993.12	226.13
993.41	226.25
993.70	226.38
993.99	226.46
994.28	226.53
994.58	226.65
994.87	226.52
995.16	226.55
995.45	226.45
995.74	226.33
996.03	226.42
996.32	226.53
996.61	226.62
996.90	226.58
997.19	226.52
997.48	226.49
997.77	226.52
998.06	226.58
998.34	226.47
998.63	226.44
998.92	226.44
999.21	226.45
999.50	226.46
999.79	226.35
1000.08	226.19
1000.37	226.17
1000.66	226.03
1000.95	226.17
1001.24	226.13
1001.53	226.19
1001.82	226.09
1002.11	225.90
1002.40	225.93
1002.68	226.08
1002.97	226.39
1003.26	226.33
1003.55	226.24
1003.84	226.16
1004.13	226.31
1004.42	226.25
1004.71	226.33
1004.99	226.28
1005.28	226.37
1005.57	226.33
1005.86	226.23
1006.15	226.27
1006.44	226.20
1006.72	226.30
1007.01	226.22
1007.30	226.27
1007.59	226.19
1007.88	226.24
1008.17	226.31
1008.45	226.20
1008.74	225.95
1009.03	225.81
1009.32	225.76
1009.60	225.79
1009.89	225.79
1010.18	225.53
1010.47	225.55
1010.76	225.52
1011.04	225.49
1011.33	225.53
1011.62	225.63
1011.91	225.61
1012.19	225.60
1012.48	225.54
1012.77	225.55
1013.05	225.81
1013.34	225.85
1013.63	225.87
1013.92	225.90
1014.20	225.87
1014.49	225.89
1014.78	225.97
1015.06	225.76
1015.35	225.85
1015.64	225.87
1015.92	225.89
1016.21	226.03
1016.50	226.05
1016.78	226.14
1017.07	226.19
1017.36	226.05
1017.64	225.91
1017.93	226.06
1018.22	226.02
1018.50	226.09
1018.79	226.00
1019.08	225.87
1019.36	225.88
1019.65	225.83
1019.93	225.93
1020.22	226.03
1020.51	226.34
1020.79	226.23
1021.08	225.40
1021.36	225.10
1021.65	225.25
1021.94	227.60
1022.22	226.45
1022.51	225.15
1022.79	227.80
1023.08	227.45
1023.36	232.60
1023.65	224.35
>>>>>End Processed Spectral Data<<<<<
