SpectraSuite Data File
++++++++++++++++++++++++++++++++++++
Date: Wed Sep 04 17:59:43 EDT 2013
User: lab3
Dark Spectrum Present: Yes
Reference Spectrum Present: No
Number of Sampled Component Spectra: 1
Spectrometers: USB2E7196
Integration Time (usec): 170000 (USB2E7196)
Spectra Averaged: 20 (USB2E7196)
Boxcar Smoothing: 10 (USB2E7196)
Correct for Electrical Dark: No (USB2E7196)
Strobe/Lamp Enabled: No (USB2E7196)
Correct for Detector Non-linearity: No (USB2E7196)
Correct for Stray Light: No (USB2E7196)
Number of Pixels in Processed Spectrum: 2048
>>>>>Begin Processed Spectral Data<<<<<
339.09	0.00
339.48	213.35
339.86	214.50
340.24	214.85
340.63	217.20
341.01	226.95
341.39	219.85
341.78	223.30
342.16	223.75
342.54	223.10
342.93	212.40
343.31	223.08
343.69	223.63
344.07	224.18
344.46	224.79
344.84	225.25
345.22	225.18
345.60	225.45
345.99	225.60
346.37	225.71
346.75	225.84
347.13	225.87
347.52	225.92
347.90	226.18
348.28	226.23
348.66	226.39
349.05	226.24
349.43	226.33
349.81	226.38
350.19	226.39
350.57	226.46
350.96	226.50
351.34	226.68
351.72	226.79
352.10	226.86
352.48	226.80
352.87	226.77
353.25	226.79
353.63	226.87
354.01	226.90
354.39	227.04
354.77	227.12
355.15	227.34
355.54	227.35
355.92	227.25
356.30	227.24
356.68	227.51
357.06	227.62
357.44	227.56
357.82	227.64
358.20	228.08
358.58	228.15
358.97	228.33
359.35	228.44
359.73	228.58
360.11	228.59
360.49	228.71
360.87	228.79
361.25	228.94
361.63	229.11
362.01	229.26
362.39	229.25
362.77	229.29
363.15	229.33
363.53	229.40
363.91	229.48
364.29	229.55
364.67	229.16
365.05	229.24
365.43	229.38
365.81	229.49
366.19	229.45
366.57	229.70
366.95	229.66
367.33	229.60
367.71	229.61
368.09	229.70
368.47	229.74
368.85	229.72
369.23	229.78
369.61	229.63
369.99	229.69
370.37	229.69
370.75	229.91
371.13	229.81
371.51	229.75
371.89	229.78
372.27	229.82
372.65	229.90
373.03	229.88
373.41	229.79
373.78	229.77
374.16	229.44
374.54	229.23
374.92	229.20
375.30	229.11
375.68	228.96
376.06	228.90
376.44	228.74
376.82	228.75
377.19	228.68
377.57	228.62
377.95	228.44
378.33	228.37
378.71	228.09
379.09	228.06
379.47	228.12
379.84	227.93
380.22	227.80
380.60	227.64
380.98	227.56
381.36	227.49
381.73	227.31
382.11	227.38
382.49	227.37
382.87	227.13
383.25	227.02
383.62	227.53
384.00	227.39
384.38	227.33
384.76	227.36
385.13	227.50
385.51	227.42
385.89	227.34
386.27	227.32
386.64	227.34
387.02	227.24
387.40	227.10
387.78	227.08
388.15	227.08
388.53	227.05
388.91	226.99
389.29	226.95
389.66	226.96
390.04	226.83
390.42	226.84
390.79	226.91
391.17	226.92
391.55	226.30
391.92	226.35
392.30	226.48
392.68	226.38
393.05	226.37
393.43	226.51
393.81	226.53
394.18	226.46
394.56	226.45
394.94	226.66
395.31	226.61
395.69	226.84
396.06	227.02
396.44	226.99
396.82	227.05
397.19	227.36
397.57	227.38
397.95	227.54
398.32	227.43
398.70	227.51
399.07	227.72
399.45	227.85
399.82	227.91
400.20	227.90
400.58	227.99
400.95	227.84
401.33	227.99
401.70	228.41
402.08	228.56
402.45	228.71
402.83	228.87
403.20	229.05
403.58	229.14
403.95	229.30
404.33	229.57
404.71	229.83
405.08	230.22
405.46	230.43
405.83	230.66
406.21	230.94
406.58	231.27
406.96	231.55
407.33	231.92
407.70	232.27
408.08	233.08
408.45	233.58
408.83	234.09
409.20	234.45
409.58	234.66
409.95	235.26
410.33	235.84
410.70	236.21
411.08	236.85
411.45	237.46
411.82	238.00
412.20	238.80
412.57	239.71
412.95	240.09
413.32	241.01
413.69	241.86
414.07	242.86
414.44	243.86
414.82	244.88
415.19	246.05
415.56	247.27
415.94	248.25
416.31	249.69
416.68	251.16
417.06	252.77
417.43	254.40
417.81	256.15
418.18	257.96
418.55	259.97
418.93	262.00
419.30	264.05
419.67	266.29
420.04	268.60
420.42	270.95
420.79	274.05
421.16	276.83
421.54	279.91
421.91	282.90
422.28	286.05
422.66	289.33
423.03	292.85
423.40	296.22
423.77	299.75
424.15	303.28
424.52	307.17
424.89	311.41
425.26	315.40
425.64	319.17
426.01	323.29
426.38	327.61
426.75	332.14
427.13	336.78
427.50	341.52
427.87	346.44
428.24	351.39
428.61	355.88
428.99	361.24
429.36	366.70
429.73	372.30
430.10	377.75
430.47	383.54
430.85	389.17
431.22	395.44
431.59	402.30
431.96	408.62
432.33	415.43
432.70	421.99
433.08	429.84
433.45	437.32
433.82	444.80
434.19	453.00
434.56	461.12
434.93	468.82
435.30	476.65
435.68	485.29
436.05	493.75
436.42	502.17
436.79	509.83
437.16	518.33
437.53	527.05
437.90	535.84
438.27	544.45
438.64	553.54
439.01	561.88
439.38	568.95
439.75	576.07
440.13	584.10
440.50	591.72
440.87	597.87
441.24	604.38
441.61	611.41
441.98	616.61
442.35	622.41
442.72	628.43
443.09	634.27
443.46	637.82
443.83	640.04
444.20	641.88
444.57	644.60
444.94	645.59
445.31	646.69
445.68	648.01
446.05	648.15
446.42	646.66
446.79	645.15
447.16	643.60
447.53	642.28
447.90	638.51
448.27	634.89
448.64	630.01
449.01	626.22
449.37	619.92
449.74	613.77
450.11	606.99
450.48	599.26
450.85	591.18
451.22	584.04
451.59	577.47
451.96	571.16
452.33	563.05
452.70	555.63
453.07	547.07
453.43	537.96
453.80	529.39
454.17	521.29
454.54	513.52
454.91	505.27
455.28	497.22
455.65	489.78
456.02	482.77
456.38	476.34
456.75	468.46
457.12	461.96
457.49	455.68
457.86	449.20
458.23	443.98
458.59	438.29
458.96	432.55
459.33	427.48
459.70	422.41
460.07	418.23
460.43	413.49
460.80	409.06
461.17	405.27
461.54	401.35
461.91	397.55
462.27	393.84
462.64	390.59
463.01	387.13
463.38	383.95
463.74	379.93
464.11	376.88
464.48	374.32
464.85	371.41
465.21	369.29
465.58	367.02
465.95	364.02
466.32	361.93
466.68	359.72
467.05	357.48
467.42	355.28
467.78	353.02
468.15	350.95
468.52	349.33
468.88	347.05
469.25	345.09
469.62	343.60
469.98	341.81
470.35	340.24
470.72	338.74
471.08	336.95
471.45	335.73
471.82	334.54
472.18	332.98
472.55	332.05
472.92	330.66
473.28	329.56
473.65	328.61
474.02	327.44
474.38	326.54
474.75	325.73
475.11	324.87
475.48	324.20
475.85	323.53
476.21	322.92
476.58	322.52
476.94	322.14
477.31	321.66
477.67	321.30
478.04	320.98
478.41	320.80
478.77	321.03
479.14	320.70
479.50	320.57
479.87	320.58
480.23	320.59
480.60	320.55
480.96	320.55
481.33	320.94
481.69	321.13
482.06	321.39
482.42	321.70
482.79	322.03
483.15	322.50
483.52	323.12
483.88	323.62
484.25	324.25
484.61	324.91
484.98	325.56
485.34	326.62
485.71	327.56
486.07	328.53
486.44	329.16
486.80	330.32
487.17	331.36
487.53	332.80
487.90	334.25
488.26	335.96
488.62	337.65
488.99	339.16
489.35	340.96
489.72	342.82
490.08	344.73
490.44	346.70
490.81	348.91
491.17	351.12
491.54	353.66
491.90	356.14
492.26	358.84
492.63	361.71
492.99	364.50
493.36	367.68
493.72	371.05
494.08	374.61
494.45	378.29
494.81	382.17
495.17	386.13
495.54	390.36
495.90	394.58
496.26	399.00
496.63	403.70
496.99	408.55
497.35	413.68
497.72	419.02
498.08	424.62
498.44	430.27
498.80	436.42
499.17	442.43
499.53	448.65
499.89	455.30
500.26	462.09
500.62	469.11
500.98	476.45
501.34	483.87
501.71	491.60
502.07	499.47
502.43	507.76
502.79	516.11
503.16	524.76
503.52	533.91
503.88	543.35
504.24	553.05
504.60	563.12
504.97	573.50
505.33	583.96
505.69	594.97
506.05	606.13
506.41	617.40
506.78	629.18
507.14	641.37
507.50	653.83
507.86	666.53
508.22	679.45
508.59	692.58
508.95	706.43
509.31	720.59
509.67	735.02
510.03	749.32
510.39	764.28
510.75	779.34
511.12	794.56
511.48	810.24
511.84	826.00
512.20	841.97
512.56	858.15
512.92	875.11
513.28	892.02
513.64	909.44
514.00	926.84
514.37	944.44
514.73	962.64
515.09	980.83
515.45	999.28
515.81	1017.68
516.17	1036.63
516.53	1055.13
516.89	1073.87
517.25	1093.20
517.61	1113.63
517.97	1133.58
518.33	1153.83
518.69	1173.98
519.05	1194.40
519.41	1215.13
519.77	1236.19
520.13	1256.98
520.49	1277.63
520.85	1300.05
521.21	1321.06
521.57	1342.45
521.93	1363.35
522.29	1384.63
522.65	1405.28
523.01	1426.41
523.37	1447.35
523.73	1468.49
524.09	1489.31
524.45	1510.03
524.81	1531.10
525.17	1551.57
525.53	1572.26
525.89	1592.86
526.25	1613.86
526.61	1634.41
526.97	1655.58
527.33	1676.85
527.68	1698.95
528.04	1720.56
528.40	1740.38
528.76	1761.55
529.12	1781.93
529.48	1803.09
529.84	1823.36
530.20	1844.95
530.56	1865.52
530.91	1886.46
531.27	1906.90
531.63	1927.56
531.99	1948.33
532.35	1968.37
532.71	1988.70
533.07	2009.79
533.42	2029.83
533.78	2049.90
534.14	2069.63
534.50	2088.65
534.86	2108.05
535.21	2125.46
535.57	2143.74
535.93	2161.44
536.29	2179.54
536.65	2198.10
537.00	2215.58
537.36	2232.97
537.72	2249.16
538.08	2266.77
538.44	2283.32
538.79	2299.89
539.15	2316.44
539.51	2332.74
539.87	2348.01
540.22	2362.11
540.58	2376.52
540.94	2389.82
541.29	2402.77
541.65	2415.91
542.01	2428.67
542.37	2439.22
542.72	2450.65
543.08	2461.52
543.44	2473.48
543.79	2483.62
544.15	2493.80
544.51	2504.08
544.87	2513.96
545.22	2523.09
545.58	2530.61
545.94	2538.41
546.29	2544.99
546.65	2551.25
547.01	2556.57
547.36	2562.31
547.72	2567.95
548.07	2571.75
548.43	2577.49
548.79	2582.00
549.14	2585.98
549.50	2589.73
549.86	2593.99
550.21	2597.82
550.57	2601.21
550.92	2602.73
551.28	2603.97
551.64	2606.00
551.99	2608.01
552.35	2609.89
552.70	2612.05
553.06	2613.68
553.41	2614.90
553.77	2616.65
554.13	2618.53
554.48	2620.33
554.84	2622.05
555.19	2623.37
555.55	2625.37
555.90	2624.41
556.26	2623.57
556.61	2621.89
556.97	2620.30
557.32	2619.54
557.68	2618.03
558.03	2616.49
558.39	2615.08
558.74	2614.17
559.10	2610.82
559.45	2607.29
559.81	2602.97
560.16	2597.41
560.52	2592.97
560.87	2588.51
561.23	2583.19
561.58	2577.35
561.94	2570.51
562.29	2562.95
562.64	2556.06
563.00	2547.51
563.35	2541.15
563.71	2534.75
564.06	2528.69
564.42	2521.62
564.77	2514.62
565.12	2507.31
565.48	2499.60
565.83	2491.64
566.19	2483.70
566.54	2476.13
566.89	2467.87
567.25	2459.79
567.60	2453.06
567.96	2445.53
568.31	2437.60
568.66	2428.72
569.02	2419.60
569.37	2411.33
569.72	2403.59
570.08	2394.12
570.43	2384.95
570.78	2375.81
571.14	2366.20
571.49	2355.90
571.84	2346.45
572.20	2335.69
572.55	2325.55
572.90	2314.57
573.26	2304.11
573.61	2292.80
573.96	2281.50
574.31	2269.56
574.67	2258.09
575.02	2245.16
575.37	2232.15
575.72	2218.71
576.08	2206.67
576.43	2194.09
576.78	2180.86
577.13	2167.13
577.49	2154.49
577.84	2142.33
578.19	2130.41
578.54	2117.63
578.90	2105.70
579.25	2093.37
579.60	2080.77
579.95	2067.49
580.30	2054.46
580.66	2041.06
581.01	2027.46
581.36	2013.40
581.71	2000.51
582.06	1987.16
582.42	1974.41
582.77	1961.81
583.12	1949.76
583.47	1937.43
583.82	1925.33
584.17	1913.29
584.53	1901.51
584.88	1888.66
585.23	1875.58
585.58	1861.18
585.93	1848.33
586.28	1834.87
586.63	1820.69
586.98	1806.25
587.34	1793.43
587.69	1780.15
588.04	1767.44
588.39	1755.54
588.74	1743.55
589.09	1731.76
589.44	1718.89
589.79	1706.93
590.14	1694.87
590.49	1682.94
590.84	1670.58
591.19	1658.52
591.54	1646.29
591.89	1633.90
592.25	1623.35
592.60	1611.70
592.95	1600.27
593.30	1588.12
593.65	1576.11
594.00	1564.03
594.35	1554.29
594.70	1542.15
595.05	1530.63
595.40	1518.31
595.75	1506.25
596.10	1494.83
596.45	1483.08
596.80	1471.92
597.15	1460.50
597.50	1448.51
597.85	1436.95
598.19	1425.29
598.54	1413.40
598.89	1402.15
599.24	1391.47
599.59	1379.94
599.94	1369.25
600.29	1358.62
600.64	1348.17
600.99	1337.52
601.34	1328.03
601.69	1316.85
602.04	1306.92
602.39	1296.96
602.74	1288.18
603.08	1278.64
603.43	1269.25
603.78	1259.43
604.13	1250.18
604.48	1240.32
604.83	1230.59
605.18	1220.97
605.53	1211.48
605.87	1202.54
606.22	1193.71
606.57	1184.38
606.92	1174.88
607.27	1165.67
607.62	1156.97
607.96	1148.53
608.31	1140.39
608.66	1131.94
609.01	1123.22
609.36	1114.55
609.70	1106.01
610.05	1097.02
610.40	1088.52
610.75	1079.68
611.10	1071.23
611.44	1062.43
611.79	1054.13
612.14	1046.51
612.49	1038.12
612.83	1030.67
613.18	1022.83
613.53	1015.20
613.88	1007.25
614.22	999.47
614.57	991.44
614.92	983.38
615.27	975.55
615.61	967.88
615.96	960.01
616.31	952.41
616.65	945.47
617.00	938.21
617.35	930.83
617.70	923.62
618.04	916.50
618.39	909.61
618.74	903.14
619.08	896.40
619.43	889.32
619.78	882.32
620.12	875.02
620.47	867.90
620.82	860.62
621.16	853.61
621.51	847.26
621.85	840.94
622.20	834.24
622.55	827.53
622.89	820.91
623.24	814.58
623.59	808.22
623.93	801.55
624.28	795.47
624.62	789.81
624.97	783.97
625.32	778.22
625.66	772.02
626.01	765.82
626.35	759.96
626.70	754.10
627.04	749.03
627.39	743.54
627.73	738.30
628.08	733.04
628.43	727.64
628.77	721.99
629.12	716.71
629.46	711.94
629.81	707.28
630.15	702.59
630.50	697.62
630.84	692.90
631.19	688.33
631.53	683.69
631.88	678.43
632.22	673.43
632.57	668.91
632.91	664.41
633.26	660.04
633.60	655.35
633.95	650.70
634.29	645.63
634.64	641.09
634.98	636.21
635.32	631.75
635.67	627.98
636.01	623.85
636.36	619.48
636.70	615.33
637.05	611.07
637.39	606.74
637.73	602.70
638.08	598.68
638.42	594.36
638.77	590.04
639.11	585.76
639.45	581.48
639.80	576.93
640.14	572.80
640.49	568.76
640.83	564.90
641.17	561.40
641.52	557.71
641.86	554.08
642.20	550.92
642.55	547.17
642.89	543.29
643.23	539.75
643.58	536.38
643.92	532.69
644.26	529.25
644.61	526.03
644.95	522.65
645.29	519.13
645.64	515.98
645.98	512.64
646.32	509.68
646.66	506.74
647.01	503.76
647.35	500.98
647.69	498.00
648.04	495.25
648.38	492.19
648.72	489.34
649.06	486.30
649.41	483.24
649.75	480.27
650.09	477.47
650.43	474.56
650.78	471.70
651.12	468.81
651.46	465.92
651.80	463.07
652.14	460.39
652.49	457.81
652.83	455.15
653.17	452.55
653.51	449.79
653.85	447.27
654.20	444.81
654.54	442.12
654.88	439.56
655.22	437.26
655.56	434.82
655.90	432.40
656.25	430.19
656.59	427.88
656.93	425.75
657.27	423.61
657.61	421.14
657.95	418.76
658.29	416.64
658.64	414.54
658.98	412.27
659.32	410.00
659.66	407.87
660.00	405.82
660.34	403.83
660.68	401.79
661.02	399.70
661.36	397.71
661.70	395.67
662.05	393.75
662.39	391.78
662.73	389.94
663.07	388.37
663.41	386.44
663.75	384.43
664.09	382.54
664.43	380.56
664.77	379.01
665.11	377.40
665.45	375.70
665.79	374.02
666.13	372.41
666.47	370.72
666.81	369.02
667.15	367.26
667.49	365.84
667.83	364.52
668.17	362.98
668.51	361.50
668.85	360.24
669.19	358.95
669.53	357.36
669.87	355.91
670.21	354.31
670.55	352.97
670.89	351.90
671.23	350.63
671.57	349.26
671.91	347.85
672.25	346.48
672.58	345.25
672.92	343.91
673.26	342.56
673.60	341.47
673.94	340.23
674.28	339.17
674.62	337.86
674.96	336.52
675.30	335.33
675.64	334.01
675.97	332.67
676.31	331.40
676.65	330.15
676.99	329.18
677.33	327.97
677.67	326.88
678.01	325.55
678.34	324.40
678.68	323.46
679.02	322.42
679.36	321.45
679.70	320.43
680.04	319.37
680.37	318.47
680.71	317.35
681.05	316.45
681.39	315.49
681.73	314.53
682.06	313.69
682.40	312.86
682.74	312.15
683.08	311.50
683.42	310.61
683.75	309.93
684.09	308.98
684.43	308.29
684.77	307.39
685.10	306.52
685.44	305.70
685.78	304.82
686.12	304.06
686.45	303.25
686.79	302.43
687.13	301.88
687.46	301.09
687.80	300.45
688.14	299.60
688.48	298.90
688.81	298.15
689.15	297.51
689.49	296.77
689.82	296.01
690.16	295.09
690.50	294.43
690.83	293.68
691.17	292.89
691.51	292.11
691.84	291.51
692.18	290.85
692.52	290.26
692.85	289.60
693.19	289.10
693.52	288.49
693.86	287.81
694.20	287.07
694.53	286.49
694.87	285.78
695.21	285.19
695.54	284.57
695.88	283.89
696.21	283.10
696.55	282.45
696.88	281.86
697.22	281.25
697.56	280.65
697.89	280.00
698.23	279.51
698.56	278.94
698.90	278.48
699.23	277.91
699.57	277.32
699.90	276.76
700.24	276.11
700.58	275.65
700.91	275.22
701.25	275.10
701.58	274.93
701.92	274.59
702.25	274.17
702.59	273.55
702.92	273.11
703.26	272.72
703.59	272.32
703.93	272.32
704.26	271.93
704.60	271.57
704.93	271.23
705.26	270.80
705.60	270.49
705.93	269.90
706.27	269.64
706.60	269.42
706.94	269.29
707.27	268.89
707.61	268.53
707.94	268.14
708.27	267.35
708.61	266.62
708.94	266.11
709.28	265.67
709.61	265.31
709.94	265.05
710.28	264.66
710.61	264.26
710.95	263.46
711.28	263.42
711.61	262.95
711.95	262.64
712.28	262.16
712.61	261.86
712.95	261.80
713.28	261.70
713.61	261.20
713.95	260.60
714.28	260.18
714.61	259.83
714.95	259.46
715.28	259.05
715.61	258.67
715.95	258.43
716.28	258.07
716.61	257.80
716.95	257.43
717.28	257.11
717.61	256.77
717.94	256.51
718.28	255.80
718.61	255.57
718.94	255.25
719.27	255.07
719.61	254.80
719.94	254.49
720.27	253.95
720.60	253.74
720.94	253.59
721.27	253.41
721.60	253.14
721.93	252.99
722.27	253.01
722.60	252.85
722.93	252.56
723.26	252.40
723.59	252.10
723.93	251.93
724.26	251.75
724.59	251.45
724.92	251.20
725.25	251.21
725.59	250.95
725.92	250.78
726.25	250.57
726.58	250.38
726.91	250.06
727.24	249.96
727.57	249.80
727.91	249.50
728.24	249.37
728.57	249.09
728.90	248.84
729.23	248.49
729.56	248.52
729.89	248.39
730.22	248.26
730.55	248.10
730.89	247.89
731.22	247.67
731.55	247.59
731.88	247.47
732.21	247.17
732.54	246.95
732.87	246.78
733.20	246.64
733.53	246.40
733.86	246.30
734.19	246.10
734.52	245.93
734.85	246.09
735.18	245.91
735.51	245.97
735.84	245.89
736.17	245.82
736.50	245.47
736.83	245.91
737.16	245.65
737.49	245.52
737.82	245.37
738.15	245.32
738.48	245.14
738.81	244.92
739.14	244.77
739.47	244.69
739.80	244.52
740.13	244.40
740.46	244.22
740.79	243.97
741.12	243.81
741.45	243.58
741.78	243.19
742.11	243.13
742.44	242.88
742.77	242.76
743.10	242.56
743.43	242.37
743.75	241.68
744.08	242.22
744.41	242.11
744.74	241.96
745.07	241.67
745.40	241.66
745.73	241.71
746.06	241.65
746.39	241.53
746.71	241.33
747.04	241.15
747.37	241.01
747.70	240.91
748.03	240.74
748.36	240.73
748.68	240.70
749.01	240.42
749.34	240.30
749.67	240.17
750.00	240.11
750.33	240.35
750.65	240.30
750.98	239.65
751.31	239.62
751.64	239.52
751.97	239.72
752.29	239.56
752.62	239.23
752.95	239.01
753.28	238.80
753.60	238.69
753.93	238.74
754.26	238.71
754.59	238.50
754.91	238.34
755.24	238.19
755.57	238.02
755.90	237.94
756.22	237.74
756.55	237.53
756.88	237.30
757.20	236.90
757.53	236.58
757.86	236.45
758.19	236.27
758.51	236.14
758.84	235.84
759.17	235.70
759.49	235.60
759.82	235.73
760.15	235.73
760.47	235.61
760.80	235.37
761.13	235.25
761.45	235.22
761.78	235.15
762.11	235.06
762.43	234.94
762.76	234.87
763.08	234.88
763.41	234.89
763.74	234.88
764.06	234.77
764.39	234.86
764.71	234.75
765.04	234.62
765.37	234.54
765.69	234.40
766.02	234.31
766.34	234.25
766.67	234.01
767.00	234.01
767.32	234.25
767.65	234.48
767.97	234.46
768.30	234.43
768.62	234.42
768.95	234.32
769.27	234.25
769.60	234.21
769.92	234.08
770.25	233.98
770.57	233.86
770.90	233.82
771.22	233.60
771.55	233.54
771.87	233.54
772.20	233.50
772.52	233.86
772.85	234.42
773.17	234.39
773.50	234.30
773.82	234.20
774.15	233.91
774.47	233.52
774.80	233.42
775.12	233.28
775.45	233.17
775.77	233.10
776.09	233.10
776.42	233.14
776.74	233.26
777.07	233.19
777.39	233.21
777.72	233.14
778.04	233.24
778.36	233.21
778.69	233.21
779.01	233.14
779.33	232.75
779.66	232.18
779.98	232.17
780.31	232.20
780.63	232.34
780.95	232.41
781.28	232.33
781.60	232.32
781.92	232.34
782.25	232.31
782.57	232.38
782.89	232.28
783.22	232.16
783.54	231.95
783.86	231.90
784.19	231.75
784.51	231.88
784.83	231.72
785.16	231.62
785.48	231.55
785.80	231.52
786.12	231.48
786.45	231.45
786.77	231.37
787.09	231.25
787.42	231.02
787.74	230.97
788.06	230.98
788.38	230.87
788.71	230.78
789.03	230.73
789.35	230.67
789.67	230.59
789.99	230.57
790.32	230.56
790.64	230.57
790.96	231.00
791.28	230.85
791.61	230.80
791.93	230.79
792.25	230.70
792.57	231.08
792.89	230.90
793.21	230.86
793.54	230.78
793.86	230.74
794.18	230.74
794.50	230.65
794.82	230.57
795.14	230.60
795.47	230.61
795.79	230.60
796.11	230.46
796.43	230.45
796.75	230.40
797.07	230.46
797.39	230.46
797.71	230.10
798.04	230.08
798.36	230.09
798.68	230.08
799.00	230.14
799.32	229.81
799.64	229.96
799.96	229.90
800.28	230.00
800.60	230.00
800.92	229.93
801.24	229.89
801.56	230.00
801.89	230.00
802.21	230.02
802.53	229.93
802.85	230.12
803.17	230.29
803.49	230.20
803.81	230.15
804.13	230.07
804.45	229.96
804.77	229.94
805.09	229.93
805.41	229.90
805.73	229.84
806.05	229.76
806.37	229.75
806.69	229.69
807.01	229.63
807.33	229.58
807.65	229.44
807.97	229.61
808.28	229.52
808.60	229.47
808.92	229.39
809.24	229.66
809.56	229.51
809.88	229.28
810.20	229.30
810.52	229.33
810.84	229.25
811.16	229.17
811.48	229.18
811.80	229.32
812.12	229.30
812.43	229.31
812.75	229.28
813.07	229.12
813.39	229.18
813.71	229.08
814.03	229.01
814.35	229.04
814.67	228.89
814.98	228.85
815.30	228.84
815.62	228.74
815.94	228.50
816.26	228.62
816.58	228.55
816.89	228.57
817.21	228.42
817.53	228.41
817.85	228.46
818.17	228.37
818.48	228.21
818.80	228.30
819.12	228.27
819.44	228.25
819.76	228.20
820.07	228.13
820.39	228.13
820.71	228.15
821.03	228.19
821.34	228.20
821.66	228.24
821.98	228.25
822.30	228.21
822.61	228.43
822.93	228.22
823.25	228.21
823.57	228.17
823.88	228.23
824.20	228.19
824.52	228.28
824.83	228.30
825.15	228.18
825.47	228.11
825.79	228.10
826.10	228.07
826.42	228.03
826.74	228.05
827.05	228.05
827.37	228.16
827.69	228.12
828.00	228.05
828.32	228.04
828.64	227.96
828.95	228.27
829.27	228.09
829.58	228.12
829.90	228.20
830.22	228.16
830.53	228.04
830.85	228.00
831.17	227.85
831.48	227.85
831.80	227.91
832.11	227.84
832.43	227.71
832.75	227.61
833.06	227.93
833.38	227.82
833.69	227.79
834.01	227.71
834.32	227.69
834.64	227.59
834.96	227.58
835.27	227.65
835.59	227.46
835.90	227.37
836.22	227.36
836.53	227.29
836.85	227.28
837.16	227.79
837.48	227.82
837.79	227.99
838.11	227.95
838.42	227.95
838.74	228.06
839.05	228.08
839.37	228.17
839.68	227.89
840.00	227.89
840.31	227.92
840.63	227.95
840.94	227.94
841.26	228.02
841.57	227.98
841.88	227.98
842.20	227.96
842.51	228.00
842.83	228.05
843.14	228.43
843.46	228.53
843.77	228.33
844.08	228.27
844.40	228.09
844.71	228.02
845.03	227.94
845.34	227.87
845.65	227.88
845.97	227.89
846.28	227.95
846.60	227.98
846.91	227.96
847.22	227.87
847.54	227.95
847.85	227.88
848.16	227.84
848.48	227.72
848.79	227.95
849.10	227.94
849.42	227.91
849.73	227.52
850.04	227.42
850.36	227.13
850.67	227.35
850.98	227.37
851.30	227.47
851.61	227.44
851.92	227.46
852.23	227.62
852.55	227.64
852.86	227.61
853.17	227.65
853.49	227.65
853.80	227.84
854.11	227.89
854.42	227.98
854.74	227.88
855.05	227.89
855.36	227.55
855.67	227.60
855.99	227.61
856.30	228.12
856.61	228.12
856.92	228.16
857.23	227.99
857.55	227.90
857.86	227.89
858.17	228.06
858.48	227.98
858.79	227.86
859.11	227.85
859.42	227.82
859.73	227.78
860.04	227.85
860.35	227.63
860.66	227.41
860.98	227.40
861.29	227.58
861.60	227.51
861.91	227.63
862.22	227.53
862.53	227.45
862.84	226.96
863.16	227.07
863.47	226.98
863.78	226.98
864.09	227.03
864.40	227.05
864.71	226.99
865.02	227.00
865.33	226.96
865.64	226.85
865.95	226.88
866.27	227.19
866.58	227.11
866.89	227.17
867.20	227.23
867.51	227.11
867.82	226.96
868.13	227.17
868.44	227.03
868.75	227.10
869.06	227.11
869.37	227.13
869.68	227.02
869.99	227.12
870.30	227.18
870.61	227.17
870.92	227.01
871.23	226.98
871.54	227.02
871.85	227.12
872.16	227.23
872.47	227.16
872.78	226.86
873.09	226.87
873.40	226.83
873.71	226.81
874.02	226.91
874.33	226.90
874.64	226.80
874.95	226.88
875.26	226.75
875.56	226.70
875.87	226.75
876.18	226.74
876.49	227.22
876.80	227.19
877.11	227.15
877.42	227.19
877.73	227.14
878.04	227.14
878.35	227.13
878.66	227.11
878.96	227.13
879.27	227.14
879.58	227.15
879.89	227.16
880.20	227.26
880.51	227.22
880.82	227.30
881.12	227.30
881.43	227.28
881.74	227.19
882.05	227.27
882.36	227.28
882.67	227.26
882.97	226.75
883.28	226.73
883.59	226.71
883.90	226.76
884.21	226.88
884.51	226.87
884.82	226.80
885.13	226.77
885.44	226.76
885.74	226.76
886.05	226.69
886.36	226.67
886.67	226.56
886.98	226.81
887.28	226.88
887.59	226.87
887.90	226.84
888.20	226.88
888.51	226.88
888.82	226.74
889.13	226.80
889.43	227.21
889.74	227.16
890.05	227.21
890.35	227.20
890.66	227.11
890.97	227.06
891.28	227.05
891.58	227.04
891.89	227.03
892.20	226.96
892.50	227.03
892.81	227.02
893.12	226.97
893.42	226.75
893.73	226.70
894.04	226.73
894.34	226.77
894.65	226.74
894.95	226.68
895.26	226.69
895.57	226.82
895.87	226.33
896.18	226.40
896.48	226.43
896.79	226.36
897.10	226.41
897.40	226.41
897.71	226.48
898.01	226.45
898.32	226.52
898.63	226.54
898.93	226.49
899.24	226.45
899.54	226.45
899.85	226.38
900.15	226.35
900.46	226.31
900.76	226.37
901.07	226.36
901.38	226.43
901.68	226.49
901.99	226.29
902.29	226.34
902.60	226.28
902.90	226.22
903.21	226.20
903.51	226.14
903.82	226.31
904.12	226.22
904.43	226.29
904.73	226.30
905.03	226.30
905.34	226.78
905.64	226.84
905.95	226.84
906.25	226.85
906.56	226.75
906.86	226.74
907.17	226.65
907.47	226.76
907.77	226.63
908.08	226.52
908.38	226.57
908.69	226.62
908.99	226.78
909.30	226.84
909.60	226.91
909.90	226.98
910.21	226.78
910.51	226.73
910.81	226.74
911.12	226.67
911.42	226.67
911.73	226.18
912.03	226.15
912.33	226.24
912.64	226.23
912.94	226.28
913.24	226.29
913.55	226.27
913.85	226.21
914.15	226.29
914.46	226.33
914.76	226.31
915.06	226.27
915.37	226.11
915.67	226.07
915.97	226.02
916.27	225.89
916.58	225.96
916.88	225.97
917.18	225.90
917.49	226.29
917.79	226.27
918.09	226.36
918.39	226.56
918.70	226.57
919.00	226.56
919.30	226.84
919.60	226.71
919.91	226.68
920.21	226.68
920.51	226.65
920.81	226.70
921.12	226.75
921.42	226.78
921.72	226.80
922.02	226.87
922.32	227.00
922.63	227.04
922.93	227.27
923.23	227.29
923.53	227.23
923.83	226.91
924.13	226.97
924.44	226.91
924.74	226.92
925.04	226.99
925.34	227.07
925.64	226.80
925.94	226.91
926.24	227.23
926.55	227.27
926.85	227.34
927.15	227.26
927.45	227.27
927.75	227.23
928.05	227.28
928.35	227.22
928.65	227.26
928.95	227.32
929.26	227.09
929.56	227.21
929.86	227.31
930.16	227.26
930.46	227.19
930.76	227.23
931.06	227.02
931.36	226.86
931.66	226.84
931.96	226.94
932.26	226.87
932.56	226.63
932.86	226.64
933.16	226.57
933.46	226.65
933.76	226.55
934.06	226.63
934.36	226.80
934.66	226.80
934.96	226.73
935.26	226.75
935.56	226.84
935.86	226.70
936.16	226.62
936.46	226.61
936.76	226.62
937.06	226.55
937.36	226.58
937.66	226.66
937.96	226.65
938.26	226.47
938.56	226.55
938.86	226.65
939.16	226.76
939.46	226.79
939.76	226.81
940.06	226.82
940.35	226.73
940.65	226.47
940.95	226.43
941.25	226.38
941.55	226.35
941.85	226.36
942.15	226.45
942.45	226.56
942.75	226.57
943.04	226.57
943.34	226.70
943.64	226.66
943.94	226.58
944.24	226.62
944.54	226.71
944.84	226.65
945.13	226.50
945.43	226.40
945.73	226.44
946.03	226.35
946.33	226.36
946.62	226.33
946.92	226.29
947.22	226.40
947.52	226.45
947.82	226.46
948.11	226.41
948.41	226.27
948.71	226.17
949.01	226.16
949.31	226.16
949.60	226.08
949.90	226.17
950.20	226.14
950.50	226.18
950.79	226.16
951.09	226.24
951.39	226.22
951.69	226.18
951.98	226.34
952.28	226.45
952.58	226.44
952.87	226.49
953.17	226.66
953.47	226.61
953.76	226.66
954.06	226.55
954.36	226.40
954.66	226.44
954.95	226.54
955.25	226.62
955.55	226.74
955.84	226.69
956.14	226.77
956.44	226.83
956.73	226.76
957.03	226.88
957.32	226.89
957.62	226.96
957.92	227.10
958.21	226.99
958.51	227.48
958.81	227.55
959.10	227.59
959.40	227.65
959.69	227.67
959.99	227.70
960.29	227.78
960.58	227.81
960.88	228.02
961.17	228.00
961.47	228.07
961.76	228.01
962.06	228.13
962.36	228.02
962.65	228.07
962.95	228.08
963.24	227.94
963.54	227.99
963.83	228.05
964.13	228.00
964.42	227.85
964.72	227.51
965.01	227.44
965.31	227.40
965.60	227.22
965.90	227.48
966.19	227.34
966.49	227.37
966.78	227.40
967.08	227.32
967.37	227.30
967.67	227.18
967.96	227.26
968.26	227.22
968.55	227.30
968.85	227.25
969.14	227.22
969.43	227.18
969.73	227.09
970.02	227.01
970.32	226.90
970.61	226.92
970.91	226.71
971.20	226.62
971.49	226.56
971.79	226.64
972.08	226.35
972.38	226.38
972.67	226.31
972.96	226.32
973.26	226.21
973.55	226.31
973.85	226.25
974.14	226.15
974.43	226.16
974.73	226.05
975.02	226.01
975.31	226.00
975.61	226.05
975.90	226.02
976.19	226.01
976.49	226.05
976.78	226.07
977.07	226.11
977.37	226.19
977.66	226.28
977.95	226.12
978.24	226.13
978.54	226.20
978.83	226.19
979.12	226.16
979.42	226.13
979.71	226.11
980.00	226.07
980.29	226.06
980.59	225.98
980.88	226.06
981.17	226.06
981.46	226.07
981.76	226.05
982.05	226.19
982.34	226.23
982.63	226.25
982.93	226.29
983.22	226.38
983.51	226.36
983.80	226.33
984.09	226.48
984.39	226.49
984.68	226.44
984.97	226.47
985.26	226.49
985.55	226.55
985.85	226.42
986.14	226.56
986.43	226.67
986.72	226.65
987.01	226.50
987.30	226.56
987.59	226.50
987.89	226.56
988.18	226.41
988.47	226.38
988.76	226.38
989.05	226.25
989.34	226.18
989.63	226.31
989.92	226.27
990.22	226.22
990.51	226.12
990.80	226.05
991.09	226.13
991.38	226.09
991.67	226.05
991.96	226.03
992.25	225.99
992.54	225.83
992.83	225.87
993.12	225.85
993.41	225.91
993.70	226.10
993.99	226.14
994.28	226.20
994.58	226.23
994.87	226.15
995.16	226.20
995.45	226.10
995.74	226.03
996.03	226.10
996.32	226.17
996.61	226.33
996.90	226.34
997.19	226.27
997.48	226.41
997.77	226.37
998.06	226.42
998.34	226.43
998.63	226.47
998.92	226.53
999.21	226.64
999.50	226.53
999.79	226.38
1000.08	226.37
1000.37	226.37
1000.66	226.36
1000.95	226.46
1001.24	226.49
1001.53	226.62
1001.82	226.58
1002.11	226.45
1002.40	226.53
1002.68	226.68
1002.97	227.00
1003.26	226.95
1003.55	226.78
1003.84	226.81
1004.13	226.92
1004.42	226.89
1004.71	226.90
1004.99	226.84
1005.28	226.96
1005.57	227.03
1005.86	227.01
1006.15	226.98
1006.44	226.93
1006.72	226.91
1007.01	226.85
1007.30	226.90
1007.59	226.85
1007.88	226.86
1008.17	226.95
1008.45	226.82
1008.74	226.57
1009.03	226.39
1009.32	226.45
1009.60	226.50
1009.89	226.45
1010.18	226.29
1010.47	226.21
1010.76	226.24
1011.04	226.19
1011.33	226.16
1011.62	226.14
1011.91	226.21
1012.19	226.25
1012.48	226.26
1012.77	226.26
1013.05	226.46
1013.34	226.50
1013.63	226.46
1013.92	226.46
1014.20	226.45
1014.49	226.42
1014.78	226.53
1015.06	226.36
1015.35	226.36
1015.64	226.44
1015.92	226.56
1016.21	226.63
1016.50	226.70
1016.78	226.75
1017.07	226.81
1017.36	226.71
1017.64	226.68
1017.93	226.71
1018.22	226.61
1018.50	226.65
1018.79	226.69
1019.08	226.46
1019.36	226.40
1019.65	226.30
1019.93	226.43
1020.22	226.53
1020.51	226.82
1020.79	226.78
1021.08	224.75
1021.36	226.55
1021.65	227.10
1021.94	225.35
1022.22	226.40
1022.51	224.05
1022.79	228.45
1023.08	228.10
1023.36	232.35
1023.65	226.65
>>>>>End Processed Spectral Data<<<<<
