SpectraSuite Data File
++++++++++++++++++++++++++++++++++++
Date: Wed Sep 04 18:03:53 EDT 2013
User: lab3
Dark Spectrum Present: Yes
Reference Spectrum Present: No
Number of Sampled Component Spectra: 1
Spectrometers: USB2E7196
Integration Time (usec): 170000 (USB2E7196)
Spectra Averaged: 20 (USB2E7196)
Boxcar Smoothing: 10 (USB2E7196)
Correct for Electrical Dark: No (USB2E7196)
Strobe/Lamp Enabled: No (USB2E7196)
Correct for Detector Non-linearity: No (USB2E7196)
Correct for Stray Light: No (USB2E7196)
Number of Pixels in Processed Spectrum: 2048
>>>>>Begin Processed Spectral Data<<<<<
339.09	0.00
339.48	214.05
339.86	214.55
340.24	216.15
340.63	218.05
341.01	225.10
341.39	220.85
341.78	221.65
342.16	224.25
342.54	223.90
342.93	212.60
343.31	223.32
343.69	223.85
344.07	224.30
344.46	224.79
344.84	225.21
345.22	225.20
345.60	225.54
345.99	225.79
346.37	225.97
346.75	226.04
347.13	226.14
347.52	226.19
347.90	226.46
348.28	226.48
348.66	226.58
349.05	226.42
349.43	226.53
349.81	226.59
350.19	226.66
350.57	226.69
350.96	226.77
351.34	226.90
351.72	227.02
352.10	227.07
352.48	227.07
352.87	227.13
353.25	227.27
353.63	227.25
354.01	227.31
354.39	227.28
354.77	227.39
355.15	227.57
355.54	227.63
355.92	227.49
356.30	227.62
356.68	228.02
357.06	228.24
357.44	228.22
357.82	228.28
358.20	228.70
358.58	228.79
358.97	228.82
359.35	228.94
359.73	229.05
360.11	229.22
360.49	229.39
360.87	229.40
361.25	229.47
361.63	229.70
362.01	229.77
362.39	229.76
362.77	229.84
363.15	229.80
363.53	229.84
363.91	229.95
364.29	229.97
364.67	229.61
365.05	229.54
365.43	229.61
365.81	229.65
366.19	229.55
366.57	229.78
366.95	229.82
367.33	229.74
367.71	229.68
368.09	229.71
368.47	229.68
368.85	229.62
369.23	229.72
369.61	229.38
369.99	229.49
370.37	229.56
370.75	229.78
371.13	229.70
371.51	229.56
371.89	229.58
372.27	229.63
372.65	229.60
373.03	229.60
373.41	229.55
373.78	229.52
374.16	229.25
374.54	228.99
374.92	228.87
375.30	228.90
375.68	228.82
376.06	228.81
376.44	228.70
376.82	228.72
377.19	228.67
377.57	228.74
377.95	228.55
378.33	228.45
378.71	228.11
379.09	228.15
379.47	228.23
379.84	228.11
380.22	227.88
380.60	227.69
380.98	227.61
381.36	227.51
381.73	227.40
382.11	227.38
382.49	227.40
382.87	227.28
383.25	227.08
383.62	227.68
384.00	227.54
384.38	227.51
384.76	227.53
385.13	227.62
385.51	227.50
385.89	227.34
386.27	227.30
386.64	227.31
387.02	227.20
387.40	227.05
387.78	227.03
388.15	227.06
388.53	227.08
388.91	227.06
389.29	227.03
389.66	227.12
390.04	227.03
390.42	227.10
390.79	227.09
391.17	227.11
391.55	226.43
391.92	226.38
392.30	226.43
392.68	226.35
393.05	226.31
393.43	226.37
393.81	226.45
394.18	226.50
394.56	226.51
394.94	226.60
395.31	226.56
395.69	226.76
396.06	226.89
396.44	226.96
396.82	226.91
397.19	227.23
397.57	227.21
397.95	227.35
398.32	227.18
398.70	227.38
399.07	227.65
399.45	227.74
399.82	227.85
400.20	227.88
400.58	228.00
400.95	227.89
401.33	228.09
401.70	228.56
402.08	228.67
402.45	228.84
402.83	229.18
403.20	229.41
403.58	229.54
403.95	229.80
404.33	229.98
404.71	230.28
405.08	230.65
405.46	230.81
405.83	231.09
406.21	231.42
406.58	231.75
406.96	231.96
407.33	232.33
407.70	232.75
408.08	233.50
408.45	233.94
408.83	234.40
409.20	234.79
409.58	234.87
409.95	235.44
410.33	235.95
410.70	236.28
411.08	236.94
411.45	237.59
411.82	238.05
412.20	238.87
412.57	239.83
412.95	240.24
413.32	241.21
413.69	242.05
414.07	243.00
414.44	243.98
414.82	245.05
415.19	246.23
415.56	247.42
415.94	248.51
416.31	249.94
416.68	251.39
417.06	253.10
417.43	254.82
417.81	256.54
418.18	258.36
418.55	260.35
418.93	262.31
419.30	264.34
419.67	266.70
420.04	268.99
420.42	271.31
420.79	274.39
421.16	277.21
421.54	280.29
421.91	283.30
422.28	286.35
422.66	289.66
423.03	293.13
423.40	296.45
423.77	299.92
424.15	303.55
424.52	307.27
424.89	311.40
425.26	315.35
425.64	319.19
426.01	323.42
426.38	327.87
426.75	332.49
427.13	337.14
427.50	341.89
427.87	346.91
428.24	351.83
428.61	356.44
428.99	361.78
429.36	367.29
429.73	372.78
430.10	378.47
430.47	384.21
430.85	389.93
431.22	396.27
431.59	403.16
431.96	409.44
432.33	416.56
432.70	423.36
433.08	431.29
433.45	438.79
433.82	446.14
434.19	454.32
434.56	462.37
434.93	470.03
435.30	477.72
435.68	486.33
436.05	494.89
436.42	503.22
436.79	510.93
437.16	519.28
437.53	528.18
437.90	536.86
438.27	545.46
438.64	554.36
439.01	562.52
439.38	569.66
439.75	576.77
440.13	584.80
440.50	592.31
440.87	598.38
441.24	604.84
441.61	611.82
441.98	616.91
442.35	622.87
442.72	628.84
443.09	634.78
443.46	638.09
443.83	640.34
444.20	642.24
444.57	644.93
444.94	646.04
445.31	647.04
445.68	648.41
446.05	648.57
446.42	647.32
446.79	645.93
447.16	644.17
447.53	643.04
447.90	639.26
448.27	635.58
448.64	630.65
449.01	626.93
449.37	620.81
449.74	614.68
450.11	607.69
450.48	599.99
450.85	591.96
451.22	585.15
451.59	578.58
451.96	572.35
452.33	564.15
452.70	556.78
453.07	548.08
453.43	538.83
453.80	530.37
454.17	522.19
454.54	514.48
454.91	506.38
455.28	498.20
455.65	490.66
456.02	483.61
456.38	477.18
456.75	469.28
457.12	462.72
457.49	456.40
457.86	450.00
458.23	444.71
458.59	438.97
458.96	433.13
459.33	427.84
459.70	422.70
460.07	418.56
460.43	413.78
460.80	409.48
461.17	405.68
461.54	401.74
461.91	397.99
462.27	394.05
462.64	390.82
463.01	387.29
463.38	384.12
463.74	380.13
464.11	377.14
464.48	374.43
464.85	371.50
465.21	369.40
465.58	367.13
465.95	364.31
466.32	362.05
466.68	359.81
467.05	357.65
467.42	355.41
467.78	353.17
468.15	351.11
468.52	349.56
468.88	347.48
469.25	345.42
469.62	343.94
469.98	342.39
470.35	340.80
470.72	339.36
471.08	337.57
471.45	336.45
471.82	335.20
472.18	333.79
472.55	332.83
472.92	331.50
473.28	330.39
473.65	329.40
474.02	328.30
474.38	327.40
474.75	326.66
475.11	325.72
475.48	324.95
475.85	324.23
476.21	323.52
476.58	323.03
476.94	322.67
477.31	322.25
477.67	321.80
478.04	321.48
478.41	321.23
478.77	321.51
479.14	321.18
479.50	321.14
479.87	321.31
480.23	321.38
480.60	321.41
480.96	321.46
481.33	321.81
481.69	322.07
482.06	322.33
482.42	322.56
482.79	322.98
483.15	323.51
483.52	324.13
483.88	324.66
484.25	325.15
484.61	325.76
484.98	326.32
485.34	327.30
485.71	328.28
486.07	329.27
486.44	329.92
486.80	331.09
487.17	332.16
487.53	333.47
487.90	334.88
488.26	336.50
488.62	338.17
488.99	339.64
489.35	341.36
489.72	343.14
490.08	345.03
490.44	347.00
490.81	349.25
491.17	351.52
491.54	354.05
491.90	356.57
492.26	359.27
492.63	362.13
492.99	364.90
493.36	367.94
493.72	371.24
494.08	374.70
494.45	378.40
494.81	382.37
495.17	386.23
495.54	390.33
495.90	394.49
496.26	398.93
496.63	403.55
496.99	408.32
497.35	413.45
497.72	418.96
498.08	424.39
498.44	429.98
498.80	436.05
499.17	441.99
499.53	448.43
499.89	455.13
500.26	461.95
500.62	469.00
500.98	476.43
501.34	483.93
501.71	491.69
502.07	499.52
502.43	507.61
502.79	515.95
503.16	524.66
503.52	533.77
503.88	542.99
504.24	552.73
504.60	562.76
504.97	573.15
505.33	583.50
505.69	594.81
506.05	605.80
506.41	616.93
506.78	628.78
507.14	640.80
507.50	652.96
507.86	665.69
508.22	678.69
508.59	691.72
508.95	705.45
509.31	719.45
509.67	733.67
510.03	748.00
510.39	762.86
510.75	777.89
511.12	793.11
511.48	808.80
511.84	824.63
512.20	840.45
512.56	856.53
512.92	873.39
513.28	889.96
513.64	907.35
514.00	924.95
514.37	942.78
514.73	960.75
515.09	979.08
515.45	997.54
515.81	1016.04
516.17	1034.73
516.53	1053.42
516.89	1072.35
517.25	1091.50
517.61	1111.67
517.97	1131.98
518.33	1152.02
518.69	1172.41
519.05	1192.95
519.41	1213.59
519.77	1235.03
520.13	1256.05
520.49	1276.88
520.85	1299.43
521.21	1320.73
521.57	1342.37
521.93	1363.33
522.29	1384.70
522.65	1405.42
523.01	1426.34
523.37	1447.12
523.73	1468.26
524.09	1488.89
524.45	1509.62
524.81	1531.10
525.17	1551.85
525.53	1572.64
525.89	1593.90
526.25	1614.80
526.61	1635.42
526.97	1656.64
527.33	1677.85
527.68	1699.68
528.04	1720.81
528.40	1740.54
528.76	1761.58
529.12	1781.69
529.48	1802.23
529.84	1822.44
530.20	1844.05
530.56	1864.96
530.91	1886.12
531.27	1906.83
531.63	1927.72
531.99	1948.80
532.35	1968.62
532.71	1989.29
533.07	2009.98
533.42	2029.76
533.78	2049.71
534.14	2069.84
534.50	2089.03
534.86	2108.31
535.21	2126.15
535.57	2144.92
535.93	2162.65
536.29	2180.50
536.65	2198.94
537.00	2216.70
537.36	2234.58
537.72	2251.15
538.08	2268.42
538.44	2285.32
538.79	2301.85
539.15	2318.75
539.51	2334.30
539.87	2350.13
540.22	2364.02
540.58	2378.00
540.94	2391.63
541.29	2404.35
541.65	2416.88
542.01	2429.62
542.37	2440.50
542.72	2451.80
543.08	2462.84
543.44	2474.93
543.79	2485.18
544.15	2495.21
544.51	2505.70
544.87	2515.48
545.22	2524.34
545.58	2532.01
545.94	2539.34
546.29	2545.89
546.65	2551.95
547.01	2557.85
547.36	2562.95
547.72	2568.85
548.07	2573.52
548.43	2578.92
548.79	2584.00
549.14	2588.22
549.50	2592.17
549.86	2596.05
550.21	2599.47
550.57	2602.55
550.92	2604.19
551.28	2605.40
551.64	2607.55
551.99	2609.47
552.35	2610.98
552.70	2612.59
553.06	2614.39
553.41	2615.72
553.77	2617.91
554.13	2619.32
554.48	2621.15
554.84	2623.09
555.19	2624.17
555.55	2625.80
555.90	2624.77
556.26	2623.80
556.61	2622.15
556.97	2619.81
557.32	2619.50
557.68	2618.68
558.03	2617.41
558.39	2615.85
558.74	2615.54
559.10	2612.40
559.45	2608.90
559.81	2604.72
560.16	2599.93
560.52	2595.31
560.87	2591.02
561.23	2585.45
561.58	2579.70
561.94	2572.80
562.29	2565.37
562.64	2558.49
563.00	2550.20
563.35	2544.20
563.71	2537.64
564.06	2531.85
564.42	2525.65
564.77	2518.62
565.12	2511.02
565.48	2503.46
565.83	2495.75
566.19	2487.62
566.54	2480.12
566.89	2472.05
567.25	2464.24
567.60	2457.19
567.96	2449.59
568.31	2441.23
568.66	2432.69
569.02	2423.63
569.37	2415.65
569.72	2407.98
570.08	2398.72
570.43	2388.85
570.78	2379.69
571.14	2370.37
571.49	2360.22
571.84	2350.69
572.20	2339.75
572.55	2329.42
572.90	2318.29
573.26	2307.93
573.61	2296.65
573.96	2285.55
574.31	2273.60
574.67	2261.98
575.02	2249.10
575.37	2236.35
575.72	2223.19
576.08	2210.56
576.43	2198.05
576.78	2184.75
577.13	2170.89
577.49	2157.72
577.84	2146.24
578.19	2134.04
578.54	2121.65
578.90	2109.47
579.25	2096.90
579.60	2084.33
579.95	2071.35
580.30	2058.20
580.66	2044.35
581.01	2031.02
581.36	2017.08
581.71	2004.53
582.06	1991.26
582.42	1978.99
582.77	1966.28
583.12	1954.40
583.47	1942.17
583.82	1930.11
584.17	1918.03
584.53	1906.17
584.88	1893.46
585.23	1880.15
585.58	1865.75
585.93	1852.23
586.28	1838.64
586.63	1824.62
586.98	1810.37
587.34	1797.46
587.69	1784.38
588.04	1772.12
588.39	1759.63
588.74	1747.18
589.09	1734.87
589.44	1721.81
589.79	1709.53
590.14	1697.66
590.49	1685.35
590.84	1673.29
591.19	1661.15
591.54	1648.75
591.89	1636.40
592.25	1626.22
592.60	1614.80
592.95	1603.63
593.30	1591.43
593.65	1579.75
594.00	1567.53
594.35	1557.63
594.70	1545.46
595.05	1533.96
595.40	1521.55
595.75	1509.61
596.10	1498.27
596.45	1486.41
596.80	1475.78
597.15	1464.08
597.50	1452.15
597.85	1440.70
598.19	1429.08
598.54	1417.59
598.89	1406.39
599.24	1395.92
599.59	1383.58
599.94	1372.72
600.29	1361.96
600.64	1351.60
600.99	1340.60
601.34	1331.18
601.69	1319.82
602.04	1309.80
602.39	1299.98
602.74	1290.56
603.08	1281.21
603.43	1271.75
603.78	1262.10
604.13	1252.47
604.48	1242.56
604.83	1232.75
605.18	1223.06
605.53	1213.44
605.87	1203.91
606.22	1195.09
606.57	1185.34
606.92	1176.15
607.27	1166.84
607.62	1157.91
607.96	1149.15
608.31	1141.03
608.66	1132.36
609.01	1123.85
609.36	1115.38
609.70	1106.58
610.05	1098.12
610.40	1089.36
610.75	1080.65
611.10	1072.16
611.44	1063.42
611.79	1055.41
612.14	1047.55
612.49	1039.34
612.83	1031.71
613.18	1023.99
613.53	1016.00
613.88	1008.21
614.22	1000.53
614.57	992.71
614.92	984.89
615.27	977.42
615.61	969.59
615.96	962.00
616.31	954.32
616.65	947.22
617.00	939.81
617.35	932.45
617.70	925.38
618.04	918.27
618.39	911.36
618.74	904.89
619.08	897.68
619.43	890.58
619.78	883.64
620.12	876.64
620.47	869.79
620.82	862.71
621.16	855.95
621.51	849.54
621.85	843.18
622.20	836.54
622.55	829.92
622.89	823.53
623.24	817.05
623.59	810.62
623.93	804.15
624.28	798.14
624.62	792.47
624.97	786.52
625.32	780.70
625.66	774.69
626.01	768.35
626.35	762.95
626.70	757.25
627.04	751.82
627.39	746.07
627.73	740.61
628.08	735.30
628.43	729.71
628.77	724.24
629.12	718.67
629.46	713.82
629.81	708.70
630.15	703.64
630.50	698.64
630.84	693.77
631.19	688.92
631.53	684.22
631.88	678.82
632.22	673.81
632.57	669.17
632.91	664.43
633.26	659.91
633.60	655.23
633.95	650.61
634.29	645.74
634.64	641.36
634.98	636.52
635.32	632.20
635.67	628.12
636.01	623.84
636.36	619.64
636.70	615.52
637.05	611.49
637.39	607.57
637.73	603.53
638.08	599.56
638.42	595.33
638.77	591.03
639.11	586.56
639.45	582.31
639.80	577.75
640.14	573.59
640.49	569.58
640.83	565.61
641.17	561.84
641.52	558.19
641.86	554.52
642.20	551.35
642.55	547.53
642.89	543.88
643.23	540.28
643.58	537.09
643.92	533.21
644.26	529.82
644.61	526.42
644.95	522.86
645.29	519.35
645.64	516.22
645.98	512.98
646.32	510.26
646.66	506.98
647.01	504.08
647.35	501.31
647.69	498.29
648.04	495.35
648.38	492.49
648.72	489.51
649.06	486.28
649.41	483.08
649.75	480.04
650.09	477.22
650.43	474.40
650.78	471.30
651.12	468.45
651.46	465.52
651.80	462.63
652.14	459.95
652.49	457.47
652.83	454.81
653.17	452.13
653.51	449.29
653.85	447.01
654.20	444.41
654.54	441.74
654.88	439.29
655.22	437.06
655.56	434.50
655.90	432.16
656.25	429.98
656.59	427.88
656.93	425.76
657.27	423.58
657.61	421.07
657.95	418.98
658.29	416.81
658.64	414.63
658.98	412.47
659.32	410.25
659.66	407.98
660.00	405.87
660.34	403.84
660.68	401.87
661.02	399.80
661.36	397.81
661.70	395.88
662.05	393.91
662.39	391.91
662.73	390.22
663.07	388.56
663.41	386.75
663.75	384.74
664.09	382.92
664.43	380.99
664.77	379.48
665.11	377.63
665.45	375.99
665.79	374.37
666.13	372.67
666.47	371.00
666.81	369.42
667.15	367.64
667.49	366.09
667.83	364.72
668.17	363.22
668.51	361.83
668.85	360.47
669.19	359.37
669.53	357.95
669.87	356.32
670.21	354.79
670.55	353.38
670.89	352.31
671.23	351.02
671.57	349.63
671.91	348.21
672.25	346.86
672.58	345.62
672.92	344.20
673.26	342.92
673.60	341.80
673.94	340.55
674.28	339.48
674.62	338.26
674.96	336.93
675.30	335.75
675.64	334.58
675.97	333.22
676.31	331.75
676.65	330.45
676.99	329.54
677.33	328.28
677.67	327.15
678.01	325.71
678.34	324.60
678.68	323.63
679.02	322.58
679.36	321.58
679.70	320.58
680.04	319.66
680.37	318.64
680.71	317.56
681.05	316.69
681.39	315.76
681.73	314.88
682.06	313.92
682.40	313.08
682.74	312.22
683.08	311.57
683.42	310.73
683.75	309.98
684.09	309.01
684.43	308.25
684.77	307.40
685.10	306.60
685.44	305.79
685.78	304.96
686.12	304.19
686.45	303.41
686.79	302.54
687.13	301.83
687.46	301.09
687.80	300.52
688.14	299.72
688.48	298.96
688.81	298.21
689.15	297.62
689.49	296.80
689.82	296.21
690.16	295.19
690.50	294.52
690.83	293.83
691.17	292.98
691.51	292.31
691.84	291.70
692.18	290.98
692.52	290.28
692.85	289.66
693.19	289.17
693.52	288.60
693.86	287.91
694.20	287.18
694.53	286.57
694.87	285.83
695.21	285.18
695.54	284.56
695.88	283.83
696.21	283.03
696.55	282.50
696.88	281.81
697.22	281.35
697.56	280.75
697.89	280.09
698.23	279.73
698.56	279.15
698.90	278.63
699.23	278.09
699.57	277.64
699.90	277.08
700.24	276.41
700.58	275.91
700.91	275.53
701.25	275.56
701.58	275.43
701.92	275.10
702.25	274.68
702.59	274.16
702.92	273.84
703.26	273.47
703.59	272.99
703.93	272.93
704.26	272.53
704.60	272.14
704.93	271.74
705.26	271.21
705.60	270.90
705.93	270.35
706.27	270.14
706.60	269.76
706.94	269.51
707.27	269.16
707.61	268.70
707.94	268.37
708.27	267.52
708.61	266.78
708.94	266.37
709.28	265.96
709.61	265.65
709.94	265.34
710.28	264.97
710.61	264.58
710.95	263.77
711.28	263.71
711.61	263.25
711.95	263.02
712.28	262.55
712.61	262.16
712.95	262.13
713.28	261.96
713.61	261.55
713.95	261.09
714.28	260.72
714.61	260.45
714.95	260.01
715.28	259.70
715.61	259.37
715.95	258.99
716.28	258.65
716.61	258.35
716.95	257.96
717.28	257.65
717.61	257.38
717.94	257.01
718.28	256.36
718.61	256.16
718.94	255.80
719.27	255.62
719.61	255.45
719.94	255.09
720.27	254.54
720.60	254.31
720.94	254.09
721.27	253.88
721.60	253.69
721.93	253.40
722.27	253.29
722.60	253.10
722.93	252.82
723.26	252.63
723.59	252.30
723.93	252.17
724.26	252.01
724.59	251.73
724.92	251.65
725.25	251.59
725.59	251.36
725.92	251.19
726.25	250.99
726.58	250.74
726.91	250.53
727.24	250.45
727.57	250.23
727.91	250.00
728.24	249.86
728.57	249.58
728.90	249.53
729.23	249.23
729.56	249.28
729.89	249.06
730.22	248.79
730.55	248.58
730.89	248.25
731.22	248.00
731.55	247.83
731.88	247.63
732.21	247.34
732.54	247.13
732.87	246.94
733.20	246.82
733.53	246.65
733.86	246.44
734.19	246.21
734.52	246.05
734.85	246.16
735.18	245.93
735.51	245.89
735.84	245.70
736.17	245.60
736.50	245.19
736.83	245.61
737.16	245.52
737.49	245.48
737.82	245.39
738.15	245.35
738.48	245.17
738.81	245.00
739.14	244.81
739.47	244.54
739.80	244.43
740.13	244.32
740.46	244.12
740.79	243.97
741.12	243.76
741.45	243.63
741.78	243.28
742.11	243.30
742.44	243.16
742.77	243.05
743.10	242.82
743.43	242.55
743.75	241.92
744.08	242.42
744.41	242.20
744.74	241.98
745.07	241.73
745.40	241.75
745.73	241.79
746.06	241.68
746.39	241.67
746.71	241.48
747.04	241.18
747.37	241.00
747.70	240.90
748.03	240.89
748.36	240.77
748.68	240.61
749.01	240.33
749.34	240.15
749.67	240.00
750.00	240.07
750.33	240.41
750.65	240.37
750.98	239.61
751.31	239.57
751.64	239.54
751.97	239.78
752.29	239.57
752.62	239.30
752.95	239.21
753.28	239.02
753.60	238.88
753.93	238.99
754.26	238.94
754.59	238.76
754.91	238.61
755.24	238.46
755.57	238.39
755.90	238.22
756.22	238.08
756.55	237.89
756.88	237.58
757.20	237.18
757.53	236.94
757.86	236.83
758.19	236.70
758.51	236.56
758.84	236.15
759.17	236.03
759.49	235.97
759.82	236.04
760.15	236.05
760.47	235.91
760.80	235.64
761.13	235.60
761.45	235.51
761.78	235.37
762.11	235.31
762.43	235.08
762.76	235.05
763.08	234.97
763.41	235.02
763.74	234.95
764.06	234.90
764.39	234.84
764.71	234.84
765.04	234.81
765.37	234.73
765.69	234.65
766.02	234.57
766.34	234.39
766.67	234.16
767.00	234.15
767.32	234.42
767.65	234.77
767.97	234.63
768.30	234.60
768.62	234.52
768.95	234.48
769.27	234.51
769.60	234.50
769.92	234.44
770.25	234.21
770.57	234.12
770.90	234.03
771.22	233.96
771.55	233.86
771.87	233.76
772.20	233.66
772.52	234.02
772.85	234.58
773.17	234.54
773.50	234.47
773.82	234.34
774.15	233.96
774.47	233.52
774.80	233.43
775.12	233.35
775.45	233.32
775.77	233.25
776.09	233.22
776.42	233.15
776.74	233.24
777.07	233.16
777.39	233.13
777.72	233.02
778.04	232.99
778.36	232.89
778.69	232.93
779.01	232.96
779.33	232.50
779.66	231.90
779.98	231.90
780.31	231.87
780.63	232.08
780.95	232.11
781.28	232.05
781.60	232.04
781.92	231.96
782.25	231.90
782.57	231.82
782.89	231.66
783.22	231.55
783.54	231.40
783.86	231.43
784.19	231.36
784.51	231.49
784.83	231.37
785.16	231.30
785.48	231.17
785.80	231.09
786.12	231.05
786.45	231.00
786.77	230.96
787.09	230.98
787.42	230.72
787.74	230.73
788.06	230.81
788.38	230.72
788.71	230.64
789.03	230.61
789.35	230.72
789.67	230.70
789.99	230.75
790.32	230.68
790.64	230.73
790.96	231.10
791.28	230.91
791.61	230.92
791.93	230.95
792.25	230.92
792.57	231.27
792.89	231.23
793.21	231.26
793.54	231.21
793.86	231.07
794.18	231.08
794.50	230.98
794.82	230.93
795.14	230.92
795.47	231.11
795.79	231.10
796.11	230.94
796.43	230.93
796.75	230.89
797.07	230.84
797.39	230.82
797.71	230.46
798.04	230.45
798.36	230.48
798.68	230.46
799.00	230.50
799.32	230.22
799.64	230.33
799.96	230.25
800.28	230.31
800.60	230.27
800.92	230.25
801.24	230.18
801.56	230.11
801.89	230.09
802.21	230.04
802.53	229.97
802.85	230.00
803.17	230.25
803.49	230.19
803.81	230.19
804.13	230.11
804.45	230.02
804.77	230.01
805.09	229.95
805.41	229.89
805.73	229.76
806.05	229.62
806.37	229.53
806.69	229.54
807.01	229.52
807.33	229.61
807.65	229.46
807.97	229.69
808.28	229.70
808.60	229.68
808.92	229.53
809.24	229.82
809.56	229.69
809.88	229.51
810.20	229.52
810.52	229.58
810.84	229.50
811.16	229.45
811.48	229.38
811.80	229.51
812.12	229.53
812.43	229.58
812.75	229.62
813.07	229.54
813.39	229.49
813.71	229.31
814.03	229.17
814.35	229.22
814.67	228.98
814.98	228.85
815.30	228.77
815.62	228.73
815.94	228.35
816.26	228.55
816.58	228.37
816.89	228.30
817.21	228.06
817.53	228.09
817.85	228.15
818.17	228.15
818.48	227.98
818.80	228.02
819.12	227.99
819.44	227.91
819.76	227.83
820.07	227.85
820.39	227.96
820.71	228.03
821.03	228.00
821.34	227.95
821.66	228.06
821.98	228.18
822.30	228.17
822.61	228.46
822.93	228.24
823.25	228.25
823.57	228.26
823.88	228.40
824.20	228.36
824.52	228.41
824.83	228.37
825.15	228.28
825.47	228.20
825.79	228.19
826.10	228.10
826.42	228.08
826.74	228.05
827.05	228.01
827.37	228.01
827.69	227.94
828.00	227.95
828.32	227.94
828.64	227.84
828.95	228.04
829.27	227.83
829.58	227.88
829.90	227.91
830.22	227.89
830.53	227.81
830.85	227.74
831.17	227.56
831.48	227.53
831.80	227.60
832.11	227.64
832.43	227.60
832.75	227.60
833.06	227.93
833.38	227.87
833.69	227.82
834.01	227.83
834.32	227.90
834.64	227.89
834.96	227.85
835.27	227.89
835.59	227.75
835.90	227.73
836.22	227.67
836.53	227.64
836.85	227.61
837.16	228.08
837.48	228.16
837.79	228.35
838.11	228.36
838.42	228.24
838.74	228.22
839.05	228.20
839.37	228.23
839.68	227.92
840.00	227.85
840.31	227.95
840.63	227.83
840.94	227.73
841.26	227.66
841.57	227.65
841.88	227.69
842.20	227.68
842.51	227.60
842.83	227.66
843.14	228.07
843.46	228.11
843.77	227.82
844.08	227.74
844.40	227.63
844.71	227.69
845.03	227.73
845.34	227.70
845.65	227.72
845.97	227.72
846.28	227.78
846.60	227.81
846.91	227.76
847.22	227.79
847.54	227.89
847.85	227.97
848.16	227.93
848.48	227.84
848.79	228.01
849.10	228.11
849.42	228.12
849.73	227.72
850.04	227.66
850.36	227.62
850.67	227.71
850.98	227.66
851.30	227.69
851.61	227.75
851.92	227.79
852.23	227.93
852.55	227.92
852.86	227.94
853.17	228.04
853.49	228.05
853.80	228.17
854.11	228.22
854.42	228.23
854.74	228.18
855.05	228.20
855.36	227.92
855.67	227.89
855.99	227.93
856.30	228.49
856.61	228.51
856.92	228.54
857.23	228.58
857.55	228.55
857.86	228.46
858.17	228.51
858.48	228.38
858.79	228.28
859.11	228.37
859.42	228.33
859.73	228.25
860.04	228.30
860.35	228.13
860.66	227.98
860.98	228.01
861.29	228.07
861.60	228.07
861.91	228.15
862.22	228.09
862.53	227.96
862.84	227.38
863.16	227.50
863.47	227.28
863.78	227.16
864.09	227.19
864.40	227.29
864.71	227.27
865.02	227.37
865.33	227.29
865.64	227.26
865.95	227.27
866.27	227.52
866.58	227.39
866.89	227.44
867.20	227.41
867.51	227.32
867.82	227.28
868.13	227.48
868.44	227.43
868.75	227.58
869.06	227.70
869.37	227.75
869.68	227.64
869.99	227.77
870.30	227.81
870.61	227.86
870.92	227.75
871.23	227.75
871.54	227.80
871.85	227.91
872.16	227.95
872.47	227.86
872.78	227.57
873.09	227.63
873.40	227.52
873.71	227.56
874.02	227.53
874.33	227.48
874.64	227.31
874.95	227.40
875.26	227.25
875.56	227.18
875.87	227.14
876.18	227.05
876.49	227.47
876.80	227.46
877.11	227.42
877.42	227.42
877.73	227.41
878.04	227.33
878.35	227.34
878.66	227.30
878.96	227.24
879.27	227.27
879.58	227.25
879.89	227.27
880.20	227.46
880.51	227.47
880.82	227.53
881.12	227.58
881.43	227.46
881.74	227.40
882.05	227.31
882.36	227.31
882.67	227.43
882.97	227.02
883.28	227.01
883.59	226.97
883.90	227.00
884.21	227.00
884.51	227.02
884.82	226.93
885.13	226.88
885.44	226.96
885.74	226.94
886.05	226.91
886.36	226.95
886.67	226.76
886.98	227.00
887.28	227.03
887.59	226.99
887.90	227.07
888.20	227.03
888.51	227.13
888.82	227.07
889.13	227.08
889.43	227.45
889.74	227.47
890.05	227.44
890.35	227.45
890.66	227.45
890.97	227.38
891.28	227.32
891.58	227.34
891.89	227.35
892.20	227.35
892.50	227.34
892.81	227.37
893.12	227.39
893.42	227.17
893.73	227.09
894.04	227.15
894.34	227.15
894.65	227.17
894.95	227.11
895.26	227.19
895.57	227.37
895.87	226.87
896.18	226.90
896.48	226.97
896.79	226.92
897.10	226.91
897.40	226.92
897.71	226.98
898.01	226.94
898.32	226.95
898.63	226.82
898.93	226.89
899.24	226.86
899.54	226.76
899.85	226.73
900.15	226.77
900.46	226.65
900.76	226.69
901.07	226.67
901.38	226.64
901.68	226.67
901.99	226.43
902.29	226.40
902.60	226.36
902.90	226.27
903.21	226.28
903.51	226.27
903.82	226.40
904.12	226.42
904.43	226.50
904.73	226.53
905.03	226.65
905.34	226.96
905.64	226.83
905.95	226.85
906.25	226.81
906.56	226.78
906.86	226.82
907.17	226.78
907.47	226.81
907.77	226.82
908.08	226.69
908.38	226.65
908.69	226.76
908.99	226.79
909.30	226.78
909.60	226.77
909.90	226.80
910.21	226.60
910.51	226.52
910.81	226.47
911.12	226.45
911.42	226.42
911.73	226.02
912.03	226.13
912.33	226.22
912.64	226.31
912.94	226.25
913.24	226.17
913.55	226.07
913.85	225.99
914.15	226.05
914.46	226.15
914.76	226.12
915.06	226.08
915.37	226.03
915.67	226.03
915.97	226.03
916.27	225.88
916.58	225.99
916.88	225.92
917.18	225.96
917.49	226.30
917.79	226.33
918.09	226.39
918.39	226.57
918.70	226.50
919.00	226.49
919.30	226.72
919.60	226.70
919.91	226.73
920.21	226.88
920.51	226.79
920.81	226.72
921.12	226.85
921.42	226.78
921.72	226.82
922.02	226.92
922.32	227.01
922.63	227.07
922.93	227.25
923.23	227.28
923.53	227.20
923.83	226.90
924.13	226.99
924.44	227.01
924.74	227.05
925.04	227.22
925.34	227.20
925.64	227.07
925.94	227.14
926.24	227.43
926.55	227.28
926.85	227.35
927.15	227.34
927.45	227.40
927.75	227.52
928.05	227.52
928.35	227.49
928.65	227.55
928.95	227.61
929.26	227.42
929.56	227.57
929.86	227.58
930.16	227.60
930.46	227.53
930.76	227.48
931.06	227.25
931.36	227.13
931.66	227.21
931.96	227.21
932.26	227.23
932.56	227.04
932.86	227.15
933.16	227.14
933.46	227.20
933.76	227.08
934.06	227.18
934.36	227.35
934.66	227.31
934.96	227.17
935.26	227.14
935.56	227.20
935.86	227.04
936.16	227.01
936.46	226.90
936.76	226.85
937.06	226.87
937.36	226.91
937.66	226.93
937.96	226.83
938.26	226.75
938.56	226.68
938.86	226.69
939.16	226.83
939.46	226.84
939.76	226.81
940.06	226.82
940.35	226.71
940.65	226.44
940.95	226.39
941.25	226.33
941.55	226.27
941.85	226.23
942.15	226.38
942.45	226.53
942.75	226.47
943.04	226.55
943.34	226.64
943.64	226.65
943.94	226.55
944.24	226.58
944.54	226.68
944.84	226.69
945.13	226.56
945.43	226.39
945.73	226.31
946.03	226.24
946.33	226.16
946.62	226.05
946.92	225.97
947.22	226.06
947.52	226.13
947.82	226.20
948.11	226.16
948.41	225.98
948.71	225.82
949.01	225.86
949.31	225.75
949.60	225.69
949.90	225.68
950.20	225.70
950.50	225.65
950.79	225.55
951.09	225.61
951.39	225.62
951.69	225.59
951.98	225.77
952.28	225.75
952.58	225.69
952.87	225.74
953.17	225.87
953.47	225.84
953.76	225.77
954.06	225.65
954.36	225.56
954.66	225.56
954.95	225.68
955.25	225.79
955.55	225.89
955.84	225.80
956.14	225.95
956.44	226.03
956.73	225.95
957.03	226.00
957.32	226.04
957.62	226.09
957.92	226.23
958.21	226.18
958.51	226.73
958.81	226.90
959.10	226.93
959.40	226.99
959.69	227.05
959.99	227.17
960.29	227.27
960.58	227.23
960.88	227.43
961.17	227.36
961.47	227.31
961.76	227.18
962.06	227.21
962.36	227.09
962.65	227.06
962.95	227.14
963.24	227.10
963.54	227.07
963.83	227.00
964.13	227.02
964.42	226.83
964.72	226.55
965.01	226.49
965.31	226.44
965.60	226.42
965.90	226.65
966.19	226.55
966.49	226.57
966.78	226.68
967.08	226.72
967.37	226.76
967.67	226.72
967.96	226.88
968.26	226.91
968.55	226.96
968.85	226.96
969.14	227.01
969.43	227.03
969.73	227.00
970.02	227.02
970.32	227.00
970.61	227.08
970.91	226.94
971.20	226.96
971.49	227.01
971.79	227.07
972.08	226.76
972.38	226.75
972.67	226.73
972.96	226.81
973.26	226.70
973.55	226.79
973.85	226.82
974.14	226.75
974.43	226.82
974.73	226.77
975.02	226.76
975.31	226.73
975.61	226.75
975.90	226.69
976.19	226.65
976.49	226.57
976.78	226.58
977.07	226.53
977.37	226.53
977.66	226.52
977.95	226.45
978.24	226.51
978.54	226.70
978.83	226.66
979.12	226.61
979.42	226.57
979.71	226.47
980.00	226.45
980.29	226.49
980.59	226.40
980.88	226.47
981.17	226.46
981.46	226.51
981.76	226.48
982.05	226.59
982.34	226.60
982.63	226.67
982.93	226.73
983.22	226.85
983.51	226.81
983.80	226.90
984.09	226.94
984.39	226.88
984.68	226.75
984.97	226.76
985.26	226.73
985.55	226.71
985.85	226.60
986.14	226.62
986.43	226.64
986.72	226.58
987.01	226.45
987.30	226.45
987.59	226.33
987.89	226.32
988.18	226.16
988.47	226.11
988.76	226.03
989.05	225.93
989.34	225.84
989.63	226.01
989.92	225.91
990.22	225.83
990.51	225.78
990.80	225.78
991.09	225.85
991.38	225.82
991.67	225.79
991.96	225.75
992.25	225.76
992.54	225.65
992.83	225.64
993.12	225.61
993.41	225.67
993.70	225.85
993.99	225.92
994.28	226.09
994.58	226.19
994.87	226.14
995.16	226.22
995.45	226.13
995.74	225.94
996.03	225.98
996.32	226.05
996.61	226.21
996.90	226.16
997.19	226.13
997.48	226.17
997.77	226.15
998.06	226.23
998.34	226.18
998.63	226.21
998.92	226.26
999.21	226.34
999.50	226.29
999.79	226.18
1000.08	226.13
1000.37	226.10
1000.66	226.05
1000.95	226.20
1001.24	226.13
1001.53	226.27
1001.82	226.29
1002.11	226.16
1002.40	226.20
1002.68	226.31
1002.97	226.73
1003.26	226.62
1003.55	226.56
1003.84	226.56
1004.13	226.69
1004.42	226.71
1004.71	226.71
1004.99	226.70
1005.28	226.84
1005.57	226.86
1005.86	226.86
1006.15	226.85
1006.44	226.79
1006.72	226.82
1007.01	226.73
1007.30	226.82
1007.59	226.76
1007.88	226.74
1008.17	226.84
1008.45	226.76
1008.74	226.54
1009.03	226.27
1009.32	226.34
1009.60	226.38
1009.89	226.39
1010.18	226.25
1010.47	226.26
1010.76	226.29
1011.04	226.25
1011.33	226.23
1011.62	226.29
1011.91	226.30
1012.19	226.40
1012.48	226.46
1012.77	226.47
1013.05	226.80
1013.34	226.73
1013.63	226.69
1013.92	226.69
1014.20	226.66
1014.49	226.67
1014.78	226.72
1015.06	226.59
1015.35	226.57
1015.64	226.65
1015.92	226.73
1016.21	226.82
1016.50	226.82
1016.78	226.87
1017.07	226.96
1017.36	226.86
1017.64	226.79
1017.93	226.88
1018.22	226.79
1018.50	226.78
1018.79	226.74
1019.08	226.45
1019.36	226.53
1019.65	226.55
1019.93	226.73
1020.22	226.75
1020.51	227.04
1020.79	226.99
1021.08	226.15
1021.36	226.45
1021.65	225.95
1021.94	226.50
1022.22	227.60
1022.51	226.15
1022.79	229.25
1023.08	226.25
1023.36	232.80
1023.65	225.45
>>>>>End Processed Spectral Data<<<<<
