SpectraSuite Data File
++++++++++++++++++++++++++++++++++++
Date: Wed Sep 04 18:05:06 EDT 2013
User: lab3
Dark Spectrum Present: Yes
Reference Spectrum Present: No
Number of Sampled Component Spectra: 1
Spectrometers: USB2E7196
Integration Time (usec): 170000 (USB2E7196)
Spectra Averaged: 20 (USB2E7196)
Boxcar Smoothing: 10 (USB2E7196)
Correct for Electrical Dark: No (USB2E7196)
Strobe/Lamp Enabled: No (USB2E7196)
Correct for Detector Non-linearity: No (USB2E7196)
Correct for Stray Light: No (USB2E7196)
Number of Pixels in Processed Spectrum: 2048
>>>>>Begin Processed Spectral Data<<<<<
339.09	0.00
339.48	214.20
339.86	215.30
340.24	216.95
340.63	219.30
341.01	226.30
341.39	219.95
341.78	222.70
342.16	225.30
342.54	223.45
342.93	213.04
343.31	223.76
343.69	224.26
344.07	224.68
344.46	225.16
344.84	225.51
345.22	225.48
345.60	225.76
345.99	225.95
346.37	226.06
346.75	226.16
347.13	226.14
347.52	226.30
347.90	226.60
348.28	226.60
348.66	226.68
349.05	226.61
349.43	226.64
349.81	226.65
350.19	226.66
350.57	226.76
350.96	226.87
351.34	227.05
351.72	227.21
352.10	227.30
352.48	227.36
352.87	227.38
353.25	227.47
353.63	227.52
354.01	227.55
354.39	227.56
354.77	227.61
355.15	227.84
355.54	227.78
355.92	227.61
356.30	227.68
356.68	228.06
357.06	228.11
357.44	228.09
357.82	228.06
358.20	228.56
358.58	228.54
358.97	228.59
359.35	228.70
359.73	228.77
360.11	228.89
360.49	228.91
360.87	228.99
361.25	229.03
361.63	229.24
362.01	229.36
362.39	229.39
362.77	229.50
363.15	229.50
363.53	229.56
363.91	229.67
364.29	229.72
364.67	229.31
365.05	229.37
365.43	229.51
365.81	229.66
366.19	229.50
366.57	229.67
366.95	229.72
367.33	229.58
367.71	229.63
368.09	229.72
368.47	229.72
368.85	229.73
369.23	229.95
369.61	229.75
369.99	229.89
370.37	229.91
370.75	230.15
371.13	230.07
371.51	230.01
371.89	230.02
372.27	230.02
372.65	230.05
373.03	229.99
373.41	229.91
373.78	229.87
374.16	229.59
374.54	229.41
374.92	229.36
375.30	229.30
375.68	229.13
376.06	229.10
376.44	229.02
376.82	228.86
377.19	228.67
377.57	228.63
377.95	228.36
378.33	228.31
378.71	227.87
379.09	227.83
379.47	227.80
379.84	227.71
380.22	227.59
380.60	227.41
380.98	227.34
381.36	227.22
381.73	227.00
382.11	227.08
382.49	227.03
382.87	226.80
383.25	226.73
383.62	227.25
384.00	227.00
384.38	226.95
384.76	227.00
385.13	227.14
385.51	227.09
385.89	226.91
386.27	226.80
386.64	226.89
387.02	226.75
387.40	226.59
387.78	226.51
388.15	226.44
388.53	226.33
388.91	226.23
389.29	226.20
389.66	226.25
390.04	226.10
390.42	226.14
390.79	226.16
391.17	226.13
391.55	225.53
391.92	225.50
392.30	225.59
392.68	225.51
393.05	225.44
393.43	225.43
393.81	225.51
394.18	225.48
394.56	225.52
394.94	225.65
395.31	225.69
395.69	225.92
396.06	226.11
396.44	226.33
396.82	226.35
397.19	226.63
397.57	226.63
397.95	226.74
398.32	226.67
398.70	226.79
399.07	226.98
399.45	227.10
399.82	227.28
400.20	227.22
400.58	227.40
400.95	227.34
401.33	227.52
401.70	228.00
402.08	228.22
402.45	228.31
402.83	228.68
403.20	228.90
403.58	228.98
403.95	229.23
404.33	229.44
404.71	229.66
405.08	230.15
405.46	230.42
405.83	230.78
406.21	231.07
406.58	231.39
406.96	231.63
407.33	231.98
407.70	232.37
408.08	233.19
408.45	233.61
408.83	234.14
409.20	234.60
409.58	234.80
409.95	235.39
410.33	235.95
410.70	236.29
411.08	236.96
411.45	237.53
411.82	238.04
412.20	238.82
412.57	239.87
412.95	240.20
413.32	241.15
413.69	241.95
414.07	242.90
414.44	243.93
414.82	245.01
415.19	246.15
415.56	247.30
415.94	248.42
416.31	249.84
416.68	251.23
417.06	252.85
417.43	254.54
417.81	256.20
418.18	258.15
418.55	260.13
418.93	262.15
419.30	264.29
419.67	266.54
420.04	268.88
420.42	271.19
420.79	274.25
421.16	276.96
421.54	280.03
421.91	282.99
422.28	286.06
422.66	289.39
423.03	292.84
423.40	296.27
423.77	299.80
424.15	303.42
424.52	307.32
424.89	311.49
425.26	315.42
425.64	319.36
426.01	323.55
426.38	328.00
426.75	332.54
427.13	337.19
427.50	342.05
427.87	346.88
428.24	351.82
428.61	356.39
428.99	361.78
429.36	367.34
429.73	373.02
430.10	378.62
430.47	384.30
430.85	390.10
431.22	396.32
431.59	403.11
431.96	409.40
432.33	416.30
432.70	422.94
433.08	430.92
433.45	438.32
433.82	445.72
434.19	453.85
434.56	461.95
434.93	469.68
435.30	477.55
435.68	486.27
436.05	494.75
436.42	503.12
436.79	510.70
437.16	519.05
437.53	527.93
437.90	536.68
438.27	545.38
438.64	554.32
439.01	562.58
439.38	569.91
439.75	576.97
440.13	585.01
440.50	592.68
440.87	598.73
441.24	605.19
441.61	612.11
441.98	617.28
442.35	623.20
442.72	629.31
443.09	634.99
443.46	638.36
443.83	640.69
444.20	642.62
444.57	645.46
444.94	646.62
445.31	647.41
445.68	648.83
446.05	648.86
446.42	647.56
446.79	646.25
447.16	644.63
447.53	643.45
447.90	639.76
448.27	636.08
448.64	631.16
449.01	627.37
449.37	621.21
449.74	615.16
450.11	608.16
450.48	600.30
450.85	592.18
451.22	585.31
451.59	578.66
451.96	572.38
452.33	564.28
452.70	556.84
453.07	548.35
453.43	539.09
453.80	530.77
454.17	522.65
454.54	514.85
454.91	506.44
455.28	498.37
455.65	490.99
456.02	484.02
456.38	477.68
456.75	469.98
457.12	463.45
457.49	457.12
457.86	450.80
458.23	445.61
458.59	439.93
458.96	434.09
459.33	428.95
459.70	423.83
460.07	419.74
460.43	414.99
460.80	410.70
461.17	407.01
461.54	403.00
461.91	399.14
462.27	395.19
462.64	391.94
463.01	388.44
463.38	385.04
463.74	381.10
464.11	378.07
464.48	375.42
464.85	372.49
465.21	370.29
465.58	367.96
465.95	365.05
466.32	362.87
466.68	360.62
467.05	358.40
467.42	356.22
467.78	353.85
468.15	351.64
468.52	349.99
468.88	347.73
469.25	345.76
469.62	344.28
469.98	342.71
470.35	341.21
470.72	339.72
471.08	337.97
471.45	336.56
471.82	335.27
472.18	333.74
472.55	332.70
472.92	331.38
473.28	330.21
473.65	329.28
474.02	328.24
474.38	327.36
474.75	326.61
475.11	325.68
475.48	325.03
475.85	324.49
476.21	323.77
476.58	323.31
476.94	322.91
477.31	322.42
477.67	321.93
478.04	321.66
478.41	321.43
478.77	321.79
479.14	321.59
479.50	321.44
479.87	321.47
480.23	321.53
480.60	321.50
480.96	321.52
481.33	321.81
481.69	322.05
482.06	322.25
482.42	322.44
482.79	322.78
483.15	323.17
483.52	323.72
483.88	324.31
484.25	324.73
484.61	325.37
484.98	326.04
485.34	327.09
485.71	327.94
486.07	328.90
486.44	329.37
486.80	330.43
487.17	331.60
487.53	332.96
487.90	334.34
488.26	335.96
488.62	337.64
488.99	339.16
489.35	340.91
489.72	342.78
490.08	344.88
490.44	346.83
490.81	349.11
491.17	351.33
491.54	353.82
491.90	356.48
492.26	359.27
492.63	362.04
492.99	364.73
493.36	367.85
493.72	371.22
494.08	374.69
494.45	378.44
494.81	382.38
495.17	386.15
495.54	390.27
495.90	394.59
496.26	399.07
496.63	403.58
496.99	408.26
497.35	413.40
497.72	418.74
498.08	424.30
498.44	429.95
498.80	435.92
499.17	441.92
499.53	448.24
499.89	454.81
500.26	461.64
500.62	468.87
500.98	476.37
501.34	483.88
501.71	491.73
502.07	499.54
502.43	507.59
502.79	516.05
503.16	524.75
503.52	533.66
503.88	542.94
504.24	552.67
504.60	562.82
504.97	573.14
505.33	583.52
505.69	594.74
506.05	605.62
506.41	617.07
506.78	628.76
507.14	640.87
507.50	653.30
507.86	666.06
508.22	678.99
508.59	692.08
508.95	705.79
509.31	719.92
509.67	734.14
510.03	748.51
510.39	763.33
510.75	778.38
511.12	793.78
511.48	809.32
511.84	825.35
512.20	841.22
512.56	857.55
512.92	874.31
513.28	891.06
513.64	908.52
514.00	926.09
514.37	943.89
514.73	961.98
515.09	980.34
515.45	998.70
515.81	1017.30
516.17	1035.96
516.53	1054.53
516.89	1073.18
517.25	1092.69
517.61	1113.16
517.97	1133.45
518.33	1153.67
518.69	1174.04
519.05	1194.50
519.41	1215.12
519.77	1236.24
520.13	1257.03
520.49	1277.91
520.85	1300.35
521.21	1321.52
521.57	1342.81
521.93	1363.69
522.29	1385.00
522.65	1405.60
523.01	1426.59
523.37	1447.30
523.73	1468.62
524.09	1489.50
524.45	1510.37
524.81	1531.50
525.17	1552.22
525.53	1572.76
525.89	1593.67
526.25	1614.49
526.61	1635.15
526.97	1656.14
527.33	1677.48
527.68	1699.45
528.04	1720.59
528.40	1740.37
528.76	1761.52
529.12	1781.91
529.48	1802.85
529.84	1823.00
530.20	1844.25
530.56	1865.18
530.91	1886.38
531.27	1907.00
531.63	1927.64
531.99	1948.41
532.35	1968.67
532.71	1988.72
533.07	2009.63
533.42	2029.51
533.78	2049.71
534.14	2069.84
534.50	2089.12
534.86	2108.37
535.21	2126.29
535.57	2145.32
535.93	2163.10
536.29	2181.07
536.65	2199.40
537.00	2217.03
537.36	2234.91
537.72	2251.44
538.08	2268.82
538.44	2285.21
538.79	2301.75
539.15	2318.96
539.51	2334.93
539.87	2350.45
540.22	2364.94
540.58	2379.40
540.94	2393.13
541.29	2405.83
541.65	2418.53
542.01	2431.16
542.37	2442.14
542.72	2453.53
543.08	2464.07
543.44	2475.87
543.79	2486.24
544.15	2496.52
544.51	2506.85
544.87	2516.59
545.22	2525.62
545.58	2533.43
545.94	2541.07
546.29	2547.63
546.65	2553.29
547.01	2559.18
547.36	2564.72
547.72	2570.22
548.07	2574.26
548.43	2579.85
548.79	2584.78
549.14	2588.92
549.50	2593.23
549.86	2597.72
550.21	2601.08
550.57	2604.64
550.92	2606.39
551.28	2607.84
551.64	2609.97
551.99	2611.98
552.35	2613.71
552.70	2615.64
553.06	2617.60
553.41	2618.79
553.77	2620.90
554.13	2622.86
554.48	2624.51
554.84	2625.86
555.19	2627.39
555.55	2629.20
555.90	2628.15
556.26	2627.52
556.61	2626.16
556.97	2623.98
557.32	2622.67
557.68	2621.49
558.03	2620.13
558.39	2618.88
558.74	2618.16
559.10	2615.03
559.45	2611.65
559.81	2607.55
560.16	2603.10
560.52	2598.24
560.87	2594.28
561.23	2588.71
561.58	2582.75
561.94	2576.06
562.29	2568.86
562.64	2561.73
563.00	2553.39
563.35	2547.21
563.71	2540.36
564.06	2534.32
564.42	2527.53
564.77	2520.96
565.12	2513.48
565.48	2505.55
565.83	2497.57
566.19	2489.52
566.54	2481.95
566.89	2473.68
567.25	2465.80
567.60	2458.19
567.96	2450.31
568.31	2442.08
568.66	2433.50
569.02	2424.36
569.37	2416.11
569.72	2408.39
570.08	2399.22
570.43	2389.97
570.78	2380.66
571.14	2371.31
571.49	2361.29
571.84	2352.16
572.20	2341.00
572.55	2330.95
572.90	2320.07
573.26	2309.68
573.61	2298.30
573.96	2287.04
574.31	2275.07
574.67	2263.37
575.02	2250.70
575.37	2238.21
575.72	2224.73
576.08	2212.43
576.43	2200.04
576.78	2186.92
577.13	2173.11
577.49	2160.21
577.84	2148.19
578.19	2135.94
578.54	2123.40
578.90	2110.71
579.25	2098.13
579.60	2085.80
579.95	2072.87
580.30	2059.48
580.66	2045.86
581.01	2032.22
581.36	2017.97
581.71	2005.39
582.06	1992.24
582.42	1979.80
582.77	1966.80
583.12	1954.79
583.47	1942.28
583.82	1930.02
584.17	1917.73
584.53	1905.88
584.88	1892.82
585.23	1879.60
585.58	1865.30
585.93	1851.88
586.28	1838.84
586.63	1824.57
586.98	1810.34
587.34	1797.16
587.69	1784.16
588.04	1771.69
588.39	1759.59
588.74	1747.29
589.09	1734.80
589.44	1721.75
589.79	1709.51
590.14	1697.82
590.49	1685.64
590.84	1673.44
591.19	1661.41
591.54	1649.12
591.89	1636.96
592.25	1626.61
592.60	1615.46
592.95	1604.32
593.30	1592.34
593.65	1580.62
594.00	1568.68
594.35	1558.78
594.70	1546.70
595.05	1535.11
595.40	1522.82
595.75	1510.76
596.10	1499.61
596.45	1488.14
596.80	1477.43
597.15	1465.81
597.50	1453.88
597.85	1442.50
598.19	1430.84
598.54	1419.08
598.89	1407.79
599.24	1396.86
599.59	1385.04
599.94	1373.76
600.29	1363.01
600.64	1352.38
600.99	1341.15
601.34	1331.65
601.69	1320.22
602.04	1310.40
602.39	1300.75
602.74	1291.33
603.08	1282.05
603.43	1272.86
603.78	1263.22
604.13	1253.40
604.48	1243.53
604.83	1233.65
605.18	1223.97
605.53	1214.35
605.87	1205.02
606.22	1196.61
606.57	1187.27
606.92	1177.73
607.27	1168.69
607.62	1159.87
607.96	1151.50
608.31	1143.65
608.66	1135.00
609.01	1126.34
609.36	1117.53
609.70	1108.93
610.05	1100.18
610.40	1091.47
610.75	1082.35
611.10	1073.80
611.44	1065.19
611.79	1056.97
612.14	1049.16
612.49	1040.96
612.83	1033.40
613.18	1025.76
613.53	1017.73
613.88	1009.46
614.22	1001.89
614.57	993.97
614.92	985.99
615.27	978.17
615.61	970.37
615.96	962.69
616.31	955.26
616.65	948.25
617.00	940.60
617.35	933.33
617.70	926.09
618.04	918.91
618.39	912.05
618.74	905.38
619.08	898.30
619.43	891.10
619.78	884.01
620.12	876.85
620.47	869.77
620.82	862.53
621.16	855.92
621.51	849.49
621.85	842.98
622.20	836.34
622.55	829.59
622.89	822.92
623.24	816.42
623.59	809.81
623.93	803.20
624.28	797.00
624.62	791.37
624.97	785.45
625.32	779.68
625.66	773.47
626.01	767.26
626.35	761.80
626.70	756.39
627.04	751.15
627.39	745.49
627.73	740.32
628.08	734.94
628.43	729.48
628.77	723.85
629.12	718.48
629.46	713.54
629.81	708.64
630.15	703.80
630.50	698.86
630.84	694.17
631.19	689.21
631.53	684.72
631.88	679.46
632.22	674.65
632.57	670.12
632.91	665.54
633.26	661.07
633.60	656.17
633.95	651.26
634.29	646.40
634.64	641.98
634.98	637.13
635.32	632.70
635.67	628.55
636.01	624.33
636.36	620.05
636.70	615.94
637.05	611.65
637.39	607.38
637.73	603.11
638.08	598.94
638.42	594.93
638.77	590.48
639.11	586.03
639.45	581.65
639.80	577.09
640.14	572.89
640.49	568.95
640.83	565.21
641.17	561.53
641.52	557.84
641.86	554.07
642.20	550.78
642.55	547.12
642.89	543.42
643.23	539.92
643.58	536.67
643.92	532.92
644.26	529.65
644.61	526.46
644.95	523.01
645.29	519.54
645.64	516.28
645.98	513.19
646.32	510.24
646.66	507.04
647.01	504.21
647.35	501.43
647.69	498.45
648.04	495.60
648.38	492.65
648.72	489.65
649.06	486.69
649.41	483.45
649.75	480.32
650.09	477.53
650.43	474.71
650.78	471.68
651.12	469.00
651.46	466.13
651.80	463.24
652.14	460.66
652.49	458.29
652.83	455.66
653.17	453.12
653.51	450.49
653.85	448.18
654.20	445.65
654.54	442.92
654.88	440.16
655.22	437.85
655.56	435.52
655.90	433.18
656.25	430.87
656.59	428.66
656.93	426.55
657.27	424.42
657.61	421.95
657.95	419.76
658.29	417.52
658.64	415.45
658.98	413.26
659.32	410.91
659.66	408.69
660.00	406.60
660.34	404.44
660.68	402.40
661.02	400.25
661.36	398.29
661.70	396.38
662.05	394.63
662.39	392.60
662.73	390.68
663.07	389.00
663.41	387.24
663.75	385.32
664.09	383.54
664.43	381.54
664.77	379.81
665.11	378.08
665.45	376.29
665.79	374.65
666.13	372.98
666.47	371.41
666.81	369.59
667.15	367.82
667.49	366.28
667.83	364.93
668.17	363.43
668.51	361.84
668.85	360.48
669.19	359.25
669.53	357.77
669.87	356.29
670.21	354.76
670.55	353.32
670.89	352.23
671.23	350.78
671.57	349.39
671.91	348.04
672.25	346.61
672.58	345.41
672.92	343.88
673.26	342.52
673.60	341.19
673.94	340.06
674.28	338.92
674.62	337.76
674.96	336.41
675.30	335.22
675.64	334.12
675.97	332.91
676.31	331.43
676.65	330.15
676.99	329.16
677.33	327.91
677.67	326.79
678.01	325.39
678.34	324.35
678.68	323.35
679.02	322.31
679.36	321.40
679.70	320.36
680.04	319.49
680.37	318.54
680.71	317.59
681.05	316.71
681.39	315.71
681.73	314.75
682.06	313.81
682.40	312.92
682.74	312.07
683.08	311.27
683.42	310.51
683.75	309.80
684.09	308.76
684.43	308.00
684.77	307.16
685.10	306.45
685.44	305.65
685.78	304.84
686.12	304.06
686.45	303.16
686.79	302.42
687.13	301.75
687.46	301.03
687.80	300.47
688.14	299.54
688.48	298.87
688.81	298.14
689.15	297.49
689.49	296.72
689.82	295.99
690.16	295.12
690.50	294.35
690.83	293.52
691.17	292.82
691.51	292.09
691.84	291.42
692.18	290.69
692.52	290.00
692.85	289.42
693.19	288.99
693.52	288.43
693.86	287.72
694.20	287.06
694.53	286.47
694.87	285.80
695.21	285.26
695.54	284.69
695.88	284.05
696.21	283.32
696.55	282.76
696.88	282.17
697.22	281.59
697.56	281.10
697.89	280.47
698.23	280.05
698.56	279.54
698.90	279.09
699.23	278.61
699.57	278.15
699.90	277.53
700.24	276.81
700.58	276.35
700.91	275.89
701.25	275.68
701.58	275.45
701.92	275.03
702.25	274.55
702.59	274.09
702.92	273.69
703.26	273.33
703.59	272.91
703.93	272.79
704.26	272.34
704.60	271.89
704.93	271.46
705.26	270.90
705.60	270.52
705.93	270.00
706.27	269.66
706.60	269.33
706.94	269.12
707.27	268.75
707.61	268.39
707.94	268.01
708.27	267.23
708.61	266.46
708.94	266.00
709.28	265.61
709.61	265.20
709.94	264.75
710.28	264.39
710.61	264.03
710.95	263.20
711.28	263.20
711.61	262.79
711.95	262.62
712.28	262.24
712.61	261.91
712.95	261.79
713.28	261.67
713.61	261.24
713.95	260.74
714.28	260.46
714.61	259.95
714.95	259.57
715.28	259.28
715.61	259.04
715.95	258.66
716.28	258.29
716.61	258.02
716.95	257.71
717.28	257.35
717.61	256.96
717.94	256.79
718.28	256.20
718.61	255.91
718.94	255.55
719.27	255.37
719.61	255.12
719.94	254.76
720.27	254.16
720.60	253.94
720.94	253.74
721.27	253.48
721.60	253.40
721.93	253.21
722.27	253.16
722.60	252.99
722.93	252.76
723.26	252.63
723.59	252.31
723.93	252.16
724.26	252.00
724.59	251.88
724.92	251.72
725.25	251.63
725.59	251.36
725.92	251.30
726.25	251.14
726.58	250.93
726.91	250.78
727.24	250.75
727.57	250.46
727.91	250.20
728.24	250.05
728.57	249.87
728.90	249.71
729.23	249.42
729.56	249.48
729.89	249.34
730.22	249.16
730.55	249.02
730.89	248.83
731.22	248.60
731.55	248.40
731.88	248.18
732.21	247.85
732.54	247.76
732.87	247.49
733.20	247.34
733.53	247.11
733.86	246.88
734.19	246.63
734.52	246.62
734.85	246.79
735.18	246.60
735.51	246.60
735.84	246.47
736.17	246.40
736.50	245.92
736.83	246.36
737.16	246.23
737.49	246.05
737.82	245.88
738.15	245.84
738.48	245.66
738.81	245.50
739.14	245.34
739.47	245.18
739.80	244.98
740.13	244.86
740.46	244.65
740.79	244.47
741.12	244.30
741.45	244.09
741.78	243.69
742.11	243.68
742.44	243.27
742.77	243.15
743.10	242.89
743.43	242.75
743.75	242.02
744.08	242.47
744.41	242.39
744.74	242.17
745.07	241.95
745.40	241.91
745.73	241.95
746.06	241.81
746.39	241.73
746.71	241.57
747.04	241.33
747.37	241.22
747.70	241.18
748.03	241.00
748.36	240.93
748.68	240.76
749.01	240.45
749.34	240.39
749.67	240.29
750.00	240.21
750.33	240.45
750.65	240.36
750.98	239.62
751.31	239.50
751.64	239.47
751.97	239.60
752.29	239.44
752.62	239.10
752.95	239.02
753.28	238.79
753.60	238.71
753.93	238.72
754.26	238.67
754.59	238.46
754.91	238.34
755.24	238.16
755.57	238.05
755.90	237.94
756.22	237.82
756.55	237.64
756.88	237.53
757.20	237.11
757.53	236.91
757.86	236.81
758.19	236.71
758.51	236.56
758.84	236.20
759.17	236.02
759.49	236.01
759.82	236.12
760.15	236.08
760.47	235.93
760.80	235.68
761.13	235.64
761.45	235.51
761.78	235.46
762.11	235.41
762.43	235.28
762.76	235.20
763.08	235.10
763.41	235.06
763.74	234.95
764.06	234.86
764.39	234.81
764.71	234.70
765.04	234.59
765.37	234.50
765.69	234.45
766.02	234.36
766.34	234.22
766.67	233.95
767.00	233.99
767.32	234.17
767.65	234.38
767.97	234.30
768.30	234.22
768.62	234.13
768.95	234.04
769.27	233.95
769.60	234.00
769.92	233.87
770.25	233.73
770.57	233.56
770.90	233.51
771.22	233.46
771.55	233.33
771.87	233.26
772.20	233.22
772.52	233.57
772.85	234.14
773.17	234.14
773.50	234.06
773.82	233.90
774.15	233.65
774.47	233.40
774.80	233.30
775.12	233.20
775.45	233.18
775.77	233.12
776.09	233.17
776.42	233.03
776.74	233.17
777.07	233.08
777.39	233.06
777.72	232.93
778.04	232.87
778.36	232.85
778.69	232.82
779.01	232.77
779.33	232.27
779.66	231.66
779.98	231.59
780.31	231.59
780.63	231.80
780.95	231.85
781.28	231.70
781.60	231.54
781.92	231.58
782.25	231.47
782.57	231.38
782.89	231.26
783.22	231.25
783.54	231.01
783.86	230.98
784.19	230.99
784.51	231.13
784.83	231.00
785.16	230.97
785.48	230.88
785.80	230.89
786.12	230.93
786.45	230.84
786.77	230.80
787.09	230.76
787.42	230.49
787.74	230.35
788.06	230.36
788.38	230.35
788.71	230.27
789.03	230.26
789.35	230.35
789.67	230.26
789.99	230.22
790.32	230.23
790.64	230.30
790.96	230.56
791.28	230.39
791.61	230.40
791.93	230.43
792.25	230.45
792.57	230.77
792.89	230.65
793.21	230.65
793.54	230.58
793.86	230.54
794.18	230.50
794.50	230.50
794.82	230.52
795.14	230.56
795.47	230.59
795.79	230.55
796.11	230.38
796.43	230.40
796.75	230.35
797.07	230.36
797.39	230.25
797.71	229.96
798.04	229.95
798.36	229.93
798.68	229.85
799.00	229.89
799.32	229.60
799.64	229.68
799.96	229.71
800.28	229.79
800.60	229.68
800.92	229.74
801.24	229.67
801.56	229.71
801.89	229.71
802.21	229.75
802.53	229.72
802.85	229.79
803.17	230.02
803.49	229.93
803.81	229.83
804.13	229.80
804.45	229.74
804.77	229.72
805.09	229.72
805.41	229.72
805.73	229.58
806.05	229.45
806.37	229.39
806.69	229.32
807.01	229.25
807.33	229.24
807.65	229.08
807.97	229.29
808.28	229.19
808.60	229.10
808.92	229.05
809.24	229.34
809.56	229.30
809.88	229.06
810.20	229.07
810.52	229.22
810.84	229.24
811.16	229.19
811.48	229.17
811.80	229.28
812.12	229.17
812.43	229.29
812.75	229.29
813.07	229.22
813.39	229.17
813.71	229.12
814.03	229.12
814.35	229.13
814.67	228.92
814.98	228.90
815.30	228.93
815.62	228.85
815.94	228.51
816.26	228.71
816.58	228.61
816.89	228.68
817.21	228.51
817.53	228.45
817.85	228.40
818.17	228.40
818.48	228.29
818.80	228.44
819.12	228.33
819.44	228.29
819.76	228.23
820.07	228.28
820.39	228.27
820.71	228.31
821.03	228.33
821.34	228.29
821.66	228.34
821.98	228.38
822.30	228.32
822.61	228.67
822.93	228.36
823.25	228.33
823.57	228.22
823.88	228.34
824.20	228.37
824.52	228.48
824.83	228.44
825.15	228.35
825.47	228.33
825.79	228.38
826.10	228.30
826.42	228.32
826.74	228.30
827.05	228.26
827.37	228.30
827.69	228.32
828.00	228.34
828.32	228.31
828.64	228.27
828.95	228.53
829.27	228.23
829.58	228.26
829.90	228.37
830.22	228.41
830.53	228.30
830.85	228.24
831.17	228.13
831.48	228.15
831.80	228.16
832.11	228.15
832.43	228.03
832.75	228.05
833.06	228.32
833.38	228.29
833.69	228.26
834.01	228.22
834.32	228.15
834.64	228.08
834.96	228.02
835.27	227.95
835.59	227.80
835.90	227.77
836.22	227.82
836.53	227.78
836.85	227.79
837.16	228.26
837.48	228.24
837.79	228.39
838.11	228.40
838.42	228.38
838.74	228.48
839.05	228.47
839.37	228.43
839.68	228.18
840.00	228.15
840.31	228.20
840.63	228.15
840.94	228.05
841.26	228.00
841.57	228.03
841.88	228.16
842.20	228.09
842.51	228.06
842.83	228.03
843.14	228.41
843.46	228.35
843.77	227.97
844.08	227.99
844.40	227.76
844.71	227.78
845.03	227.75
845.34	227.64
845.65	227.70
845.97	227.73
846.28	227.69
846.60	227.73
846.91	227.68
847.22	227.66
847.54	227.84
847.85	227.88
848.16	227.78
848.48	227.69
848.79	227.91
849.10	228.00
849.42	228.02
849.73	227.57
850.04	227.56
850.36	227.49
850.67	227.53
850.98	227.63
851.30	227.60
851.61	227.62
851.92	227.65
852.23	227.75
852.55	227.78
852.86	227.84
853.17	227.88
853.49	228.03
853.80	228.12
854.11	228.07
854.42	228.14
854.74	228.17
855.05	228.15
855.36	227.86
855.67	227.85
855.99	227.82
856.30	228.39
856.61	228.47
856.92	228.42
857.23	228.38
857.55	228.34
857.86	228.29
858.17	228.42
858.48	228.32
858.79	228.20
859.11	228.20
859.42	228.11
859.73	227.96
860.04	227.96
860.35	227.81
860.66	227.74
860.98	227.74
861.29	227.84
861.60	227.76
861.91	227.90
862.22	227.79
862.53	227.75
862.84	227.19
863.16	227.25
863.47	227.25
863.78	227.27
864.09	227.34
864.40	227.38
864.71	227.32
865.02	227.36
865.33	227.30
865.64	227.31
865.95	227.35
866.27	227.71
866.58	227.54
866.89	227.69
867.20	227.61
867.51	227.50
867.82	227.52
868.13	227.72
868.44	227.60
868.75	227.74
869.06	227.75
869.37	227.79
869.68	227.67
869.99	227.77
870.30	227.76
870.61	227.77
870.92	227.72
871.23	227.63
871.54	227.70
871.85	227.79
872.16	227.77
872.47	227.76
872.78	227.50
873.09	227.66
873.40	227.55
873.71	227.59
874.02	227.65
874.33	227.55
874.64	227.40
874.95	227.51
875.26	227.39
875.56	227.40
875.87	227.35
876.18	227.33
876.49	227.76
876.80	227.76
877.11	227.66
877.42	227.69
877.73	227.73
878.04	227.61
878.35	227.69
878.66	227.78
878.96	227.70
879.27	227.67
879.58	227.50
879.89	227.49
880.20	227.68
880.51	227.70
880.82	227.73
881.12	227.81
881.43	227.71
881.74	227.66
882.05	227.59
882.36	227.62
882.67	227.61
882.97	227.09
883.28	227.09
883.59	227.13
883.90	227.16
884.21	227.24
884.51	227.24
884.82	227.11
885.13	226.99
885.44	227.03
885.74	227.02
886.05	227.05
886.36	227.07
886.67	226.91
886.98	227.09
887.28	227.15
887.59	227.05
887.90	227.07
888.20	227.07
888.51	227.14
888.82	227.17
889.13	227.21
889.43	227.57
889.74	227.44
890.05	227.37
890.35	227.34
890.66	227.23
890.97	227.14
891.28	227.06
891.58	227.14
891.89	227.10
892.20	227.10
892.50	227.07
892.81	227.03
893.12	226.97
893.42	226.81
893.73	226.74
894.04	226.82
894.34	226.83
894.65	226.84
894.95	226.84
895.26	226.79
895.57	227.06
895.87	226.74
896.18	226.89
896.48	226.97
896.79	226.91
897.10	227.00
897.40	227.04
897.71	227.08
898.01	227.01
898.32	227.13
898.63	227.15
898.93	227.23
899.24	227.33
899.54	227.31
899.85	227.21
900.15	227.26
900.46	227.16
900.76	227.23
901.07	227.19
901.38	227.20
901.68	227.29
901.99	227.02
902.29	227.00
902.60	226.95
902.90	226.86
903.21	226.98
903.51	226.97
903.82	227.20
904.12	227.28
904.43	227.40
904.73	227.42
905.03	227.41
905.34	227.88
905.64	227.77
905.95	227.80
906.25	227.86
906.56	227.89
906.86	227.96
907.17	227.96
907.47	228.06
907.77	227.98
908.08	227.85
908.38	227.92
908.69	227.93
908.99	227.99
909.30	228.07
909.60	228.01
909.90	228.04
910.21	227.88
910.51	227.81
910.81	227.77
911.12	227.78
911.42	227.75
911.73	227.26
912.03	227.31
912.33	227.38
912.64	227.32
912.94	227.19
913.24	227.10
913.55	227.07
913.85	226.98
914.15	227.06
914.46	227.13
914.76	227.01
915.06	226.94
915.37	226.90
915.67	226.85
915.97	226.79
916.27	226.61
916.58	226.58
916.88	226.56
917.18	226.51
917.49	226.85
917.79	226.77
918.09	226.84
918.39	226.87
918.70	226.77
919.00	226.82
919.30	227.02
919.60	226.98
919.91	226.88
920.21	226.99
920.51	226.81
920.81	226.77
921.12	226.82
921.42	226.81
921.72	226.71
922.02	226.77
922.32	226.92
922.63	226.92
922.93	227.11
923.23	227.09
923.53	227.00
923.83	226.59
924.13	226.67
924.44	226.58
924.74	226.71
925.04	226.86
925.34	226.76
925.64	226.60
925.94	226.58
926.24	226.82
926.55	226.72
926.85	226.84
927.15	226.85
927.45	226.84
927.75	226.85
928.05	226.93
928.35	226.87
928.65	226.87
928.95	226.95
929.26	226.77
929.56	226.91
929.86	226.98
930.16	226.95
930.46	226.88
930.76	226.93
931.06	226.63
931.36	226.53
931.66	226.70
931.96	226.71
932.26	226.79
932.56	226.54
932.86	226.52
933.16	226.52
933.46	226.49
933.76	226.51
934.06	226.64
934.36	226.83
934.66	226.85
934.96	226.77
935.26	226.76
935.56	226.83
935.86	226.70
936.16	226.70
936.46	226.72
936.76	226.70
937.06	226.64
937.36	226.77
937.66	226.88
937.96	226.76
938.26	226.69
938.56	226.59
938.86	226.68
939.16	226.86
939.46	226.95
939.76	226.95
940.06	226.86
940.35	226.75
940.65	226.47
940.95	226.44
941.25	226.39
941.55	226.41
941.85	226.35
942.15	226.47
942.45	226.56
942.75	226.55
943.04	226.67
943.34	226.83
943.64	226.70
943.94	226.60
944.24	226.69
944.54	226.81
944.84	226.84
945.13	226.78
945.43	226.69
945.73	226.65
946.03	226.67
946.33	226.68
946.62	226.63
946.92	226.67
947.22	226.75
947.52	226.75
947.82	226.78
948.11	226.75
948.41	226.60
948.71	226.51
949.01	226.54
949.31	226.45
949.60	226.36
949.90	226.52
950.20	226.48
950.50	226.45
950.79	226.37
951.09	226.51
951.39	226.48
951.69	226.39
951.98	226.50
952.28	226.52
952.58	226.53
952.87	226.57
953.17	226.58
953.47	226.50
953.76	226.52
954.06	226.42
954.36	226.37
954.66	226.48
954.95	226.60
955.25	226.53
955.55	226.60
955.84	226.53
956.14	226.56
956.44	226.60
956.73	226.54
957.03	226.58
957.32	226.57
957.62	226.61
957.92	226.70
958.21	226.61
958.51	227.06
958.81	227.12
959.10	227.17
959.40	227.30
959.69	227.27
959.99	227.38
960.29	227.35
960.58	227.33
960.88	227.42
961.17	227.31
961.47	227.45
961.76	227.46
962.06	227.57
962.36	227.53
962.65	227.55
962.95	227.60
963.24	227.56
963.54	227.54
963.83	227.55
964.13	227.58
964.42	227.50
964.72	227.21
965.01	227.19
965.31	227.17
965.60	227.05
965.90	227.33
966.19	227.23
966.49	227.34
966.78	227.35
967.08	227.34
967.37	227.38
967.67	227.18
967.96	227.20
968.26	227.16
968.55	227.24
968.85	227.21
969.14	227.19
969.43	227.14
969.73	227.16
970.02	227.11
970.32	226.99
970.61	226.97
970.91	226.79
971.20	226.69
971.49	226.67
971.79	226.79
972.08	226.50
972.38	226.53
972.67	226.51
972.96	226.59
973.26	226.50
973.55	226.61
973.85	226.66
974.14	226.57
974.43	226.59
974.73	226.42
975.02	226.31
975.31	226.35
975.61	226.33
975.90	226.26
976.19	226.18
976.49	226.25
976.78	226.30
977.07	226.33
977.37	226.41
977.66	226.48
977.95	226.35
978.24	226.43
978.54	226.46
978.83	226.45
979.12	226.36
979.42	226.36
979.71	226.30
980.00	226.28
980.29	226.30
980.59	226.15
980.88	226.30
981.17	226.38
981.46	226.37
981.76	226.35
982.05	226.49
982.34	226.54
982.63	226.59
982.93	226.58
983.22	226.64
983.51	226.67
983.80	226.67
984.09	226.76
984.39	226.71
984.68	226.70
984.97	226.75
985.26	226.79
985.55	226.82
985.85	226.69
986.14	226.75
986.43	226.79
986.72	226.86
987.01	226.69
987.30	226.67
987.59	226.67
987.89	226.75
988.18	226.55
988.47	226.60
988.76	226.58
989.05	226.58
989.34	226.55
989.63	226.62
989.92	226.60
990.22	226.52
990.51	226.48
990.80	226.46
991.09	226.38
991.38	226.43
991.67	226.35
991.96	226.33
992.25	226.40
992.54	226.36
992.83	226.40
993.12	226.45
993.41	226.58
993.70	226.85
993.99	226.94
994.28	227.06
994.58	227.12
994.87	227.12
995.16	227.09
995.45	227.05
995.74	226.94
996.03	226.95
996.32	227.04
996.61	227.17
996.90	227.19
997.19	227.24
997.48	227.24
997.77	227.26
998.06	227.30
998.34	227.25
998.63	227.25
998.92	227.24
999.21	227.26
999.50	227.23
999.79	226.98
1000.08	226.97
1000.37	226.90
1000.66	226.83
1000.95	226.90
1001.24	226.90
1001.53	226.98
1001.82	226.92
1002.11	226.84
1002.40	226.86
1002.68	226.95
1002.97	227.20
1003.26	227.10
1003.55	227.00
1003.84	227.06
1004.13	227.20
1004.42	227.22
1004.71	227.23
1004.99	227.22
1005.28	227.38
1005.57	227.34
1005.86	227.22
1006.15	227.06
1006.44	227.04
1006.72	227.10
1007.01	226.90
1007.30	226.88
1007.59	226.83
1007.88	226.88
1008.17	226.94
1008.45	226.80
1008.74	226.53
1009.03	226.30
1009.32	226.33
1009.60	226.35
1009.89	226.25
1010.18	226.05
1010.47	225.94
1010.76	225.93
1011.04	225.89
1011.33	225.85
1011.62	225.87
1011.91	225.94
1012.19	226.02
1012.48	225.97
1012.77	225.85
1013.05	226.11
1013.34	226.10
1013.63	226.06
1013.92	226.01
1014.20	225.94
1014.49	226.03
1014.78	226.12
1015.06	225.97
1015.35	225.91
1015.64	225.95
1015.92	226.00
1016.21	226.06
1016.50	226.06
1016.78	226.09
1017.07	226.07
1017.36	225.90
1017.64	225.80
1017.93	225.81
1018.22	225.76
1018.50	225.79
1018.79	225.90
1019.08	225.70
1019.36	225.80
1019.65	225.79
1019.93	225.92
1020.22	226.06
1020.51	226.27
1020.79	226.26
1021.08	225.60
1021.36	225.30
1021.65	226.75
1021.94	225.95
1022.22	227.15
1022.51	226.20
1022.79	228.30
1023.08	228.10
1023.36	231.70
1023.65	225.70
>>>>>End Processed Spectral Data<<<<<
