SpectraSuite Data File
++++++++++++++++++++++++++++++++++++
Date: Wed Sep 04 17:52:13 EDT 2013
User: lab3
Dark Spectrum Present: Yes
Reference Spectrum Present: No
Number of Sampled Component Spectra: 1
Spectrometers: USB2E7196
Integration Time (usec): 170000 (USB2E7196)
Spectra Averaged: 20 (USB2E7196)
Boxcar Smoothing: 10 (USB2E7196)
Correct for Electrical Dark: No (USB2E7196)
Strobe/Lamp Enabled: No (USB2E7196)
Correct for Detector Non-linearity: No (USB2E7196)
Correct for Stray Light: No (USB2E7196)
Number of Pixels in Processed Spectrum: 2048
>>>>>Begin Processed Spectral Data<<<<<
339.09	0.00
339.48	213.45
339.86	213.85
340.24	216.30
340.63	217.15
341.01	226.55
341.39	219.80
341.78	220.60
342.16	222.75
342.54	222.55
342.93	212.24
343.31	222.93
343.69	223.43
344.07	223.87
344.46	224.32
344.84	224.76
345.22	224.63
345.60	224.95
345.99	225.19
346.37	225.35
346.75	225.42
347.13	225.43
347.52	225.49
347.90	225.67
348.28	225.78
348.66	226.01
349.05	225.93
349.43	225.96
349.81	226.06
350.19	226.11
350.57	226.07
350.96	226.23
351.34	226.36
351.72	226.52
352.10	226.66
352.48	226.68
352.87	226.68
353.25	226.85
353.63	226.84
354.01	226.92
354.39	227.01
354.77	227.15
355.15	227.41
355.54	227.48
355.92	227.38
356.30	227.41
356.68	227.70
357.06	227.74
357.44	227.70
357.82	227.69
358.20	228.14
358.58	228.22
358.97	228.21
359.35	228.32
359.73	228.48
360.11	228.55
360.49	228.64
360.87	228.76
361.25	228.85
361.63	229.10
362.01	229.13
362.39	229.13
362.77	229.24
363.15	229.20
363.53	229.26
363.91	229.25
364.29	229.33
364.67	228.93
365.05	228.90
365.43	228.98
365.81	229.10
366.19	228.97
366.57	229.23
366.95	229.23
367.33	229.20
367.71	229.15
368.09	229.26
368.47	229.24
368.85	229.17
369.23	229.20
369.61	229.02
369.99	229.20
370.37	229.31
370.75	229.47
371.13	229.38
371.51	229.28
371.89	229.38
372.27	229.28
372.65	229.23
373.03	229.23
373.41	229.23
373.78	229.11
374.16	228.78
374.54	228.57
374.92	228.49
375.30	228.39
375.68	228.25
376.06	228.23
376.44	228.12
376.82	228.08
377.19	228.02
377.57	227.95
377.95	227.66
378.33	227.48
378.71	227.17
379.09	227.14
379.47	227.19
379.84	227.08
380.22	226.96
380.60	226.89
380.98	226.81
381.36	226.64
381.73	226.56
382.11	226.60
382.49	226.47
382.87	226.28
383.25	226.29
383.62	226.77
384.00	226.52
384.38	226.52
384.76	226.54
385.13	226.65
385.51	226.63
385.89	226.53
386.27	226.51
386.64	226.54
387.02	226.48
387.40	226.30
387.78	226.35
388.15	226.46
388.53	226.36
388.91	226.30
389.29	226.25
389.66	226.29
390.04	226.21
390.42	226.31
390.79	226.38
391.17	226.30
391.55	225.78
391.92	225.87
392.30	225.92
392.68	225.87
393.05	225.78
393.43	225.78
393.81	225.86
394.18	225.85
394.56	225.88
394.94	226.02
395.31	226.00
395.69	226.04
396.06	226.07
396.44	226.15
396.82	226.14
397.19	226.60
397.57	226.59
397.95	226.76
398.32	226.70
398.70	226.90
399.07	227.10
399.45	227.14
399.82	227.19
400.20	227.24
400.58	227.26
400.95	227.26
401.33	227.48
401.70	228.01
402.08	228.12
402.45	228.25
402.83	228.44
403.20	228.75
403.58	228.91
403.95	229.19
404.33	229.45
404.71	229.70
405.08	230.05
405.46	230.32
405.83	230.61
406.21	230.90
406.58	231.11
406.96	231.29
407.33	231.70
407.70	232.11
408.08	232.84
408.45	233.39
408.83	233.88
409.20	234.18
409.58	234.27
409.95	234.94
410.33	235.40
410.70	235.78
411.08	236.38
411.45	236.93
411.82	237.47
412.20	238.21
412.57	239.23
412.95	239.56
413.32	240.45
413.69	241.27
414.07	242.22
414.44	243.26
414.82	244.25
415.19	245.42
415.56	246.59
415.94	247.60
416.31	248.94
416.68	250.29
417.06	251.90
417.43	253.50
417.81	255.16
418.18	257.00
418.55	258.89
418.93	260.88
419.30	262.94
419.67	265.16
420.04	267.42
420.42	269.65
420.79	272.71
421.16	275.46
421.54	278.43
421.91	281.40
422.28	284.44
422.66	287.77
423.03	291.23
423.40	294.51
423.77	297.99
424.15	301.53
424.52	305.31
424.89	309.46
425.26	313.40
425.64	317.18
426.01	321.30
426.38	325.72
426.75	330.22
427.13	334.81
427.50	339.40
427.87	344.29
428.24	349.19
428.61	353.65
428.99	358.86
429.36	364.25
429.73	369.62
430.10	375.16
430.47	380.71
430.85	386.19
431.22	392.39
431.59	399.24
431.96	405.51
432.33	412.38
432.70	419.00
433.08	426.93
433.45	434.22
433.82	441.69
434.19	449.89
434.56	457.90
434.93	465.57
435.30	473.60
435.68	482.12
436.05	490.45
436.42	498.75
436.79	506.38
437.16	514.75
437.53	523.63
437.90	532.19
438.27	540.87
438.64	549.85
439.01	558.13
439.38	565.23
439.75	572.46
440.13	580.50
440.50	588.06
440.87	594.02
441.24	600.32
441.61	607.06
441.98	612.04
442.35	617.77
442.72	623.76
443.09	629.45
443.46	632.93
443.83	635.33
444.20	637.27
444.57	640.18
444.94	641.45
445.31	642.52
445.68	643.99
446.05	644.26
446.42	642.98
446.79	641.59
447.16	639.95
447.53	638.60
447.90	634.80
448.27	631.02
448.64	626.20
449.01	622.65
449.37	616.71
449.74	610.71
450.11	604.03
450.48	596.39
450.85	588.29
451.22	581.46
451.59	574.76
451.96	568.63
452.33	560.47
452.70	552.95
453.07	544.30
453.43	535.22
453.80	526.63
454.17	518.66
454.54	510.91
454.91	502.79
455.28	494.84
455.65	487.53
456.02	480.76
456.38	474.50
456.75	466.72
457.12	460.22
457.49	453.95
457.86	447.59
458.23	442.43
458.59	436.93
458.96	431.11
459.33	426.15
459.70	420.91
460.07	416.74
460.43	412.15
460.80	407.88
461.17	404.17
461.54	400.21
461.91	396.31
462.27	392.45
462.64	389.12
463.01	385.56
463.38	382.32
463.74	378.37
464.11	375.29
464.48	372.77
464.85	369.88
465.21	367.80
465.58	365.42
465.95	362.62
466.32	360.30
466.68	358.15
467.05	355.84
467.42	353.58
467.78	351.33
468.15	349.20
468.52	347.72
468.88	345.40
469.25	343.56
469.62	342.15
469.98	340.59
470.35	339.13
470.72	337.69
471.08	335.96
471.45	334.75
471.82	333.52
472.18	332.01
472.55	330.99
472.92	329.68
473.28	328.58
473.65	327.47
474.02	326.39
474.38	325.51
474.75	324.74
475.11	324.00
475.48	323.35
475.85	322.74
476.21	321.99
476.58	321.55
476.94	321.24
477.31	320.75
477.67	320.38
478.04	320.15
478.41	319.92
478.77	320.22
479.14	319.95
479.50	319.76
479.87	319.85
480.23	319.85
480.60	319.78
480.96	319.83
481.33	320.24
481.69	320.43
482.06	320.62
482.42	320.96
482.79	321.33
483.15	321.76
483.52	322.37
483.88	322.79
484.25	323.44
484.61	324.05
484.98	324.76
485.34	325.70
485.71	326.62
486.07	327.58
486.44	328.19
486.80	329.23
487.17	330.39
487.53	331.70
487.90	333.16
488.26	334.85
488.62	336.47
488.99	337.95
489.35	339.80
489.72	341.78
490.08	343.82
490.44	345.75
490.81	348.00
491.17	350.03
491.54	352.62
491.90	355.15
492.26	357.81
492.63	360.60
492.99	363.40
493.36	366.52
493.72	369.78
494.08	373.25
494.45	377.05
494.81	380.94
495.17	384.86
495.54	389.01
495.90	393.15
496.26	397.58
496.63	402.17
496.99	406.91
497.35	411.92
497.72	417.06
498.08	422.64
498.44	428.30
498.80	434.56
499.17	440.52
499.53	446.73
499.89	453.35
500.26	460.11
500.62	467.01
500.98	474.31
501.34	481.80
501.71	489.44
502.07	497.20
502.43	505.34
502.79	513.71
503.16	522.27
503.52	531.39
503.88	540.67
504.24	550.28
504.60	560.17
504.97	570.25
505.33	580.61
505.69	591.45
506.05	602.48
506.41	613.50
506.78	625.25
507.14	637.32
507.50	649.44
507.86	662.20
508.22	675.39
508.59	688.34
508.95	701.79
509.31	715.93
509.67	730.05
510.03	744.17
510.39	758.94
510.75	773.95
511.12	788.94
511.48	804.58
511.84	820.39
512.20	836.42
512.56	852.67
512.92	869.53
513.28	886.61
513.64	903.58
514.00	921.03
514.37	938.65
514.73	956.53
515.09	974.85
515.45	993.05
515.81	1011.16
516.17	1029.81
516.53	1048.49
516.89	1066.98
517.25	1086.41
517.61	1106.45
517.97	1126.67
518.33	1146.66
518.69	1166.82
519.05	1187.11
519.41	1207.32
519.77	1228.50
520.13	1249.30
520.49	1269.76
520.85	1291.72
521.21	1312.97
521.57	1334.27
521.93	1354.69
522.29	1376.01
522.65	1396.58
523.01	1417.50
523.37	1438.29
523.73	1459.17
524.09	1479.75
524.45	1500.40
524.81	1521.18
525.17	1541.90
525.53	1562.04
525.89	1582.84
526.25	1603.37
526.61	1623.83
526.97	1644.87
527.33	1665.57
527.68	1687.24
528.04	1708.64
528.40	1727.96
528.76	1748.87
529.12	1769.24
529.48	1790.45
529.84	1810.22
530.20	1831.30
530.56	1851.76
530.91	1872.46
531.27	1892.82
531.63	1913.51
531.99	1934.20
532.35	1954.05
532.71	1973.88
533.07	1994.49
533.42	2014.28
533.78	2034.40
534.14	2054.16
534.50	2073.04
534.86	2092.36
535.21	2110.01
535.57	2128.09
535.93	2146.05
536.29	2163.32
536.65	2181.26
537.00	2198.63
537.36	2216.30
537.72	2232.82
538.08	2249.70
538.44	2266.15
538.79	2282.48
539.15	2298.76
539.51	2314.53
539.87	2329.47
540.22	2343.60
540.58	2357.98
540.94	2371.06
541.29	2383.99
541.65	2396.48
542.01	2409.46
542.37	2419.49
542.72	2430.18
543.08	2440.86
543.44	2452.30
543.79	2462.55
544.15	2472.26
544.51	2482.24
544.87	2491.42
545.22	2499.95
545.58	2507.73
545.94	2514.87
546.29	2521.30
546.65	2527.05
547.01	2532.49
547.36	2538.05
547.72	2543.61
548.07	2547.18
548.43	2552.25
548.79	2556.20
549.14	2560.15
549.50	2563.50
549.86	2567.89
550.21	2571.60
550.57	2574.85
550.92	2576.09
551.28	2577.10
551.64	2579.20
551.99	2580.50
552.35	2582.06
552.70	2584.13
553.06	2585.71
553.41	2587.15
553.77	2588.58
554.13	2590.36
554.48	2591.84
554.84	2593.13
555.19	2594.19
555.55	2595.99
555.90	2595.36
556.26	2594.68
556.61	2593.15
556.97	2590.95
557.32	2589.71
557.68	2588.66
558.03	2587.09
558.39	2585.66
558.74	2585.17
559.10	2581.71
559.45	2578.04
559.81	2573.96
560.16	2568.61
560.52	2563.88
560.87	2559.36
561.23	2554.24
561.58	2548.34
561.94	2540.92
562.29	2533.51
562.64	2526.47
563.00	2518.35
563.35	2511.63
563.71	2504.86
564.06	2498.34
564.42	2491.91
564.77	2485.05
565.12	2477.10
565.48	2469.58
565.83	2461.66
566.19	2453.28
566.54	2445.51
566.89	2437.99
567.25	2430.16
567.60	2423.01
567.96	2415.08
568.31	2406.86
568.66	2398.07
569.02	2388.93
569.37	2381.55
569.72	2374.14
570.08	2364.69
570.43	2355.21
570.78	2346.10
571.14	2336.79
571.49	2326.69
571.84	2317.29
572.20	2306.61
572.55	2296.57
572.90	2285.50
573.26	2275.23
573.61	2264.42
573.96	2253.59
574.31	2241.44
574.67	2229.76
575.02	2217.01
575.37	2204.31
575.72	2191.22
576.08	2179.30
576.43	2166.78
576.78	2153.40
577.13	2139.66
577.49	2127.08
577.84	2115.07
578.19	2103.42
578.54	2090.95
578.90	2079.28
579.25	2066.86
579.60	2054.67
579.95	2042.02
580.30	2029.14
580.66	2015.96
581.01	2002.32
581.36	1988.42
581.71	1975.96
582.06	1962.89
582.42	1950.54
582.77	1938.10
583.12	1926.16
583.47	1913.91
583.82	1902.22
584.17	1890.29
584.53	1878.44
584.88	1865.56
585.23	1852.61
585.58	1838.38
585.93	1825.23
586.28	1811.75
586.63	1797.86
586.98	1783.75
587.34	1770.48
587.69	1757.12
588.04	1744.75
588.39	1732.71
588.74	1720.70
589.09	1708.70
589.44	1696.00
589.79	1684.06
590.14	1672.36
590.49	1659.95
590.84	1648.05
591.19	1635.94
591.54	1623.69
591.89	1611.65
592.25	1601.57
592.60	1590.07
592.95	1578.60
593.30	1566.63
593.65	1554.63
594.00	1542.66
594.35	1532.83
594.70	1521.06
595.05	1509.91
595.40	1497.70
595.75	1486.01
596.10	1474.73
596.45	1463.21
596.80	1452.63
597.15	1441.25
597.50	1429.70
597.85	1419.00
598.19	1407.51
598.54	1396.13
598.89	1385.12
599.24	1374.59
599.59	1363.12
599.94	1352.38
600.29	1342.14
600.64	1332.15
600.99	1321.52
601.34	1312.08
601.69	1301.00
602.04	1291.33
602.39	1281.66
602.74	1272.56
603.08	1263.36
603.43	1254.17
603.78	1244.50
604.13	1234.70
604.48	1225.00
604.83	1215.14
605.18	1205.10
605.53	1195.48
605.87	1186.35
606.22	1177.81
606.57	1168.55
606.92	1159.22
607.27	1150.54
607.62	1141.91
607.96	1133.19
608.31	1125.40
608.66	1117.01
609.01	1108.35
609.36	1099.80
609.70	1091.34
610.05	1082.90
610.40	1074.32
610.75	1065.60
611.10	1057.44
611.44	1048.90
611.79	1040.69
612.14	1032.97
612.49	1025.19
612.83	1017.60
613.18	1009.97
613.53	1002.13
613.88	994.44
614.22	986.79
614.57	978.70
614.92	970.87
615.27	963.52
615.61	955.74
615.96	948.29
616.31	940.97
616.65	933.99
617.00	926.75
617.35	919.32
617.70	912.27
618.04	905.19
618.39	898.16
618.74	891.98
619.08	885.33
619.43	878.50
619.78	871.57
620.12	864.50
620.47	857.62
620.82	850.59
621.16	843.70
621.51	837.43
621.85	831.26
622.20	824.54
622.55	817.94
622.89	811.72
623.24	805.22
623.59	798.79
623.93	792.41
624.28	786.34
624.62	781.03
624.97	775.23
625.32	769.52
625.66	763.57
626.01	757.40
626.35	751.90
626.70	746.41
627.04	741.24
627.39	735.80
627.73	730.49
628.08	725.42
628.43	720.06
628.77	714.61
629.12	709.36
629.46	704.67
629.81	699.98
630.15	695.19
630.50	690.37
630.84	685.71
631.19	681.03
631.53	676.46
631.88	671.05
632.22	666.15
632.57	661.81
632.91	657.29
633.26	652.91
633.60	648.22
633.95	643.55
634.29	638.77
634.64	634.43
634.98	629.85
635.32	625.50
635.67	621.55
636.01	617.48
636.36	613.25
636.70	609.29
637.05	605.08
637.39	600.98
637.73	596.88
638.08	592.86
638.42	588.74
638.77	584.25
639.11	580.11
639.45	575.95
639.80	571.56
640.14	567.52
640.49	563.49
640.83	559.62
641.17	555.96
641.52	552.39
641.86	548.88
642.20	545.64
642.55	541.98
642.89	538.40
643.23	534.81
643.58	531.60
643.92	527.95
644.26	524.53
644.61	521.36
644.95	518.13
645.29	514.75
645.64	511.59
645.98	508.69
646.32	505.89
646.66	502.96
647.01	500.00
647.35	497.33
647.69	494.45
648.04	491.74
648.38	488.94
648.72	486.10
649.06	483.18
649.41	480.05
649.75	477.06
650.09	474.18
650.43	471.29
650.78	468.31
651.12	465.43
651.46	462.64
651.80	459.80
652.14	457.20
652.49	454.82
652.83	452.23
653.17	449.61
653.51	446.80
653.85	444.25
654.20	441.76
654.54	439.11
654.88	436.71
655.22	434.50
655.56	432.00
655.90	429.67
656.25	427.31
656.59	425.15
656.93	423.08
657.27	420.97
657.61	418.61
657.95	416.48
658.29	414.44
658.64	412.45
658.98	410.21
659.32	407.90
659.66	405.58
660.00	403.52
660.34	401.48
660.68	399.49
661.02	397.49
661.36	395.57
661.70	393.59
662.05	391.62
662.39	389.58
662.73	387.95
663.07	386.43
663.41	384.69
663.75	382.81
664.09	381.00
664.43	379.17
664.77	377.58
665.11	375.75
665.45	374.02
665.79	372.32
666.13	370.66
666.47	369.03
666.81	367.42
667.15	365.73
667.49	364.30
667.83	363.00
668.17	361.60
668.51	360.11
668.85	358.80
669.19	357.78
669.53	356.28
669.87	354.68
670.21	352.95
670.55	351.50
670.89	350.31
671.23	349.02
671.57	347.58
671.91	346.16
672.25	344.98
672.58	343.83
672.92	342.38
673.26	341.26
673.60	340.12
673.94	338.95
674.28	337.88
674.62	336.71
674.96	335.45
675.30	334.20
675.64	332.99
675.97	331.73
676.31	330.25
676.65	329.06
676.99	328.10
677.33	327.00
677.67	325.91
678.01	324.62
678.34	323.59
678.68	322.72
679.02	321.75
679.36	320.65
679.70	319.59
680.04	318.74
680.37	317.76
680.71	316.70
681.05	315.81
681.39	314.78
681.73	313.83
682.06	312.86
682.40	312.02
682.74	311.35
683.08	310.63
683.42	309.72
683.75	308.97
684.09	307.87
684.43	307.10
684.77	306.24
685.10	305.45
685.44	304.53
685.78	303.64
686.12	302.98
686.45	302.13
686.79	301.22
687.13	300.65
687.46	299.79
687.80	299.21
688.14	298.42
688.48	297.70
688.81	296.96
689.15	296.23
689.49	295.46
689.82	294.69
690.16	293.84
690.50	293.15
690.83	292.40
691.17	291.75
691.51	291.08
691.84	290.47
692.18	289.72
692.52	289.04
692.85	288.37
693.19	287.87
693.52	287.30
693.86	286.68
694.20	285.82
694.53	285.21
694.87	284.52
695.21	283.90
695.54	283.32
695.88	282.62
696.21	281.89
696.55	281.29
696.88	280.67
697.22	280.06
697.56	279.61
697.89	278.88
698.23	278.36
698.56	277.64
698.90	277.12
699.23	276.64
699.57	276.12
699.90	275.62
700.24	274.96
700.58	274.53
700.91	274.19
701.25	274.19
701.58	274.14
701.92	273.78
702.25	273.36
702.59	272.84
702.92	272.49
703.26	272.15
703.59	271.73
703.93	271.73
704.26	271.35
704.60	270.95
704.93	270.61
705.26	270.16
705.60	269.91
705.93	269.38
706.27	269.05
706.60	268.76
706.94	268.60
707.27	268.19
707.61	267.90
707.94	267.45
708.27	266.67
708.61	265.85
708.94	265.42
709.28	265.07
709.61	264.66
709.94	264.26
710.28	263.89
710.61	263.53
710.95	262.64
711.28	262.61
711.61	262.14
711.95	261.93
712.28	261.59
712.61	261.22
712.95	261.13
713.28	261.03
713.61	260.59
713.95	260.03
714.28	259.71
714.61	259.25
714.95	258.90
715.28	258.45
715.61	258.17
715.95	257.80
716.28	257.40
716.61	257.19
716.95	256.80
717.28	256.53
717.61	256.19
717.94	255.98
718.28	255.30
718.61	255.06
718.94	254.64
719.27	254.36
719.61	254.18
719.94	253.88
720.27	253.40
720.60	253.16
720.94	253.02
721.27	252.81
721.60	252.66
721.93	252.39
722.27	252.40
722.60	252.22
722.93	251.97
723.26	251.81
723.59	251.59
723.93	251.46
724.26	251.22
724.59	251.05
724.92	250.84
725.25	250.79
725.59	250.57
725.92	250.44
726.25	250.22
726.58	249.99
726.91	249.69
727.24	249.52
727.57	249.33
727.91	249.00
728.24	248.86
728.57	248.60
728.90	248.53
729.23	248.13
729.56	248.16
729.89	248.01
730.22	247.80
730.55	247.56
730.89	247.36
731.22	247.20
731.55	247.01
731.88	246.82
732.21	246.53
732.54	246.29
732.87	246.14
733.20	245.99
733.53	245.81
733.86	245.68
734.19	245.45
734.52	245.41
734.85	245.62
735.18	245.32
735.51	245.37
735.84	245.22
736.17	245.26
736.50	244.86
736.83	245.30
737.16	245.15
737.49	245.05
737.82	244.95
738.15	244.82
738.48	244.64
738.81	244.48
739.14	244.40
739.47	244.25
739.80	244.08
740.13	244.09
740.46	243.89
740.79	243.72
741.12	243.56
741.45	243.41
741.78	243.08
742.11	243.10
742.44	242.80
742.77	242.71
743.10	242.45
743.43	242.18
743.75	241.50
744.08	242.02
744.41	241.83
744.74	241.64
745.07	241.39
745.40	241.31
745.73	241.39
746.06	241.18
746.39	241.12
746.71	240.87
747.04	240.59
747.37	240.45
747.70	240.37
748.03	240.26
748.36	240.05
748.68	239.78
749.01	239.48
749.34	239.34
749.67	239.20
750.00	239.17
750.33	239.49
750.65	239.41
750.98	238.59
751.31	238.47
751.64	238.36
751.97	238.54
752.29	238.42
752.62	238.10
752.95	238.03
753.28	237.81
753.60	237.75
753.93	237.76
754.26	237.72
754.59	237.47
754.91	237.31
755.24	237.22
755.57	237.12
755.90	237.05
756.22	236.87
756.55	236.65
756.88	236.39
757.20	235.95
757.53	235.71
757.86	235.67
758.19	235.56
758.51	235.49
758.84	235.16
759.17	235.00
759.49	234.89
759.82	234.96
760.15	235.01
760.47	234.93
760.80	234.68
761.13	234.62
761.45	234.53
761.78	234.46
762.11	234.48
762.43	234.40
762.76	234.31
763.08	234.27
763.41	234.20
763.74	234.17
764.06	234.13
764.39	234.06
764.71	233.97
765.04	233.90
765.37	233.72
765.69	233.62
766.02	233.51
766.34	233.38
766.67	233.11
767.00	233.03
767.32	233.26
767.65	233.49
767.97	233.35
768.30	233.32
768.62	233.27
768.95	233.14
769.27	233.07
769.60	233.07
769.92	232.95
770.25	232.87
770.57	232.74
770.90	232.65
771.22	232.65
771.55	232.61
771.87	232.58
772.20	232.57
772.52	232.98
772.85	233.57
773.17	233.60
773.50	233.58
773.82	233.49
774.15	233.19
774.47	232.84
774.80	232.78
775.12	232.73
775.45	232.62
775.77	232.57
776.09	232.58
776.42	232.58
776.74	232.78
777.07	232.67
777.39	232.72
777.72	232.62
778.04	232.58
778.36	232.53
778.69	232.51
779.01	232.50
779.33	232.10
779.66	231.53
779.98	231.48
780.31	231.45
780.63	231.65
780.95	231.65
781.28	231.69
781.60	231.66
781.92	231.63
782.25	231.70
782.57	231.69
782.89	231.60
783.22	231.52
783.54	231.35
783.86	231.40
784.19	231.26
784.51	231.42
784.83	231.34
785.16	231.25
785.48	231.28
785.80	231.27
786.12	231.24
786.45	231.24
786.77	231.25
787.09	231.15
787.42	230.87
787.74	230.94
788.06	230.93
788.38	230.85
788.71	230.74
789.03	230.64
789.35	230.60
789.67	230.46
789.99	230.45
790.32	230.31
790.64	230.28
790.96	230.78
791.28	230.61
791.61	230.60
791.93	230.61
792.25	230.42
792.57	230.66
792.89	230.53
793.21	230.47
793.54	230.36
793.86	230.31
794.18	230.26
794.50	230.05
794.82	229.93
795.14	229.95
795.47	230.06
795.79	229.98
796.11	229.82
796.43	229.74
796.75	229.62
797.07	229.65
797.39	229.60
797.71	229.15
798.04	229.11
798.36	229.05
798.68	228.98
799.00	229.02
799.32	228.74
799.64	228.80
799.96	228.79
800.28	228.89
800.60	228.85
800.92	228.88
801.24	228.88
801.56	228.94
801.89	228.87
802.21	228.85
802.53	228.78
802.85	228.94
803.17	229.21
803.49	229.10
803.81	229.05
804.13	229.04
804.45	228.95
804.77	229.00
805.09	229.05
805.41	228.92
805.73	228.75
806.05	228.67
806.37	228.65
806.69	228.54
807.01	228.44
807.33	228.58
807.65	228.43
807.97	228.57
808.28	228.48
808.60	228.47
808.92	228.39
809.24	228.76
809.56	228.67
809.88	228.49
810.20	228.56
810.52	228.69
810.84	228.58
811.16	228.49
811.48	228.38
811.80	228.51
812.12	228.62
812.43	228.77
812.75	228.77
813.07	228.69
813.39	228.78
813.71	228.77
814.03	228.65
814.35	228.77
814.67	228.61
814.98	228.63
815.30	228.65
815.62	228.62
815.94	228.29
816.26	228.45
816.58	228.34
816.89	228.35
817.21	228.18
817.53	228.21
817.85	228.31
818.17	228.34
818.48	228.15
818.80	228.21
819.12	228.18
819.44	228.13
819.76	228.17
820.07	228.12
820.39	228.08
820.71	228.06
821.03	227.98
821.34	228.00
821.66	228.07
821.98	228.12
822.30	228.06
822.61	228.29
822.93	228.05
823.25	228.12
823.57	228.10
823.88	228.17
824.20	228.22
824.52	228.29
824.83	228.26
825.15	228.20
825.47	228.17
825.79	228.21
826.10	228.16
826.42	228.03
826.74	228.04
827.05	228.05
827.37	228.03
827.69	228.01
828.00	228.00
828.32	227.94
828.64	227.90
828.95	228.10
829.27	228.00
829.58	227.99
829.90	228.00
830.22	227.96
830.53	227.82
830.85	227.73
831.17	227.56
831.48	227.45
831.80	227.46
832.11	227.45
832.43	227.32
832.75	227.41
833.06	227.70
833.38	227.57
833.69	227.55
834.01	227.59
834.32	227.57
834.64	227.50
834.96	227.45
835.27	227.33
835.59	227.23
835.90	227.20
836.22	227.18
836.53	227.00
836.85	226.94
837.16	227.47
837.48	227.44
837.79	227.57
838.11	227.63
838.42	227.63
838.74	227.67
839.05	227.60
839.37	227.47
839.68	227.20
840.00	227.17
840.31	227.19
840.63	227.14
840.94	227.08
841.26	227.04
841.57	227.02
841.88	227.10
842.20	226.98
842.51	226.82
842.83	226.83
843.14	227.32
843.46	227.40
843.77	227.02
844.08	226.99
844.40	226.85
844.71	226.72
845.03	226.65
845.34	226.57
845.65	226.56
845.97	226.54
846.28	226.55
846.60	226.57
846.91	226.44
847.22	226.43
847.54	226.46
847.85	226.46
848.16	226.44
848.48	226.32
848.79	226.48
849.10	226.62
849.42	226.54
849.73	226.11
850.04	226.10
850.36	225.97
850.67	226.07
850.98	226.05
851.30	226.17
851.61	226.17
851.92	226.12
852.23	226.31
852.55	226.44
852.86	226.47
853.17	226.51
853.49	226.68
853.80	226.77
854.11	226.86
854.42	226.95
854.74	226.98
855.05	227.01
855.36	226.79
855.67	226.73
855.99	226.80
856.30	227.42
856.61	227.35
856.92	227.36
857.23	227.34
857.55	227.35
857.86	227.35
858.17	227.51
858.48	227.47
858.79	227.38
859.11	227.42
859.42	227.44
859.73	227.40
860.04	227.39
860.35	227.25
860.66	227.10
860.98	227.07
861.29	227.00
861.60	226.99
861.91	227.19
862.22	227.08
862.53	227.03
862.84	226.49
863.16	226.66
863.47	226.65
863.78	226.60
864.09	226.69
864.40	226.70
864.71	226.59
865.02	226.62
865.33	226.58
865.64	226.47
865.95	226.42
866.27	226.75
866.58	226.68
866.89	226.78
867.20	226.81
867.51	226.73
867.82	226.80
868.13	226.99
868.44	226.92
868.75	227.13
869.06	227.22
869.37	227.30
869.68	227.16
869.99	227.32
870.30	227.37
870.61	227.28
870.92	227.22
871.23	227.20
871.54	227.28
871.85	227.47
872.16	227.50
872.47	227.46
872.78	227.16
873.09	227.19
873.40	227.06
873.71	227.15
874.02	227.22
874.33	227.08
874.64	226.91
874.95	226.95
875.26	226.75
875.56	226.62
875.87	226.48
876.18	226.48
876.49	226.86
876.80	226.84
877.11	226.84
877.42	226.90
877.73	226.91
878.04	226.88
878.35	226.79
878.66	226.84
878.96	226.88
879.27	226.91
879.58	226.89
879.89	226.94
880.20	227.02
880.51	226.93
880.82	226.97
881.12	227.03
881.43	226.92
881.74	226.98
882.05	226.95
882.36	227.06
882.67	227.07
882.97	226.61
883.28	226.54
883.59	226.60
883.90	226.61
884.21	226.69
884.51	226.64
884.82	226.57
885.13	226.52
885.44	226.49
885.74	226.47
886.05	226.46
886.36	226.51
886.67	226.33
886.98	226.61
887.28	226.65
887.59	226.66
887.90	226.67
888.20	226.63
888.51	226.84
888.82	226.73
889.13	226.81
889.43	227.15
889.74	227.15
890.05	227.12
890.35	227.09
890.66	227.03
890.97	227.01
891.28	226.98
891.58	226.97
891.89	226.90
892.20	226.84
892.50	226.75
892.81	226.68
893.12	226.67
893.42	226.41
893.73	226.54
894.04	226.53
894.34	226.54
894.65	226.49
894.95	226.34
895.26	226.36
895.57	226.59
895.87	226.16
896.18	226.30
896.48	226.30
896.79	226.29
897.10	226.32
897.40	226.32
897.71	226.41
898.01	226.38
898.32	226.50
898.63	226.55
898.93	226.63
899.24	226.69
899.54	226.69
899.85	226.68
900.15	226.53
900.46	226.52
900.76	226.61
901.07	226.67
901.38	226.70
901.68	226.76
901.99	226.47
902.29	226.55
902.60	226.47
902.90	226.42
903.21	226.48
903.51	226.46
903.82	226.56
904.12	226.55
904.43	226.60
904.73	226.55
905.03	226.48
905.34	226.91
905.64	226.84
905.95	226.83
906.25	226.85
906.56	226.87
906.86	226.83
907.17	226.74
907.47	226.81
907.77	226.79
908.08	226.75
908.38	226.75
908.69	226.84
908.99	226.90
909.30	226.96
909.60	226.89
909.90	226.99
910.21	226.78
910.51	226.76
910.81	226.80
911.12	226.80
911.42	226.90
911.73	226.45
912.03	226.53
912.33	226.69
912.64	226.71
912.94	226.68
913.24	226.70
913.55	226.72
913.85	226.65
914.15	226.73
914.46	226.77
914.76	226.73
915.06	226.64
915.37	226.49
915.67	226.45
915.97	226.48
916.27	226.32
916.58	226.49
916.88	226.41
917.18	226.38
917.49	226.67
917.79	226.60
918.09	226.60
918.39	226.72
918.70	226.62
919.00	226.65
919.30	226.93
919.60	226.87
919.91	226.78
920.21	226.83
920.51	226.69
920.81	226.60
921.12	226.70
921.42	226.68
921.72	226.82
922.02	226.84
922.32	226.92
922.63	226.91
922.93	227.09
923.23	227.16
923.53	227.15
923.83	226.80
924.13	226.92
924.44	226.99
924.74	227.01
925.04	227.05
925.34	227.05
925.64	226.84
925.94	226.84
926.24	227.15
926.55	227.06
926.85	227.25
927.15	227.26
927.45	227.20
927.75	227.17
928.05	227.10
928.35	227.12
928.65	227.18
928.95	227.29
929.26	227.10
929.56	227.16
929.86	227.17
930.16	227.20
930.46	227.09
930.76	227.08
931.06	226.93
931.36	226.79
931.66	226.79
931.96	226.83
932.26	226.86
932.56	226.59
932.86	226.65
933.16	226.60
933.46	226.58
933.76	226.53
934.06	226.66
934.36	226.85
934.66	226.76
934.96	226.63
935.26	226.62
935.56	226.67
935.86	226.50
936.16	226.39
936.46	226.39
936.76	226.30
937.06	226.21
937.36	226.12
937.66	226.21
937.96	226.25
938.26	226.19
938.56	226.14
938.86	226.17
939.16	226.17
939.46	226.13
939.76	226.12
940.06	226.10
940.35	225.96
940.65	225.69
940.95	225.77
941.25	225.66
941.55	225.54
941.85	225.51
942.15	225.62
942.45	225.81
942.75	225.77
943.04	225.85
943.34	226.01
943.64	226.06
943.94	226.00
944.24	226.00
944.54	225.94
944.84	225.96
945.13	225.89
945.43	225.75
945.73	225.68
946.03	225.66
946.33	225.63
946.62	225.52
946.92	225.53
947.22	225.55
947.52	225.63
947.82	225.79
948.11	225.66
948.41	225.59
948.71	225.45
949.01	225.51
949.31	225.48
949.60	225.39
949.90	225.45
950.20	225.39
950.50	225.28
950.79	225.29
951.09	225.32
951.39	225.35
951.69	225.42
951.98	225.61
952.28	225.57
952.58	225.58
952.87	225.68
953.17	225.71
953.47	225.62
953.76	225.53
954.06	225.41
954.36	225.48
954.66	225.42
954.95	225.55
955.25	225.59
955.55	225.60
955.84	225.55
956.14	225.55
956.44	225.61
956.73	225.60
957.03	225.61
957.32	225.56
957.62	225.55
957.92	225.70
958.21	225.59
958.51	226.27
958.81	226.35
959.10	226.44
959.40	226.60
959.69	226.72
959.99	226.85
960.29	226.85
960.58	226.80
960.88	227.02
961.17	226.96
961.47	227.00
961.76	226.98
962.06	227.02
962.36	227.07
962.65	227.05
962.95	227.09
963.24	227.02
963.54	227.14
963.83	227.16
964.13	227.08
964.42	227.04
964.72	226.58
965.01	226.55
965.31	226.52
965.60	226.39
965.90	226.66
966.19	226.58
966.49	226.65
966.78	226.68
967.08	226.67
967.37	226.69
967.67	226.55
967.96	226.67
968.26	226.68
968.55	226.61
968.85	226.63
969.14	226.63
969.43	226.74
969.73	226.70
970.02	226.72
970.32	226.65
970.61	226.62
970.91	226.49
971.20	226.44
971.49	226.31
971.79	226.35
972.08	226.00
972.38	226.09
972.67	226.08
972.96	226.14
973.26	226.00
973.55	226.15
973.85	226.17
974.14	226.03
974.43	226.06
974.73	225.97
975.02	226.00
975.31	225.99
975.61	225.97
975.90	225.86
976.19	225.75
976.49	225.83
976.78	225.88
977.07	225.90
977.37	225.94
977.66	226.08
977.95	226.02
978.24	226.07
978.54	226.13
978.83	226.08
979.12	226.08
979.42	226.10
979.71	226.00
980.00	225.97
980.29	226.04
980.59	225.87
980.88	225.99
981.17	225.96
981.46	225.99
981.76	225.89
982.05	226.05
982.34	226.12
982.63	226.06
982.93	226.06
983.22	226.12
983.51	226.14
983.80	226.08
984.09	226.19
984.39	226.20
984.68	226.11
984.97	226.05
985.26	226.05
985.55	226.16
985.85	226.04
986.14	226.12
986.43	226.11
986.72	226.17
987.01	226.06
987.30	226.06
987.59	225.92
987.89	225.95
988.18	225.86
988.47	225.83
988.76	225.79
989.05	225.79
989.34	225.74
989.63	225.89
989.92	225.85
990.22	225.78
990.51	225.78
990.80	225.76
991.09	225.82
991.38	225.78
991.67	225.66
991.96	225.67
992.25	225.60
992.54	225.56
992.83	225.56
993.12	225.61
993.41	225.66
993.70	225.90
993.99	226.00
994.28	226.00
994.58	226.06
994.87	226.01
995.16	225.93
995.45	225.87
995.74	225.65
996.03	225.76
996.32	225.79
996.61	225.80
996.90	225.77
997.19	225.70
997.48	225.76
997.77	225.77
998.06	225.77
998.34	225.75
998.63	225.70
998.92	225.78
999.21	225.76
999.50	225.75
999.79	225.62
1000.08	225.68
1000.37	225.71
1000.66	225.70
1000.95	225.87
1001.24	225.93
1001.53	226.09
1001.82	226.13
1002.11	225.99
1002.40	226.00
1002.68	226.19
1002.97	226.52
1003.26	226.60
1003.55	226.56
1003.84	226.60
1004.13	226.85
1004.42	226.82
1004.71	226.90
1004.99	226.79
1005.28	226.94
1005.57	226.94
1005.86	226.91
1006.15	226.85
1006.44	226.77
1006.72	226.77
1007.01	226.71
1007.30	226.74
1007.59	226.61
1007.88	226.63
1008.17	226.73
1008.45	226.69
1008.74	226.40
1009.03	226.14
1009.32	226.03
1009.60	226.06
1009.89	225.93
1010.18	225.68
1010.47	225.73
1010.76	225.70
1011.04	225.74
1011.33	225.76
1011.62	225.73
1011.91	225.78
1012.19	225.76
1012.48	225.78
1012.77	225.78
1013.05	226.04
1013.34	226.04
1013.63	225.99
1013.92	226.00
1014.20	225.93
1014.49	225.88
1014.78	226.00
1015.06	225.86
1015.35	225.96
1015.64	225.89
1015.92	225.96
1016.21	226.02
1016.50	226.00
1016.78	226.05
1017.07	226.13
1017.36	225.95
1017.64	225.94
1017.93	225.92
1018.22	225.91
1018.50	225.91
1018.79	225.91
1019.08	225.55
1019.36	225.54
1019.65	225.54
1019.93	225.69
1020.22	225.71
1020.51	225.95
1020.79	225.86
1021.08	225.65
1021.36	225.10
1021.65	226.30
1021.94	223.85
1022.22	225.75
1022.51	224.75
1022.79	228.75
1023.08	225.80
1023.36	230.75
1023.65	224.85
>>>>>End Processed Spectral Data<<<<<
