SpectraSuite Data File
++++++++++++++++++++++++++++++++++++
Date: Wed Sep 04 17:51:46 EDT 2013
User: lab3
Dark Spectrum Present: Yes
Reference Spectrum Present: No
Number of Sampled Component Spectra: 1
Spectrometers: USB2E7196
Integration Time (usec): 170000 (USB2E7196)
Spectra Averaged: 20 (USB2E7196)
Boxcar Smoothing: 10 (USB2E7196)
Correct for Electrical Dark: No (USB2E7196)
Strobe/Lamp Enabled: No (USB2E7196)
Correct for Detector Non-linearity: No (USB2E7196)
Correct for Stray Light: No (USB2E7196)
Number of Pixels in Processed Spectrum: 2048
>>>>>Begin Processed Spectral Data<<<<<
339.09	0.00
339.48	213.40
339.86	215.05
340.24	215.30
340.63	217.40
341.01	225.40
341.39	218.70
341.78	222.35
342.16	223.10
342.54	222.60
342.93	211.95
343.31	222.65
343.69	223.18
344.07	223.61
344.46	224.10
344.84	224.50
345.22	224.52
345.60	224.83
345.99	225.00
346.37	225.15
346.75	225.26
347.13	225.36
347.52	225.50
347.90	225.72
348.28	225.80
348.66	225.94
349.05	225.85
349.43	225.94
349.81	226.00
350.19	226.07
350.57	226.08
350.96	226.18
351.34	226.23
351.72	226.32
352.10	226.46
352.48	226.50
352.87	226.54
353.25	226.60
353.63	226.71
354.01	226.73
354.39	226.78
354.77	226.88
355.15	227.09
355.54	227.10
355.92	226.96
356.30	227.07
356.68	227.46
357.06	227.53
357.44	227.53
357.82	227.59
358.20	227.97
358.58	228.03
358.97	228.05
359.35	228.20
359.73	228.44
360.11	228.45
360.49	228.55
360.87	228.62
361.25	228.69
361.63	228.82
362.01	228.87
362.39	228.93
362.77	229.03
363.15	229.07
363.53	229.10
363.91	229.17
364.29	229.17
364.67	228.73
365.05	228.81
365.43	228.89
365.81	229.06
366.19	228.96
366.57	229.13
366.95	229.23
367.33	229.17
367.71	229.02
368.09	229.13
368.47	229.13
368.85	229.10
369.23	229.22
369.61	229.10
369.99	229.31
370.37	229.28
370.75	229.52
371.13	229.33
371.51	229.26
371.89	229.33
372.27	229.30
372.65	229.30
373.03	229.20
373.41	229.13
373.78	229.06
374.16	228.83
374.54	228.56
374.92	228.45
375.30	228.42
375.68	228.29
376.06	228.24
376.44	228.17
376.82	228.16
377.19	228.05
377.57	227.96
377.95	227.76
378.33	227.71
378.71	227.27
379.09	227.32
379.47	227.27
379.84	227.12
380.22	227.01
380.60	226.88
380.98	226.79
381.36	226.65
381.73	226.45
382.11	226.40
382.49	226.49
382.87	226.32
383.25	226.18
383.62	226.77
384.00	226.55
384.38	226.45
384.76	226.43
385.13	226.55
385.51	226.44
385.89	226.22
386.27	226.19
386.64	226.22
387.02	226.12
387.40	226.11
387.78	226.04
388.15	226.08
388.53	225.99
388.91	226.01
389.29	225.94
389.66	225.98
390.04	225.89
390.42	225.84
390.79	225.89
391.17	225.92
391.55	225.29
391.92	225.28
392.30	225.36
392.68	225.20
393.05	225.14
393.43	225.23
393.81	225.37
394.18	225.27
394.56	225.26
394.94	225.39
395.31	225.36
395.69	225.55
396.06	225.62
396.44	225.75
396.82	225.78
397.19	226.12
397.57	226.14
397.95	226.30
398.32	226.29
398.70	226.40
399.07	226.62
399.45	226.68
399.82	226.83
400.20	226.89
400.58	227.10
400.95	226.96
401.33	227.06
401.70	227.55
402.08	227.77
402.45	227.96
402.83	228.15
403.20	228.34
403.58	228.40
403.95	228.67
404.33	228.95
404.71	229.14
405.08	229.55
405.46	229.80
405.83	230.05
406.21	230.33
406.58	230.65
406.96	230.89
407.33	231.33
407.70	231.77
408.08	232.45
408.45	232.82
408.83	233.44
409.20	233.86
409.58	233.90
409.95	234.41
410.33	234.95
410.70	235.29
411.08	235.99
411.45	236.68
411.82	237.20
412.20	237.93
412.57	239.00
412.95	239.32
413.32	240.15
413.69	240.98
414.07	241.91
414.44	242.81
414.82	243.82
415.19	244.92
415.56	246.07
415.94	247.10
416.31	248.57
416.68	249.92
417.06	251.58
417.43	253.26
417.81	255.05
418.18	256.77
418.55	258.74
418.93	260.72
419.30	262.81
419.67	265.03
420.04	267.24
420.42	269.43
420.79	272.60
421.16	275.41
421.54	278.44
421.91	281.49
422.28	284.66
422.66	287.97
423.03	291.41
423.40	294.71
423.77	298.30
424.15	301.84
424.52	305.59
424.89	309.75
425.26	313.63
425.64	317.39
426.01	321.57
426.38	325.97
426.75	330.53
427.13	335.10
427.50	339.85
427.87	344.71
428.24	349.76
428.61	354.24
428.99	359.54
429.36	365.01
429.73	370.37
430.10	375.82
430.47	381.49
430.85	387.07
431.22	393.27
431.59	400.04
431.96	406.21
432.33	413.12
432.70	419.61
433.08	427.59
433.45	434.96
433.82	442.35
434.19	450.47
434.56	458.42
434.93	465.94
435.30	473.68
435.68	482.37
436.05	490.53
436.42	498.73
436.79	506.43
437.16	514.81
437.53	523.70
437.90	532.41
438.27	540.93
438.64	549.91
439.01	558.15
439.38	565.21
439.75	572.50
440.13	580.48
440.50	588.07
440.87	594.04
441.24	600.47
441.61	607.37
441.98	612.40
442.35	618.10
442.72	624.17
443.09	629.96
443.46	633.17
443.83	635.59
444.20	637.62
444.57	640.32
444.94	641.38
445.31	642.38
445.68	643.78
446.05	643.90
446.42	642.48
446.79	641.03
447.16	639.36
447.53	638.01
447.90	634.26
448.27	630.63
448.64	625.76
449.01	622.01
449.37	615.90
449.74	609.81
450.11	603.12
450.48	595.41
450.85	587.40
451.22	580.71
451.59	574.00
451.96	567.70
452.33	559.46
452.70	552.05
453.07	543.39
453.43	534.11
453.80	525.80
454.17	517.84
454.54	510.09
454.91	502.01
455.28	494.00
455.65	486.84
456.02	480.01
456.38	473.76
456.75	465.91
457.12	459.36
457.49	453.24
457.86	446.80
458.23	441.62
458.59	435.96
458.96	430.24
459.33	425.27
459.70	420.23
460.07	416.22
460.43	411.54
460.80	407.33
461.17	403.72
461.54	399.74
461.91	395.96
462.27	392.14
462.64	388.90
463.01	385.41
463.38	382.01
463.74	377.99
464.11	374.91
464.48	372.36
464.85	369.62
465.21	367.47
465.58	365.20
465.95	362.40
466.32	360.16
466.68	357.90
467.05	355.73
467.42	353.50
467.78	351.20
468.15	349.06
468.52	347.48
468.88	345.22
469.25	343.33
469.62	341.83
469.98	340.22
470.35	338.67
470.72	337.27
471.08	335.55
471.45	334.27
471.82	333.07
472.18	331.70
472.55	330.63
472.92	329.25
473.28	328.19
473.65	327.10
474.02	326.02
474.38	325.12
474.75	324.36
475.11	323.59
475.48	323.00
475.85	322.48
476.21	321.72
476.58	321.29
476.94	320.88
477.31	320.46
477.67	320.15
478.04	319.86
478.41	319.60
478.77	319.90
479.14	319.70
479.50	319.63
479.87	319.74
480.23	319.82
480.60	319.84
480.96	319.75
481.33	320.21
481.69	320.47
482.06	320.74
482.42	320.96
482.79	321.26
483.15	321.71
483.52	322.30
483.88	322.88
484.25	323.58
484.61	324.19
484.98	324.75
485.34	325.71
485.71	326.68
486.07	327.68
486.44	328.26
486.80	329.34
487.17	330.41
487.53	331.79
487.90	333.20
488.26	334.87
488.62	336.65
488.99	338.08
489.35	339.85
489.72	341.70
490.08	343.67
490.44	345.68
490.81	347.80
491.17	349.99
491.54	352.47
491.90	354.95
492.26	357.59
492.63	360.53
492.99	363.39
493.36	366.48
493.72	369.81
494.08	373.21
494.45	376.95
494.81	380.77
495.17	384.52
495.54	388.64
495.90	392.80
496.26	397.20
496.63	401.93
496.99	406.62
497.35	411.60
497.72	416.94
498.08	422.40
498.44	428.06
498.80	433.95
499.17	439.83
499.53	445.99
499.89	452.63
500.26	459.38
500.62	466.17
500.98	473.45
501.34	480.75
501.71	488.32
502.07	496.08
502.43	504.08
502.79	512.43
503.16	521.07
503.52	530.07
503.88	539.25
504.24	548.98
504.60	559.02
504.97	569.30
505.33	579.66
505.69	590.66
506.05	601.75
506.41	613.20
506.78	624.92
507.14	636.94
507.50	649.27
507.86	661.85
508.22	674.95
508.59	687.91
508.95	701.59
509.31	715.87
509.67	730.18
510.03	744.53
510.39	759.24
510.75	774.15
511.12	789.26
511.48	805.01
511.84	820.44
512.20	836.35
512.56	852.60
512.92	869.27
513.28	886.06
513.64	903.07
514.00	920.38
514.37	938.20
514.73	956.15
515.09	974.20
515.45	992.85
515.81	1011.18
516.17	1029.95
516.53	1048.12
516.89	1066.74
517.25	1086.11
517.61	1106.14
517.97	1126.11
518.33	1145.89
518.69	1166.31
519.05	1186.50
519.41	1207.16
519.77	1228.11
520.13	1248.83
520.49	1269.35
520.85	1291.55
521.21	1312.60
521.57	1333.87
521.93	1354.60
522.29	1375.95
522.65	1396.91
523.01	1417.53
523.37	1438.00
523.73	1458.89
524.09	1479.92
524.45	1500.24
524.81	1520.75
525.17	1541.65
525.53	1562.44
525.89	1583.38
526.25	1603.97
526.61	1624.19
526.97	1645.06
527.33	1666.05
527.68	1687.66
528.04	1709.16
528.40	1728.76
528.76	1749.65
529.12	1770.11
529.48	1790.70
529.84	1810.69
530.20	1831.43
530.56	1852.00
530.91	1872.86
531.27	1893.11
531.63	1913.68
531.99	1934.30
532.35	1954.21
532.71	1974.12
533.07	1994.84
533.42	2014.79
533.78	2034.52
534.14	2054.37
534.50	2073.41
534.86	2092.40
535.21	2109.86
535.57	2128.07
535.93	2145.50
536.29	2163.35
536.65	2181.14
537.00	2198.74
537.36	2215.85
537.72	2231.87
538.08	2248.73
538.44	2265.41
538.79	2281.73
539.15	2297.83
539.51	2313.85
539.87	2329.14
540.22	2342.92
540.58	2356.96
540.94	2369.71
541.29	2382.23
541.65	2394.80
542.01	2407.14
542.37	2417.67
542.72	2428.45
543.08	2438.92
543.44	2450.73
543.79	2460.27
544.15	2469.98
544.51	2479.75
544.87	2489.15
545.22	2498.20
545.58	2505.58
545.94	2512.42
546.29	2519.05
546.65	2525.18
547.01	2530.54
547.36	2535.86
547.72	2541.21
548.07	2544.70
548.43	2550.17
548.79	2554.62
549.14	2558.48
549.50	2562.16
549.86	2565.92
550.21	2569.67
550.57	2573.06
550.92	2574.06
551.28	2575.59
551.64	2578.06
551.99	2579.72
552.35	2581.43
552.70	2583.20
553.06	2585.45
553.41	2586.81
553.77	2588.19
554.13	2589.81
554.48	2591.53
554.84	2592.95
555.19	2594.22
555.55	2595.84
555.90	2595.01
556.26	2594.30
556.61	2592.70
556.97	2590.53
557.32	2589.88
557.68	2588.33
558.03	2586.74
558.39	2585.27
558.74	2583.96
559.10	2580.43
559.45	2576.58
559.81	2572.19
560.16	2567.00
560.52	2561.84
560.87	2557.18
561.23	2551.65
561.58	2545.85
561.94	2538.68
562.29	2531.24
562.64	2524.37
563.00	2516.12
563.35	2509.63
563.71	2502.90
564.06	2496.76
564.42	2490.16
564.77	2483.04
565.12	2475.75
565.48	2467.77
565.83	2459.67
566.19	2451.75
566.54	2443.64
566.89	2436.16
567.25	2428.38
567.60	2421.36
567.96	2413.69
568.31	2405.72
568.66	2397.43
569.02	2388.34
569.37	2380.19
569.72	2372.59
570.08	2363.32
570.43	2354.09
570.78	2345.15
571.14	2335.51
571.49	2325.28
571.84	2315.80
572.20	2305.29
572.55	2295.34
572.90	2284.43
573.26	2274.35
573.61	2263.53
573.96	2252.84
574.31	2240.69
574.67	2228.84
575.02	2216.11
575.37	2203.50
575.72	2190.47
576.08	2178.28
576.43	2165.79
576.78	2152.84
577.13	2138.98
577.49	2126.11
577.84	2114.28
578.19	2102.06
578.54	2089.70
578.90	2077.72
579.25	2065.55
579.60	2053.23
579.95	2040.21
580.30	2027.37
580.66	2014.25
581.01	2000.69
581.36	1986.54
581.71	1973.76
582.06	1960.94
582.42	1948.27
582.77	1935.63
583.12	1923.81
583.47	1911.78
583.82	1899.81
584.17	1888.01
584.53	1876.59
584.88	1863.75
585.23	1850.59
585.58	1836.78
585.93	1823.73
586.28	1810.65
586.63	1796.73
586.98	1782.47
587.34	1769.54
587.69	1756.48
588.04	1743.84
588.39	1732.13
588.74	1720.37
589.09	1708.42
589.44	1695.90
589.79	1684.00
590.14	1672.46
590.49	1660.21
590.84	1648.12
591.19	1636.10
591.54	1623.75
591.89	1611.60
592.25	1601.39
592.60	1590.20
592.95	1578.70
593.30	1566.78
593.65	1554.71
594.00	1542.69
594.35	1533.05
594.70	1521.31
595.05	1509.72
595.40	1497.75
595.75	1485.84
596.10	1474.47
596.45	1463.12
596.80	1452.26
597.15	1440.97
597.50	1429.05
597.85	1417.90
598.19	1406.07
598.54	1394.52
598.89	1383.54
599.24	1372.75
599.59	1361.32
599.94	1350.26
600.29	1340.02
600.64	1330.00
600.99	1319.44
601.34	1310.07
601.69	1298.92
602.04	1288.97
602.39	1279.45
602.74	1270.36
603.08	1260.81
603.43	1251.64
603.78	1242.08
604.13	1232.65
604.48	1223.05
604.83	1213.39
605.18	1203.62
605.53	1194.35
605.87	1185.38
606.22	1176.88
606.57	1167.70
606.92	1158.48
607.27	1149.68
607.62	1140.80
607.96	1132.06
608.31	1124.30
608.66	1115.79
609.01	1107.37
609.36	1099.04
609.70	1090.61
610.05	1082.01
610.40	1073.68
610.75	1064.92
611.10	1056.68
611.44	1048.09
611.79	1040.09
612.14	1032.46
612.49	1024.63
612.83	1017.12
613.18	1009.31
613.53	1001.45
613.88	993.74
614.22	986.03
614.57	978.10
614.92	970.37
615.27	962.85
615.61	955.16
615.96	947.83
616.31	940.30
616.65	933.21
617.00	925.88
617.35	918.68
617.70	911.74
618.04	904.58
618.39	897.85
618.74	891.57
619.08	884.59
619.43	877.49
619.78	870.68
620.12	863.69
620.47	856.83
620.82	849.64
621.16	842.84
621.51	836.42
621.85	830.28
622.20	823.68
622.55	817.24
622.89	810.95
623.24	804.68
623.59	798.45
623.93	792.10
624.28	786.03
624.62	780.58
624.97	774.80
625.32	769.29
625.66	763.12
626.01	757.04
626.35	751.61
626.70	746.20
627.04	741.05
627.39	735.54
627.73	730.37
628.08	725.30
628.43	719.85
628.77	714.59
629.12	709.30
629.46	704.46
629.81	699.88
630.15	694.93
630.50	690.02
630.84	685.14
631.19	680.55
631.53	676.07
631.88	670.86
632.22	666.02
632.57	661.60
632.91	657.05
633.26	652.68
633.60	648.10
633.95	643.41
634.29	638.49
634.64	634.18
634.98	629.48
635.32	625.08
635.67	621.08
636.01	616.84
636.36	612.52
636.70	608.51
637.05	604.21
637.39	600.30
637.73	596.17
638.08	592.25
638.42	588.03
638.77	583.79
639.11	579.41
639.45	575.12
639.80	570.73
640.14	566.61
640.49	562.61
640.83	558.81
641.17	555.27
641.52	551.63
641.86	547.92
642.20	544.74
642.55	541.29
642.89	537.71
643.23	534.15
643.58	531.20
643.92	527.59
644.26	524.18
644.61	520.83
644.95	517.50
645.29	514.08
645.64	510.79
645.98	507.70
646.32	504.86
646.66	501.83
647.01	498.91
647.35	496.17
647.69	493.22
648.04	490.43
648.38	487.58
648.72	484.78
649.06	481.93
649.41	478.85
649.75	475.74
650.09	473.02
650.43	470.19
650.78	467.10
651.12	464.32
651.46	461.55
651.80	458.85
652.14	456.10
652.49	453.69
652.83	451.22
653.17	448.71
653.51	446.01
653.85	443.63
654.20	441.22
654.54	438.70
654.88	436.28
655.22	433.98
655.56	431.49
655.90	429.12
656.25	426.82
656.59	424.59
656.93	422.46
657.27	420.33
657.61	417.88
657.95	415.65
658.29	413.44
658.64	411.45
658.98	409.05
659.32	406.90
659.66	404.68
660.00	402.60
660.34	400.51
660.68	398.51
661.02	396.50
661.36	394.45
661.70	392.52
662.05	390.52
662.39	388.55
662.73	386.74
663.07	385.10
663.41	383.33
663.75	381.39
664.09	379.60
664.43	377.70
664.77	376.30
665.11	374.68
665.45	373.15
665.79	371.46
666.13	369.90
666.47	368.24
666.81	366.57
667.15	364.77
667.49	363.37
667.83	362.10
668.17	360.62
668.51	359.17
668.85	357.79
669.19	356.68
669.53	355.13
669.87	353.65
670.21	352.14
670.55	350.72
670.89	349.67
671.23	348.37
671.57	347.03
671.91	345.61
672.25	344.30
672.58	343.03
672.92	341.61
673.26	340.49
673.60	339.33
673.94	338.16
674.28	337.16
674.62	335.90
674.96	334.57
675.30	333.41
675.64	332.20
675.97	330.90
676.31	329.51
676.65	328.38
676.99	327.46
677.33	326.34
677.67	325.32
678.01	324.08
678.34	323.03
678.68	322.10
679.02	321.08
679.36	320.04
679.70	319.00
680.04	318.11
680.37	317.08
680.71	316.11
681.05	315.29
681.39	314.37
681.73	313.50
682.06	312.58
682.40	311.66
682.74	310.91
683.08	310.27
683.42	309.40
683.75	308.68
684.09	307.78
684.43	306.98
684.77	306.17
685.10	305.37
685.44	304.61
685.78	303.72
686.12	302.90
686.45	302.12
686.79	301.41
687.13	300.76
687.46	300.02
687.80	299.44
688.14	298.51
688.48	297.80
688.81	296.94
689.15	296.33
689.49	295.61
689.82	294.92
690.16	294.07
690.50	293.45
690.83	292.64
691.17	291.87
691.51	291.10
691.84	290.43
692.18	289.77
692.52	289.00
692.85	288.45
693.19	288.10
693.52	287.44
693.86	286.75
694.20	286.07
694.53	285.54
694.87	284.80
695.21	284.22
695.54	283.56
695.88	282.97
696.21	282.20
696.55	281.64
696.88	280.94
697.22	280.23
697.56	279.66
697.89	279.06
698.23	278.60
698.56	278.09
698.90	277.51
699.23	276.86
699.57	276.41
699.90	275.75
700.24	275.01
700.58	274.50
700.91	274.01
701.25	273.88
701.58	273.66
701.92	273.37
702.25	272.93
702.59	272.46
702.92	271.97
703.26	271.57
703.59	271.08
703.93	271.15
704.26	270.90
704.60	270.48
704.93	270.05
705.26	269.47
705.60	269.04
705.93	268.60
706.27	268.34
706.60	268.10
706.94	267.90
707.27	267.50
707.61	267.15
707.94	266.74
708.27	265.92
708.61	265.12
708.94	264.60
709.28	264.26
709.61	263.83
709.94	263.54
710.28	263.15
710.61	262.79
710.95	261.95
711.28	261.89
711.61	261.45
711.95	261.26
712.28	260.95
712.61	260.71
712.95	260.65
713.28	260.55
713.61	259.99
713.95	259.57
714.28	259.33
714.61	258.98
714.95	258.67
715.28	258.32
715.61	258.03
715.95	257.76
716.28	257.39
716.61	257.20
716.95	256.81
717.28	256.55
717.61	256.25
717.94	255.93
718.28	255.27
718.61	255.05
718.94	254.65
719.27	254.42
719.61	254.19
719.94	253.75
720.27	253.18
720.60	252.98
720.94	252.70
721.27	252.49
721.60	252.35
721.93	252.12
722.27	252.10
722.60	251.98
722.93	251.66
723.26	251.56
723.59	251.32
723.93	251.23
724.26	251.04
724.59	250.89
724.92	250.78
725.25	250.66
725.59	250.47
725.92	250.32
726.25	250.13
726.58	249.89
726.91	249.70
727.24	249.66
727.57	249.50
727.91	249.24
728.24	249.10
728.57	248.88
728.90	248.76
729.23	248.41
729.56	248.44
729.89	248.29
730.22	248.08
730.55	247.86
730.89	247.64
731.22	247.47
731.55	247.31
731.88	247.08
732.21	246.84
732.54	246.61
732.87	246.48
733.20	246.34
733.53	246.15
733.86	245.99
734.19	245.75
734.52	245.61
734.85	245.88
735.18	245.61
735.51	245.56
735.84	245.43
736.17	245.44
736.50	244.98
736.83	245.41
737.16	245.23
737.49	245.08
737.82	244.95
738.15	244.85
738.48	244.61
738.81	244.48
739.14	244.35
739.47	244.13
739.80	244.00
740.13	243.86
740.46	243.62
740.79	243.47
741.12	243.26
741.45	243.08
741.78	242.64
742.11	242.63
742.44	242.30
742.77	242.20
743.10	241.96
743.43	241.84
743.75	241.23
744.08	241.69
744.41	241.51
744.74	241.26
745.07	241.02
745.40	241.04
745.73	241.08
746.06	240.93
746.39	240.93
746.71	240.66
747.04	240.51
747.37	240.43
747.70	240.36
748.03	240.34
748.36	240.29
748.68	240.16
749.01	239.91
749.34	239.83
749.67	239.71
750.00	239.74
750.33	240.02
750.65	239.90
750.98	239.14
751.31	239.05
751.64	239.06
751.97	239.20
752.29	239.03
752.62	238.78
752.95	238.62
753.28	238.38
753.60	238.28
753.93	238.25
754.26	238.18
754.59	237.90
754.91	237.69
755.24	237.55
755.57	237.49
755.90	237.34
756.22	237.16
756.55	236.98
756.88	236.71
757.20	236.20
757.53	235.97
757.86	235.98
758.19	235.93
758.51	235.83
758.84	235.50
759.17	235.35
759.49	235.25
759.82	235.43
760.15	235.36
760.47	235.28
760.80	234.99
761.13	234.98
761.45	234.91
761.78	234.88
762.11	234.80
762.43	234.57
762.76	234.46
763.08	234.53
763.41	234.46
763.74	234.38
764.06	234.34
764.39	234.25
764.71	234.14
765.04	233.95
765.37	233.75
765.69	233.74
766.02	233.66
766.34	233.53
766.67	233.20
767.00	233.24
767.32	233.48
767.65	233.79
767.97	233.65
768.30	233.63
768.62	233.50
768.95	233.33
769.27	233.30
769.60	233.40
769.92	233.28
770.25	233.20
770.57	233.05
770.90	232.96
771.22	232.89
771.55	232.80
771.87	232.79
772.20	232.78
772.52	233.13
772.85	233.67
773.17	233.61
773.50	233.56
773.82	233.46
774.15	233.11
774.47	232.70
774.80	232.60
775.12	232.49
775.45	232.39
775.77	232.48
776.09	232.51
776.42	232.41
776.74	232.49
777.07	232.38
777.39	232.36
777.72	232.26
778.04	232.27
778.36	232.22
778.69	232.20
779.01	232.16
779.33	231.66
779.66	231.07
779.98	231.02
780.31	231.06
780.63	231.27
780.95	231.30
781.28	231.30
781.60	231.27
781.92	231.28
782.25	231.27
782.57	231.18
782.89	230.94
783.22	230.83
783.54	230.60
783.86	230.62
784.19	230.58
784.51	230.76
784.83	230.61
785.16	230.54
785.48	230.52
785.80	230.50
786.12	230.50
786.45	230.48
786.77	230.51
787.09	230.41
787.42	230.16
787.74	230.17
788.06	230.13
788.38	230.01
788.71	229.87
789.03	229.86
789.35	229.84
789.67	229.87
789.99	229.88
790.32	229.81
790.64	229.82
790.96	230.20
791.28	229.96
791.61	229.95
791.93	229.98
792.25	229.90
792.57	230.26
792.89	230.11
793.21	230.05
793.54	229.92
793.86	229.84
794.18	229.75
794.50	229.65
794.82	229.64
795.14	229.72
795.47	229.78
795.79	229.79
796.11	229.71
796.43	229.68
796.75	229.69
797.07	229.68
797.39	229.64
797.71	229.26
798.04	229.27
798.36	229.31
798.68	229.25
799.00	229.25
799.32	228.92
799.64	229.01
799.96	229.03
800.28	229.14
800.60	229.06
800.92	229.16
801.24	229.08
801.56	229.18
801.89	229.14
802.21	229.14
802.53	229.02
802.85	229.14
803.17	229.36
803.49	229.21
803.81	229.18
804.13	229.17
804.45	229.11
804.77	229.14
805.09	229.05
805.41	229.09
805.73	229.04
806.05	228.92
806.37	228.95
806.69	228.80
807.01	228.71
807.33	228.72
807.65	228.45
807.97	228.70
808.28	228.60
808.60	228.56
808.92	228.48
809.24	228.74
809.56	228.61
809.88	228.46
810.20	228.51
810.52	228.65
810.84	228.58
811.16	228.53
811.48	228.45
811.80	228.68
812.12	228.65
812.43	228.76
812.75	228.77
813.07	228.63
813.39	228.72
813.71	228.60
814.03	228.62
814.35	228.73
814.67	228.44
814.98	228.40
815.30	228.30
815.62	228.24
815.94	227.95
816.26	228.19
816.58	228.04
816.89	228.04
817.21	227.87
817.53	227.79
817.85	227.81
818.17	227.75
818.48	227.50
818.80	227.53
819.12	227.30
819.44	227.25
819.76	227.21
820.07	227.20
820.39	227.31
820.71	227.39
821.03	227.41
821.34	227.43
821.66	227.44
821.98	227.53
822.30	227.56
822.61	227.88
822.93	227.59
823.25	227.56
823.57	227.55
823.88	227.66
824.20	227.77
824.52	227.84
824.83	227.88
825.15	227.85
825.47	227.81
825.79	227.96
826.10	227.92
826.42	227.92
826.74	227.94
827.05	227.93
827.37	227.93
827.69	227.88
828.00	227.92
828.32	227.89
828.64	227.83
828.95	228.10
829.27	227.91
829.58	227.88
829.90	228.03
830.22	228.06
830.53	228.00
830.85	227.91
831.17	227.75
831.48	227.84
831.80	227.87
832.11	227.88
832.43	227.74
832.75	227.72
833.06	228.07
833.38	227.95
833.69	227.86
834.01	227.83
834.32	227.81
834.64	227.75
834.96	227.80
835.27	227.80
835.59	227.55
835.90	227.40
836.22	227.38
836.53	227.27
836.85	227.19
837.16	227.61
837.48	227.65
837.79	227.79
838.11	227.71
838.42	227.65
838.74	227.69
839.05	227.71
839.37	227.68
839.68	227.34
840.00	227.25
840.31	227.32
840.63	227.20
840.94	227.18
841.26	227.14
841.57	227.09
841.88	227.14
842.20	227.15
842.51	227.16
842.83	227.24
843.14	227.66
843.46	227.67
843.77	227.39
844.08	227.37
844.40	227.25
844.71	227.20
845.03	227.19
845.34	227.09
845.65	227.10
845.97	227.06
846.28	227.08
846.60	227.13
846.91	227.06
847.22	227.12
847.54	227.19
847.85	227.21
848.16	227.17
848.48	227.00
848.79	227.17
849.10	227.26
849.42	227.24
849.73	226.74
850.04	226.68
850.36	226.52
850.67	226.62
850.98	226.69
851.30	226.70
851.61	226.67
851.92	226.71
852.23	226.81
852.55	226.94
852.86	226.89
853.17	226.95
853.49	227.03
853.80	227.05
854.11	226.98
854.42	227.11
854.74	227.05
855.05	227.19
855.36	226.93
855.67	226.91
855.99	226.99
856.30	227.58
856.61	227.62
856.92	227.64
857.23	227.57
857.55	227.47
857.86	227.45
858.17	227.58
858.48	227.48
858.79	227.41
859.11	227.38
859.42	227.36
859.73	227.27
860.04	227.24
860.35	227.11
860.66	227.03
860.98	226.90
861.29	226.92
861.60	226.81
861.91	226.86
862.22	226.79
862.53	226.63
862.84	226.06
863.16	226.16
863.47	226.01
863.78	225.95
864.09	225.98
864.40	226.02
864.71	225.89
865.02	225.96
865.33	225.84
865.64	225.80
865.95	225.78
866.27	226.09
866.58	226.05
866.89	226.17
867.20	226.17
867.51	226.14
867.82	226.15
868.13	226.33
868.44	226.26
868.75	226.38
869.06	226.40
869.37	226.36
869.68	226.19
869.99	226.29
870.30	226.33
870.61	226.37
870.92	226.30
871.23	226.32
871.54	226.37
871.85	226.54
872.16	226.55
872.47	226.50
872.78	226.26
873.09	226.32
873.40	226.24
873.71	226.33
874.02	226.38
874.33	226.41
874.64	226.31
874.95	226.46
875.26	226.31
875.56	226.34
875.87	226.37
876.18	226.44
876.49	226.97
876.80	226.91
877.11	226.81
877.42	226.89
877.73	226.96
878.04	226.93
878.35	226.88
878.66	226.96
878.96	227.05
879.27	227.03
879.58	227.01
879.89	226.99
880.20	227.12
880.51	227.11
880.82	227.04
881.12	227.05
881.43	226.89
881.74	226.87
882.05	226.80
882.36	226.90
882.67	226.84
882.97	226.32
883.28	226.32
883.59	226.37
883.90	226.41
884.21	226.47
884.51	226.40
884.82	226.38
885.13	226.32
885.44	226.25
885.74	226.29
886.05	226.21
886.36	226.20
886.67	225.99
886.98	226.20
887.28	226.27
887.59	226.31
887.90	226.32
888.20	226.28
888.51	226.39
888.82	226.36
889.13	226.40
889.43	226.78
889.74	226.80
890.05	226.75
890.35	226.62
890.66	226.48
890.97	226.44
891.28	226.40
891.58	226.40
891.89	226.39
892.20	226.34
892.50	226.37
892.81	226.36
893.12	226.33
893.42	226.05
893.73	226.07
894.04	225.98
894.34	226.03
894.65	226.03
894.95	225.95
895.26	225.84
895.57	226.07
895.87	225.58
896.18	225.61
896.48	225.62
896.79	225.67
897.10	225.77
897.40	225.80
897.71	225.87
898.01	225.84
898.32	225.92
898.63	225.92
898.93	225.87
899.24	225.89
899.54	225.91
899.85	225.92
900.15	225.89
900.46	225.84
900.76	225.87
901.07	225.92
901.38	225.90
901.68	226.03
901.99	225.83
902.29	225.92
902.60	225.87
902.90	225.87
903.21	225.85
903.51	225.81
903.82	225.93
904.12	225.94
904.43	225.95
904.73	225.92
905.03	225.92
905.34	226.41
905.64	226.37
905.95	226.39
906.25	226.39
906.56	226.35
906.86	226.42
907.17	226.37
907.47	226.39
907.77	226.42
908.08	226.36
908.38	226.40
908.69	226.41
908.99	226.54
909.30	226.64
909.60	226.64
909.90	226.64
910.21	226.49
910.51	226.40
910.81	226.44
911.12	226.48
911.42	226.50
911.73	226.03
912.03	226.13
912.33	226.27
912.64	226.30
912.94	226.30
913.24	226.21
913.55	226.15
913.85	226.07
914.15	226.12
914.46	226.09
914.76	226.04
915.06	226.09
915.37	225.99
915.67	225.91
915.97	225.93
916.27	225.91
916.58	225.93
916.88	225.96
917.18	225.90
917.49	226.25
917.79	226.25
918.09	226.27
918.39	226.33
918.70	226.21
919.00	226.30
919.30	226.51
919.60	226.55
919.91	226.57
920.21	226.64
920.51	226.58
920.81	226.64
921.12	226.66
921.42	226.53
921.72	226.51
922.02	226.50
922.32	226.56
922.63	226.52
922.93	226.75
923.23	226.77
923.53	226.83
923.83	226.51
924.13	226.51
924.44	226.58
924.74	226.67
925.04	226.82
925.34	226.65
925.64	226.40
925.94	226.37
926.24	226.62
926.55	226.59
926.85	226.63
927.15	226.60
927.45	226.57
927.75	226.53
928.05	226.55
928.35	226.56
928.65	226.64
928.95	226.71
929.26	226.53
929.56	226.55
929.86	226.54
930.16	226.50
930.46	226.50
930.76	226.47
931.06	226.25
931.36	226.10
931.66	226.23
931.96	226.29
932.26	226.35
932.56	226.16
932.86	226.19
933.16	226.16
933.46	226.11
933.76	225.98
934.06	226.19
934.36	226.33
934.66	226.29
934.96	226.14
935.26	226.18
935.56	226.26
935.86	226.11
936.16	226.08
936.46	226.01
936.76	225.98
937.06	225.90
937.36	226.00
937.66	226.02
937.96	226.02
938.26	225.99
938.56	225.92
938.86	225.96
939.16	226.01
939.46	226.12
939.76	226.18
940.06	226.27
940.35	226.10
940.65	225.87
940.95	225.92
941.25	225.83
941.55	225.72
941.85	225.63
942.15	225.75
942.45	225.75
942.75	225.81
943.04	225.76
943.34	225.83
943.64	225.72
943.94	225.70
944.24	225.69
944.54	225.72
944.84	225.79
945.13	225.63
945.43	225.57
945.73	225.48
946.03	225.47
946.33	225.44
946.62	225.50
946.92	225.53
947.22	225.58
947.52	225.69
947.82	225.78
948.11	225.68
948.41	225.62
948.71	225.56
949.01	225.57
949.31	225.53
949.60	225.56
949.90	225.54
950.20	225.47
950.50	225.51
950.79	225.45
951.09	225.43
951.39	225.45
951.69	225.44
951.98	225.54
952.28	225.47
952.58	225.48
952.87	225.45
953.17	225.46
953.47	225.38
953.76	225.36
954.06	225.23
954.36	225.27
954.66	225.23
954.95	225.40
955.25	225.41
955.55	225.46
955.84	225.38
956.14	225.50
956.44	225.61
956.73	225.48
957.03	225.52
957.32	225.53
957.62	225.51
957.92	225.59
958.21	225.53
958.51	226.05
958.81	226.09
959.10	226.19
959.40	226.32
959.69	226.39
959.99	226.46
960.29	226.53
960.58	226.57
960.88	226.81
961.17	226.76
961.47	226.84
961.76	226.84
962.06	226.88
962.36	226.90
962.65	226.97
962.95	227.03
963.24	227.02
963.54	227.06
963.83	227.16
964.13	227.12
964.42	227.01
964.72	226.72
965.01	226.74
965.31	226.67
965.60	226.60
965.90	226.90
966.19	226.80
966.49	226.84
966.78	226.76
967.08	226.78
967.37	226.71
967.67	226.51
967.96	226.58
968.26	226.59
968.55	226.59
968.85	226.48
969.14	226.41
969.43	226.37
969.73	226.37
970.02	226.29
970.32	226.31
970.61	226.29
970.91	226.13
971.20	226.02
971.49	225.99
971.79	226.05
972.08	225.66
972.38	225.69
972.67	225.62
972.96	225.64
973.26	225.46
973.55	225.64
973.85	225.65
974.14	225.62
974.43	225.65
974.73	225.55
975.02	225.52
975.31	225.58
975.61	225.65
975.90	225.61
976.19	225.63
976.49	225.66
976.78	225.69
977.07	225.66
977.37	225.72
977.66	225.72
977.95	225.57
978.24	225.60
978.54	225.65
978.83	225.69
979.12	225.62
979.42	225.61
979.71	225.49
980.00	225.51
980.29	225.58
980.59	225.45
980.88	225.60
981.17	225.61
981.46	225.52
981.76	225.43
982.05	225.53
982.34	225.50
982.63	225.44
982.93	225.39
983.22	225.61
983.51	225.59
983.80	225.71
984.09	225.80
984.39	225.77
984.68	225.79
984.97	225.75
985.26	225.77
985.55	225.80
985.85	225.70
986.14	225.70
986.43	225.73
986.72	225.70
987.01	225.52
987.30	225.51
987.59	225.52
987.89	225.53
988.18	225.39
988.47	225.40
988.76	225.36
989.05	225.39
989.34	225.20
989.63	225.36
989.92	225.26
990.22	225.21
990.51	225.18
990.80	225.02
991.09	225.07
991.38	225.16
991.67	225.12
991.96	225.13
992.25	225.19
992.54	225.11
992.83	225.15
993.12	225.21
993.41	225.31
993.70	225.61
993.99	225.73
994.28	225.83
994.58	225.86
994.87	225.86
995.16	225.85
995.45	225.84
995.74	225.71
996.03	225.82
996.32	225.93
996.61	226.06
996.90	226.14
997.19	226.11
997.48	226.16
997.77	226.11
998.06	226.07
998.34	226.03
998.63	226.00
998.92	226.03
999.21	226.08
999.50	226.06
999.79	225.88
1000.08	225.83
1000.37	225.81
1000.66	225.79
1000.95	225.86
1001.24	225.93
1001.53	226.00
1001.82	225.96
1002.11	225.80
1002.40	225.82
1002.68	225.95
1002.97	226.23
1003.26	226.14
1003.55	226.03
1003.84	226.13
1004.13	226.40
1004.42	226.40
1004.71	226.43
1004.99	226.38
1005.28	226.44
1005.57	226.40
1005.86	226.37
1006.15	226.35
1006.44	226.23
1006.72	226.35
1007.01	226.23
1007.30	226.16
1007.59	226.03
1007.88	226.05
1008.17	226.07
1008.45	225.99
1008.74	225.80
1009.03	225.58
1009.32	225.63
1009.60	225.58
1009.89	225.51
1010.18	225.27
1010.47	225.24
1010.76	225.21
1011.04	225.25
1011.33	225.24
1011.62	225.24
1011.91	225.29
1012.19	225.26
1012.48	225.31
1012.77	225.28
1013.05	225.53
1013.34	225.55
1013.63	225.58
1013.92	225.52
1014.20	225.50
1014.49	225.48
1014.78	225.50
1015.06	225.38
1015.35	225.37
1015.64	225.50
1015.92	225.54
1016.21	225.55
1016.50	225.57
1016.78	225.67
1017.07	225.66
1017.36	225.55
1017.64	225.49
1017.93	225.46
1018.22	225.53
1018.50	225.50
1018.79	225.43
1019.08	225.21
1019.36	225.25
1019.65	225.19
1019.93	225.36
1020.22	225.39
1020.51	225.62
1020.79	225.51
1021.08	226.15
1021.36	224.05
1021.65	225.15
1021.94	224.85
1022.22	225.60
1022.51	223.90
1022.79	227.80
1023.08	224.95
1023.36	230.70
1023.65	223.45
>>>>>End Processed Spectral Data<<<<<
