SpectraSuite Data File
++++++++++++++++++++++++++++++++++++
Date: Wed Sep 04 17:51:42 EDT 2013
User: lab3
Dark Spectrum Present: Yes
Reference Spectrum Present: No
Number of Sampled Component Spectra: 1
Spectrometers: USB2E7196
Integration Time (usec): 170000 (USB2E7196)
Spectra Averaged: 20 (USB2E7196)
Boxcar Smoothing: 10 (USB2E7196)
Correct for Electrical Dark: No (USB2E7196)
Strobe/Lamp Enabled: No (USB2E7196)
Correct for Detector Non-linearity: No (USB2E7196)
Correct for Stray Light: No (USB2E7196)
Number of Pixels in Processed Spectrum: 2048
>>>>>Begin Processed Spectral Data<<<<<
339.09	0.00
339.48	212.10
339.86	214.95
340.24	216.55
340.63	217.50
341.01	226.35
341.39	220.10
341.78	222.75
342.16	223.40
342.54	223.25
342.93	212.35
343.31	223.06
343.69	223.71
344.07	224.18
344.46	224.57
344.84	225.02
345.22	224.89
345.60	225.21
345.99	225.41
346.37	225.50
346.75	225.58
347.13	225.65
347.52	225.64
347.90	225.93
348.28	225.96
348.66	226.11
349.05	225.92
349.43	226.00
349.81	226.11
350.19	226.19
350.57	226.25
350.96	226.38
351.34	226.50
351.72	226.50
352.10	226.58
352.48	226.70
352.87	226.69
353.25	226.91
353.63	226.90
354.01	226.83
354.39	226.93
354.77	227.05
355.15	227.22
355.54	227.29
355.92	227.12
356.30	227.20
356.68	227.55
357.06	227.62
357.44	227.59
357.82	227.56
358.20	228.00
358.58	228.10
358.97	228.17
359.35	228.27
359.73	228.45
360.11	228.45
360.49	228.51
360.87	228.58
361.25	228.59
361.63	228.81
362.01	228.99
362.39	229.00
362.77	229.07
363.15	229.09
363.53	229.17
363.91	229.30
364.29	229.33
364.67	228.86
365.05	228.90
365.43	228.99
365.81	229.07
366.19	228.92
366.57	229.10
366.95	229.09
367.33	228.98
367.71	228.99
368.09	229.11
368.47	229.07
368.85	229.04
369.23	229.15
369.61	228.97
369.99	229.10
370.37	229.22
370.75	229.42
371.13	229.29
371.51	229.14
371.89	229.18
372.27	229.21
372.65	229.27
373.03	229.30
373.41	229.25
373.78	229.19
374.16	228.88
374.54	228.71
374.92	228.59
375.30	228.54
375.68	228.40
376.06	228.46
376.44	228.40
376.82	228.36
377.19	228.26
377.57	228.25
377.95	228.00
378.33	227.79
378.71	227.47
379.09	227.52
379.47	227.51
379.84	227.35
380.22	227.20
380.60	227.10
380.98	227.04
381.36	226.95
381.73	226.86
382.11	227.00
382.49	226.90
382.87	226.87
383.25	226.81
383.62	227.30
384.00	227.13
384.38	227.05
384.76	227.13
385.13	227.24
385.51	227.17
385.89	227.02
386.27	227.04
386.64	227.05
387.02	226.95
387.40	226.90
387.78	226.85
388.15	226.89
388.53	226.85
388.91	226.75
389.29	226.66
389.66	226.71
390.04	226.55
390.42	226.61
390.79	226.56
391.17	226.61
391.55	226.06
391.92	226.00
392.30	226.03
392.68	225.93
393.05	225.93
393.43	225.89
393.81	225.99
394.18	225.99
394.56	226.04
394.94	226.14
395.31	226.19
395.69	226.39
396.06	226.43
396.44	226.40
396.82	226.47
397.19	226.75
397.57	226.71
397.95	226.86
398.32	226.78
398.70	226.86
399.07	226.98
399.45	227.05
399.82	227.14
400.20	227.23
400.58	227.31
400.95	227.16
401.33	227.38
401.70	227.86
402.08	227.94
402.45	228.06
402.83	228.31
403.20	228.46
403.58	228.52
403.95	228.80
404.33	229.10
404.71	229.27
405.08	229.71
405.46	229.89
405.83	230.08
406.21	230.40
406.58	230.72
406.96	230.96
407.33	231.28
407.70	231.67
408.08	232.40
408.45	232.80
408.83	233.35
409.20	233.62
409.58	233.72
409.95	234.27
410.33	234.77
410.70	235.11
411.08	235.71
411.45	236.36
411.82	236.86
412.20	237.54
412.57	238.50
412.95	238.86
413.32	239.81
413.69	240.61
414.07	241.53
414.44	242.47
414.82	243.53
415.19	244.73
415.56	245.94
415.94	246.93
416.31	248.33
416.68	249.70
417.06	251.33
417.43	253.00
417.81	254.69
418.18	256.48
418.55	258.39
418.93	260.43
419.30	262.48
419.67	264.78
420.04	267.18
420.42	269.46
420.79	272.54
421.16	275.35
421.54	278.43
421.91	281.45
422.28	284.53
422.66	287.90
423.03	291.32
423.40	294.56
423.77	298.04
424.15	301.69
424.52	305.43
424.89	309.61
425.26	313.40
425.64	317.25
426.01	321.27
426.38	325.66
426.75	330.20
427.13	334.81
427.50	339.43
427.87	344.25
428.24	349.09
428.61	353.64
428.99	358.92
429.36	364.35
429.73	369.80
430.10	375.40
430.47	380.91
430.85	386.44
431.22	392.64
431.59	399.42
431.96	405.61
432.33	412.49
432.70	419.17
433.08	427.11
433.45	434.43
433.82	441.98
434.19	450.20
434.56	458.13
434.93	465.78
435.30	473.53
435.68	482.08
436.05	490.63
436.42	498.82
436.79	506.47
437.16	514.87
437.53	523.68
437.90	532.35
438.27	540.95
438.64	549.96
439.01	558.15
439.38	565.37
439.75	572.39
440.13	580.48
440.50	587.91
440.87	594.00
441.24	600.35
441.61	607.29
441.98	612.28
442.35	618.04
442.72	624.05
443.09	629.82
443.46	633.17
443.83	635.37
444.20	637.30
444.57	639.91
444.94	641.01
445.31	642.03
445.68	643.36
446.05	643.40
446.42	642.06
446.79	640.60
447.16	638.84
447.53	637.50
447.90	633.76
448.27	630.05
448.64	625.13
449.01	621.50
449.37	615.32
449.74	609.27
450.11	602.53
450.48	594.70
450.85	586.74
451.22	580.03
451.59	573.55
451.96	567.27
452.33	559.24
452.70	551.84
453.07	543.23
453.43	534.15
453.80	525.98
454.17	518.03
454.54	510.54
454.91	502.51
455.28	494.69
455.65	487.27
456.02	480.56
456.38	474.30
456.75	466.45
457.12	460.00
457.49	453.71
457.86	447.35
458.23	442.31
458.59	436.68
458.96	430.91
459.33	425.76
459.70	420.64
460.07	416.58
460.43	411.87
460.80	407.54
461.17	403.71
461.54	399.69
461.91	395.79
462.27	391.76
462.64	388.55
463.01	385.10
463.38	381.78
463.74	377.78
464.11	374.73
464.48	372.26
464.85	369.41
465.21	367.43
465.58	365.15
465.95	362.25
466.32	359.96
466.68	357.67
467.05	355.55
467.42	353.36
467.78	351.02
468.15	348.93
468.52	347.46
468.88	345.30
469.25	343.33
469.62	341.95
469.98	340.55
470.35	339.07
470.72	337.60
471.08	336.04
471.45	334.84
471.82	333.61
472.18	332.13
472.55	331.17
472.92	329.74
473.28	328.67
473.65	327.56
474.02	326.58
474.38	325.76
474.75	325.00
475.11	324.18
475.48	323.60
475.85	322.97
476.21	322.31
476.58	321.94
476.94	321.56
477.31	321.01
477.67	320.46
478.04	320.03
478.41	319.78
478.77	320.01
479.14	319.68
479.50	319.58
479.87	319.64
480.23	319.61
480.60	319.55
480.96	319.56
481.33	319.94
481.69	320.11
482.06	320.29
482.42	320.56
482.79	320.91
483.15	321.24
483.52	321.78
483.88	322.04
484.25	322.58
484.61	323.18
484.98	323.90
485.34	325.00
485.71	326.00
486.07	326.96
486.44	327.55
486.80	328.66
487.17	329.77
487.53	331.10
487.90	332.43
488.26	334.20
488.62	335.88
488.99	337.41
489.35	339.16
489.72	341.09
490.08	342.94
490.44	344.97
490.81	347.29
491.17	349.59
491.54	352.17
491.90	354.60
492.26	357.33
492.63	360.12
492.99	362.93
493.36	366.00
493.72	369.36
494.08	372.75
494.45	376.36
494.81	380.16
495.17	384.03
495.54	388.29
495.90	392.44
496.26	396.73
496.63	401.40
496.99	406.12
497.35	411.09
497.72	416.36
498.08	421.83
498.44	427.45
498.80	433.38
499.17	439.44
499.53	445.77
499.89	452.36
500.26	459.25
500.62	466.15
500.98	473.55
501.34	480.94
501.71	488.77
502.07	496.58
502.43	504.71
502.79	513.14
503.16	521.80
503.52	530.88
503.88	540.30
504.24	549.89
504.60	560.05
504.97	570.34
505.33	580.82
505.69	591.98
506.05	602.91
506.41	614.05
506.78	625.80
507.14	637.76
507.50	650.11
507.86	662.71
508.22	675.71
508.59	688.60
508.95	702.28
509.31	716.32
509.67	730.76
510.03	745.03
510.39	759.75
510.75	774.69
511.12	789.75
511.48	805.13
511.84	820.83
512.20	836.65
512.56	852.87
512.92	869.48
513.28	885.94
513.64	903.24
514.00	920.67
514.37	938.13
514.73	956.17
515.09	974.31
515.45	992.52
515.81	1010.73
516.17	1029.63
516.53	1048.11
516.89	1066.51
517.25	1085.73
517.61	1105.90
517.97	1126.12
518.33	1145.95
518.69	1166.30
519.05	1186.77
519.41	1207.33
519.77	1228.41
520.13	1249.00
520.49	1269.62
520.85	1291.82
521.21	1313.10
521.57	1334.46
521.93	1355.25
522.29	1376.47
522.65	1397.03
523.01	1417.55
523.37	1438.36
523.73	1459.06
524.09	1479.60
524.45	1500.39
524.81	1521.00
525.17	1541.51
525.53	1561.72
525.89	1582.57
526.25	1602.94
526.61	1622.99
526.97	1643.77
527.33	1664.40
527.68	1685.93
528.04	1707.12
528.40	1726.89
528.76	1747.56
529.12	1767.84
529.48	1788.53
529.84	1808.29
530.20	1829.20
530.56	1850.14
530.91	1870.69
531.27	1890.98
531.63	1911.52
531.99	1931.94
532.35	1951.82
532.71	1971.95
533.07	1992.50
533.42	2012.28
533.78	2032.04
534.14	2052.34
534.50	2071.36
534.86	2090.68
535.21	2108.30
535.57	2126.73
535.93	2144.37
536.29	2161.80
536.65	2180.06
537.00	2197.57
537.36	2214.89
537.72	2231.33
538.08	2248.46
538.44	2265.01
538.79	2281.33
539.15	2297.61
539.51	2313.35
539.87	2328.27
540.22	2342.14
540.58	2356.60
540.94	2369.75
541.29	2382.63
541.65	2394.86
542.01	2407.38
542.37	2417.53
542.72	2428.32
543.08	2438.52
543.44	2449.86
543.79	2459.71
544.15	2469.27
544.51	2479.35
544.87	2489.20
545.22	2497.85
545.58	2505.11
545.94	2512.10
546.29	2518.38
546.65	2524.63
547.01	2530.38
547.36	2536.26
547.72	2541.39
548.07	2545.04
548.43	2550.14
548.79	2554.34
549.14	2558.26
549.50	2561.88
549.86	2566.26
550.21	2569.78
550.57	2573.43
550.92	2574.71
551.28	2576.25
551.64	2578.35
551.99	2579.98
552.35	2581.18
552.70	2583.06
553.06	2585.00
553.41	2586.00
553.77	2587.73
554.13	2588.93
554.48	2590.25
554.84	2591.34
555.19	2592.81
555.55	2594.23
555.90	2593.35
556.26	2592.63
556.61	2590.83
556.97	2588.77
557.32	2587.65
557.68	2586.83
558.03	2585.32
558.39	2584.02
558.74	2583.04
559.10	2579.64
559.45	2575.81
559.81	2571.22
560.16	2565.90
560.52	2561.02
560.87	2556.82
561.23	2551.28
561.58	2545.47
561.94	2538.55
562.29	2531.24
562.64	2523.95
563.00	2515.88
563.35	2509.40
563.71	2502.70
564.06	2496.75
564.42	2490.28
564.77	2483.54
565.12	2475.77
565.48	2467.57
565.83	2459.55
566.19	2451.43
566.54	2443.61
566.89	2435.65
567.25	2428.12
567.60	2421.02
567.96	2412.93
568.31	2404.97
568.66	2396.46
569.02	2387.35
569.37	2379.37
569.72	2371.78
570.08	2362.61
570.43	2352.93
570.78	2343.90
571.14	2334.65
571.49	2324.35
571.84	2314.81
572.20	2303.83
572.55	2293.77
572.90	2282.99
573.26	2272.91
573.61	2261.90
573.96	2250.70
574.31	2238.78
574.67	2226.78
575.02	2214.09
575.37	2201.75
575.72	2188.76
576.08	2176.71
576.43	2164.50
576.78	2151.39
577.13	2137.54
577.49	2125.00
577.84	2113.25
578.19	2101.23
578.54	2088.73
578.90	2076.92
579.25	2064.35
579.60	2051.93
579.95	2038.81
580.30	2026.00
580.66	2012.27
581.01	1998.61
581.36	1985.02
581.71	1972.65
582.06	1959.95
582.42	1947.74
582.77	1935.43
583.12	1923.40
583.47	1911.03
583.82	1898.88
584.17	1886.94
584.53	1875.24
584.88	1862.24
585.23	1849.38
585.58	1835.09
585.93	1821.65
586.28	1808.36
586.63	1794.51
586.98	1780.59
587.34	1767.64
587.69	1754.40
588.04	1742.00
588.39	1730.36
588.74	1718.30
589.09	1706.03
589.44	1693.56
589.79	1681.45
590.14	1669.38
590.49	1657.15
590.84	1645.41
591.19	1633.61
591.54	1621.53
591.89	1609.46
592.25	1599.40
592.60	1588.00
592.95	1577.01
593.30	1565.47
593.65	1553.57
594.00	1541.67
594.35	1531.90
594.70	1520.09
595.05	1509.00
595.40	1496.86
595.75	1484.79
596.10	1473.39
596.45	1462.19
596.80	1451.26
597.15	1439.81
597.50	1428.10
597.85	1417.26
598.19	1405.56
598.54	1394.02
598.89	1382.69
599.24	1372.17
599.59	1360.58
599.94	1349.62
600.29	1339.26
600.64	1329.11
600.99	1318.42
601.34	1309.17
601.69	1298.06
602.04	1288.52
602.39	1278.72
602.74	1269.77
603.08	1260.58
603.43	1251.58
603.78	1241.90
604.13	1232.68
604.48	1223.37
604.83	1213.79
605.18	1203.95
605.53	1194.61
605.87	1185.63
606.22	1177.00
606.57	1167.79
606.92	1158.48
607.27	1149.73
607.62	1141.00
607.96	1132.52
608.31	1124.67
608.66	1116.25
609.01	1107.75
609.36	1099.21
609.70	1090.82
610.05	1082.43
610.40	1074.10
610.75	1065.45
611.10	1057.07
611.44	1048.30
611.79	1040.00
612.14	1032.15
612.49	1024.36
612.83	1016.95
613.18	1009.00
613.53	1001.59
613.88	993.85
614.22	986.50
614.57	978.53
614.92	970.77
615.27	963.21
615.61	955.60
615.96	947.91
616.31	940.57
616.65	933.56
617.00	926.21
617.35	919.10
617.70	911.90
618.04	904.72
618.39	897.70
618.74	891.62
619.08	884.75
619.43	877.93
619.78	870.94
620.12	863.92
620.47	857.21
620.82	849.92
621.16	843.17
621.51	836.55
621.85	830.55
622.20	823.98
622.55	817.32
622.89	810.92
623.24	804.59
623.59	798.19
623.93	791.94
624.28	786.02
624.62	780.33
624.97	774.83
625.32	769.27
625.66	763.49
626.01	757.14
626.35	751.60
626.70	745.95
627.04	740.81
627.39	735.25
627.73	730.10
628.08	724.93
628.43	719.59
628.77	714.38
629.12	709.11
629.46	704.25
629.81	699.69
630.15	694.95
630.50	690.25
630.84	685.58
631.19	680.76
631.53	676.10
631.88	670.82
632.22	665.70
632.57	661.19
632.91	656.68
633.26	652.37
633.60	647.85
633.95	643.37
634.29	638.46
634.64	634.01
634.98	629.24
635.32	624.91
635.67	620.93
636.01	616.66
636.36	612.32
636.70	608.31
637.05	604.11
637.39	599.94
637.73	595.87
638.08	591.90
638.42	587.83
638.77	583.65
639.11	579.39
639.45	575.15
639.80	570.68
640.14	566.64
640.49	562.63
640.83	558.80
641.17	555.19
641.52	551.52
641.86	547.98
642.20	544.83
642.55	541.23
642.89	537.62
643.23	534.19
643.58	531.07
643.92	527.42
644.26	524.09
644.61	520.96
644.95	517.65
645.29	514.20
645.64	511.08
645.98	507.91
646.32	504.98
646.66	501.97
647.01	499.11
647.35	496.32
647.69	493.40
648.04	490.66
648.38	487.74
648.72	484.91
649.06	481.99
649.41	478.96
649.75	476.08
650.09	473.18
650.43	470.25
650.78	467.30
651.12	464.58
651.46	461.81
651.80	459.01
652.14	456.28
652.49	453.88
652.83	451.34
653.17	448.65
653.51	446.12
653.85	443.79
654.20	441.37
654.54	438.82
654.88	436.43
655.22	434.13
655.56	431.81
655.90	429.51
656.25	427.25
656.59	425.11
656.93	422.95
657.27	420.97
657.61	418.66
657.95	416.43
658.29	414.20
658.64	411.98
658.98	409.77
659.32	407.53
659.66	405.37
660.00	403.30
660.34	401.40
660.68	399.34
661.02	397.22
661.36	395.25
661.70	393.25
662.05	391.42
662.39	389.55
662.73	387.78
663.07	386.17
663.41	384.30
663.75	382.25
664.09	380.45
664.43	378.50
664.77	376.80
665.11	375.15
665.45	373.54
665.79	371.94
666.13	370.26
666.47	368.58
666.81	366.85
667.15	364.96
667.49	363.48
667.83	362.26
668.17	360.87
668.51	359.40
668.85	357.97
669.19	356.72
669.53	355.17
669.87	353.61
670.21	352.05
670.55	350.65
670.89	349.65
671.23	348.24
671.57	346.79
671.91	345.58
672.25	344.22
672.58	343.00
672.92	341.63
673.26	340.48
673.60	339.33
673.94	338.26
674.28	337.26
674.62	336.06
674.96	334.70
675.30	333.45
675.64	332.34
675.97	331.21
676.31	329.74
676.65	328.54
676.99	327.59
677.33	326.40
677.67	325.31
678.01	323.97
678.34	323.01
678.68	322.15
679.02	321.05
679.36	320.02
679.70	318.96
680.04	317.95
680.37	316.95
680.71	315.98
681.05	314.93
681.39	314.05
681.73	313.16
682.06	312.15
682.40	311.36
682.74	310.45
683.08	309.74
683.42	308.92
683.75	308.20
684.09	307.26
684.43	306.53
684.77	305.73
685.10	304.99
685.44	304.15
685.78	303.27
686.12	302.47
686.45	301.71
686.79	300.92
687.13	300.30
687.46	299.53
687.80	298.94
688.14	298.18
688.48	297.42
688.81	296.61
689.15	296.10
689.49	295.30
689.82	294.61
690.16	293.73
690.50	293.13
690.83	292.41
691.17	291.63
691.51	290.88
691.84	290.26
692.18	289.51
692.52	288.85
692.85	288.39
693.19	287.95
693.52	287.29
693.86	286.69
694.20	285.99
694.53	285.43
694.87	284.69
695.21	284.15
695.54	283.52
695.88	282.93
696.21	282.12
696.55	281.57
696.88	280.91
697.22	280.31
697.56	279.71
697.89	279.03
698.23	278.52
698.56	278.04
698.90	277.61
699.23	277.06
699.57	276.57
699.90	275.84
700.24	275.18
700.58	274.73
700.91	274.27
701.25	274.14
701.58	274.00
701.92	273.74
702.25	273.25
702.59	272.81
702.92	272.44
703.26	272.13
703.59	271.69
703.93	271.75
704.26	271.46
704.60	271.08
704.93	270.63
705.26	270.20
705.60	269.76
705.93	269.14
706.27	268.86
706.60	268.50
706.94	268.35
707.27	267.92
707.61	267.64
707.94	267.27
708.27	266.46
708.61	265.68
708.94	265.20
709.28	264.80
709.61	264.42
709.94	264.05
710.28	263.62
710.61	263.19
710.95	262.37
711.28	262.21
711.61	261.78
711.95	261.63
712.28	261.15
712.61	260.89
712.95	260.86
713.28	260.67
713.61	260.30
713.95	259.79
714.28	259.56
714.61	259.10
714.95	258.77
715.28	258.45
715.61	258.10
715.95	257.80
716.28	257.42
716.61	257.12
716.95	256.67
717.28	256.40
717.61	256.14
717.94	255.85
718.28	255.26
718.61	255.06
718.94	254.68
719.27	254.56
719.61	254.23
719.94	253.86
720.27	253.40
720.60	253.12
720.94	252.90
721.27	252.63
721.60	252.44
721.93	252.14
722.27	252.08
722.60	251.94
722.93	251.63
723.26	251.53
723.59	251.32
723.93	251.21
724.26	251.04
724.59	250.80
724.92	250.64
725.25	250.60
725.59	250.25
725.92	250.05
726.25	249.81
726.58	249.63
726.91	249.41
727.24	249.25
727.57	249.03
727.91	248.73
728.24	248.59
728.57	248.41
728.90	248.35
729.23	248.00
729.56	248.03
729.89	247.87
730.22	247.62
730.55	247.39
730.89	247.13
731.22	246.89
731.55	246.74
731.88	246.60
732.21	246.27
732.54	246.08
732.87	245.93
733.20	245.79
733.53	245.59
733.86	245.40
734.19	245.23
734.52	245.15
734.85	245.35
735.18	245.05
735.51	245.07
735.84	244.90
736.17	244.93
736.50	244.49
736.83	244.93
737.16	244.80
737.49	244.72
737.82	244.63
738.15	244.58
738.48	244.47
738.81	244.26
739.14	244.19
739.47	244.08
739.80	243.89
740.13	243.76
740.46	243.62
740.79	243.45
741.12	243.30
741.45	243.08
741.78	242.72
742.11	242.74
742.44	242.42
742.77	242.30
743.10	242.05
743.43	241.91
743.75	241.25
744.08	241.78
744.41	241.58
744.74	241.44
745.07	241.17
745.40	241.10
745.73	241.17
746.06	240.99
746.39	240.96
746.71	240.80
747.04	240.60
747.37	240.45
747.70	240.37
748.03	240.27
748.36	240.21
748.68	240.06
749.01	239.76
749.34	239.66
749.67	239.57
750.00	239.55
750.33	239.79
750.65	239.73
750.98	238.95
751.31	238.84
751.64	238.74
751.97	238.91
752.29	238.70
752.62	238.40
752.95	238.23
753.28	238.01
753.60	237.90
753.93	237.89
754.26	237.84
754.59	237.57
754.91	237.37
755.24	237.25
755.57	237.18
755.90	237.19
756.22	237.04
756.55	236.82
756.88	236.58
757.20	236.23
757.53	236.06
757.86	236.00
758.19	235.90
758.51	235.80
758.84	235.40
759.17	235.27
759.49	235.22
759.82	235.41
760.15	235.37
760.47	235.28
760.80	235.06
761.13	235.05
761.45	235.00
761.78	234.92
762.11	234.83
762.43	234.63
762.76	234.47
763.08	234.49
763.41	234.53
763.74	234.49
764.06	234.31
764.39	234.18
764.71	234.08
765.04	234.05
765.37	233.93
765.69	233.92
766.02	233.90
766.34	233.70
766.67	233.40
767.00	233.42
767.32	233.57
767.65	233.91
767.97	233.80
768.30	233.75
768.62	233.71
768.95	233.53
769.27	233.50
769.60	233.53
769.92	233.35
770.25	233.13
770.57	232.98
770.90	232.87
771.22	232.80
771.55	232.69
771.87	232.60
772.20	232.59
772.52	233.00
772.85	233.46
773.17	233.47
773.50	233.50
773.82	233.36
774.15	233.07
774.47	232.66
774.80	232.50
775.12	232.47
775.45	232.42
775.77	232.45
776.09	232.43
776.42	232.32
776.74	232.39
777.07	232.33
777.39	232.27
777.72	232.28
778.04	232.25
778.36	232.22
778.69	232.19
779.01	232.08
779.33	231.56
779.66	231.01
779.98	230.96
780.31	230.89
780.63	231.10
780.95	231.24
781.28	231.15
781.60	231.15
781.92	231.09
782.25	231.04
782.57	231.00
782.89	230.92
783.22	230.88
783.54	230.72
783.86	230.72
784.19	230.70
784.51	230.82
784.83	230.65
785.16	230.60
785.48	230.53
785.80	230.56
786.12	230.48
786.45	230.37
786.77	230.34
787.09	230.27
787.42	230.01
787.74	229.91
788.06	229.87
788.38	229.83
788.71	229.78
789.03	229.74
789.35	229.77
789.67	229.63
789.99	229.67
790.32	229.67
790.64	229.70
790.96	230.09
791.28	229.90
791.61	229.90
791.93	229.90
792.25	229.89
792.57	230.20
792.89	230.13
793.21	230.23
793.54	230.17
793.86	230.06
794.18	230.02
794.50	229.95
794.82	230.00
795.14	230.01
795.47	230.07
795.79	230.07
796.11	229.88
796.43	229.90
796.75	229.80
797.07	229.81
797.39	229.73
797.71	229.37
798.04	229.37
798.36	229.41
798.68	229.40
799.00	229.35
799.32	229.01
799.64	229.16
799.96	229.04
800.28	229.09
800.60	229.06
800.92	229.12
801.24	229.04
801.56	229.02
801.89	228.93
802.21	228.94
802.53	228.84
802.85	229.03
803.17	229.28
803.49	229.25
803.81	229.14
804.13	229.14
804.45	229.02
804.77	229.04
805.09	228.97
805.41	228.91
805.73	228.86
806.05	228.74
806.37	228.61
806.69	228.55
807.01	228.50
807.33	228.53
807.65	228.36
807.97	228.60
808.28	228.57
808.60	228.59
808.92	228.49
809.24	228.72
809.56	228.60
809.88	228.36
810.20	228.35
810.52	228.46
810.84	228.40
811.16	228.39
811.48	228.30
811.80	228.48
812.12	228.43
812.43	228.47
812.75	228.58
813.07	228.55
813.39	228.57
813.71	228.54
814.03	228.49
814.35	228.50
814.67	228.26
814.98	228.17
815.30	228.14
815.62	228.01
815.94	227.75
816.26	227.90
816.58	227.79
816.89	227.81
817.21	227.70
817.53	227.69
817.85	227.68
818.17	227.66
818.48	227.48
818.80	227.62
819.12	227.62
819.44	227.42
819.76	227.37
820.07	227.37
820.39	227.35
820.71	227.39
821.03	227.38
821.34	227.36
821.66	227.42
821.98	227.41
822.30	227.42
822.61	227.63
822.93	227.38
823.25	227.43
823.57	227.38
823.88	227.49
824.20	227.47
824.52	227.55
824.83	227.57
825.15	227.49
825.47	227.41
825.79	227.40
826.10	227.43
826.42	227.42
826.74	227.48
827.05	227.44
827.37	227.42
827.69	227.33
828.00	227.37
828.32	227.37
828.64	227.37
828.95	227.65
829.27	227.56
829.58	227.58
829.90	227.63
830.22	227.63
830.53	227.51
830.85	227.40
831.17	227.26
831.48	227.26
831.80	227.34
832.11	227.29
832.43	227.19
832.75	227.20
833.06	227.45
833.38	227.34
833.69	227.27
834.01	227.26
834.32	227.28
834.64	227.23
834.96	227.19
835.27	227.21
835.59	227.00
835.90	227.02
836.22	226.97
836.53	226.85
836.85	226.78
837.16	227.24
837.48	227.28
837.79	227.42
838.11	227.45
838.42	227.41
838.74	227.50
839.05	227.53
839.37	227.51
839.68	227.26
840.00	227.26
840.31	227.29
840.63	227.29
840.94	227.25
841.26	227.15
841.57	227.21
841.88	227.25
842.20	227.16
842.51	226.90
842.83	227.00
843.14	227.46
843.46	227.44
843.77	227.16
844.08	227.12
844.40	226.95
844.71	226.87
845.03	226.82
845.34	226.73
845.65	226.65
845.97	226.67
846.28	226.65
846.60	226.61
846.91	226.57
847.22	226.56
847.54	226.61
847.85	226.68
848.16	226.51
848.48	226.31
848.79	226.50
849.10	226.60
849.42	226.60
849.73	226.22
850.04	226.24
850.36	226.07
850.67	226.17
850.98	226.24
851.30	226.25
851.61	226.29
851.92	226.32
852.23	226.51
852.55	226.55
852.86	226.55
853.17	226.66
853.49	226.76
853.80	226.88
854.11	226.99
854.42	227.04
854.74	227.08
855.05	227.15
855.36	226.97
855.67	227.05
855.99	227.03
856.30	227.52
856.61	227.53
856.92	227.56
857.23	227.51
857.55	227.44
857.86	227.44
858.17	227.51
858.48	227.46
858.79	227.36
859.11	227.39
859.42	227.41
859.73	227.30
860.04	227.31
860.35	227.21
860.66	227.04
860.98	227.02
861.29	227.05
861.60	227.02
861.91	227.17
862.22	227.11
862.53	227.09
862.84	226.55
863.16	226.75
863.47	226.62
863.78	226.59
864.09	226.78
864.40	226.84
864.71	226.84
865.02	226.89
865.33	226.80
865.64	226.73
865.95	226.76
866.27	227.10
866.58	226.97
866.89	227.00
867.20	227.05
867.51	227.00
867.82	227.04
868.13	227.19
868.44	227.10
868.75	227.18
869.06	227.15
869.37	227.24
869.68	227.11
869.99	227.23
870.30	227.30
870.61	227.20
870.92	227.11
871.23	226.97
871.54	227.12
871.85	227.27
872.16	227.29
872.47	227.19
872.78	226.93
873.09	227.02
873.40	226.99
873.71	227.02
874.02	227.02
874.33	226.98
874.64	226.93
874.95	226.94
875.26	226.81
875.56	226.86
875.87	226.81
876.18	226.69
876.49	227.16
876.80	227.10
877.11	227.06
877.42	227.05
877.73	227.08
878.04	226.93
878.35	226.88
878.66	226.89
878.96	226.88
879.27	226.81
879.58	226.76
879.89	226.75
880.20	226.85
880.51	226.85
880.82	226.78
881.12	226.74
881.43	226.62
881.74	226.59
882.05	226.55
882.36	226.51
882.67	226.56
882.97	226.10
883.28	226.06
883.59	225.99
883.90	226.03
884.21	226.17
884.51	226.13
884.82	226.12
885.13	226.12
885.44	226.12
885.74	226.18
886.05	226.20
886.36	226.09
886.67	225.93
886.98	226.15
887.28	226.25
887.59	226.30
887.90	226.40
888.20	226.37
888.51	226.46
888.82	226.41
889.13	226.37
889.43	226.68
889.74	226.66
890.05	226.67
890.35	226.67
890.66	226.50
890.97	226.40
891.28	226.33
891.58	226.34
891.89	226.29
892.20	226.22
892.50	226.16
892.81	226.17
893.12	226.16
893.42	225.91
893.73	225.92
894.04	225.97
894.34	225.93
894.65	225.91
894.95	225.81
895.26	225.84
895.57	226.13
895.87	225.72
896.18	225.75
896.48	225.81
896.79	225.81
897.10	225.96
897.40	226.01
897.71	226.07
898.01	226.03
898.32	226.16
898.63	226.22
898.93	226.27
899.24	226.30
899.54	226.26
899.85	226.30
900.15	226.20
900.46	226.17
900.76	226.24
901.07	226.26
901.38	226.26
901.68	226.34
901.99	226.13
902.29	226.14
902.60	226.25
902.90	226.23
903.21	226.18
903.51	226.10
903.82	226.25
904.12	226.34
904.43	226.39
904.73	226.35
905.03	226.39
905.34	226.79
905.64	226.77
905.95	226.82
906.25	226.80
906.56	226.88
906.86	226.85
907.17	226.82
907.47	226.85
907.77	226.78
908.08	226.71
908.38	226.72
908.69	226.75
908.99	226.78
909.30	226.74
909.60	226.77
909.90	226.85
910.21	226.69
910.51	226.48
910.81	226.52
911.12	226.51
911.42	226.47
911.73	226.00
912.03	226.04
912.33	226.11
912.64	226.08
912.94	226.00
913.24	225.87
913.55	225.83
913.85	225.84
914.15	226.01
914.46	226.08
914.76	226.01
915.06	226.00
915.37	225.93
915.67	225.85
915.97	225.85
916.27	225.68
916.58	225.70
916.88	225.72
917.18	225.65
917.49	225.96
917.79	225.84
918.09	225.95
918.39	226.04
918.70	225.96
919.00	225.90
919.30	226.09
919.60	226.13
919.91	226.13
920.21	226.12
920.51	225.95
920.81	225.86
921.12	225.97
921.42	225.91
921.72	225.85
922.02	225.89
922.32	225.97
922.63	226.03
922.93	226.27
923.23	226.26
923.53	226.16
923.83	225.88
924.13	225.99
924.44	225.95
924.74	226.02
925.04	226.13
925.34	226.24
925.64	226.04
925.94	226.08
926.24	226.26
926.55	226.25
926.85	226.30
927.15	226.34
927.45	226.29
927.75	226.36
928.05	226.48
928.35	226.53
928.65	226.53
928.95	226.54
929.26	226.37
929.56	226.51
929.86	226.66
930.16	226.62
930.46	226.62
930.76	226.70
931.06	226.41
931.36	226.30
931.66	226.38
931.96	226.53
932.26	226.55
932.56	226.50
932.86	226.54
933.16	226.57
933.46	226.55
933.76	226.45
934.06	226.54
934.36	226.70
934.66	226.65
934.96	226.60
935.26	226.61
935.56	226.74
935.86	226.63
936.16	226.60
936.46	226.57
936.76	226.54
937.06	226.48
937.36	226.65
937.66	226.68
937.96	226.65
938.26	226.52
938.56	226.52
938.86	226.51
939.16	226.57
939.46	226.64
939.76	226.63
940.06	226.66
940.35	226.52
940.65	226.25
940.95	226.35
941.25	226.25
941.55	226.23
941.85	226.18
942.15	226.33
942.45	226.33
942.75	226.36
943.04	226.39
943.34	226.50
943.64	226.35
943.94	226.31
944.24	226.29
944.54	226.36
944.84	226.37
945.13	226.25
945.43	226.18
945.73	226.16
946.03	226.15
946.33	226.21
946.62	226.19
946.92	226.19
947.22	226.22
947.52	226.31
947.82	226.38
948.11	226.38
948.41	226.24
948.71	226.13
949.01	226.17
949.31	226.15
949.60	226.09
949.90	226.22
950.20	226.19
950.50	226.21
950.79	226.10
951.09	226.10
951.39	226.10
951.69	226.01
951.98	226.06
952.28	226.08
952.58	225.99
952.87	226.02
953.17	226.06
953.47	225.95
953.76	225.86
954.06	225.73
954.36	225.59
954.66	225.52
954.95	225.60
955.25	225.59
955.55	225.59
955.84	225.45
956.14	225.45
956.44	225.47
956.73	225.36
957.03	225.45
957.32	225.47
957.62	225.46
957.92	225.54
958.21	225.52
958.51	226.06
958.81	226.13
959.10	226.17
959.40	226.25
959.69	226.33
959.99	226.48
960.29	226.51
960.58	226.47
960.88	226.71
961.17	226.72
961.47	226.81
961.76	226.74
962.06	226.85
962.36	226.86
962.65	226.92
962.95	226.98
963.24	226.87
963.54	226.81
963.83	226.86
964.13	226.90
964.42	226.77
964.72	226.37
965.01	226.35
965.31	226.34
965.60	226.28
965.90	226.51
966.19	226.38
966.49	226.41
966.78	226.46
967.08	226.40
967.37	226.39
967.67	226.24
967.96	226.35
968.26	226.31
968.55	226.32
968.85	226.32
969.14	226.31
969.43	226.35
969.73	226.30
970.02	226.28
970.32	226.19
970.61	226.15
970.91	225.96
971.20	225.92
971.49	225.87
971.79	225.92
972.08	225.65
972.38	225.73
972.67	225.71
972.96	225.84
973.26	225.79
973.55	225.99
973.85	225.98
974.14	225.94
974.43	226.01
974.73	225.93
975.02	225.82
975.31	225.86
975.61	225.92
975.90	225.95
976.19	225.90
976.49	226.01
976.78	226.08
977.07	226.13
977.37	226.23
977.66	226.32
977.95	226.18
978.24	226.20
978.54	226.30
978.83	226.30
979.12	226.23
979.42	226.22
979.71	226.05
980.00	226.06
980.29	226.05
980.59	225.94
980.88	226.08
981.17	226.09
981.46	226.06
981.76	226.04
982.05	226.19
982.34	226.21
982.63	226.21
982.93	226.22
983.22	226.32
983.51	226.32
983.80	226.34
984.09	226.46
984.39	226.44
984.68	226.37
984.97	226.37
985.26	226.29
985.55	226.35
985.85	226.34
986.14	226.45
986.43	226.51
986.72	226.49
987.01	226.34
987.30	226.45
987.59	226.41
987.89	226.40
988.18	226.24
988.47	226.22
988.76	226.14
989.05	226.05
989.34	226.00
989.63	226.11
989.92	226.01
990.22	225.89
990.51	225.84
990.80	225.80
991.09	225.84
991.38	225.90
991.67	225.78
991.96	225.76
992.25	225.75
992.54	225.67
992.83	225.68
993.12	225.66
993.41	225.65
993.70	225.83
993.99	225.91
994.28	225.94
994.58	226.05
994.87	226.04
995.16	226.04
995.45	226.04
995.74	225.77
996.03	225.90
996.32	226.03
996.61	226.12
996.90	226.06
997.19	225.99
997.48	226.04
997.77	225.95
998.06	225.95
998.34	225.90
998.63	225.92
998.92	225.90
999.21	225.95
999.50	225.90
999.79	225.74
1000.08	225.69
1000.37	225.70
1000.66	225.55
1000.95	225.65
1001.24	225.67
1001.53	225.72
1001.82	225.74
1002.11	225.55
1002.40	225.60
1002.68	225.71
1002.97	226.06
1003.26	225.98
1003.55	225.86
1003.84	225.96
1004.13	226.12
1004.42	226.07
1004.71	226.00
1004.99	226.00
1005.28	226.09
1005.57	226.11
1005.86	226.05
1006.15	225.99
1006.44	225.91
1006.72	226.01
1007.01	225.89
1007.30	225.94
1007.59	225.91
1007.88	225.85
1008.17	225.88
1008.45	225.69
1008.74	225.56
1009.03	225.35
1009.32	225.37
1009.60	225.43
1009.89	225.33
1010.18	225.09
1010.47	225.04
1010.76	225.04
1011.04	225.03
1011.33	225.04
1011.62	225.04
1011.91	225.12
1012.19	225.20
1012.48	225.22
1012.77	225.17
1013.05	225.45
1013.34	225.39
1013.63	225.28
1013.92	225.41
1014.20	225.42
1014.49	225.44
1014.78	225.39
1015.06	225.25
1015.35	225.27
1015.64	225.32
1015.92	225.47
1016.21	225.55
1016.50	225.63
1016.78	225.71
1017.07	225.80
1017.36	225.76
1017.64	225.67
1017.93	225.69
1018.22	225.63
1018.50	225.65
1018.79	225.63
1019.08	225.35
1019.36	225.37
1019.65	225.38
1019.93	225.43
1020.22	225.45
1020.51	225.79
1020.79	225.72
1021.08	224.80
1021.36	225.35
1021.65	224.50
1021.94	224.60
1022.22	225.35
1022.51	224.95
1022.79	227.10
1023.08	225.25
1023.36	231.60
1023.65	223.90
>>>>>End Processed Spectral Data<<<<<
