SpectraSuite Data File
++++++++++++++++++++++++++++++++++++
Date: Wed Sep 04 18:00:03 EDT 2013
User: lab3
Dark Spectrum Present: Yes
Reference Spectrum Present: No
Number of Sampled Component Spectra: 1
Spectrometers: USB2E7196
Integration Time (usec): 170000 (USB2E7196)
Spectra Averaged: 20 (USB2E7196)
Boxcar Smoothing: 10 (USB2E7196)
Correct for Electrical Dark: No (USB2E7196)
Strobe/Lamp Enabled: No (USB2E7196)
Correct for Detector Non-linearity: No (USB2E7196)
Correct for Stray Light: No (USB2E7196)
Number of Pixels in Processed Spectrum: 2048
>>>>>Begin Processed Spectral Data<<<<<
339.09	0.00
339.48	213.20
339.86	214.90
340.24	216.70
340.63	217.90
341.01	226.25
341.39	218.90
341.78	221.90
342.16	225.00
342.54	222.65
342.93	212.39
343.31	223.10
343.69	223.65
344.07	224.07
344.46	224.48
344.84	224.91
345.22	224.92
345.60	225.28
345.99	225.53
346.37	225.54
346.75	225.68
347.13	225.69
347.52	225.77
347.90	226.03
348.28	226.10
348.66	226.24
349.05	226.04
349.43	226.14
349.81	226.20
350.19	226.25
350.57	226.41
350.96	226.55
351.34	226.69
351.72	226.78
352.10	226.96
352.48	227.04
352.87	227.07
353.25	227.04
353.63	227.09
354.01	227.06
354.39	227.19
354.77	227.27
355.15	227.52
355.54	227.56
355.92	227.41
356.30	227.46
356.68	227.83
357.06	227.93
357.44	227.89
357.82	227.88
358.20	228.35
358.58	228.35
358.97	228.46
359.35	228.61
359.73	228.76
360.11	228.79
360.49	228.83
360.87	228.88
361.25	228.99
361.63	229.26
362.01	229.32
362.39	229.32
362.77	229.37
363.15	229.44
363.53	229.48
363.91	229.54
364.29	229.65
364.67	229.22
365.05	229.30
365.43	229.41
365.81	229.53
366.19	229.35
366.57	229.59
366.95	229.64
367.33	229.47
367.71	229.47
368.09	229.62
368.47	229.61
368.85	229.61
369.23	229.80
369.61	229.55
369.99	229.73
370.37	229.80
370.75	230.03
371.13	229.85
371.51	229.83
371.89	229.83
372.27	229.81
372.65	229.85
373.03	229.75
373.41	229.66
373.78	229.56
374.16	229.30
374.54	229.08
374.92	229.00
375.30	228.97
375.68	228.81
376.06	228.72
376.44	228.76
376.82	228.73
377.19	228.59
377.57	228.49
377.95	228.30
378.33	228.24
378.71	227.88
379.09	227.94
379.47	227.90
379.84	227.77
380.22	227.59
380.60	227.42
380.98	227.38
381.36	227.32
381.73	227.22
382.11	227.21
382.49	227.20
382.87	227.03
383.25	227.03
383.62	227.56
384.00	227.38
384.38	227.26
384.76	227.24
385.13	227.37
385.51	227.38
385.89	227.29
386.27	227.24
386.64	227.30
387.02	227.10
387.40	227.02
387.78	227.00
388.15	227.01
388.53	227.01
388.91	226.94
389.29	226.78
389.66	226.91
390.04	226.78
390.42	226.79
390.79	226.81
391.17	226.72
391.55	226.13
391.92	226.17
392.30	226.16
392.68	226.02
393.05	225.91
393.43	225.87
393.81	225.85
394.18	225.72
394.56	225.71
394.94	225.87
395.31	225.84
395.69	226.06
396.06	226.14
396.44	226.22
396.82	226.30
397.19	226.67
397.57	226.60
397.95	226.78
398.32	226.72
398.70	226.85
399.07	227.01
399.45	227.06
399.82	227.17
400.20	227.24
400.58	227.37
400.95	227.25
401.33	227.44
401.70	227.91
402.08	228.13
402.45	228.26
402.83	228.50
403.20	228.67
403.58	228.75
403.95	228.98
404.33	229.21
404.71	229.45
405.08	229.82
405.46	229.98
405.83	230.20
406.21	230.45
406.58	230.72
406.96	230.97
407.33	231.31
407.70	231.56
408.08	232.33
408.45	232.84
408.83	233.43
409.20	233.83
409.58	234.08
409.95	234.64
410.33	235.07
410.70	235.51
411.08	236.08
411.45	236.73
411.82	237.31
412.20	238.07
412.57	238.99
412.95	239.33
413.32	240.33
413.69	241.27
414.07	242.25
414.44	243.17
414.82	244.28
415.19	245.50
415.56	246.78
415.94	247.72
416.31	249.09
416.68	250.47
417.06	252.16
417.43	253.79
417.81	255.54
418.18	257.55
418.55	259.45
418.93	261.61
419.30	263.72
419.67	265.95
420.04	268.20
420.42	270.48
420.79	273.60
421.16	276.37
421.54	279.36
421.91	282.37
422.28	285.53
422.66	288.87
423.03	292.43
423.40	295.79
423.77	299.37
424.15	303.05
424.52	306.93
424.89	311.05
425.26	314.97
425.64	318.90
426.01	323.01
426.38	327.35
426.75	331.90
427.13	336.47
427.50	341.34
427.87	346.30
428.24	351.32
428.61	355.95
428.99	361.23
429.36	366.75
429.73	372.31
430.10	377.73
430.47	383.45
430.85	389.09
431.22	395.30
431.59	402.09
431.96	408.33
432.33	415.27
432.70	421.93
433.08	429.79
433.45	437.16
433.82	444.56
434.19	452.90
434.56	460.86
434.93	468.66
435.30	476.48
435.68	485.17
436.05	493.65
436.42	502.11
436.79	509.80
437.16	518.10
437.53	526.98
437.90	535.81
438.27	544.48
438.64	553.30
439.01	561.63
439.38	568.99
439.75	576.31
440.13	584.37
440.50	592.05
440.87	598.27
441.24	604.62
441.61	611.65
441.98	616.79
442.35	622.77
442.72	628.76
443.09	634.57
443.46	637.92
443.83	640.30
444.20	642.16
444.57	644.90
444.94	646.16
445.31	647.24
445.68	648.70
446.05	648.74
446.42	647.45
446.79	646.05
447.16	644.39
447.53	642.92
447.90	639.11
448.27	635.41
448.64	630.42
449.01	626.70
449.37	620.54
449.74	614.38
450.11	607.39
450.48	599.54
450.85	591.38
451.22	584.40
451.59	577.76
451.96	571.37
452.33	563.18
452.70	555.68
453.07	546.88
453.43	537.70
453.80	529.25
454.17	521.19
454.54	513.45
454.91	505.19
455.28	497.22
455.65	489.78
456.02	482.78
456.38	476.39
456.75	468.61
457.12	461.99
457.49	455.70
457.86	449.40
458.23	444.24
458.59	438.59
458.96	432.90
459.33	427.74
459.70	422.54
460.07	418.56
460.43	413.89
460.80	409.63
461.17	405.97
461.54	402.00
461.91	398.25
462.27	394.36
462.64	391.11
463.01	387.57
463.38	384.30
463.74	380.31
464.11	377.40
464.48	374.81
464.85	372.03
465.21	369.87
465.58	367.54
465.95	364.62
466.32	362.41
466.68	360.11
467.05	357.82
467.42	355.74
467.78	353.30
468.15	351.15
468.52	349.60
468.88	347.26
469.25	345.34
469.62	343.84
469.98	342.20
470.35	340.67
470.72	339.13
471.08	337.41
471.45	336.21
471.82	334.85
472.18	333.32
472.55	332.26
472.92	330.94
473.28	329.78
473.65	328.79
474.02	327.60
474.38	326.75
474.75	326.05
475.11	325.09
475.48	324.45
475.85	323.79
476.21	322.96
476.58	322.42
476.94	321.98
477.31	321.46
477.67	321.00
478.04	320.62
478.41	320.33
478.77	320.56
479.14	320.24
479.50	320.06
479.87	320.05
480.23	320.02
480.60	319.91
480.96	319.92
481.33	320.24
481.69	320.46
482.06	320.62
482.42	320.77
482.79	321.18
483.15	321.63
483.52	322.27
483.88	322.85
484.25	323.48
484.61	324.12
484.98	324.81
485.34	325.77
485.71	326.76
486.07	327.85
486.44	328.41
486.80	329.55
487.17	330.72
487.53	332.12
487.90	333.52
488.26	335.24
488.62	336.97
488.99	338.50
489.35	340.35
489.72	342.29
490.08	344.32
490.44	346.36
490.81	348.59
491.17	350.79
491.54	353.37
491.90	355.89
492.26	358.51
492.63	361.32
492.99	364.09
493.36	367.11
493.72	370.38
494.08	373.98
494.45	377.70
494.81	381.57
495.17	385.46
495.54	389.72
495.90	393.98
496.26	398.38
496.63	402.99
496.99	407.79
497.35	412.82
497.72	418.08
498.08	423.56
498.44	429.19
498.80	435.15
499.17	441.16
499.53	447.55
499.89	454.35
500.26	461.10
500.62	468.11
500.98	475.54
501.34	482.92
501.71	490.61
502.07	498.35
502.43	506.62
502.79	515.12
503.16	523.85
503.52	532.93
503.88	542.35
504.24	552.15
504.60	562.28
504.97	572.70
505.33	583.32
505.69	594.47
506.05	605.68
506.41	616.95
506.78	628.67
507.14	640.54
507.50	652.83
507.86	665.50
508.22	678.68
508.59	691.90
508.95	705.75
509.31	719.90
509.67	734.50
510.03	748.71
510.39	763.48
510.75	778.54
511.12	793.58
511.48	809.22
511.84	825.00
512.20	840.91
512.56	857.15
512.92	873.81
513.28	890.62
513.64	907.83
514.00	925.67
514.37	943.52
514.73	962.02
515.09	980.36
515.45	998.94
515.81	1017.34
516.17	1036.00
516.53	1054.80
516.89	1073.55
517.25	1092.68
517.61	1113.00
517.97	1133.35
518.33	1153.50
518.69	1174.05
519.05	1194.52
519.41	1215.37
519.77	1236.44
520.13	1257.19
520.49	1277.80
520.85	1300.17
521.21	1321.55
521.57	1342.62
521.93	1363.46
522.29	1384.78
522.65	1405.53
523.01	1426.67
523.37	1447.63
523.73	1469.00
524.09	1489.52
524.45	1510.44
524.81	1531.71
525.17	1552.49
525.53	1573.19
525.89	1594.13
526.25	1615.16
526.61	1635.71
526.97	1656.93
527.33	1678.39
527.68	1700.50
528.04	1722.19
528.40	1741.90
528.76	1762.71
529.12	1783.00
529.48	1803.75
529.84	1823.89
530.20	1845.45
530.56	1866.17
530.91	1887.12
531.27	1907.72
531.63	1928.70
531.99	1949.64
532.35	1969.67
532.71	1990.25
533.07	2010.77
533.42	2030.60
533.78	2050.68
534.14	2070.91
534.50	2090.19
534.86	2109.50
535.21	2127.14
535.57	2145.62
535.93	2163.53
536.29	2181.79
536.65	2200.19
537.00	2217.93
537.36	2235.68
537.72	2252.11
538.08	2269.34
538.44	2286.19
538.79	2302.60
539.15	2319.00
539.51	2334.71
539.87	2349.95
540.22	2363.89
540.58	2378.13
540.94	2391.50
541.29	2404.25
541.65	2416.85
542.01	2429.17
542.37	2439.69
542.72	2450.92
543.08	2461.72
543.44	2473.85
543.79	2483.69
544.15	2493.83
544.51	2503.82
544.87	2513.30
545.22	2522.00
545.58	2529.75
545.94	2536.84
546.29	2543.53
546.65	2550.08
547.01	2555.56
547.36	2560.94
547.72	2566.64
548.07	2570.95
548.43	2576.58
548.79	2581.12
549.14	2585.57
549.50	2589.59
549.86	2593.69
550.21	2597.15
550.57	2600.22
550.92	2600.98
551.28	2602.93
551.64	2605.23
551.99	2607.46
552.35	2609.37
552.70	2611.63
553.06	2613.20
553.41	2614.80
553.77	2616.79
554.13	2618.38
554.48	2620.35
554.84	2622.18
555.19	2623.36
555.55	2625.28
555.90	2624.53
556.26	2623.84
556.61	2622.00
556.97	2619.84
557.32	2619.45
557.68	2618.70
558.03	2617.49
558.39	2616.61
558.74	2615.60
559.10	2612.42
559.45	2609.16
559.81	2604.66
560.16	2599.76
560.52	2595.30
560.87	2590.75
561.23	2584.93
561.58	2578.95
561.94	2572.06
562.29	2564.44
562.64	2557.34
563.00	2549.00
563.35	2542.47
563.71	2535.96
564.06	2529.62
564.42	2522.94
564.77	2516.35
565.12	2508.92
565.48	2501.18
565.83	2493.46
566.19	2485.03
566.54	2477.27
566.89	2468.85
567.25	2461.24
567.60	2453.87
567.96	2446.31
568.31	2438.17
568.66	2429.58
569.02	2420.55
569.37	2412.34
569.72	2404.87
570.08	2395.46
570.43	2385.70
570.78	2376.76
571.14	2367.36
571.49	2357.47
571.84	2348.23
572.20	2336.80
572.55	2326.41
572.90	2315.62
573.26	2304.99
573.61	2294.03
573.96	2282.62
574.31	2270.77
574.67	2258.77
575.02	2245.77
575.37	2232.89
575.72	2219.92
576.08	2207.78
576.43	2195.17
576.78	2181.89
577.13	2168.02
577.49	2155.32
577.84	2143.58
578.19	2131.20
578.54	2118.41
578.90	2106.24
579.25	2093.76
579.60	2081.14
579.95	2068.32
580.30	2054.87
580.66	2041.22
581.01	2027.87
581.36	2014.07
581.71	2001.36
582.06	1988.20
582.42	1975.67
582.77	1962.82
583.12	1950.63
583.47	1938.21
583.82	1926.15
584.17	1914.07
584.53	1902.44
584.88	1889.57
585.23	1876.50
585.58	1862.02
585.93	1848.46
586.28	1835.09
586.63	1820.79
586.98	1806.75
587.34	1793.36
587.69	1780.16
588.04	1767.84
588.39	1755.49
588.74	1743.30
589.09	1731.09
589.44	1718.48
589.79	1706.50
590.14	1694.41
590.49	1682.21
590.84	1670.20
591.19	1658.10
591.54	1645.74
591.89	1633.62
592.25	1623.55
592.60	1611.84
592.95	1600.74
593.30	1588.94
593.65	1576.91
594.00	1565.03
594.35	1555.03
594.70	1542.97
595.05	1531.79
595.40	1519.34
595.75	1507.27
596.10	1495.95
596.45	1484.34
596.80	1473.26
597.15	1461.39
597.50	1449.52
597.85	1438.01
598.19	1426.19
598.54	1414.67
598.89	1403.39
599.24	1392.71
599.59	1380.91
599.94	1370.01
600.29	1359.31
600.64	1348.90
600.99	1337.99
601.34	1328.33
601.69	1317.03
602.04	1307.27
602.39	1297.60
602.74	1288.38
603.08	1279.19
603.43	1269.66
603.78	1259.94
604.13	1250.33
604.48	1240.66
604.83	1231.22
605.18	1221.42
605.53	1211.90
605.87	1202.30
606.22	1193.60
606.57	1184.20
606.92	1174.43
607.27	1165.60
607.62	1156.86
607.96	1148.23
608.31	1140.25
608.66	1131.71
609.01	1122.86
609.36	1114.02
609.70	1105.28
610.05	1096.74
610.40	1087.95
610.75	1079.24
611.10	1070.81
611.44	1062.20
611.79	1054.07
612.14	1045.98
612.49	1037.96
612.83	1030.32
613.18	1022.67
613.53	1014.95
613.88	1006.67
614.22	999.04
614.57	990.92
614.92	982.93
615.27	975.21
615.61	967.36
615.96	959.61
616.31	952.22
616.65	945.27
617.00	937.90
617.35	930.50
617.70	923.28
618.04	916.15
618.39	909.13
618.74	902.63
619.08	895.68
619.43	888.70
619.78	881.76
620.12	874.53
620.47	867.72
620.82	860.59
621.16	853.79
621.51	847.55
621.85	841.24
622.20	834.54
622.55	828.00
622.89	821.49
623.24	815.02
623.59	808.67
623.93	802.36
624.28	795.99
624.62	790.40
624.97	784.55
625.32	778.84
625.66	772.72
626.01	766.51
626.35	761.01
626.70	755.39
627.04	750.15
627.39	744.66
627.73	739.11
628.08	733.80
628.43	728.35
628.77	722.67
629.12	717.32
629.46	712.63
629.81	707.78
630.15	703.00
630.50	698.21
630.84	693.38
631.19	688.45
631.53	683.89
631.88	678.47
632.22	673.55
632.57	668.88
632.91	664.10
633.26	659.51
633.60	654.74
633.95	650.12
634.29	645.17
634.64	640.54
634.98	635.69
635.32	631.23
635.67	627.15
636.01	623.01
636.36	618.60
636.70	614.47
637.05	610.29
637.39	606.04
637.73	601.80
638.08	597.76
638.42	593.42
638.77	589.00
639.11	584.63
639.45	580.36
639.80	575.94
640.14	571.98
640.49	567.90
640.83	564.04
641.17	560.35
641.52	556.60
641.86	553.00
642.20	549.90
642.55	546.13
642.89	542.37
643.23	538.75
643.58	535.60
643.92	531.81
644.26	528.26
644.61	525.01
644.95	521.69
645.29	518.24
645.64	515.20
645.98	512.17
646.32	509.27
646.66	506.06
647.01	503.13
647.35	500.35
647.69	497.49
648.04	494.60
648.38	491.72
648.72	488.95
649.06	485.93
649.41	482.68
649.75	479.93
650.09	477.14
650.43	474.21
650.78	471.22
651.12	468.48
651.46	465.66
651.80	462.77
652.14	460.10
652.49	457.54
652.83	454.88
653.17	452.27
653.51	449.61
653.85	447.18
654.20	444.63
654.54	442.07
654.88	439.59
655.22	437.36
655.56	434.86
655.90	432.36
656.25	430.14
656.59	427.97
656.93	425.72
657.27	423.72
657.61	421.35
657.95	419.18
658.29	416.93
658.64	414.98
658.98	412.76
659.32	410.50
659.66	408.32
660.00	406.20
660.34	404.07
660.68	402.01
661.02	399.97
661.36	398.11
661.70	396.02
662.05	394.06
662.39	392.03
662.73	390.20
663.07	388.60
663.41	386.86
663.75	384.95
664.09	383.09
664.43	381.04
664.77	379.29
665.11	377.43
665.45	375.74
665.79	374.01
666.13	372.39
666.47	370.74
666.81	369.06
667.15	367.44
667.49	365.90
667.83	364.54
668.17	363.09
668.51	361.40
668.85	360.09
669.19	358.92
669.53	357.31
669.87	355.66
670.21	354.02
670.55	352.57
670.89	351.42
671.23	350.10
671.57	348.70
671.91	347.43
672.25	346.10
672.58	344.88
672.92	343.36
673.26	342.04
673.60	340.87
673.94	339.67
674.28	338.45
674.62	337.34
674.96	335.91
675.30	334.73
675.64	333.60
675.97	332.33
676.31	330.92
676.65	329.74
676.99	328.88
677.33	327.71
677.67	326.55
678.01	325.24
678.34	324.14
678.68	323.20
679.02	322.06
679.36	321.09
679.70	320.06
680.04	319.16
680.37	318.21
680.71	317.10
681.05	316.22
681.39	315.34
681.73	314.30
682.06	313.50
682.40	312.63
682.74	311.83
683.08	311.08
683.42	310.18
683.75	309.42
684.09	308.51
684.43	307.79
684.77	306.99
685.10	306.26
685.44	305.39
685.78	304.58
686.12	303.95
686.45	303.11
686.79	302.22
687.13	301.57
687.46	300.87
687.80	300.29
688.14	299.39
688.48	298.59
688.81	297.85
689.15	297.31
689.49	296.50
689.82	295.89
690.16	295.02
690.50	294.33
690.83	293.60
691.17	292.81
691.51	292.09
691.84	291.43
692.18	290.67
692.52	290.03
692.85	289.45
693.19	288.91
693.52	288.30
693.86	287.73
694.20	286.99
694.53	286.41
694.87	285.74
695.21	285.20
695.54	284.61
695.88	283.97
696.21	283.12
696.55	282.56
696.88	281.82
697.22	281.23
697.56	280.76
697.89	280.16
698.23	279.76
698.56	279.21
698.90	278.78
699.23	278.20
699.57	277.80
699.90	277.08
700.24	276.47
700.58	275.99
700.91	275.58
701.25	275.51
701.58	275.25
701.92	274.88
702.25	274.34
702.59	273.83
702.92	273.40
703.26	273.09
703.59	272.71
703.93	272.69
704.26	272.32
704.60	271.91
704.93	271.45
705.26	270.90
705.60	270.52
705.93	269.95
706.27	269.74
706.60	269.39
706.94	269.27
707.27	268.82
707.61	268.45
707.94	268.06
708.27	267.25
708.61	266.48
708.94	266.03
709.28	265.65
709.61	265.30
709.94	265.04
710.28	264.54
710.61	264.05
710.95	263.25
711.28	263.24
711.61	262.82
711.95	262.67
712.28	262.28
712.61	261.93
712.95	261.84
713.28	261.69
713.61	261.28
713.95	260.86
714.28	260.55
714.61	260.16
714.95	259.75
715.28	259.43
715.61	259.12
715.95	258.83
716.28	258.54
716.61	258.22
716.95	257.86
717.28	257.60
717.61	257.32
717.94	257.10
718.28	256.42
718.61	256.12
718.94	255.67
719.27	255.37
719.61	255.18
719.94	254.82
720.27	254.28
720.60	254.01
720.94	253.64
721.27	253.41
721.60	253.31
721.93	253.04
722.27	252.95
722.60	252.80
722.93	252.47
723.26	252.33
723.59	252.00
723.93	251.79
724.26	251.62
724.59	251.35
724.92	251.11
725.25	251.00
725.59	250.73
725.92	250.59
726.25	250.37
726.58	250.06
726.91	249.77
727.24	249.65
727.57	249.42
727.91	249.12
728.24	249.00
728.57	248.71
728.90	248.61
729.23	248.24
729.56	248.33
729.89	248.20
730.22	247.89
730.55	247.75
730.89	247.52
731.22	247.33
731.55	247.14
731.88	247.02
732.21	246.77
732.54	246.54
732.87	246.34
733.20	246.20
733.53	246.12
733.86	246.01
734.19	245.67
734.52	245.54
734.85	245.73
735.18	245.45
735.51	245.42
735.84	245.26
736.17	245.26
736.50	244.79
736.83	245.18
737.16	245.07
737.49	244.89
737.82	244.77
738.15	244.68
738.48	244.57
738.81	244.31
739.14	244.07
739.47	243.93
739.80	243.81
740.13	243.75
740.46	243.47
740.79	243.27
741.12	243.20
741.45	243.04
741.78	242.70
742.11	242.77
742.44	242.53
742.77	242.43
743.10	242.25
743.43	242.03
743.75	241.29
744.08	241.78
744.41	241.66
744.74	241.48
745.07	241.26
745.40	241.25
745.73	241.42
746.06	241.29
746.39	241.28
746.71	241.06
747.04	240.85
747.37	240.73
747.70	240.66
748.03	240.58
748.36	240.48
748.68	240.36
749.01	240.13
749.34	240.01
749.67	239.95
750.00	239.86
750.33	240.16
750.65	240.19
750.98	239.49
751.31	239.44
751.64	239.39
751.97	239.53
752.29	239.29
752.62	238.95
752.95	238.89
753.28	238.65
753.60	238.56
753.93	238.61
754.26	238.52
754.59	238.33
754.91	238.16
755.24	238.00
755.57	237.91
755.90	237.74
756.22	237.60
756.55	237.41
756.88	237.19
757.20	236.80
757.53	236.59
757.86	236.47
758.19	236.35
758.51	236.16
758.84	235.85
759.17	235.71
759.49	235.62
759.82	235.81
760.15	235.82
760.47	235.76
760.80	235.49
761.13	235.50
761.45	235.43
761.78	235.35
762.11	235.26
762.43	235.04
762.76	234.98
763.08	234.93
763.41	234.95
763.74	234.90
764.06	234.78
764.39	234.68
764.71	234.55
765.04	234.50
765.37	234.44
765.69	234.30
766.02	234.27
766.34	234.14
766.67	233.83
767.00	233.84
767.32	234.07
767.65	234.33
767.97	234.19
768.30	234.11
768.62	234.06
768.95	233.98
769.27	233.93
769.60	233.91
769.92	233.76
770.25	233.55
770.57	233.45
770.90	233.33
771.22	233.26
771.55	233.19
771.87	233.11
772.20	233.04
772.52	233.40
772.85	233.92
773.17	233.95
773.50	233.84
773.82	233.66
774.15	233.34
774.47	233.01
774.80	232.94
775.12	232.86
775.45	232.82
775.77	232.75
776.09	232.80
776.42	232.75
776.74	232.85
777.07	232.80
777.39	232.73
777.72	232.70
778.04	232.71
778.36	232.72
778.69	232.70
779.01	232.71
779.33	232.30
779.66	231.67
779.98	231.47
780.31	231.53
780.63	231.77
780.95	231.80
781.28	231.72
781.60	231.64
781.92	231.58
782.25	231.52
782.57	231.55
782.89	231.45
783.22	231.36
783.54	231.24
783.86	231.24
784.19	231.19
784.51	231.36
784.83	231.30
785.16	231.23
785.48	231.12
785.80	231.12
786.12	231.11
786.45	231.15
786.77	231.27
787.09	231.19
787.42	230.96
787.74	230.95
788.06	230.97
788.38	230.93
788.71	230.89
789.03	230.88
789.35	230.93
789.67	230.83
789.99	230.76
790.32	230.64
790.64	230.65
790.96	231.04
791.28	230.82
791.61	230.71
791.93	230.69
792.25	230.73
792.57	231.04
792.89	230.94
793.21	230.95
793.54	230.83
793.86	230.72
794.18	230.68
794.50	230.58
794.82	230.55
795.14	230.56
795.47	230.62
795.79	230.60
796.11	230.49
796.43	230.49
796.75	230.50
797.07	230.56
797.39	230.49
797.71	230.16
798.04	230.19
798.36	230.28
798.68	230.29
799.00	230.26
799.32	229.98
799.64	230.06
799.96	230.04
800.28	230.15
800.60	230.13
800.92	230.16
801.24	230.13
801.56	230.13
801.89	230.06
802.21	229.99
802.53	229.89
802.85	229.93
803.17	230.11
803.49	230.04
803.81	230.02
804.13	230.00
804.45	229.93
804.77	229.89
805.09	229.75
805.41	229.71
805.73	229.61
806.05	229.46
806.37	229.37
806.69	229.25
807.01	229.18
807.33	229.20
807.65	229.01
807.97	229.14
808.28	229.05
808.60	229.06
808.92	229.06
809.24	229.35
809.56	229.27
809.88	229.12
810.20	229.14
810.52	229.16
810.84	229.08
811.16	228.99
811.48	229.00
811.80	229.17
812.12	229.12
812.43	229.22
812.75	229.26
813.07	229.17
813.39	229.17
813.71	229.02
814.03	228.93
814.35	228.94
814.67	228.76
814.98	228.71
815.30	228.72
815.62	228.64
815.94	228.34
816.26	228.56
816.58	228.42
816.89	228.44
817.21	228.33
817.53	228.32
817.85	228.38
818.17	228.33
818.48	228.19
818.80	228.21
819.12	228.18
819.44	228.02
819.76	228.04
820.07	228.11
820.39	228.19
820.71	228.29
821.03	228.30
821.34	228.27
821.66	228.38
821.98	228.42
822.30	228.40
822.61	228.71
822.93	228.41
823.25	228.40
823.57	228.31
823.88	228.43
824.20	228.45
824.52	228.42
824.83	228.44
825.15	228.38
825.47	228.40
825.79	228.37
826.10	228.40
826.42	228.40
826.74	228.37
827.05	228.30
827.37	228.34
827.69	228.30
828.00	228.30
828.32	228.28
828.64	228.22
828.95	228.51
829.27	228.34
829.58	228.38
829.90	228.57
830.22	228.67
830.53	228.51
830.85	228.41
831.17	228.24
831.48	228.19
831.80	228.20
832.11	228.16
832.43	228.10
832.75	228.13
833.06	228.31
833.38	228.25
833.69	228.19
834.01	228.12
834.32	228.05
834.64	228.01
834.96	228.00
835.27	227.94
835.59	227.67
835.90	227.58
836.22	227.53
836.53	227.33
836.85	227.19
837.16	227.66
837.48	227.76
837.79	228.02
838.11	228.04
838.42	228.03
838.74	228.07
839.05	228.00
839.37	227.95
839.68	227.68
840.00	227.65
840.31	227.72
840.63	227.72
840.94	227.73
841.26	227.66
841.57	227.66
841.88	227.73
842.20	227.63
842.51	227.55
842.83	227.54
843.14	227.98
843.46	228.04
843.77	227.78
844.08	227.72
844.40	227.53
844.71	227.49
845.03	227.45
845.34	227.37
845.65	227.38
845.97	227.35
846.28	227.38
846.60	227.40
846.91	227.40
847.22	227.33
847.54	227.43
847.85	227.49
848.16	227.46
848.48	227.41
848.79	227.58
849.10	227.68
849.42	227.84
849.73	227.40
850.04	227.38
850.36	227.18
850.67	227.28
850.98	227.35
851.30	227.32
851.61	227.37
851.92	227.38
852.23	227.53
852.55	227.64
852.86	227.70
853.17	227.72
853.49	227.72
853.80	227.83
854.11	227.84
854.42	227.89
854.74	227.78
855.05	227.76
855.36	227.56
855.67	227.59
855.99	227.56
856.30	228.11
856.61	228.13
856.92	228.17
857.23	228.09
857.55	228.06
857.86	228.07
858.17	228.14
858.48	228.07
858.79	227.96
859.11	228.03
859.42	227.95
859.73	227.85
860.04	227.89
860.35	227.75
860.66	227.57
860.98	227.54
861.29	227.67
861.60	227.62
861.91	227.76
862.22	227.61
862.53	227.49
862.84	226.89
863.16	227.02
863.47	226.93
863.78	226.88
864.09	226.97
864.40	226.98
864.71	226.98
865.02	227.05
865.33	227.01
865.64	226.87
865.95	226.91
866.27	227.20
866.58	227.12
866.89	227.23
867.20	227.31
867.51	227.20
867.82	227.12
868.13	227.29
868.44	227.16
868.75	227.31
869.06	227.26
869.37	227.41
869.68	227.18
869.99	227.29
870.30	227.35
870.61	227.26
870.92	227.23
871.23	227.16
871.54	227.20
871.85	227.35
872.16	227.40
872.47	227.29
872.78	226.99
873.09	227.06
873.40	226.97
873.71	226.97
874.02	227.06
874.33	227.02
874.64	226.90
874.95	227.01
875.26	226.84
875.56	226.86
875.87	226.74
876.18	226.70
876.49	227.16
876.80	227.13
877.11	227.12
877.42	227.12
877.73	227.09
878.04	227.03
878.35	226.96
878.66	226.93
878.96	226.98
879.27	226.99
879.58	226.98
879.89	226.96
880.20	227.11
880.51	227.05
880.82	227.07
881.12	227.04
881.43	226.91
881.74	226.91
882.05	226.95
882.36	226.95
882.67	227.08
882.97	226.48
883.28	226.41
883.59	226.37
883.90	226.40
884.21	226.52
884.51	226.47
884.82	226.39
885.13	226.38
885.44	226.35
885.74	226.38
886.05	226.36
886.36	226.38
886.67	226.17
886.98	226.36
887.28	226.40
887.59	226.46
887.90	226.50
888.20	226.45
888.51	226.51
888.82	226.48
889.13	226.47
889.43	226.88
889.74	226.93
890.05	226.89
890.35	226.84
890.66	226.77
890.97	226.71
891.28	226.68
891.58	226.64
891.89	226.70
892.20	226.66
892.50	226.55
892.81	226.52
893.12	226.51
893.42	226.32
893.73	226.29
894.04	226.30
894.34	226.30
894.65	226.31
894.95	226.23
895.26	226.26
895.57	226.51
895.87	226.11
896.18	226.20
896.48	226.27
896.79	226.27
897.10	226.28
897.40	226.44
897.71	226.57
898.01	226.60
898.32	226.61
898.63	226.63
898.93	226.69
899.24	226.72
899.54	226.69
899.85	226.68
900.15	226.75
900.46	226.75
900.76	226.94
901.07	227.00
901.38	227.00
901.68	227.04
901.99	226.77
902.29	226.80
902.60	226.71
902.90	226.64
903.21	226.69
903.51	226.67
903.82	226.70
904.12	226.57
904.43	226.59
904.73	226.60
905.03	226.60
905.34	227.06
905.64	227.02
905.95	227.08
906.25	227.14
906.56	227.15
906.86	227.12
907.17	227.02
907.47	227.05
907.77	227.08
908.08	226.97
908.38	227.00
908.69	227.08
908.99	227.21
909.30	227.29
909.60	227.28
909.90	227.26
910.21	227.11
910.51	227.13
910.81	227.14
911.12	227.13
911.42	227.15
911.73	226.70
912.03	226.76
912.33	226.81
912.64	226.72
912.94	226.62
913.24	226.55
913.55	226.46
913.85	226.42
914.15	226.45
914.46	226.60
914.76	226.65
915.06	226.64
915.37	226.52
915.67	226.46
915.97	226.42
916.27	226.30
916.58	226.40
916.88	226.35
917.18	226.32
917.49	226.67
917.79	226.62
918.09	226.67
918.39	226.72
918.70	226.74
919.00	226.79
919.30	226.98
919.60	226.96
919.91	226.90
920.21	226.90
920.51	226.77
920.81	226.77
921.12	226.74
921.42	226.63
921.72	226.67
922.02	226.76
922.32	226.85
922.63	226.85
922.93	226.99
923.23	227.05
923.53	227.08
923.83	226.75
924.13	226.83
924.44	226.85
924.74	226.96
925.04	227.00
925.34	227.04
925.64	226.82
925.94	226.87
926.24	227.15
926.55	227.09
926.85	227.20
927.15	227.18
927.45	227.20
927.75	227.19
928.05	227.24
928.35	227.14
928.65	227.19
928.95	227.35
929.26	227.17
929.56	227.21
929.86	227.26
930.16	227.27
930.46	227.25
930.76	227.26
931.06	227.05
931.36	226.89
931.66	226.88
931.96	227.02
932.26	227.03
932.56	226.84
932.86	226.99
933.16	227.01
933.46	226.94
933.76	226.85
934.06	227.05
934.36	227.23
934.66	227.19
934.96	227.14
935.26	227.23
935.56	227.38
935.86	227.28
936.16	227.23
936.46	227.18
936.76	227.07
937.06	227.03
937.36	227.06
937.66	227.21
937.96	227.23
938.26	227.11
938.56	227.07
938.86	227.17
939.16	227.21
939.46	227.23
939.76	227.26
940.06	227.27
940.35	227.13
940.65	226.84
940.95	226.95
941.25	226.87
941.55	226.67
941.85	226.62
942.15	226.82
942.45	226.95
942.75	226.95
943.04	227.07
943.34	227.08
943.64	227.00
943.94	226.91
944.24	226.94
944.54	226.95
944.84	226.96
945.13	226.86
945.43	226.72
945.73	226.71
946.03	226.65
946.33	226.69
946.62	226.60
946.92	226.62
947.22	226.62
947.52	226.64
947.82	226.79
948.11	226.73
948.41	226.55
948.71	226.34
949.01	226.41
949.31	226.28
949.60	226.27
949.90	226.40
950.20	226.38
950.50	226.34
950.79	226.29
951.09	226.33
951.39	226.30
951.69	226.32
951.98	226.39
952.28	226.44
952.58	226.38
952.87	226.47
953.17	226.49
953.47	226.45
953.76	226.45
954.06	226.26
954.36	226.20
954.66	226.24
954.95	226.40
955.25	226.43
955.55	226.55
955.84	226.52
956.14	226.52
956.44	226.50
956.73	226.44
957.03	226.50
957.32	226.44
957.62	226.44
957.92	226.51
958.21	226.45
958.51	226.99
958.81	227.00
959.10	227.00
959.40	227.10
959.69	227.14
959.99	227.16
960.29	227.17
960.58	227.15
960.88	227.31
961.17	227.25
961.47	227.30
961.76	227.25
962.06	227.30
962.36	227.21
962.65	227.27
962.95	227.29
963.24	227.26
963.54	227.30
963.83	227.37
964.13	227.29
964.42	227.17
964.72	226.77
965.01	226.83
965.31	226.89
965.60	226.77
965.90	227.08
966.19	227.05
966.49	227.07
966.78	227.13
967.08	227.01
967.37	227.03
967.67	226.91
967.96	227.00
968.26	227.01
968.55	227.08
968.85	227.08
969.14	227.14
969.43	227.15
969.73	227.14
970.02	227.09
970.32	227.04
970.61	227.03
970.91	226.96
971.20	226.90
971.49	226.84
971.79	226.88
972.08	226.58
972.38	226.59
972.67	226.63
972.96	226.62
973.26	226.60
973.55	226.79
973.85	226.76
974.14	226.73
974.43	226.74
974.73	226.67
975.02	226.67
975.31	226.57
975.61	226.59
975.90	226.49
976.19	226.52
976.49	226.61
976.78	226.72
977.07	226.74
977.37	226.67
977.66	226.75
977.95	226.71
978.24	226.72
978.54	226.86
978.83	226.78
979.12	226.72
979.42	226.76
979.71	226.61
980.00	226.65
980.29	226.65
980.59	226.61
980.88	226.76
981.17	226.72
981.46	226.81
981.76	226.77
982.05	227.00
982.34	227.01
982.63	227.06
982.93	227.07
983.22	227.13
983.51	227.22
983.80	227.22
984.09	227.25
984.39	227.23
984.68	227.09
984.97	227.15
985.26	227.11
985.55	227.11
985.85	227.01
986.14	227.05
986.43	227.13
986.72	227.07
987.01	226.93
987.30	226.93
987.59	226.88
987.89	226.91
988.18	226.74
988.47	226.66
988.76	226.62
989.05	226.51
989.34	226.39
989.63	226.48
989.92	226.41
990.22	226.39
990.51	226.33
990.80	226.33
991.09	226.33
991.38	226.43
991.67	226.35
991.96	226.36
992.25	226.35
992.54	226.25
992.83	226.30
993.12	226.31
993.41	226.38
993.70	226.58
993.99	226.70
994.28	226.77
994.58	226.89
994.87	226.78
995.16	226.79
995.45	226.83
995.74	226.63
996.03	226.69
996.32	226.74
996.61	226.86
996.90	226.81
997.19	226.86
997.48	226.82
997.77	226.81
998.06	226.82
998.34	226.78
998.63	226.77
998.92	226.73
999.21	226.79
999.50	226.80
999.79	226.65
1000.08	226.53
1000.37	226.56
1000.66	226.45
1000.95	226.60
1001.24	226.61
1001.53	226.65
1001.82	226.70
1002.11	226.65
1002.40	226.63
1002.68	226.75
1002.97	227.05
1003.26	226.94
1003.55	226.86
1003.84	226.93
1004.13	227.05
1004.42	227.06
1004.71	227.09
1004.99	226.99
1005.28	227.06
1005.57	227.04
1005.86	226.93
1006.15	226.92
1006.44	226.81
1006.72	226.85
1007.01	226.77
1007.30	226.74
1007.59	226.70
1007.88	226.68
1008.17	226.68
1008.45	226.60
1008.74	226.31
1009.03	226.15
1009.32	226.17
1009.60	226.15
1009.89	226.07
1010.18	225.84
1010.47	225.75
1010.76	225.69
1011.04	225.70
1011.33	225.69
1011.62	225.73
1011.91	225.81
1012.19	225.82
1012.48	225.90
1012.77	225.85
1013.05	226.02
1013.34	226.08
1013.63	226.08
1013.92	226.10
1014.20	226.05
1014.49	226.04
1014.78	226.07
1015.06	225.92
1015.35	225.91
1015.64	226.04
1015.92	226.07
1016.21	226.16
1016.50	226.18
1016.78	226.22
1017.07	226.35
1017.36	226.21
1017.64	226.11
1017.93	226.12
1018.22	226.10
1018.50	226.02
1018.79	226.08
1019.08	225.81
1019.36	225.75
1019.65	225.64
1019.93	225.75
1020.22	225.85
1020.51	226.11
1020.79	226.13
1021.08	225.80
1021.36	225.05
1021.65	226.75
1021.94	224.45
1022.22	224.95
1022.51	225.05
1022.79	228.30
1023.08	227.05
1023.36	231.05
1023.65	225.20
>>>>>End Processed Spectral Data<<<<<
