SpectraSuite Data File
++++++++++++++++++++++++++++++++++++
Date: Wed Sep 04 18:02:37 EDT 2013
User: lab3
Dark Spectrum Present: Yes
Reference Spectrum Present: No
Number of Sampled Component Spectra: 1
Spectrometers: USB2E7196
Integration Time (usec): 170000 (USB2E7196)
Spectra Averaged: 20 (USB2E7196)
Boxcar Smoothing: 10 (USB2E7196)
Correct for Electrical Dark: No (USB2E7196)
Strobe/Lamp Enabled: No (USB2E7196)
Correct for Detector Non-linearity: No (USB2E7196)
Correct for Stray Light: No (USB2E7196)
Number of Pixels in Processed Spectrum: 2048
>>>>>Begin Processed Spectral Data<<<<<
339.09	0.00
339.48	213.00
339.86	213.30
340.24	216.25
340.63	218.65
341.01	226.00
341.39	220.95
341.78	222.95
342.16	224.70
342.54	224.70
342.93	212.60
343.31	223.33
343.69	223.95
344.07	224.47
344.46	224.98
344.84	225.38
345.22	225.33
345.60	225.57
345.99	225.82
346.37	225.90
346.75	225.98
347.13	226.13
347.52	226.25
347.90	226.41
348.28	226.48
348.66	226.65
349.05	226.49
349.43	226.61
349.81	226.66
350.19	226.79
350.57	226.89
350.96	226.92
351.34	227.04
351.72	227.07
352.10	227.22
352.48	227.21
352.87	227.24
353.25	227.37
353.63	227.45
354.01	227.40
354.39	227.43
354.77	227.45
355.15	227.65
355.54	227.62
355.92	227.50
356.30	227.51
356.68	227.81
357.06	227.90
357.44	227.88
357.82	227.96
358.20	228.38
358.58	228.38
358.97	228.50
359.35	228.60
359.73	228.74
360.11	228.77
360.49	228.80
360.87	228.91
361.25	228.98
361.63	229.22
362.01	229.28
362.39	229.28
362.77	229.38
363.15	229.29
363.53	229.32
363.91	229.40
364.29	229.45
364.67	229.14
365.05	229.15
365.43	229.23
365.81	229.35
366.19	229.18
366.57	229.46
366.95	229.46
367.33	229.34
367.71	229.36
368.09	229.45
368.47	229.53
368.85	229.51
369.23	229.60
369.61	229.39
369.99	229.62
370.37	229.78
370.75	229.99
371.13	229.91
371.51	229.89
371.89	229.95
372.27	229.89
372.65	229.89
373.03	229.92
373.41	229.91
373.78	229.78
374.16	229.51
374.54	229.29
374.92	229.14
375.30	229.20
375.68	229.06
376.06	228.98
376.44	228.87
376.82	228.72
377.19	228.66
377.57	228.60
377.95	228.35
378.33	228.24
378.71	227.94
379.09	228.04
379.47	228.04
379.84	227.91
380.22	227.83
380.60	227.63
380.98	227.50
381.36	227.42
381.73	227.33
382.11	227.42
382.49	227.32
382.87	227.28
383.25	227.19
383.62	227.70
384.00	227.57
384.38	227.61
384.76	227.71
385.13	227.80
385.51	227.73
385.89	227.57
386.27	227.56
386.64	227.58
387.02	227.45
387.40	227.36
387.78	227.35
388.15	227.41
388.53	227.37
388.91	227.38
389.29	227.23
389.66	227.24
390.04	227.10
390.42	227.20
390.79	227.20
391.17	227.13
391.55	226.50
391.92	226.52
392.30	226.48
392.68	226.30
393.05	226.22
393.43	226.34
393.81	226.38
394.18	226.29
394.56	226.27
394.94	226.39
395.31	226.35
395.69	226.52
396.06	226.61
396.44	226.69
396.82	226.65
397.19	227.11
397.57	227.18
397.95	227.31
398.32	227.23
398.70	227.31
399.07	227.55
399.45	227.67
399.82	227.76
400.20	227.78
400.58	227.95
400.95	227.90
401.33	228.04
401.70	228.45
402.08	228.57
402.45	228.69
402.83	228.89
403.20	229.07
403.58	229.17
403.95	229.42
404.33	229.60
404.71	229.87
405.08	230.25
405.46	230.47
405.83	230.75
406.21	231.09
406.58	231.36
406.96	231.62
407.33	231.94
407.70	232.30
408.08	233.07
408.45	233.48
408.83	233.92
409.20	234.27
409.58	234.49
409.95	235.07
410.33	235.64
410.70	236.11
411.08	236.80
411.45	237.46
411.82	237.96
412.20	238.76
412.57	239.74
412.95	240.05
413.32	240.91
413.69	241.74
414.07	242.61
414.44	243.59
414.82	244.61
415.19	245.89
415.56	247.13
415.94	248.19
416.31	249.69
416.68	251.20
417.06	252.83
417.43	254.47
417.81	256.18
418.18	257.99
418.55	259.90
418.93	261.91
419.30	263.96
419.67	266.24
420.04	268.54
420.42	270.91
420.79	273.94
421.16	276.72
421.54	279.72
421.91	282.75
422.28	285.95
422.66	289.23
423.03	292.69
423.40	296.09
423.77	299.55
424.15	303.15
424.52	306.88
424.89	311.09
425.26	315.13
425.64	319.05
426.01	323.24
426.38	327.51
426.75	332.13
427.13	336.72
427.50	341.49
427.87	346.43
428.24	351.32
428.61	356.03
428.99	361.40
429.36	366.92
429.73	372.55
430.10	378.07
430.47	383.72
430.85	389.39
431.22	395.60
431.59	402.49
431.96	408.70
432.33	415.62
432.70	422.24
433.08	430.07
433.45	437.45
433.82	444.85
434.19	453.20
434.56	461.30
434.93	468.95
435.30	476.75
435.68	485.64
436.05	494.13
436.42	502.35
436.79	509.98
437.16	518.32
437.53	527.03
437.90	535.74
438.27	544.42
438.64	553.47
439.01	561.67
439.38	568.86
439.75	576.02
440.13	584.15
440.50	591.82
440.87	597.85
441.24	604.38
441.61	611.44
441.98	616.51
442.35	622.30
442.72	628.43
443.09	634.42
443.46	637.41
443.83	639.75
444.20	641.82
444.57	644.56
444.94	645.80
445.31	646.84
445.68	648.10
446.05	648.35
446.42	646.82
446.79	645.49
447.16	643.85
447.53	642.77
447.90	638.95
448.27	635.21
448.64	630.33
449.01	626.53
449.37	620.42
449.74	614.30
450.11	607.42
450.48	599.60
450.85	591.38
451.22	584.72
451.59	578.06
451.96	571.57
452.33	563.51
452.70	555.99
453.07	547.31
453.43	538.24
453.80	529.69
454.17	521.60
454.54	513.86
454.91	505.64
455.28	497.53
455.65	490.25
456.02	483.36
456.38	477.05
456.75	469.18
457.12	462.55
457.49	456.24
457.86	449.94
458.23	444.77
458.59	439.10
458.96	433.24
459.33	428.06
459.70	422.98
460.07	418.79
460.43	414.19
460.80	409.96
461.17	406.20
461.54	402.16
461.91	398.36
462.27	394.45
462.64	391.31
463.01	387.76
463.38	384.32
463.74	380.30
464.11	377.25
464.48	374.63
464.85	371.72
465.21	369.55
465.58	367.17
465.95	364.33
466.32	362.09
466.68	359.84
467.05	357.71
467.42	355.50
467.78	353.22
468.15	351.05
468.52	349.43
468.88	347.23
469.25	345.35
469.62	343.91
469.98	342.29
470.35	340.65
470.72	339.09
471.08	337.40
471.45	336.16
471.82	334.97
472.18	333.51
472.55	332.59
472.92	331.27
473.28	330.18
473.65	328.99
474.02	327.83
474.38	327.01
474.75	326.22
475.11	325.35
475.48	324.68
475.85	323.95
476.21	323.33
476.58	322.83
476.94	322.48
477.31	322.02
477.67	321.58
478.04	321.16
478.41	321.02
478.77	321.30
479.14	320.97
479.50	320.80
479.87	320.88
480.23	320.87
480.60	320.92
480.96	320.85
481.33	321.38
481.69	321.62
482.06	321.82
482.42	322.04
482.79	322.34
483.15	322.77
483.52	323.45
483.88	323.89
484.25	324.40
484.61	324.96
484.98	325.62
485.34	326.66
485.71	327.59
486.07	328.48
486.44	329.01
486.80	330.20
487.17	331.35
487.53	332.66
487.90	334.03
488.26	335.60
488.62	337.27
488.99	338.71
489.35	340.54
489.72	342.41
490.08	344.34
490.44	346.43
490.81	348.70
491.17	350.80
491.54	353.29
491.90	355.86
492.26	358.62
492.63	361.39
492.99	364.19
493.36	367.41
493.72	370.77
494.08	374.31
494.45	377.89
494.81	381.77
495.17	385.67
495.54	389.84
495.90	394.06
496.26	398.57
496.63	403.21
496.99	407.97
497.35	413.00
497.72	418.29
498.08	423.76
498.44	429.37
498.80	435.37
499.17	441.36
499.53	447.75
499.89	454.39
500.26	461.27
500.62	468.27
500.98	475.68
501.34	483.08
501.71	490.77
502.07	498.59
502.43	506.75
502.79	515.30
503.16	524.01
503.52	533.09
503.88	542.36
504.24	552.08
504.60	562.03
504.97	572.51
505.33	583.17
505.69	594.37
506.05	605.43
506.41	616.86
506.78	628.77
507.14	640.80
507.50	653.13
507.86	665.83
508.22	678.79
508.59	691.89
508.95	705.82
509.31	720.04
509.67	734.59
510.03	749.07
510.39	763.59
510.75	778.58
511.12	793.95
511.48	809.52
511.84	825.30
512.20	841.31
512.56	857.46
512.92	874.14
513.28	890.98
513.64	908.28
514.00	925.81
514.37	943.34
514.73	961.58
515.09	979.88
515.45	998.20
515.81	1016.83
516.17	1035.48
516.53	1054.09
516.89	1072.85
517.25	1092.18
517.61	1112.35
517.97	1132.72
518.33	1152.90
518.69	1173.07
519.05	1193.66
519.41	1214.56
519.77	1235.83
520.13	1256.65
520.49	1277.50
520.85	1299.85
521.21	1321.31
521.57	1342.70
521.93	1363.86
522.29	1385.07
522.65	1405.97
523.01	1426.96
523.37	1447.63
523.73	1468.86
524.09	1489.37
524.45	1510.26
524.81	1531.33
525.17	1552.09
525.53	1572.84
525.89	1593.88
526.25	1615.05
526.61	1635.47
526.97	1656.41
527.33	1677.57
527.68	1699.66
528.04	1720.94
528.40	1740.50
528.76	1761.30
529.12	1781.55
529.48	1802.47
529.84	1822.43
530.20	1843.67
530.56	1864.52
530.91	1885.66
531.27	1906.35
531.63	1927.32
531.99	1948.31
532.35	1968.43
532.71	1988.69
533.07	2009.71
533.42	2029.77
533.78	2049.75
534.14	2069.92
534.50	2089.20
534.86	2108.61
535.21	2126.16
535.57	2144.84
535.93	2162.52
536.29	2180.69
536.65	2199.07
537.00	2216.81
537.36	2234.63
537.72	2251.05
538.08	2268.46
538.44	2285.22
538.79	2301.72
539.15	2318.17
539.51	2333.95
539.87	2349.34
540.22	2363.59
540.58	2377.67
540.94	2390.97
541.29	2403.51
541.65	2416.06
542.01	2428.60
542.37	2439.20
542.72	2450.38
543.08	2460.95
543.44	2473.05
543.79	2483.39
544.15	2493.38
544.51	2503.27
544.87	2513.22
545.22	2522.17
545.58	2530.05
545.94	2537.63
546.29	2544.44
546.65	2550.93
547.01	2556.45
547.36	2561.75
547.72	2567.44
548.07	2571.78
548.43	2577.31
548.79	2582.11
549.14	2586.68
549.50	2590.79
549.86	2594.98
550.21	2598.80
550.57	2602.35
550.92	2603.82
551.28	2605.00
551.64	2607.38
551.99	2609.42
552.35	2611.24
552.70	2612.89
553.06	2614.69
553.41	2615.67
553.77	2617.25
554.13	2619.05
554.48	2620.99
554.84	2622.85
555.19	2624.13
555.55	2625.72
555.90	2625.03
556.26	2624.78
556.61	2623.04
556.97	2620.78
557.32	2620.24
557.68	2619.41
558.03	2618.14
558.39	2617.17
558.74	2616.46
559.10	2613.59
559.45	2610.28
559.81	2606.16
560.16	2601.69
560.52	2597.08
560.87	2592.86
561.23	2587.59
561.58	2581.69
561.94	2574.70
562.29	2567.09
562.64	2559.93
563.00	2551.70
563.35	2545.32
563.71	2538.15
564.06	2531.97
564.42	2525.38
564.77	2518.38
565.12	2510.64
565.48	2502.87
565.83	2494.82
566.19	2486.80
566.54	2478.98
566.89	2470.91
567.25	2462.75
567.60	2455.51
567.96	2447.79
568.31	2439.62
568.66	2430.90
569.02	2421.67
569.37	2413.59
569.72	2406.30
570.08	2397.18
570.43	2387.45
570.78	2377.92
571.14	2368.80
571.49	2358.77
571.84	2349.53
572.20	2338.61
572.55	2328.61
572.90	2317.62
573.26	2307.18
573.61	2295.88
573.96	2284.79
574.31	2272.65
574.67	2260.77
575.02	2247.88
575.37	2234.81
575.72	2221.74
576.08	2209.45
576.43	2197.12
576.78	2184.11
577.13	2170.19
577.49	2157.18
577.84	2145.62
578.19	2133.57
578.54	2120.86
578.90	2108.60
579.25	2095.98
579.60	2083.35
579.95	2070.12
580.30	2056.80
580.66	2043.09
581.01	2029.50
581.36	2015.45
581.71	2002.64
582.06	1989.62
582.42	1977.24
582.77	1964.79
583.12	1952.61
583.47	1940.29
583.82	1927.86
584.17	1915.55
584.53	1903.75
584.88	1890.87
585.23	1877.68
585.58	1863.53
585.93	1850.14
586.28	1836.55
586.63	1822.16
586.98	1808.03
587.34	1794.76
587.69	1781.61
588.04	1769.41
588.39	1757.18
588.74	1744.69
589.09	1732.68
589.44	1719.99
589.79	1707.70
590.14	1695.50
590.49	1683.28
590.84	1671.18
591.19	1659.31
591.54	1646.85
591.89	1634.36
592.25	1623.85
592.60	1612.16
592.95	1600.82
593.30	1588.83
593.65	1577.23
594.00	1565.66
594.35	1555.95
594.70	1544.16
595.05	1532.82
595.40	1520.42
595.75	1508.28
596.10	1497.16
596.45	1485.26
596.80	1474.32
597.15	1462.99
597.50	1451.50
597.85	1440.29
598.19	1428.41
598.54	1416.81
598.89	1405.61
599.24	1394.97
599.59	1383.12
599.94	1372.09
600.29	1361.32
600.64	1351.07
600.99	1340.12
601.34	1330.43
601.69	1318.86
602.04	1308.79
602.39	1298.96
602.74	1289.67
603.08	1280.46
603.43	1270.79
603.78	1261.35
604.13	1251.49
604.48	1241.52
604.83	1231.52
605.18	1221.57
605.53	1212.04
605.87	1202.59
606.22	1194.13
606.57	1184.61
606.92	1175.35
607.27	1166.29
607.62	1157.62
607.96	1148.83
608.31	1140.71
608.66	1132.14
609.01	1123.48
609.36	1114.84
609.70	1106.19
610.05	1097.38
610.40	1088.82
610.75	1080.17
611.10	1071.49
611.44	1062.88
611.79	1054.67
612.14	1046.79
612.49	1038.77
612.83	1031.24
613.18	1023.49
613.53	1015.39
613.88	1007.44
614.22	999.85
614.57	992.17
614.92	984.23
615.27	976.69
615.61	969.16
615.96	961.46
616.31	954.10
616.65	947.04
617.00	939.75
617.35	932.69
617.70	925.49
618.04	918.18
618.39	911.27
618.74	904.87
619.08	897.88
619.43	890.73
619.78	883.54
620.12	876.28
620.47	869.45
620.82	862.26
621.16	855.52
621.51	849.04
621.85	842.51
622.20	835.74
622.55	828.95
622.89	822.30
623.24	815.86
623.59	809.30
623.93	802.94
624.28	796.67
624.62	790.83
624.97	784.80
625.32	779.24
625.66	773.11
626.01	766.77
626.35	761.19
626.70	755.48
627.04	750.29
627.39	744.75
627.73	739.27
628.08	733.98
628.43	728.57
628.77	722.98
629.12	717.50
629.46	712.71
629.81	707.92
630.15	702.97
630.50	698.02
630.84	693.30
631.19	688.48
631.53	683.74
631.88	678.40
632.22	673.45
632.57	668.77
632.91	664.30
633.26	659.83
633.60	655.02
633.95	650.30
634.29	645.38
634.64	640.92
634.98	635.96
635.32	631.52
635.67	627.43
636.01	623.15
636.36	618.93
636.70	614.73
637.05	610.47
637.39	606.28
637.73	602.06
638.08	597.90
638.42	593.56
638.77	589.26
639.11	584.88
639.45	580.63
639.80	576.15
640.14	571.97
640.49	567.87
640.83	563.95
641.17	560.38
641.52	556.67
641.86	553.04
642.20	549.95
642.55	546.25
642.89	542.48
643.23	539.05
643.58	535.87
643.92	532.28
644.26	528.77
644.61	525.51
644.95	522.30
645.29	518.78
645.64	515.69
645.98	512.56
646.32	509.73
646.66	506.63
647.01	503.71
647.35	500.89
647.69	498.05
648.04	495.25
648.38	492.29
648.72	489.38
649.06	486.28
649.41	483.02
649.75	480.14
650.09	477.33
650.43	474.45
650.78	471.48
651.12	468.67
651.46	465.91
651.80	463.14
652.14	460.32
652.49	457.85
652.83	455.15
653.17	452.48
653.51	449.70
653.85	447.23
654.20	444.70
654.54	442.14
654.88	439.62
655.22	437.35
655.56	435.07
655.90	432.77
656.25	430.51
656.59	428.38
656.93	426.23
657.27	424.13
657.61	421.67
657.95	419.31
658.29	417.18
658.64	415.07
658.98	412.73
659.32	410.47
659.66	408.20
660.00	406.14
660.34	404.10
660.68	402.08
661.02	400.04
661.36	398.01
661.70	396.01
662.05	394.07
662.39	392.11
662.73	390.22
663.07	388.51
663.41	386.66
663.75	384.74
664.09	382.77
664.43	380.87
664.77	379.15
665.11	377.51
665.45	375.69
665.79	374.08
666.13	372.45
666.47	370.72
666.81	369.10
667.15	367.30
667.49	365.73
667.83	364.41
668.17	363.02
668.51	361.58
668.85	360.20
669.19	359.03
669.53	357.37
669.87	355.76
670.21	354.19
670.55	352.80
670.89	351.68
671.23	350.35
671.57	348.89
671.91	347.58
672.25	346.10
672.58	344.96
672.92	343.45
673.26	342.08
673.60	340.95
673.94	339.75
674.28	338.60
674.62	337.56
674.96	336.23
675.30	334.95
675.64	333.78
675.97	332.56
676.31	331.13
676.65	330.01
676.99	329.09
677.33	327.84
677.67	326.79
678.01	325.31
678.34	324.29
678.68	323.40
679.02	322.30
679.36	321.28
679.70	320.19
680.04	319.30
680.37	318.41
680.71	317.38
681.05	316.56
681.39	315.69
681.73	314.67
682.06	313.73
682.40	312.85
682.74	312.04
683.08	311.29
683.42	310.43
683.75	309.68
684.09	308.77
684.43	308.06
684.77	307.18
685.10	306.44
685.44	305.63
685.78	304.77
686.12	304.03
686.45	303.36
686.79	302.45
687.13	301.70
687.46	300.99
687.80	300.37
688.14	299.47
688.48	298.73
688.81	297.86
689.15	297.33
689.49	296.58
689.82	295.75
690.16	294.75
690.50	294.13
690.83	293.41
691.17	292.60
691.51	291.96
691.84	291.31
692.18	290.70
692.52	290.04
692.85	289.41
693.19	288.89
693.52	288.30
693.86	287.68
694.20	287.05
694.53	286.49
694.87	285.81
695.21	285.23
695.54	284.60
695.88	284.05
696.21	283.21
696.55	282.65
696.88	282.05
697.22	281.49
697.56	280.88
697.89	280.28
698.23	279.80
698.56	279.21
698.90	278.69
699.23	278.15
699.57	277.61
699.90	276.94
700.24	276.27
700.58	275.73
700.91	275.43
701.25	275.29
701.58	275.04
701.92	274.65
702.25	274.20
702.59	273.68
702.92	273.22
703.26	272.86
703.59	272.36
703.93	272.36
704.26	272.05
704.60	271.69
704.93	271.17
705.26	270.69
705.60	270.28
705.93	269.80
706.27	269.53
706.60	269.22
706.94	269.12
707.27	268.76
707.61	268.37
707.94	267.89
708.27	267.17
708.61	266.50
708.94	266.03
709.28	265.66
709.61	265.28
709.94	264.93
710.28	264.51
710.61	264.18
710.95	263.36
711.28	263.30
711.61	262.84
711.95	262.64
712.28	262.27
712.61	261.94
712.95	261.94
713.28	261.74
713.61	261.28
713.95	260.79
714.28	260.54
714.61	260.15
714.95	259.77
715.28	259.40
715.61	259.01
715.95	258.74
716.28	258.39
716.61	258.06
716.95	257.65
717.28	257.33
717.61	257.11
717.94	256.86
718.28	256.23
718.61	255.91
718.94	255.50
719.27	255.27
719.61	255.06
719.94	254.61
720.27	254.13
720.60	253.81
720.94	253.50
721.27	253.26
721.60	253.13
721.93	252.91
722.27	252.80
722.60	252.69
722.93	252.38
723.26	252.20
723.59	251.91
723.93	251.88
724.26	251.82
724.59	251.58
724.92	251.42
725.25	251.28
725.59	251.12
725.92	250.99
726.25	250.76
726.58	250.55
726.91	250.30
727.24	250.19
727.57	249.99
727.91	249.73
728.24	249.48
728.57	249.21
728.90	249.08
729.23	248.78
729.56	248.75
729.89	248.56
730.22	248.39
730.55	248.30
730.89	248.05
731.22	247.77
731.55	247.51
731.88	247.32
732.21	247.06
732.54	246.82
732.87	246.72
733.20	246.52
733.53	246.29
733.86	246.10
734.19	245.83
734.52	245.75
734.85	245.95
735.18	245.71
735.51	245.70
735.84	245.56
736.17	245.50
736.50	245.09
736.83	245.53
737.16	245.35
737.49	245.21
737.82	245.03
738.15	244.96
738.48	244.79
738.81	244.63
739.14	244.39
739.47	244.22
739.80	243.99
740.13	243.90
740.46	243.79
740.79	243.58
741.12	243.44
741.45	243.23
741.78	242.74
742.11	242.67
742.44	242.36
742.77	242.26
743.10	242.03
743.43	241.91
743.75	241.21
744.08	241.65
744.41	241.49
744.74	241.35
745.07	241.04
745.40	241.01
745.73	241.08
746.06	241.01
746.39	240.94
746.71	240.77
747.04	240.60
747.37	240.44
747.70	240.45
748.03	240.28
748.36	240.28
748.68	240.22
749.01	240.02
749.34	239.95
749.67	239.79
750.00	239.70
750.33	239.95
750.65	239.93
750.98	239.23
751.31	239.13
751.64	239.05
751.97	239.28
752.29	239.17
752.62	238.72
752.95	238.69
753.28	238.56
753.60	238.50
753.93	238.50
754.26	238.43
754.59	238.19
754.91	238.06
755.24	237.96
755.57	237.92
755.90	237.86
756.22	237.74
756.55	237.56
756.88	237.38
757.20	237.02
757.53	236.75
757.86	236.70
758.19	236.65
758.51	236.56
758.84	236.20
759.17	236.04
759.49	236.12
759.82	236.19
760.15	236.11
760.47	236.01
760.80	235.84
761.13	235.84
761.45	235.70
761.78	235.73
762.11	235.59
762.43	235.44
762.76	235.36
763.08	235.34
763.41	235.31
763.74	235.33
764.06	235.20
764.39	235.21
764.71	235.12
765.04	234.97
765.37	234.88
765.69	234.82
766.02	234.73
766.34	234.64
766.67	234.39
767.00	234.48
767.32	234.60
767.65	234.83
767.97	234.69
768.30	234.74
768.62	234.61
768.95	234.54
769.27	234.47
769.60	234.45
769.92	234.35
770.25	234.30
770.57	234.15
770.90	234.02
771.22	233.95
771.55	233.87
771.87	233.90
772.20	233.79
772.52	234.10
772.85	234.66
773.17	234.59
773.50	234.51
773.82	234.27
774.15	234.01
774.47	233.64
774.80	233.61
775.12	233.59
775.45	233.48
775.77	233.43
776.09	233.40
776.42	233.40
776.74	233.50
777.07	233.37
777.39	233.39
777.72	233.37
778.04	233.38
778.36	233.30
778.69	233.24
779.01	233.16
779.33	232.75
779.66	232.10
779.98	231.96
780.31	231.95
780.63	232.15
780.95	232.18
781.28	232.08
781.60	231.99
781.92	231.90
782.25	231.87
782.57	231.83
782.89	231.79
783.22	231.67
783.54	231.50
783.86	231.46
784.19	231.32
784.51	231.48
784.83	231.32
785.16	231.23
785.48	231.14
785.80	231.18
786.12	231.13
786.45	231.10
786.77	231.15
787.09	231.08
787.42	230.93
787.74	230.88
788.06	230.91
788.38	230.86
788.71	230.71
789.03	230.69
789.35	230.67
789.67	230.54
789.99	230.57
790.32	230.45
790.64	230.45
790.96	230.88
791.28	230.60
791.61	230.53
791.93	230.53
792.25	230.43
792.57	230.72
792.89	230.62
793.21	230.59
793.54	230.50
793.86	230.42
794.18	230.34
794.50	230.20
794.82	230.13
795.14	230.10
795.47	230.17
795.79	230.18
796.11	230.07
796.43	230.00
796.75	229.93
797.07	229.98
797.39	229.93
797.71	229.42
798.04	229.52
798.36	229.58
798.68	229.56
799.00	229.60
799.32	229.36
799.64	229.44
799.96	229.45
800.28	229.50
800.60	229.49
800.92	229.54
801.24	229.62
801.56	229.67
801.89	229.61
802.21	229.63
802.53	229.53
802.85	229.57
803.17	229.83
803.49	229.73
803.81	229.63
804.13	229.56
804.45	229.58
804.77	229.56
805.09	229.52
805.41	229.43
805.73	229.37
806.05	229.18
806.37	229.09
806.69	229.09
807.01	229.10
807.33	229.13
807.65	228.90
807.97	229.06
808.28	229.01
808.60	229.03
808.92	228.95
809.24	229.29
809.56	229.25
809.88	229.03
810.20	229.06
810.52	229.19
810.84	229.20
811.16	229.18
811.48	229.11
811.80	229.20
812.12	229.25
812.43	229.35
812.75	229.44
813.07	229.37
813.39	229.39
813.71	229.25
814.03	229.17
814.35	229.23
814.67	229.00
814.98	228.92
815.30	228.89
815.62	228.79
815.94	228.40
816.26	228.61
816.58	228.57
816.89	228.56
817.21	228.43
817.53	228.44
817.85	228.48
818.17	228.45
818.48	228.31
818.80	228.33
819.12	228.20
819.44	228.14
819.76	228.15
820.07	228.10
820.39	228.11
820.71	228.15
821.03	228.18
821.34	228.11
821.66	228.18
821.98	228.21
822.30	228.27
822.61	228.56
822.93	228.31
823.25	228.18
823.57	228.22
823.88	228.26
824.20	228.21
824.52	228.25
824.83	228.23
825.15	228.19
825.47	228.21
825.79	228.20
826.10	228.11
826.42	228.12
826.74	228.08
827.05	228.07
827.37	228.01
827.69	227.93
828.00	227.97
828.32	227.87
828.64	227.75
828.95	227.94
829.27	227.82
829.58	227.85
829.90	227.99
830.22	227.94
830.53	227.84
830.85	227.83
831.17	227.62
831.48	227.58
831.80	227.64
832.11	227.66
832.43	227.56
832.75	227.53
833.06	227.76
833.38	227.67
833.69	227.59
834.01	227.63
834.32	227.64
834.64	227.59
834.96	227.65
835.27	227.70
835.59	227.46
835.90	227.34
836.22	227.32
836.53	227.18
836.85	227.15
837.16	227.66
837.48	227.64
837.79	227.94
838.11	227.99
838.42	227.90
838.74	227.92
839.05	228.01
839.37	228.07
839.68	227.78
840.00	227.81
840.31	227.93
840.63	227.89
840.94	227.87
841.26	227.79
841.57	227.82
841.88	227.92
842.20	227.98
842.51	227.97
842.83	228.00
843.14	228.48
843.46	228.50
843.77	228.23
844.08	228.24
844.40	228.01
844.71	228.05
845.03	228.04
845.34	227.97
845.65	227.95
845.97	227.89
846.28	227.95
846.60	227.98
846.91	228.01
847.22	227.97
847.54	228.13
847.85	228.20
848.16	228.15
848.48	228.08
848.79	228.24
849.10	228.31
849.42	228.38
849.73	227.92
850.04	227.90
850.36	227.74
850.67	227.85
850.98	227.90
851.30	227.95
851.61	227.93
851.92	227.91
852.23	228.07
852.55	228.15
852.86	228.14
853.17	228.12
853.49	228.14
853.80	228.31
854.11	228.29
854.42	228.36
854.74	228.35
855.05	228.32
855.36	228.13
855.67	228.08
855.99	227.97
856.30	228.58
856.61	228.61
856.92	228.61
857.23	228.58
857.55	228.53
857.86	228.37
858.17	228.52
858.48	228.44
858.79	228.33
859.11	228.30
859.42	228.23
859.73	228.16
860.04	228.12
860.35	227.93
860.66	227.75
860.98	227.67
861.29	227.68
861.60	227.74
861.91	227.72
862.22	227.70
862.53	227.67
862.84	227.05
863.16	227.16
863.47	227.09
863.78	226.98
864.09	226.97
864.40	227.03
864.71	227.00
865.02	227.07
865.33	226.92
865.64	226.83
865.95	226.86
866.27	227.18
866.58	227.09
866.89	227.18
867.20	227.15
867.51	227.11
867.82	227.01
868.13	227.08
868.44	226.96
868.75	227.01
869.06	227.01
869.37	227.09
869.68	226.85
869.99	226.92
870.30	227.05
870.61	227.05
870.92	227.04
871.23	226.90
871.54	226.99
871.85	227.21
872.16	227.32
872.47	227.29
872.78	227.03
873.09	227.01
873.40	226.92
873.71	227.01
874.02	227.04
874.33	227.05
874.64	226.90
874.95	227.04
875.26	226.92
875.56	226.81
875.87	226.77
876.18	226.81
876.49	227.25
876.80	227.15
877.11	227.07
877.42	227.02
877.73	227.07
878.04	226.93
878.35	226.87
878.66	226.93
878.96	226.93
879.27	226.87
879.58	226.88
879.89	226.87
880.20	226.96
880.51	226.96
880.82	227.00
881.12	227.02
881.43	226.95
881.74	226.92
882.05	227.02
882.36	227.03
882.67	227.09
882.97	226.62
883.28	226.57
883.59	226.64
883.90	226.76
884.21	226.87
884.51	226.93
884.82	226.87
885.13	226.79
885.44	226.75
885.74	226.78
886.05	226.82
886.36	226.88
886.67	226.71
886.98	226.97
887.28	227.03
887.59	227.10
887.90	227.13
888.20	227.13
888.51	227.16
888.82	227.18
889.13	227.16
889.43	227.57
889.74	227.55
890.05	227.56
890.35	227.52
890.66	227.41
890.97	227.29
891.28	227.30
891.58	227.30
891.89	227.34
892.20	227.32
892.50	227.32
892.81	227.30
893.12	227.36
893.42	227.14
893.73	227.13
894.04	227.12
894.34	227.17
894.65	227.15
894.95	227.19
895.26	227.07
895.57	227.26
895.87	226.77
896.18	226.89
896.48	226.96
896.79	226.94
897.10	227.03
897.40	227.06
897.71	227.10
898.01	227.11
898.32	227.10
898.63	227.13
898.93	227.21
899.24	227.24
899.54	227.18
899.85	227.16
900.15	227.13
900.46	227.04
900.76	226.99
901.07	226.97
901.38	226.89
901.68	227.01
901.99	226.82
902.29	226.84
902.60	226.79
902.90	226.63
903.21	226.58
903.51	226.50
903.82	226.58
904.12	226.55
904.43	226.61
904.73	226.61
905.03	226.65
905.34	227.02
905.64	226.92
905.95	226.80
906.25	226.75
906.56	226.74
906.86	226.75
907.17	226.71
907.47	226.83
907.77	226.79
908.08	226.69
908.38	226.72
908.69	226.72
908.99	226.75
909.30	226.87
909.60	226.78
909.90	226.85
910.21	226.74
910.51	226.66
910.81	226.56
911.12	226.61
911.42	226.59
911.73	226.07
912.03	226.08
912.33	226.25
912.64	226.30
912.94	226.26
913.24	226.22
913.55	226.21
913.85	226.12
914.15	226.21
914.46	226.20
914.76	226.13
915.06	226.12
915.37	226.05
915.67	225.96
915.97	225.98
916.27	225.79
916.58	225.85
916.88	225.85
917.18	225.83
917.49	226.11
917.79	226.01
918.09	226.04
918.39	226.15
918.70	226.15
919.00	226.08
919.30	226.35
919.60	226.35
919.91	226.32
920.21	226.39
920.51	226.30
920.81	226.31
921.12	226.40
921.42	226.46
921.72	226.58
922.02	226.63
922.32	226.79
922.63	226.88
922.93	227.10
923.23	227.18
923.53	227.18
923.83	226.90
924.13	226.98
924.44	227.05
924.74	227.09
925.04	227.21
925.34	227.24
925.64	226.96
925.94	226.99
926.24	227.22
926.55	227.11
926.85	227.19
927.15	227.21
927.45	227.23
927.75	227.14
928.05	227.14
928.35	227.11
928.65	227.20
928.95	227.30
929.26	227.14
929.56	227.23
929.86	227.36
930.16	227.31
930.46	227.28
930.76	227.26
931.06	227.07
931.36	226.96
931.66	227.05
931.96	227.14
932.26	227.11
932.56	226.93
932.86	227.02
933.16	227.05
933.46	227.05
933.76	226.98
934.06	227.17
934.36	227.29
934.66	227.29
934.96	227.21
935.26	227.22
935.56	227.27
935.86	227.14
936.16	227.06
936.46	227.01
936.76	227.00
937.06	226.94
937.36	227.08
937.66	227.15
937.96	227.10
938.26	226.97
938.56	227.06
938.86	227.12
939.16	227.27
939.46	227.29
939.76	227.35
940.06	227.35
940.35	227.17
940.65	226.99
940.95	227.05
941.25	226.89
941.55	226.90
941.85	226.89
942.15	226.99
942.45	227.10
942.75	227.09
943.04	227.08
943.34	227.23
943.64	227.16
943.94	226.98
944.24	227.00
944.54	227.09
944.84	227.05
945.13	226.98
945.43	226.87
945.73	226.86
946.03	226.76
946.33	226.70
946.62	226.79
946.92	226.73
947.22	226.70
947.52	226.76
947.82	226.71
948.11	226.68
948.41	226.56
948.71	226.39
949.01	226.46
949.31	226.45
949.60	226.35
949.90	226.40
950.20	226.41
950.50	226.39
950.79	226.32
951.09	226.34
951.39	226.37
951.69	226.27
951.98	226.32
952.28	226.38
952.58	226.35
952.87	226.25
953.17	226.34
953.47	226.28
953.76	226.29
954.06	226.19
954.36	226.09
954.66	226.08
954.95	226.21
955.25	226.23
955.55	226.26
955.84	226.24
956.14	226.24
956.44	226.37
956.73	226.30
957.03	226.33
957.32	226.37
957.62	226.28
957.92	226.44
958.21	226.45
958.51	226.88
958.81	227.02
959.10	227.13
959.40	227.20
959.69	227.23
959.99	227.29
960.29	227.32
960.58	227.31
960.88	227.55
961.17	227.51
961.47	227.59
961.76	227.59
962.06	227.64
962.36	227.63
962.65	227.58
962.95	227.61
963.24	227.61
963.54	227.62
963.83	227.61
964.13	227.53
964.42	227.37
964.72	227.06
965.01	227.07
965.31	227.02
965.60	226.95
965.90	227.18
966.19	227.07
966.49	227.11
966.78	227.12
967.08	227.00
967.37	227.01
967.67	226.84
967.96	226.94
968.26	226.93
968.55	227.00
968.85	226.93
969.14	226.96
969.43	226.86
969.73	226.84
970.02	226.89
970.32	226.91
970.61	226.94
970.91	226.87
971.20	226.70
971.49	226.66
971.79	226.72
972.08	226.44
972.38	226.47
972.67	226.49
972.96	226.56
973.26	226.49
973.55	226.62
973.85	226.66
974.14	226.60
974.43	226.77
974.73	226.69
975.02	226.73
975.31	226.71
975.61	226.83
975.90	226.76
976.19	226.77
976.49	226.72
976.78	226.74
977.07	226.65
977.37	226.78
977.66	226.83
977.95	226.72
978.24	226.83
978.54	226.90
978.83	226.80
979.12	226.75
979.42	226.76
979.71	226.66
980.00	226.64
980.29	226.66
980.59	226.45
980.88	226.52
981.17	226.51
981.46	226.50
981.76	226.48
982.05	226.68
982.34	226.64
982.63	226.72
982.93	226.74
983.22	226.94
983.51	226.95
983.80	226.95
984.09	227.03
984.39	226.99
984.68	226.92
984.97	226.92
985.26	226.92
985.55	226.96
985.85	226.87
986.14	226.97
986.43	226.96
986.72	226.89
987.01	226.79
987.30	226.78
987.59	226.75
987.89	226.75
988.18	226.55
988.47	226.59
988.76	226.48
989.05	226.40
989.34	226.22
989.63	226.29
989.92	226.26
990.22	226.21
990.51	226.16
990.80	226.13
991.09	226.20
991.38	226.27
991.67	226.15
991.96	226.15
992.25	226.09
992.54	226.09
992.83	226.07
993.12	226.07
993.41	226.09
993.70	226.29
993.99	226.36
994.28	226.43
994.58	226.44
994.87	226.45
995.16	226.45
995.45	226.45
995.74	226.32
996.03	226.35
996.32	226.37
996.61	226.50
996.90	226.46
997.19	226.44
997.48	226.31
997.77	226.26
998.06	226.26
998.34	226.24
998.63	226.17
998.92	226.21
999.21	226.28
999.50	226.30
999.79	226.12
1000.08	226.05
1000.37	226.03
1000.66	225.98
1000.95	226.03
1001.24	226.07
1001.53	226.15
1001.82	226.07
1002.11	225.88
1002.40	225.94
1002.68	226.03
1002.97	226.40
1003.26	226.33
1003.55	226.33
1003.84	226.39
1004.13	226.56
1004.42	226.59
1004.71	226.69
1004.99	226.71
1005.28	226.77
1005.57	226.70
1005.86	226.58
1006.15	226.51
1006.44	226.43
1006.72	226.50
1007.01	226.45
1007.30	226.43
1007.59	226.40
1007.88	226.44
1008.17	226.50
1008.45	226.38
1008.74	226.23
1009.03	225.96
1009.32	225.97
1009.60	225.95
1009.89	225.95
1010.18	225.72
1010.47	225.65
1010.76	225.54
1011.04	225.53
1011.33	225.53
1011.62	225.60
1011.91	225.71
1012.19	225.79
1012.48	225.80
1012.77	225.79
1013.05	226.03
1013.34	226.06
1013.63	225.99
1013.92	226.07
1014.20	226.07
1014.49	226.13
1014.78	226.22
1015.06	226.16
1015.35	226.25
1015.64	226.46
1015.92	226.52
1016.21	226.60
1016.50	226.60
1016.78	226.72
1017.07	226.78
1017.36	226.68
1017.64	226.59
1017.93	226.66
1018.22	226.69
1018.50	226.68
1018.79	226.69
1019.08	226.45
1019.36	226.45
1019.65	226.47
1019.93	226.57
1020.22	226.62
1020.51	226.86
1020.79	226.68
1021.08	226.70
1021.36	224.75
1021.65	226.80
1021.94	226.20
1022.22	226.10
1022.51	226.35
1022.79	228.70
1023.08	226.10
1023.36	232.30
1023.65	223.85
>>>>>End Processed Spectral Data<<<<<
