SpectraSuite Data File
++++++++++++++++++++++++++++++++++++
Date: Wed Sep 04 17:49:51 EDT 2013
User: lab3
Dark Spectrum Present: Yes
Reference Spectrum Present: No
Number of Sampled Component Spectra: 1
Spectrometers: USB2E7196
Integration Time (usec): 170000 (USB2E7196)
Spectra Averaged: 20 (USB2E7196)
Boxcar Smoothing: 10 (USB2E7196)
Correct for Electrical Dark: No (USB2E7196)
Strobe/Lamp Enabled: No (USB2E7196)
Correct for Detector Non-linearity: No (USB2E7196)
Correct for Stray Light: No (USB2E7196)
Number of Pixels in Processed Spectrum: 2048
>>>>>Begin Processed Spectral Data<<<<<
339.09	0.00
339.48	213.00
339.86	214.25
340.24	216.15
340.63	217.60
341.01	224.75
341.39	220.50
341.78	221.95
342.16	223.15
342.54	222.35
342.93	212.10
343.31	222.80
343.69	223.38
344.07	223.80
344.46	224.30
344.84	224.65
345.22	224.61
345.60	224.83
345.99	225.01
346.37	225.13
346.75	225.26
347.13	225.40
347.52	225.52
347.90	225.71
348.28	225.86
348.66	226.02
349.05	225.87
349.43	225.96
349.81	226.03
350.19	226.00
350.57	226.06
350.96	226.12
351.34	226.20
351.72	226.24
352.10	226.37
352.48	226.32
352.87	226.38
353.25	226.50
353.63	226.55
354.01	226.63
354.39	226.68
354.77	226.79
355.15	226.92
355.54	226.94
355.92	226.82
356.30	226.88
356.68	227.18
357.06	227.28
357.44	227.25
357.82	227.31
358.20	227.78
358.58	227.86
358.97	227.90
359.35	228.02
359.73	228.17
360.11	228.18
360.49	228.28
360.87	228.35
361.25	228.52
361.63	228.79
362.01	228.79
362.39	228.86
362.77	228.94
363.15	228.95
363.53	228.97
363.91	229.05
364.29	229.06
364.67	228.67
365.05	228.77
365.43	228.90
365.81	228.99
366.19	228.93
366.57	229.11
366.95	229.18
367.33	229.19
367.71	229.22
368.09	229.37
368.47	229.40
368.85	229.40
369.23	229.44
369.61	229.28
369.99	229.45
370.37	229.51
370.75	229.74
371.13	229.57
371.51	229.52
371.89	229.51
372.27	229.55
372.65	229.54
373.03	229.49
373.41	229.44
373.78	229.32
374.16	228.92
374.54	228.73
374.92	228.68
375.30	228.63
375.68	228.47
376.06	228.47
376.44	228.32
376.82	228.25
377.19	228.16
377.57	228.06
377.95	227.83
378.33	227.71
378.71	227.31
379.09	227.32
379.47	227.31
379.84	227.23
380.22	227.04
380.60	226.83
380.98	226.70
381.36	226.59
381.73	226.41
382.11	226.55
382.49	226.51
382.87	226.35
383.25	226.23
383.62	226.69
384.00	226.51
384.38	226.54
384.76	226.62
385.13	226.67
385.51	226.52
385.89	226.37
386.27	226.22
386.64	226.18
387.02	226.12
387.40	225.97
387.78	225.95
388.15	225.91
388.53	225.87
388.91	225.87
389.29	225.84
389.66	225.91
390.04	225.75
390.42	225.83
390.79	225.81
391.17	225.75
391.55	225.24
391.92	225.14
392.30	225.13
392.68	225.05
393.05	225.07
393.43	225.22
393.81	225.30
394.18	225.32
394.56	225.38
394.94	225.47
395.31	225.49
395.69	225.63
396.06	225.81
396.44	225.92
396.82	225.92
397.19	226.18
397.57	226.20
397.95	226.39
398.32	226.26
398.70	226.42
399.07	226.65
399.45	226.72
399.82	226.91
400.20	226.99
400.58	227.05
400.95	226.96
401.33	227.13
401.70	227.61
402.08	227.77
402.45	227.95
402.83	228.26
403.20	228.47
403.58	228.52
403.95	228.75
404.33	228.98
404.71	229.21
405.08	229.68
405.46	229.92
405.83	230.14
406.21	230.42
406.58	230.75
406.96	230.97
407.33	231.25
407.70	231.59
408.08	232.32
408.45	232.77
408.83	233.22
409.20	233.58
409.58	233.75
409.95	234.29
410.33	234.76
410.70	235.09
411.08	235.70
411.45	236.34
411.82	236.90
412.20	237.72
412.57	238.76
412.95	239.17
413.32	240.02
413.69	240.80
414.07	241.74
414.44	242.63
414.82	243.67
415.19	244.91
415.56	246.12
415.94	247.08
416.31	248.49
416.68	249.89
417.06	251.44
417.43	253.04
417.81	254.79
418.18	256.64
418.55	258.56
418.93	260.54
419.30	262.64
419.67	264.80
420.04	267.00
420.42	269.22
420.79	272.15
421.16	274.94
421.54	278.02
421.91	280.93
422.28	284.05
422.66	287.27
423.03	290.68
423.40	294.00
423.77	297.64
424.15	301.15
424.52	304.88
424.89	308.99
425.26	313.00
425.64	316.75
426.01	320.81
426.38	325.20
426.75	329.74
427.13	334.28
427.50	338.96
427.87	343.81
428.24	348.76
428.61	353.31
428.99	358.58
429.36	363.85
429.73	369.33
430.10	374.77
430.47	380.36
430.85	385.93
431.22	392.01
431.59	398.74
431.96	405.00
432.33	411.93
432.70	418.45
433.08	426.23
433.45	433.62
433.82	441.04
434.19	449.10
434.56	457.17
434.93	464.81
435.30	472.59
435.68	481.02
436.05	489.21
436.42	497.47
436.79	505.03
437.16	513.60
437.53	522.41
437.90	531.15
438.27	539.83
438.64	548.86
439.01	557.25
439.38	564.22
439.75	571.35
440.13	579.36
440.50	587.03
440.87	593.11
441.24	599.38
441.61	606.26
441.98	611.41
442.35	617.00
442.72	622.94
443.09	628.71
443.46	632.30
443.83	634.73
444.20	636.63
444.57	639.46
444.94	640.44
445.31	641.43
445.68	642.72
446.05	642.91
446.42	641.44
446.79	639.98
447.16	638.47
447.53	637.24
447.90	633.50
448.27	629.82
448.64	624.88
449.01	621.22
449.37	615.23
449.74	609.14
450.11	602.47
450.48	594.80
450.85	586.83
451.22	580.01
451.59	573.45
451.96	567.10
452.33	558.92
452.70	551.60
453.07	542.99
453.43	533.94
453.80	525.60
454.17	517.65
454.54	509.93
454.91	501.90
455.28	494.00
455.65	486.66
456.02	479.94
456.38	473.56
456.75	465.95
457.12	459.43
457.49	453.29
457.86	447.08
458.23	442.01
458.59	436.33
458.96	430.63
459.33	425.63
459.70	420.72
460.07	416.62
460.43	411.92
460.80	407.69
461.17	403.98
461.54	399.91
461.91	396.15
462.27	392.36
462.64	389.04
463.01	385.41
463.38	382.16
463.74	378.05
464.11	375.16
464.48	372.59
464.85	369.72
465.21	367.53
465.58	365.14
465.95	362.21
466.32	360.06
466.68	357.83
467.05	355.60
467.42	353.30
467.78	350.97
468.15	348.80
468.52	347.23
468.88	344.95
469.25	343.10
469.62	341.65
469.98	340.06
470.35	338.43
470.72	337.00
471.08	335.31
471.45	334.12
471.82	332.81
472.18	331.34
472.55	330.43
472.92	329.12
473.28	327.93
473.65	326.91
474.02	325.74
474.38	324.72
474.75	324.01
475.11	323.18
475.48	322.69
475.85	322.16
476.21	321.55
476.58	321.15
476.94	320.74
477.31	320.23
477.67	319.73
478.04	319.55
478.41	319.29
478.77	319.51
479.14	319.19
479.50	319.09
479.87	319.08
480.23	318.97
480.60	318.86
480.96	318.91
481.33	319.35
481.69	319.57
482.06	319.87
482.42	320.05
482.79	320.46
483.15	320.87
483.52	321.51
483.88	321.95
484.25	322.42
484.61	323.04
484.98	323.72
485.34	324.75
485.71	325.64
486.07	326.70
486.44	327.35
486.80	328.47
487.17	329.68
487.53	331.06
487.90	332.55
488.26	334.29
488.62	336.03
488.99	337.48
489.35	339.38
489.72	341.27
490.08	343.21
490.44	345.26
490.81	347.42
491.17	349.60
491.54	352.17
491.90	354.73
492.26	357.46
492.63	360.29
492.99	363.09
493.36	366.25
493.72	369.56
494.08	373.03
494.45	376.75
494.81	380.56
495.17	384.40
495.54	388.55
495.90	392.70
496.26	397.18
496.63	401.80
496.99	406.50
497.35	411.47
497.72	416.82
498.08	422.25
498.44	427.97
498.80	433.90
499.17	439.83
499.53	446.06
499.89	452.70
500.26	459.40
500.62	466.33
500.98	473.67
501.34	481.04
501.71	488.61
502.07	496.49
502.43	504.48
502.79	512.94
503.16	521.47
503.52	530.39
503.88	539.45
504.24	548.97
504.60	559.02
504.97	569.30
505.33	579.62
505.69	590.59
506.05	601.55
506.41	612.78
506.78	624.51
507.14	636.54
507.50	648.87
507.86	661.35
508.22	674.26
508.59	687.06
508.95	700.76
509.31	715.08
509.67	729.20
510.03	743.64
510.39	758.13
510.75	773.32
511.12	788.70
511.48	804.17
511.84	820.03
512.20	835.68
512.56	851.92
512.92	868.60
513.28	885.35
513.64	902.58
514.00	919.84
514.37	937.51
514.73	955.51
515.09	973.59
515.45	992.02
515.81	1010.47
516.17	1029.29
516.53	1047.53
516.89	1066.07
517.25	1085.37
517.61	1105.40
517.97	1125.36
518.33	1145.06
518.69	1165.07
519.05	1185.55
519.41	1205.84
519.77	1226.99
520.13	1247.77
520.49	1268.00
520.85	1290.09
521.21	1310.96
521.57	1332.40
521.93	1352.87
522.29	1373.90
522.65	1394.27
523.01	1414.81
523.37	1435.07
523.73	1456.30
524.09	1477.00
524.45	1497.52
524.81	1517.85
525.17	1538.19
525.53	1558.65
525.89	1579.18
526.25	1599.65
526.61	1619.74
526.97	1640.84
527.33	1661.91
527.68	1683.32
528.04	1704.70
528.40	1724.26
528.76	1745.06
529.12	1765.35
529.48	1786.16
529.84	1806.13
530.20	1827.13
530.56	1847.86
530.91	1868.93
531.27	1888.59
531.63	1909.10
531.99	1929.38
532.35	1949.32
532.71	1969.53
533.07	1990.08
533.42	2010.04
533.78	2029.66
534.14	2049.48
534.50	2068.15
534.86	2086.89
535.21	2104.13
535.57	2122.28
535.93	2139.63
536.29	2157.02
536.65	2174.82
537.00	2192.32
537.36	2209.85
537.72	2226.25
538.08	2243.29
538.44	2259.65
538.79	2276.18
539.15	2292.24
539.51	2308.12
539.87	2323.22
540.22	2336.84
540.58	2350.67
540.94	2363.77
541.29	2376.60
541.65	2388.87
542.01	2401.12
542.37	2411.34
542.72	2422.37
543.08	2432.84
543.44	2444.29
543.79	2454.35
544.15	2463.90
544.51	2473.46
544.87	2482.77
545.22	2491.17
545.58	2498.96
545.94	2505.90
546.29	2512.29
546.65	2518.39
547.01	2523.71
547.36	2529.35
547.72	2534.60
548.07	2538.84
548.43	2543.88
548.79	2548.32
549.14	2552.31
549.50	2556.18
549.86	2560.09
550.21	2563.45
550.57	2566.80
550.92	2567.99
551.28	2569.21
551.64	2571.46
551.99	2573.27
552.35	2574.74
552.70	2576.71
553.06	2578.01
553.41	2579.11
553.77	2580.49
554.13	2581.80
554.48	2583.08
554.84	2583.99
555.19	2585.33
555.55	2586.70
555.90	2585.85
556.26	2584.79
556.61	2583.00
556.97	2580.41
557.32	2579.55
557.68	2578.25
558.03	2576.56
558.39	2575.32
558.74	2574.31
559.10	2570.96
559.45	2567.04
559.81	2562.22
560.16	2556.57
560.52	2551.23
560.87	2546.39
561.23	2540.72
561.58	2534.85
561.94	2527.92
562.29	2520.59
562.64	2513.23
563.00	2504.95
563.35	2498.37
563.71	2491.79
564.06	2485.28
564.42	2479.01
564.77	2472.24
565.12	2464.59
565.48	2456.60
565.83	2448.70
566.19	2440.48
566.54	2432.37
566.89	2424.51
567.25	2417.10
567.60	2410.26
567.96	2403.00
568.31	2395.33
568.66	2386.74
569.02	2377.82
569.37	2369.64
569.72	2362.03
570.08	2352.88
570.43	2343.45
570.78	2334.33
571.14	2324.82
571.49	2315.08
571.84	2305.66
572.20	2294.81
572.55	2284.71
572.90	2274.08
573.26	2263.76
573.61	2253.01
573.96	2242.08
574.31	2229.89
574.67	2218.18
575.02	2205.64
575.37	2192.79
575.72	2179.31
576.08	2167.45
576.43	2155.07
576.78	2142.04
577.13	2128.45
577.49	2115.85
577.84	2104.11
578.19	2092.16
578.54	2079.75
578.90	2068.14
579.25	2055.62
579.60	2043.24
579.95	2030.53
580.30	2017.40
580.66	2004.20
581.01	1990.59
581.36	1976.79
581.71	1964.36
582.06	1951.26
582.42	1938.97
582.77	1926.78
583.12	1915.44
583.47	1903.09
583.82	1891.25
584.17	1879.52
584.53	1867.95
584.88	1855.22
585.23	1842.05
585.58	1828.01
585.93	1815.00
586.28	1801.60
586.63	1788.19
586.98	1774.07
587.34	1761.11
587.69	1748.18
588.04	1735.36
588.39	1723.58
588.74	1711.69
589.09	1699.92
589.44	1687.66
589.79	1675.58
590.14	1663.44
590.49	1651.25
590.84	1639.41
591.19	1627.73
591.54	1615.35
591.89	1603.23
592.25	1593.10
592.60	1581.86
592.95	1570.53
593.30	1558.56
593.65	1546.49
594.00	1534.48
594.35	1524.96
594.70	1513.25
595.05	1502.06
595.40	1490.30
595.75	1478.38
596.10	1467.23
596.45	1455.98
596.80	1445.07
597.15	1433.67
597.50	1422.53
597.85	1411.42
598.19	1400.02
598.54	1387.91
598.89	1377.01
599.24	1366.48
599.59	1355.16
599.94	1344.46
600.29	1334.36
600.64	1324.33
600.99	1313.85
601.34	1304.58
601.69	1293.34
602.04	1283.69
602.39	1274.15
602.74	1265.25
603.08	1256.01
603.43	1246.78
603.78	1237.10
604.13	1227.56
604.48	1218.12
604.83	1208.35
605.18	1198.65
605.53	1189.21
605.87	1180.73
606.22	1172.32
606.57	1163.23
606.92	1153.78
607.27	1144.97
607.62	1136.23
607.96	1127.74
608.31	1120.09
608.66	1111.57
609.01	1103.20
609.36	1094.75
609.70	1086.34
610.05	1077.71
610.40	1069.51
610.75	1060.86
611.10	1052.61
611.44	1044.10
611.79	1035.94
612.14	1028.09
612.49	1020.25
612.83	1012.89
613.18	1004.95
613.53	997.14
613.88	989.33
614.22	981.84
614.57	974.01
614.92	966.25
615.27	958.79
615.61	951.00
615.96	943.49
616.31	936.28
616.65	929.30
617.00	922.02
617.35	914.89
617.70	907.72
618.04	900.82
618.39	893.89
618.74	887.66
619.08	880.88
619.43	874.08
619.78	867.31
620.12	860.15
620.47	853.36
620.82	846.21
621.16	839.55
621.51	833.22
621.85	827.17
622.20	820.76
622.55	814.26
622.89	808.05
623.24	801.86
623.59	795.47
623.93	789.19
624.28	783.20
624.62	777.66
624.97	771.90
625.32	766.30
625.66	760.53
626.01	754.45
626.35	749.02
626.70	743.47
627.04	738.23
627.39	732.87
627.73	727.75
628.08	722.85
628.43	717.58
628.77	712.34
629.12	706.98
629.46	702.01
629.81	697.44
630.15	692.59
630.50	687.58
630.84	682.89
631.19	678.18
631.53	673.65
631.88	668.51
632.22	663.71
632.57	659.27
632.91	654.70
633.26	650.38
633.60	645.87
633.95	641.30
634.29	636.69
634.64	632.32
634.98	627.58
635.32	623.33
635.67	619.29
636.01	614.94
636.36	610.66
636.70	606.72
637.05	602.46
637.39	598.41
637.73	594.42
638.08	590.48
638.42	586.35
638.77	582.10
639.11	577.79
639.45	573.60
639.80	569.16
640.14	565.13
640.49	561.27
640.83	557.41
641.17	553.85
641.52	550.16
641.86	546.52
642.20	543.35
642.55	539.65
642.89	536.08
643.23	532.77
643.58	529.75
643.92	526.17
644.26	522.81
644.61	519.77
644.95	516.50
645.29	513.19
645.64	510.23
645.98	507.22
646.32	504.30
646.66	501.20
647.01	498.27
647.35	495.53
647.69	492.59
648.04	489.90
648.38	487.10
648.72	484.35
649.06	481.49
649.41	478.51
649.75	475.66
650.09	472.85
650.43	469.94
650.78	467.10
651.12	464.37
651.46	461.57
651.80	458.66
652.14	456.03
652.49	453.52
652.83	450.85
653.17	448.29
653.51	445.75
653.85	443.46
654.20	441.18
654.54	438.50
654.88	435.93
655.22	433.62
655.56	431.17
655.90	428.86
656.25	426.65
656.59	424.43
656.93	422.32
657.27	420.30
657.61	417.95
657.95	415.69
658.29	413.52
658.64	411.54
658.98	409.40
659.32	407.22
659.66	405.08
660.00	403.02
660.34	400.99
660.68	399.04
661.02	397.05
661.36	395.00
661.70	393.15
662.05	391.19
662.39	389.18
662.73	387.56
663.07	385.82
663.41	383.93
663.75	382.10
664.09	380.25
664.43	378.19
664.77	376.57
665.11	374.76
665.45	373.13
665.79	371.46
666.13	369.81
666.47	368.11
666.81	366.39
667.15	364.65
667.49	363.14
667.83	361.72
668.17	360.25
668.51	358.80
668.85	357.48
669.19	356.44
669.53	355.00
669.87	353.32
670.21	351.83
670.55	350.51
670.89	349.25
671.23	347.90
671.57	346.62
671.91	345.37
672.25	344.10
672.58	342.96
672.92	341.46
673.26	340.23
673.60	339.16
673.94	338.11
674.28	337.14
674.62	335.96
674.96	334.75
675.30	333.55
675.64	332.43
675.97	331.13
676.31	329.85
676.65	328.71
676.99	327.87
677.33	326.70
677.67	325.61
678.01	324.33
678.34	323.27
678.68	322.34
679.02	321.16
679.36	320.18
679.70	319.06
680.04	318.21
680.37	317.19
680.71	316.15
681.05	315.18
681.39	314.17
681.73	313.19
682.06	312.23
682.40	311.33
682.74	310.46
683.08	309.85
683.42	308.86
683.75	308.11
684.09	307.14
684.43	306.32
684.77	305.49
685.10	304.81
685.44	303.99
685.78	303.19
686.12	302.46
686.45	301.72
686.79	300.90
687.13	300.27
687.46	299.58
687.80	298.97
688.14	298.16
688.48	297.44
688.81	296.78
689.15	296.18
689.49	295.52
689.82	294.82
690.16	293.87
690.50	293.24
690.83	292.42
691.17	291.59
691.51	290.98
691.84	290.35
692.18	289.66
692.52	288.91
692.85	288.29
693.19	287.86
693.52	287.15
693.86	286.49
694.20	285.82
694.53	285.20
694.87	284.48
695.21	283.79
695.54	283.11
695.88	282.41
696.21	281.69
696.55	281.05
696.88	280.47
697.22	279.95
697.56	279.42
697.89	278.86
698.23	278.35
698.56	277.74
698.90	277.28
699.23	276.74
699.57	276.34
699.90	275.77
700.24	275.15
700.58	274.78
700.91	274.35
701.25	274.19
701.58	274.05
701.92	273.72
702.25	273.43
702.59	273.05
702.92	272.67
703.26	272.23
703.59	271.81
703.93	271.75
704.26	271.38
704.60	270.97
704.93	270.53
705.26	270.06
705.60	269.75
705.93	269.24
706.27	269.00
706.60	268.71
706.94	268.50
707.27	268.08
707.61	267.64
707.94	267.22
708.27	266.50
708.61	265.77
708.94	265.33
709.28	264.88
709.61	264.46
709.94	264.13
710.28	263.80
710.61	263.45
710.95	262.65
711.28	262.61
711.61	262.14
711.95	261.89
712.28	261.50
712.61	261.10
712.95	260.97
713.28	260.79
713.61	260.44
713.95	259.89
714.28	259.62
714.61	259.22
714.95	258.88
715.28	258.44
715.61	258.18
715.95	257.85
716.28	257.51
716.61	257.23
716.95	256.82
717.28	256.47
717.61	256.14
717.94	255.86
718.28	255.21
718.61	254.94
718.94	254.63
719.27	254.44
719.61	254.11
719.94	253.73
720.27	253.29
720.60	252.92
720.94	252.74
721.27	252.53
721.60	252.43
721.93	252.26
722.27	252.22
722.60	252.02
722.93	251.74
723.26	251.59
723.59	251.25
723.93	251.08
724.26	250.98
724.59	250.70
724.92	250.57
725.25	250.46
725.59	250.26
725.92	250.10
726.25	249.92
726.58	249.76
726.91	249.50
727.24	249.30
727.57	249.15
727.91	248.88
728.24	248.66
728.57	248.37
728.90	248.16
729.23	247.83
729.56	247.88
729.89	247.65
730.22	247.38
730.55	247.25
730.89	247.11
731.22	246.80
731.55	246.64
731.88	246.42
732.21	246.18
732.54	246.01
732.87	245.85
733.20	245.66
733.53	245.60
733.86	245.52
734.19	245.22
734.52	245.17
734.85	245.39
735.18	245.17
735.51	245.18
735.84	245.08
736.17	245.09
736.50	244.62
736.83	245.09
737.16	244.99
737.49	244.87
737.82	244.68
738.15	244.63
738.48	244.45
738.81	244.35
739.14	244.12
739.47	243.92
739.80	243.75
740.13	243.66
740.46	243.38
740.79	243.09
741.12	242.95
741.45	242.68
741.78	242.24
742.11	242.15
742.44	241.91
742.77	241.86
743.10	241.60
743.43	241.46
743.75	240.79
744.08	241.30
744.41	241.09
744.74	240.91
745.07	240.70
745.40	240.72
745.73	240.68
746.06	240.51
746.39	240.49
746.71	240.28
747.04	240.08
747.37	239.97
747.70	239.98
748.03	239.85
748.36	239.83
748.68	239.64
749.01	239.45
749.34	239.40
749.67	239.20
750.00	239.13
750.33	239.40
750.65	239.41
750.98	238.65
751.31	238.59
751.64	238.57
751.97	238.69
752.29	238.52
752.62	238.26
752.95	238.20
753.28	237.96
753.60	237.86
753.93	237.92
754.26	237.85
754.59	237.60
754.91	237.45
755.24	237.25
755.57	237.25
755.90	237.13
756.22	236.87
756.55	236.79
756.88	236.62
757.20	236.19
757.53	235.80
757.86	235.71
758.19	235.69
758.51	235.56
758.84	235.28
759.17	235.10
759.49	235.04
759.82	235.20
760.15	235.17
760.47	235.05
760.80	234.75
761.13	234.71
761.45	234.59
761.78	234.64
762.11	234.64
762.43	234.49
762.76	234.44
763.08	234.43
763.41	234.38
763.74	234.35
764.06	234.28
764.39	234.31
764.71	234.28
765.04	234.14
765.37	233.98
765.69	233.91
766.02	233.85
766.34	233.74
766.67	233.47
767.00	233.42
767.32	233.61
767.65	233.86
767.97	233.74
768.30	233.77
768.62	233.65
768.95	233.53
769.27	233.52
769.60	233.47
769.92	233.35
770.25	233.14
770.57	232.95
770.90	232.79
771.22	232.74
771.55	232.65
771.87	232.67
772.20	232.61
772.52	232.88
772.85	233.45
773.17	233.44
773.50	233.33
773.82	233.29
774.15	232.98
774.47	232.62
774.80	232.56
775.12	232.46
775.45	232.48
775.77	232.40
776.09	232.32
776.42	232.29
776.74	232.42
777.07	232.35
777.39	232.34
777.72	232.32
778.04	232.29
778.36	232.14
778.69	232.11
779.01	232.17
779.33	231.77
779.66	231.13
779.98	231.04
780.31	231.03
780.63	231.16
780.95	231.27
781.28	231.27
781.60	231.16
781.92	231.12
782.25	231.00
782.57	230.97
782.89	230.88
783.22	230.83
783.54	230.62
783.86	230.61
784.19	230.57
784.51	230.73
784.83	230.67
785.16	230.66
785.48	230.53
785.80	230.46
786.12	230.49
786.45	230.45
786.77	230.47
787.09	230.46
787.42	230.28
787.74	230.25
788.06	230.15
788.38	230.15
788.71	230.11
789.03	230.17
789.35	230.23
789.67	230.17
789.99	230.20
790.32	230.19
790.64	230.33
790.96	230.74
791.28	230.52
791.61	230.44
791.93	230.44
792.25	230.44
792.57	230.80
792.89	230.65
793.21	230.75
793.54	230.58
793.86	230.55
794.18	230.54
794.50	230.42
794.82	230.53
795.14	230.55
795.47	230.64
795.79	230.60
796.11	230.50
796.43	230.42
796.75	230.35
797.07	230.31
797.39	230.15
797.71	229.75
798.04	229.76
798.36	229.79
798.68	229.75
799.00	229.72
799.32	229.46
799.64	229.50
799.96	229.46
800.28	229.65
800.60	229.61
800.92	229.57
801.24	229.50
801.56	229.49
801.89	229.46
802.21	229.42
802.53	229.27
802.85	229.32
803.17	229.59
803.49	229.49
803.81	229.46
804.13	229.46
804.45	229.40
804.77	229.40
805.09	229.38
805.41	229.35
805.73	229.33
806.05	229.16
806.37	229.15
806.69	229.04
807.01	228.90
807.33	228.85
807.65	228.71
807.97	228.90
808.28	228.81
808.60	228.79
808.92	228.71
809.24	229.00
809.56	228.94
809.88	228.64
810.20	228.60
810.52	228.67
810.84	228.58
811.16	228.52
811.48	228.44
811.80	228.58
812.12	228.49
812.43	228.48
812.75	228.49
813.07	228.45
813.39	228.41
813.71	228.31
814.03	228.17
814.35	228.20
814.67	228.03
814.98	228.04
815.30	227.99
815.62	227.87
815.94	227.48
816.26	227.65
816.58	227.61
816.89	227.76
817.21	227.61
817.53	227.63
817.85	227.65
818.17	227.73
818.48	227.58
818.80	227.74
819.12	227.70
819.44	227.57
819.76	227.48
820.07	227.43
820.39	227.48
820.71	227.59
821.03	227.58
821.34	227.51
821.66	227.49
821.98	227.55
822.30	227.58
822.61	227.94
822.93	227.65
823.25	227.65
823.57	227.48
823.88	227.59
824.20	227.50
824.52	227.57
824.83	227.52
825.15	227.36
825.47	227.22
825.79	227.26
826.10	227.25
826.42	227.26
826.74	227.38
827.05	227.26
827.37	227.32
827.69	227.33
828.00	227.41
828.32	227.38
828.64	227.28
828.95	227.57
829.27	227.36
829.58	227.35
829.90	227.49
830.22	227.55
830.53	227.41
830.85	227.41
831.17	227.25
831.48	227.22
831.80	227.30
832.11	227.33
832.43	227.23
832.75	227.26
833.06	227.54
833.38	227.37
833.69	227.45
834.01	227.40
834.32	227.37
834.64	227.30
834.96	227.36
835.27	227.32
835.59	227.15
835.90	227.16
836.22	227.18
836.53	227.06
836.85	227.02
837.16	227.55
837.48	227.58
837.79	227.75
838.11	227.82
838.42	227.82
838.74	227.86
839.05	227.78
839.37	227.75
839.68	227.46
840.00	227.56
840.31	227.63
840.63	227.60
840.94	227.49
841.26	227.45
841.57	227.43
841.88	227.55
842.20	227.47
842.51	227.37
842.83	227.38
843.14	227.83
843.46	227.81
843.77	227.53
844.08	227.52
844.40	227.37
844.71	227.26
845.03	227.26
845.34	227.25
845.65	227.33
845.97	227.32
846.28	227.36
846.60	227.35
846.91	227.26
847.22	227.22
847.54	227.39
847.85	227.41
848.16	227.29
848.48	227.17
848.79	227.37
849.10	227.47
849.42	227.40
849.73	226.88
850.04	226.87
850.36	226.69
850.67	226.81
850.98	226.79
851.30	226.85
851.61	226.76
851.92	226.70
852.23	226.84
852.55	226.92
852.86	226.94
853.17	226.95
853.49	227.02
853.80	227.17
854.11	227.13
854.42	227.12
854.74	227.10
855.05	227.09
855.36	226.80
855.67	226.79
855.99	226.86
856.30	227.42
856.61	227.38
856.92	227.34
857.23	227.23
857.55	227.20
857.86	227.12
858.17	227.23
858.48	227.19
858.79	227.04
859.11	227.03
859.42	227.01
859.73	226.95
860.04	226.94
860.35	226.72
860.66	226.61
860.98	226.62
861.29	226.74
861.60	226.63
861.91	226.76
862.22	226.62
862.53	226.57
862.84	226.03
863.16	226.24
863.47	226.17
863.78	226.21
864.09	226.22
864.40	226.29
864.71	226.24
865.02	226.30
865.33	226.25
865.64	226.14
865.95	226.10
866.27	226.36
866.58	226.29
866.89	226.44
867.20	226.46
867.51	226.37
867.82	226.34
868.13	226.61
868.44	226.47
868.75	226.65
869.06	226.65
869.37	226.67
869.68	226.47
869.99	226.57
870.30	226.59
870.61	226.69
870.92	226.66
871.23	226.66
871.54	226.74
871.85	226.88
872.16	226.99
872.47	226.95
872.78	226.71
873.09	226.75
873.40	226.65
873.71	226.62
874.02	226.64
874.33	226.61
874.64	226.44
874.95	226.55
875.26	226.45
875.56	226.48
875.87	226.51
876.18	226.45
876.49	226.90
876.80	226.77
877.11	226.67
877.42	226.62
877.73	226.59
878.04	226.48
878.35	226.47
878.66	226.49
878.96	226.46
879.27	226.43
879.58	226.39
879.89	226.37
880.20	226.54
880.51	226.60
880.82	226.54
881.12	226.66
881.43	226.57
881.74	226.50
882.05	226.40
882.36	226.44
882.67	226.50
882.97	226.01
883.28	226.04
883.59	226.10
883.90	226.13
884.21	226.22
884.51	226.18
884.82	226.10
885.13	226.09
885.44	226.07
885.74	226.08
886.05	226.06
886.36	226.15
886.67	225.93
886.98	226.12
887.28	226.17
887.59	226.10
887.90	226.16
888.20	226.12
888.51	226.23
888.82	226.12
889.13	226.15
889.43	226.46
889.74	226.45
890.05	226.39
890.35	226.40
890.66	226.32
890.97	226.31
891.28	226.23
891.58	226.22
891.89	226.23
892.20	226.12
892.50	226.15
892.81	226.10
893.12	226.15
893.42	225.89
893.73	225.90
894.04	225.90
894.34	225.81
894.65	225.83
894.95	225.70
895.26	225.76
895.57	225.95
895.87	225.59
896.18	225.62
896.48	225.65
896.79	225.59
897.10	225.71
897.40	225.69
897.71	225.78
898.01	225.87
898.32	225.94
898.63	225.94
898.93	225.92
899.24	225.95
899.54	225.95
899.85	225.94
900.15	225.95
900.46	225.91
900.76	226.04
901.07	226.04
901.38	226.14
901.68	226.12
901.99	225.94
902.29	225.94
902.60	225.91
902.90	225.89
903.21	225.90
903.51	225.80
903.82	225.95
904.12	225.95
904.43	225.85
904.73	225.79
905.03	225.86
905.34	226.33
905.64	226.26
905.95	226.25
906.25	226.24
906.56	226.18
906.86	226.20
907.17	226.18
907.47	226.20
907.77	226.13
908.08	226.09
908.38	226.10
908.69	226.13
908.99	226.22
909.30	226.23
909.60	226.25
909.90	226.33
910.21	226.20
910.51	226.11
910.81	226.14
911.12	226.18
911.42	226.23
911.73	225.70
912.03	225.76
912.33	225.91
912.64	225.98
912.94	225.98
913.24	225.89
913.55	225.85
913.85	225.80
914.15	225.90
914.46	225.99
914.76	225.95
915.06	226.00
915.37	225.91
915.67	225.95
915.97	225.91
916.27	225.79
916.58	225.81
916.88	225.80
917.18	225.76
917.49	226.09
917.79	226.09
918.09	226.21
918.39	226.34
918.70	226.22
919.00	226.21
919.30	226.44
919.60	226.45
919.91	226.40
920.21	226.46
920.51	226.31
920.81	226.32
921.12	226.41
921.42	226.33
921.72	226.42
922.02	226.36
922.32	226.44
922.63	226.49
922.93	226.74
923.23	226.79
923.53	226.76
923.83	226.50
924.13	226.53
924.44	226.51
924.74	226.58
925.04	226.71
925.34	226.73
925.64	226.54
925.94	226.57
926.24	226.82
926.55	226.78
926.85	226.88
927.15	226.80
927.45	226.79
927.75	226.80
928.05	226.75
928.35	226.81
928.65	226.98
928.95	227.04
929.26	226.83
929.56	226.97
929.86	227.05
930.16	226.96
930.46	226.91
930.76	226.99
931.06	226.75
931.36	226.62
931.66	226.63
931.96	226.71
932.26	226.73
932.56	226.59
932.86	226.65
933.16	226.66
933.46	226.63
933.76	226.63
934.06	226.75
934.36	226.94
934.66	226.92
934.96	226.78
935.26	226.85
935.56	226.95
935.86	226.85
936.16	226.75
936.46	226.77
936.76	226.71
937.06	226.58
937.36	226.61
937.66	226.59
937.96	226.60
938.26	226.44
938.56	226.37
938.86	226.38
939.16	226.45
939.46	226.49
939.76	226.49
940.06	226.54
940.35	226.40
940.65	226.07
940.95	226.06
941.25	225.91
941.55	225.74
941.85	225.66
942.15	225.72
942.45	225.94
942.75	225.87
943.04	225.96
943.34	226.02
943.64	226.03
943.94	225.99
944.24	226.00
944.54	226.05
944.84	226.08
945.13	225.96
945.43	225.84
945.73	225.81
946.03	225.80
946.33	225.62
946.62	225.53
946.92	225.59
947.22	225.58
947.52	225.62
947.82	225.76
948.11	225.73
948.41	225.61
948.71	225.38
949.01	225.41
949.31	225.37
949.60	225.31
949.90	225.33
950.20	225.32
950.50	225.27
950.79	225.21
951.09	225.27
951.39	225.30
951.69	225.26
951.98	225.36
952.28	225.40
952.58	225.38
952.87	225.47
953.17	225.49
953.47	225.45
953.76	225.50
954.06	225.36
954.36	225.28
954.66	225.26
954.95	225.39
955.25	225.38
955.55	225.39
955.84	225.37
956.14	225.44
956.44	225.45
956.73	225.48
957.03	225.55
957.32	225.60
957.62	225.59
957.92	225.76
958.21	225.67
958.51	226.19
958.81	226.29
959.10	226.40
959.40	226.53
959.69	226.61
959.99	226.75
960.29	226.78
960.58	226.81
960.88	227.03
961.17	226.97
961.47	227.00
961.76	226.96
962.06	227.07
962.36	227.00
962.65	227.04
962.95	226.96
963.24	226.85
963.54	226.83
963.83	226.85
964.13	226.82
964.42	226.68
964.72	226.33
965.01	226.38
965.31	226.27
965.60	226.11
965.90	226.41
966.19	226.19
966.49	226.18
966.78	226.16
967.08	226.05
967.37	226.08
967.67	226.13
967.96	226.17
968.26	226.12
968.55	226.17
968.85	226.14
969.14	226.17
969.43	226.25
969.73	226.27
970.02	226.24
970.32	226.13
970.61	226.22
970.91	226.09
971.20	225.97
971.49	225.96
971.79	226.05
972.08	225.71
972.38	225.72
972.67	225.71
972.96	225.74
973.26	225.62
973.55	225.74
973.85	225.66
974.14	225.58
974.43	225.67
974.73	225.60
975.02	225.59
975.31	225.66
975.61	225.60
975.90	225.43
976.19	225.43
976.49	225.52
976.78	225.51
977.07	225.51
977.37	225.57
977.66	225.61
977.95	225.56
978.24	225.62
978.54	225.73
978.83	225.74
979.12	225.70
979.42	225.78
979.71	225.69
980.00	225.68
980.29	225.73
980.59	225.52
980.88	225.57
981.17	225.59
981.46	225.54
981.76	225.53
982.05	225.78
982.34	225.84
982.63	225.79
982.93	225.77
983.22	225.90
983.51	225.92
983.80	225.98
984.09	226.02
984.39	226.00
984.68	225.91
984.97	225.95
985.26	225.91
985.55	225.92
985.85	225.72
986.14	225.77
986.43	225.91
986.72	225.91
987.01	225.78
987.30	225.80
987.59	225.75
987.89	225.81
988.18	225.52
988.47	225.36
988.76	225.31
989.05	225.27
989.34	225.17
989.63	225.21
989.92	225.15
990.22	225.12
990.51	225.10
990.80	225.15
991.09	225.13
991.38	225.26
991.67	225.23
991.96	225.31
992.25	225.28
992.54	225.13
992.83	225.16
993.12	225.15
993.41	225.19
993.70	225.36
993.99	225.43
994.28	225.50
994.58	225.65
994.87	225.66
995.16	225.65
995.45	225.61
995.74	225.44
996.03	225.52
996.32	225.59
996.61	225.73
996.90	225.70
997.19	225.71
997.48	225.70
997.77	225.67
998.06	225.66
998.34	225.72
998.63	225.73
998.92	225.74
999.21	225.83
999.50	225.82
999.79	225.69
1000.08	225.63
1000.37	225.79
1000.66	225.77
1000.95	225.88
1001.24	225.94
1001.53	226.02
1001.82	226.09
1002.11	225.98
1002.40	226.01
1002.68	226.16
1002.97	226.53
1003.26	226.45
1003.55	226.35
1003.84	226.34
1004.13	226.55
1004.42	226.56
1004.71	226.57
1004.99	226.56
1005.28	226.72
1005.57	226.68
1005.86	226.61
1006.15	226.64
1006.44	226.50
1006.72	226.53
1007.01	226.44
1007.30	226.50
1007.59	226.45
1007.88	226.40
1008.17	226.41
1008.45	226.35
1008.74	226.07
1009.03	225.87
1009.32	225.90
1009.60	225.96
1009.89	226.01
1010.18	225.75
1010.47	225.65
1010.76	225.65
1011.04	225.61
1011.33	225.61
1011.62	225.65
1011.91	225.71
1012.19	225.64
1012.48	225.64
1012.77	225.61
1013.05	225.88
1013.34	225.82
1013.63	225.79
1013.92	225.75
1014.20	225.73
1014.49	225.75
1014.78	225.79
1015.06	225.55
1015.35	225.50
1015.64	225.54
1015.92	225.56
1016.21	225.70
1016.50	225.71
1016.78	225.73
1017.07	225.75
1017.36	225.57
1017.64	225.46
1017.93	225.53
1018.22	225.48
1018.50	225.45
1018.79	225.42
1019.08	225.18
1019.36	225.20
1019.65	225.06
1019.93	225.26
1020.22	225.31
1020.51	225.47
1020.79	225.43
1021.08	223.60
1021.36	223.95
1021.65	225.05
1021.94	226.05
1022.22	225.60
1022.51	223.00
1022.79	227.15
1023.08	226.25
1023.36	230.60
1023.65	225.15
>>>>>End Processed Spectral Data<<<<<
