SpectraSuite Data File
++++++++++++++++++++++++++++++++++++
Date: Wed Sep 04 17:45:09 EDT 2013
User: lab3
Dark Spectrum Present: Yes
Reference Spectrum Present: No
Number of Sampled Component Spectra: 1
Spectrometers: USB2E7196
Integration Time (usec): 170000 (USB2E7196)
Spectra Averaged: 20 (USB2E7196)
Boxcar Smoothing: 10 (USB2E7196)
Correct for Electrical Dark: No (USB2E7196)
Strobe/Lamp Enabled: No (USB2E7196)
Correct for Detector Non-linearity: No (USB2E7196)
Correct for Stray Light: No (USB2E7196)
Number of Pixels in Processed Spectrum: 2048
>>>>>Begin Processed Spectral Data<<<<<
339.09	0.00
339.48	212.95
339.86	213.65
340.24	215.20
340.63	216.70
341.01	225.25
341.39	220.90
341.78	221.70
342.16	223.65
342.54	222.45
342.93	211.82
343.31	222.49
343.69	222.99
344.07	223.47
344.46	223.95
344.84	224.38
345.22	224.35
345.60	224.55
345.99	224.72
346.37	224.81
346.75	224.92
347.13	224.92
347.52	224.97
347.90	225.16
348.28	225.27
348.66	225.39
349.05	225.34
349.43	225.40
349.81	225.51
350.19	225.55
350.57	225.62
350.96	225.76
351.34	225.86
351.72	226.00
352.10	226.17
352.48	226.17
352.87	226.23
353.25	226.29
353.63	226.37
354.01	226.48
354.39	226.51
354.77	226.65
355.15	226.88
355.54	226.91
355.92	226.79
356.30	226.83
356.68	227.18
357.06	227.22
357.44	227.21
357.82	227.19
358.20	227.65
358.58	227.65
358.97	227.70
359.35	227.92
359.73	228.04
360.11	228.02
360.49	228.07
360.87	228.08
361.25	228.26
361.63	228.42
362.01	228.47
362.39	228.50
362.77	228.55
363.15	228.57
363.53	228.59
363.91	228.68
364.29	228.63
364.67	228.27
365.05	228.27
365.43	228.43
365.81	228.57
366.19	228.46
366.57	228.75
366.95	228.78
367.33	228.59
367.71	228.65
368.09	228.78
368.47	228.90
368.85	228.94
369.23	228.99
369.61	228.76
369.99	228.92
370.37	229.03
370.75	229.26
371.13	229.17
371.51	229.13
371.89	229.12
372.27	229.27
372.65	229.34
373.03	229.42
373.41	229.25
373.78	229.17
374.16	228.86
374.54	228.64
374.92	228.55
375.30	228.54
375.68	228.36
376.06	228.26
376.44	228.15
376.82	228.10
377.19	228.04
377.57	228.09
377.95	227.78
378.33	227.67
378.71	227.31
379.09	227.32
379.47	227.35
379.84	227.28
380.22	227.13
380.60	226.86
380.98	226.75
381.36	226.72
381.73	226.65
382.11	226.74
382.49	226.65
382.87	226.49
383.25	226.40
383.62	226.89
384.00	226.80
384.38	226.77
384.76	226.83
385.13	226.94
385.51	226.85
385.89	226.82
386.27	226.75
386.64	226.73
387.02	226.63
387.40	226.56
387.78	226.57
388.15	226.55
388.53	226.54
388.91	226.45
389.29	226.30
389.66	226.35
390.04	226.20
390.42	226.33
390.79	226.37
391.17	226.43
391.55	225.95
391.92	226.02
392.30	226.06
392.68	225.94
393.05	225.87
393.43	225.95
393.81	225.96
394.18	225.89
394.56	225.90
394.94	226.06
395.31	226.01
395.69	226.10
396.06	226.15
396.44	226.28
396.82	226.32
397.19	226.77
397.57	226.68
397.95	226.83
398.32	226.68
398.70	226.76
399.07	226.88
399.45	226.86
399.82	226.86
400.20	226.83
400.58	226.91
400.95	226.77
401.33	226.96
401.70	227.48
402.08	227.68
402.45	227.85
402.83	228.05
403.20	228.28
403.58	228.36
403.95	228.63
404.33	228.81
404.71	229.04
405.08	229.44
405.46	229.66
405.83	229.89
406.21	230.22
406.58	230.51
406.96	230.77
407.33	231.14
407.70	231.54
408.08	232.28
408.45	232.74
408.83	233.30
409.20	233.61
409.58	233.70
409.95	234.27
410.33	234.85
410.70	235.18
411.08	235.73
411.45	236.36
411.82	236.92
412.20	237.68
412.57	238.64
412.95	238.94
413.32	239.93
413.69	240.73
414.07	241.68
414.44	242.60
414.82	243.51
415.19	244.72
415.56	245.78
415.94	246.77
416.31	248.09
416.68	249.48
417.06	251.06
417.43	252.59
417.81	254.22
418.18	255.91
418.55	257.83
418.93	259.81
419.30	261.85
419.67	264.01
420.04	266.19
420.42	268.45
420.79	271.44
421.16	274.02
421.54	276.96
421.91	279.97
422.28	282.97
422.66	286.30
423.03	289.61
423.40	292.94
423.77	296.38
424.15	299.96
424.52	303.57
424.89	307.60
425.26	311.53
425.64	315.31
426.01	319.38
426.38	323.65
426.75	328.00
427.13	332.42
427.50	336.97
427.87	341.80
428.24	346.55
428.61	350.89
428.99	356.08
429.36	361.37
429.73	366.64
430.10	372.04
430.47	377.52
430.85	383.10
431.22	389.14
431.59	395.82
431.96	401.85
432.33	408.67
432.70	415.14
433.08	422.68
433.45	429.83
433.82	437.01
434.19	444.94
434.56	452.78
434.93	460.31
435.30	467.96
435.68	476.25
436.05	484.44
436.42	492.67
436.79	500.21
437.16	508.37
437.53	516.85
437.90	525.20
438.27	533.58
438.64	542.18
439.01	550.27
439.38	557.24
439.75	564.20
440.13	572.03
440.50	579.42
440.87	585.42
441.24	591.73
441.61	598.52
441.98	603.63
442.35	609.26
442.72	615.29
443.09	620.95
443.46	624.30
443.83	626.48
444.20	628.42
444.57	631.06
444.94	632.13
445.31	633.34
445.68	634.81
446.05	634.99
446.42	633.87
446.79	632.53
447.16	630.96
447.53	629.75
447.90	626.14
448.27	622.61
448.64	617.99
449.01	614.33
449.37	608.41
449.74	602.59
450.11	596.00
450.48	588.27
450.85	580.54
451.22	573.98
451.59	567.80
451.96	561.64
452.33	553.79
452.70	546.71
453.07	538.14
453.43	529.23
453.80	520.99
454.17	513.03
454.54	505.43
454.91	497.51
455.28	489.62
455.65	482.31
456.02	475.64
456.38	469.38
456.75	461.90
457.12	455.44
457.49	449.17
457.86	443.00
458.23	437.94
458.59	432.33
458.96	426.58
459.33	421.51
459.70	416.52
460.07	412.49
460.43	407.87
460.80	403.70
461.17	400.16
461.54	396.36
461.91	392.64
462.27	388.82
462.64	385.58
463.01	382.26
463.38	379.05
463.74	375.07
464.11	372.18
464.48	369.59
464.85	366.80
465.21	364.67
465.58	362.38
465.95	359.70
466.32	357.56
466.68	355.42
467.05	353.19
467.42	351.02
467.78	348.70
468.15	346.63
468.52	345.14
468.88	342.97
469.25	341.00
469.62	339.62
469.98	338.08
470.35	336.57
470.72	335.03
471.08	333.42
471.45	332.17
471.82	330.87
472.18	329.39
472.55	328.43
472.92	327.15
473.28	326.12
473.65	325.02
474.02	323.97
474.38	323.14
474.75	322.39
475.11	321.48
475.48	320.92
475.85	320.32
476.21	319.71
476.58	319.07
476.94	318.67
477.31	318.17
477.67	317.72
478.04	317.51
478.41	317.42
478.77	317.70
479.14	317.47
479.50	317.39
479.87	317.45
480.23	317.52
480.60	317.42
480.96	317.44
481.33	317.92
481.69	318.11
482.06	318.30
482.42	318.63
482.79	319.05
483.15	319.41
483.52	320.01
483.88	320.41
484.25	321.04
484.61	321.72
484.98	322.31
485.34	323.40
485.71	324.28
486.07	325.09
486.44	325.67
486.80	326.75
487.17	327.78
487.53	329.15
487.90	330.60
488.26	332.38
488.62	334.06
488.99	335.46
489.35	337.20
489.72	339.07
490.08	340.93
490.44	342.93
490.81	345.17
491.17	347.34
491.54	349.94
491.90	352.46
492.26	355.09
492.63	357.91
492.99	360.67
493.36	363.68
493.72	367.06
494.08	370.43
494.45	374.15
494.81	378.13
495.17	381.92
495.54	385.92
495.90	390.06
496.26	394.46
496.63	399.08
496.99	403.87
497.35	408.84
497.72	414.08
498.08	419.45
498.44	425.00
498.80	430.96
499.17	436.87
499.53	443.15
499.89	449.72
500.26	456.59
500.62	463.45
500.98	470.69
501.34	478.16
501.71	485.79
502.07	493.30
502.43	501.22
502.79	509.60
503.16	518.28
503.52	527.12
503.88	536.13
504.24	545.64
504.60	555.58
504.97	565.76
505.33	576.05
505.69	587.03
506.05	597.99
506.41	609.14
506.78	620.58
507.14	632.52
507.50	644.72
507.86	656.93
508.22	669.75
508.59	682.75
508.95	696.23
509.31	710.22
509.67	724.42
510.03	738.48
510.39	753.16
510.75	767.80
511.12	782.72
511.48	798.33
511.84	813.81
512.20	829.35
512.56	845.25
512.92	861.71
513.28	878.08
513.64	894.98
514.00	912.21
514.37	929.76
514.73	947.54
515.09	965.57
515.45	983.75
515.81	1001.69
516.17	1020.05
516.53	1038.19
516.89	1056.37
517.25	1075.39
517.61	1095.37
517.97	1114.85
518.33	1134.54
518.69	1154.52
519.05	1174.60
519.41	1194.90
519.77	1215.29
520.13	1235.70
520.49	1255.90
520.85	1276.57
521.21	1297.10
521.57	1317.96
521.93	1338.09
522.29	1358.71
522.65	1378.79
523.01	1399.35
523.37	1419.77
523.73	1440.21
524.09	1460.31
524.45	1480.55
524.81	1500.89
525.17	1520.94
525.53	1541.14
525.89	1561.51
526.25	1581.57
526.61	1601.27
526.97	1621.80
527.33	1642.66
527.68	1663.88
528.04	1684.60
528.40	1704.91
528.76	1725.83
529.12	1745.59
529.48	1765.82
529.84	1785.17
530.20	1805.60
530.56	1825.55
530.91	1845.97
531.27	1865.82
531.63	1885.72
531.99	1905.68
532.35	1925.02
532.71	1944.54
533.07	1964.64
533.42	1983.61
533.78	2002.96
534.14	2021.99
534.50	2040.11
534.86	2058.42
535.21	2075.38
535.57	2093.18
535.93	2110.11
536.29	2126.76
536.65	2144.04
537.00	2160.88
537.36	2177.73
537.72	2193.32
538.08	2209.99
538.44	2225.47
538.79	2241.04
539.15	2257.07
539.51	2272.37
539.87	2286.92
540.22	2300.11
540.58	2313.60
540.94	2326.53
541.29	2338.48
541.65	2350.51
542.01	2362.31
542.37	2372.26
542.72	2382.63
543.08	2392.57
543.44	2403.38
543.79	2413.01
544.15	2422.05
544.51	2431.49
544.87	2440.53
545.22	2448.50
545.58	2455.45
545.94	2462.25
546.29	2467.97
546.65	2473.41
547.01	2478.43
547.36	2483.45
547.72	2488.47
548.07	2491.78
548.43	2496.27
548.79	2500.37
549.14	2503.88
549.50	2507.09
549.86	2510.54
550.21	2513.40
550.57	2516.33
550.92	2517.25
551.28	2517.92
551.64	2519.57
551.99	2520.80
552.35	2521.50
552.70	2523.45
553.06	2524.48
553.41	2524.91
553.77	2526.57
554.13	2528.10
554.48	2529.10
554.84	2529.86
555.19	2530.67
555.55	2531.75
555.90	2530.83
556.26	2529.77
556.61	2528.15
556.97	2525.89
557.32	2525.14
557.68	2523.85
558.03	2521.86
558.39	2520.27
558.74	2519.19
559.10	2515.92
559.45	2512.12
559.81	2507.71
560.16	2502.23
560.52	2497.40
560.87	2493.10
561.23	2487.34
561.58	2480.69
561.94	2473.83
562.29	2466.46
562.64	2459.01
563.00	2450.81
563.35	2443.94
563.71	2437.00
564.06	2430.36
564.42	2423.69
564.77	2416.17
565.12	2408.51
565.48	2400.68
565.83	2392.75
566.19	2384.62
566.54	2376.83
566.89	2369.08
567.25	2361.56
567.60	2354.49
567.96	2346.77
568.31	2338.68
568.66	2330.19
569.02	2321.36
569.37	2312.84
569.72	2305.45
570.08	2296.44
570.43	2286.85
570.78	2278.11
571.14	2268.88
571.49	2258.80
571.84	2249.40
572.20	2238.84
572.55	2228.94
572.90	2218.26
573.26	2208.30
573.61	2197.40
573.96	2186.46
574.31	2174.69
574.67	2162.98
575.02	2150.20
575.37	2137.77
575.72	2125.24
576.08	2113.32
576.43	2100.99
576.78	2088.34
577.13	2075.00
577.49	2062.54
577.84	2051.17
578.19	2039.03
578.54	2027.08
578.90	2015.73
579.25	2003.51
579.60	1991.51
579.95	1978.97
580.30	1966.32
580.66	1953.18
581.01	1940.06
581.36	1926.46
581.71	1914.29
582.06	1902.01
582.42	1890.11
582.77	1877.84
583.12	1866.04
583.47	1854.03
583.82	1842.60
584.17	1831.37
584.53	1819.72
584.88	1807.50
585.23	1795.03
585.58	1781.29
585.93	1768.38
586.28	1755.40
586.63	1742.06
586.98	1728.19
587.34	1715.24
587.69	1702.64
588.04	1690.72
588.39	1678.89
588.74	1667.03
589.09	1655.34
589.44	1642.80
589.79	1630.98
590.14	1619.56
590.49	1607.94
590.84	1596.27
591.19	1584.73
591.54	1572.50
591.89	1560.76
592.25	1550.76
592.60	1539.41
592.95	1528.97
593.30	1517.35
593.65	1505.69
594.00	1494.16
594.35	1485.16
594.70	1473.96
595.05	1462.95
595.40	1450.96
595.75	1439.94
596.10	1429.33
596.45	1418.00
596.80	1407.64
597.15	1396.96
597.50	1385.44
597.85	1374.40
598.19	1363.33
598.54	1352.27
598.89	1341.75
599.24	1331.69
599.59	1320.68
599.94	1310.43
600.29	1300.16
600.64	1290.32
600.99	1280.06
601.34	1271.19
601.69	1260.14
602.04	1250.90
602.39	1241.73
602.74	1233.19
603.08	1223.99
603.43	1215.32
603.78	1206.08
604.13	1197.10
604.48	1187.82
604.83	1178.83
605.18	1169.66
605.53	1160.61
605.87	1151.71
606.22	1143.51
606.57	1134.62
606.92	1125.53
607.27	1117.20
607.62	1108.89
607.96	1100.74
608.31	1093.28
608.66	1085.16
609.01	1076.98
609.36	1068.78
609.70	1060.61
610.05	1052.45
610.40	1044.39
610.75	1035.89
611.10	1028.06
611.44	1019.85
611.79	1012.05
612.14	1004.40
612.49	996.83
612.83	989.66
613.18	982.40
613.53	975.06
613.88	967.55
614.22	960.30
614.57	952.64
614.92	945.07
615.27	937.83
615.61	930.47
615.96	923.08
616.31	916.10
616.65	909.27
617.00	902.40
617.35	895.49
617.70	888.72
618.04	882.11
618.39	875.49
618.74	869.38
619.08	862.74
619.43	856.10
619.78	849.41
620.12	842.79
620.47	835.99
620.82	829.03
621.16	822.52
621.51	816.43
621.85	810.36
622.20	804.07
622.55	797.71
622.89	791.50
623.24	785.47
623.59	779.35
623.93	773.27
624.28	767.42
624.62	761.92
624.97	756.16
625.32	750.55
625.66	744.86
626.01	738.83
626.35	733.59
626.70	728.39
627.04	723.40
627.39	717.96
627.73	713.14
628.08	708.18
628.43	703.02
628.77	697.86
629.12	692.79
629.46	688.23
629.81	683.70
630.15	679.27
630.50	674.62
630.84	670.02
631.19	665.43
631.53	660.91
631.88	655.92
632.22	651.38
632.57	647.13
632.91	642.70
633.26	638.48
633.60	634.05
633.95	629.60
634.29	624.88
634.64	620.64
634.98	615.90
635.32	611.85
635.67	608.03
636.01	603.97
636.36	599.79
636.70	595.94
637.05	591.88
637.39	587.81
637.73	584.03
638.08	580.36
638.42	576.45
638.77	572.25
639.11	568.15
639.45	563.99
639.80	559.65
640.14	555.78
640.49	552.07
640.83	548.49
641.17	544.98
641.52	541.49
641.86	538.15
642.20	535.23
642.55	531.63
642.89	528.05
643.23	524.78
643.58	521.84
643.92	518.24
644.26	515.12
644.61	512.04
644.95	508.71
645.29	505.30
645.64	502.26
645.98	499.39
646.32	496.59
646.66	493.72
647.01	490.97
647.35	488.37
647.69	485.49
648.04	482.72
648.38	479.97
648.72	477.28
649.06	474.46
649.41	471.38
649.75	468.68
650.09	466.07
650.43	463.19
650.78	460.31
651.12	457.63
651.46	454.97
651.80	452.39
652.14	449.80
652.49	447.48
652.83	445.02
653.17	442.49
653.51	440.00
653.85	437.73
654.20	435.46
654.54	432.91
654.88	430.60
655.22	428.50
655.56	426.21
655.90	423.92
656.25	421.72
656.59	419.78
656.93	417.63
657.27	415.55
657.61	413.33
657.95	411.27
658.29	409.24
658.64	407.24
658.98	405.05
659.32	403.00
659.66	400.91
660.00	398.86
660.34	396.93
660.68	395.00
661.02	392.89
661.36	390.91
661.70	389.00
662.05	387.08
662.39	385.16
662.73	383.45
663.07	381.99
663.41	380.25
663.75	378.19
664.09	376.44
664.43	374.64
664.77	373.09
665.11	371.48
665.45	369.88
665.79	368.24
666.13	366.53
666.47	364.87
666.81	363.18
667.15	361.58
667.49	360.12
667.83	358.85
668.17	357.45
668.51	356.15
668.85	354.86
669.19	353.78
669.53	352.20
669.87	350.70
670.21	349.05
670.55	347.72
670.89	346.77
671.23	345.41
671.57	344.04
671.91	342.68
672.25	341.42
672.58	340.31
672.92	338.88
673.26	337.69
673.60	336.48
673.94	335.48
674.28	334.34
674.62	333.25
674.96	331.94
675.30	330.89
675.64	329.68
675.97	328.51
676.31	327.16
676.65	326.04
676.99	325.18
677.33	324.08
677.67	323.05
678.01	321.75
678.34	320.70
678.68	319.74
679.02	318.70
679.36	317.58
679.70	316.44
680.04	315.64
680.37	314.73
680.71	313.83
681.05	312.90
681.39	312.04
681.73	311.03
682.06	310.11
682.40	309.27
682.74	308.43
683.08	307.76
683.42	306.86
683.75	306.17
684.09	305.16
684.43	304.38
684.77	303.51
685.10	302.73
685.44	301.94
685.78	301.16
686.12	300.38
686.45	299.66
686.79	298.95
687.13	298.31
687.46	297.55
687.80	296.94
688.14	296.08
688.48	295.32
688.81	294.57
689.15	293.98
689.49	293.21
689.82	292.53
690.16	291.59
690.50	291.04
690.83	290.28
691.17	289.52
691.51	288.96
691.84	288.37
692.18	287.72
692.52	287.18
692.85	286.63
693.19	286.29
693.52	285.66
693.86	285.03
694.20	284.30
694.53	283.76
694.87	283.04
695.21	282.46
695.54	281.96
695.88	281.34
696.21	280.64
696.55	280.10
696.88	279.49
697.22	279.06
697.56	278.41
697.89	277.86
698.23	277.50
698.56	276.93
698.90	276.40
699.23	275.86
699.57	275.36
699.90	274.81
700.24	274.15
700.58	273.67
700.91	273.27
701.25	273.15
701.58	273.02
701.92	272.74
702.25	272.35
702.59	271.86
702.92	271.48
703.26	271.13
703.59	270.69
703.93	270.66
704.26	270.16
704.60	269.88
704.93	269.42
705.26	268.90
705.60	268.54
705.93	268.07
706.27	267.90
706.60	267.58
706.94	267.44
707.27	267.00
707.61	266.62
707.94	266.25
708.27	265.55
708.61	264.79
708.94	264.42
709.28	264.02
709.61	263.58
709.94	263.28
710.28	262.91
710.61	262.52
710.95	261.72
711.28	261.75
711.61	261.31
711.95	261.12
712.28	260.72
712.61	260.31
712.95	260.21
713.28	259.93
713.61	259.51
713.95	258.95
714.28	258.66
714.61	258.31
714.95	257.97
715.28	257.61
715.61	257.37
715.95	257.02
716.28	256.78
716.61	256.53
716.95	256.10
717.28	255.75
717.61	255.44
717.94	255.22
718.28	254.52
718.61	254.19
718.94	253.80
719.27	253.64
719.61	253.42
719.94	253.02
720.27	252.58
720.60	252.25
720.94	252.03
721.27	251.78
721.60	251.70
721.93	251.40
722.27	251.35
722.60	251.08
722.93	250.83
723.26	250.69
723.59	250.43
723.93	250.35
724.26	250.13
724.59	249.88
724.92	249.75
725.25	249.65
725.59	249.46
725.92	249.34
726.25	249.05
726.58	248.89
726.91	248.70
727.24	248.58
727.57	248.46
727.91	248.24
728.24	248.09
728.57	247.84
728.90	247.77
729.23	247.47
729.56	247.58
729.89	247.37
730.22	247.08
730.55	247.01
730.89	246.81
731.22	246.70
731.55	246.59
731.88	246.38
732.21	246.17
732.54	246.00
732.87	245.87
733.20	245.75
733.53	245.60
733.86	245.51
734.19	245.32
734.52	245.25
734.85	245.42
735.18	245.21
735.51	245.09
735.84	244.91
736.17	244.87
736.50	244.55
736.83	245.00
737.16	244.87
737.49	244.73
737.82	244.60
738.15	244.52
738.48	244.39
738.81	244.20
739.14	244.01
739.47	243.85
739.80	243.63
740.13	243.55
740.46	243.33
740.79	243.00
741.12	242.77
741.45	242.51
741.78	242.11
742.11	242.14
742.44	242.09
742.77	242.07
743.10	241.83
743.43	241.55
743.75	240.91
744.08	241.44
744.41	241.23
744.74	241.01
745.07	240.83
745.40	240.81
745.73	240.82
746.06	240.76
746.39	240.70
746.71	240.55
747.04	240.32
747.37	240.21
747.70	240.25
748.03	240.22
748.36	240.19
748.68	240.10
749.01	239.83
749.34	239.64
749.67	239.51
750.00	239.46
750.33	239.73
750.65	239.66
750.98	238.88
751.31	238.72
751.64	238.75
751.97	238.91
752.29	238.71
752.62	238.46
752.95	238.30
753.28	238.14
753.60	238.02
753.93	238.09
754.26	238.05
754.59	237.85
754.91	237.69
755.24	237.52
755.57	237.40
755.90	237.28
756.22	237.10
756.55	236.86
756.88	236.70
757.20	236.29
757.53	236.05
757.86	236.00
758.19	236.02
758.51	235.90
758.84	235.53
759.17	235.43
759.49	235.36
759.82	235.47
760.15	235.39
760.47	235.30
760.80	235.03
761.13	234.94
761.45	234.75
761.78	234.65
762.11	234.64
762.43	234.50
762.76	234.43
763.08	234.39
763.41	234.40
763.74	234.30
764.06	234.18
764.39	234.02
764.71	233.97
765.04	233.79
765.37	233.56
765.69	233.44
766.02	233.25
766.34	233.13
766.67	232.84
767.00	232.86
767.32	233.02
767.65	233.21
767.97	233.05
768.30	233.14
768.62	233.06
768.95	232.89
769.27	232.79
769.60	232.75
769.92	232.62
770.25	232.40
770.57	232.21
770.90	232.11
771.22	232.03
771.55	231.90
771.87	231.86
772.20	231.77
772.52	232.08
772.85	232.62
773.17	232.54
773.50	232.49
773.82	232.35
774.15	232.09
774.47	231.77
774.80	231.72
775.12	231.53
775.45	231.47
775.77	231.44
776.09	231.40
776.42	231.37
776.74	231.40
777.07	231.38
777.39	231.41
777.72	231.31
778.04	231.34
778.36	231.29
778.69	231.19
779.01	231.26
779.33	230.81
779.66	230.24
779.98	230.22
780.31	230.22
780.63	230.37
780.95	230.43
781.28	230.33
781.60	230.32
781.92	230.33
782.25	230.25
782.57	230.22
782.89	230.19
783.22	230.15
783.54	230.07
783.86	230.05
784.19	229.96
784.51	230.17
784.83	230.05
785.16	230.04
785.48	230.12
785.80	230.12
786.12	230.19
786.45	230.20
786.77	230.15
787.09	230.08
787.42	229.91
787.74	229.89
788.06	229.91
788.38	229.84
788.71	229.77
789.03	229.79
789.35	229.77
789.67	229.67
789.99	229.65
790.32	229.60
790.64	229.58
790.96	230.00
791.28	229.77
791.61	229.77
791.93	229.78
792.25	229.72
792.57	229.98
792.89	229.85
793.21	229.84
793.54	229.85
793.86	229.79
794.18	229.75
794.50	229.63
794.82	229.67
795.14	229.75
795.47	229.79
795.79	229.80
796.11	229.66
796.43	229.64
796.75	229.59
797.07	229.57
797.39	229.60
797.71	229.25
798.04	229.27
798.36	229.35
798.68	229.25
799.00	229.26
799.32	228.93
799.64	229.05
799.96	229.03
800.28	229.08
800.60	229.13
800.92	229.20
801.24	229.21
801.56	229.14
801.89	229.01
802.21	229.04
802.53	228.99
802.85	229.15
803.17	229.39
803.49	229.32
803.81	229.29
804.13	229.26
804.45	229.20
804.77	229.21
805.09	229.08
805.41	228.99
805.73	228.92
806.05	228.89
806.37	228.81
806.69	228.79
807.01	228.68
807.33	228.59
807.65	228.43
807.97	228.63
808.28	228.61
808.60	228.59
808.92	228.51
809.24	228.73
809.56	228.71
809.88	228.54
810.20	228.55
810.52	228.65
810.84	228.54
811.16	228.48
811.48	228.46
811.80	228.67
812.12	228.68
812.43	228.78
812.75	228.78
813.07	228.67
813.39	228.66
813.71	228.61
814.03	228.61
814.35	228.58
814.67	228.36
814.98	228.32
815.30	228.38
815.62	228.33
815.94	228.05
816.26	228.15
816.58	228.02
816.89	228.01
817.21	227.86
817.53	227.93
817.85	227.90
818.17	227.86
818.48	227.68
818.80	227.77
819.12	227.65
819.44	227.62
819.76	227.52
820.07	227.50
820.39	227.44
820.71	227.43
821.03	227.40
821.34	227.38
821.66	227.43
821.98	227.42
822.30	227.40
822.61	227.62
822.93	227.42
823.25	227.44
823.57	227.43
823.88	227.53
824.20	227.49
824.52	227.57
824.83	227.54
825.15	227.49
825.47	227.44
825.79	227.47
826.10	227.40
826.42	227.49
826.74	227.59
827.05	227.64
827.37	227.64
827.69	227.62
828.00	227.59
828.32	227.61
828.64	227.54
828.95	227.85
829.27	227.77
829.58	227.70
829.90	227.73
830.22	227.74
830.53	227.58
830.85	227.51
831.17	227.32
831.48	227.39
831.80	227.46
832.11	227.42
832.43	227.40
832.75	227.45
833.06	227.74
833.38	227.53
833.69	227.53
834.01	227.58
834.32	227.60
834.64	227.58
834.96	227.56
835.27	227.65
835.59	227.38
835.90	227.28
836.22	227.26
836.53	227.16
836.85	227.11
837.16	227.62
837.48	227.66
837.79	227.85
838.11	227.86
838.42	227.86
838.74	227.88
839.05	227.77
839.37	227.70
839.68	227.37
840.00	227.34
840.31	227.42
840.63	227.38
840.94	227.33
841.26	227.31
841.57	227.29
841.88	227.23
842.20	227.26
842.51	227.17
842.83	227.13
843.14	227.63
843.46	227.64
843.77	227.32
844.08	227.28
844.40	227.11
844.71	226.99
845.03	226.90
845.34	226.87
845.65	226.86
845.97	226.83
846.28	226.82
846.60	226.93
846.91	226.75
847.22	226.71
847.54	226.83
847.85	226.79
848.16	226.77
848.48	226.69
848.79	226.83
849.10	226.88
849.42	226.95
849.73	226.41
850.04	226.37
850.36	226.21
850.67	226.28
850.98	226.27
851.30	226.31
851.61	226.28
851.92	226.25
852.23	226.45
852.55	226.50
852.86	226.54
853.17	226.51
853.49	226.63
853.80	226.69
854.11	226.64
854.42	226.73
854.74	226.60
855.05	226.65
855.36	226.41
855.67	226.40
855.99	226.45
856.30	227.02
856.61	227.10
856.92	227.13
857.23	227.07
857.55	227.04
857.86	226.98
858.17	227.10
858.48	227.05
858.79	226.96
859.11	226.95
859.42	226.89
859.73	226.86
860.04	226.81
860.35	226.67
860.66	226.55
860.98	226.53
861.29	226.67
861.60	226.64
861.91	226.71
862.22	226.62
862.53	226.47
862.84	225.93
863.16	225.96
863.47	225.93
863.78	225.91
864.09	225.99
864.40	226.09
864.71	226.02
865.02	226.07
865.33	225.98
865.64	225.94
865.95	225.96
866.27	226.23
866.58	226.20
866.89	226.28
867.20	226.34
867.51	226.27
867.82	226.19
868.13	226.30
868.44	226.19
868.75	226.39
869.06	226.50
869.37	226.53
869.68	226.38
869.99	226.45
870.30	226.47
870.61	226.50
870.92	226.34
871.23	226.32
871.54	226.42
871.85	226.52
872.16	226.51
872.47	226.52
872.78	226.26
873.09	226.33
873.40	226.26
873.71	226.23
874.02	226.23
874.33	226.18
874.64	226.09
874.95	226.15
875.26	226.04
875.56	225.96
875.87	225.96
876.18	225.95
876.49	226.41
876.80	226.43
877.11	226.28
877.42	226.33
877.73	226.38
878.04	226.31
878.35	226.35
878.66	226.44
878.96	226.43
879.27	226.43
879.58	226.41
879.89	226.45
880.20	226.68
880.51	226.67
880.82	226.72
881.12	226.75
881.43	226.71
881.74	226.64
882.05	226.63
882.36	226.64
882.67	226.70
882.97	226.18
883.28	226.16
883.59	226.25
883.90	226.33
884.21	226.42
884.51	226.41
884.82	226.32
885.13	226.31
885.44	226.33
885.74	226.27
886.05	226.26
886.36	226.26
886.67	226.03
886.98	226.38
887.28	226.41
887.59	226.44
887.90	226.49
888.20	226.45
888.51	226.58
888.82	226.53
889.13	226.58
889.43	226.97
889.74	226.93
890.05	226.86
890.35	226.85
890.66	226.70
890.97	226.68
891.28	226.68
891.58	226.62
891.89	226.60
892.20	226.61
892.50	226.55
892.81	226.61
893.12	226.64
893.42	226.24
893.73	226.30
894.04	226.24
894.34	226.26
894.65	226.27
894.95	226.18
895.26	226.16
895.57	226.33
895.87	225.82
896.18	225.88
896.48	225.90
896.79	225.75
897.10	225.85
897.40	225.84
897.71	225.88
898.01	225.84
898.32	225.86
898.63	225.86
898.93	225.88
899.24	225.84
899.54	225.85
899.85	225.90
900.15	225.79
900.46	225.81
900.76	225.76
901.07	225.78
901.38	225.76
901.68	225.81
901.99	225.56
902.29	225.60
902.60	225.54
902.90	225.52
903.21	225.65
903.51	225.61
903.82	225.64
904.12	225.66
904.43	225.74
904.73	225.78
905.03	225.75
905.34	226.28
905.64	226.18
905.95	226.15
906.25	226.11
906.56	226.17
906.86	226.13
907.17	226.12
907.47	226.15
907.77	226.13
908.08	226.09
908.38	226.15
908.69	226.17
908.99	226.25
909.30	226.27
909.60	226.21
909.90	226.20
910.21	226.12
910.51	225.99
910.81	225.95
911.12	225.85
911.42	225.88
911.73	225.35
912.03	225.36
912.33	225.45
912.64	225.48
912.94	225.42
913.24	225.38
913.55	225.40
913.85	225.42
914.15	225.52
914.46	225.60
914.76	225.49
915.06	225.54
915.37	225.51
915.67	225.45
915.97	225.46
916.27	225.35
916.58	225.41
916.88	225.41
917.18	225.32
917.49	225.78
917.79	225.72
918.09	225.79
918.39	225.95
918.70	225.92
919.00	225.88
919.30	226.14
919.60	226.09
919.91	226.03
920.21	226.06
920.51	225.97
920.81	225.86
921.12	225.99
921.42	225.97
921.72	226.03
922.02	226.09
922.32	226.22
922.63	226.21
922.93	226.42
923.23	226.41
923.53	226.47
923.83	226.04
924.13	226.17
924.44	226.17
924.74	226.28
925.04	226.40
925.34	226.39
925.64	226.16
925.94	226.21
926.24	226.49
926.55	226.43
926.85	226.49
927.15	226.50
927.45	226.53
927.75	226.51
928.05	226.49
928.35	226.56
928.65	226.58
928.95	226.68
929.26	226.49
929.56	226.61
929.86	226.65
930.16	226.69
930.46	226.59
930.76	226.60
931.06	226.33
931.36	226.16
931.66	226.24
931.96	226.36
932.26	226.40
932.56	226.22
932.86	226.23
933.16	226.21
933.46	226.25
933.76	226.15
934.06	226.28
934.36	226.39
934.66	226.31
934.96	226.20
935.26	226.22
935.56	226.31
935.86	226.20
936.16	226.12
936.46	226.03
936.76	226.00
937.06	225.96
937.36	226.04
937.66	226.00
937.96	226.01
938.26	225.81
938.56	225.75
938.86	225.75
939.16	225.90
939.46	225.91
939.76	225.89
940.06	225.90
940.35	225.78
940.65	225.58
940.95	225.63
941.25	225.53
941.55	225.45
941.85	225.35
942.15	225.49
942.45	225.63
942.75	225.69
943.04	225.76
943.34	225.81
943.64	225.76
943.94	225.75
944.24	225.73
944.54	225.80
944.84	225.80
945.13	225.76
945.43	225.60
945.73	225.64
946.03	225.60
946.33	225.55
946.62	225.49
946.92	225.46
947.22	225.48
947.52	225.54
947.82	225.62
948.11	225.58
948.41	225.47
948.71	225.29
949.01	225.31
949.31	225.28
949.60	225.26
949.90	225.32
950.20	225.30
950.50	225.25
950.79	225.20
951.09	225.25
951.39	225.20
951.69	225.16
951.98	225.24
952.28	225.20
952.58	225.20
952.87	225.26
953.17	225.33
953.47	225.27
953.76	225.29
954.06	225.10
954.36	225.08
954.66	225.07
954.95	225.18
955.25	225.24
955.55	225.29
955.84	225.16
956.14	225.13
956.44	225.25
956.73	225.21
957.03	225.28
957.32	225.26
957.62	225.26
957.92	225.39
958.21	225.28
958.51	225.89
958.81	225.96
959.10	225.99
959.40	226.12
959.69	226.13
959.99	226.18
960.29	226.28
960.58	226.26
960.88	226.40
961.17	226.43
961.47	226.40
961.76	226.34
962.06	226.43
962.36	226.40
962.65	226.39
962.95	226.43
963.24	226.43
963.54	226.46
963.83	226.49
964.13	226.42
964.42	226.35
964.72	225.93
965.01	225.97
965.31	225.94
965.60	225.85
965.90	226.13
966.19	226.06
966.49	226.08
966.78	226.18
967.08	226.19
967.37	226.14
967.67	226.11
967.96	226.15
968.26	226.20
968.55	226.27
968.85	226.21
969.14	226.21
969.43	226.18
969.73	226.18
970.02	226.13
970.32	226.12
970.61	226.11
970.91	226.02
971.20	225.93
971.49	225.89
971.79	225.88
972.08	225.56
972.38	225.59
972.67	225.53
972.96	225.54
973.26	225.44
973.55	225.58
973.85	225.47
974.14	225.44
974.43	225.52
974.73	225.46
975.02	225.45
975.31	225.45
975.61	225.46
975.90	225.42
976.19	225.43
976.49	225.51
976.78	225.56
977.07	225.52
977.37	225.55
977.66	225.62
977.95	225.56
978.24	225.60
978.54	225.74
978.83	225.79
979.12	225.79
979.42	225.77
979.71	225.71
980.00	225.84
980.29	225.91
980.59	225.75
980.88	225.89
981.17	225.97
981.46	226.05
981.76	226.01
982.05	226.16
982.34	226.18
982.63	226.17
982.93	226.15
983.22	226.27
983.51	226.28
983.80	226.33
984.09	226.41
984.39	226.46
984.68	226.39
984.97	226.41
985.26	226.35
985.55	226.40
985.85	226.31
986.14	226.36
986.43	226.38
986.72	226.36
987.01	226.18
987.30	226.08
987.59	225.96
987.89	226.00
988.18	225.82
988.47	225.77
988.76	225.70
989.05	225.72
989.34	225.65
989.63	225.78
989.92	225.67
990.22	225.56
990.51	225.52
990.80	225.39
991.09	225.40
991.38	225.44
991.67	225.36
991.96	225.38
992.25	225.39
992.54	225.24
992.83	225.24
993.12	225.22
993.41	225.29
993.70	225.47
993.99	225.56
994.28	225.66
994.58	225.72
994.87	225.68
995.16	225.60
995.45	225.55
995.74	225.38
996.03	225.41
996.32	225.45
996.61	225.50
996.90	225.47
997.19	225.48
997.48	225.50
997.77	225.46
998.06	225.43
998.34	225.35
998.63	225.38
998.92	225.39
999.21	225.47
999.50	225.41
999.79	225.27
1000.08	225.23
1000.37	225.23
1000.66	225.16
1000.95	225.32
1001.24	225.36
1001.53	225.40
1001.82	225.40
1002.11	225.31
1002.40	225.39
1002.68	225.50
1002.97	225.80
1003.26	225.62
1003.55	225.56
1003.84	225.58
1004.13	225.70
1004.42	225.70
1004.71	225.73
1004.99	225.72
1005.28	225.76
1005.57	225.80
1005.86	225.76
1006.15	225.64
1006.44	225.60
1006.72	225.71
1007.01	225.61
1007.30	225.55
1007.59	225.48
1007.88	225.43
1008.17	225.52
1008.45	225.43
1008.74	225.23
1009.03	225.10
1009.32	225.24
1009.60	225.22
1009.89	225.23
1010.18	225.08
1010.47	225.07
1010.76	225.06
1011.04	225.02
1011.33	225.06
1011.62	225.03
1011.91	225.05
1012.19	225.13
1012.48	225.11
1012.77	225.06
1013.05	225.26
1013.34	225.26
1013.63	225.32
1013.92	225.43
1014.20	225.43
1014.49	225.48
1014.78	225.51
1015.06	225.31
1015.35	225.22
1015.64	225.30
1015.92	225.42
1016.21	225.43
1016.50	225.44
1016.78	225.48
1017.07	225.58
1017.36	225.56
1017.64	225.51
1017.93	225.59
1018.22	225.55
1018.50	225.52
1018.79	225.52
1019.08	225.36
1019.36	225.47
1019.65	225.33
1019.93	225.48
1020.22	225.48
1020.51	225.66
1020.79	225.58
1021.08	224.70
1021.36	224.00
1021.65	225.55
1021.94	226.35
1022.22	225.85
1022.51	223.05
1022.79	229.05
1023.08	225.55
1023.36	230.20
1023.65	223.45
>>>>>End Processed Spectral Data<<<<<
