SpectraSuite Data File
++++++++++++++++++++++++++++++++++++
Date: Wed Sep 04 17:58:12 EDT 2013
User: lab3
Dark Spectrum Present: Yes
Reference Spectrum Present: No
Number of Sampled Component Spectra: 1
Spectrometers: USB2E7196
Integration Time (usec): 170000 (USB2E7196)
Spectra Averaged: 20 (USB2E7196)
Boxcar Smoothing: 10 (USB2E7196)
Correct for Electrical Dark: No (USB2E7196)
Strobe/Lamp Enabled: No (USB2E7196)
Correct for Detector Non-linearity: No (USB2E7196)
Correct for Stray Light: No (USB2E7196)
Number of Pixels in Processed Spectrum: 2048
>>>>>Begin Processed Spectral Data<<<<<
339.09	0.00
339.48	212.85
339.86	213.95
340.24	216.05
340.63	217.15
341.01	226.10
341.39	219.80
341.78	223.05
342.16	222.65
342.54	223.75
342.93	212.45
343.31	223.19
343.69	223.81
344.07	224.34
344.46	224.83
344.84	225.29
345.22	225.24
345.60	225.57
345.99	225.70
346.37	225.83
346.75	225.95
347.13	226.08
347.52	226.18
347.90	226.44
348.28	226.42
348.66	226.56
349.05	226.43
349.43	226.53
349.81	226.60
350.19	226.59
350.57	226.58
350.96	226.70
351.34	226.81
351.72	226.85
352.10	226.93
352.48	226.97
352.87	226.96
353.25	227.05
353.63	227.04
354.01	227.11
354.39	227.26
354.77	227.31
355.15	227.44
355.54	227.42
355.92	227.28
356.30	227.35
356.68	227.65
357.06	227.77
357.44	227.73
357.82	227.74
358.20	228.24
358.58	228.23
358.97	228.28
359.35	228.36
359.73	228.49
360.11	228.54
360.49	228.58
360.87	228.67
361.25	228.77
361.63	228.98
362.01	229.05
362.39	229.01
362.77	229.06
363.15	229.12
363.53	229.16
363.91	229.26
364.29	229.29
364.67	228.96
365.05	229.00
365.43	229.18
365.81	229.35
366.19	229.16
366.57	229.39
366.95	229.40
367.33	229.32
367.71	229.36
368.09	229.47
368.47	229.47
368.85	229.46
369.23	229.56
369.61	229.41
369.99	229.60
370.37	229.65
370.75	229.86
371.13	229.75
371.51	229.61
371.89	229.63
372.27	229.62
372.65	229.57
373.03	229.54
373.41	229.38
373.78	229.27
374.16	229.09
374.54	228.95
374.92	228.87
375.30	228.89
375.68	228.70
376.06	228.65
376.44	228.57
376.82	228.52
377.19	228.43
377.57	228.38
377.95	228.07
378.33	227.98
378.71	227.59
379.09	227.59
379.47	227.71
379.84	227.58
380.22	227.52
380.60	227.35
380.98	227.26
381.36	227.26
381.73	227.17
382.11	227.10
382.49	227.02
382.87	226.88
383.25	226.82
383.62	227.30
384.00	227.14
384.38	227.11
384.76	227.19
385.13	227.34
385.51	227.21
385.89	227.15
386.27	227.09
386.64	227.18
387.02	227.13
387.40	227.04
387.78	227.04
388.15	226.97
388.53	226.99
388.91	227.00
389.29	226.90
389.66	226.89
390.04	226.82
390.42	226.95
390.79	226.98
391.17	226.91
391.55	226.41
391.92	226.42
392.30	226.47
392.68	226.36
393.05	226.33
393.43	226.38
393.81	226.43
394.18	226.34
394.56	226.45
394.94	226.56
395.31	226.51
395.69	226.70
396.06	226.79
396.44	226.89
396.82	226.92
397.19	227.22
397.57	227.27
397.95	227.42
398.32	227.28
398.70	227.45
399.07	227.60
399.45	227.64
399.82	227.73
400.20	227.79
400.58	227.88
400.95	227.74
401.33	228.02
401.70	228.45
402.08	228.67
402.45	228.67
402.83	228.86
403.20	229.06
403.58	229.15
403.95	229.45
404.33	229.65
404.71	229.90
405.08	230.34
405.46	230.50
405.83	230.86
406.21	231.12
406.58	231.35
406.96	231.59
407.33	231.94
407.70	232.27
408.08	233.04
408.45	233.47
408.83	233.99
409.20	234.27
409.58	234.40
409.95	234.89
410.33	235.50
410.70	235.92
411.08	236.52
411.45	237.10
411.82	237.58
412.20	238.38
412.57	239.31
412.95	239.64
413.32	240.55
413.69	241.32
414.07	242.27
414.44	243.30
414.82	244.36
415.19	245.59
415.56	246.80
415.94	247.75
416.31	249.10
416.68	250.55
417.06	252.25
417.43	253.92
417.81	255.75
418.18	257.53
418.55	259.46
418.93	261.52
419.30	263.63
419.67	265.91
420.04	268.08
420.42	270.47
420.79	273.46
421.16	276.24
421.54	279.18
421.91	282.10
422.28	285.11
422.66	288.47
423.03	292.02
423.40	295.40
423.77	298.91
424.15	302.54
424.52	306.33
424.89	310.48
425.26	314.46
425.64	318.20
426.01	322.46
426.38	326.89
426.75	331.39
427.13	335.96
427.50	340.80
427.87	345.79
428.24	350.62
428.61	355.26
428.99	360.66
429.36	366.24
429.73	371.87
430.10	377.48
430.47	383.10
430.85	388.65
431.22	394.82
431.59	401.72
431.96	408.01
432.33	414.95
432.70	421.69
433.08	429.59
433.45	437.21
433.82	444.50
434.19	452.70
434.56	460.89
434.93	468.51
435.30	476.13
435.68	484.79
436.05	493.27
436.42	501.62
436.79	509.32
437.16	517.70
437.53	526.52
437.90	535.25
438.27	544.00
438.64	552.92
439.01	561.27
439.38	568.56
439.75	575.94
440.13	584.02
440.50	591.55
440.87	597.67
441.24	604.01
441.61	611.10
441.98	616.29
442.35	622.02
442.72	628.27
443.09	634.30
443.46	637.73
443.83	640.10
444.20	642.09
444.57	644.76
444.94	645.78
445.31	646.90
445.68	648.20
446.05	648.30
446.42	646.90
446.79	645.47
447.16	643.71
447.53	642.19
447.90	638.49
448.27	634.74
448.64	629.86
449.01	626.02
449.37	619.79
449.74	613.63
450.11	606.75
450.48	598.83
450.85	590.72
451.22	583.74
451.59	577.07
451.96	570.73
452.33	562.57
452.70	555.28
453.07	546.52
453.43	537.41
453.80	529.04
454.17	521.00
454.54	513.22
454.91	504.93
455.28	496.93
455.65	489.45
456.02	482.57
456.38	476.15
456.75	468.52
457.12	461.99
457.49	455.71
457.86	449.37
458.23	444.24
458.59	438.51
458.96	432.72
459.33	427.58
459.70	422.47
460.07	418.25
460.43	413.49
460.80	409.17
461.17	405.46
461.54	401.32
461.91	397.57
462.27	393.69
462.64	390.43
463.01	386.96
463.38	383.58
463.74	379.50
464.11	376.38
464.48	373.68
464.85	370.81
465.21	368.61
465.58	366.31
465.95	363.43
466.32	361.12
466.68	358.89
467.05	356.72
467.42	354.49
467.78	352.24
468.15	350.13
468.52	348.52
468.88	346.18
469.25	344.30
469.62	342.85
469.98	341.27
470.35	339.86
470.72	338.28
471.08	336.66
471.45	335.57
471.82	334.43
472.18	332.91
472.55	331.82
472.92	330.45
473.28	329.27
473.65	328.15
474.02	327.13
474.38	326.31
474.75	325.54
475.11	324.66
475.48	324.03
475.85	323.37
476.21	322.67
476.58	322.20
476.94	321.79
477.31	321.31
477.67	320.87
478.04	320.51
478.41	320.42
478.77	320.60
479.14	320.16
479.50	320.06
479.87	320.14
480.23	320.27
480.60	320.32
480.96	320.38
481.33	320.84
481.69	321.02
482.06	321.26
482.42	321.47
482.79	321.79
483.15	322.28
483.52	322.98
483.88	323.60
484.25	324.20
484.61	324.87
484.98	325.53
485.34	326.56
485.71	327.54
486.07	328.43
486.44	329.13
486.80	330.34
487.17	331.35
487.53	332.82
487.90	334.21
488.26	335.80
488.62	337.53
488.99	338.93
489.35	340.75
489.72	342.70
490.08	344.71
490.44	346.81
490.81	349.00
491.17	351.18
491.54	353.65
491.90	356.22
492.26	358.92
492.63	361.79
492.99	364.47
493.36	367.43
493.72	370.77
494.08	374.15
494.45	377.87
494.81	381.80
495.17	385.71
495.54	389.82
495.90	394.10
496.26	398.53
496.63	403.32
496.99	408.08
497.35	413.08
497.72	418.43
498.08	423.90
498.44	429.57
498.80	435.57
499.17	441.66
499.53	448.15
499.89	454.70
500.26	461.39
500.62	468.49
500.98	475.97
501.34	483.45
501.71	491.34
502.07	499.11
502.43	507.31
502.79	515.55
503.16	524.37
503.52	533.47
503.88	542.62
504.24	552.26
504.60	562.21
504.97	572.51
505.33	583.02
505.69	594.08
506.05	605.24
506.41	616.52
506.78	628.18
507.14	640.11
507.50	652.53
507.86	665.26
508.22	678.36
508.59	691.41
508.95	705.23
509.31	719.50
509.67	733.96
510.03	748.19
510.39	762.85
510.75	777.75
511.12	793.08
511.48	808.87
511.84	824.53
512.20	840.55
512.56	856.88
512.92	873.60
513.28	890.47
513.64	907.59
514.00	925.14
514.37	942.86
514.73	961.12
515.09	979.69
515.45	998.11
515.81	1016.60
516.17	1035.46
516.53	1054.21
516.89	1072.68
517.25	1092.08
517.61	1112.52
517.97	1133.05
518.33	1153.11
518.69	1173.19
519.05	1193.84
519.41	1214.81
519.77	1235.95
520.13	1256.63
520.49	1277.45
520.85	1299.99
521.21	1321.25
521.57	1342.64
521.93	1363.44
522.29	1384.47
522.65	1405.07
523.01	1426.16
523.37	1446.85
523.73	1467.87
524.09	1488.48
524.45	1509.45
524.81	1530.41
525.17	1551.05
525.53	1571.47
525.89	1592.74
526.25	1613.84
526.61	1634.43
526.97	1655.56
527.33	1676.81
527.68	1698.98
528.04	1720.17
528.40	1739.75
528.76	1760.89
529.12	1781.54
529.48	1802.60
529.84	1822.74
530.20	1843.71
530.56	1864.57
530.91	1885.70
531.27	1906.34
531.63	1927.15
531.99	1947.62
532.35	1967.73
532.71	1988.26
533.07	2009.17
533.42	2029.10
533.78	2048.93
534.14	2068.77
534.50	2087.97
534.86	2107.61
535.21	2125.29
535.57	2144.16
535.93	2162.14
536.29	2180.04
536.65	2198.18
537.00	2216.10
537.36	2234.13
537.72	2250.74
538.08	2267.77
538.44	2284.39
538.79	2300.65
539.15	2317.09
539.51	2333.14
539.87	2348.43
540.22	2362.36
540.58	2376.67
540.94	2389.91
541.29	2402.83
541.65	2415.34
542.01	2427.58
542.37	2437.90
542.72	2448.69
543.08	2459.15
543.44	2470.62
543.79	2480.55
544.15	2490.19
544.51	2500.16
544.87	2509.48
545.22	2518.45
545.58	2526.57
545.94	2533.83
546.29	2540.52
546.65	2546.82
547.01	2552.83
547.36	2558.29
547.72	2563.76
548.07	2567.68
548.43	2573.22
548.79	2578.00
549.14	2582.23
549.50	2586.28
549.86	2590.59
550.21	2594.75
550.57	2598.56
550.92	2600.00
551.28	2601.64
551.64	2604.08
551.99	2605.88
552.35	2607.70
552.70	2609.65
553.06	2611.38
553.41	2612.73
553.77	2614.36
554.13	2615.77
554.48	2617.21
554.84	2618.75
555.19	2619.83
555.55	2621.70
555.90	2620.76
556.26	2619.63
556.61	2617.98
556.97	2615.93
557.32	2614.81
557.68	2613.39
558.03	2611.33
558.39	2610.30
558.74	2609.26
559.10	2606.08
559.45	2602.29
559.81	2597.46
560.16	2592.19
560.52	2587.29
560.87	2582.80
561.23	2577.50
561.58	2571.76
561.94	2564.86
562.29	2557.48
562.64	2550.54
563.00	2542.15
563.35	2535.62
563.71	2529.21
564.06	2523.15
564.42	2516.53
564.77	2509.80
565.12	2502.53
565.48	2495.02
565.83	2486.71
566.19	2478.71
566.54	2470.80
566.89	2462.86
567.25	2455.62
567.60	2448.66
567.96	2441.01
568.31	2433.27
568.66	2424.96
569.02	2416.06
569.37	2408.14
569.72	2400.44
570.08	2391.06
570.43	2381.72
570.78	2372.85
571.14	2363.50
571.49	2353.12
571.84	2343.72
572.20	2332.94
572.55	2322.45
572.90	2311.38
573.26	2301.06
573.61	2289.89
573.96	2278.69
574.31	2267.00
574.67	2255.09
575.02	2242.21
575.37	2229.46
575.72	2215.85
576.08	2203.48
576.43	2190.93
576.78	2177.33
577.13	2163.34
577.49	2150.63
577.84	2138.84
578.19	2126.62
578.54	2113.76
578.90	2101.64
579.25	2089.04
579.60	2076.43
579.95	2063.54
580.30	2050.32
580.66	2036.90
581.01	2023.37
581.36	2009.61
581.71	1996.93
582.06	1983.65
582.42	1971.10
582.77	1958.45
583.12	1946.62
583.47	1934.35
583.82	1921.73
584.17	1909.66
584.53	1898.28
584.88	1885.41
585.23	1872.10
585.58	1857.81
585.93	1844.57
586.28	1831.47
586.63	1817.41
586.98	1803.29
587.34	1790.01
587.69	1776.80
588.04	1764.20
588.39	1752.26
588.74	1739.87
589.09	1727.41
589.44	1715.03
589.79	1702.94
590.14	1690.94
590.49	1678.65
590.84	1666.37
591.19	1654.92
591.54	1642.60
591.89	1630.20
592.25	1620.16
592.60	1608.61
592.95	1597.29
593.30	1585.42
593.65	1573.30
594.00	1561.22
594.35	1551.01
594.70	1539.06
595.05	1527.94
595.40	1515.55
595.75	1503.47
596.10	1492.21
596.45	1480.65
596.80	1469.68
597.15	1458.12
597.50	1446.35
597.85	1434.77
598.19	1422.90
598.54	1411.06
598.89	1399.77
599.24	1389.14
599.59	1377.15
599.94	1366.36
600.29	1355.76
600.64	1345.31
600.99	1334.66
601.34	1325.08
601.69	1314.07
602.04	1304.47
602.39	1294.67
602.74	1285.91
603.08	1276.64
603.43	1267.33
603.78	1257.46
604.13	1247.73
604.48	1237.97
604.83	1228.14
605.18	1218.55
605.53	1209.02
605.87	1199.60
606.22	1191.06
606.57	1181.63
606.92	1172.27
607.27	1163.18
607.62	1154.17
607.96	1145.59
608.31	1137.48
608.66	1129.05
609.01	1120.55
609.36	1111.71
609.70	1103.16
610.05	1094.28
610.40	1085.60
610.75	1076.81
611.10	1068.43
611.44	1059.63
611.79	1051.63
612.14	1043.67
612.49	1035.59
612.83	1028.13
613.18	1020.34
613.53	1012.61
613.88	1004.77
614.22	996.93
614.57	988.90
614.92	981.31
615.27	973.79
615.61	965.98
615.96	958.40
616.31	950.84
616.65	943.77
617.00	936.22
617.35	929.16
617.70	921.98
618.04	914.85
618.39	908.00
618.74	901.69
619.08	894.54
619.43	887.43
619.78	880.42
620.12	873.34
620.47	866.54
620.82	859.23
621.16	852.33
621.51	845.83
621.85	839.53
622.20	832.68
622.55	826.03
622.89	819.59
623.24	813.15
623.59	806.57
623.93	800.25
624.28	794.11
624.62	788.21
624.97	782.32
625.32	776.57
625.66	770.55
626.01	764.32
626.35	758.76
626.70	753.28
627.04	748.10
627.39	742.34
627.73	737.02
628.08	731.82
628.43	726.35
628.77	721.02
629.12	715.74
629.46	710.88
629.81	706.24
630.15	701.49
630.50	696.57
630.84	691.85
631.19	686.86
631.53	682.30
631.88	676.89
632.22	671.96
632.57	667.32
632.91	662.79
633.26	658.42
633.60	653.75
633.95	648.95
634.29	644.23
634.64	640.07
634.98	635.30
635.32	630.82
635.67	626.80
636.01	622.75
636.36	618.22
636.70	614.10
637.05	609.60
637.39	605.30
637.73	601.10
638.08	596.94
638.42	592.83
638.77	588.44
639.11	584.23
639.45	579.88
639.80	575.54
640.14	571.36
640.49	567.29
640.83	563.43
641.17	559.86
641.52	555.94
641.86	552.22
642.20	548.98
642.55	545.39
642.89	541.70
643.23	538.06
643.58	535.14
643.92	531.57
644.26	528.18
644.61	525.02
644.95	521.80
645.29	518.49
645.64	515.32
645.98	512.12
646.32	509.30
646.66	506.26
647.01	503.30
647.35	500.53
647.69	497.58
648.04	494.84
648.38	492.04
648.72	489.26
649.06	486.28
649.41	483.17
649.75	480.19
650.09	477.39
650.43	474.50
650.78	471.40
651.12	468.56
651.46	465.76
651.80	462.92
652.14	460.23
652.49	457.74
652.83	455.09
653.17	452.41
653.51	449.62
653.85	447.17
654.20	444.75
654.54	442.13
654.88	439.55
655.22	437.25
655.56	434.69
655.90	432.23
656.25	429.94
656.59	427.63
656.93	425.47
657.27	423.34
657.61	420.98
657.95	418.84
658.29	416.67
658.64	414.63
658.98	412.34
659.32	409.96
659.66	407.73
660.00	405.61
660.34	403.67
660.68	401.68
661.02	399.65
661.36	397.62
661.70	395.67
662.05	393.73
662.39	391.68
662.73	389.96
663.07	388.46
663.41	386.55
663.75	384.65
664.09	382.78
664.43	380.77
664.77	379.05
665.11	377.23
665.45	375.60
665.79	373.85
666.13	372.11
666.47	370.48
666.81	368.79
667.15	367.04
667.49	365.57
667.83	364.24
668.17	362.66
668.51	361.20
668.85	359.79
669.19	358.70
669.53	357.05
669.87	355.41
670.21	353.75
670.55	352.34
670.89	351.30
671.23	349.88
671.57	348.46
671.91	347.08
672.25	345.67
672.58	344.28
672.92	342.89
673.26	341.67
673.60	340.47
673.94	339.29
674.28	338.18
674.62	337.00
674.96	335.62
675.30	334.44
675.64	333.22
675.97	331.98
676.31	330.52
676.65	329.53
676.99	328.60
677.33	327.45
677.67	326.48
678.01	325.09
678.34	324.14
678.68	323.24
679.02	322.26
679.36	321.33
679.70	320.34
680.04	319.31
680.37	318.31
680.71	317.37
681.05	316.46
681.39	315.63
681.73	314.53
682.06	313.58
682.40	312.73
682.74	311.84
683.08	311.08
683.42	310.04
683.75	309.21
684.09	308.22
684.43	307.46
684.77	306.53
685.10	305.73
685.44	304.91
685.78	304.08
686.12	303.31
686.45	302.50
686.79	301.72
687.13	301.14
687.46	300.53
687.80	299.87
688.14	299.01
688.48	298.19
688.81	297.53
689.15	296.90
689.49	296.19
689.82	295.51
690.16	294.66
690.50	294.17
690.83	293.46
691.17	292.74
691.51	292.00
691.84	291.36
692.18	290.64
692.52	289.93
692.85	289.32
693.19	288.90
693.52	288.28
693.86	287.55
694.20	286.84
694.53	286.19
694.87	285.53
695.21	284.92
695.54	284.31
695.88	283.65
696.21	282.95
696.55	282.24
696.88	281.60
697.22	280.97
697.56	280.41
697.89	279.75
698.23	279.32
698.56	278.80
698.90	278.34
699.23	277.78
699.57	277.29
699.90	276.66
700.24	275.90
700.58	275.38
700.91	275.03
701.25	274.91
701.58	274.73
701.92	274.36
702.25	273.97
702.59	273.55
702.92	273.18
703.26	272.79
703.59	272.46
703.93	272.47
704.26	272.16
704.60	271.80
704.93	271.36
705.26	270.83
705.60	270.45
705.93	269.96
706.27	269.72
706.60	269.43
706.94	269.29
707.27	268.92
707.61	268.63
707.94	268.17
708.27	267.35
708.61	266.64
708.94	266.08
709.28	265.65
709.61	265.18
709.94	264.80
710.28	264.39
710.61	263.98
710.95	263.13
711.28	263.03
711.61	262.61
711.95	262.37
712.28	262.02
712.61	261.58
712.95	261.42
713.28	261.28
713.61	260.85
713.95	260.25
714.28	259.93
714.61	259.45
714.95	259.11
715.28	258.74
715.61	258.39
715.95	258.13
716.28	257.73
716.61	257.53
716.95	257.15
717.28	256.85
717.61	256.55
717.94	256.34
718.28	255.68
718.61	255.36
718.94	254.97
719.27	254.68
719.61	254.53
719.94	254.17
720.27	253.60
720.60	253.28
720.94	253.04
721.27	252.80
721.60	252.65
721.93	252.40
722.27	252.38
722.60	252.20
722.93	251.90
723.26	251.80
723.59	251.55
723.93	251.37
724.26	251.20
724.59	250.99
724.92	250.85
725.25	250.73
725.59	250.50
725.92	250.42
726.25	250.25
726.58	250.04
726.91	249.80
727.24	249.68
727.57	249.55
727.91	249.30
728.24	249.21
728.57	248.95
728.90	248.83
729.23	248.55
729.56	248.58
729.89	248.48
730.22	248.29
730.55	248.07
730.89	247.95
731.22	247.79
731.55	247.57
731.88	247.38
732.21	247.15
732.54	246.96
732.87	246.70
733.20	246.52
733.53	246.35
733.86	246.23
734.19	245.96
734.52	245.82
734.85	246.01
735.18	245.77
735.51	245.79
735.84	245.66
736.17	245.52
736.50	245.10
736.83	245.50
737.16	245.35
737.49	245.21
737.82	244.98
738.15	244.84
738.48	244.79
738.81	244.59
739.14	244.44
739.47	244.25
739.80	244.15
740.13	244.08
740.46	243.91
740.79	243.74
741.12	243.67
741.45	243.46
741.78	243.14
742.11	243.05
742.44	242.80
742.77	242.76
743.10	242.65
743.43	242.50
743.75	241.86
744.08	242.41
744.41	242.24
744.74	242.19
745.07	241.95
745.40	241.80
745.73	241.87
746.06	241.75
746.39	241.72
746.71	241.60
747.04	241.36
747.37	241.19
747.70	241.11
748.03	241.06
748.36	241.01
748.68	240.89
749.01	240.68
749.34	240.57
749.67	240.45
750.00	240.43
750.33	240.72
750.65	240.64
750.98	239.86
751.31	239.82
751.64	239.67
751.97	239.86
752.29	239.75
752.62	239.38
752.95	239.25
753.28	239.09
753.60	238.92
753.93	238.90
754.26	238.94
754.59	238.64
754.91	238.49
755.24	238.41
755.57	238.36
755.90	238.28
756.22	238.23
756.55	238.00
756.88	237.73
757.20	237.33
757.53	237.10
757.86	237.00
758.19	236.87
758.51	236.82
758.84	236.44
759.17	236.28
759.49	236.29
759.82	236.40
760.15	236.35
760.47	236.22
760.80	236.05
761.13	235.90
761.45	235.93
761.78	235.80
762.11	235.71
762.43	235.45
762.76	235.33
763.08	235.23
763.41	235.25
763.74	235.20
764.06	235.04
764.39	234.99
764.71	234.87
765.04	234.71
765.37	234.54
765.69	234.47
766.02	234.36
766.34	234.18
766.67	233.89
767.00	233.88
767.32	234.02
767.65	234.16
767.97	234.08
768.30	233.99
768.62	233.95
768.95	233.74
769.27	233.66
769.60	233.68
769.92	233.55
770.25	233.21
770.57	233.08
770.90	233.03
771.22	232.89
771.55	232.85
771.87	232.80
772.20	232.72
772.52	233.05
772.85	233.58
773.17	233.57
773.50	233.56
773.82	233.50
774.15	233.24
774.47	232.89
774.80	232.76
775.12	232.61
775.45	232.58
775.77	232.60
776.09	232.62
776.42	232.52
776.74	232.63
777.07	232.70
777.39	232.61
777.72	232.48
778.04	232.50
778.36	232.44
778.69	232.45
779.01	232.48
779.33	232.06
779.66	231.43
779.98	231.34
780.31	231.25
780.63	231.34
780.95	231.44
781.28	231.46
781.60	231.40
781.92	231.41
782.25	231.29
782.57	231.24
782.89	231.15
783.22	231.11
783.54	230.93
783.86	230.91
784.19	230.88
784.51	231.05
784.83	230.97
785.16	230.91
785.48	230.90
785.80	230.81
786.12	230.78
786.45	230.84
786.77	230.91
787.09	230.95
787.42	230.76
787.74	230.74
788.06	230.80
788.38	230.83
788.71	230.71
789.03	230.77
789.35	230.83
789.67	230.84
789.99	230.79
790.32	230.76
790.64	230.76
790.96	231.18
791.28	230.94
791.61	230.92
791.93	230.92
792.25	230.86
792.57	231.22
792.89	231.15
793.21	231.17
793.54	231.05
793.86	230.92
794.18	230.95
794.50	230.83
794.82	230.70
795.14	230.70
795.47	230.86
795.79	230.81
796.11	230.72
796.43	230.56
796.75	230.55
797.07	230.54
797.39	230.54
797.71	230.15
798.04	230.23
798.36	230.16
798.68	230.12
799.00	230.09
799.32	229.74
799.64	229.80
799.96	229.67
800.28	229.73
800.60	229.67
800.92	229.62
801.24	229.52
801.56	229.60
801.89	229.52
802.21	229.49
802.53	229.38
802.85	229.44
803.17	229.67
803.49	229.62
803.81	229.48
804.13	229.40
804.45	229.29
804.77	229.25
805.09	229.27
805.41	229.23
805.73	229.17
806.05	229.07
806.37	228.98
806.69	228.98
807.01	228.95
807.33	228.90
807.65	228.68
807.97	228.85
808.28	228.73
808.60	228.65
808.92	228.47
809.24	228.75
809.56	228.55
809.88	228.37
810.20	228.35
810.52	228.47
810.84	228.35
811.16	228.33
811.48	228.24
811.80	228.40
812.12	228.33
812.43	228.47
812.75	228.50
813.07	228.42
813.39	228.43
813.71	228.31
814.03	228.37
814.35	228.43
814.67	228.26
814.98	228.18
815.30	228.13
815.62	228.17
815.94	227.85
816.26	228.11
816.58	228.02
816.89	228.04
817.21	227.92
817.53	228.04
817.85	228.03
818.17	228.04
818.48	227.83
818.80	227.94
819.12	227.74
819.44	227.62
819.76	227.63
820.07	227.58
820.39	227.55
820.71	227.57
821.03	227.57
821.34	227.61
821.66	227.75
821.98	227.79
822.30	227.75
822.61	228.02
822.93	227.72
823.25	227.71
823.57	227.67
823.88	227.80
824.20	227.72
824.52	227.80
824.83	227.79
825.15	227.74
825.47	227.68
825.79	227.74
826.10	227.77
826.42	227.78
826.74	227.87
827.05	227.83
827.37	227.87
827.69	227.80
828.00	227.80
828.32	227.75
828.64	227.75
828.95	228.07
829.27	227.94
829.58	228.06
829.90	228.15
830.22	228.20
830.53	228.10
830.85	228.10
831.17	227.99
831.48	228.05
831.80	228.13
832.11	228.14
832.43	228.10
832.75	228.12
833.06	228.42
833.38	228.23
833.69	228.36
834.01	228.30
834.32	228.32
834.64	228.25
834.96	228.29
835.27	228.31
835.59	228.13
835.90	228.03
836.22	227.99
836.53	227.86
836.85	227.71
837.16	228.17
837.48	228.20
837.79	228.35
838.11	228.37
838.42	228.33
838.74	228.43
839.05	228.37
839.37	228.35
839.68	228.00
840.00	228.07
840.31	228.17
840.63	228.18
840.94	228.17
841.26	228.17
841.57	228.21
841.88	228.28
842.20	228.11
842.51	228.09
842.83	228.08
843.14	228.60
843.46	228.77
843.77	228.48
844.08	228.50
844.40	228.35
844.71	228.29
845.03	228.30
845.34	228.23
845.65	228.27
845.97	228.23
846.28	228.31
846.60	228.30
846.91	228.11
847.22	228.05
847.54	228.13
847.85	228.15
848.16	228.01
848.48	227.98
848.79	228.26
849.10	228.29
849.42	228.30
849.73	227.86
850.04	227.71
850.36	227.49
850.67	227.47
850.98	227.49
851.30	227.51
851.61	227.47
851.92	227.45
852.23	227.58
852.55	227.66
852.86	227.62
853.17	227.66
853.49	227.72
853.80	227.88
854.11	227.92
854.42	227.94
854.74	227.91
855.05	227.79
855.36	227.54
855.67	227.51
855.99	227.48
856.30	228.00
856.61	228.04
856.92	228.15
857.23	228.19
857.55	228.10
857.86	228.03
858.17	228.13
858.48	227.98
858.79	227.86
859.11	227.87
859.42	227.86
859.73	227.78
860.04	227.79
860.35	227.55
860.66	227.46
860.98	227.43
861.29	227.45
861.60	227.46
861.91	227.52
862.22	227.44
862.53	227.40
862.84	226.90
863.16	227.00
863.47	226.82
863.78	226.66
864.09	226.70
864.40	226.77
864.71	226.68
865.02	226.81
865.33	226.76
865.64	226.62
865.95	226.57
866.27	226.89
866.58	226.84
866.89	226.97
867.20	226.93
867.51	226.88
867.82	226.88
868.13	227.02
868.44	226.96
868.75	227.02
869.06	227.11
869.37	227.01
869.68	226.90
869.99	227.04
870.30	227.16
870.61	227.21
870.92	227.14
871.23	227.14
871.54	227.23
871.85	227.37
872.16	227.50
872.47	227.51
872.78	227.21
873.09	227.26
873.40	227.23
873.71	227.24
874.02	227.29
874.33	227.26
874.64	227.11
874.95	227.19
875.26	227.11
875.56	227.06
875.87	227.12
876.18	227.05
876.49	227.53
876.80	227.46
877.11	227.42
877.42	227.42
877.73	227.37
878.04	227.20
878.35	227.17
878.66	227.14
878.96	227.12
879.27	227.09
879.58	227.11
879.89	227.05
880.20	227.23
880.51	227.25
880.82	227.29
881.12	227.37
881.43	227.28
881.74	227.23
882.05	227.24
882.36	227.27
882.67	227.32
882.97	226.77
883.28	226.78
883.59	226.78
883.90	226.86
884.21	226.99
884.51	226.95
884.82	226.87
885.13	226.91
885.44	226.94
885.74	226.92
886.05	226.89
886.36	226.96
886.67	226.75
886.98	226.95
887.28	226.96
887.59	226.99
887.90	226.99
888.20	227.00
888.51	227.08
888.82	227.00
889.13	227.00
889.43	227.44
889.74	227.43
890.05	227.36
890.35	227.32
890.66	227.22
890.97	227.25
891.28	227.19
891.58	227.11
891.89	227.09
892.20	227.09
892.50	227.02
892.81	226.95
893.12	226.95
893.42	226.69
893.73	226.65
894.04	226.57
894.34	226.59
894.65	226.61
894.95	226.50
895.26	226.48
895.57	226.69
895.87	226.25
896.18	226.28
896.48	226.31
896.79	226.35
897.10	226.42
897.40	226.44
897.71	226.55
898.01	226.55
898.32	226.62
898.63	226.65
898.93	226.66
899.24	226.66
899.54	226.69
899.85	226.70
900.15	226.71
900.46	226.69
900.76	226.70
901.07	226.67
901.38	226.63
901.68	226.72
901.99	226.55
902.29	226.55
902.60	226.48
902.90	226.46
903.21	226.36
903.51	226.28
903.82	226.32
904.12	226.30
904.43	226.25
904.73	226.12
905.03	226.14
905.34	226.64
905.64	226.63
905.95	226.57
906.25	226.56
906.56	226.54
906.86	226.50
907.17	226.49
907.47	226.52
907.77	226.51
908.08	226.45
908.38	226.45
908.69	226.48
908.99	226.59
909.30	226.61
909.60	226.62
909.90	226.64
910.21	226.55
910.51	226.52
910.81	226.57
911.12	226.65
911.42	226.64
911.73	226.15
912.03	226.15
912.33	226.28
912.64	226.26
912.94	226.25
913.24	226.27
913.55	226.24
913.85	226.19
914.15	226.33
914.46	226.33
914.76	226.29
915.06	226.20
915.37	226.08
915.67	226.09
915.97	226.08
916.27	226.07
916.58	226.07
916.88	226.09
917.18	226.07
917.49	226.41
917.79	226.34
918.09	226.33
918.39	226.47
918.70	226.36
919.00	226.40
919.30	226.63
919.60	226.57
919.91	226.48
920.21	226.52
920.51	226.39
920.81	226.40
921.12	226.48
921.42	226.51
921.72	226.61
922.02	226.64
922.32	226.73
922.63	226.68
922.93	226.92
923.23	226.85
923.53	226.85
923.83	226.52
924.13	226.65
924.44	226.71
924.74	226.79
925.04	226.91
925.34	226.90
925.64	226.74
925.94	226.79
926.24	227.15
926.55	227.19
926.85	227.29
927.15	227.26
927.45	227.22
927.75	227.24
928.05	227.31
928.35	227.26
928.65	227.40
928.95	227.42
929.26	227.22
929.56	227.33
929.86	227.40
930.16	227.35
930.46	227.30
930.76	227.29
931.06	227.03
931.36	226.96
931.66	227.08
931.96	227.08
932.26	227.08
932.56	226.87
932.86	226.94
933.16	226.84
933.46	226.85
933.76	226.79
934.06	226.89
934.36	226.91
934.66	226.91
934.96	226.83
935.26	226.89
935.56	227.01
935.86	226.90
936.16	226.85
936.46	226.87
936.76	226.85
937.06	226.79
937.36	226.83
937.66	226.82
937.96	226.76
938.26	226.74
938.56	226.71
938.86	226.73
939.16	226.74
939.46	226.83
939.76	226.83
940.06	226.87
940.35	226.77
940.65	226.62
940.95	226.68
941.25	226.56
941.55	226.52
941.85	226.44
942.15	226.55
942.45	226.61
942.75	226.60
943.04	226.61
943.34	226.69
943.64	226.72
943.94	226.65
944.24	226.64
944.54	226.66
944.84	226.67
945.13	226.60
945.43	226.45
945.73	226.51
946.03	226.50
946.33	226.40
946.62	226.33
946.92	226.32
947.22	226.31
947.52	226.36
947.82	226.44
948.11	226.37
948.41	226.32
948.71	226.22
949.01	226.25
949.31	226.28
949.60	226.31
949.90	226.30
950.20	226.27
950.50	226.27
950.79	226.19
951.09	226.26
951.39	226.27
951.69	226.28
951.98	226.28
952.28	226.30
952.58	226.33
952.87	226.37
953.17	226.47
953.47	226.42
953.76	226.35
954.06	226.28
954.36	226.28
954.66	226.23
954.95	226.33
955.25	226.33
955.55	226.33
955.84	226.23
956.14	226.34
956.44	226.43
956.73	226.28
957.03	226.35
957.32	226.34
957.62	226.30
957.92	226.39
958.21	226.38
958.51	226.92
958.81	227.01
959.10	227.00
959.40	227.08
959.69	227.13
959.99	227.24
960.29	227.24
960.58	227.10
960.88	227.29
961.17	227.20
961.47	227.28
961.76	227.23
962.06	227.32
962.36	227.20
962.65	227.22
962.95	227.31
963.24	227.23
963.54	227.30
963.83	227.40
964.13	227.37
964.42	227.24
964.72	226.85
965.01	226.85
965.31	226.82
965.60	226.75
965.90	227.02
966.19	226.94
966.49	227.01
966.78	227.04
967.08	227.00
967.37	227.03
967.67	226.91
967.96	227.05
968.26	227.02
968.55	227.05
968.85	227.06
969.14	227.05
969.43	227.03
969.73	226.92
970.02	226.86
970.32	226.83
970.61	226.79
970.91	226.59
971.20	226.54
971.49	226.58
971.79	226.62
972.08	226.28
972.38	226.31
972.67	226.18
972.96	226.32
973.26	226.19
973.55	226.35
973.85	226.30
974.14	226.22
974.43	226.19
974.73	226.10
975.02	226.00
975.31	225.94
975.61	225.91
975.90	225.84
976.19	225.78
976.49	225.86
976.78	225.90
977.07	225.92
977.37	225.98
977.66	225.97
977.95	225.86
978.24	225.86
978.54	225.94
978.83	225.99
979.12	225.89
979.42	225.89
979.71	225.81
980.00	225.81
980.29	225.82
980.59	225.78
980.88	225.91
981.17	225.89
981.46	226.00
981.76	226.04
982.05	226.20
982.34	226.23
982.63	226.19
982.93	226.18
983.22	226.37
983.51	226.32
983.80	226.32
984.09	226.36
984.39	226.40
984.68	226.30
984.97	226.30
985.26	226.38
985.55	226.44
985.85	226.31
986.14	226.43
986.43	226.47
986.72	226.45
987.01	226.32
987.30	226.37
987.59	226.29
987.89	226.31
988.18	226.23
988.47	226.21
988.76	226.22
989.05	226.19
989.34	226.16
989.63	226.33
989.92	226.33
990.22	226.33
990.51	226.25
990.80	226.23
991.09	226.25
991.38	226.29
991.67	226.24
991.96	226.26
992.25	226.23
992.54	226.17
992.83	226.20
993.12	226.28
993.41	226.38
993.70	226.58
993.99	226.67
994.28	226.68
994.58	226.75
994.87	226.69
995.16	226.72
995.45	226.63
995.74	226.45
996.03	226.56
996.32	226.64
996.61	226.79
996.90	226.81
997.19	226.85
997.48	226.84
997.77	226.81
998.06	226.83
998.34	226.85
998.63	226.83
998.92	226.90
999.21	226.91
999.50	226.93
999.79	226.80
1000.08	226.81
1000.37	226.86
1000.66	226.80
1000.95	226.94
1001.24	226.99
1001.53	227.02
1001.82	227.05
1002.11	226.94
1002.40	226.99
1002.68	227.11
1002.97	227.42
1003.26	227.31
1003.55	227.26
1003.84	227.35
1004.13	227.57
1004.42	227.57
1004.71	227.54
1004.99	227.47
1005.28	227.57
1005.57	227.48
1005.86	227.39
1006.15	227.29
1006.44	227.21
1006.72	227.24
1007.01	227.11
1007.30	227.08
1007.59	227.01
1007.88	227.00
1008.17	226.99
1008.45	226.85
1008.74	226.64
1009.03	226.45
1009.32	226.51
1009.60	226.47
1009.89	226.35
1010.18	226.07
1010.47	225.98
1010.76	226.06
1011.04	226.06
1011.33	226.08
1011.62	226.12
1011.91	226.20
1012.19	226.26
1012.48	226.24
1012.77	226.24
1013.05	226.48
1013.34	226.46
1013.63	226.44
1013.92	226.41
1014.20	226.31
1014.49	226.29
1014.78	226.30
1015.06	226.09
1015.35	226.02
1015.64	226.06
1015.92	226.13
1016.21	226.11
1016.50	226.10
1016.78	226.05
1017.07	226.10
1017.36	225.93
1017.64	225.88
1017.93	225.92
1018.22	225.86
1018.50	225.88
1018.79	225.90
1019.08	225.69
1019.36	225.73
1019.65	225.70
1019.93	225.83
1020.22	225.92
1020.51	226.18
1020.79	226.10
1021.08	225.50
1021.36	225.30
1021.65	227.00
1021.94	225.75
1022.22	226.45
1022.51	224.80
1022.79	228.00
1023.08	226.35
1023.36	231.30
1023.65	224.20
>>>>>End Processed Spectral Data<<<<<
