SpectraSuite Data File
++++++++++++++++++++++++++++++++++++
Date: Wed Sep 04 17:52:31 EDT 2013
User: lab3
Dark Spectrum Present: Yes
Reference Spectrum Present: No
Number of Sampled Component Spectra: 1
Spectrometers: USB2E7196
Integration Time (usec): 170000 (USB2E7196)
Spectra Averaged: 20 (USB2E7196)
Boxcar Smoothing: 10 (USB2E7196)
Correct for Electrical Dark: No (USB2E7196)
Strobe/Lamp Enabled: No (USB2E7196)
Correct for Detector Non-linearity: No (USB2E7196)
Correct for Stray Light: No (USB2E7196)
Number of Pixels in Processed Spectrum: 2048
>>>>>Begin Processed Spectral Data<<<<<
339.09	0.00
339.48	213.15
339.86	213.75
340.24	216.35
340.63	217.55
341.01	224.90
341.39	220.95
341.78	222.70
342.16	224.15
342.54	223.10
342.93	212.40
343.31	223.10
343.69	223.62
344.07	224.19
344.46	224.65
344.84	225.06
345.22	225.11
345.60	225.31
345.99	225.53
346.37	225.70
346.75	225.84
347.13	225.91
347.52	225.98
347.90	226.16
348.28	226.19
348.66	226.36
349.05	226.24
349.43	226.32
349.81	226.34
350.19	226.39
350.57	226.45
350.96	226.55
351.34	226.66
351.72	226.78
352.10	226.81
352.48	226.83
352.87	226.85
353.25	226.88
353.63	226.91
354.01	226.89
354.39	226.96
354.77	226.97
355.15	227.14
355.54	227.10
355.92	227.01
356.30	227.01
356.68	227.32
357.06	227.37
357.44	227.35
357.82	227.37
358.20	227.87
358.58	227.89
358.97	227.90
359.35	228.02
359.73	228.17
360.11	228.23
360.49	228.31
360.87	228.35
361.25	228.53
361.63	228.78
362.01	228.91
362.39	228.89
362.77	229.01
363.15	229.06
363.53	229.19
363.91	229.25
364.29	229.28
364.67	228.82
365.05	228.94
365.43	229.09
365.81	229.19
366.19	228.99
366.57	229.32
366.95	229.41
367.33	229.34
367.71	229.34
368.09	229.45
368.47	229.49
368.85	229.53
369.23	229.58
369.61	229.49
369.99	229.62
370.37	229.68
370.75	229.92
371.13	229.80
371.51	229.77
371.89	229.79
372.27	229.83
372.65	229.86
373.03	229.84
373.41	229.76
373.78	229.73
374.16	229.47
374.54	229.20
374.92	229.07
375.30	229.03
375.68	228.90
376.06	228.84
376.44	228.70
376.82	228.66
377.19	228.57
377.57	228.42
377.95	228.12
378.33	227.93
378.71	227.53
379.09	227.46
379.47	227.44
379.84	227.37
380.22	227.29
380.60	227.19
380.98	227.03
381.36	226.95
381.73	226.79
382.11	226.80
382.49	226.73
382.87	226.59
383.25	226.60
383.62	227.01
384.00	226.92
384.38	226.90
384.76	226.93
385.13	227.04
385.51	227.00
385.89	226.94
386.27	226.98
386.64	226.99
387.02	226.97
387.40	226.86
387.78	226.78
388.15	226.74
388.53	226.62
388.91	226.62
389.29	226.59
389.66	226.71
390.04	226.56
390.42	226.64
390.79	226.68
391.17	226.60
391.55	226.07
391.92	225.99
392.30	226.02
392.68	225.90
393.05	225.84
393.43	225.87
393.81	225.95
394.18	225.83
394.56	225.94
394.94	226.07
395.31	226.04
395.69	226.27
396.06	226.36
396.44	226.55
396.82	226.56
397.19	226.85
397.57	226.78
397.95	226.93
398.32	226.86
398.70	226.98
399.07	227.18
399.45	227.32
399.82	227.46
400.20	227.51
400.58	227.58
400.95	227.43
401.33	227.57
401.70	227.99
402.08	228.17
402.45	228.27
402.83	228.46
403.20	228.65
403.58	228.74
403.95	228.99
404.33	229.18
404.71	229.46
405.08	229.81
405.46	230.05
405.83	230.33
406.21	230.59
406.58	230.90
406.96	231.12
407.33	231.48
407.70	231.81
408.08	232.53
408.45	233.03
408.83	233.60
409.20	234.00
409.58	234.13
409.95	234.72
410.33	235.27
410.70	235.65
411.08	236.19
411.45	236.77
411.82	237.34
412.20	238.12
412.57	239.07
412.95	239.50
413.32	240.39
413.69	241.25
414.07	242.25
414.44	243.17
414.82	244.24
415.19	245.40
415.56	246.60
415.94	247.67
416.31	249.10
416.68	250.53
417.06	252.16
417.43	253.83
417.81	255.59
418.18	257.35
418.55	259.26
418.93	261.36
419.30	263.44
419.67	265.69
420.04	267.93
420.42	270.24
420.79	273.28
421.16	275.96
421.54	279.00
421.91	281.94
422.28	285.05
422.66	288.24
423.03	291.70
423.40	295.12
423.77	298.62
424.15	302.13
424.52	305.88
424.89	310.02
425.26	313.97
425.64	317.70
426.01	321.83
426.38	326.21
426.75	330.76
427.13	335.34
427.50	340.15
427.87	345.02
428.24	349.84
428.61	354.34
428.99	359.79
429.36	365.25
429.73	370.66
430.10	376.17
430.47	381.87
430.85	387.26
431.22	393.30
431.59	400.09
431.96	406.32
432.33	413.17
432.70	419.78
433.08	427.62
433.45	434.93
433.82	442.27
434.19	450.51
434.56	458.52
434.93	466.15
435.30	473.74
435.68	482.36
436.05	490.78
436.42	499.02
436.79	506.69
437.16	515.05
437.53	523.81
437.90	532.46
438.27	541.01
438.64	550.12
439.01	558.36
439.38	565.41
439.75	572.54
440.13	580.61
440.50	587.98
440.87	593.98
441.24	600.36
441.61	607.41
441.98	612.41
442.35	618.18
442.72	624.20
443.09	629.96
443.46	633.28
443.83	635.63
444.20	637.59
444.57	640.17
444.94	641.21
445.31	642.24
445.68	643.60
446.05	643.65
446.42	642.26
446.79	641.03
447.16	639.55
447.53	638.27
447.90	634.62
448.27	631.20
448.64	626.37
449.01	622.67
449.37	616.50
449.74	610.43
450.11	603.62
450.48	595.92
450.85	588.00
451.22	581.22
451.59	574.69
451.96	568.47
452.33	560.45
452.70	553.11
453.07	544.65
453.43	535.58
453.80	527.31
454.17	519.29
454.54	511.50
454.91	503.20
455.28	495.26
455.65	487.83
456.02	480.90
456.38	474.51
456.75	466.82
457.12	460.27
457.49	454.11
457.86	447.73
458.23	442.53
458.59	436.92
458.96	431.20
459.33	425.97
459.70	420.82
460.07	416.70
460.43	411.96
460.80	407.70
461.17	403.95
461.54	399.94
461.91	396.13
462.27	392.28
462.64	389.08
463.01	385.55
463.38	382.26
463.74	378.26
464.11	375.32
464.48	372.71
464.85	369.80
465.21	367.64
465.58	365.43
465.95	362.55
466.32	360.21
466.68	357.91
467.05	355.81
467.42	353.70
467.78	351.30
468.15	349.22
468.52	347.57
468.88	345.35
469.25	343.44
469.62	342.14
469.98	340.53
470.35	339.02
470.72	337.53
471.08	335.73
471.45	334.52
471.82	333.28
472.18	331.90
472.55	331.02
472.92	329.62
473.28	328.43
473.65	327.45
474.02	326.44
474.38	325.65
474.75	324.94
475.11	323.97
475.48	323.34
475.85	322.73
476.21	322.12
476.58	321.70
476.94	321.30
477.31	320.69
477.67	320.38
478.04	320.01
478.41	319.76
478.77	320.13
479.14	319.85
479.50	319.72
479.87	319.72
480.23	319.69
480.60	319.66
480.96	319.65
481.33	320.00
481.69	320.21
482.06	320.35
482.42	320.48
482.79	320.89
483.15	321.32
483.52	321.87
483.88	322.41
484.25	322.97
484.61	323.68
484.98	324.37
485.34	325.27
485.71	326.24
486.07	327.39
486.44	327.99
486.80	329.06
487.17	330.17
487.53	331.46
487.90	332.86
488.26	334.63
488.62	336.43
488.99	337.95
489.35	339.72
489.72	341.71
490.08	343.72
490.44	345.75
490.81	348.02
491.17	350.22
491.54	352.65
491.90	355.19
492.26	357.71
492.63	360.51
492.99	363.30
493.36	366.39
493.72	369.57
494.08	373.00
494.45	376.74
494.81	380.66
495.17	384.63
495.54	388.77
495.90	392.95
496.26	397.27
496.63	401.89
496.99	406.61
497.35	411.51
497.72	416.77
498.08	422.26
498.44	427.85
498.80	433.99
499.17	439.98
499.53	446.22
499.89	452.94
500.26	459.65
500.62	466.59
500.98	473.91
501.34	481.35
501.71	489.04
502.07	496.95
502.43	505.02
502.79	513.46
503.16	522.23
503.52	531.09
503.88	540.41
504.24	550.13
504.60	560.21
504.97	570.57
505.33	580.89
505.69	592.02
506.05	603.03
506.41	614.05
506.78	625.70
507.14	637.86
507.50	650.33
507.86	663.10
508.22	675.96
508.59	688.95
508.95	702.48
509.31	716.61
509.67	730.62
510.03	744.95
510.39	759.71
510.75	774.64
511.12	789.75
511.48	805.30
511.84	820.84
512.20	836.66
512.56	852.95
512.92	869.73
513.28	886.29
513.64	903.45
514.00	920.94
514.37	938.71
514.73	956.51
515.09	974.61
515.45	992.75
515.81	1011.20
516.17	1030.04
516.53	1048.54
516.89	1067.16
517.25	1086.50
517.61	1106.47
517.97	1126.45
518.33	1146.35
518.69	1166.67
519.05	1187.15
519.41	1207.86
519.77	1228.81
520.13	1249.52
520.49	1270.02
520.85	1292.07
521.21	1313.13
521.57	1334.25
521.93	1355.10
522.29	1376.54
522.65	1397.00
523.01	1417.88
523.37	1438.70
523.73	1459.48
524.09	1479.86
524.45	1500.45
524.81	1521.21
525.17	1541.79
525.53	1562.07
525.89	1582.95
526.25	1603.63
526.61	1623.62
526.97	1644.58
527.33	1665.73
527.68	1687.16
528.04	1708.33
528.40	1728.14
528.76	1749.12
529.12	1769.63
529.48	1790.24
529.84	1809.97
530.20	1830.96
530.56	1851.85
530.91	1872.61
531.27	1892.89
531.63	1913.59
531.99	1934.09
532.35	1953.95
532.71	1974.15
533.07	1994.66
533.42	2014.58
533.78	2034.34
534.14	2054.17
534.50	2072.89
534.86	2092.04
535.21	2109.53
535.57	2128.00
535.93	2145.33
536.29	2162.92
536.65	2181.02
537.00	2198.61
537.36	2216.00
537.72	2232.54
538.08	2249.17
538.44	2265.83
538.79	2282.21
539.15	2298.58
539.51	2314.50
539.87	2329.83
540.22	2343.55
540.58	2357.90
540.94	2370.97
541.29	2383.82
541.65	2396.63
542.01	2409.08
542.37	2419.23
542.72	2430.14
543.08	2440.67
543.44	2452.24
543.79	2462.43
544.15	2471.82
544.51	2481.66
544.87	2491.14
545.22	2499.55
545.58	2507.42
545.94	2514.04
546.29	2520.55
546.65	2527.07
547.01	2532.40
547.36	2537.62
547.72	2543.06
548.07	2546.97
548.43	2552.21
548.79	2556.90
549.14	2560.94
549.50	2564.86
549.86	2568.77
550.21	2572.44
550.57	2575.86
550.92	2577.47
551.28	2578.40
551.64	2580.66
551.99	2582.17
552.35	2583.79
552.70	2586.13
553.06	2588.05
553.41	2589.46
553.77	2591.13
554.13	2592.19
554.48	2594.08
554.84	2595.45
555.19	2596.64
555.55	2598.28
555.90	2597.28
556.26	2596.24
556.61	2594.55
556.97	2592.26
557.32	2591.53
557.68	2590.36
558.03	2588.99
558.39	2587.33
558.74	2586.55
559.10	2583.45
559.45	2579.95
559.81	2575.32
560.16	2569.63
560.52	2564.22
560.87	2560.08
561.23	2554.42
561.58	2548.74
561.94	2541.69
562.29	2534.39
562.64	2527.50
563.00	2519.35
563.35	2512.88
563.71	2506.25
564.06	2499.94
564.42	2493.37
564.77	2486.57
565.12	2479.10
565.48	2470.99
565.83	2463.16
566.19	2454.98
566.54	2447.30
566.89	2439.43
567.25	2432.22
567.60	2425.37
567.96	2418.07
568.31	2409.85
568.66	2401.40
569.02	2392.43
569.37	2384.12
569.72	2376.20
570.08	2366.94
570.43	2357.47
570.78	2348.35
571.14	2338.89
571.49	2328.72
571.84	2319.35
572.20	2308.72
572.55	2298.61
572.90	2287.87
573.26	2277.66
573.61	2266.85
573.96	2255.57
574.31	2243.56
574.67	2231.65
575.02	2218.85
575.37	2206.01
575.72	2192.81
576.08	2180.71
576.43	2168.29
576.78	2155.24
577.13	2141.57
577.49	2128.87
577.84	2117.13
578.19	2105.15
578.54	2092.61
578.90	2080.84
579.25	2068.26
579.60	2055.72
579.95	2042.71
580.30	2029.54
580.66	2016.30
581.01	2002.70
581.36	1988.60
581.71	1976.07
582.06	1962.99
582.42	1950.65
582.77	1938.17
583.12	1926.31
583.47	1914.14
583.82	1902.01
584.17	1890.04
584.53	1878.67
584.88	1865.79
585.23	1852.45
585.58	1838.35
585.93	1825.21
586.28	1811.98
586.63	1798.38
586.98	1784.33
587.34	1771.10
587.69	1758.20
588.04	1745.56
588.39	1733.78
588.74	1722.06
589.09	1709.94
589.44	1697.28
589.79	1685.27
590.14	1673.28
590.49	1661.03
590.84	1648.78
591.19	1636.80
591.54	1624.68
591.89	1612.51
592.25	1602.50
592.60	1591.16
592.95	1580.15
593.30	1568.12
593.65	1556.10
594.00	1544.27
594.35	1534.45
594.70	1522.70
595.05	1511.26
595.40	1499.23
595.75	1487.25
596.10	1475.73
596.45	1464.29
596.80	1453.47
597.15	1441.99
597.50	1430.28
597.85	1419.06
598.19	1407.51
598.54	1396.22
598.89	1385.06
599.24	1374.54
599.59	1362.95
599.94	1352.37
600.29	1341.75
600.64	1331.80
600.99	1321.06
601.34	1311.64
601.69	1300.63
602.04	1290.98
602.39	1281.28
602.74	1272.25
603.08	1262.80
603.43	1253.70
603.78	1243.96
604.13	1234.54
604.48	1225.01
604.83	1215.63
605.18	1205.93
605.53	1196.61
605.87	1187.13
606.22	1178.59
606.57	1169.49
606.92	1160.18
607.27	1151.21
607.62	1142.49
607.96	1133.86
608.31	1125.98
608.66	1117.45
609.01	1108.72
609.36	1100.34
609.70	1091.88
610.05	1083.31
610.40	1075.07
610.75	1066.51
611.10	1058.41
611.44	1049.80
611.79	1041.72
612.14	1033.88
612.49	1026.06
612.83	1018.75
613.18	1011.33
613.53	1003.60
613.88	995.61
614.22	987.78
614.57	979.93
614.92	972.05
615.27	964.60
615.61	956.98
615.96	949.52
616.31	942.13
616.65	935.00
617.00	927.76
617.35	920.47
617.70	913.25
618.04	906.29
618.39	899.35
618.74	893.09
619.08	886.19
619.43	879.07
619.78	872.09
620.12	864.89
620.47	858.09
620.82	850.95
621.16	844.41
621.51	838.23
621.85	831.88
622.20	825.37
622.55	818.64
622.89	812.23
623.24	805.71
623.59	799.40
623.93	793.22
624.28	787.19
624.62	781.71
624.97	776.03
625.32	770.29
625.66	764.19
626.01	758.00
626.35	752.60
626.70	747.12
627.04	741.90
627.39	736.40
627.73	731.05
628.08	725.90
628.43	720.39
628.77	714.85
629.12	709.68
629.46	705.02
629.81	700.25
630.15	695.40
630.50	690.50
630.84	685.90
631.19	681.11
631.53	676.56
631.88	671.18
632.22	666.23
632.57	661.73
632.91	657.17
633.26	652.85
633.60	648.19
633.95	643.64
634.29	638.86
634.64	634.63
634.98	629.77
635.32	625.40
635.67	621.45
636.01	617.36
636.36	613.10
636.70	608.96
637.05	604.90
637.39	600.87
637.73	596.80
638.08	592.75
638.42	588.63
638.77	584.27
639.11	580.14
639.45	575.92
639.80	571.62
640.14	567.70
640.49	563.65
640.83	559.79
641.17	556.22
641.52	552.62
641.86	548.83
642.20	545.90
642.55	542.33
642.89	538.67
643.23	535.09
643.58	531.96
643.92	528.19
644.26	524.68
644.61	521.51
644.95	518.25
645.29	514.89
645.64	511.53
645.98	508.59
646.32	505.69
646.66	502.72
647.01	499.75
647.35	496.95
647.69	494.05
648.04	491.27
648.38	488.35
648.72	485.63
649.06	482.68
649.41	479.49
649.75	476.45
650.09	473.50
650.43	470.81
650.78	467.78
651.12	465.20
651.46	462.53
651.80	459.76
652.14	457.15
652.49	454.63
652.83	452.30
653.17	449.62
653.51	447.02
653.85	444.60
654.20	442.17
654.54	439.63
654.88	437.20
655.22	434.89
655.56	432.48
655.90	430.02
656.25	427.80
656.59	425.69
656.93	423.55
657.27	421.62
657.61	419.18
657.95	417.02
658.29	414.81
658.64	412.68
658.98	410.32
659.32	408.01
659.66	405.81
660.00	403.61
660.34	401.60
660.68	399.52
661.02	397.46
661.36	395.49
661.70	393.36
662.05	391.50
662.39	389.64
662.73	387.87
663.07	386.30
663.41	384.49
663.75	382.52
664.09	380.75
664.43	378.65
664.77	377.10
665.11	375.33
665.45	373.60
665.79	371.94
666.13	370.31
666.47	368.64
666.81	367.05
667.15	365.28
667.49	363.84
667.83	362.57
668.17	361.04
668.51	359.53
668.85	358.36
669.19	357.10
669.53	355.51
669.87	354.08
670.21	352.53
670.55	351.16
670.89	349.96
671.23	348.54
671.57	347.14
671.91	345.78
672.25	344.52
672.58	343.30
672.92	341.86
673.26	340.74
673.60	339.68
673.94	338.47
674.28	337.50
674.62	336.25
674.96	334.87
675.30	333.78
675.64	332.60
675.97	331.28
676.31	329.91
676.65	328.74
676.99	327.64
677.33	326.45
677.67	325.37
678.01	324.15
678.34	323.22
678.68	322.39
679.02	321.25
679.36	320.15
679.70	319.15
680.04	318.32
680.37	317.31
680.71	316.26
681.05	315.33
681.39	314.33
681.73	313.42
682.06	312.53
682.40	311.60
682.74	310.82
683.08	310.09
683.42	309.13
683.75	308.45
684.09	307.55
684.43	306.79
684.77	305.91
685.10	305.15
685.44	304.35
685.78	303.54
686.12	302.74
686.45	301.90
686.79	301.08
687.13	300.37
687.46	299.63
687.80	299.01
688.14	298.25
688.48	297.56
688.81	296.84
689.15	296.24
689.49	295.52
689.82	294.79
690.16	293.94
690.50	293.36
690.83	292.57
691.17	291.79
691.51	291.14
691.84	290.57
692.18	289.83
692.52	289.13
692.85	288.54
693.19	288.19
693.52	287.62
693.86	286.96
694.20	286.30
694.53	285.65
694.87	284.91
695.21	284.26
695.54	283.66
695.88	282.97
696.21	282.27
696.55	281.71
696.88	281.11
697.22	280.53
697.56	279.95
697.89	279.29
698.23	278.87
698.56	278.27
698.90	277.63
699.23	277.08
699.57	276.58
699.90	275.90
700.24	275.21
700.58	274.76
700.91	274.44
701.25	274.24
701.58	274.10
701.92	273.81
702.25	273.33
702.59	272.78
702.92	272.41
703.26	271.98
703.59	271.56
703.93	271.50
704.26	271.17
704.60	270.83
704.93	270.47
705.26	269.96
705.60	269.60
705.93	269.19
706.27	269.01
706.60	268.74
706.94	268.65
707.27	268.25
707.61	267.95
707.94	267.50
708.27	266.80
708.61	266.08
708.94	265.62
709.28	265.33
709.61	264.94
709.94	264.59
710.28	264.23
710.61	263.82
710.95	263.08
711.28	262.96
711.61	262.54
711.95	262.29
712.28	261.95
712.61	261.58
712.95	261.51
713.28	261.26
713.61	260.75
713.95	260.26
714.28	259.99
714.61	259.58
714.95	259.18
715.28	258.81
715.61	258.55
715.95	258.28
716.28	257.88
716.61	257.71
716.95	257.30
717.28	256.96
717.61	256.57
717.94	256.28
718.28	255.64
718.61	255.27
718.94	254.81
719.27	254.45
719.61	254.22
719.94	253.84
720.27	253.27
720.60	252.95
720.94	252.64
721.27	252.40
721.60	252.24
721.93	252.00
722.27	251.89
722.60	251.66
722.93	251.29
723.26	251.11
723.59	250.75
723.93	250.62
724.26	250.44
724.59	250.24
724.92	250.02
725.25	249.95
725.59	249.77
725.92	249.61
726.25	249.52
726.58	249.28
726.91	249.00
727.24	248.96
727.57	248.81
727.91	248.50
728.24	248.32
728.57	248.01
728.90	247.93
729.23	247.67
729.56	247.67
729.89	247.47
730.22	247.32
730.55	247.14
730.89	246.92
731.22	246.70
731.55	246.52
731.88	246.42
732.21	246.19
732.54	245.97
732.87	245.87
733.20	245.68
733.53	245.56
733.86	245.41
734.19	245.16
734.52	245.09
734.85	245.32
735.18	245.12
735.51	245.15
735.84	244.94
736.17	244.87
736.50	244.55
736.83	245.11
737.16	244.97
737.49	244.90
737.82	244.73
738.15	244.63
738.48	244.50
738.81	244.29
739.14	244.13
739.47	244.05
739.80	243.84
740.13	243.73
740.46	243.51
740.79	243.31
741.12	243.18
741.45	242.98
741.78	242.55
742.11	242.60
742.44	242.38
742.77	242.33
743.10	242.14
743.43	241.97
743.75	241.25
744.08	241.75
744.41	241.60
744.74	241.43
745.07	241.24
745.40	241.29
745.73	241.33
746.06	241.18
746.39	241.09
746.71	240.97
747.04	240.81
747.37	240.73
747.70	240.75
748.03	240.67
748.36	240.61
748.68	240.49
749.01	240.12
749.34	239.98
749.67	239.86
750.00	239.80
750.33	240.03
750.65	239.93
750.98	239.19
751.31	239.10
751.64	239.01
751.97	239.23
752.29	239.03
752.62	238.70
752.95	238.58
753.28	238.43
753.60	238.24
753.93	238.21
754.26	238.16
754.59	237.93
754.91	237.78
755.24	237.64
755.57	237.57
755.90	237.53
756.22	237.36
756.55	237.15
756.88	236.95
757.20	236.49
757.53	236.25
757.86	236.08
758.19	235.93
758.51	235.88
758.84	235.52
759.17	235.31
759.49	235.27
759.82	235.39
760.15	235.27
760.47	235.25
760.80	235.04
761.13	235.00
761.45	234.86
761.78	234.84
762.11	234.71
762.43	234.58
762.76	234.43
763.08	234.34
763.41	234.40
763.74	234.29
764.06	234.18
764.39	234.12
764.71	233.98
765.04	233.88
765.37	233.68
765.69	233.55
766.02	233.46
766.34	233.30
766.67	233.06
767.00	233.09
767.32	233.18
767.65	233.40
767.97	233.26
768.30	233.23
768.62	233.10
768.95	233.02
769.27	232.93
769.60	232.93
769.92	232.87
770.25	232.72
770.57	232.55
770.90	232.50
771.22	232.40
771.55	232.42
771.87	232.43
772.20	232.40
772.52	232.72
772.85	233.34
773.17	233.33
773.50	233.27
773.82	233.17
774.15	233.00
774.47	232.71
774.80	232.57
775.12	232.54
775.45	232.49
775.77	232.46
776.09	232.44
776.42	232.45
776.74	232.57
777.07	232.37
777.39	232.42
777.72	232.34
778.04	232.40
778.36	232.31
778.69	232.28
779.01	232.34
779.33	231.88
779.66	231.30
779.98	231.26
780.31	231.26
780.63	231.43
780.95	231.36
781.28	231.28
781.60	231.28
781.92	231.31
782.25	231.22
782.57	231.20
782.89	231.09
783.22	231.05
783.54	230.91
783.86	231.04
784.19	231.00
784.51	231.11
784.83	231.00
785.16	230.96
785.48	230.95
785.80	230.89
786.12	230.94
786.45	230.81
786.77	230.78
787.09	230.67
787.42	230.41
787.74	230.47
788.06	230.43
788.38	230.39
788.71	230.27
789.03	230.30
789.35	230.32
789.67	230.25
789.99	230.19
790.32	230.06
790.64	230.09
790.96	230.44
791.28	230.30
791.61	230.31
791.93	230.37
792.25	230.28
792.57	230.55
792.89	230.36
793.21	230.41
793.54	230.34
793.86	230.26
794.18	230.29
794.50	230.16
794.82	230.18
795.14	230.16
795.47	230.22
795.79	230.19
796.11	230.05
796.43	230.10
796.75	230.10
797.07	230.13
797.39	230.05
797.71	229.69
798.04	229.70
798.36	229.61
798.68	229.49
799.00	229.53
799.32	229.22
799.64	229.36
799.96	229.37
800.28	229.41
800.60	229.43
800.92	229.44
801.24	229.36
801.56	229.42
801.89	229.35
802.21	229.35
802.53	229.27
802.85	229.31
803.17	229.53
803.49	229.33
803.81	229.29
804.13	229.16
804.45	229.03
804.77	229.00
805.09	229.04
805.41	229.05
805.73	228.83
806.05	228.89
806.37	228.80
806.69	228.72
807.01	228.72
807.33	228.64
807.65	228.52
807.97	228.72
808.28	228.64
808.60	228.65
808.92	228.52
809.24	228.82
809.56	228.74
809.88	228.46
810.20	228.57
810.52	228.66
810.84	228.64
811.16	228.58
811.48	228.59
811.80	228.77
812.12	228.69
812.43	228.83
812.75	228.75
813.07	228.70
813.39	228.72
813.71	228.60
814.03	228.69
814.35	228.61
814.67	228.45
814.98	228.38
815.30	228.40
815.62	228.37
815.94	228.00
816.26	228.24
816.58	228.20
816.89	228.16
817.21	228.02
817.53	228.07
817.85	228.19
818.17	228.17
818.48	228.01
818.80	228.13
819.12	228.08
819.44	227.99
819.76	227.94
820.07	227.91
820.39	227.96
820.71	227.92
821.03	227.95
821.34	227.92
821.66	227.97
821.98	227.96
822.30	227.93
822.61	228.19
822.93	227.99
823.25	228.02
823.57	228.00
823.88	228.10
824.20	228.07
824.52	228.11
824.83	228.07
825.15	227.96
825.47	227.90
825.79	227.95
826.10	227.90
826.42	227.83
826.74	227.77
827.05	227.73
827.37	227.78
827.69	227.82
828.00	227.85
828.32	227.91
828.64	227.88
828.95	228.15
829.27	227.95
829.58	227.93
829.90	228.00
830.22	228.01
830.53	227.87
830.85	227.83
831.17	227.70
831.48	227.70
831.80	227.71
832.11	227.65
832.43	227.54
832.75	227.54
833.06	227.93
833.38	227.84
833.69	227.75
834.01	227.78
834.32	227.70
834.64	227.62
834.96	227.54
835.27	227.46
835.59	227.27
835.90	227.29
836.22	227.30
836.53	227.20
836.85	227.22
837.16	227.71
837.48	227.78
837.79	227.89
838.11	227.95
838.42	228.00
838.74	228.06
839.05	228.06
839.37	228.15
839.68	227.84
840.00	227.91
840.31	228.08
840.63	228.02
840.94	227.97
841.26	227.95
841.57	227.97
841.88	228.08
842.20	228.04
842.51	227.90
842.83	227.88
843.14	228.27
843.46	228.29
843.77	228.00
844.08	227.90
844.40	227.77
844.71	227.63
845.03	227.54
845.34	227.52
845.65	227.48
845.97	227.36
846.28	227.37
846.60	227.34
846.91	227.23
847.22	227.19
847.54	227.31
847.85	227.32
848.16	227.28
848.48	227.17
848.79	227.35
849.10	227.43
849.42	227.49
849.73	227.03
850.04	226.95
850.36	226.73
850.67	226.80
850.98	226.86
851.30	226.95
851.61	226.90
851.92	226.97
852.23	227.12
852.55	227.20
852.86	227.23
853.17	227.31
853.49	227.42
853.80	227.51
854.11	227.56
854.42	227.63
854.74	227.53
855.05	227.62
855.36	227.38
855.67	227.41
855.99	227.41
856.30	227.95
856.61	227.95
856.92	227.98
857.23	227.98
857.55	227.89
857.86	227.90
858.17	227.99
858.48	227.85
858.79	227.80
859.11	227.82
859.42	227.78
859.73	227.75
860.04	227.66
860.35	227.57
860.66	227.40
860.98	227.41
861.29	227.56
861.60	227.53
861.91	227.64
862.22	227.52
862.53	227.44
862.84	226.86
863.16	226.99
863.47	226.92
863.78	226.91
864.09	226.97
864.40	226.97
864.71	226.94
865.02	227.00
865.33	226.89
865.64	226.74
865.95	226.72
866.27	226.92
866.58	226.89
866.89	226.98
867.20	226.93
867.51	226.85
867.82	226.77
868.13	226.88
868.44	226.76
868.75	226.91
869.06	226.92
869.37	227.01
869.68	226.82
869.99	226.90
870.30	226.87
870.61	226.90
870.92	226.79
871.23	226.80
871.54	226.85
871.85	227.07
872.16	227.20
872.47	227.15
872.78	226.94
873.09	226.98
873.40	226.86
873.71	226.93
874.02	226.95
874.33	226.89
874.64	226.74
874.95	226.87
875.26	226.72
875.56	226.73
875.87	226.74
876.18	226.75
876.49	227.21
876.80	227.20
877.11	227.13
877.42	227.16
877.73	227.16
878.04	227.04
878.35	226.98
878.66	227.03
878.96	226.97
879.27	226.91
879.58	226.91
879.89	226.86
880.20	226.98
880.51	226.94
880.82	227.01
881.12	227.05
881.43	226.92
881.74	226.89
882.05	226.78
882.36	226.84
882.67	226.79
882.97	226.33
883.28	226.32
883.59	226.30
883.90	226.32
884.21	226.40
884.51	226.49
884.82	226.45
885.13	226.39
885.44	226.49
885.74	226.50
886.05	226.43
886.36	226.41
886.67	226.26
886.98	226.43
887.28	226.39
887.59	226.31
887.90	226.32
888.20	226.30
888.51	226.39
888.82	226.26
889.13	226.40
889.43	226.70
889.74	226.68
890.05	226.63
890.35	226.63
890.66	226.55
890.97	226.45
891.28	226.38
891.58	226.43
891.89	226.34
892.20	226.28
892.50	226.22
892.81	226.24
893.12	226.28
893.42	226.16
893.73	226.21
894.04	226.27
894.34	226.32
894.65	226.30
894.95	226.26
895.26	226.33
895.57	226.52
895.87	226.10
896.18	226.21
896.48	226.24
896.79	226.21
897.10	226.27
897.40	226.33
897.71	226.37
898.01	226.31
898.32	226.40
898.63	226.35
898.93	226.41
899.24	226.47
899.54	226.34
899.85	226.32
900.15	226.28
900.46	226.34
900.76	226.35
901.07	226.36
901.38	226.37
901.68	226.37
901.99	226.10
902.29	226.12
902.60	226.03
902.90	226.05
903.21	226.01
903.51	225.94
903.82	225.95
904.12	225.93
904.43	225.95
904.73	225.98
905.03	226.07
905.34	226.56
905.64	226.51
905.95	226.62
906.25	226.53
906.56	226.51
906.86	226.42
907.17	226.35
907.47	226.41
907.77	226.35
908.08	226.26
908.38	226.30
908.69	226.34
908.99	226.45
909.30	226.43
909.60	226.46
909.90	226.50
910.21	226.42
910.51	226.29
910.81	226.24
911.12	226.20
911.42	226.19
911.73	225.69
912.03	225.73
912.33	225.78
912.64	225.80
912.94	225.82
913.24	225.75
913.55	225.70
913.85	225.68
914.15	225.74
914.46	225.79
914.76	225.71
915.06	225.65
915.37	225.48
915.67	225.51
915.97	225.47
916.27	225.36
916.58	225.44
916.88	225.46
917.18	225.48
917.49	225.83
917.79	225.81
918.09	225.86
918.39	225.97
918.70	225.94
919.00	225.97
919.30	226.21
919.60	226.23
919.91	226.22
920.21	226.26
920.51	226.22
920.81	226.20
921.12	226.25
921.42	226.29
921.72	226.34
922.02	226.31
922.32	226.41
922.63	226.45
922.93	226.58
923.23	226.63
923.53	226.62
923.83	226.29
924.13	226.37
924.44	226.37
924.74	226.45
925.04	226.50
925.34	226.54
925.64	226.30
925.94	226.24
926.24	226.53
926.55	226.43
926.85	226.51
927.15	226.52
927.45	226.59
927.75	226.60
928.05	226.69
928.35	226.67
928.65	226.80
928.95	226.85
929.26	226.77
929.56	226.89
929.86	226.97
930.16	226.96
930.46	226.95
930.76	226.93
931.06	226.72
931.36	226.66
931.66	226.72
931.96	226.76
932.26	226.81
932.56	226.59
932.86	226.71
933.16	226.69
933.46	226.67
933.76	226.64
934.06	226.73
934.36	226.84
934.66	226.86
934.96	226.75
935.26	226.83
935.56	226.87
935.86	226.81
936.16	226.71
936.46	226.72
936.76	226.64
937.06	226.62
937.36	226.67
937.66	226.71
937.96	226.67
938.26	226.59
938.56	226.58
938.86	226.66
939.16	226.77
939.46	226.83
939.76	226.89
940.06	226.83
940.35	226.77
940.65	226.61
940.95	226.68
941.25	226.54
941.55	226.46
941.85	226.43
942.15	226.46
942.45	226.60
942.75	226.53
943.04	226.60
943.34	226.65
943.64	226.60
943.94	226.53
944.24	226.55
944.54	226.61
944.84	226.61
945.13	226.56
945.43	226.45
945.73	226.39
946.03	226.36
946.33	226.35
946.62	226.31
946.92	226.34
947.22	226.32
947.52	226.38
947.82	226.40
948.11	226.32
948.41	226.19
948.71	226.08
949.01	226.11
949.31	226.06
949.60	226.08
949.90	226.10
950.20	226.09
950.50	226.02
950.79	225.87
951.09	225.99
951.39	225.91
951.69	225.83
951.98	225.95
952.28	225.93
952.58	225.94
952.87	225.92
953.17	225.88
953.47	225.80
953.76	225.80
954.06	225.73
954.36	225.65
954.66	225.72
954.95	225.75
955.25	225.76
955.55	225.80
955.84	225.65
956.14	225.72
956.44	225.73
956.73	225.66
957.03	225.77
957.32	225.70
957.62	225.75
957.92	225.83
958.21	225.77
958.51	226.25
958.81	226.29
959.10	226.33
959.40	226.42
959.69	226.56
959.99	226.57
960.29	226.55
960.58	226.52
960.88	226.65
961.17	226.60
961.47	226.62
961.76	226.53
962.06	226.67
962.36	226.56
962.65	226.55
962.95	226.58
963.24	226.51
963.54	226.54
963.83	226.52
964.13	226.52
964.42	226.44
964.72	226.11
965.01	226.05
965.31	226.00
965.60	225.91
965.90	226.09
966.19	226.05
966.49	226.17
966.78	226.26
967.08	226.20
967.37	226.27
967.67	226.24
967.96	226.39
968.26	226.43
968.55	226.53
968.85	226.54
969.14	226.55
969.43	226.60
969.73	226.57
970.02	226.57
970.32	226.55
970.61	226.46
970.91	226.33
971.20	226.28
971.49	226.22
971.79	226.30
972.08	226.03
972.38	226.09
972.67	226.02
972.96	226.06
973.26	226.00
973.55	226.11
973.85	226.08
974.14	226.00
974.43	225.96
974.73	225.95
975.02	225.98
975.31	225.95
975.61	225.99
975.90	225.90
976.19	225.85
976.49	225.86
976.78	225.94
977.07	225.94
977.37	226.05
977.66	226.15
977.95	226.07
978.24	226.15
978.54	226.19
978.83	226.19
979.12	226.07
979.42	226.07
979.71	225.99
980.00	226.01
980.29	225.98
980.59	225.93
980.88	226.00
981.17	225.95
981.46	226.04
981.76	225.99
982.05	226.19
982.34	226.24
982.63	226.24
982.93	226.29
983.22	226.47
983.51	226.46
983.80	226.53
984.09	226.57
984.39	226.52
984.68	226.48
984.97	226.52
985.26	226.57
985.55	226.61
985.85	226.45
986.14	226.48
986.43	226.61
986.72	226.60
987.01	226.39
987.30	226.42
987.59	226.32
987.89	226.29
988.18	226.12
988.47	226.08
988.76	226.07
989.05	226.04
989.34	225.93
989.63	226.05
989.92	225.95
990.22	225.89
990.51	225.85
990.80	225.80
991.09	225.78
991.38	225.80
991.67	225.80
991.96	225.85
992.25	225.89
992.54	225.77
992.83	225.72
993.12	225.79
993.41	225.80
993.70	226.02
993.99	226.11
994.28	226.17
994.58	226.25
994.87	226.22
995.16	226.19
995.45	226.11
995.74	225.95
996.03	226.00
996.32	226.13
996.61	226.25
996.90	226.20
997.19	226.20
997.48	226.25
997.77	226.12
998.06	226.12
998.34	226.06
998.63	226.00
998.92	226.03
999.21	226.05
999.50	226.03
999.79	225.87
1000.08	225.88
1000.37	225.90
1000.66	225.83
1000.95	225.90
1001.24	225.92
1001.53	226.01
1001.82	226.01
1002.11	225.91
1002.40	225.91
1002.68	226.03
1002.97	226.36
1003.26	226.31
1003.55	226.25
1003.84	226.36
1004.13	226.50
1004.42	226.49
1004.71	226.58
1004.99	226.67
1005.28	226.76
1005.57	226.81
1005.86	226.78
1006.15	226.79
1006.44	226.71
1006.72	226.75
1007.01	226.65
1007.30	226.68
1007.59	226.60
1007.88	226.55
1008.17	226.63
1008.45	226.55
1008.74	226.33
1009.03	226.12
1009.32	226.07
1009.60	226.07
1009.89	226.02
1010.18	225.86
1010.47	225.81
1010.76	225.81
1011.04	225.72
1011.33	225.74
1011.62	225.79
1011.91	225.83
1012.19	225.80
1012.48	225.81
1012.77	225.87
1013.05	226.17
1013.34	226.19
1013.63	226.14
1013.92	226.17
1014.20	226.09
1014.49	226.06
1014.78	226.05
1015.06	225.89
1015.35	225.94
1015.64	225.96
1015.92	226.00
1016.21	226.06
1016.50	226.11
1016.78	226.17
1017.07	226.16
1017.36	226.09
1017.64	225.98
1017.93	225.99
1018.22	225.89
1018.50	225.90
1018.79	225.84
1019.08	225.58
1019.36	225.53
1019.65	225.52
1019.93	225.70
1020.22	225.83
1020.51	226.10
1020.79	226.07
1021.08	224.20
1021.36	225.20
1021.65	226.05
1021.94	225.90
1022.22	225.40
1022.51	224.70
1022.79	229.20
1023.08	227.20
1023.36	231.55
1023.65	224.60
>>>>>End Processed Spectral Data<<<<<
