SpectraSuite Data File
++++++++++++++++++++++++++++++++++++
Date: Wed Sep 04 17:45:30 EDT 2013
User: lab3
Dark Spectrum Present: Yes
Reference Spectrum Present: No
Number of Sampled Component Spectra: 1
Spectrometers: USB2E7196
Integration Time (usec): 170000 (USB2E7196)
Spectra Averaged: 20 (USB2E7196)
Boxcar Smoothing: 10 (USB2E7196)
Correct for Electrical Dark: No (USB2E7196)
Strobe/Lamp Enabled: No (USB2E7196)
Correct for Detector Non-linearity: No (USB2E7196)
Correct for Stray Light: No (USB2E7196)
Number of Pixels in Processed Spectrum: 2048
>>>>>Begin Processed Spectral Data<<<<<
339.09	0.00
339.48	211.20
339.86	214.50
340.24	216.75
340.63	216.60
341.01	225.85
341.39	219.30
341.78	222.00
342.16	223.70
342.54	223.65
342.93	212.08
343.31	222.80
343.69	223.46
344.07	223.89
344.46	224.34
344.84	224.80
345.22	224.72
345.60	224.98
345.99	225.13
346.37	225.22
346.75	225.23
347.13	225.28
347.52	225.37
347.90	225.61
348.28	225.59
348.66	225.75
349.05	225.54
349.43	225.60
349.81	225.70
350.19	225.66
350.57	225.70
350.96	225.78
351.34	225.81
351.72	225.92
352.10	225.98
352.48	225.95
352.87	225.96
353.25	226.03
353.63	226.11
354.01	226.22
354.39	226.26
354.77	226.44
355.15	226.57
355.54	226.66
355.92	226.52
356.30	226.55
356.68	226.86
357.06	226.95
357.44	226.91
357.82	226.96
358.20	227.42
358.58	227.52
358.97	227.60
359.35	227.71
359.73	227.81
360.11	227.95
360.49	228.02
360.87	228.07
361.25	228.19
361.63	228.37
362.01	228.42
362.39	228.44
362.77	228.48
363.15	228.55
363.53	228.56
363.91	228.60
364.29	228.71
364.67	228.37
365.05	228.44
365.43	228.59
365.81	228.69
366.19	228.58
366.57	228.74
366.95	228.76
367.33	228.71
367.71	228.70
368.09	228.75
368.47	228.81
368.85	228.75
369.23	228.84
369.61	228.67
369.99	228.83
370.37	228.87
370.75	229.07
371.13	228.99
371.51	228.96
371.89	228.95
372.27	229.00
372.65	228.96
373.03	228.93
373.41	228.86
373.78	228.85
374.16	228.64
374.54	228.47
374.92	228.41
375.30	228.41
375.68	228.27
376.06	228.27
376.44	228.18
376.82	228.15
377.19	228.05
377.57	228.01
377.95	227.77
378.33	227.66
378.71	227.26
379.09	227.25
379.47	227.17
379.84	227.07
380.22	226.94
380.60	226.82
380.98	226.80
381.36	226.68
381.73	226.54
382.11	226.54
382.49	226.41
382.87	226.28
383.25	226.16
383.62	226.61
384.00	226.44
384.38	226.41
384.76	226.49
385.13	226.57
385.51	226.52
385.89	226.36
386.27	226.35
386.64	226.46
387.02	226.38
387.40	226.26
387.78	226.29
388.15	226.31
388.53	226.31
388.91	226.16
389.29	226.08
389.66	226.05
390.04	225.94
390.42	226.01
390.79	226.00
391.17	226.02
391.55	225.56
391.92	225.58
392.30	225.60
392.68	225.50
393.05	225.49
393.43	225.44
393.81	225.52
394.18	225.50
394.56	225.50
394.94	225.57
395.31	225.57
395.69	225.67
396.06	225.70
396.44	225.70
396.82	225.76
397.19	226.10
397.57	226.14
397.95	226.31
398.32	226.26
398.70	226.42
399.07	226.62
399.45	226.65
399.82	226.72
400.20	226.76
400.58	226.86
400.95	226.80
401.33	227.10
401.70	227.49
402.08	227.64
402.45	227.79
402.83	228.02
403.20	228.22
403.58	228.31
403.95	228.55
404.33	228.77
404.71	229.01
405.08	229.50
405.46	229.66
405.83	229.88
406.21	230.14
406.58	230.35
406.96	230.56
407.33	230.90
407.70	231.27
408.08	232.00
408.45	232.40
408.83	232.92
409.20	233.30
409.58	233.52
409.95	234.05
410.33	234.55
410.70	234.98
411.08	235.59
411.45	236.24
411.82	236.75
412.20	237.53
412.57	238.45
412.95	238.76
413.32	239.66
413.69	240.42
414.07	241.33
414.44	242.33
414.82	243.27
415.19	244.42
415.56	245.52
415.94	246.47
416.31	247.76
416.68	249.12
417.06	250.61
417.43	252.17
417.81	253.87
418.18	255.68
418.55	257.62
418.93	259.60
419.30	261.56
419.67	263.77
420.04	266.03
420.42	268.35
420.79	271.32
421.16	274.05
421.54	277.03
421.91	280.00
422.28	282.96
422.66	286.25
423.03	289.61
423.40	292.94
423.77	296.38
424.15	300.02
424.52	303.61
424.89	307.82
425.26	311.64
425.64	315.40
426.01	319.47
426.38	323.66
426.75	328.07
427.13	332.61
427.50	337.24
427.87	341.96
428.24	346.70
428.61	351.02
428.99	356.20
429.36	361.62
429.73	366.95
430.10	372.39
430.47	378.01
430.85	383.62
431.22	389.65
431.59	396.30
431.96	402.28
432.33	409.06
432.70	415.43
433.08	423.13
433.45	430.42
433.82	437.58
434.19	445.51
434.56	453.44
434.93	460.89
435.30	468.54
435.68	476.93
436.05	485.22
436.42	493.47
436.79	501.04
437.16	509.24
437.53	517.96
437.90	526.49
438.27	534.84
438.64	543.61
439.01	551.71
439.38	558.78
439.75	565.92
440.13	573.65
440.50	581.15
440.87	587.17
441.24	593.31
441.61	600.23
441.98	605.21
442.35	610.93
442.72	616.95
443.09	622.70
443.46	626.15
443.83	628.44
444.20	630.34
444.57	632.96
444.94	633.91
445.31	634.92
445.68	636.24
446.05	636.30
446.42	634.91
446.79	633.51
447.16	631.93
447.53	630.68
447.90	627.22
448.27	623.70
448.64	618.84
449.01	615.32
449.37	609.26
449.74	603.47
450.11	596.78
450.48	589.11
450.85	581.22
451.22	574.47
451.59	568.11
451.96	561.98
452.33	554.11
452.70	547.00
453.07	538.51
453.43	529.65
453.80	521.53
454.17	513.69
454.54	506.25
454.91	498.26
455.28	490.39
455.65	483.23
456.02	476.45
456.38	470.34
456.75	462.78
457.12	456.35
457.49	450.28
457.86	444.06
458.23	439.07
458.59	433.54
458.96	427.88
459.33	422.75
459.70	417.86
460.07	413.75
460.43	409.15
460.80	404.96
461.17	401.30
461.54	397.35
461.91	393.61
462.27	389.77
462.64	386.60
463.01	383.25
463.38	379.96
463.74	376.02
464.11	373.09
464.48	370.38
464.85	367.61
465.21	365.43
465.58	363.10
465.95	360.25
466.32	358.01
466.68	355.71
467.05	353.46
467.42	351.26
467.78	348.95
468.15	346.76
468.52	345.19
468.88	343.00
469.25	341.05
469.62	339.66
469.98	338.03
470.35	336.45
470.72	334.92
471.08	333.26
471.45	332.01
471.82	330.77
472.18	329.50
472.55	328.52
472.92	327.22
473.28	326.17
473.65	325.12
474.02	324.09
474.38	323.30
474.75	322.69
475.11	321.79
475.48	321.28
475.85	320.75
476.21	320.13
476.58	319.66
476.94	319.35
477.31	318.89
477.67	318.48
478.04	318.27
478.41	318.07
478.77	318.43
479.14	318.24
479.50	318.09
479.87	318.07
480.23	318.08
480.60	318.01
480.96	318.03
481.33	318.44
481.69	318.74
482.06	318.97
482.42	319.19
482.79	319.60
483.15	320.03
483.52	320.64
483.88	321.13
484.25	321.77
484.61	322.44
484.98	323.02
485.34	324.03
485.71	324.85
486.07	325.87
486.44	326.36
486.80	327.39
487.17	328.45
487.53	329.79
487.90	331.26
488.26	333.00
488.62	334.65
488.99	336.06
489.35	337.81
489.72	339.66
490.08	341.67
490.44	343.63
490.81	345.74
491.17	347.93
491.54	350.42
491.90	352.94
492.26	355.58
492.63	358.47
492.99	361.30
493.36	364.53
493.72	367.85
494.08	371.22
494.45	374.88
494.81	378.83
495.17	382.69
495.54	386.80
495.90	390.99
496.26	395.47
496.63	400.08
496.99	404.71
497.35	409.71
497.72	414.97
498.08	420.39
498.44	426.09
498.80	432.26
499.17	438.18
499.53	444.39
499.89	450.94
500.26	457.63
500.62	464.53
500.98	471.66
501.34	479.12
501.71	486.96
502.07	494.64
502.43	502.71
502.79	511.04
503.16	519.66
503.52	528.44
503.88	537.60
504.24	547.21
504.60	557.19
504.97	567.39
505.33	577.44
505.69	588.34
506.05	599.20
506.41	610.07
506.78	621.62
507.14	633.46
507.50	645.73
507.86	658.16
508.22	670.99
508.59	683.92
508.95	697.29
509.31	711.18
509.67	725.25
510.03	739.25
510.39	753.68
510.75	768.36
511.12	783.46
511.48	798.80
511.84	814.17
512.20	829.89
512.56	845.88
512.92	862.60
513.28	879.33
513.64	896.28
514.00	913.35
514.37	930.84
514.73	948.61
515.09	966.63
515.45	984.84
515.81	1002.83
516.17	1021.41
516.53	1039.65
516.89	1057.85
517.25	1076.98
517.61	1096.93
517.97	1116.82
518.33	1136.36
518.69	1156.38
519.05	1176.45
519.41	1196.76
519.77	1217.35
520.13	1237.75
520.49	1258.02
520.85	1278.40
521.21	1299.32
521.57	1320.38
521.93	1340.56
522.29	1361.63
522.65	1381.61
523.01	1402.13
523.37	1422.59
523.73	1443.35
524.09	1463.61
524.45	1483.85
524.81	1504.14
525.17	1524.04
525.53	1544.23
525.89	1564.86
526.25	1585.15
526.61	1604.77
526.97	1625.25
527.33	1645.90
527.68	1667.30
528.04	1688.12
528.40	1708.61
528.76	1728.90
529.12	1748.90
529.48	1769.36
529.84	1788.61
530.20	1809.40
530.56	1829.29
530.91	1849.59
531.27	1869.01
531.63	1888.72
531.99	1908.80
532.35	1928.38
532.71	1948.43
533.07	1968.04
533.42	1987.42
533.78	2006.69
534.14	2026.19
534.50	2044.62
534.86	2062.95
535.21	2079.51
535.57	2096.93
535.93	2114.15
536.29	2131.23
536.65	2148.82
537.00	2165.64
537.36	2182.81
537.72	2198.36
538.08	2214.80
538.44	2230.63
538.79	2246.58
539.15	2262.73
539.51	2278.24
539.87	2292.57
540.22	2305.55
540.58	2319.39
540.94	2331.78
541.29	2343.63
541.65	2355.65
542.01	2367.50
542.37	2377.47
542.72	2388.05
543.08	2398.22
543.44	2409.01
543.79	2418.32
544.15	2427.25
544.51	2436.49
544.87	2444.99
545.22	2453.19
545.58	2460.95
545.94	2467.65
546.29	2473.96
546.65	2479.59
547.01	2484.69
547.36	2489.93
547.72	2495.18
548.07	2498.71
548.43	2503.56
548.79	2507.91
549.14	2511.78
549.50	2515.32
549.86	2518.95
550.21	2522.29
550.57	2525.76
550.92	2526.59
551.28	2527.46
551.64	2529.23
551.99	2530.63
552.35	2531.99
552.70	2533.64
553.06	2534.60
553.41	2535.50
553.77	2536.26
554.13	2537.12
554.48	2537.90
554.84	2538.80
555.19	2539.40
555.55	2540.93
555.90	2539.92
556.26	2538.72
556.61	2536.33
556.97	2533.60
557.32	2532.72
557.68	2531.22
558.03	2529.01
558.39	2527.59
558.74	2526.41
559.10	2523.05
559.45	2519.36
559.81	2514.54
560.16	2509.19
560.52	2503.94
560.87	2499.22
561.23	2493.59
561.58	2487.75
561.94	2480.71
562.29	2473.21
562.64	2466.10
563.00	2457.49
563.35	2450.76
563.71	2443.78
564.06	2437.71
564.42	2431.30
564.77	2423.93
565.12	2416.33
565.48	2408.57
565.83	2400.45
566.19	2392.39
566.54	2384.45
566.89	2376.43
567.25	2369.21
567.60	2362.04
567.96	2354.72
568.31	2346.63
568.66	2338.50
569.02	2329.53
569.37	2321.40
569.72	2313.75
570.08	2304.33
570.43	2295.02
570.78	2286.18
571.14	2277.11
571.49	2266.90
571.84	2257.44
572.20	2247.25
572.55	2237.22
572.90	2226.51
573.26	2216.36
573.61	2205.53
573.96	2194.66
574.31	2182.88
574.67	2170.93
575.02	2158.38
575.37	2145.86
575.72	2133.17
576.08	2120.78
576.43	2108.64
576.78	2095.93
577.13	2082.75
577.49	2070.50
577.84	2059.09
578.19	2047.07
578.54	2034.40
578.90	2022.83
579.25	2010.89
579.60	1998.30
579.95	1985.77
580.30	1973.14
580.66	1960.04
581.01	1947.00
581.36	1933.40
581.71	1921.31
582.06	1908.66
582.42	1896.86
582.77	1884.65
583.12	1873.02
583.47	1861.18
583.82	1849.58
584.17	1837.82
584.53	1826.08
584.88	1813.76
585.23	1800.73
585.58	1787.08
585.93	1774.66
586.28	1762.09
586.63	1748.63
586.98	1735.06
587.34	1722.00
587.69	1708.94
588.04	1697.01
588.39	1685.46
588.74	1673.66
589.09	1662.26
589.44	1649.96
589.79	1638.24
590.14	1626.46
590.49	1614.64
590.84	1603.05
591.19	1591.51
591.54	1579.80
591.89	1568.09
592.25	1557.98
592.60	1547.17
592.95	1536.13
593.30	1524.48
593.65	1512.63
594.00	1500.98
594.35	1491.63
594.70	1480.26
595.05	1469.40
595.40	1457.69
595.75	1446.05
596.10	1435.47
596.45	1423.84
596.80	1413.78
597.15	1402.60
597.50	1391.36
597.85	1380.69
598.19	1369.41
598.54	1358.10
598.89	1347.34
599.24	1337.04
599.59	1326.25
599.94	1315.74
600.29	1305.77
600.64	1296.15
600.99	1286.02
601.34	1276.89
601.69	1265.76
602.04	1256.63
602.39	1247.32
602.74	1238.30
603.08	1229.22
603.43	1219.93
603.78	1210.77
604.13	1201.27
604.48	1191.97
604.83	1182.54
605.18	1173.01
605.53	1163.94
605.87	1155.04
606.22	1146.56
606.57	1137.66
606.92	1128.27
607.27	1119.58
607.62	1111.25
607.96	1102.79
608.31	1095.25
608.66	1087.09
609.01	1079.05
609.36	1070.71
609.70	1062.48
610.05	1054.55
610.40	1046.43
610.75	1038.31
611.10	1030.34
611.44	1022.10
611.79	1014.39
612.14	1006.89
612.49	999.30
612.83	992.15
613.18	984.71
613.53	977.45
613.88	969.98
614.22	962.67
614.57	954.97
614.92	947.47
615.27	940.18
615.61	932.50
615.96	925.15
616.31	918.14
616.65	911.44
617.00	904.32
617.35	897.08
617.70	890.26
618.04	883.59
618.39	876.82
618.74	870.82
619.08	864.30
619.43	857.65
619.78	850.89
620.12	843.92
620.47	837.35
620.82	830.43
621.16	824.00
621.51	818.02
621.85	812.04
622.20	805.61
622.55	799.43
622.89	793.36
623.24	787.25
623.59	781.19
623.93	775.04
624.28	769.28
624.62	764.07
624.97	758.47
625.32	752.75
625.66	747.15
626.01	741.13
626.35	735.75
626.70	730.45
627.04	725.34
627.39	720.14
627.73	715.17
628.08	710.30
628.43	705.13
628.77	699.83
629.12	694.85
629.46	690.25
629.81	685.66
630.15	680.93
630.50	676.35
630.84	671.70
631.19	667.12
631.53	662.83
631.88	657.62
632.22	653.10
632.57	648.81
632.91	644.32
633.26	640.14
633.60	635.49
633.95	630.92
634.29	626.50
634.64	622.35
634.98	617.62
635.32	613.43
635.67	609.53
636.01	605.56
636.36	601.59
636.70	597.69
637.05	593.58
637.39	589.60
637.73	585.60
638.08	581.76
638.42	577.68
638.77	573.57
639.11	569.58
639.45	565.39
639.80	561.14
640.14	557.36
640.49	553.52
640.83	549.82
641.17	546.38
641.52	542.75
641.86	539.18
642.20	536.27
642.55	532.87
642.89	529.37
643.23	525.92
643.58	522.78
643.92	519.07
644.26	515.78
644.61	512.71
644.95	509.56
645.29	506.35
645.64	503.42
645.98	500.38
646.32	497.59
646.66	494.59
647.01	491.74
647.35	489.00
647.69	486.23
648.04	483.69
648.38	480.88
648.72	478.00
649.06	475.17
649.41	472.20
649.75	469.21
650.09	466.44
650.43	463.76
650.78	460.89
651.12	458.42
651.46	455.69
651.80	453.04
652.14	450.40
652.49	447.99
652.83	445.44
653.17	442.99
653.51	440.37
653.85	438.06
654.20	435.77
654.54	433.18
654.88	430.73
655.22	428.40
655.56	426.11
655.90	423.91
656.25	421.66
656.59	419.63
656.93	417.61
657.27	415.70
657.61	413.29
657.95	411.22
658.29	409.09
658.64	407.14
658.98	405.00
659.32	402.92
659.66	400.77
660.00	398.81
660.34	396.78
660.68	394.85
661.02	392.91
661.36	390.88
661.70	389.02
662.05	387.17
662.39	385.36
662.73	383.73
663.07	382.33
663.41	380.54
663.75	378.57
664.09	376.75
664.43	374.80
664.77	373.31
665.11	371.59
665.45	369.99
665.79	368.39
666.13	366.77
666.47	365.11
666.81	363.58
667.15	361.90
667.49	360.52
667.83	359.25
668.17	357.78
668.51	356.47
668.85	355.22
669.19	354.17
669.53	352.65
669.87	350.97
670.21	349.35
670.55	348.13
670.89	347.10
671.23	345.87
671.57	344.60
671.91	343.28
672.25	341.92
672.58	340.73
672.92	339.35
673.26	338.16
673.60	337.04
673.94	335.89
674.28	334.80
674.62	333.64
674.96	332.35
675.30	331.24
675.64	330.08
675.97	328.90
676.31	327.47
676.65	326.36
676.99	325.56
677.33	324.43
677.67	323.37
678.01	321.96
678.34	320.97
678.68	320.15
679.02	319.10
679.36	318.17
679.70	317.19
680.04	316.36
680.37	315.42
680.71	314.48
681.05	313.61
681.39	312.68
681.73	311.75
682.06	310.91
682.40	310.14
682.74	309.41
683.08	308.71
683.42	307.78
683.75	306.95
684.09	306.02
684.43	305.25
684.77	304.42
685.10	303.83
685.44	302.96
685.78	302.06
686.12	301.38
686.45	300.57
686.79	299.69
687.13	298.96
687.46	298.25
687.80	297.58
688.14	296.75
688.48	296.05
688.81	295.29
689.15	294.67
689.49	293.85
689.82	293.13
690.16	292.24
690.50	291.69
690.83	290.96
691.17	290.15
691.51	289.51
691.84	288.92
692.18	288.11
692.52	287.50
692.85	286.88
693.19	286.39
693.52	285.83
693.86	285.17
694.20	284.52
694.53	283.98
694.87	283.31
695.21	282.72
695.54	282.17
695.88	281.49
696.21	280.72
696.55	280.13
696.88	279.51
697.22	278.93
697.56	278.39
697.89	277.86
698.23	277.44
698.56	276.83
698.90	276.30
699.23	275.91
699.57	275.49
699.90	274.91
700.24	274.26
700.58	273.80
700.91	273.44
701.25	273.33
701.58	273.15
701.92	272.80
702.25	272.31
702.59	271.88
702.92	271.55
703.26	271.20
703.59	270.82
703.93	270.83
704.26	270.52
704.60	270.15
704.93	269.76
705.26	269.32
705.60	269.07
705.93	268.63
706.27	268.31
706.60	267.95
706.94	267.80
707.27	267.44
707.61	267.10
707.94	266.73
708.27	266.02
708.61	265.28
708.94	264.93
709.28	264.64
709.61	264.20
709.94	263.82
710.28	263.48
710.61	263.12
710.95	262.30
711.28	262.30
711.61	261.83
711.95	261.68
712.28	261.22
712.61	260.86
712.95	260.77
713.28	260.61
713.61	260.21
713.95	259.69
714.28	259.44
714.61	259.08
714.95	258.71
715.28	258.35
715.61	257.99
715.95	257.63
716.28	257.20
716.61	257.04
716.95	256.70
717.28	256.38
717.61	256.16
717.94	255.88
718.28	255.22
718.61	254.98
718.94	254.56
719.27	254.41
719.61	254.20
719.94	253.84
720.27	253.28
720.60	252.99
720.94	252.76
721.27	252.51
721.60	252.38
721.93	252.21
722.27	252.15
722.60	252.01
722.93	251.76
723.26	251.63
723.59	251.33
723.93	251.17
724.26	250.92
724.59	250.63
724.92	250.56
725.25	250.45
725.59	250.25
725.92	250.10
726.25	249.87
726.58	249.63
726.91	249.39
727.24	249.32
727.57	249.12
727.91	248.84
728.24	248.64
728.57	248.34
728.90	248.16
729.23	247.74
729.56	247.73
729.89	247.60
730.22	247.40
730.55	247.30
730.89	247.09
731.22	246.94
731.55	246.82
731.88	246.59
732.21	246.34
732.54	246.10
732.87	245.95
733.20	245.78
733.53	245.58
733.86	245.38
734.19	245.15
734.52	245.03
734.85	245.25
735.18	245.09
735.51	245.02
735.84	244.81
736.17	244.86
736.50	244.55
736.83	244.93
737.16	244.76
737.49	244.48
737.82	244.38
738.15	244.32
738.48	244.07
738.81	243.86
739.14	243.63
739.47	243.55
739.80	243.40
740.13	243.26
740.46	243.10
740.79	242.96
741.12	242.82
741.45	242.57
741.78	242.12
742.11	242.09
742.44	241.93
742.77	241.84
743.10	241.54
743.43	241.38
743.75	240.62
744.08	241.13
744.41	240.94
744.74	240.69
745.07	240.45
745.40	240.44
745.73	240.51
746.06	240.47
746.39	240.32
746.71	240.08
747.04	239.92
747.37	239.78
747.70	239.77
748.03	239.62
748.36	239.66
748.68	239.50
749.01	239.16
749.34	239.03
749.67	239.00
750.00	239.02
750.33	239.27
750.65	239.36
750.98	238.56
751.31	238.50
751.64	238.39
751.97	238.58
752.29	238.40
752.62	238.07
752.95	237.82
753.28	237.67
753.60	237.64
753.93	237.63
754.26	237.54
754.59	237.26
754.91	237.16
755.24	236.90
755.57	236.88
755.90	236.83
756.22	236.66
756.55	236.47
756.88	236.30
757.20	235.77
757.53	235.44
757.86	235.39
758.19	235.41
758.51	235.34
758.84	234.94
759.17	234.82
759.49	234.75
759.82	234.95
760.15	234.95
760.47	234.77
760.80	234.62
761.13	234.65
761.45	234.57
761.78	234.49
762.11	234.46
762.43	234.37
762.76	234.25
763.08	234.20
763.41	234.18
763.74	234.07
764.06	234.05
764.39	234.03
764.71	233.95
765.04	233.76
765.37	233.66
765.69	233.56
766.02	233.43
766.34	233.32
766.67	233.04
767.00	232.98
767.32	233.20
767.65	233.40
767.97	233.24
768.30	233.19
768.62	233.07
768.95	232.98
769.27	232.85
769.60	232.89
769.92	232.73
770.25	232.52
770.57	232.36
770.90	232.34
771.22	232.12
771.55	232.06
771.87	231.98
772.20	231.93
772.52	232.35
772.85	232.85
773.17	232.83
773.50	232.71
773.82	232.58
774.15	232.30
774.47	231.91
774.80	231.79
775.12	231.76
775.45	231.67
775.77	231.65
776.09	231.60
776.42	231.52
776.74	231.68
777.07	231.65
777.39	231.73
777.72	231.57
778.04	231.70
778.36	231.64
778.69	231.70
779.01	231.79
779.33	231.28
779.66	230.82
779.98	230.71
780.31	230.79
780.63	230.96
780.95	230.97
781.28	231.00
781.60	230.94
781.92	230.90
782.25	230.86
782.57	230.78
782.89	230.75
783.22	230.74
783.54	230.57
783.86	230.56
784.19	230.48
784.51	230.62
784.83	230.49
785.16	230.45
785.48	230.42
785.80	230.27
786.12	230.30
786.45	230.29
786.77	230.30
787.09	230.21
787.42	230.08
787.74	230.16
788.06	230.12
788.38	230.05
788.71	229.99
789.03	229.99
789.35	230.06
789.67	229.94
789.99	229.87
790.32	229.82
790.64	229.86
790.96	230.22
791.28	229.99
791.61	229.97
791.93	229.93
792.25	229.85
792.57	230.19
792.89	230.13
793.21	230.03
793.54	230.02
793.86	230.00
794.18	229.99
794.50	229.82
794.82	229.79
795.14	229.91
795.47	229.94
795.79	229.92
796.11	229.72
796.43	229.79
796.75	229.79
797.07	229.82
797.39	229.73
797.71	229.33
798.04	229.41
798.36	229.45
798.68	229.47
799.00	229.46
799.32	229.18
799.64	229.29
799.96	229.21
800.28	229.24
800.60	229.12
800.92	229.05
801.24	229.01
801.56	229.05
801.89	228.94
802.21	228.90
802.53	228.84
802.85	229.01
803.17	229.14
803.49	229.07
803.81	228.98
804.13	228.95
804.45	228.91
804.77	228.85
805.09	228.80
805.41	228.72
805.73	228.61
806.05	228.47
806.37	228.33
806.69	228.36
807.01	228.29
807.33	228.35
807.65	228.17
807.97	228.37
808.28	228.27
808.60	228.27
808.92	228.19
809.24	228.48
809.56	228.34
809.88	228.16
810.20	228.11
810.52	228.24
810.84	228.21
811.16	228.21
811.48	228.18
811.80	228.36
812.12	228.35
812.43	228.48
812.75	228.47
813.07	228.43
813.39	228.43
813.71	228.37
814.03	228.28
814.35	228.34
814.67	228.11
814.98	228.10
815.30	228.11
815.62	228.14
815.94	227.80
816.26	228.04
816.58	228.03
816.89	228.02
817.21	227.86
817.53	227.88
817.85	227.88
818.17	227.87
818.48	227.64
818.80	227.74
819.12	227.57
819.44	227.55
819.76	227.46
820.07	227.45
820.39	227.55
820.71	227.63
821.03	227.66
821.34	227.66
821.66	227.74
821.98	227.74
822.30	227.66
822.61	227.96
822.93	227.70
823.25	227.64
823.57	227.63
823.88	227.77
824.20	227.74
824.52	227.78
824.83	227.80
825.15	227.78
825.47	227.79
825.79	227.85
826.10	227.83
826.42	227.91
826.74	227.90
827.05	227.81
827.37	227.84
827.69	227.74
828.00	227.80
828.32	227.75
828.64	227.72
828.95	227.98
829.27	227.80
829.58	227.88
829.90	227.92
830.22	227.96
830.53	227.76
830.85	227.70
831.17	227.63
831.48	227.58
831.80	227.60
832.11	227.48
832.43	227.41
832.75	227.32
833.06	227.57
833.38	227.46
833.69	227.41
834.01	227.37
834.32	227.39
834.64	227.24
834.96	227.20
835.27	227.14
835.59	226.95
835.90	226.90
836.22	226.88
836.53	226.78
836.85	226.70
837.16	227.17
837.48	227.21
837.79	227.29
838.11	227.25
838.42	227.26
838.74	227.30
839.05	227.28
839.37	227.29
839.68	226.96
840.00	226.99
840.31	227.02
840.63	227.00
840.94	226.95
841.26	226.88
841.57	226.91
841.88	226.94
842.20	226.88
842.51	226.78
842.83	226.69
843.14	227.08
843.46	227.17
843.77	226.95
844.08	226.89
844.40	226.71
844.71	226.71
845.03	226.58
845.34	226.55
845.65	226.55
845.97	226.62
846.28	226.59
846.60	226.56
846.91	226.50
847.22	226.47
847.54	226.53
847.85	226.65
848.16	226.55
848.48	226.48
848.79	226.66
849.10	226.79
849.42	226.84
849.73	226.40
850.04	226.41
850.36	226.25
850.67	226.34
850.98	226.40
851.30	226.51
851.61	226.48
851.92	226.49
852.23	226.65
852.55	226.65
852.86	226.69
853.17	226.72
853.49	226.80
853.80	226.92
854.11	226.92
854.42	226.92
854.74	226.90
855.05	226.98
855.36	226.72
855.67	226.67
855.99	226.68
856.30	227.27
856.61	227.15
856.92	227.13
857.23	227.13
857.55	227.09
857.86	227.03
858.17	227.17
858.48	227.04
858.79	226.90
859.11	226.93
859.42	226.91
859.73	226.85
860.04	226.86
860.35	226.74
860.66	226.63
860.98	226.59
861.29	226.60
861.60	226.52
861.91	226.61
862.22	226.55
862.53	226.42
862.84	225.85
863.16	225.97
863.47	225.93
863.78	225.85
864.09	225.87
864.40	225.86
864.71	225.91
865.02	226.04
865.33	226.02
865.64	225.96
865.95	226.01
866.27	226.28
866.58	226.23
866.89	226.21
867.20	226.24
867.51	226.21
867.82	226.25
868.13	226.47
868.44	226.39
868.75	226.46
869.06	226.46
869.37	226.53
869.68	226.36
869.99	226.37
870.30	226.44
870.61	226.44
870.92	226.37
871.23	226.20
871.54	226.25
871.85	226.36
872.16	226.35
872.47	226.29
872.78	226.06
873.09	226.11
873.40	226.12
873.71	226.16
874.02	226.12
874.33	226.06
874.64	225.84
874.95	225.86
875.26	225.77
875.56	225.81
875.87	225.71
876.18	225.77
876.49	226.23
876.80	226.14
877.11	226.05
877.42	226.13
877.73	226.21
878.04	226.15
878.35	226.10
878.66	226.12
878.96	226.11
879.27	226.10
879.58	226.05
879.89	225.99
880.20	226.07
880.51	226.12
880.82	226.14
881.12	226.17
881.43	226.10
881.74	226.08
882.05	225.98
882.36	226.05
882.67	226.12
882.97	225.62
883.28	225.56
883.59	225.58
883.90	225.57
884.21	225.65
884.51	225.54
884.82	225.49
885.13	225.50
885.44	225.48
885.74	225.44
886.05	225.45
886.36	225.52
886.67	225.30
886.98	225.49
887.28	225.50
887.59	225.50
887.90	225.61
888.20	225.61
888.51	225.82
888.82	225.73
889.13	225.71
889.43	226.12
889.74	226.24
890.05	226.23
890.35	226.18
890.66	226.05
890.97	226.09
891.28	225.96
891.58	226.03
891.89	226.03
892.20	225.98
892.50	225.92
892.81	225.89
893.12	225.92
893.42	225.72
893.73	225.74
894.04	225.76
894.34	225.78
894.65	225.74
894.95	225.66
895.26	225.69
895.57	225.84
895.87	225.32
896.18	225.31
896.48	225.30
896.79	225.24
897.10	225.33
897.40	225.38
897.71	225.59
898.01	225.48
898.32	225.59
898.63	225.59
898.93	225.62
899.24	225.60
899.54	225.64
899.85	225.65
900.15	225.66
900.46	225.65
900.76	225.64
901.07	225.62
901.38	225.59
901.68	225.75
901.99	225.52
902.29	225.67
902.60	225.64
902.90	225.62
903.21	225.70
903.51	225.63
903.82	225.69
904.12	225.62
904.43	225.70
904.73	225.61
905.03	225.67
905.34	226.17
905.64	226.14
905.95	226.08
906.25	226.08
906.56	226.05
906.86	226.11
907.17	226.13
907.47	226.18
907.77	226.12
908.08	225.97
908.38	226.07
908.69	226.02
908.99	226.11
909.30	226.21
909.60	226.23
909.90	226.31
910.21	226.14
910.51	226.12
910.81	226.10
911.12	226.17
911.42	226.24
911.73	225.68
912.03	225.74
912.33	225.88
912.64	225.89
912.94	225.83
913.24	225.74
913.55	225.69
913.85	225.66
914.15	225.82
914.46	225.89
914.76	225.80
915.06	225.84
915.37	225.72
915.67	225.66
915.97	225.61
916.27	225.47
916.58	225.54
916.88	225.45
917.18	225.40
917.49	225.72
917.79	225.67
918.09	225.79
918.39	225.88
918.70	225.88
919.00	225.79
919.30	226.06
919.60	226.00
919.91	225.90
920.21	225.97
920.51	225.79
920.81	225.71
921.12	225.82
921.42	225.74
921.72	225.78
922.02	225.79
922.32	225.87
922.63	225.91
922.93	226.17
923.23	226.29
923.53	226.27
923.83	226.01
924.13	226.02
924.44	225.93
924.74	226.02
925.04	226.09
925.34	226.21
925.64	225.95
925.94	225.92
926.24	226.16
926.55	226.09
926.85	226.21
927.15	226.22
927.45	226.14
927.75	226.19
928.05	226.18
928.35	226.13
928.65	226.25
928.95	226.31
929.26	226.10
929.56	226.15
929.86	226.22
930.16	226.07
930.46	226.08
930.76	226.24
931.06	226.07
931.36	225.93
931.66	226.00
931.96	226.04
932.26	226.10
932.56	226.03
932.86	226.07
933.16	226.05
933.46	226.05
933.76	225.96
934.06	226.07
934.36	226.27
934.66	226.30
934.96	226.14
935.26	226.20
935.56	226.33
935.86	226.20
936.16	226.07
936.46	226.06
936.76	226.03
937.06	225.88
937.36	225.95
937.66	225.99
937.96	225.92
938.26	225.85
938.56	225.90
938.86	225.86
939.16	225.96
939.46	226.01
939.76	226.01
940.06	226.13
940.35	226.05
940.65	225.86
940.95	225.88
941.25	225.82
941.55	225.70
941.85	225.59
942.15	225.74
942.45	225.92
942.75	225.93
943.04	225.95
943.34	226.05
943.64	225.98
943.94	225.91
944.24	225.91
944.54	225.99
944.84	225.93
945.13	225.89
945.43	225.79
945.73	225.72
946.03	225.70
946.33	225.64
946.62	225.54
946.92	225.48
947.22	225.54
947.52	225.53
947.82	225.64
948.11	225.55
948.41	225.38
948.71	225.27
949.01	225.34
949.31	225.29
949.60	225.25
949.90	225.23
950.20	225.24
950.50	225.18
950.79	225.15
951.09	225.25
951.39	225.21
951.69	225.24
951.98	225.45
952.28	225.46
952.58	225.41
952.87	225.51
953.17	225.58
953.47	225.51
953.76	225.51
954.06	225.39
954.36	225.42
954.66	225.47
954.95	225.60
955.25	225.64
955.55	225.64
955.84	225.60
956.14	225.74
956.44	225.75
956.73	225.72
957.03	225.76
957.32	225.72
957.62	225.73
957.92	225.77
958.21	225.65
958.51	226.15
958.81	226.31
959.10	226.32
959.40	226.48
959.69	226.54
959.99	226.66
960.29	226.70
960.58	226.70
960.88	226.90
961.17	226.82
961.47	226.85
961.76	226.88
962.06	226.95
962.36	226.82
962.65	226.78
962.95	226.81
963.24	226.66
963.54	226.64
963.83	226.63
964.13	226.62
964.42	226.46
964.72	226.15
965.01	226.10
965.31	226.06
965.60	225.90
965.90	226.17
966.19	226.08
966.49	226.08
966.78	226.05
967.08	225.97
967.37	226.00
967.67	225.94
967.96	225.96
968.26	225.94
968.55	226.01
968.85	226.09
969.14	226.17
969.43	226.25
969.73	226.29
970.02	226.31
970.32	226.27
970.61	226.28
970.91	226.12
971.20	226.10
971.49	226.10
971.79	226.24
972.08	225.90
972.38	225.97
972.67	225.91
972.96	225.98
973.26	225.89
973.55	226.03
973.85	225.97
974.14	225.99
974.43	226.01
974.73	226.00
975.02	225.93
975.31	225.95
975.61	225.98
975.90	225.94
976.19	225.85
976.49	225.90
976.78	225.95
977.07	225.89
977.37	225.85
977.66	225.85
977.95	225.71
978.24	225.80
978.54	225.84
978.83	225.86
979.12	225.83
979.42	225.81
979.71	225.74
980.00	225.74
980.29	225.79
980.59	225.70
980.88	225.79
981.17	225.74
981.46	225.63
981.76	225.62
982.05	225.78
982.34	225.85
982.63	225.90
982.93	225.93
983.22	226.14
983.51	226.23
983.80	226.34
984.09	226.43
984.39	226.34
984.68	226.30
984.97	226.31
985.26	226.28
985.55	226.41
985.85	226.27
986.14	226.35
986.43	226.33
986.72	226.29
987.01	226.17
987.30	226.29
987.59	226.28
987.89	226.31
988.18	226.14
988.47	226.04
988.76	226.03
989.05	225.97
989.34	225.83
989.63	225.88
989.92	225.76
990.22	225.67
990.51	225.74
990.80	225.68
991.09	225.74
991.38	225.86
991.67	225.72
991.96	225.70
992.25	225.69
992.54	225.62
992.83	225.65
993.12	225.57
993.41	225.57
993.70	225.85
993.99	225.87
994.28	225.95
994.58	226.07
994.87	225.97
995.16	225.96
995.45	225.93
995.74	225.76
996.03	225.82
996.32	225.87
996.61	225.93
996.90	225.95
997.19	225.90
997.48	225.86
997.77	225.80
998.06	225.84
998.34	225.82
998.63	225.83
998.92	225.81
999.21	225.91
999.50	225.89
999.79	225.69
1000.08	225.70
1000.37	225.62
1000.66	225.60
1000.95	225.71
1001.24	225.67
1001.53	225.73
1001.82	225.77
1002.11	225.66
1002.40	225.65
1002.68	225.76
1002.97	226.13
1003.26	226.09
1003.55	225.97
1003.84	226.06
1004.13	226.26
1004.42	226.25
1004.71	226.23
1004.99	226.21
1005.28	226.29
1005.57	226.28
1005.86	226.22
1006.15	226.15
1006.44	226.17
1006.72	226.13
1007.01	226.04
1007.30	226.10
1007.59	226.03
1007.88	225.94
1008.17	226.03
1008.45	226.01
1008.74	225.76
1009.03	225.46
1009.32	225.45
1009.60	225.51
1009.89	225.46
1010.18	225.19
1010.47	225.14
1010.76	225.17
1011.04	225.18
1011.33	225.17
1011.62	225.19
1011.91	225.20
1012.19	225.23
1012.48	225.20
1012.77	225.23
1013.05	225.46
1013.34	225.45
1013.63	225.45
1013.92	225.53
1014.20	225.50
1014.49	225.43
1014.78	225.55
1015.06	225.42
1015.35	225.41
1015.64	225.52
1015.92	225.60
1016.21	225.63
1016.50	225.63
1016.78	225.64
1017.07	225.73
1017.36	225.64
1017.64	225.56
1017.93	225.62
1018.22	225.56
1018.50	225.51
1018.79	225.55
1019.08	225.32
1019.36	225.32
1019.65	225.26
1019.93	225.40
1020.22	225.41
1020.51	225.71
1020.79	225.59
1021.08	224.45
1021.36	224.15
1021.65	225.90
1021.94	225.40
1022.22	224.95
1022.51	223.65
1022.79	228.10
1023.08	225.15
1023.36	231.40
1023.65	223.95
>>>>>End Processed Spectral Data<<<<<
