SpectraSuite Data File
++++++++++++++++++++++++++++++++++++
Date: Wed Sep 04 17:41:33 EDT 2013
User: lab3
Dark Spectrum Present: Yes
Reference Spectrum Present: No
Number of Sampled Component Spectra: 1
Spectrometers: USB2E7196
Integration Time (usec): 170000 (USB2E7196)
Spectra Averaged: 20 (USB2E7196)
Boxcar Smoothing: 10 (USB2E7196)
Correct for Electrical Dark: No (USB2E7196)
Strobe/Lamp Enabled: No (USB2E7196)
Correct for Detector Non-linearity: No (USB2E7196)
Correct for Stray Light: No (USB2E7196)
Number of Pixels in Processed Spectrum: 2048
>>>>>Begin Processed Spectral Data<<<<<
339.09	0.00
339.48	212.50
339.86	213.70
340.24	216.45
340.63	216.25
341.01	226.25
341.39	219.10
341.78	220.45
342.16	224.20
342.54	222.35
342.93	211.74
343.31	222.36
343.69	222.85
344.07	223.34
344.46	223.75
344.84	224.23
345.22	224.17
345.60	224.39
345.99	224.65
346.37	224.74
346.75	224.80
347.13	224.96
347.52	225.03
347.90	225.29
348.28	225.30
348.66	225.37
349.05	225.29
349.43	225.39
349.81	225.51
350.19	225.62
350.57	225.65
350.96	225.73
351.34	225.92
351.72	226.07
352.10	226.13
352.48	226.19
352.87	226.11
353.25	226.15
353.63	226.29
354.01	226.24
354.39	226.32
354.77	226.44
355.15	226.63
355.54	226.67
355.92	226.55
356.30	226.67
356.68	227.07
357.06	227.15
357.44	227.05
357.82	227.04
358.20	227.44
358.58	227.49
358.97	227.52
359.35	227.65
359.73	227.80
360.11	227.85
360.49	227.86
360.87	227.91
361.25	228.03
361.63	228.15
362.01	228.28
362.39	228.21
362.77	228.26
363.15	228.24
363.53	228.20
363.91	228.29
364.29	228.27
364.67	227.86
365.05	227.90
365.43	228.04
365.81	228.21
366.19	228.03
366.57	228.29
366.95	228.27
367.33	228.17
367.71	228.20
368.09	228.38
368.47	228.42
368.85	228.47
369.23	228.54
369.61	228.37
369.99	228.57
370.37	228.70
370.75	228.97
371.13	228.88
371.51	228.94
371.89	228.91
372.27	228.94
372.65	229.01
373.03	228.98
373.41	228.97
373.78	228.89
374.16	228.66
374.54	228.46
374.92	228.43
375.30	228.37
375.68	228.18
376.06	228.08
376.44	228.03
376.82	228.03
377.19	227.88
377.57	227.85
377.95	227.61
378.33	227.49
378.71	227.05
379.09	227.06
379.47	227.03
379.84	226.95
380.22	226.81
380.60	226.62
380.98	226.52
381.36	226.42
381.73	226.24
382.11	226.30
382.49	226.24
382.87	226.13
383.25	226.05
383.62	226.56
384.00	226.43
384.38	226.34
384.76	226.34
385.13	226.54
385.51	226.52
385.89	226.44
386.27	226.36
386.64	226.51
387.02	226.40
387.40	226.21
387.78	226.21
388.15	226.23
388.53	226.15
388.91	226.10
389.29	226.05
389.66	226.16
390.04	226.02
390.42	226.07
390.79	226.03
391.17	226.08
391.55	225.53
391.92	225.53
392.30	225.65
392.68	225.48
393.05	225.49
393.43	225.45
393.81	225.50
394.18	225.50
394.56	225.41
394.94	225.49
395.31	225.55
395.69	225.71
396.06	225.77
396.44	225.83
396.82	225.77
397.19	226.02
397.57	225.97
397.95	226.19
398.32	226.15
398.70	226.27
399.07	226.38
399.45	226.40
399.82	226.40
400.20	226.31
400.58	226.40
400.95	226.25
401.33	226.45
401.70	226.84
402.08	226.92
402.45	227.04
402.83	227.22
403.20	227.34
403.58	227.43
403.95	227.64
404.33	227.85
404.71	228.11
405.08	228.49
405.46	228.70
405.83	228.85
406.21	229.00
406.58	229.20
406.96	229.45
407.33	229.82
407.70	230.21
408.08	231.00
408.45	231.43
408.83	231.88
409.20	232.17
409.58	232.21
409.95	232.77
410.33	233.25
410.70	233.55
411.08	234.10
411.45	234.56
411.82	235.10
412.20	235.77
412.57	236.70
412.95	236.92
413.32	237.63
413.69	238.24
414.07	239.10
414.44	239.97
414.82	240.81
415.19	241.75
415.56	242.70
415.94	243.45
416.31	244.67
416.68	245.81
417.06	247.16
417.43	248.59
417.81	249.93
418.18	251.46
418.55	253.07
418.93	254.74
419.30	256.48
419.67	258.32
420.04	260.11
420.42	261.91
420.79	264.62
421.16	266.91
421.54	269.51
421.91	271.97
422.28	274.50
422.66	277.22
423.03	280.19
423.40	282.99
423.77	285.92
424.15	288.88
424.52	292.04
424.89	295.53
425.26	298.74
425.64	301.92
426.01	305.30
426.38	308.96
426.75	312.77
427.13	316.62
427.50	320.46
427.87	324.56
428.24	328.61
428.61	332.18
428.99	336.62
429.36	341.13
429.73	345.67
430.10	350.35
430.47	355.08
430.85	359.61
431.22	364.70
431.59	370.45
431.96	375.60
432.33	381.43
432.70	387.10
433.08	393.67
433.45	399.89
433.82	405.98
434.19	412.71
434.56	419.46
434.93	425.75
435.30	432.20
435.68	439.31
436.05	446.37
436.42	453.32
436.79	459.65
437.16	466.55
437.53	473.91
437.90	481.18
438.27	488.28
438.64	495.60
439.01	502.62
439.38	508.40
439.75	514.32
440.13	520.90
440.50	526.99
440.87	531.98
441.24	537.32
441.61	543.27
441.98	547.64
442.35	552.52
442.72	557.65
443.09	562.71
443.46	565.54
443.83	567.50
444.20	569.19
444.57	571.49
444.94	572.47
445.31	573.49
445.68	574.76
446.05	574.92
446.42	574.15
446.79	573.11
447.16	571.81
447.53	570.85
447.90	567.83
448.27	564.92
448.64	561.07
449.01	557.94
449.37	552.85
449.74	547.78
450.11	542.19
450.48	535.74
450.85	529.08
451.22	523.55
451.59	518.14
451.96	513.00
452.33	506.36
452.70	500.38
453.07	493.15
453.43	485.50
453.80	478.66
454.17	471.92
454.54	465.46
454.91	458.84
455.28	452.23
455.65	446.13
456.02	440.67
456.38	435.36
456.75	428.97
457.12	423.59
457.49	418.41
457.86	413.11
458.23	408.88
458.59	404.19
458.96	399.44
459.33	395.22
459.70	391.00
460.07	387.65
460.43	383.74
460.80	380.22
461.17	377.14
461.54	373.78
461.91	370.61
462.27	367.39
462.64	364.66
463.01	361.88
463.38	359.16
463.74	355.55
464.11	353.12
464.48	351.05
464.85	348.69
465.21	347.06
465.58	345.05
465.95	342.76
466.32	340.87
466.68	339.02
467.05	337.24
467.42	335.46
467.78	333.45
468.15	331.66
468.52	330.36
468.88	328.40
469.25	326.85
469.62	325.59
469.98	324.28
470.35	323.04
470.72	321.78
471.08	320.34
471.45	319.35
471.82	318.34
472.18	317.15
472.55	316.43
472.92	315.34
473.28	314.48
473.65	313.56
474.02	312.66
474.38	311.91
474.75	311.27
475.11	310.48
475.48	310.11
475.85	309.58
476.21	309.02
476.58	308.69
476.94	308.40
477.31	308.09
477.67	307.73
478.04	307.54
478.41	307.42
478.77	307.75
479.14	307.59
479.50	307.57
479.87	307.65
480.23	307.70
480.60	307.70
480.96	307.86
481.33	308.21
481.69	308.51
482.06	308.82
482.42	309.11
482.79	309.54
483.15	309.97
483.52	310.64
483.88	311.11
484.25	311.74
484.61	312.40
484.98	313.04
485.34	313.96
485.71	314.77
486.07	315.55
486.44	316.20
486.80	317.17
487.17	318.18
487.53	319.50
487.90	320.77
488.26	322.26
488.62	323.80
488.99	325.14
489.35	326.72
489.72	328.44
490.08	330.26
490.44	332.12
490.81	334.16
491.17	336.19
491.54	338.53
491.90	340.90
492.26	343.37
492.63	345.92
492.99	348.59
493.36	351.46
493.72	354.64
494.08	357.66
494.45	361.14
494.81	364.68
495.17	368.10
495.54	371.88
495.90	375.74
496.26	379.69
496.63	383.90
496.99	388.29
497.35	392.84
497.72	397.67
498.08	402.73
498.44	407.75
498.80	413.15
499.17	418.63
499.53	424.18
499.89	430.10
500.26	436.30
500.62	442.40
500.98	449.05
501.34	455.64
501.71	462.56
502.07	469.49
502.43	476.56
502.79	483.97
503.16	491.60
503.52	499.50
503.88	507.53
504.24	516.23
504.60	524.99
504.97	533.93
505.33	542.92
505.69	552.41
506.05	562.08
506.41	571.85
506.78	581.92
507.14	592.26
507.50	602.88
507.86	613.85
508.22	625.14
508.59	636.30
508.95	647.99
509.31	660.34
509.67	672.62
510.03	684.81
510.39	697.36
510.75	710.21
511.12	723.16
511.48	736.55
511.84	749.84
512.20	763.24
512.56	777.01
512.92	791.12
513.28	805.25
513.64	819.59
514.00	834.16
514.37	848.84
514.73	864.00
515.09	879.00
515.45	894.11
515.81	909.24
516.17	924.63
516.53	939.94
516.89	954.98
517.25	970.65
517.61	987.37
517.97	1003.85
518.33	1020.00
518.69	1036.23
519.05	1052.82
519.41	1069.05
519.77	1085.99
520.13	1102.88
520.49	1119.21
520.85	1137.18
521.21	1153.77
521.57	1170.64
521.93	1186.99
522.29	1203.63
522.65	1219.71
523.01	1235.98
523.37	1251.95
523.73	1268.20
524.09	1284.15
524.45	1299.98
524.81	1315.97
525.17	1331.64
525.53	1347.19
525.89	1362.71
526.25	1378.60
526.61	1393.85
526.97	1409.65
527.33	1425.44
527.68	1441.41
528.04	1457.38
528.40	1471.62
528.76	1487.46
529.12	1502.43
529.48	1517.80
529.84	1532.27
530.20	1547.70
530.56	1562.48
530.91	1577.82
531.27	1592.50
531.63	1607.15
531.99	1622.14
532.35	1636.44
532.71	1650.66
533.07	1665.41
533.42	1679.79
533.78	1693.85
534.14	1707.69
534.50	1720.94
534.86	1734.10
535.21	1746.15
535.57	1758.75
535.93	1770.42
536.29	1782.35
536.65	1794.56
537.00	1806.62
537.36	1818.28
537.72	1829.06
538.08	1840.62
538.44	1851.58
538.79	1862.02
539.15	1872.73
539.51	1882.69
539.87	1892.15
540.22	1900.79
540.58	1909.39
540.94	1917.25
541.29	1924.50
541.65	1931.74
542.01	1939.20
542.37	1944.96
542.72	1950.77
543.08	1956.13
543.44	1962.77
543.79	1967.74
544.15	1972.88
544.51	1977.61
544.87	1982.39
545.22	1986.50
545.58	1989.60
545.94	1992.26
546.29	1994.79
546.65	1996.79
547.01	1998.74
547.36	2000.45
547.72	2001.73
548.07	2001.91
548.43	2003.24
548.79	2004.18
549.14	2004.74
549.50	2004.96
549.86	2005.35
550.21	2005.88
550.57	2006.20
550.92	2004.42
551.28	2003.09
551.64	2001.82
551.99	2000.60
552.35	1999.20
552.70	1998.32
553.06	1997.38
553.41	1995.91
553.77	1994.82
554.13	1993.74
554.48	1992.24
554.84	1990.87
555.19	1989.49
555.55	1988.70
555.90	1986.12
556.26	1983.39
556.61	1979.94
556.97	1976.26
557.32	1973.74
557.68	1970.51
558.03	1967.29
558.39	1964.39
558.74	1961.71
559.10	1957.57
559.45	1953.13
559.81	1948.21
560.16	1942.63
560.52	1937.15
560.87	1932.18
561.23	1926.55
561.58	1920.57
561.94	1913.52
562.29	1906.46
562.64	1899.78
563.00	1892.16
563.35	1885.59
563.71	1879.00
564.06	1873.18
564.42	1866.81
564.77	1860.02
565.12	1853.01
565.48	1846.20
565.83	1839.13
566.19	1831.96
566.54	1825.21
566.89	1817.92
567.25	1811.04
567.60	1804.67
567.96	1798.09
568.31	1791.16
568.66	1783.70
569.02	1775.81
569.37	1769.01
569.72	1762.53
570.08	1754.78
570.43	1746.70
570.78	1739.19
571.14	1731.45
571.49	1722.85
571.84	1714.93
572.20	1706.26
572.55	1698.15
572.90	1689.24
573.26	1680.97
573.61	1671.87
573.96	1662.69
574.31	1653.23
574.67	1643.88
575.02	1633.91
575.37	1623.60
575.72	1613.16
576.08	1603.85
576.43	1594.37
576.78	1584.57
577.13	1574.18
577.49	1564.53
577.84	1555.84
578.19	1546.69
578.54	1537.19
578.90	1528.45
579.25	1519.33
579.60	1509.91
579.95	1500.19
580.30	1490.35
580.66	1480.29
581.01	1470.47
581.36	1460.20
581.71	1451.02
582.06	1441.65
582.42	1432.65
582.77	1423.80
583.12	1415.22
583.47	1406.08
583.82	1397.30
584.17	1388.65
584.53	1380.13
584.88	1370.81
585.23	1361.28
585.58	1350.97
585.93	1341.38
586.28	1331.60
586.63	1321.68
586.98	1311.83
587.34	1302.54
587.69	1293.13
588.04	1284.30
588.39	1275.70
588.74	1267.03
589.09	1258.42
589.44	1249.49
589.79	1240.76
590.14	1232.03
590.49	1223.40
590.84	1214.90
591.19	1206.39
591.54	1197.49
591.89	1188.62
592.25	1181.45
592.60	1173.45
592.95	1165.48
593.30	1157.20
593.65	1148.98
594.00	1140.72
594.35	1134.20
594.70	1125.95
595.05	1118.13
595.40	1109.85
595.75	1101.66
596.10	1093.87
596.45	1086.08
596.80	1078.43
597.15	1070.32
597.50	1062.44
597.85	1054.78
598.19	1046.80
598.54	1038.95
598.89	1031.28
599.24	1024.28
599.59	1016.09
599.94	1008.52
600.29	1001.37
600.64	994.35
600.99	986.91
601.34	980.25
601.69	972.12
602.04	965.48
602.39	958.69
602.74	952.45
603.08	945.90
603.43	939.87
603.78	933.21
604.13	926.68
604.48	920.47
604.83	913.92
605.18	907.17
605.53	900.67
605.87	894.30
606.22	888.49
606.57	881.87
606.92	875.72
607.27	869.79
607.62	863.93
607.96	858.32
608.31	852.98
608.66	847.34
609.01	841.85
609.36	836.13
609.70	830.50
610.05	824.54
610.40	818.94
610.75	813.03
611.10	807.22
611.44	801.38
611.79	795.66
612.14	790.26
612.49	784.89
612.83	779.84
613.18	774.60
613.53	769.46
613.88	764.26
614.22	759.00
614.57	753.43
614.92	748.16
615.27	742.90
615.61	737.70
615.96	732.41
616.31	727.08
616.65	722.11
617.00	717.17
617.35	712.25
617.70	707.43
618.04	702.55
618.39	698.06
618.74	693.75
619.08	689.20
619.43	684.53
619.78	679.66
620.12	674.85
620.47	670.23
620.82	665.33
621.16	660.79
621.51	656.70
621.85	652.65
622.20	648.17
622.55	643.58
622.89	639.28
623.24	635.08
623.59	630.86
623.93	626.67
624.28	622.67
624.62	619.07
624.97	615.20
625.32	611.31
625.66	607.12
626.01	602.93
626.35	599.15
626.70	595.38
627.04	592.06
627.39	588.32
627.73	584.68
628.08	581.12
628.43	577.35
628.77	573.50
629.12	569.86
629.46	566.73
629.81	563.63
630.15	560.30
630.50	556.88
630.84	553.51
631.19	550.19
631.53	546.85
631.88	542.99
632.22	539.50
632.57	536.40
632.91	533.35
633.26	530.50
633.60	527.38
633.95	524.13
634.29	520.80
634.64	517.79
634.98	514.61
635.32	511.80
635.67	509.20
636.01	506.46
636.36	503.38
636.70	500.43
637.05	497.53
637.39	494.66
637.73	491.87
638.08	489.33
638.42	486.40
638.77	483.60
639.11	480.80
639.45	477.93
639.80	474.92
640.14	472.13
640.49	469.33
640.83	466.70
641.17	464.20
641.52	461.66
641.86	459.25
642.20	457.06
642.55	454.49
642.89	451.96
643.23	449.47
643.58	447.51
643.92	445.05
644.26	442.64
644.61	440.53
644.95	438.19
645.29	435.69
645.64	433.65
645.98	431.48
646.32	429.61
646.66	427.47
647.01	425.47
647.35	423.63
647.69	421.59
648.04	419.58
648.38	417.55
648.72	415.65
649.06	413.54
649.41	411.34
649.75	409.23
650.09	407.27
650.43	405.30
650.78	403.17
651.12	401.10
651.46	399.23
651.80	397.20
652.14	395.41
652.49	393.84
652.83	391.99
653.17	390.18
653.51	388.16
653.85	386.53
654.20	384.85
654.54	383.01
654.88	381.26
655.22	379.87
655.56	378.23
655.90	376.52
656.25	375.01
656.59	373.56
656.93	372.06
657.27	370.63
657.61	368.94
657.95	367.38
658.29	365.85
658.64	364.44
658.98	362.87
659.32	361.30
659.66	359.68
660.00	358.20
660.34	356.73
660.68	355.30
661.02	353.82
661.36	352.41
661.70	351.00
662.05	349.70
662.39	348.18
662.73	347.03
663.07	345.93
663.41	344.62
663.75	343.30
664.09	342.00
664.43	340.56
664.77	339.40
665.11	338.14
665.45	337.07
665.79	336.00
666.13	334.84
666.47	333.61
666.81	332.48
667.15	331.30
667.49	330.24
667.83	329.38
668.17	328.38
668.51	327.38
668.85	326.49
669.19	325.63
669.53	324.48
669.87	323.29
670.21	322.07
670.55	321.13
670.89	320.36
671.23	319.43
671.57	318.44
671.91	317.52
672.25	316.65
672.58	315.85
672.92	314.73
673.26	313.94
673.60	313.21
673.94	312.34
674.28	311.56
674.62	310.72
674.96	309.75
675.30	308.91
675.64	308.04
675.97	307.12
676.31	306.13
676.65	305.34
676.99	304.80
677.33	304.01
677.67	303.17
678.01	302.22
678.34	301.50
678.68	300.95
679.02	300.16
679.36	299.43
679.70	298.65
680.04	298.00
680.37	297.30
680.71	296.58
681.05	295.98
681.39	295.36
681.73	294.76
682.06	294.14
682.40	293.50
682.74	292.96
683.08	292.53
683.42	291.84
683.75	291.30
684.09	290.57
684.43	290.09
684.77	289.51
685.10	288.89
685.44	288.30
685.78	287.62
686.12	287.06
686.45	286.48
686.79	285.79
687.13	285.40
687.46	284.79
687.80	284.31
688.14	283.72
688.48	283.17
688.81	282.60
689.15	282.25
689.49	281.75
689.82	281.24
690.16	280.51
690.50	280.12
690.83	279.53
691.17	278.91
691.51	278.39
691.84	277.95
692.18	277.41
692.52	276.83
692.85	276.41
693.19	276.14
693.52	275.64
693.86	275.23
694.20	274.64
694.53	274.29
694.87	273.73
695.21	273.23
695.54	272.80
695.88	272.29
696.21	271.63
696.55	271.11
696.88	270.63
697.22	270.27
697.56	269.87
697.89	269.40
698.23	269.06
698.56	268.54
698.90	268.14
699.23	267.73
699.57	267.36
699.90	266.88
700.24	266.32
700.58	266.00
700.91	265.72
701.25	265.72
701.58	265.60
701.92	265.42
702.25	265.14
702.59	264.76
702.92	264.53
703.26	264.21
703.59	263.94
703.93	264.01
704.26	263.73
704.60	263.36
704.93	263.03
705.26	262.67
705.60	262.45
705.93	262.00
706.27	261.81
706.60	261.70
706.94	261.65
707.27	261.37
707.61	261.10
707.94	260.79
708.27	260.12
708.61	259.44
708.94	259.03
709.28	258.69
709.61	258.35
709.94	258.06
710.28	257.78
710.61	257.56
710.95	256.84
711.28	256.75
711.61	256.45
711.95	256.26
712.28	255.95
712.61	255.70
712.95	255.72
713.28	255.67
713.61	255.23
713.95	254.71
714.28	254.42
714.61	254.13
714.95	253.82
715.28	253.45
715.61	253.22
715.95	252.99
716.28	252.72
716.61	252.57
716.95	252.20
717.28	251.94
717.61	251.68
717.94	251.43
718.28	250.83
718.61	250.60
718.94	250.36
719.27	250.22
719.61	249.98
719.94	249.61
720.27	249.14
720.60	248.97
720.94	248.80
721.27	248.59
721.60	248.45
721.93	248.24
722.27	248.25
722.60	248.15
722.93	247.92
723.26	247.75
723.59	247.45
723.93	247.31
724.26	247.20
724.59	246.90
724.92	246.76
725.25	246.75
725.59	246.54
725.92	246.42
726.25	246.16
726.58	246.05
726.91	245.84
727.24	245.75
727.57	245.63
727.91	245.36
728.24	245.29
728.57	245.03
728.90	244.96
729.23	244.67
729.56	244.75
729.89	244.58
730.22	244.43
730.55	244.35
730.89	244.17
731.22	243.95
731.55	243.83
731.88	243.66
732.21	243.38
732.54	243.20
732.87	243.00
733.20	242.93
733.53	242.77
733.86	242.63
734.19	242.36
734.52	242.22
734.85	242.50
735.18	242.24
735.51	242.29
735.84	242.15
736.17	242.13
736.50	241.69
736.83	242.15
737.16	241.98
737.49	241.75
737.82	241.60
738.15	241.57
738.48	241.47
738.81	241.33
739.14	241.22
739.47	241.09
739.80	240.95
740.13	240.85
740.46	240.64
740.79	240.53
741.12	240.46
741.45	240.34
741.78	239.85
742.11	239.88
742.44	239.58
742.77	239.46
743.10	239.25
743.43	239.12
743.75	238.49
744.08	239.02
744.41	238.90
744.74	238.75
745.07	238.53
745.40	238.42
745.73	238.45
746.06	238.33
746.39	238.23
746.71	238.03
747.04	237.83
747.37	237.65
747.70	237.57
748.03	237.46
748.36	237.40
748.68	237.42
749.01	237.22
749.34	237.21
749.67	237.11
750.00	237.09
750.33	237.39
750.65	237.33
750.98	236.66
751.31	236.63
751.64	236.58
751.97	236.74
752.29	236.67
752.62	236.41
752.95	236.34
753.28	236.17
753.60	236.09
753.93	236.11
754.26	236.17
754.59	235.97
754.91	235.79
755.24	235.65
755.57	235.53
755.90	235.48
756.22	235.30
756.55	235.09
756.88	234.89
757.20	234.46
757.53	234.24
757.86	234.18
758.19	234.15
758.51	234.13
758.84	233.81
759.17	233.69
759.49	233.64
759.82	233.82
760.15	233.89
760.47	233.88
760.80	233.74
761.13	233.72
761.45	233.65
761.78	233.61
762.11	233.56
762.43	233.40
762.76	233.25
763.08	233.29
763.41	233.29
763.74	233.21
764.06	233.16
764.39	233.18
764.71	233.05
765.04	232.90
765.37	232.73
765.69	232.65
766.02	232.56
766.34	232.48
766.67	232.29
767.00	232.31
767.32	232.41
767.65	232.64
767.97	232.54
768.30	232.51
768.62	232.49
768.95	232.29
769.27	232.24
769.60	232.29
769.92	232.15
770.25	232.04
770.57	231.96
770.90	231.97
771.22	231.85
771.55	231.77
771.87	231.70
772.20	231.65
772.52	232.04
772.85	232.55
773.17	232.54
773.50	232.40
773.82	232.28
774.15	232.00
774.47	231.58
774.80	231.46
775.12	231.40
775.45	231.28
775.77	231.40
776.09	231.45
776.42	231.37
776.74	231.48
777.07	231.52
777.39	231.54
777.72	231.38
778.04	231.40
778.36	231.38
778.69	231.40
779.01	231.45
779.33	230.96
779.66	230.43
779.98	230.33
780.31	230.30
780.63	230.45
780.95	230.54
781.28	230.52
781.60	230.41
781.92	230.42
782.25	230.46
782.57	230.41
782.89	230.30
783.22	230.18
783.54	230.02
783.86	229.94
784.19	229.83
784.51	230.01
784.83	229.97
785.16	229.97
785.48	229.92
785.80	229.86
786.12	229.94
786.45	229.88
786.77	229.88
787.09	229.84
787.42	229.63
787.74	229.65
788.06	229.68
788.38	229.71
788.71	229.55
789.03	229.58
789.35	229.58
789.67	229.49
789.99	229.59
790.32	229.55
790.64	229.61
790.96	229.95
791.28	229.68
791.61	229.62
791.93	229.63
792.25	229.58
792.57	229.93
792.89	229.79
793.21	229.80
793.54	229.81
793.86	229.70
794.18	229.73
794.50	229.60
794.82	229.56
795.14	229.63
795.47	229.70
795.79	229.70
796.11	229.59
796.43	229.55
796.75	229.51
797.07	229.49
797.39	229.33
797.71	229.03
798.04	229.08
798.36	229.11
798.68	229.06
799.00	229.04
799.32	228.76
799.64	228.80
799.96	228.81
800.28	228.81
800.60	228.81
800.92	228.83
801.24	228.82
801.56	228.80
801.89	228.70
802.21	228.81
802.53	228.65
802.85	228.77
803.17	228.99
803.49	228.84
803.81	228.72
804.13	228.70
804.45	228.64
804.77	228.72
805.09	228.64
805.41	228.50
805.73	228.48
806.05	228.36
806.37	228.36
806.69	228.25
807.01	228.17
807.33	228.20
807.65	227.99
807.97	228.16
808.28	228.15
808.60	228.10
808.92	227.94
809.24	228.25
809.56	228.06
809.88	227.80
810.20	227.84
810.52	228.00
810.84	227.95
811.16	227.83
811.48	227.67
811.80	227.80
812.12	227.86
812.43	227.97
812.75	228.01
813.07	227.96
813.39	228.02
813.71	227.99
814.03	227.82
814.35	227.80
814.67	227.62
814.98	227.49
815.30	227.45
815.62	227.39
815.94	227.05
816.26	227.28
816.58	227.23
816.89	227.24
817.21	227.10
817.53	227.09
817.85	227.11
818.17	227.12
818.48	226.93
818.80	226.97
819.12	226.84
819.44	226.68
819.76	226.59
820.07	226.60
820.39	226.67
820.71	226.74
821.03	226.75
821.34	226.62
821.66	226.74
821.98	226.81
822.30	226.80
822.61	227.10
822.93	226.89
823.25	226.90
823.57	226.89
823.88	226.97
824.20	227.00
824.52	227.20
824.83	227.26
825.15	227.20
825.47	227.18
825.79	227.21
826.10	227.22
826.42	227.30
826.74	227.30
827.05	227.23
827.37	227.22
827.69	227.20
828.00	227.35
828.32	227.36
828.64	227.28
828.95	227.58
829.27	227.40
829.58	227.43
829.90	227.51
830.22	227.54
830.53	227.43
830.85	227.40
831.17	227.16
831.48	227.15
831.80	227.19
832.11	227.16
832.43	227.04
832.75	227.10
833.06	227.36
833.38	227.18
833.69	227.24
834.01	227.33
834.32	227.34
834.64	227.29
834.96	227.33
835.27	227.40
835.59	227.24
835.90	227.22
836.22	227.17
836.53	227.13
836.85	227.07
837.16	227.61
837.48	227.51
837.79	227.69
838.11	227.69
838.42	227.71
838.74	227.74
839.05	227.77
839.37	227.70
839.68	227.35
840.00	227.38
840.31	227.37
840.63	227.27
840.94	227.19
841.26	227.13
841.57	227.05
841.88	227.04
842.20	226.89
842.51	226.81
842.83	226.81
843.14	227.17
843.46	227.15
843.77	226.77
844.08	226.84
844.40	226.65
844.71	226.61
845.03	226.55
845.34	226.54
845.65	226.49
845.97	226.47
846.28	226.47
846.60	226.55
846.91	226.46
847.22	226.44
847.54	226.50
847.85	226.49
848.16	226.43
848.48	226.35
848.79	226.51
849.10	226.54
849.42	226.48
849.73	226.00
850.04	225.97
850.36	225.78
850.67	225.87
850.98	225.86
851.30	225.90
851.61	225.85
851.92	225.74
852.23	225.87
852.55	225.90
852.86	225.96
853.17	225.96
853.49	226.04
853.80	226.18
854.11	226.21
854.42	226.23
854.74	226.20
855.05	226.19
855.36	225.88
855.67	225.86
855.99	225.89
856.30	226.49
856.61	226.51
856.92	226.59
857.23	226.50
857.55	226.44
857.86	226.38
858.17	226.40
858.48	226.39
858.79	226.26
859.11	226.22
859.42	226.15
859.73	226.06
860.04	226.00
860.35	225.80
860.66	225.68
860.98	225.69
861.29	225.80
861.60	225.77
861.91	225.95
862.22	225.87
862.53	225.82
862.84	225.28
863.16	225.33
863.47	225.20
863.78	225.23
864.09	225.30
864.40	225.35
864.71	225.43
865.02	225.51
865.33	225.50
865.64	225.46
865.95	225.43
866.27	225.72
866.58	225.70
866.89	225.81
867.20	225.85
867.51	225.78
867.82	225.76
868.13	225.95
868.44	225.84
868.75	226.01
869.06	226.07
869.37	226.12
869.68	226.00
869.99	226.14
870.30	226.17
870.61	226.25
870.92	226.16
871.23	226.18
871.54	226.23
871.85	226.36
872.16	226.50
872.47	226.51
872.78	226.29
873.09	226.32
873.40	226.27
873.71	226.34
874.02	226.39
874.33	226.35
874.64	226.25
874.95	226.41
875.26	226.26
875.56	226.29
875.87	226.29
876.18	226.34
876.49	226.83
876.80	226.76
877.11	226.70
877.42	226.76
877.73	226.76
878.04	226.72
878.35	226.79
878.66	226.74
878.96	226.73
879.27	226.69
879.58	226.73
879.89	226.71
880.20	226.85
880.51	226.83
880.82	226.84
881.12	226.84
881.43	226.70
881.74	226.66
882.05	226.66
882.36	226.65
882.67	226.64
882.97	226.14
883.28	226.20
883.59	226.13
883.90	226.12
884.21	226.19
884.51	226.15
884.82	226.00
885.13	225.95
885.44	226.01
885.74	226.00
886.05	225.96
886.36	225.93
886.67	225.77
886.98	226.06
887.28	226.09
887.59	226.13
887.90	226.18
888.20	226.18
888.51	226.19
888.82	226.09
889.13	226.20
889.43	226.60
889.74	226.51
890.05	226.57
890.35	226.49
890.66	226.35
890.97	226.31
891.28	226.24
891.58	226.29
891.89	226.20
892.20	226.15
892.50	226.11
892.81	226.11
893.12	225.99
893.42	225.68
893.73	225.66
894.04	225.60
894.34	225.63
894.65	225.62
894.95	225.58
895.26	225.65
895.57	225.83
895.87	225.31
896.18	225.43
896.48	225.45
896.79	225.50
897.10	225.55
897.40	225.53
897.71	225.64
898.01	225.66
898.32	225.68
898.63	225.70
898.93	225.70
899.24	225.71
899.54	225.70
899.85	225.70
900.15	225.68
900.46	225.68
900.76	225.65
901.07	225.63
901.38	225.65
901.68	225.69
901.99	225.39
902.29	225.50
902.60	225.38
902.90	225.32
903.21	225.32
903.51	225.36
903.82	225.51
904.12	225.54
904.43	225.49
904.73	225.56
905.03	225.57
905.34	226.04
905.64	226.03
905.95	226.08
906.25	226.13
906.56	226.16
906.86	226.15
907.17	226.13
907.47	226.24
907.77	226.14
908.08	226.08
908.38	226.20
908.69	226.24
908.99	226.31
909.30	226.29
909.60	226.34
909.90	226.28
910.21	226.10
910.51	225.99
910.81	226.06
911.12	226.06
911.42	226.08
911.73	225.61
912.03	225.64
912.33	225.81
912.64	225.77
912.94	225.71
913.24	225.75
913.55	225.71
913.85	225.59
914.15	225.69
914.46	225.70
914.76	225.58
915.06	225.55
915.37	225.50
915.67	225.54
915.97	225.54
916.27	225.49
916.58	225.60
916.88	225.59
917.18	225.59
917.49	225.91
917.79	225.84
918.09	225.88
918.39	226.00
918.70	225.93
919.00	225.98
919.30	226.18
919.60	226.10
919.91	226.06
920.21	226.10
920.51	225.96
920.81	225.92
921.12	226.02
921.42	226.05
921.72	226.05
922.02	226.09
922.32	226.13
922.63	226.10
922.93	226.30
923.23	226.37
923.53	226.29
923.83	225.97
924.13	226.04
924.44	226.05
924.74	226.07
925.04	226.18
925.34	226.14
925.64	226.00
925.94	225.94
926.24	226.29
926.55	226.27
926.85	226.38
927.15	226.45
927.45	226.47
927.75	226.44
928.05	226.47
928.35	226.39
928.65	226.50
928.95	226.54
929.26	226.26
929.56	226.36
929.86	226.47
930.16	226.43
930.46	226.42
930.76	226.40
931.06	226.25
931.36	226.11
931.66	226.14
931.96	226.11
932.26	226.17
932.56	225.95
932.86	225.94
933.16	225.95
933.46	225.82
933.76	225.65
934.06	225.74
934.36	226.02
934.66	226.00
934.96	225.90
935.26	225.97
935.56	226.08
935.86	225.84
936.16	225.69
936.46	225.64
936.76	225.60
937.06	225.58
937.36	225.60
937.66	225.54
937.96	225.51
938.26	225.38
938.56	225.39
938.86	225.36
939.16	225.54
939.46	225.62
939.76	225.64
940.06	225.79
940.35	225.65
940.65	225.27
940.95	225.31
941.25	225.18
941.55	225.03
941.85	224.96
942.15	225.18
942.45	225.30
942.75	225.30
943.04	225.31
943.34	225.44
943.64	225.34
943.94	225.32
944.24	225.34
944.54	225.41
944.84	225.34
945.13	225.30
945.43	225.19
945.73	225.08
946.03	225.14
946.33	225.03
946.62	224.92
946.92	224.92
947.22	224.91
947.52	224.99
947.82	225.11
948.11	225.10
948.41	224.94
948.71	224.87
949.01	224.91
949.31	224.88
949.60	224.80
949.90	224.92
950.20	225.00
950.50	225.03
950.79	225.06
951.09	225.17
951.39	225.14
951.69	225.06
951.98	225.22
952.28	225.23
952.58	225.19
952.87	225.26
953.17	225.42
953.47	225.42
953.76	225.42
954.06	225.31
954.36	225.23
954.66	225.23
954.95	225.40
955.25	225.42
955.55	225.50
955.84	225.45
956.14	225.53
956.44	225.47
956.73	225.45
957.03	225.42
957.32	225.42
957.62	225.48
957.92	225.68
958.21	225.59
958.51	226.12
958.81	226.20
959.10	226.28
959.40	226.33
959.69	226.28
959.99	226.27
960.29	226.34
960.58	226.39
960.88	226.59
961.17	226.50
961.47	226.49
961.76	226.43
962.06	226.55
962.36	226.45
962.65	226.48
962.95	226.44
963.24	226.43
963.54	226.53
963.83	226.51
964.13	226.45
964.42	226.38
964.72	226.03
965.01	226.06
965.31	226.07
965.60	226.00
965.90	226.38
966.19	226.40
966.49	226.41
966.78	226.45
967.08	226.39
967.37	226.42
967.67	226.47
967.96	226.58
968.26	226.49
968.55	226.55
968.85	226.59
969.14	226.63
969.43	226.65
969.73	226.59
970.02	226.54
970.32	226.41
970.61	226.45
970.91	226.28
971.20	226.28
971.49	226.20
971.79	226.23
972.08	225.92
972.38	225.84
972.67	225.81
972.96	225.76
973.26	225.69
973.55	225.82
973.85	225.72
974.14	225.66
974.43	225.76
974.73	225.68
975.02	225.63
975.31	225.63
975.61	225.60
975.90	225.52
976.19	225.47
976.49	225.54
976.78	225.47
977.07	225.49
977.37	225.42
977.66	225.47
977.95	225.36
978.24	225.35
978.54	225.48
978.83	225.47
979.12	225.52
979.42	225.50
979.71	225.35
980.00	225.33
980.29	225.33
980.59	225.13
980.88	225.23
981.17	225.23
981.46	225.18
981.76	225.12
982.05	225.26
982.34	225.37
982.63	225.33
982.93	225.37
983.22	225.45
983.51	225.42
983.80	225.49
984.09	225.51
984.39	225.48
984.68	225.34
984.97	225.39
985.26	225.32
985.55	225.30
985.85	225.21
986.14	225.38
986.43	225.43
986.72	225.44
987.01	225.30
987.30	225.26
987.59	225.23
987.89	225.29
988.18	225.13
988.47	225.04
988.76	225.06
989.05	225.00
989.34	224.98
989.63	225.20
989.92	225.17
990.22	225.12
990.51	225.17
990.80	225.14
991.09	225.14
991.38	225.17
991.67	225.23
991.96	225.12
992.25	225.08
992.54	225.00
992.83	225.03
993.12	225.04
993.41	225.13
993.70	225.34
993.99	225.46
994.28	225.55
994.58	225.71
994.87	225.67
995.16	225.65
995.45	225.56
995.74	225.34
996.03	225.38
996.32	225.49
996.61	225.61
996.90	225.65
997.19	225.60
997.48	225.66
997.77	225.57
998.06	225.65
998.34	225.60
998.63	225.59
998.92	225.69
999.21	225.78
999.50	225.77
999.79	225.64
1000.08	225.54
1000.37	225.57
1000.66	225.42
1000.95	225.54
1001.24	225.62
1001.53	225.69
1001.82	225.70
1002.11	225.60
1002.40	225.62
1002.68	225.70
1002.97	226.01
1003.26	226.00
1003.55	225.88
1003.84	225.92
1004.13	226.18
1004.42	226.18
1004.71	226.21
1004.99	226.10
1005.28	226.20
1005.57	226.19
1005.86	226.11
1006.15	226.07
1006.44	225.99
1006.72	226.06
1007.01	226.02
1007.30	226.02
1007.59	225.97
1007.88	225.98
1008.17	226.00
1008.45	225.95
1008.74	225.74
1009.03	225.60
1009.32	225.61
1009.60	225.67
1009.89	225.62
1010.18	225.39
1010.47	225.34
1010.76	225.31
1011.04	225.31
1011.33	225.30
1011.62	225.30
1011.91	225.34
1012.19	225.40
1012.48	225.42
1012.77	225.47
1013.05	225.63
1013.34	225.65
1013.63	225.60
1013.92	225.63
1014.20	225.63
1014.49	225.61
1014.78	225.71
1015.06	225.49
1015.35	225.48
1015.64	225.53
1015.92	225.67
1016.21	225.70
1016.50	225.75
1016.78	225.80
1017.07	225.85
1017.36	225.64
1017.64	225.61
1017.93	225.68
1018.22	225.64
1018.50	225.69
1018.79	225.59
1019.08	225.42
1019.36	225.43
1019.65	225.45
1019.93	225.57
1020.22	225.60
1020.51	225.79
1020.79	225.67
1021.08	224.85
1021.36	225.90
1021.65	224.85
1021.94	226.05
1022.22	225.95
1022.51	224.85
1022.79	228.00
1023.08	225.75
1023.36	229.80
1023.65	224.10
>>>>>End Processed Spectral Data<<<<<
