SpectraSuite Data File
++++++++++++++++++++++++++++++++++++
Date: Wed Sep 04 17:58:50 EDT 2013
User: lab3
Dark Spectrum Present: Yes
Reference Spectrum Present: No
Number of Sampled Component Spectra: 1
Spectrometers: USB2E7196
Integration Time (usec): 170000 (USB2E7196)
Spectra Averaged: 20 (USB2E7196)
Boxcar Smoothing: 10 (USB2E7196)
Correct for Electrical Dark: No (USB2E7196)
Strobe/Lamp Enabled: No (USB2E7196)
Correct for Detector Non-linearity: No (USB2E7196)
Correct for Stray Light: No (USB2E7196)
Number of Pixels in Processed Spectrum: 2048
>>>>>Begin Processed Spectral Data<<<<<
339.09	0.00
339.48	213.55
339.86	216.50
340.24	216.75
340.63	217.50
341.01	226.20
341.39	221.30
341.78	222.05
342.16	224.95
342.54	225.00
342.93	212.82
343.31	223.55
343.69	224.05
344.07	224.45
344.46	224.90
344.84	225.39
345.22	225.38
345.60	225.66
345.99	225.85
346.37	225.97
346.75	226.01
347.13	226.11
347.52	226.21
347.90	226.45
348.28	226.41
348.66	226.50
349.05	226.46
349.43	226.57
349.81	226.60
350.19	226.56
350.57	226.67
350.96	226.78
351.34	226.90
351.72	227.05
352.10	227.19
352.48	227.18
352.87	227.15
353.25	227.24
353.63	227.21
354.01	227.27
354.39	227.31
354.77	227.42
355.15	227.59
355.54	227.64
355.92	227.55
356.30	227.74
356.68	228.11
357.06	228.18
357.44	228.11
357.82	228.23
358.20	228.75
358.58	228.76
358.97	228.79
359.35	228.94
359.73	229.05
360.11	229.05
360.49	229.17
360.87	229.21
361.25	229.28
361.63	229.52
362.01	229.63
362.39	229.63
362.77	229.70
363.15	229.71
363.53	229.67
363.91	229.75
364.29	229.72
364.67	229.33
365.05	229.37
365.43	229.48
365.81	229.57
366.19	229.37
366.57	229.64
366.95	229.67
367.33	229.55
367.71	229.60
368.09	229.71
368.47	229.78
368.85	229.78
369.23	229.87
369.61	229.69
369.99	229.86
370.37	229.95
370.75	230.16
371.13	230.03
371.51	230.03
371.89	230.03
372.27	230.06
372.65	230.12
373.03	230.05
373.41	230.04
373.78	229.86
374.16	229.58
374.54	229.36
374.92	229.34
375.30	229.29
375.68	229.10
376.06	229.05
376.44	228.84
376.82	228.80
377.19	228.76
377.57	228.72
377.95	228.44
378.33	228.33
378.71	227.95
379.09	228.00
379.47	227.97
379.84	227.89
380.22	227.79
380.60	227.64
380.98	227.58
381.36	227.46
381.73	227.37
382.11	227.46
382.49	227.42
382.87	227.20
383.25	227.16
383.62	227.69
384.00	227.53
384.38	227.59
384.76	227.74
385.13	227.82
385.51	227.82
385.89	227.71
386.27	227.64
386.64	227.74
387.02	227.60
387.40	227.52
387.78	227.45
388.15	227.49
388.53	227.39
388.91	227.35
389.29	227.35
389.66	227.43
390.04	227.30
390.42	227.33
390.79	227.39
391.17	227.32
391.55	226.79
391.92	226.81
392.30	226.81
392.68	226.59
393.05	226.48
393.43	226.46
393.81	226.50
394.18	226.40
394.56	226.41
394.94	226.55
395.31	226.54
395.69	226.75
396.06	226.85
396.44	226.95
396.82	226.96
397.19	227.18
397.57	227.12
397.95	227.20
398.32	227.15
398.70	227.25
399.07	227.41
399.45	227.49
399.82	227.56
400.20	227.64
400.58	227.69
400.95	227.63
401.33	227.80
401.70	228.22
402.08	228.39
402.45	228.47
402.83	228.74
403.20	228.95
403.58	229.01
403.95	229.14
404.33	229.36
404.71	229.60
405.08	230.06
405.46	230.32
405.83	230.64
406.21	230.93
406.58	231.27
406.96	231.56
407.33	231.91
407.70	232.26
408.08	232.96
408.45	233.51
408.83	233.99
409.20	234.36
409.58	234.55
409.95	235.18
410.33	235.69
410.70	236.07
411.08	236.69
411.45	237.27
411.82	237.88
412.20	238.66
412.57	239.58
412.95	239.90
413.32	240.80
413.69	241.61
414.07	242.58
414.44	243.50
414.82	244.58
415.19	245.69
415.56	246.83
415.94	247.82
416.31	249.18
416.68	250.66
417.06	252.35
417.43	254.08
417.81	255.81
418.18	257.60
418.55	259.58
418.93	261.60
419.30	263.76
419.67	266.06
420.04	268.31
420.42	270.63
420.79	273.75
421.16	276.53
421.54	279.61
421.91	282.52
422.28	285.66
422.66	288.94
423.03	292.49
423.40	295.95
423.77	299.48
424.15	303.15
424.52	306.99
424.89	311.13
425.26	314.95
425.64	318.75
426.01	323.03
426.38	327.45
426.75	331.93
427.13	336.55
427.50	341.18
427.87	346.22
428.24	351.24
428.61	355.72
428.99	361.06
429.36	366.65
429.73	372.26
430.10	377.75
430.47	383.46
430.85	389.16
431.22	395.33
431.59	402.25
431.96	408.47
432.33	415.36
432.70	422.00
433.08	430.12
433.45	437.65
433.82	445.06
434.19	453.35
434.56	461.57
434.93	469.39
435.30	477.27
435.68	485.92
436.05	494.23
436.42	502.68
436.79	510.48
437.16	518.80
437.53	527.57
437.90	536.42
438.27	545.05
438.64	553.94
439.01	562.39
439.38	569.61
439.75	576.72
440.13	584.91
440.50	592.37
440.87	598.43
441.24	604.83
441.61	611.83
441.98	616.81
442.35	622.57
442.72	628.35
443.09	634.25
443.46	637.63
443.83	640.03
444.20	642.01
444.57	644.76
444.94	645.88
445.31	646.90
445.68	648.08
446.05	648.22
446.42	646.89
446.79	645.46
447.16	643.66
447.53	642.51
447.90	638.77
448.27	635.27
448.64	630.29
449.01	626.59
449.37	620.30
449.74	614.17
450.11	607.40
450.48	599.64
450.85	591.62
451.22	584.78
451.59	578.14
451.96	571.80
452.33	563.59
452.70	556.22
453.07	547.65
453.43	538.61
453.80	530.09
454.17	521.97
454.54	514.09
454.91	506.02
455.28	497.98
455.65	490.30
456.02	483.33
456.38	476.93
456.75	468.92
457.12	462.51
457.49	456.13
457.86	449.60
458.23	444.48
458.59	438.60
458.96	432.68
459.33	427.58
459.70	422.40
460.07	418.15
460.43	413.27
460.80	408.94
461.17	405.12
461.54	401.17
461.91	397.32
462.27	393.37
462.64	390.01
463.01	386.40
463.38	383.16
463.74	379.19
464.11	376.15
464.48	373.65
464.85	370.65
465.21	368.51
465.58	366.16
465.95	363.28
466.32	361.03
466.68	358.76
467.05	356.55
467.42	354.25
467.78	351.96
468.15	349.83
468.52	348.22
468.88	346.07
469.25	344.07
469.62	342.66
469.98	341.20
470.35	339.68
470.72	338.19
471.08	336.48
471.45	335.24
471.82	333.91
472.18	332.43
472.55	331.42
472.92	330.17
473.28	329.17
473.65	328.08
474.02	327.04
474.38	326.19
474.75	325.46
475.11	324.66
475.48	324.04
475.85	323.49
476.21	322.80
476.58	322.34
476.94	322.07
477.31	321.46
477.67	320.91
478.04	320.57
478.41	320.39
478.77	320.67
479.14	320.27
479.50	320.20
479.87	320.25
480.23	320.33
480.60	320.23
480.96	320.24
481.33	320.63
481.69	320.88
482.06	321.02
482.42	321.23
482.79	321.58
483.15	322.02
483.52	322.56
483.88	323.12
484.25	323.56
484.61	324.17
484.98	324.95
485.34	326.00
485.71	327.03
486.07	327.99
486.44	328.55
486.80	329.73
487.17	330.87
487.53	332.26
487.90	333.67
488.26	335.50
488.62	337.15
488.99	338.67
489.35	340.56
489.72	342.52
490.08	344.57
490.44	346.71
490.81	348.99
491.17	351.28
491.54	353.88
491.90	356.55
492.26	359.19
492.63	361.89
492.99	364.71
493.36	367.80
493.72	371.12
494.08	374.68
494.45	378.38
494.81	382.32
495.17	386.15
495.54	390.25
495.90	394.35
496.26	398.81
496.63	403.48
496.99	408.12
497.35	413.17
497.72	418.40
498.08	423.87
498.44	429.55
498.80	435.59
499.17	441.48
499.53	447.78
499.89	454.50
500.26	461.42
500.62	468.40
500.98	475.71
501.34	483.15
501.71	490.89
502.07	498.67
502.43	506.78
502.79	515.20
503.16	523.92
503.52	532.94
503.88	542.23
504.24	552.05
504.60	562.09
504.97	572.49
505.33	582.88
505.69	593.99
506.05	605.05
506.41	616.28
506.78	628.00
507.14	640.05
507.50	652.41
507.86	665.03
508.22	678.06
508.59	691.14
508.95	704.88
509.31	719.10
509.67	733.56
510.03	747.99
510.39	762.92
510.75	778.07
511.12	793.37
511.48	808.98
511.84	824.60
512.20	840.69
512.56	856.97
512.92	873.80
513.28	890.66
513.64	907.92
514.00	925.50
514.37	943.12
514.73	961.27
515.09	979.63
515.45	998.18
515.81	1016.63
516.17	1035.51
516.53	1054.17
516.89	1072.85
517.25	1092.11
517.61	1112.43
517.97	1132.86
518.33	1153.05
518.69	1173.50
519.05	1194.00
519.41	1214.77
519.77	1235.95
520.13	1256.78
520.49	1277.50
520.85	1298.64
521.21	1319.79
521.57	1341.33
521.93	1362.43
522.29	1383.78
522.65	1404.57
523.01	1425.45
523.37	1446.18
523.73	1467.39
524.09	1488.32
524.45	1509.00
524.81	1529.90
525.17	1550.54
525.53	1570.89
525.89	1591.59
526.25	1612.27
526.61	1632.92
526.97	1654.06
527.33	1675.21
527.68	1696.99
528.04	1718.49
528.40	1739.40
528.76	1760.46
529.12	1780.82
529.48	1801.60
529.84	1821.62
530.20	1842.98
530.56	1864.03
530.91	1885.49
531.27	1905.68
531.63	1926.24
531.99	1946.98
532.35	1967.33
532.71	1987.44
533.07	2008.17
533.42	2028.38
533.78	2048.77
534.14	2068.69
534.50	2087.89
534.86	2107.02
535.21	2124.67
535.57	2143.10
535.93	2160.59
536.29	2178.73
536.65	2197.03
537.00	2214.86
537.36	2232.95
537.72	2249.22
538.08	2266.38
538.44	2282.76
538.79	2299.66
539.15	2316.11
539.51	2332.11
539.87	2347.48
540.22	2361.84
540.58	2376.35
540.94	2389.72
541.29	2402.47
541.65	2415.44
542.01	2428.24
542.37	2439.11
542.72	2450.16
543.08	2461.10
543.44	2473.15
543.79	2483.08
544.15	2492.66
544.51	2502.93
544.87	2512.34
545.22	2521.32
545.58	2528.95
545.94	2536.27
546.29	2542.88
546.65	2549.19
547.01	2554.94
547.36	2560.54
547.72	2566.11
548.07	2569.97
548.43	2575.67
548.79	2579.97
549.14	2583.95
549.50	2587.59
549.86	2591.82
550.21	2596.00
550.57	2599.20
550.92	2600.56
551.28	2602.36
551.64	2605.41
551.99	2607.11
552.35	2608.95
552.70	2610.59
553.06	2612.28
553.41	2613.66
553.77	2615.49
554.13	2617.47
554.48	2619.32
554.84	2620.76
555.19	2621.91
555.55	2623.98
555.90	2623.06
556.26	2622.46
556.61	2620.98
556.97	2619.16
557.32	2618.41
557.68	2617.00
558.03	2615.74
558.39	2614.44
558.74	2613.46
559.10	2609.73
559.45	2606.49
559.81	2601.83
560.16	2597.14
560.52	2592.51
560.87	2588.39
561.23	2582.59
561.58	2576.61
561.94	2569.20
562.29	2561.89
562.64	2555.02
563.00	2546.35
563.35	2539.70
563.71	2533.34
564.06	2527.19
564.42	2520.58
564.77	2513.37
565.12	2505.75
565.48	2498.03
565.83	2490.17
566.19	2482.06
566.54	2474.50
566.89	2466.17
567.25	2458.55
567.60	2451.30
567.96	2443.91
568.31	2435.45
568.66	2427.06
569.02	2417.81
569.37	2409.95
569.72	2402.15
570.08	2392.73
570.43	2383.61
570.78	2374.66
571.14	2365.10
571.49	2354.67
571.84	2344.85
572.20	2334.00
572.55	2324.11
572.90	2312.96
573.26	2302.72
573.61	2291.36
573.96	2280.31
574.31	2268.24
574.67	2256.37
575.02	2243.38
575.37	2230.32
575.72	2217.05
576.08	2204.88
576.43	2192.32
576.78	2179.19
577.13	2165.50
577.49	2152.59
577.84	2140.45
578.19	2127.94
578.54	2114.87
578.90	2102.70
579.25	2090.34
579.60	2078.05
579.95	2064.82
580.30	2051.73
580.66	2038.19
581.01	2024.67
581.36	2010.33
581.71	1997.65
582.06	1984.44
582.42	1972.01
582.77	1959.22
583.12	1947.47
583.47	1934.99
583.82	1923.21
584.17	1910.89
584.53	1898.92
584.88	1886.24
585.23	1873.14
585.58	1858.85
585.93	1845.81
586.28	1832.57
586.63	1818.64
586.98	1804.35
587.34	1791.12
587.69	1777.93
588.04	1765.33
588.39	1753.27
588.74	1741.22
589.09	1729.15
589.44	1716.71
589.79	1704.70
590.14	1692.71
590.49	1680.43
590.84	1668.27
591.19	1656.04
591.54	1644.00
591.89	1631.95
592.25	1621.62
592.60	1610.18
592.95	1598.81
593.30	1587.03
593.65	1574.85
594.00	1562.87
594.35	1552.95
594.70	1541.20
595.05	1529.85
595.40	1517.58
595.75	1505.70
596.10	1494.42
596.45	1482.66
596.80	1471.80
597.15	1460.08
597.50	1448.32
597.85	1436.67
598.19	1425.01
598.54	1413.23
598.89	1401.99
599.24	1391.45
599.59	1379.63
599.94	1368.55
600.29	1357.93
600.64	1347.47
600.99	1336.79
601.34	1327.11
601.69	1315.87
602.04	1306.01
602.39	1296.13
602.74	1287.05
603.08	1277.50
603.43	1268.01
603.78	1258.44
604.13	1248.59
604.48	1239.06
604.83	1229.38
605.18	1219.76
605.53	1210.36
605.87	1201.36
606.22	1192.69
606.57	1183.24
606.92	1173.90
607.27	1164.99
607.62	1156.41
607.96	1147.77
608.31	1139.90
608.66	1131.35
609.01	1122.70
609.36	1113.89
609.70	1105.34
610.05	1096.45
610.40	1087.95
610.75	1079.09
611.10	1070.50
611.44	1061.86
611.79	1053.47
612.14	1045.53
612.49	1037.57
612.83	1029.87
613.18	1022.09
613.53	1014.31
613.88	1006.20
614.22	998.34
614.57	990.32
614.92	982.37
615.27	974.74
615.61	967.07
615.96	959.39
616.31	951.72
616.65	944.69
617.00	937.30
617.35	930.19
617.70	922.92
618.04	915.85
618.39	908.94
618.74	902.43
619.08	895.76
619.43	888.74
619.78	881.66
620.12	874.39
620.47	867.20
620.82	859.81
621.16	852.90
621.51	846.56
621.85	840.24
622.20	833.68
622.55	826.92
622.89	820.14
623.24	813.74
623.59	807.47
623.93	801.19
624.28	794.99
624.62	789.29
624.97	783.40
625.32	777.62
625.66	771.56
626.01	765.41
626.35	759.72
626.70	754.21
627.04	749.14
627.39	743.68
627.73	738.46
628.08	733.27
628.43	727.94
628.77	722.38
629.12	717.02
629.46	711.96
629.81	707.24
630.15	702.42
630.50	697.48
630.84	692.64
631.19	687.60
631.53	683.02
631.88	677.61
632.22	672.66
632.57	668.00
632.91	663.48
633.26	658.96
633.60	654.20
633.95	649.36
634.29	644.36
634.64	639.92
634.98	634.97
635.32	630.77
635.67	626.61
636.01	622.47
636.36	618.03
636.70	614.00
637.05	609.79
637.39	605.82
637.73	601.68
638.08	597.61
638.42	593.47
638.77	589.13
639.11	584.71
639.45	580.37
639.80	576.09
640.14	572.01
640.49	568.06
640.83	564.30
641.17	560.73
641.52	556.96
641.86	553.20
642.20	549.96
642.55	546.17
642.89	542.57
643.23	539.08
643.58	536.00
643.92	532.42
644.26	528.86
644.61	525.53
644.95	522.20
645.29	518.70
645.64	515.55
645.98	512.44
646.32	509.69
646.66	506.66
647.01	503.71
647.35	500.98
647.69	498.01
648.04	495.11
648.38	492.26
648.72	489.50
649.06	486.48
649.41	483.41
649.75	480.47
650.09	477.54
650.43	474.52
650.78	471.41
651.12	468.42
651.46	465.66
651.80	462.80
652.14	460.09
652.49	457.66
652.83	455.03
653.17	452.37
653.51	449.67
653.85	447.18
654.20	444.59
654.54	441.87
654.88	439.17
655.22	436.95
655.56	434.43
655.90	432.01
656.25	429.78
656.59	427.59
656.93	425.31
657.27	423.27
657.61	420.84
657.95	418.72
658.29	416.67
658.64	414.60
658.98	412.33
659.32	410.06
659.66	407.82
660.00	405.71
660.34	403.63
660.68	401.66
661.02	399.67
661.36	397.73
661.70	395.68
662.05	393.74
662.39	391.70
662.73	389.95
663.07	388.30
663.41	386.49
663.75	384.58
664.09	382.74
664.43	380.80
664.77	379.28
665.11	377.56
665.45	375.90
665.79	374.24
666.13	372.54
666.47	370.86
666.81	369.23
667.15	367.54
667.49	366.02
667.83	364.63
668.17	363.12
668.51	361.65
668.85	360.37
669.19	359.37
669.53	357.82
669.87	356.20
670.21	354.54
670.55	353.13
670.89	351.94
671.23	350.66
671.57	349.17
671.91	347.70
672.25	346.35
672.58	345.17
672.92	343.71
673.26	342.54
673.60	341.35
673.94	340.13
674.28	339.05
674.62	337.88
674.96	336.49
675.30	335.37
675.64	334.15
675.97	332.87
676.31	331.44
676.65	330.20
676.99	329.24
677.33	328.11
677.67	327.00
678.01	325.69
678.34	324.46
678.68	323.55
679.02	322.56
679.36	321.56
679.70	320.43
680.04	319.48
680.37	318.50
680.71	317.57
681.05	316.71
681.39	315.80
681.73	314.95
682.06	314.05
682.40	313.13
682.74	312.35
683.08	311.65
683.42	310.60
683.75	309.90
684.09	308.93
684.43	308.08
684.77	307.18
685.10	306.45
685.44	305.77
685.78	305.02
686.12	304.24
686.45	303.34
686.79	302.46
687.13	301.91
687.46	301.13
687.80	300.48
688.14	299.60
688.48	298.80
688.81	297.95
689.15	297.38
689.49	296.67
689.82	295.98
690.16	295.05
690.50	294.47
690.83	293.64
691.17	292.87
691.51	292.30
691.84	291.74
692.18	290.99
692.52	290.33
692.85	289.66
693.19	289.15
693.52	288.60
693.86	287.92
694.20	287.14
694.53	286.51
694.87	285.80
695.21	285.25
695.54	284.63
695.88	283.93
696.21	283.12
696.55	282.52
696.88	281.85
697.22	281.25
697.56	280.70
697.89	280.13
698.23	279.71
698.56	279.12
698.90	278.65
699.23	278.10
699.57	277.53
699.90	276.95
700.24	276.30
700.58	275.76
700.91	275.41
701.25	275.28
701.58	275.22
701.92	274.93
702.25	274.47
702.59	273.93
702.92	273.54
703.26	273.09
703.59	272.61
703.93	272.57
704.26	272.28
704.60	271.91
704.93	271.46
705.26	270.94
705.60	270.47
705.93	269.90
706.27	269.66
706.60	269.35
706.94	269.13
707.27	268.68
707.61	268.37
707.94	268.02
708.27	267.26
708.61	266.39
708.94	265.86
709.28	265.48
709.61	265.09
709.94	264.74
710.28	264.40
710.61	264.04
710.95	263.22
711.28	262.98
711.61	262.52
711.95	262.30
712.28	261.90
712.61	261.63
712.95	261.57
713.28	261.38
713.61	261.04
713.95	260.54
714.28	260.27
714.61	259.88
714.95	259.44
715.28	259.11
715.61	258.87
715.95	258.50
716.28	258.15
716.61	257.89
716.95	257.51
717.28	257.20
717.61	256.91
717.94	256.59
718.28	255.98
718.61	255.69
718.94	255.29
719.27	255.03
719.61	254.77
719.94	254.38
720.27	253.90
720.60	253.58
720.94	253.36
721.27	253.19
721.60	253.06
721.93	252.81
722.27	252.68
722.60	252.52
722.93	252.32
723.26	252.13
723.59	251.86
723.93	251.70
724.26	251.51
724.59	251.22
724.92	251.04
725.25	251.04
725.59	250.80
725.92	250.68
726.25	250.55
726.58	250.33
726.91	250.09
727.24	249.93
727.57	249.72
727.91	249.48
728.24	249.29
728.57	248.99
728.90	248.93
729.23	248.57
729.56	248.55
729.89	248.38
730.22	248.15
730.55	247.99
730.89	247.81
731.22	247.62
731.55	247.50
731.88	247.35
732.21	247.09
732.54	246.90
732.87	246.74
733.20	246.60
733.53	246.47
733.86	246.40
734.19	246.24
734.52	246.16
734.85	246.35
735.18	246.15
735.51	246.22
735.84	246.06
736.17	246.09
736.50	245.74
736.83	246.07
737.16	245.96
737.49	245.80
737.82	245.64
738.15	245.53
738.48	245.35
738.81	245.14
739.14	244.98
739.47	244.84
739.80	244.65
740.13	244.49
740.46	244.24
740.79	244.00
741.12	243.82
741.45	243.56
741.78	243.07
742.11	242.99
742.44	242.65
742.77	242.52
743.10	242.21
743.43	242.02
743.75	241.37
744.08	241.85
744.41	241.73
744.74	241.54
745.07	241.38
745.40	241.34
745.73	241.47
746.06	241.25
746.39	241.24
746.71	241.11
747.04	240.86
747.37	240.71
747.70	240.61
748.03	240.47
748.36	240.42
748.68	240.37
749.01	240.10
749.34	239.99
749.67	239.85
750.00	239.92
750.33	240.11
750.65	240.07
750.98	239.38
751.31	239.21
751.64	239.09
751.97	239.16
752.29	239.01
752.62	238.64
752.95	238.63
753.28	238.44
753.60	238.27
753.93	238.29
754.26	238.31
754.59	238.08
754.91	237.97
755.24	237.87
755.57	237.74
755.90	237.67
756.22	237.59
756.55	237.46
756.88	237.16
757.20	236.82
757.53	236.61
757.86	236.57
758.19	236.57
758.51	236.56
758.84	236.31
759.17	236.21
759.49	236.22
759.82	236.34
760.15	236.30
760.47	236.21
760.80	236.10
761.13	236.00
761.45	235.94
761.78	235.85
762.11	235.73
762.43	235.58
762.76	235.47
763.08	235.46
763.41	235.45
763.74	235.48
764.06	235.42
764.39	235.38
764.71	235.27
765.04	235.14
765.37	234.97
765.69	234.90
766.02	234.81
766.34	234.72
766.67	234.41
767.00	234.42
767.32	234.59
767.65	234.77
767.97	234.69
768.30	234.68
768.62	234.67
768.95	234.55
769.27	234.49
769.60	234.56
769.92	234.34
770.25	234.15
770.57	233.92
770.90	233.77
771.22	233.64
771.55	233.51
771.87	233.47
772.20	233.41
772.52	233.75
772.85	234.28
773.17	234.13
773.50	234.11
773.82	233.99
774.15	233.78
774.47	233.46
774.80	233.29
775.12	233.23
775.45	233.07
775.77	233.09
776.09	233.01
776.42	232.93
776.74	233.11
777.07	233.05
777.39	233.12
777.72	233.10
778.04	233.15
778.36	233.10
778.69	233.03
779.01	233.02
779.33	232.49
779.66	231.90
779.98	231.90
780.31	231.85
780.63	231.99
780.95	232.01
781.28	231.95
781.60	231.93
781.92	231.85
782.25	231.90
782.57	231.82
782.89	231.81
783.22	231.70
783.54	231.53
783.86	231.56
784.19	231.44
784.51	231.56
784.83	231.42
785.16	231.37
785.48	231.41
785.80	231.46
786.12	231.47
786.45	231.43
786.77	231.48
787.09	231.42
787.42	231.23
787.74	231.20
788.06	231.20
788.38	231.17
788.71	231.09
789.03	230.96
789.35	231.02
789.67	230.86
789.99	230.89
790.32	230.78
790.64	230.73
790.96	231.15
791.28	230.95
791.61	230.96
791.93	231.00
792.25	230.96
792.57	231.20
792.89	231.11
793.21	231.08
793.54	230.97
793.86	230.88
794.18	230.80
794.50	230.73
794.82	230.68
795.14	230.71
795.47	230.82
795.79	230.88
796.11	230.73
796.43	230.76
796.75	230.75
797.07	230.77
797.39	230.73
797.71	230.27
798.04	230.22
798.36	230.19
798.68	230.15
799.00	230.12
799.32	229.89
799.64	229.96
799.96	229.93
800.28	229.96
800.60	229.91
800.92	229.95
801.24	229.80
801.56	229.86
801.89	229.74
802.21	229.74
802.53	229.61
802.85	229.65
803.17	229.81
803.49	229.68
803.81	229.66
804.13	229.59
804.45	229.60
804.77	229.60
805.09	229.59
805.41	229.54
805.73	229.50
806.05	229.30
806.37	229.23
806.69	229.15
807.01	229.13
807.33	229.16
807.65	229.01
807.97	229.29
808.28	229.21
808.60	229.22
808.92	229.10
809.24	229.44
809.56	229.45
809.88	229.31
810.20	229.28
810.52	229.32
810.84	229.32
811.16	229.23
811.48	229.22
811.80	229.36
812.12	229.34
812.43	229.33
812.75	229.36
813.07	229.28
813.39	229.34
813.71	229.21
814.03	229.09
814.35	229.12
814.67	228.87
814.98	228.78
815.30	228.76
815.62	228.71
815.94	228.36
816.26	228.52
816.58	228.52
816.89	228.56
817.21	228.45
817.53	228.49
817.85	228.56
818.17	228.57
818.48	228.34
818.80	228.44
819.12	228.39
819.44	228.36
819.76	228.37
820.07	228.42
820.39	228.43
820.71	228.59
821.03	228.60
821.34	228.57
821.66	228.72
821.98	228.76
822.30	228.80
822.61	229.04
822.93	228.84
823.25	228.78
823.57	228.76
823.88	228.84
824.20	228.79
824.52	228.79
824.83	228.72
825.15	228.70
825.47	228.61
825.79	228.59
826.10	228.59
826.42	228.53
826.74	228.47
827.05	228.50
827.37	228.47
827.69	228.34
828.00	228.38
828.32	228.29
828.64	228.24
828.95	228.42
829.27	228.39
829.58	228.32
829.90	228.36
830.22	228.34
830.53	228.18
830.85	228.11
831.17	227.98
831.48	227.94
831.80	227.96
832.11	227.93
832.43	227.94
832.75	227.89
833.06	228.21
833.38	228.09
833.69	227.96
834.01	227.95
834.32	228.05
834.64	227.92
834.96	227.96
835.27	227.90
835.59	227.71
835.90	227.59
836.22	227.58
836.53	227.49
836.85	227.44
837.16	227.99
837.48	228.02
837.79	228.21
838.11	228.24
838.42	228.23
838.74	228.27
839.05	228.19
839.37	228.11
839.68	227.73
840.00	227.75
840.31	227.85
840.63	227.79
840.94	227.69
841.26	227.66
841.57	227.58
841.88	227.67
842.20	227.60
842.51	227.43
842.83	227.46
843.14	227.94
843.46	227.93
843.77	227.62
844.08	227.50
844.40	227.33
844.71	227.31
845.03	227.23
845.34	227.20
845.65	227.20
845.97	227.26
846.28	227.33
846.60	227.35
846.91	227.25
847.22	227.19
847.54	227.27
847.85	227.35
848.16	227.36
848.48	227.28
848.79	227.50
849.10	227.60
849.42	227.68
849.73	227.19
850.04	227.16
850.36	227.01
850.67	227.16
850.98	227.15
851.30	227.17
851.61	227.23
851.92	227.14
852.23	227.33
852.55	227.27
852.86	227.33
853.17	227.35
853.49	227.37
853.80	227.55
854.11	227.62
854.42	227.63
854.74	227.61
855.05	227.60
855.36	227.38
855.67	227.38
855.99	227.35
856.30	227.81
856.61	227.83
856.92	227.81
857.23	227.78
857.55	227.73
857.86	227.72
858.17	227.79
858.48	227.77
858.79	227.66
859.11	227.81
859.42	227.75
859.73	227.71
860.04	227.78
860.35	227.60
860.66	227.43
860.98	227.47
861.29	227.60
861.60	227.59
861.91	227.70
862.22	227.67
862.53	227.58
862.84	227.11
863.16	227.22
863.47	227.17
863.78	227.21
864.09	227.23
864.40	227.20
864.71	227.16
865.02	227.28
865.33	227.13
865.64	227.03
865.95	227.07
866.27	227.33
866.58	227.28
866.89	227.41
867.20	227.39
867.51	227.22
867.82	227.07
868.13	227.27
868.44	227.14
868.75	227.23
869.06	227.27
869.37	227.29
869.68	227.18
869.99	227.27
870.30	227.22
870.61	227.39
870.92	227.34
871.23	227.29
871.54	227.33
871.85	227.43
872.16	227.51
872.47	227.30
872.78	227.04
873.09	227.10
873.40	226.94
873.71	227.08
874.02	227.16
874.33	227.20
874.64	227.03
874.95	227.07
875.26	226.87
875.56	226.84
875.87	226.83
876.18	226.80
876.49	227.23
876.80	227.20
877.11	226.98
877.42	227.03
877.73	227.01
878.04	226.91
878.35	226.98
878.66	226.89
878.96	226.97
879.27	226.99
879.58	226.94
879.89	227.00
880.20	227.05
880.51	227.00
880.82	227.03
881.12	227.05
881.43	227.00
881.74	227.04
882.05	227.04
882.36	227.06
882.67	227.13
882.97	226.62
883.28	226.60
883.59	226.64
883.90	226.74
884.21	226.83
884.51	226.76
884.82	226.65
885.13	226.65
885.44	226.73
885.74	226.69
886.05	226.68
886.36	226.69
886.67	226.50
886.98	226.79
887.28	226.78
887.59	226.75
887.90	226.78
888.20	226.74
888.51	226.79
888.82	226.71
889.13	226.66
889.43	227.09
889.74	227.04
890.05	227.04
890.35	226.88
890.66	226.75
890.97	226.75
891.28	226.74
891.58	226.88
891.89	226.83
892.20	226.85
892.50	226.86
892.81	226.82
893.12	226.90
893.42	226.62
893.73	226.61
894.04	226.55
894.34	226.61
894.65	226.64
894.95	226.62
895.26	226.72
895.57	226.97
895.87	226.52
896.18	226.66
896.48	226.70
896.79	226.76
897.10	226.88
897.40	226.98
897.71	227.00
898.01	226.94
898.32	226.99
898.63	226.94
898.93	226.92
899.24	226.93
899.54	226.85
899.85	226.90
900.15	226.93
900.46	227.04
900.76	227.05
901.07	227.05
901.38	227.02
901.68	227.03
901.99	226.79
902.29	226.83
902.60	226.70
902.90	226.62
903.21	226.62
903.51	226.60
903.82	226.68
904.12	226.70
904.43	226.70
904.73	226.71
905.03	226.79
905.34	227.30
905.64	227.34
905.95	227.39
906.25	227.30
906.56	227.25
906.86	227.20
907.17	227.12
907.47	227.14
907.77	227.08
908.08	227.00
908.38	227.07
908.69	227.08
908.99	227.27
909.30	227.38
909.60	227.41
909.90	227.40
910.21	227.26
910.51	227.14
910.81	227.11
911.12	227.15
911.42	227.08
911.73	226.52
912.03	226.48
912.33	226.59
912.64	226.59
912.94	226.54
913.24	226.46
913.55	226.46
913.85	226.41
914.15	226.53
914.46	226.56
914.76	226.42
915.06	226.35
915.37	226.19
915.67	226.13
915.97	226.17
916.27	226.08
916.58	226.15
916.88	226.19
917.18	226.20
917.49	226.49
917.79	226.53
918.09	226.58
918.39	226.73
918.70	226.70
919.00	226.73
919.30	227.02
919.60	227.06
919.91	227.05
920.21	227.13
920.51	227.04
920.81	227.00
921.12	227.16
921.42	227.28
921.72	227.39
922.02	227.46
922.32	227.36
922.63	227.44
922.93	227.59
923.23	227.60
923.53	227.54
923.83	227.19
924.13	227.23
924.44	227.23
924.74	227.23
925.04	227.29
925.34	227.23
925.64	227.01
925.94	227.00
926.24	227.27
926.55	227.20
926.85	227.30
927.15	227.23
927.45	227.17
927.75	227.08
928.05	227.09
928.35	227.04
928.65	227.19
928.95	227.17
929.26	227.03
929.56	227.18
929.86	227.20
930.16	227.20
930.46	227.14
930.76	227.15
931.06	227.04
931.36	226.92
931.66	227.04
931.96	227.11
932.26	227.10
932.56	226.85
932.86	226.89
933.16	226.82
933.46	226.79
933.76	226.70
934.06	226.82
934.36	226.92
934.66	226.85
934.96	226.81
935.26	226.87
935.56	226.92
935.86	226.78
936.16	226.75
936.46	226.74
936.76	226.70
937.06	226.66
937.36	226.67
937.66	226.68
937.96	226.65
938.26	226.51
938.56	226.51
938.86	226.57
939.16	226.71
939.46	226.75
939.76	226.81
940.06	226.83
940.35	226.68
940.65	226.44
940.95	226.51
941.25	226.37
941.55	226.31
941.85	226.25
942.15	226.38
942.45	226.45
942.75	226.43
943.04	226.49
943.34	226.57
943.64	226.51
943.94	226.45
944.24	226.41
944.54	226.49
944.84	226.46
945.13	226.36
945.43	226.25
945.73	226.24
946.03	226.20
946.33	226.23
946.62	226.17
946.92	226.20
947.22	226.27
947.52	226.34
947.82	226.36
948.11	226.32
948.41	226.17
948.71	226.03
949.01	226.06
949.31	226.00
949.60	225.99
949.90	226.10
950.20	226.07
950.50	226.10
950.79	226.03
951.09	226.12
951.39	226.17
951.69	226.07
951.98	226.14
952.28	226.19
952.58	226.18
952.87	226.25
953.17	226.25
953.47	226.21
953.76	226.20
954.06	226.18
954.36	226.15
954.66	226.21
954.95	226.40
955.25	226.45
955.55	226.54
955.84	226.47
956.14	226.49
956.44	226.51
956.73	226.46
957.03	226.55
957.32	226.51
957.62	226.49
957.92	226.63
958.21	226.62
958.51	227.18
958.81	227.21
959.10	227.24
959.40	227.43
959.69	227.36
959.99	227.33
960.29	227.34
960.58	227.29
960.88	227.43
961.17	227.32
961.47	227.31
961.76	227.23
962.06	227.26
962.36	227.24
962.65	227.23
962.95	227.24
963.24	227.12
963.54	227.16
963.83	227.16
964.13	227.15
964.42	227.00
964.72	226.57
965.01	226.55
965.31	226.52
965.60	226.37
965.90	226.68
966.19	226.64
966.49	226.66
966.78	226.60
967.08	226.55
967.37	226.57
967.67	226.46
967.96	226.54
968.26	226.46
968.55	226.47
968.85	226.59
969.14	226.57
969.43	226.65
969.73	226.61
970.02	226.57
970.32	226.56
970.61	226.53
970.91	226.44
971.20	226.41
971.49	226.40
971.79	226.43
972.08	226.12
972.38	226.14
972.67	226.17
972.96	226.30
973.26	226.18
973.55	226.29
973.85	226.29
974.14	226.19
974.43	226.29
974.73	226.17
975.02	226.05
975.31	226.07
975.61	226.02
975.90	226.00
976.19	225.95
976.49	225.93
976.78	225.99
977.07	225.93
977.37	225.91
977.66	225.91
977.95	225.81
978.24	225.92
978.54	225.99
978.83	225.89
979.12	225.82
979.42	225.83
979.71	225.73
980.00	225.71
980.29	225.74
980.59	225.62
980.88	225.78
981.17	225.77
981.46	225.81
981.76	225.83
982.05	225.97
982.34	226.02
982.63	226.02
982.93	226.04
983.22	226.24
983.51	226.28
983.80	226.37
984.09	226.45
984.39	226.32
984.68	226.26
984.97	226.30
985.26	226.30
985.55	226.35
985.85	226.31
986.14	226.41
986.43	226.46
986.72	226.47
987.01	226.28
987.30	226.34
987.59	226.31
987.89	226.29
988.18	226.09
988.47	226.05
988.76	226.03
989.05	226.03
989.34	225.93
989.63	226.00
989.92	225.90
990.22	225.83
990.51	225.84
990.80	225.83
991.09	225.85
991.38	225.87
991.67	225.80
991.96	225.78
992.25	225.77
992.54	225.65
992.83	225.69
993.12	225.69
993.41	225.66
993.70	225.80
993.99	225.92
994.28	225.98
994.58	226.00
994.87	225.88
995.16	225.81
995.45	225.75
995.74	225.61
996.03	225.75
996.32	225.82
996.61	225.91
996.90	225.93
997.19	225.93
997.48	225.93
997.77	225.89
998.06	225.93
998.34	225.89
998.63	226.00
998.92	226.02
999.21	226.16
999.50	226.21
999.79	226.07
1000.08	226.08
1000.37	226.14
1000.66	226.16
1000.95	226.36
1001.24	226.41
1001.53	226.53
1001.82	226.54
1002.11	226.38
1002.40	226.46
1002.68	226.69
1002.97	227.10
1003.26	227.05
1003.55	226.98
1003.84	227.05
1004.13	227.22
1004.42	227.22
1004.71	227.16
1004.99	227.14
1005.28	227.25
1005.57	227.25
1005.86	227.24
1006.15	227.20
1006.44	227.10
1006.72	227.19
1007.01	227.07
1007.30	227.04
1007.59	226.86
1007.88	226.88
1008.17	226.92
1008.45	226.80
1008.74	226.42
1009.03	226.11
1009.32	226.11
1009.60	226.16
1009.89	226.11
1010.18	225.88
1010.47	225.86
1010.76	225.90
1011.04	225.90
1011.33	225.85
1011.62	225.87
1011.91	225.83
1012.19	225.75
1012.48	225.78
1012.77	225.69
1013.05	225.97
1013.34	226.05
1013.63	226.12
1013.92	226.16
1014.20	226.14
1014.49	226.19
1014.78	226.40
1015.06	226.22
1015.35	226.29
1015.64	226.38
1015.92	226.45
1016.21	226.50
1016.50	226.52
1016.78	226.58
1017.07	226.61
1017.36	226.50
1017.64	226.42
1017.93	226.50
1018.22	226.50
1018.50	226.47
1018.79	226.51
1019.08	226.22
1019.36	226.17
1019.65	226.16
1019.93	226.28
1020.22	226.31
1020.51	226.55
1020.79	226.38
1021.08	225.10
1021.36	225.10
1021.65	226.55
1021.94	225.35
1022.22	225.70
1022.51	226.10
1022.79	228.50
1023.08	226.05
1023.36	232.00
1023.65	224.55
>>>>>End Processed Spectral Data<<<<<
