SpectraSuite Data File
++++++++++++++++++++++++++++++++++++
Date: Wed Sep 04 17:45:40 EDT 2013
User: lab3
Dark Spectrum Present: Yes
Reference Spectrum Present: No
Number of Sampled Component Spectra: 1
Spectrometers: USB2E7196
Integration Time (usec): 170000 (USB2E7196)
Spectra Averaged: 20 (USB2E7196)
Boxcar Smoothing: 10 (USB2E7196)
Correct for Electrical Dark: No (USB2E7196)
Strobe/Lamp Enabled: No (USB2E7196)
Correct for Detector Non-linearity: No (USB2E7196)
Correct for Stray Light: No (USB2E7196)
Number of Pixels in Processed Spectrum: 2048
>>>>>Begin Processed Spectral Data<<<<<
339.09	0.00
339.48	212.80
339.86	212.80
340.24	216.00
340.63	216.60
341.01	226.70
341.39	220.10
341.78	220.90
342.16	224.35
342.54	222.50
342.93	211.91
343.31	222.60
343.69	223.16
344.07	223.70
344.46	224.16
344.84	224.61
345.22	224.52
345.60	224.81
345.99	225.05
346.37	225.12
346.75	225.19
347.13	225.26
347.52	225.29
347.90	225.43
348.28	225.52
348.66	225.60
349.05	225.46
349.43	225.52
349.81	225.65
350.19	225.70
350.57	225.80
350.96	225.95
351.34	226.04
351.72	226.10
352.10	226.18
352.48	226.21
352.87	226.23
353.25	226.33
353.63	226.36
354.01	226.38
354.39	226.47
354.77	226.61
355.15	226.77
355.54	226.78
355.92	226.75
356.30	226.76
356.68	227.10
357.06	227.18
357.44	227.20
357.82	227.20
358.20	227.72
358.58	227.77
358.97	227.81
359.35	227.95
359.73	228.12
360.11	228.20
360.49	228.28
360.87	228.35
361.25	228.44
361.63	228.60
362.01	228.68
362.39	228.65
362.77	228.75
363.15	228.75
363.53	228.80
363.91	228.97
364.29	229.00
364.67	228.64
365.05	228.68
365.43	228.78
365.81	228.90
366.19	228.68
366.57	228.85
366.95	228.87
367.33	228.78
367.71	228.72
368.09	228.82
368.47	228.83
368.85	228.80
369.23	228.85
369.61	228.73
369.99	228.84
370.37	228.92
370.75	229.11
371.13	229.10
371.51	228.98
371.89	228.92
372.27	228.97
372.65	228.98
373.03	229.02
373.41	228.85
373.78	228.79
374.16	228.60
374.54	228.38
374.92	228.31
375.30	228.31
375.68	228.19
376.06	228.13
376.44	228.06
376.82	228.11
377.19	228.06
377.57	228.01
377.95	227.85
378.33	227.79
378.71	227.44
379.09	227.40
379.47	227.42
379.84	227.31
380.22	227.19
380.60	227.08
380.98	226.97
381.36	226.94
381.73	226.88
382.11	226.84
382.49	226.83
382.87	226.72
383.25	226.62
383.62	227.23
384.00	227.11
384.38	227.12
384.76	227.14
385.13	227.28
385.51	227.26
385.89	227.23
386.27	227.19
386.64	227.22
387.02	227.13
387.40	227.16
387.78	227.17
388.15	227.12
388.53	227.03
388.91	227.02
389.29	227.04
389.66	227.01
390.04	226.96
390.42	227.02
390.79	226.98
391.17	227.06
391.55	226.44
391.92	226.43
392.30	226.45
392.68	226.31
393.05	226.27
393.43	226.26
393.81	226.29
394.18	226.23
394.56	226.25
394.94	226.36
395.31	226.29
395.69	226.45
396.06	226.58
396.44	226.63
396.82	226.58
397.19	226.87
397.57	226.79
397.95	226.85
398.32	226.76
398.70	226.91
399.07	227.01
399.45	227.02
399.82	227.04
400.20	227.08
400.58	227.10
400.95	226.99
401.33	227.16
401.70	227.51
402.08	227.62
402.45	227.75
402.83	227.87
403.20	228.04
403.58	228.05
403.95	228.26
404.33	228.50
404.71	228.76
405.08	229.18
405.46	229.43
405.83	229.68
406.21	229.93
406.58	230.11
406.96	230.38
407.33	230.75
407.70	231.16
408.08	231.81
408.45	232.35
408.83	232.87
409.20	233.22
409.58	233.25
409.95	233.76
410.33	234.30
410.70	234.76
411.08	235.45
411.45	236.09
411.82	236.67
412.20	237.45
412.57	238.40
412.95	238.70
413.32	239.62
413.69	240.45
414.07	241.37
414.44	242.41
414.82	243.35
415.19	244.52
415.56	245.68
415.94	246.66
416.31	248.05
416.68	249.49
417.06	251.08
417.43	252.80
417.81	254.59
418.18	256.35
418.55	258.33
418.93	260.21
419.30	262.27
419.67	264.39
420.04	266.59
420.42	268.89
420.79	271.97
421.16	274.69
421.54	277.73
421.91	280.65
422.28	283.64
422.66	286.85
423.03	290.26
423.40	293.51
423.77	296.94
424.15	300.49
424.52	304.07
424.89	308.19
425.26	312.11
425.64	315.86
426.01	319.90
426.38	324.07
426.75	328.49
427.13	333.03
427.50	337.75
427.87	342.57
428.24	347.35
428.61	351.66
428.99	356.87
429.36	362.15
429.73	367.61
430.10	373.12
430.47	378.73
430.85	384.11
431.22	390.20
431.59	396.92
431.96	402.87
432.33	409.70
432.70	416.27
433.08	423.90
433.45	431.14
433.82	438.33
434.19	446.43
434.56	454.30
434.93	461.79
435.30	469.38
435.68	477.84
436.05	486.04
436.42	494.19
436.79	501.66
437.16	509.77
437.53	518.14
437.90	526.56
438.27	535.04
438.64	543.82
439.01	551.93
439.38	558.82
439.75	565.83
440.13	573.58
440.50	580.82
440.87	586.75
441.24	592.95
441.61	599.89
441.98	604.84
442.35	610.45
442.72	616.25
443.09	621.93
443.46	625.17
443.83	627.36
444.20	629.30
444.57	631.97
444.94	632.99
445.31	634.27
445.68	635.73
446.05	635.76
446.42	634.50
446.79	632.96
447.16	631.37
447.53	630.26
447.90	626.84
448.27	623.28
448.64	618.51
449.01	614.96
449.37	608.93
449.74	603.13
450.11	596.72
450.48	589.15
450.85	581.31
451.22	574.72
451.59	568.34
451.96	562.24
452.33	554.32
452.70	547.28
453.07	538.76
453.43	529.66
453.80	521.44
454.17	513.56
454.54	506.12
454.91	498.28
455.28	490.44
455.65	483.05
456.02	476.42
456.38	470.19
456.75	462.56
457.12	456.07
457.49	449.74
457.86	443.45
458.23	438.57
458.59	432.99
458.96	427.29
459.33	422.41
459.70	417.37
460.07	413.34
460.43	408.70
460.80	404.57
461.17	401.11
461.54	397.29
461.91	393.65
462.27	389.98
462.64	386.73
463.01	383.17
463.38	379.96
463.74	376.07
464.11	373.20
464.48	370.56
464.85	367.82
465.21	365.77
465.58	363.41
465.95	360.46
466.32	358.30
466.68	356.10
467.05	353.85
467.42	351.70
467.78	349.43
468.15	347.39
468.52	345.80
468.88	343.55
469.25	341.58
469.62	340.14
469.98	338.55
470.35	337.08
470.72	335.73
471.08	334.00
471.45	332.72
471.82	331.48
472.18	330.07
472.55	329.18
472.92	327.90
473.28	326.81
473.65	325.79
474.02	324.72
474.38	323.95
474.75	323.29
475.11	322.42
475.48	321.78
475.85	321.20
476.21	320.57
476.58	320.05
476.94	319.83
477.31	319.36
477.67	318.99
478.04	318.68
478.41	318.51
478.77	318.89
479.14	318.50
479.50	318.46
479.87	318.59
480.23	318.39
480.60	318.36
480.96	318.45
481.33	318.90
481.69	319.18
482.06	319.31
482.42	319.53
482.79	319.90
483.15	320.31
483.52	320.85
483.88	321.27
484.25	321.90
484.61	322.45
484.98	323.05
485.34	323.90
485.71	324.90
486.07	325.81
486.44	326.38
486.80	327.51
487.17	328.53
487.53	329.91
487.90	331.50
488.26	333.24
488.62	334.88
488.99	336.37
489.35	338.14
489.72	340.06
490.08	341.94
490.44	344.00
490.81	346.31
491.17	348.55
491.54	351.04
491.90	353.54
492.26	356.25
492.63	359.07
492.99	361.94
493.36	364.93
493.72	368.29
494.08	371.59
494.45	375.18
494.81	379.10
495.17	382.86
495.54	386.90
495.90	391.07
496.26	395.44
496.63	399.98
496.99	404.72
497.35	409.66
497.72	414.97
498.08	420.31
498.44	425.89
498.80	431.87
499.17	437.87
499.53	444.01
499.89	450.61
500.26	457.42
500.62	464.31
500.98	471.74
501.34	478.93
501.71	486.65
502.07	494.48
502.43	502.55
502.79	510.81
503.16	519.36
503.52	528.17
503.88	537.32
504.24	546.86
504.60	556.69
504.97	566.93
505.33	577.24
505.69	588.13
506.05	599.01
506.41	609.98
506.78	621.50
507.14	633.44
507.50	645.45
507.86	657.89
508.22	670.80
508.59	683.45
508.95	697.04
509.31	710.96
509.67	725.10
510.03	739.00
510.39	753.63
510.75	768.47
511.12	783.67
511.48	799.17
511.84	814.62
512.20	830.26
512.56	846.41
512.92	863.01
513.28	879.83
513.64	896.75
514.00	914.08
514.37	931.68
514.73	949.34
515.09	967.50
515.45	985.40
515.81	1003.42
516.17	1021.98
516.53	1040.46
516.89	1058.86
517.25	1077.91
517.61	1097.96
517.97	1117.77
518.33	1137.70
518.69	1157.33
519.05	1177.38
519.41	1197.69
519.77	1218.24
520.13	1238.49
520.49	1258.47
520.85	1278.71
521.21	1299.55
521.57	1320.24
521.93	1340.45
522.29	1361.20
522.65	1381.26
523.01	1402.01
523.37	1422.44
523.73	1443.05
524.09	1462.97
524.45	1483.31
524.81	1503.72
525.17	1523.72
525.53	1543.70
525.89	1563.96
526.25	1584.47
526.61	1604.21
526.97	1624.76
527.33	1645.72
527.68	1666.84
528.04	1687.82
528.40	1708.27
528.76	1728.90
529.12	1749.01
529.48	1769.37
529.84	1789.20
530.20	1809.95
530.56	1829.99
530.91	1850.20
531.27	1869.91
531.63	1889.84
531.99	1909.55
532.35	1928.93
532.71	1948.64
533.07	1968.73
533.42	1988.12
533.78	2007.17
534.14	2026.46
534.50	2044.88
534.86	2063.51
535.21	2080.51
535.57	2098.22
535.93	2115.31
536.29	2132.38
536.65	2149.76
537.00	2166.85
537.36	2183.91
537.72	2199.48
538.08	2216.04
538.44	2231.94
538.79	2247.61
539.15	2263.83
539.51	2279.66
539.87	2294.34
540.22	2307.76
540.58	2321.69
540.94	2333.94
541.29	2346.20
541.65	2358.42
542.01	2370.44
542.37	2380.12
542.72	2390.64
543.08	2400.78
543.44	2412.14
543.79	2421.38
544.15	2430.88
544.51	2440.34
544.87	2449.19
545.22	2457.46
545.58	2464.63
545.94	2471.24
546.29	2477.35
546.65	2482.50
547.01	2487.16
547.36	2492.34
547.72	2497.32
548.07	2500.81
548.43	2505.79
548.79	2510.00
549.14	2513.33
549.50	2516.76
549.86	2520.12
550.21	2523.09
550.57	2526.09
550.92	2526.86
551.28	2528.00
551.64	2529.59
551.99	2531.10
552.35	2532.29
552.70	2534.34
553.06	2535.55
553.41	2536.33
553.77	2537.79
554.13	2539.46
554.48	2540.85
554.84	2541.49
555.19	2542.49
555.55	2543.65
555.90	2542.82
556.26	2541.62
556.61	2539.94
556.97	2537.32
557.32	2536.64
557.68	2535.62
558.03	2533.66
558.39	2531.99
558.74	2530.61
559.10	2527.08
559.45	2523.06
559.81	2518.25
560.16	2512.47
560.52	2507.16
560.87	2502.76
561.23	2497.07
561.58	2490.88
561.94	2483.73
562.29	2476.61
562.64	2469.12
563.00	2460.40
563.35	2453.31
563.71	2446.55
564.06	2440.23
564.42	2433.73
564.77	2426.90
565.12	2419.22
565.48	2411.51
565.83	2403.43
566.19	2395.60
566.54	2387.97
566.89	2379.79
567.25	2372.14
567.60	2365.00
567.96	2357.74
568.31	2349.80
568.66	2341.25
569.02	2332.47
569.37	2324.46
569.72	2316.72
570.08	2307.62
570.43	2298.77
570.78	2289.93
571.14	2280.49
571.49	2270.24
571.84	2260.81
572.20	2249.85
572.55	2239.95
572.90	2229.16
573.26	2218.96
573.61	2208.07
573.96	2197.02
574.31	2185.43
574.67	2174.00
575.02	2161.61
575.37	2149.19
575.72	2136.30
576.08	2124.71
576.43	2112.28
576.78	2099.00
577.13	2085.53
577.49	2073.11
577.84	2061.43
578.19	2049.24
578.54	2036.86
578.90	2025.15
579.25	2012.81
579.60	2000.80
579.95	1988.11
580.30	1975.40
580.66	1962.24
581.01	1948.81
581.36	1935.37
581.71	1923.07
582.06	1910.30
582.42	1898.30
582.77	1886.02
583.12	1874.20
583.47	1861.92
583.82	1850.29
584.17	1838.92
584.53	1827.60
584.88	1815.33
585.23	1802.69
585.58	1789.53
585.93	1776.98
586.28	1764.14
586.63	1750.90
586.98	1737.07
587.34	1724.16
587.69	1711.23
588.04	1699.20
588.39	1687.55
588.74	1675.45
589.09	1663.88
589.44	1651.62
589.79	1639.65
590.14	1627.95
590.49	1616.38
590.84	1605.02
591.19	1593.62
591.54	1581.90
591.89	1570.07
592.25	1559.93
592.60	1548.59
592.95	1537.52
593.30	1526.00
593.65	1514.46
594.00	1502.77
594.35	1493.42
594.70	1481.81
595.05	1470.96
595.40	1459.33
595.75	1447.83
596.10	1437.16
596.45	1425.80
596.80	1415.15
597.15	1404.01
597.50	1392.87
597.85	1382.03
598.19	1370.48
598.54	1359.14
598.89	1348.24
599.24	1337.92
599.59	1326.64
599.94	1316.36
600.29	1306.45
600.64	1296.49
600.99	1286.20
601.34	1276.93
601.69	1266.15
602.04	1256.96
602.39	1247.54
602.74	1238.73
603.08	1229.68
603.43	1220.70
603.78	1211.51
604.13	1202.46
604.48	1193.25
604.83	1183.71
605.18	1174.06
605.53	1165.10
605.87	1156.25
606.22	1148.30
606.57	1139.41
606.92	1130.59
607.27	1121.90
607.62	1113.39
607.96	1105.41
608.31	1097.86
608.66	1089.88
609.01	1081.55
609.36	1073.22
609.70	1065.17
610.05	1056.98
610.40	1048.85
610.75	1040.54
611.10	1032.46
611.44	1024.17
611.79	1016.23
612.14	1008.81
612.49	1001.32
612.83	994.05
613.18	986.46
613.53	978.74
613.88	971.14
614.22	963.78
614.57	956.11
614.92	948.58
615.27	941.07
615.61	933.50
615.96	926.16
616.31	919.00
616.65	912.22
617.00	904.99
617.35	898.06
617.70	891.22
618.04	884.41
618.39	877.65
618.74	871.50
619.08	865.00
619.43	858.22
619.78	851.47
620.12	844.41
620.47	837.77
620.82	830.81
621.16	824.34
621.51	818.12
621.85	812.06
622.20	805.66
622.55	799.26
622.89	793.17
623.24	787.09
623.59	781.09
623.93	774.94
624.28	769.32
624.62	764.05
624.97	758.60
625.32	753.05
625.66	747.28
626.01	741.40
626.35	736.08
626.70	730.83
627.04	725.69
627.39	720.48
627.73	715.60
628.08	710.81
628.43	705.54
628.77	700.31
629.12	695.43
629.46	690.84
629.81	686.32
630.15	681.80
630.50	677.09
630.84	672.28
631.19	667.84
631.53	663.33
631.88	658.22
632.22	653.45
632.57	649.08
632.91	644.78
633.26	640.68
633.60	636.27
633.95	631.89
634.29	627.39
634.64	623.35
634.98	618.58
635.32	614.26
635.67	610.51
636.01	606.56
636.36	602.20
636.70	598.25
637.05	594.23
637.39	590.18
637.73	586.35
638.08	582.57
638.42	578.48
638.77	574.30
639.11	570.16
639.45	566.02
639.80	561.84
640.14	557.91
640.49	553.91
640.83	550.14
641.17	546.64
641.52	543.18
641.86	539.57
642.20	536.69
642.55	533.27
642.89	529.63
643.23	526.15
643.58	523.15
643.92	519.55
644.26	516.18
644.61	513.09
644.95	509.78
645.29	506.48
645.64	503.48
645.98	500.48
646.32	497.69
646.66	494.70
647.01	491.82
647.35	489.26
647.69	486.47
648.04	483.83
648.38	480.90
648.72	478.13
649.06	475.29
649.41	472.20
649.75	469.34
650.09	466.58
650.43	463.90
650.78	461.11
651.12	458.46
651.46	455.89
651.80	453.30
652.14	450.75
652.49	448.35
652.83	445.85
653.17	443.39
653.51	440.80
653.85	438.65
654.20	436.44
654.54	433.83
654.88	431.43
655.22	429.38
655.56	427.12
655.90	424.80
656.25	422.59
656.59	420.47
656.93	418.44
657.27	416.43
657.61	414.09
657.95	411.95
658.29	409.89
658.64	407.94
658.98	405.77
659.32	403.64
659.66	401.51
660.00	399.53
660.34	397.58
660.68	395.63
661.02	393.53
661.36	391.48
661.70	389.63
662.05	387.81
662.39	385.79
662.73	384.18
663.07	382.66
663.41	380.83
663.75	379.03
664.09	377.15
664.43	375.28
664.77	373.66
665.11	372.00
665.45	370.45
665.79	368.75
666.13	367.07
666.47	365.37
666.81	363.71
667.15	361.95
667.49	360.59
667.83	359.29
668.17	357.87
668.51	356.51
668.85	355.15
669.19	353.96
669.53	352.39
669.87	350.78
670.21	349.28
670.55	347.95
670.89	346.85
671.23	345.58
671.57	344.35
671.91	343.09
672.25	341.72
672.58	340.46
672.92	339.08
673.26	337.98
673.60	336.95
673.94	335.89
674.28	334.92
674.62	333.73
674.96	332.46
675.30	331.27
675.64	330.12
675.97	328.98
676.31	327.63
676.65	326.54
676.99	325.67
677.33	324.52
677.67	323.50
678.01	322.26
678.34	321.22
678.68	320.35
679.02	319.30
679.36	318.40
679.70	317.43
680.04	316.55
680.37	315.60
680.71	314.64
681.05	313.81
681.39	312.89
681.73	311.97
682.06	311.10
682.40	310.28
682.74	309.42
683.08	308.70
683.42	307.90
683.75	307.04
684.09	306.06
684.43	305.23
684.77	304.43
685.10	303.66
685.44	302.92
685.78	302.03
686.12	301.31
686.45	300.50
686.79	299.70
687.13	299.08
687.46	298.28
687.80	297.61
688.14	296.69
688.48	295.90
688.81	295.06
689.15	294.41
689.49	293.74
689.82	293.15
690.16	292.32
690.50	291.68
690.83	291.08
691.17	290.29
691.51	289.68
691.84	289.08
692.18	288.37
692.52	287.62
692.85	287.11
693.19	286.79
693.52	286.20
693.86	285.54
694.20	284.83
694.53	284.23
694.87	283.56
695.21	283.03
695.54	282.51
695.88	281.94
696.21	281.21
696.55	280.60
696.88	280.03
697.22	279.35
697.56	278.83
697.89	278.17
698.23	277.81
698.56	277.25
698.90	276.75
699.23	276.30
699.57	275.87
699.90	275.29
700.24	274.61
700.58	274.18
700.91	273.80
701.25	273.74
701.58	273.67
701.92	273.34
702.25	272.89
702.59	272.40
702.92	272.04
703.26	271.68
703.59	271.22
703.93	271.14
704.26	270.84
704.60	270.48
704.93	270.17
705.26	269.64
705.60	269.30
705.93	268.76
706.27	268.41
706.60	268.13
706.94	267.93
707.27	267.43
707.61	267.13
707.94	266.75
708.27	265.92
708.61	265.17
708.94	264.72
709.28	264.35
709.61	263.87
709.94	263.53
710.28	263.20
710.61	262.94
710.95	262.15
711.28	262.06
711.61	261.59
711.95	261.39
712.28	261.06
712.61	260.70
712.95	260.77
713.28	260.63
713.61	260.21
713.95	259.74
714.28	259.45
714.61	259.01
714.95	258.58
715.28	258.25
715.61	257.88
715.95	257.62
716.28	257.29
716.61	257.10
716.95	256.74
717.28	256.42
717.61	256.09
717.94	255.73
718.28	255.04
718.61	254.80
718.94	254.39
719.27	254.15
719.61	253.97
719.94	253.52
720.27	253.03
720.60	252.73
720.94	252.41
721.27	252.19
721.60	251.99
721.93	251.84
722.27	251.74
722.60	251.65
722.93	251.39
723.26	251.23
723.59	250.94
723.93	250.76
724.26	250.59
724.59	250.34
724.92	250.23
725.25	250.23
725.59	249.95
725.92	249.85
726.25	249.63
726.58	249.40
726.91	249.09
727.24	248.99
727.57	248.83
727.91	248.62
728.24	248.61
728.57	248.39
728.90	248.19
729.23	247.95
729.56	247.95
729.89	247.68
730.22	247.44
730.55	247.32
730.89	247.16
731.22	246.91
731.55	246.74
731.88	246.61
732.21	246.32
732.54	246.18
732.87	245.93
733.20	245.76
733.53	245.59
733.86	245.56
734.19	245.32
734.52	245.22
734.85	245.32
735.18	244.97
735.51	245.01
735.84	244.93
736.17	244.93
736.50	244.44
736.83	244.96
737.16	244.80
737.49	244.58
737.82	244.44
738.15	244.36
738.48	244.24
738.81	244.03
739.14	243.91
739.47	243.78
739.80	243.61
740.13	243.51
740.46	243.22
740.79	242.90
741.12	242.81
741.45	242.55
741.78	242.24
742.11	242.29
742.44	241.95
742.77	241.85
743.10	241.52
743.43	241.45
743.75	240.77
744.08	241.31
744.41	241.22
744.74	241.05
745.07	240.79
745.40	240.75
745.73	240.85
746.06	240.67
746.39	240.52
746.71	240.42
747.04	240.25
747.37	240.21
747.70	240.27
748.03	240.10
748.36	240.11
748.68	239.88
749.01	239.58
749.34	239.52
749.67	239.39
750.00	239.39
750.33	239.62
750.65	239.59
750.98	238.85
751.31	238.72
751.64	238.60
751.97	238.76
752.29	238.54
752.62	238.21
752.95	238.03
753.28	237.94
753.60	237.84
753.93	237.81
754.26	237.75
754.59	237.45
754.91	237.25
755.24	237.11
755.57	237.05
755.90	236.98
756.22	236.84
756.55	236.64
756.88	236.40
757.20	235.99
757.53	235.64
757.86	235.56
758.19	235.52
758.51	235.44
758.84	235.12
759.17	235.01
759.49	234.95
759.82	235.14
760.15	235.06
760.47	234.95
760.80	234.81
761.13	234.75
761.45	234.65
761.78	234.69
762.11	234.54
762.43	234.42
762.76	234.32
763.08	234.32
763.41	234.28
763.74	234.25
764.06	234.11
764.39	234.18
764.71	234.06
765.04	233.93
765.37	233.78
765.69	233.77
766.02	233.72
766.34	233.53
766.67	233.30
767.00	233.36
767.32	233.55
767.65	233.74
767.97	233.62
768.30	233.62
768.62	233.43
768.95	233.38
769.27	233.31
769.60	233.34
769.92	233.10
770.25	232.97
770.57	232.91
770.90	232.88
771.22	232.74
771.55	232.71
771.87	232.65
772.20	232.55
772.52	232.86
772.85	233.34
773.17	233.38
773.50	233.20
773.82	233.02
774.15	232.68
774.47	232.36
774.80	232.27
775.12	232.22
775.45	232.19
775.77	232.12
776.09	232.08
776.42	232.02
776.74	232.17
777.07	232.10
777.39	232.02
777.72	231.94
778.04	231.89
778.36	231.83
778.69	231.81
779.01	231.82
779.33	231.32
779.66	230.72
779.98	230.71
780.31	230.81
780.63	230.98
780.95	231.00
781.28	230.91
781.60	230.85
781.92	230.78
782.25	230.80
782.57	230.79
782.89	230.77
783.22	230.65
783.54	230.52
783.86	230.60
784.19	230.55
784.51	230.71
784.83	230.66
785.16	230.53
785.48	230.47
785.80	230.51
786.12	230.55
786.45	230.47
786.77	230.43
787.09	230.38
787.42	230.16
787.74	230.17
788.06	230.24
788.38	230.19
788.71	230.07
789.03	229.97
789.35	229.95
789.67	229.82
789.99	229.79
790.32	229.72
790.64	229.68
790.96	230.02
791.28	229.73
791.61	229.72
791.93	229.77
792.25	229.75
792.57	230.03
792.89	229.87
793.21	229.96
793.54	229.87
793.86	229.70
794.18	229.68
794.50	229.57
794.82	229.54
795.14	229.55
795.47	229.71
795.79	229.72
796.11	229.62
796.43	229.56
796.75	229.52
797.07	229.52
797.39	229.42
797.71	229.02
798.04	229.03
798.36	229.01
798.68	228.91
799.00	228.91
799.32	228.68
799.64	228.76
799.96	228.75
800.28	228.84
800.60	228.85
800.92	228.90
801.24	228.88
801.56	228.84
801.89	228.78
802.21	228.73
802.53	228.67
802.85	228.74
803.17	229.03
803.49	228.97
803.81	228.88
804.13	228.86
804.45	228.88
804.77	228.92
805.09	228.90
805.41	228.88
805.73	228.86
806.05	228.70
806.37	228.69
806.69	228.62
807.01	228.51
807.33	228.61
807.65	228.40
807.97	228.60
808.28	228.55
808.60	228.57
808.92	228.46
809.24	228.81
809.56	228.79
809.88	228.57
810.20	228.58
810.52	228.64
810.84	228.55
811.16	228.50
811.48	228.45
811.80	228.65
812.12	228.65
812.43	228.65
812.75	228.70
813.07	228.63
813.39	228.61
813.71	228.58
814.03	228.50
814.35	228.52
814.67	228.35
814.98	228.31
815.30	228.34
815.62	228.31
815.94	227.96
816.26	228.19
816.58	228.09
816.89	228.14
817.21	228.05
817.53	228.08
817.85	228.08
818.17	228.08
818.48	227.82
818.80	227.88
819.12	227.82
819.44	227.70
819.76	227.67
820.07	227.70
820.39	227.69
820.71	227.64
821.03	227.72
821.34	227.66
821.66	227.67
821.98	227.63
822.30	227.52
822.61	227.82
822.93	227.49
823.25	227.45
823.57	227.39
823.88	227.47
824.20	227.51
824.52	227.54
824.83	227.58
825.15	227.52
825.47	227.47
825.79	227.51
826.10	227.53
826.42	227.46
826.74	227.47
827.05	227.45
827.37	227.51
827.69	227.39
828.00	227.36
828.32	227.38
828.64	227.33
828.95	227.64
829.27	227.44
829.58	227.46
829.90	227.57
830.22	227.56
830.53	227.45
830.85	227.33
831.17	227.23
831.48	227.16
831.80	227.18
832.11	227.18
832.43	227.06
832.75	227.02
833.06	227.37
833.38	227.16
833.69	227.11
834.01	227.10
834.32	227.07
834.64	227.00
834.96	227.03
835.27	227.08
835.59	226.86
835.90	226.71
836.22	226.66
836.53	226.52
836.85	226.45
837.16	226.99
837.48	226.99
837.79	227.09
838.11	227.11
838.42	227.05
838.74	227.15
839.05	227.13
839.37	227.10
839.68	226.74
840.00	226.73
840.31	226.82
840.63	226.71
840.94	226.71
841.26	226.78
841.57	226.70
841.88	226.68
842.20	226.65
842.51	226.65
842.83	226.63
843.14	227.13
843.46	227.20
843.77	226.91
844.08	226.95
844.40	226.83
844.71	226.78
845.03	226.77
845.34	226.68
845.65	226.68
845.97	226.66
846.28	226.67
846.60	226.71
846.91	226.60
847.22	226.57
847.54	226.66
847.85	226.62
848.16	226.58
848.48	226.50
848.79	226.70
849.10	226.70
849.42	226.75
849.73	226.29
850.04	226.24
850.36	226.09
850.67	226.12
850.98	226.15
851.30	226.23
851.61	226.28
851.92	226.31
852.23	226.50
852.55	226.60
852.86	226.67
853.17	226.79
853.49	226.93
853.80	227.13
854.11	227.15
854.42	227.20
854.74	227.13
855.05	227.14
855.36	226.88
855.67	226.96
855.99	227.00
856.30	227.59
856.61	227.57
856.92	227.47
857.23	227.38
857.55	227.33
857.86	227.28
858.17	227.29
858.48	227.24
858.79	227.09
859.11	227.08
859.42	227.06
859.73	227.03
860.04	227.03
860.35	226.84
860.66	226.71
860.98	226.68
861.29	226.76
861.60	226.75
861.91	226.87
862.22	226.78
862.53	226.72
862.84	226.14
863.16	226.23
863.47	226.19
863.78	226.22
864.09	226.29
864.40	226.34
864.71	226.31
865.02	226.40
865.33	226.33
865.64	226.23
865.95	226.24
866.27	226.45
866.58	226.39
866.89	226.45
867.20	226.45
867.51	226.38
867.82	226.30
868.13	226.41
868.44	226.30
868.75	226.38
869.06	226.35
869.37	226.39
869.68	226.22
869.99	226.30
870.30	226.33
870.61	226.32
870.92	226.23
871.23	226.20
871.54	226.19
871.85	226.31
872.16	226.38
872.47	226.27
872.78	226.00
873.09	226.00
873.40	225.86
873.71	225.80
874.02	225.87
874.33	225.88
874.64	225.79
874.95	225.80
875.26	225.70
875.56	225.64
875.87	225.54
876.18	225.53
876.49	225.99
876.80	225.85
877.11	225.80
877.42	225.83
877.73	225.86
878.04	225.75
878.35	225.75
878.66	225.76
878.96	225.77
879.27	225.77
879.58	225.75
879.89	225.74
880.20	225.95
880.51	225.92
880.82	225.89
881.12	225.92
881.43	225.86
881.74	225.79
882.05	225.80
882.36	225.93
882.67	226.00
882.97	225.47
883.28	225.52
883.59	225.48
883.90	225.47
884.21	225.50
884.51	225.50
884.82	225.42
885.13	225.40
885.44	225.35
885.74	225.31
886.05	225.34
886.36	225.41
886.67	225.20
886.98	225.35
887.28	225.39
887.59	225.43
887.90	225.52
888.20	225.45
888.51	225.57
888.82	225.42
889.13	225.47
889.43	225.85
889.74	225.88
890.05	225.93
890.35	225.89
890.66	225.92
890.97	225.89
891.28	225.83
891.58	225.88
891.89	225.89
892.20	225.91
892.50	225.83
892.81	225.87
893.12	225.97
893.42	225.81
893.73	225.88
894.04	225.89
894.34	225.94
894.65	226.07
894.95	225.97
895.26	226.07
895.57	226.29
895.87	225.97
896.18	226.08
896.48	226.10
896.79	226.22
897.10	226.27
897.40	226.38
897.71	226.45
898.01	226.41
898.32	226.48
898.63	226.48
898.93	226.57
899.24	226.62
899.54	226.58
899.85	226.69
900.15	226.72
900.46	226.73
900.76	226.73
901.07	226.72
901.38	226.82
901.68	226.96
901.99	226.77
902.29	226.76
902.60	226.72
902.90	226.69
903.21	226.65
903.51	226.56
903.82	226.57
904.12	226.68
904.43	226.71
904.73	226.78
905.03	226.75
905.34	227.18
905.64	227.07
905.95	227.11
906.25	226.97
906.56	226.88
906.86	226.90
907.17	226.90
907.47	226.90
907.77	226.78
908.08	226.62
908.38	226.65
908.69	226.74
908.99	226.77
909.30	226.81
909.60	226.84
909.90	226.88
910.21	226.83
910.51	226.74
910.81	226.72
911.12	226.74
911.42	226.82
911.73	226.28
912.03	226.39
912.33	226.39
912.64	226.45
912.94	226.41
913.24	226.27
913.55	226.20
913.85	226.19
914.15	226.28
914.46	226.34
914.76	226.23
915.06	226.15
915.37	226.05
915.67	226.05
915.97	225.98
916.27	225.89
916.58	225.85
916.88	225.82
917.18	225.76
917.49	226.10
917.79	226.03
918.09	226.15
918.39	226.29
918.70	226.25
919.00	226.21
919.30	226.48
919.60	226.46
919.91	226.42
920.21	226.45
920.51	226.32
920.81	226.28
921.12	226.42
921.42	226.39
921.72	226.41
922.02	226.35
922.32	226.49
922.63	226.54
922.93	226.79
923.23	226.82
923.53	226.88
923.83	226.54
924.13	226.67
924.44	226.66
924.74	226.69
925.04	226.83
925.34	226.87
925.64	226.66
925.94	226.65
926.24	226.87
926.55	226.76
926.85	226.84
927.15	226.78
927.45	226.74
927.75	226.79
928.05	226.78
928.35	226.79
928.65	226.74
928.95	226.80
929.26	226.61
929.56	226.60
929.86	226.63
930.16	226.51
930.46	226.45
930.76	226.46
931.06	226.22
931.36	226.16
931.66	226.21
931.96	226.27
932.26	226.34
932.56	226.24
932.86	226.29
933.16	226.34
933.46	226.37
933.76	226.33
934.06	226.35
934.36	226.59
934.66	226.53
934.96	226.55
935.26	226.50
935.56	226.55
935.86	226.53
936.16	226.42
936.46	226.45
936.76	226.42
937.06	226.38
937.36	226.40
937.66	226.35
937.96	226.29
938.26	226.17
938.56	226.16
938.86	226.16
939.16	226.28
939.46	226.25
939.76	226.26
940.06	226.22
940.35	226.18
940.65	225.88
940.95	225.89
941.25	225.78
941.55	225.74
941.85	225.73
942.15	225.85
942.45	225.99
942.75	225.92
943.04	225.86
943.34	225.94
943.64	225.93
943.94	225.85
944.24	225.86
944.54	225.88
944.84	225.82
945.13	225.73
945.43	225.69
945.73	225.65
946.03	225.57
946.33	225.54
946.62	225.41
946.92	225.40
947.22	225.48
947.52	225.45
947.82	225.46
948.11	225.33
948.41	225.18
948.71	225.04
949.01	225.12
949.31	225.09
949.60	224.99
949.90	225.00
950.20	225.01
950.50	225.03
950.79	225.02
951.09	225.13
951.39	225.12
951.69	225.00
951.98	225.11
952.28	225.18
952.58	225.15
952.87	225.18
953.17	225.24
953.47	225.16
953.76	225.21
954.06	225.15
954.36	225.10
954.66	225.09
954.95	225.19
955.25	225.21
955.55	225.36
955.84	225.25
956.14	225.27
956.44	225.30
956.73	225.20
957.03	225.24
957.32	225.18
957.62	225.16
957.92	225.31
958.21	225.24
958.51	225.78
958.81	225.84
959.10	225.95
959.40	226.08
959.69	226.11
959.99	226.11
960.29	226.13
960.58	226.10
960.88	226.27
961.17	226.18
961.47	226.21
961.76	226.09
962.06	226.18
962.36	226.13
962.65	226.15
962.95	226.16
963.24	226.14
963.54	226.16
963.83	226.16
964.13	226.13
964.42	226.06
964.72	225.67
965.01	225.71
965.31	225.71
965.60	225.54
965.90	225.80
966.19	225.77
966.49	225.77
966.78	225.80
967.08	225.73
967.37	225.88
967.67	225.79
967.96	225.91
968.26	225.97
968.55	226.10
968.85	226.03
969.14	226.09
969.43	226.08
969.73	226.05
970.02	226.06
970.32	226.01
970.61	225.96
970.91	225.84
971.20	225.73
971.49	225.61
971.79	225.68
972.08	225.29
972.38	225.27
972.67	225.27
972.96	225.32
973.26	225.23
973.55	225.31
973.85	225.41
974.14	225.32
974.43	225.26
974.73	225.13
975.02	225.08
975.31	225.04
975.61	225.08
975.90	224.93
976.19	224.92
976.49	224.99
976.78	225.05
977.07	225.07
977.37	225.09
977.66	225.17
977.95	225.11
978.24	225.26
978.54	225.39
978.83	225.44
979.12	225.45
979.42	225.54
979.71	225.43
980.00	225.30
980.29	225.34
980.59	225.25
980.88	225.34
981.17	225.34
981.46	225.39
981.76	225.45
982.05	225.67
982.34	225.76
982.63	225.74
982.93	225.72
983.22	225.85
983.51	225.87
983.80	225.90
984.09	225.96
984.39	225.91
984.68	225.84
984.97	225.83
985.26	225.67
985.55	225.67
985.85	225.51
986.14	225.65
986.43	225.67
986.72	225.70
987.01	225.54
987.30	225.61
987.59	225.54
987.89	225.47
988.18	225.30
988.47	225.18
988.76	225.12
989.05	225.04
989.34	224.92
989.63	225.05
989.92	225.02
990.22	224.99
990.51	224.95
990.80	224.90
991.09	224.93
991.38	225.13
991.67	225.06
991.96	225.06
992.25	225.09
992.54	224.99
992.83	225.06
993.12	225.12
993.41	225.15
993.70	225.37
993.99	225.39
994.28	225.47
994.58	225.54
994.87	225.52
995.16	225.61
995.45	225.55
995.74	225.38
996.03	225.44
996.32	225.52
996.61	225.71
996.90	225.70
997.19	225.69
997.48	225.65
997.77	225.59
998.06	225.66
998.34	225.63
998.63	225.68
998.92	225.67
999.21	225.70
999.50	225.74
999.79	225.59
1000.08	225.59
1000.37	225.71
1000.66	225.68
1000.95	225.75
1001.24	225.75
1001.53	225.82
1001.82	225.83
1002.11	225.65
1002.40	225.71
1002.68	225.78
1002.97	226.15
1003.26	226.11
1003.55	226.02
1003.84	226.18
1004.13	226.35
1004.42	226.25
1004.71	226.20
1004.99	226.21
1005.28	226.36
1005.57	226.31
1005.86	226.23
1006.15	226.23
1006.44	226.09
1006.72	226.09
1007.01	226.04
1007.30	226.08
1007.59	226.05
1007.88	226.04
1008.17	226.12
1008.45	225.95
1008.74	225.72
1009.03	225.46
1009.32	225.47
1009.60	225.51
1009.89	225.43
1010.18	225.19
1010.47	225.19
1010.76	225.22
1011.04	225.17
1011.33	225.20
1011.62	225.22
1011.91	225.23
1012.19	225.31
1012.48	225.32
1012.77	225.32
1013.05	225.55
1013.34	225.53
1013.63	225.51
1013.92	225.61
1014.20	225.61
1014.49	225.70
1014.78	225.71
1015.06	225.57
1015.35	225.56
1015.64	225.63
1015.92	225.65
1016.21	225.68
1016.50	225.72
1016.78	225.80
1017.07	225.82
1017.36	225.68
1017.64	225.63
1017.93	225.71
1018.22	225.63
1018.50	225.62
1018.79	225.63
1019.08	225.37
1019.36	225.40
1019.65	225.39
1019.93	225.41
1020.22	225.51
1020.51	225.73
1020.79	225.68
1021.08	225.30
1021.36	224.55
1021.65	225.55
1021.94	224.90
1022.22	225.80
1022.51	225.00
1022.79	226.60
1023.08	226.60
1023.36	231.35
1023.65	223.85
>>>>>End Processed Spectral Data<<<<<
