SpectraSuite Data File
++++++++++++++++++++++++++++++++++++
Date: Wed Sep 04 17:57:44 EDT 2013
User: lab3
Dark Spectrum Present: Yes
Reference Spectrum Present: No
Number of Sampled Component Spectra: 1
Spectrometers: USB2E7196
Integration Time (usec): 170000 (USB2E7196)
Spectra Averaged: 20 (USB2E7196)
Boxcar Smoothing: 10 (USB2E7196)
Correct for Electrical Dark: No (USB2E7196)
Strobe/Lamp Enabled: No (USB2E7196)
Correct for Detector Non-linearity: No (USB2E7196)
Correct for Stray Light: No (USB2E7196)
Number of Pixels in Processed Spectrum: 2048
>>>>>Begin Processed Spectral Data<<<<<
339.09	0.00
339.48	213.80
339.86	214.65
340.24	216.25
340.63	217.00
341.01	225.40
341.39	220.40
341.78	223.40
342.16	224.45
342.54	223.75
342.93	212.54
343.31	223.31
343.69	223.86
344.07	224.35
344.46	224.84
344.84	225.28
345.22	225.30
345.60	225.57
345.99	225.65
346.37	225.80
346.75	225.94
347.13	226.19
347.52	226.21
347.90	226.45
348.28	226.50
348.66	226.58
349.05	226.50
349.43	226.65
349.81	226.74
350.19	226.74
350.57	226.70
350.96	226.82
351.34	226.87
351.72	226.87
352.10	227.00
352.48	227.04
352.87	227.07
353.25	227.15
353.63	227.17
354.01	227.28
354.39	227.36
354.77	227.41
355.15	227.55
355.54	227.60
355.92	227.51
356.30	227.63
356.68	227.90
357.06	227.97
357.44	227.86
357.82	227.86
358.20	228.37
358.58	228.46
358.97	228.55
359.35	228.72
359.73	229.02
360.11	229.08
360.49	229.14
360.87	229.24
361.25	229.31
361.63	229.56
362.01	229.61
362.39	229.57
362.77	229.65
363.15	229.65
363.53	229.70
363.91	229.75
364.29	229.71
364.67	229.34
365.05	229.37
365.43	229.54
365.81	229.67
366.19	229.51
366.57	229.74
366.95	229.77
367.33	229.66
367.71	229.53
368.09	229.60
368.47	229.59
368.85	229.57
369.23	229.67
369.61	229.46
369.99	229.62
370.37	229.69
370.75	229.80
371.13	229.69
371.51	229.61
371.89	229.62
372.27	229.70
372.65	229.74
373.03	229.67
373.41	229.59
373.78	229.49
374.16	229.22
374.54	229.05
374.92	228.95
375.30	228.93
375.68	228.80
376.06	228.71
376.44	228.65
376.82	228.58
377.19	228.56
377.57	228.49
377.95	228.29
378.33	228.18
378.71	227.93
379.09	227.96
379.47	227.93
379.84	227.78
380.22	227.65
380.60	227.51
380.98	227.50
381.36	227.37
381.73	227.25
382.11	227.35
382.49	227.33
382.87	227.27
383.25	227.24
383.62	227.82
384.00	227.69
384.38	227.62
384.76	227.64
385.13	227.63
385.51	227.56
385.89	227.43
386.27	227.37
386.64	227.42
387.02	227.29
387.40	227.23
387.78	227.28
388.15	227.26
388.53	227.21
388.91	227.20
389.29	227.15
389.66	227.16
390.04	226.98
390.42	226.95
390.79	226.90
391.17	226.86
391.55	226.26
391.92	226.30
392.30	226.35
392.68	226.24
393.05	226.25
393.43	226.33
393.81	226.38
394.18	226.37
394.56	226.39
394.94	226.49
395.31	226.46
395.69	226.59
396.06	226.64
396.44	226.76
396.82	226.68
397.19	226.97
397.57	227.03
397.95	227.16
398.32	227.12
398.70	227.28
399.07	227.43
399.45	227.55
399.82	227.64
400.20	227.70
400.58	227.79
400.95	227.66
401.33	227.85
401.70	228.33
402.08	228.49
402.45	228.57
402.83	228.89
403.20	229.11
403.58	229.17
403.95	229.36
404.33	229.58
404.71	229.87
405.08	230.33
405.46	230.49
405.83	230.70
406.21	230.97
406.58	231.24
406.96	231.46
407.33	231.79
407.70	232.14
408.08	232.88
408.45	233.38
408.83	233.87
409.20	234.24
409.58	234.40
409.95	234.93
410.33	235.48
410.70	235.78
411.08	236.36
411.45	237.01
411.82	237.61
412.20	238.31
412.57	239.31
412.95	239.62
413.32	240.57
413.69	241.41
414.07	242.36
414.44	243.30
414.82	244.31
415.19	245.48
415.56	246.69
415.94	247.61
416.31	249.05
416.68	250.50
417.06	252.16
417.43	253.80
417.81	255.50
418.18	257.31
418.55	259.33
418.93	261.39
419.30	263.51
419.67	265.71
420.04	268.10
420.42	270.43
420.79	273.48
421.16	276.25
421.54	279.31
421.91	282.23
422.28	285.29
422.66	288.56
423.03	292.06
423.40	295.44
423.77	298.98
424.15	302.60
424.52	306.36
424.89	310.56
425.26	314.47
425.64	318.35
426.01	322.46
426.38	326.70
426.75	331.17
427.13	335.75
427.50	340.61
427.87	345.45
428.24	350.23
428.61	354.80
428.99	360.15
429.36	365.68
429.73	371.17
430.10	376.75
430.47	382.50
430.85	388.07
431.22	394.28
431.59	401.15
431.96	407.42
432.33	414.44
432.70	421.13
433.08	428.97
433.45	436.36
433.82	443.81
434.19	452.13
434.56	460.28
434.93	468.01
435.30	475.84
435.68	484.51
436.05	493.11
436.42	501.46
436.79	509.11
437.16	517.52
437.53	526.47
437.90	535.13
438.27	543.85
438.64	553.01
439.01	561.40
439.38	568.57
439.75	575.67
440.13	583.88
440.50	591.44
440.87	597.79
441.24	604.27
441.61	611.34
441.98	616.35
442.35	622.36
442.72	628.39
443.09	634.29
443.46	637.59
443.83	639.84
444.20	641.70
444.57	644.51
444.94	645.55
445.31	646.68
445.68	648.22
446.05	648.25
446.42	646.74
446.79	645.08
447.16	643.39
447.53	642.11
447.90	638.21
448.27	634.54
448.64	629.45
449.01	625.82
449.37	619.62
449.74	613.68
450.11	606.65
450.48	598.91
450.85	590.77
451.22	584.10
451.59	577.59
451.96	571.42
452.33	563.34
452.70	556.06
453.07	547.31
453.43	538.01
453.80	529.60
454.17	521.56
454.54	513.86
454.91	505.70
455.28	497.79
455.65	490.40
456.02	483.40
456.38	477.16
456.75	469.19
457.12	462.61
457.49	456.23
457.86	449.76
458.23	444.65
458.59	438.93
458.96	433.04
459.33	427.86
459.70	422.72
460.07	418.46
460.43	413.65
460.80	409.36
461.17	405.67
461.54	401.64
461.91	397.77
462.27	393.96
462.64	390.75
463.01	387.10
463.38	383.75
463.74	379.75
464.11	376.61
464.48	373.98
464.85	371.07
465.21	369.00
465.58	366.70
465.95	363.79
466.32	361.55
466.68	359.31
467.05	357.02
467.42	354.74
467.78	352.48
468.15	350.33
468.52	348.74
468.88	346.52
469.25	344.64
469.62	343.18
469.98	341.51
470.35	339.94
470.72	338.48
471.08	336.73
471.45	335.47
471.82	334.14
472.18	332.59
472.55	331.67
472.92	330.27
473.28	329.19
473.65	328.08
474.02	326.97
474.38	326.04
474.75	325.38
475.11	324.48
475.48	323.80
475.85	323.15
476.21	322.47
476.58	322.03
476.94	321.57
477.31	321.17
477.67	320.69
478.04	320.39
478.41	320.22
478.77	320.49
479.14	320.23
479.50	320.19
479.87	320.34
480.23	320.35
480.60	320.35
480.96	320.27
481.33	320.62
481.69	320.89
482.06	321.10
482.42	321.28
482.79	321.78
483.15	322.19
483.52	322.83
483.88	323.32
484.25	323.88
484.61	324.66
484.98	325.21
485.34	326.35
485.71	327.21
486.07	328.13
486.44	328.76
486.80	329.84
487.17	331.03
487.53	332.40
487.90	333.80
488.26	335.53
488.62	337.27
488.99	338.77
489.35	340.50
489.72	342.41
490.08	344.35
490.44	346.33
490.81	348.56
491.17	350.73
491.54	353.20
491.90	355.62
492.26	358.22
492.63	361.11
492.99	363.86
493.36	367.04
493.72	370.34
494.08	373.77
494.45	377.50
494.81	381.39
495.17	385.34
495.54	389.54
495.90	393.82
496.26	398.24
496.63	403.04
496.99	407.74
497.35	412.81
497.72	418.16
498.08	423.60
498.44	429.34
498.80	435.38
499.17	441.46
499.53	447.94
499.89	454.72
500.26	461.58
500.62	468.64
500.98	476.02
501.34	483.35
501.71	490.95
502.07	498.74
502.43	506.79
502.79	515.23
503.16	523.98
503.52	532.85
503.88	542.15
504.24	551.84
504.60	561.96
504.97	572.27
505.33	582.77
505.69	594.01
506.05	605.12
506.41	616.46
506.78	628.02
507.14	640.01
507.50	652.17
507.86	664.76
508.22	677.80
508.59	690.83
508.95	704.74
509.31	719.05
509.67	733.35
510.03	747.74
510.39	762.38
510.75	777.53
511.12	792.95
511.48	808.65
511.84	824.38
512.20	840.34
512.56	856.64
512.92	873.37
513.28	890.10
513.64	907.55
514.00	925.15
514.37	943.08
514.73	961.16
515.09	979.55
515.45	998.03
515.81	1016.43
516.17	1035.46
516.53	1054.13
516.89	1073.01
517.25	1092.57
517.61	1112.70
517.97	1133.12
518.33	1153.05
518.69	1173.26
519.05	1193.97
519.41	1214.59
519.77	1235.97
520.13	1256.80
520.49	1277.50
520.85	1299.90
521.21	1321.03
521.57	1342.35
521.93	1363.08
522.29	1384.39
522.65	1404.91
523.01	1426.00
523.37	1446.65
523.73	1467.59
524.09	1488.16
524.45	1508.88
524.81	1529.75
525.17	1550.76
525.53	1571.30
525.89	1592.20
526.25	1612.99
526.61	1633.33
526.97	1654.42
527.33	1675.35
527.68	1697.12
528.04	1718.40
528.40	1738.09
528.76	1759.16
529.12	1779.50
529.48	1800.48
529.84	1820.57
530.20	1841.85
530.56	1862.60
530.91	1883.87
531.27	1904.20
531.63	1924.94
531.99	1945.63
532.35	1965.62
532.71	1985.80
533.07	2006.42
533.42	2026.67
533.78	2046.84
534.14	2066.69
534.50	2085.91
534.86	2105.33
535.21	2123.09
535.57	2141.78
535.93	2159.60
536.29	2177.25
536.65	2195.48
537.00	2213.23
537.36	2231.12
537.72	2247.61
538.08	2264.64
538.44	2281.26
538.79	2298.12
539.15	2315.07
539.51	2330.90
539.87	2346.23
540.22	2360.30
540.58	2374.77
540.94	2387.76
541.29	2400.36
541.65	2413.13
542.01	2425.68
542.37	2436.48
542.72	2447.44
543.08	2458.05
543.44	2469.90
543.79	2480.07
544.15	2490.00
544.51	2500.10
544.87	2509.56
545.22	2518.63
545.58	2526.87
545.94	2534.12
546.29	2540.42
546.65	2546.14
547.01	2551.74
547.36	2557.46
547.72	2562.91
548.07	2566.80
548.43	2572.57
548.79	2577.26
549.14	2581.22
549.50	2585.29
549.86	2588.96
550.21	2592.95
550.57	2596.54
550.92	2598.01
551.28	2599.29
551.64	2601.76
551.99	2603.44
552.35	2605.09
552.70	2606.91
553.06	2608.14
553.41	2609.55
553.77	2611.45
554.13	2613.43
554.48	2615.23
554.84	2616.71
555.19	2617.65
555.55	2619.32
555.90	2618.27
556.26	2617.42
556.61	2616.02
556.97	2613.94
557.32	2613.26
557.68	2611.90
558.03	2610.35
558.39	2608.95
558.74	2608.09
559.10	2604.67
559.45	2601.38
559.81	2596.94
560.16	2592.01
560.52	2587.29
560.87	2582.45
561.23	2576.86
561.58	2570.57
561.94	2563.66
562.29	2555.87
562.64	2549.03
563.00	2540.99
563.35	2534.34
563.71	2527.81
564.06	2521.70
564.42	2514.93
564.77	2508.23
565.12	2500.51
565.48	2492.80
565.83	2484.67
566.19	2477.05
566.54	2469.41
566.89	2461.15
567.25	2453.46
567.60	2446.71
567.96	2439.23
568.31	2431.35
568.66	2422.88
569.02	2413.95
569.37	2405.80
569.72	2398.55
570.08	2389.26
570.43	2379.67
570.78	2370.67
571.14	2361.26
571.49	2351.11
571.84	2341.54
572.20	2330.44
572.55	2320.44
572.90	2309.59
573.26	2299.47
573.61	2287.85
573.96	2276.79
574.31	2264.81
574.67	2253.18
575.02	2239.95
575.37	2226.88
575.72	2213.64
576.08	2201.80
576.43	2189.46
576.78	2176.14
577.13	2162.41
577.49	2149.85
577.84	2138.08
578.19	2125.95
578.54	2113.32
578.90	2101.36
579.25	2088.98
579.60	2076.55
579.95	2063.87
580.30	2050.52
580.66	2036.91
581.01	2023.40
581.36	2009.30
581.71	1996.68
582.06	1983.56
582.42	1971.12
582.77	1958.71
583.12	1946.91
583.47	1934.12
583.82	1922.12
584.17	1910.47
584.53	1898.42
584.88	1885.47
585.23	1872.29
585.58	1858.02
585.93	1844.65
586.28	1830.98
586.63	1817.13
586.98	1802.72
587.34	1789.17
587.69	1775.86
588.04	1763.32
588.39	1751.37
588.74	1739.24
589.09	1727.05
589.44	1714.09
589.79	1702.00
590.14	1690.08
590.49	1678.00
590.84	1665.95
591.19	1653.74
591.54	1641.09
591.89	1628.95
592.25	1618.75
592.60	1607.29
592.95	1595.93
593.30	1584.02
593.65	1572.26
594.00	1559.86
594.35	1550.19
594.70	1538.32
595.05	1527.11
595.40	1514.98
595.75	1502.85
596.10	1491.43
596.45	1480.18
596.80	1469.30
597.15	1457.61
597.50	1445.73
597.85	1434.17
598.19	1422.25
598.54	1410.50
598.89	1399.35
599.24	1388.90
599.59	1377.05
599.94	1366.04
600.29	1355.48
600.64	1345.30
600.99	1334.29
601.34	1325.02
601.69	1313.95
602.04	1304.28
602.39	1294.55
602.74	1285.19
603.08	1275.95
603.43	1266.64
603.78	1256.68
604.13	1247.23
604.48	1237.40
604.83	1227.70
605.18	1217.97
605.53	1208.64
605.87	1199.35
606.22	1190.54
606.57	1180.86
606.92	1171.55
607.27	1162.63
607.62	1153.78
607.96	1144.96
608.31	1137.12
608.66	1128.51
609.01	1119.81
609.36	1111.01
609.70	1102.28
610.05	1093.69
610.40	1085.10
610.75	1076.27
611.10	1067.81
611.44	1059.11
611.79	1050.95
612.14	1043.05
612.49	1035.22
612.83	1027.65
613.18	1020.05
613.53	1012.35
613.88	1004.58
614.22	996.75
614.57	988.62
614.92	980.79
615.27	973.28
615.61	965.55
615.96	957.92
616.31	950.37
616.65	943.38
617.00	936.15
617.35	928.87
617.70	921.69
618.04	914.71
618.39	907.77
618.74	901.27
619.08	894.39
619.43	887.33
619.78	880.13
620.12	872.86
620.47	865.90
620.82	858.85
621.16	851.83
621.51	845.57
621.85	839.19
622.20	832.44
622.55	825.69
622.89	819.03
623.24	812.64
623.59	806.22
623.93	799.85
624.28	793.56
624.62	788.02
624.97	782.06
625.32	776.08
625.66	769.98
626.01	763.75
626.35	758.21
626.70	752.61
627.04	747.18
627.39	741.76
627.73	736.51
628.08	731.20
628.43	725.82
628.77	720.26
629.12	715.08
629.46	710.30
629.81	705.60
630.15	700.90
630.50	695.92
630.84	691.23
631.19	686.43
631.53	681.90
631.88	676.47
632.22	671.63
632.57	667.19
632.91	662.72
633.26	658.44
633.60	653.82
633.95	649.15
634.29	644.42
634.64	639.96
634.98	635.08
635.32	630.58
635.67	626.63
636.01	622.34
636.36	618.15
636.70	614.15
637.05	609.89
637.39	605.76
637.73	601.58
638.08	597.48
638.42	593.24
638.77	588.77
639.11	584.42
639.45	580.10
639.80	575.72
640.14	571.51
640.49	567.36
640.83	563.50
641.17	559.77
641.52	556.07
641.86	552.40
642.20	549.22
642.55	545.56
642.89	541.92
643.23	538.53
643.58	535.25
643.92	531.48
644.26	528.20
644.61	524.85
644.95	521.53
645.29	518.09
645.64	514.94
645.98	511.87
646.32	508.93
646.66	505.82
647.01	502.85
647.35	500.09
647.69	497.19
648.04	494.31
648.38	491.46
648.72	488.51
649.06	485.57
649.41	482.45
649.75	479.49
650.09	476.70
650.43	473.71
650.78	470.77
651.12	467.94
651.46	464.91
651.80	462.26
652.14	459.55
652.49	457.02
652.83	454.35
653.17	451.81
653.51	449.17
653.85	446.78
654.20	444.19
654.54	441.50
654.88	438.94
655.22	436.74
655.56	434.35
655.90	432.06
656.25	429.74
656.59	427.55
656.93	425.50
657.27	423.38
657.61	421.01
657.95	418.59
658.29	416.37
658.64	414.43
658.98	412.07
659.32	409.86
659.66	407.66
660.00	405.59
660.34	403.47
660.68	401.36
661.02	399.34
661.36	397.41
661.70	395.45
662.05	393.55
662.39	391.49
662.73	389.69
663.07	388.10
663.41	386.20
663.75	384.24
664.09	382.24
664.43	380.17
664.77	378.54
665.11	376.89
665.45	375.25
665.79	373.49
666.13	371.81
666.47	370.16
666.81	368.55
667.15	366.87
667.49	365.36
667.83	364.06
668.17	362.48
668.51	361.05
668.85	359.78
669.19	358.59
669.53	357.12
669.87	355.58
670.21	353.96
670.55	352.55
670.89	351.46
671.23	350.12
671.57	348.69
671.91	347.31
672.25	346.00
672.58	344.86
672.92	343.49
673.26	342.27
673.60	341.16
673.94	339.88
674.28	338.68
674.62	337.53
674.96	336.29
675.30	335.17
675.64	333.98
675.97	332.65
676.31	331.17
676.65	329.91
676.99	328.99
677.33	327.89
677.67	326.85
678.01	325.56
678.34	324.55
678.68	323.76
679.02	322.70
679.36	321.60
679.70	320.56
680.04	319.58
680.37	318.55
680.71	317.49
681.05	316.55
681.39	315.71
681.73	314.78
682.06	313.79
682.40	312.85
682.74	311.96
683.08	311.25
683.42	310.42
683.75	309.62
684.09	308.61
684.43	307.72
684.77	306.86
685.10	306.09
685.44	305.31
685.78	304.41
686.12	303.62
686.45	302.91
686.79	302.00
687.13	301.41
687.46	300.70
687.80	300.03
688.14	299.25
688.48	298.45
688.81	297.61
689.15	296.99
689.49	296.35
689.82	295.60
690.16	294.78
690.50	294.07
690.83	293.33
691.17	292.56
691.51	291.92
691.84	291.34
692.18	290.55
692.52	289.81
692.85	289.14
693.19	288.69
693.52	287.99
693.86	287.33
694.20	286.61
694.53	286.01
694.87	285.29
695.21	284.64
695.54	284.10
695.88	283.43
696.21	282.65
696.55	281.97
696.88	281.44
697.22	280.68
697.56	280.20
697.89	279.64
698.23	279.22
698.56	278.66
698.90	278.10
699.23	277.55
699.57	277.09
699.90	276.58
700.24	275.89
700.58	275.51
700.91	275.16
701.25	275.01
701.58	274.81
701.92	274.57
702.25	274.16
702.59	273.61
702.92	273.24
703.26	272.82
703.59	272.39
703.93	272.32
704.26	272.04
704.60	271.61
704.93	271.17
705.26	270.59
705.60	270.24
705.93	269.73
706.27	269.49
706.60	269.23
706.94	268.99
707.27	268.63
707.61	268.22
707.94	267.76
708.27	267.04
708.61	266.36
708.94	265.90
709.28	265.57
709.61	265.17
709.94	264.87
710.28	264.49
710.61	264.14
710.95	263.34
711.28	263.30
711.61	262.87
711.95	262.64
712.28	262.25
712.61	261.88
712.95	261.88
713.28	261.74
713.61	261.30
713.95	260.77
714.28	260.42
714.61	260.10
714.95	259.75
715.28	259.34
715.61	258.98
715.95	258.60
716.28	258.20
716.61	257.99
716.95	257.51
717.28	257.23
717.61	256.92
717.94	256.66
718.28	256.05
718.61	255.80
718.94	255.49
719.27	255.26
719.61	254.98
719.94	254.49
720.27	253.89
720.60	253.62
720.94	253.49
721.27	253.27
721.60	253.13
721.93	252.90
722.27	252.89
722.60	252.72
722.93	252.50
723.26	252.37
723.59	252.03
723.93	252.05
724.26	251.84
724.59	251.52
724.92	251.32
725.25	251.26
725.59	250.97
725.92	250.74
726.25	250.56
726.58	250.42
726.91	250.31
727.24	250.21
727.57	249.97
727.91	249.72
728.24	249.56
728.57	249.19
728.90	249.07
729.23	248.70
729.56	248.73
729.89	248.45
730.22	248.18
730.55	248.08
730.89	247.79
731.22	247.62
731.55	247.56
731.88	247.47
732.21	247.18
732.54	246.99
732.87	246.80
733.20	246.70
733.53	246.49
733.86	246.30
734.19	246.15
734.52	246.07
734.85	246.13
735.18	245.88
735.51	245.93
735.84	245.79
736.17	245.71
736.50	245.29
736.83	245.74
737.16	245.67
737.49	245.46
737.82	245.25
738.15	245.17
738.48	244.95
738.81	244.65
739.14	244.40
739.47	244.26
739.80	244.13
740.13	243.97
740.46	243.76
740.79	243.49
741.12	243.25
741.45	243.06
741.78	242.64
742.11	242.62
742.44	242.38
742.77	242.22
743.10	241.99
743.43	241.90
743.75	241.16
744.08	241.62
744.41	241.51
744.74	241.34
745.07	241.08
745.40	240.98
745.73	241.08
746.06	241.00
746.39	240.97
746.71	240.75
747.04	240.55
747.37	240.39
747.70	240.42
748.03	240.33
748.36	240.20
748.68	240.09
749.01	239.90
749.34	239.75
749.67	239.67
750.00	239.70
750.33	239.87
750.65	239.83
750.98	239.10
751.31	238.98
751.64	238.98
751.97	239.10
752.29	239.02
752.62	238.71
752.95	238.58
753.28	238.37
753.60	238.37
753.93	238.38
754.26	238.42
754.59	238.14
754.91	238.01
755.24	237.90
755.57	237.87
755.90	237.71
756.22	237.59
756.55	237.39
756.88	237.13
757.20	236.67
757.53	236.40
757.86	236.29
758.19	236.20
758.51	236.06
758.84	235.76
759.17	235.61
759.49	235.57
759.82	235.68
760.15	235.60
760.47	235.41
760.80	235.21
761.13	235.10
761.45	234.99
761.78	234.87
762.11	234.75
762.43	234.61
762.76	234.51
763.08	234.48
763.41	234.47
763.74	234.45
764.06	234.43
764.39	234.49
764.71	234.40
765.04	234.29
765.37	234.17
765.69	234.10
766.02	233.97
766.34	233.90
766.67	233.75
767.00	233.90
767.32	234.08
767.65	234.36
767.97	234.26
768.30	234.28
768.62	234.25
768.95	234.17
769.27	234.12
769.60	234.18
769.92	233.99
770.25	233.80
770.57	233.62
770.90	233.51
771.22	233.37
771.55	233.34
771.87	233.26
772.20	233.25
772.52	233.56
772.85	234.08
773.17	233.96
773.50	233.84
773.82	233.54
774.15	233.28
774.47	232.90
774.80	232.85
775.12	232.78
775.45	232.70
775.77	232.67
776.09	232.70
776.42	232.62
776.74	232.75
777.07	232.75
777.39	232.72
777.72	232.67
778.04	232.70
778.36	232.60
778.69	232.57
779.01	232.55
779.33	232.14
779.66	231.61
779.98	231.53
780.31	231.44
780.63	231.69
780.95	231.73
781.28	231.64
781.60	231.50
781.92	231.43
782.25	231.41
782.57	231.31
782.89	231.20
783.22	231.09
783.54	230.98
783.86	230.90
784.19	230.93
784.51	231.00
784.83	230.90
785.16	230.82
785.48	230.79
785.80	230.73
786.12	230.75
786.45	230.70
786.77	230.77
787.09	230.80
787.42	230.54
787.74	230.52
788.06	230.52
788.38	230.50
788.71	230.47
789.03	230.39
789.35	230.41
789.67	230.24
789.99	230.23
790.32	230.11
790.64	230.17
790.96	230.42
791.28	230.27
791.61	230.24
791.93	230.28
792.25	230.27
792.57	230.57
792.89	230.42
793.21	230.43
793.54	230.39
793.86	230.29
794.18	230.38
794.50	230.25
794.82	230.25
795.14	230.28
795.47	230.30
795.79	230.30
796.11	230.27
796.43	230.28
796.75	230.27
797.07	230.25
797.39	230.20
797.71	229.92
798.04	229.82
798.36	229.84
798.68	229.85
799.00	229.88
799.32	229.60
799.64	229.69
799.96	229.60
800.28	229.65
800.60	229.64
800.92	229.58
801.24	229.56
801.56	229.59
801.89	229.54
802.21	229.58
802.53	229.54
802.85	229.60
803.17	229.87
803.49	229.74
803.81	229.73
804.13	229.57
804.45	229.50
804.77	229.65
805.09	229.59
805.41	229.47
805.73	229.27
806.05	229.14
806.37	229.09
806.69	229.02
807.01	228.83
807.33	228.75
807.65	228.52
807.97	228.73
808.28	228.63
808.60	228.64
808.92	228.52
809.24	228.81
809.56	228.66
809.88	228.44
810.20	228.51
810.52	228.55
810.84	228.58
811.16	228.54
811.48	228.41
811.80	228.57
812.12	228.57
812.43	228.71
812.75	228.68
813.07	228.65
813.39	228.72
813.71	228.75
814.03	228.80
814.35	228.86
814.67	228.64
814.98	228.60
815.30	228.57
815.62	228.53
815.94	228.24
816.26	228.45
816.58	228.38
816.89	228.33
817.21	228.25
817.53	228.23
817.85	228.26
818.17	228.26
818.48	228.09
818.80	228.22
819.12	228.20
819.44	228.15
819.76	228.02
820.07	228.06
820.39	227.95
820.71	228.01
821.03	227.97
821.34	227.94
821.66	227.98
821.98	227.97
822.30	227.88
822.61	228.07
822.93	227.85
823.25	227.85
823.57	227.85
823.88	227.88
824.20	227.87
824.52	227.96
824.83	227.96
825.15	227.91
825.47	227.78
825.79	227.73
826.10	227.75
826.42	227.83
826.74	227.74
827.05	227.80
827.37	227.75
827.69	227.72
828.00	227.72
828.32	227.70
828.64	227.66
828.95	227.96
829.27	227.87
829.58	227.85
829.90	227.92
830.22	227.93
830.53	227.85
830.85	227.85
831.17	227.72
831.48	227.74
831.80	227.74
832.11	227.69
832.43	227.68
832.75	227.73
833.06	227.90
833.38	227.85
833.69	227.84
834.01	227.85
834.32	227.88
834.64	227.82
834.96	227.83
835.27	227.75
835.59	227.51
835.90	227.52
836.22	227.46
836.53	227.38
836.85	227.35
837.16	227.88
837.48	227.89
837.79	228.08
838.11	228.05
838.42	228.10
838.74	228.16
839.05	228.08
839.37	228.05
839.68	227.87
840.00	227.80
840.31	227.80
840.63	227.67
840.94	227.68
841.26	227.65
841.57	227.60
841.88	227.73
842.20	227.69
842.51	227.48
842.83	227.50
843.14	227.93
843.46	227.94
843.77	227.66
844.08	227.65
844.40	227.43
844.71	227.38
845.03	227.30
845.34	227.35
845.65	227.35
845.97	227.30
846.28	227.18
846.60	227.28
846.91	227.25
847.22	227.29
847.54	227.37
847.85	227.36
848.16	227.34
848.48	227.20
848.79	227.42
849.10	227.53
849.42	227.55
849.73	227.13
850.04	227.14
850.36	226.94
850.67	226.99
850.98	226.98
851.30	227.08
851.61	227.15
851.92	227.07
852.23	227.25
852.55	227.29
852.86	227.44
853.17	227.41
853.49	227.51
853.80	227.63
854.11	227.63
854.42	227.74
854.74	227.71
855.05	227.75
855.36	227.57
855.67	227.61
855.99	227.64
856.30	228.16
856.61	228.09
856.92	228.13
857.23	228.17
857.55	228.15
857.86	228.01
858.17	227.98
858.48	227.92
858.79	227.85
859.11	227.90
859.42	227.82
859.73	227.79
860.04	227.75
860.35	227.63
860.66	227.48
860.98	227.48
861.29	227.51
861.60	227.49
861.91	227.59
862.22	227.52
862.53	227.47
862.84	226.86
863.16	227.05
863.47	226.96
863.78	226.90
864.09	226.93
864.40	226.96
864.71	227.00
865.02	227.05
865.33	226.94
865.64	226.88
865.95	226.92
866.27	227.28
866.58	227.25
866.89	227.29
867.20	227.30
867.51	227.25
867.82	227.24
868.13	227.42
868.44	227.30
868.75	227.30
869.06	227.37
869.37	227.52
869.68	227.37
869.99	227.45
870.30	227.53
870.61	227.58
870.92	227.51
871.23	227.45
871.54	227.58
871.85	227.72
872.16	227.72
872.47	227.65
872.78	227.30
873.09	227.35
873.40	227.28
873.71	227.30
874.02	227.31
874.33	227.27
874.64	227.15
874.95	227.24
875.26	227.20
875.56	227.10
875.87	227.03
876.18	226.93
876.49	227.38
876.80	227.26
877.11	227.23
877.42	227.33
877.73	227.33
878.04	227.19
878.35	227.17
878.66	227.28
878.96	227.29
879.27	227.31
879.58	227.23
879.89	227.20
880.20	227.33
880.51	227.29
880.82	227.31
881.12	227.26
881.43	227.09
881.74	227.03
882.05	226.97
882.36	226.97
882.67	226.91
882.97	226.38
883.28	226.33
883.59	226.28
883.90	226.31
884.21	226.35
884.51	226.32
884.82	226.25
885.13	226.16
885.44	226.14
885.74	226.15
886.05	226.10
886.36	226.20
886.67	225.98
886.98	226.21
887.28	226.18
887.59	226.18
887.90	226.17
888.20	226.12
888.51	226.18
888.82	226.11
889.13	226.22
889.43	226.62
889.74	226.62
890.05	226.53
890.35	226.49
890.66	226.38
890.97	226.32
891.28	226.30
891.58	226.25
891.89	226.25
892.20	226.14
892.50	226.09
892.81	226.02
893.12	226.10
893.42	225.86
893.73	225.92
894.04	226.00
894.34	226.15
894.65	226.25
894.95	226.26
895.26	226.34
895.57	226.54
895.87	226.09
896.18	226.15
896.48	226.23
896.79	226.25
897.10	226.36
897.40	226.42
897.71	226.45
898.01	226.48
898.32	226.49
898.63	226.56
898.93	226.67
899.24	226.70
899.54	226.65
899.85	226.75
900.15	226.75
900.46	226.75
900.76	226.73
901.07	226.65
901.38	226.64
901.68	226.73
901.99	226.50
902.29	226.60
902.60	226.59
902.90	226.61
903.21	226.58
903.51	226.57
903.82	226.69
904.12	226.75
904.43	226.76
904.73	226.81
905.03	226.85
905.34	227.33
905.64	227.30
905.95	227.31
906.25	227.29
906.56	227.25
906.86	227.22
907.17	227.19
907.47	227.31
907.77	227.30
908.08	227.17
908.38	227.28
908.69	227.30
908.99	227.46
909.30	227.46
909.60	227.52
909.90	227.58
910.21	227.38
910.51	227.28
910.81	227.36
911.12	227.38
911.42	227.38
911.73	226.79
912.03	226.86
912.33	226.96
912.64	226.83
912.94	226.79
913.24	226.75
913.55	226.70
913.85	226.66
914.15	226.75
914.46	226.79
914.76	226.70
915.06	226.65
915.37	226.46
915.67	226.39
915.97	226.31
916.27	226.20
916.58	226.31
916.88	226.32
917.18	226.25
917.49	226.53
917.79	226.46
918.09	226.57
918.39	226.60
918.70	226.53
919.00	226.62
919.30	226.88
919.60	226.84
919.91	226.79
920.21	226.79
920.51	226.67
920.81	226.60
921.12	226.70
921.42	226.61
921.72	226.69
922.02	226.72
922.32	226.77
922.63	226.73
922.93	226.87
923.23	226.88
923.53	226.79
923.83	226.47
924.13	226.60
924.44	226.52
924.74	226.66
925.04	226.78
925.34	226.68
925.64	226.46
925.94	226.36
926.24	226.65
926.55	226.51
926.85	226.56
927.15	226.58
927.45	226.52
927.75	226.56
928.05	226.57
928.35	226.54
928.65	226.59
928.95	226.67
929.26	226.50
929.56	226.56
929.86	226.59
930.16	226.56
930.46	226.46
930.76	226.51
931.06	226.21
931.36	226.16
931.66	226.31
931.96	226.37
932.26	226.51
932.56	226.30
932.86	226.39
933.16	226.50
933.46	226.49
933.76	226.43
934.06	226.56
934.36	226.78
934.66	226.75
934.96	226.79
935.26	226.79
935.56	226.89
935.86	226.88
936.16	226.82
936.46	226.81
936.76	226.86
937.06	226.77
937.36	226.83
937.66	226.73
937.96	226.75
938.26	226.66
938.56	226.62
938.86	226.64
939.16	226.75
939.46	226.75
939.76	226.77
940.06	226.82
940.35	226.80
940.65	226.50
940.95	226.54
941.25	226.37
941.55	226.32
941.85	226.34
942.15	226.35
942.45	226.55
942.75	226.56
943.04	226.51
943.34	226.69
943.64	226.70
943.94	226.72
944.24	226.65
944.54	226.74
944.84	226.75
945.13	226.70
945.43	226.69
945.73	226.70
946.03	226.70
946.33	226.68
946.62	226.60
946.92	226.57
947.22	226.70
947.52	226.75
947.82	226.84
948.11	226.74
948.41	226.67
948.71	226.51
949.01	226.49
949.31	226.43
949.60	226.36
949.90	226.44
950.20	226.37
950.50	226.37
950.79	226.26
951.09	226.31
951.39	226.23
951.69	226.18
951.98	226.17
952.28	226.18
952.58	226.08
952.87	226.06
953.17	226.18
953.47	226.00
953.76	226.04
954.06	225.89
954.36	225.88
954.66	225.92
954.95	226.06
955.25	226.09
955.55	226.18
955.84	226.08
956.14	226.09
956.44	226.14
956.73	226.10
957.03	226.19
957.32	226.16
957.62	226.25
957.92	226.29
958.21	226.23
958.51	226.78
958.81	226.88
959.10	226.92
959.40	226.98
959.69	227.03
959.99	227.01
960.29	227.09
960.58	226.98
960.88	227.10
961.17	227.00
961.47	227.10
961.76	227.03
962.06	227.12
962.36	227.07
962.65	227.10
962.95	227.10
963.24	227.04
963.54	227.04
963.83	227.00
964.13	227.00
964.42	226.92
964.72	226.45
965.01	226.46
965.31	226.39
965.60	226.30
965.90	226.67
966.19	226.57
966.49	226.54
966.78	226.59
967.08	226.58
967.37	226.56
967.67	226.39
967.96	226.48
968.26	226.49
968.55	226.52
968.85	226.53
969.14	226.52
969.43	226.52
969.73	226.51
970.02	226.52
970.32	226.50
970.61	226.53
970.91	226.52
971.20	226.46
971.49	226.38
971.79	226.45
972.08	226.08
972.38	226.06
972.67	226.09
972.96	226.18
973.26	226.07
973.55	226.25
973.85	226.32
974.14	226.32
974.43	226.39
974.73	226.30
975.02	226.29
975.31	226.30
975.61	226.31
975.90	226.30
976.19	226.24
976.49	226.30
976.78	226.27
977.07	226.22
977.37	226.24
977.66	226.37
977.95	226.31
978.24	226.35
978.54	226.52
978.83	226.50
979.12	226.47
979.42	226.52
979.71	226.43
980.00	226.44
980.29	226.46
980.59	226.35
980.88	226.46
981.17	226.43
981.46	226.46
981.76	226.44
982.05	226.59
982.34	226.62
982.63	226.63
982.93	226.66
983.22	226.78
983.51	226.83
983.80	226.88
984.09	226.93
984.39	226.90
984.68	226.85
984.97	226.90
985.26	226.87
985.55	226.92
985.85	226.86
986.14	226.95
986.43	226.95
986.72	226.91
987.01	226.76
987.30	226.70
987.59	226.68
987.89	226.75
988.18	226.52
988.47	226.53
988.76	226.41
989.05	226.36
989.34	226.27
989.63	226.31
989.92	226.25
990.22	226.19
990.51	226.17
990.80	226.15
991.09	226.16
991.38	226.18
991.67	226.04
991.96	226.05
992.25	225.95
992.54	225.84
992.83	225.86
993.12	225.89
993.41	226.02
993.70	226.23
993.99	226.24
994.28	226.37
994.58	226.40
994.87	226.44
995.16	226.52
995.45	226.43
995.74	226.26
996.03	226.29
996.32	226.32
996.61	226.35
996.90	226.33
997.19	226.23
997.48	226.21
997.77	226.11
998.06	226.04
998.34	226.05
998.63	226.02
998.92	226.04
999.21	226.09
999.50	225.97
999.79	225.76
1000.08	225.70
1000.37	225.65
1000.66	225.59
1000.95	225.65
1001.24	225.64
1001.53	225.70
1001.82	225.72
1002.11	225.67
1002.40	225.73
1002.68	225.94
1002.97	226.22
1003.26	226.21
1003.55	226.21
1003.84	226.31
1004.13	226.52
1004.42	226.44
1004.71	226.50
1004.99	226.47
1005.28	226.59
1005.57	226.65
1005.86	226.55
1006.15	226.57
1006.44	226.52
1006.72	226.61
1007.01	226.56
1007.30	226.45
1007.59	226.39
1007.88	226.36
1008.17	226.34
1008.45	226.25
1008.74	226.01
1009.03	225.77
1009.32	225.85
1009.60	225.76
1009.89	225.69
1010.18	225.42
1010.47	225.48
1010.76	225.43
1011.04	225.38
1011.33	225.38
1011.62	225.39
1011.91	225.56
1012.19	225.59
1012.48	225.63
1012.77	225.60
1013.05	225.83
1013.34	225.91
1013.63	225.93
1013.92	226.01
1014.20	226.03
1014.49	226.03
1014.78	226.09
1015.06	226.00
1015.35	225.90
1015.64	226.01
1015.92	226.12
1016.21	226.19
1016.50	226.18
1016.78	226.29
1017.07	226.38
1017.36	226.32
1017.64	226.30
1017.93	226.27
1018.22	226.24
1018.50	226.20
1018.79	226.21
1019.08	226.05
1019.36	226.06
1019.65	226.02
1019.93	226.15
1020.22	226.21
1020.51	226.46
1020.79	226.46
1021.08	225.95
1021.36	224.95
1021.65	226.40
1021.94	227.95
1022.22	226.00
1022.51	224.80
1022.79	228.60
1023.08	226.85
1023.36	231.50
1023.65	226.40
>>>>>End Processed Spectral Data<<<<<
