SpectraSuite Data File
++++++++++++++++++++++++++++++++++++
Date: Wed Sep 04 17:40:13 EDT 2013
User: lab3
Dark Spectrum Present: Yes
Reference Spectrum Present: No
Number of Sampled Component Spectra: 1
Spectrometers: USB2E7196
Integration Time (usec): 170000 (USB2E7196)
Spectra Averaged: 20 (USB2E7196)
Boxcar Smoothing: 10 (USB2E7196)
Correct for Electrical Dark: No (USB2E7196)
Strobe/Lamp Enabled: No (USB2E7196)
Correct for Detector Non-linearity: No (USB2E7196)
Correct for Stray Light: No (USB2E7196)
Number of Pixels in Processed Spectrum: 2048
>>>>>Begin Processed Spectral Data<<<<<
339.09	0.00
339.48	213.75
339.86	214.55
340.24	215.60
340.63	216.35
341.01	224.50
341.39	220.35
341.78	222.70
342.16	223.45
342.54	222.25
342.93	212.04
343.31	222.70
343.69	223.18
344.07	223.66
344.46	224.17
344.84	224.57
345.22	224.53
345.60	224.80
345.99	224.88
346.37	224.95
346.75	225.07
347.13	225.07
347.52	225.07
347.90	225.24
348.28	225.28
348.66	225.44
349.05	225.22
349.43	225.35
349.81	225.39
350.19	225.46
350.57	225.53
350.96	225.65
351.34	225.80
351.72	225.88
352.10	225.91
352.48	225.90
352.87	225.95
353.25	226.05
353.63	226.06
354.01	226.14
354.39	226.21
354.77	226.31
355.15	226.56
355.54	226.55
355.92	226.46
356.30	226.52
356.68	226.89
357.06	227.02
357.44	226.92
357.82	226.98
358.20	227.43
358.58	227.44
358.97	227.47
359.35	227.60
359.73	227.80
360.11	227.92
360.49	228.01
360.87	228.16
361.25	228.24
361.63	228.42
362.01	228.45
362.39	228.47
362.77	228.57
363.15	228.54
363.53	228.59
363.91	228.70
364.29	228.69
364.67	228.27
365.05	228.35
365.43	228.52
365.81	228.60
366.19	228.44
366.57	228.68
366.95	228.66
367.33	228.58
367.71	228.52
368.09	228.63
368.47	228.60
368.85	228.56
369.23	228.71
369.61	228.53
369.99	228.71
370.37	228.81
370.75	229.01
371.13	228.96
371.51	228.91
371.89	228.90
372.27	228.92
372.65	228.97
373.03	228.98
373.41	228.91
373.78	228.82
374.16	228.55
374.54	228.35
374.92	228.30
375.30	228.25
375.68	228.14
376.06	228.03
376.44	227.94
376.82	227.89
377.19	227.76
377.57	227.68
377.95	227.48
378.33	227.28
378.71	226.90
379.09	226.85
379.47	226.86
379.84	226.70
380.22	226.50
380.60	226.26
380.98	226.12
381.36	226.03
381.73	225.91
382.11	225.91
382.49	225.86
382.87	225.78
383.25	225.64
383.62	226.17
384.00	226.02
384.38	226.01
384.76	226.04
385.13	226.22
385.51	226.20
385.89	226.08
386.27	226.10
386.64	226.14
387.02	226.03
387.40	225.93
387.78	225.95
388.15	226.05
388.53	226.01
388.91	225.93
389.29	225.85
389.66	225.91
390.04	225.81
390.42	225.87
390.79	225.81
391.17	225.84
391.55	225.22
391.92	225.22
392.30	225.30
392.68	225.18
393.05	225.10
393.43	225.17
393.81	225.23
394.18	225.16
394.56	225.16
394.94	225.35
395.31	225.35
395.69	225.59
396.06	225.67
396.44	225.80
396.82	225.86
397.19	226.18
397.57	226.12
397.95	226.26
398.32	226.14
398.70	226.31
399.07	226.48
399.45	226.60
399.82	226.70
400.20	226.67
400.58	226.79
400.95	226.68
401.33	226.86
401.70	227.25
402.08	227.43
402.45	227.58
402.83	227.80
403.20	227.93
403.58	227.99
403.95	228.12
404.33	228.29
404.71	228.49
405.08	228.90
405.46	229.18
405.83	229.44
406.21	229.71
406.58	229.91
406.96	230.15
407.33	230.43
407.70	230.77
408.08	231.50
408.45	231.85
408.83	232.28
409.20	232.58
409.58	232.70
409.95	233.09
410.33	233.45
410.70	233.72
411.08	234.33
411.45	234.78
411.82	235.27
412.20	235.99
412.57	236.83
412.95	237.02
413.32	237.67
413.69	238.25
414.07	239.06
414.44	239.89
414.82	240.69
415.19	241.70
415.56	242.68
415.94	243.44
416.31	244.62
416.68	245.78
417.06	247.09
417.43	248.46
417.81	249.94
418.18	251.54
418.55	253.14
418.93	254.77
419.30	256.45
419.67	258.29
420.04	260.04
420.42	261.92
420.79	264.63
421.16	267.00
421.54	269.56
421.91	272.02
422.28	274.53
422.66	277.22
423.03	280.12
423.40	282.89
423.77	285.79
424.15	288.85
424.52	292.01
424.89	295.49
425.26	298.77
425.64	301.88
426.01	305.20
426.38	308.89
426.75	312.70
427.13	316.58
427.50	320.54
427.87	324.72
428.24	328.76
428.61	332.32
428.99	336.77
429.36	341.29
429.73	345.81
430.10	350.42
430.47	355.12
430.85	359.77
431.22	364.86
431.59	370.53
431.96	375.66
432.33	381.36
432.70	386.83
433.08	393.33
433.45	399.49
433.82	405.66
434.19	412.34
434.56	418.92
434.93	425.24
435.30	431.67
435.68	438.69
436.05	445.69
436.42	452.70
436.79	458.96
437.16	465.95
437.53	473.24
437.90	480.48
438.27	487.67
438.64	494.93
439.01	501.89
439.38	507.84
439.75	513.66
440.13	520.56
440.50	526.83
440.87	531.92
441.24	537.33
441.61	543.23
441.98	547.57
442.35	552.47
442.72	557.58
443.09	562.48
443.46	565.41
443.83	567.39
444.20	569.10
444.57	571.38
444.94	572.29
445.31	573.36
445.68	574.76
446.05	574.85
446.42	573.97
446.79	572.86
447.16	571.57
447.53	570.70
447.90	567.55
448.27	564.61
448.64	560.72
449.01	557.73
449.37	552.68
449.74	547.78
450.11	542.35
450.48	536.06
450.85	529.54
451.22	524.00
451.59	518.54
451.96	513.28
452.33	506.67
452.70	500.60
453.07	493.50
453.43	485.73
453.80	478.98
454.17	472.30
454.54	465.92
454.91	459.21
455.28	452.61
455.65	446.49
456.02	440.96
456.38	435.67
456.75	429.31
457.12	423.88
457.49	418.66
457.86	413.17
458.23	408.81
458.59	404.08
458.96	399.36
459.33	395.25
459.70	391.08
460.07	387.73
460.43	383.88
460.80	380.37
461.17	377.40
461.54	373.99
461.91	370.91
462.27	367.69
462.64	364.93
463.01	362.02
463.38	359.30
463.74	355.79
464.11	353.19
464.48	350.94
464.85	348.65
465.21	346.89
465.58	345.11
465.95	342.72
466.32	340.84
466.68	338.92
467.05	336.99
467.42	335.18
467.78	333.24
468.15	331.50
468.52	330.08
468.88	328.28
469.25	326.73
469.62	325.51
469.98	324.18
470.35	322.95
470.72	321.79
471.08	320.30
471.45	319.45
471.82	318.49
472.18	317.28
472.55	316.55
472.92	315.48
473.28	314.59
473.65	313.74
474.02	312.89
474.38	312.17
474.75	311.57
475.11	310.88
475.48	310.40
475.85	309.95
476.21	309.52
476.58	309.14
476.94	308.81
477.31	308.49
477.67	308.25
478.04	308.06
478.41	307.91
478.77	308.27
479.14	307.99
479.50	308.04
479.87	308.16
480.23	308.09
480.60	308.05
480.96	308.09
481.33	308.54
481.69	308.83
482.06	309.07
482.42	309.36
482.79	309.80
483.15	310.29
483.52	310.92
483.88	311.40
484.25	311.98
484.61	312.71
484.98	313.25
485.34	314.18
485.71	315.06
486.07	315.99
486.44	316.62
486.80	317.73
487.17	318.78
487.53	320.06
487.90	321.47
488.26	323.05
488.62	324.56
488.99	326.00
489.35	327.53
489.72	329.33
490.08	331.16
490.44	332.91
490.81	334.91
491.17	336.81
491.54	339.06
491.90	341.35
492.26	343.84
492.63	346.46
492.99	349.04
493.36	351.83
493.72	354.82
494.08	357.99
494.45	361.35
494.81	364.82
495.17	368.41
495.54	372.20
495.90	375.96
496.26	380.03
496.63	384.26
496.99	388.56
497.35	393.03
497.72	397.85
498.08	402.82
498.44	407.90
498.80	413.38
499.17	418.83
499.53	424.44
499.89	430.38
500.26	436.56
500.62	442.67
500.98	449.39
501.34	455.90
501.71	462.64
502.07	469.60
502.43	476.73
502.79	484.14
503.16	491.76
503.52	499.72
503.88	507.74
504.24	516.13
504.60	525.06
504.97	534.16
505.33	543.12
505.69	552.79
506.05	562.40
506.41	572.14
506.78	582.20
507.14	592.66
507.50	603.22
507.86	614.06
508.22	625.48
508.59	636.64
508.95	648.35
509.31	660.61
509.67	672.82
510.03	685.12
510.39	697.72
510.75	710.43
511.12	723.47
511.48	736.94
511.84	750.25
512.20	763.58
512.56	777.31
512.92	791.55
513.28	805.60
513.64	819.78
514.00	834.35
514.37	849.02
514.73	863.83
515.09	878.98
515.45	894.07
515.81	909.18
516.17	924.65
516.53	939.85
516.89	954.94
517.25	970.73
517.61	987.10
517.97	1003.43
518.33	1019.65
518.69	1035.84
519.05	1052.20
519.41	1068.87
519.77	1085.77
520.13	1102.09
520.49	1118.43
520.85	1136.25
521.21	1153.21
521.57	1170.20
521.93	1186.76
522.29	1203.50
522.65	1219.78
523.01	1236.04
523.37	1252.10
523.73	1268.21
524.09	1284.22
524.45	1300.09
524.81	1315.94
525.17	1331.51
525.53	1347.06
525.89	1362.81
526.25	1378.62
526.61	1393.90
526.97	1409.54
527.33	1425.53
527.68	1442.10
528.04	1458.02
528.40	1472.36
528.76	1487.90
529.12	1502.86
529.48	1518.10
529.84	1532.67
530.20	1548.00
530.56	1562.98
530.91	1578.28
531.27	1592.92
531.63	1607.98
531.99	1622.68
532.35	1637.11
532.71	1651.64
533.07	1666.52
533.42	1680.70
533.78	1694.63
534.14	1708.53
534.50	1721.64
534.86	1734.91
535.21	1746.62
535.57	1759.02
535.93	1770.83
536.29	1782.63
536.65	1794.91
537.00	1806.69
537.36	1818.13
537.72	1828.61
538.08	1840.06
538.44	1850.67
538.79	1861.36
539.15	1871.71
539.51	1882.11
539.87	1891.60
540.22	1900.15
540.58	1908.56
540.94	1916.43
541.29	1923.77
541.65	1930.84
542.01	1938.04
542.37	1943.40
542.72	1949.40
543.08	1955.24
543.44	1961.85
543.79	1966.92
544.15	1971.63
544.51	1976.51
544.87	1981.27
545.22	1985.53
545.58	1988.87
545.94	1991.82
546.29	1994.15
546.65	1996.18
547.01	1997.63
547.36	1999.11
547.72	2000.66
548.07	2001.03
548.43	2002.16
548.79	2003.00
549.14	2003.38
549.50	2003.79
549.86	2004.30
550.21	2004.39
550.57	2004.28
550.92	2002.55
551.28	2001.15
551.64	2000.45
551.99	1999.27
552.35	1998.10
552.70	1997.18
553.06	1995.92
553.41	1994.35
553.77	1993.37
554.13	1992.28
554.48	1991.27
554.84	1990.15
555.19	1988.58
555.55	1987.75
555.90	1985.18
556.26	1982.13
556.61	1979.05
556.97	1975.28
557.32	1972.47
557.68	1969.63
558.03	1966.24
558.39	1963.45
558.74	1960.79
559.10	1956.30
559.45	1951.71
559.81	1946.64
560.16	1940.86
560.52	1935.45
560.87	1930.60
561.23	1924.75
561.58	1918.86
561.94	1911.97
562.29	1904.69
562.64	1898.06
563.00	1890.24
563.35	1883.73
563.71	1877.60
564.06	1871.51
564.42	1865.06
564.77	1858.35
565.12	1851.41
565.48	1844.67
565.83	1837.50
566.19	1830.38
566.54	1823.55
566.89	1816.66
567.25	1809.92
567.60	1803.59
567.96	1796.95
568.31	1789.63
568.66	1782.34
569.02	1774.45
569.37	1767.17
569.72	1760.85
570.08	1752.97
570.43	1745.00
570.78	1737.38
571.14	1729.60
571.49	1721.18
571.84	1713.48
572.20	1704.97
572.55	1696.85
572.90	1688.21
573.26	1679.85
573.61	1671.02
573.96	1662.16
574.31	1652.67
574.67	1643.46
575.02	1633.51
575.37	1623.38
575.72	1613.13
576.08	1603.83
576.43	1594.21
576.78	1584.33
577.13	1573.85
577.49	1564.28
577.84	1555.48
578.19	1546.23
578.54	1536.85
578.90	1527.78
579.25	1518.69
579.60	1509.37
579.95	1499.76
580.30	1489.93
580.66	1479.92
581.01	1470.00
581.36	1459.62
581.71	1450.15
582.06	1440.43
582.42	1431.33
582.77	1422.44
583.12	1413.81
583.47	1404.67
583.82	1395.87
584.17	1387.17
584.53	1378.46
584.88	1369.00
585.23	1359.55
585.58	1349.26
585.93	1339.64
586.28	1330.23
586.63	1320.08
586.98	1310.04
587.34	1300.44
587.69	1290.79
588.04	1282.03
588.39	1273.35
588.74	1264.76
589.09	1256.44
589.44	1247.56
589.79	1238.73
590.14	1229.89
590.49	1221.29
590.84	1212.52
591.19	1204.02
591.54	1195.51
591.89	1187.00
592.25	1180.23
592.60	1171.98
592.95	1164.44
593.30	1156.17
593.65	1147.75
594.00	1139.45
594.35	1132.93
594.70	1124.84
595.05	1117.23
595.40	1108.64
595.75	1100.35
596.10	1092.42
596.45	1084.37
596.80	1076.66
597.15	1068.90
597.50	1061.02
597.85	1053.35
598.19	1045.44
598.54	1037.48
598.89	1029.55
599.24	1022.13
599.59	1013.76
599.94	1006.44
600.29	999.30
600.64	992.32
600.99	985.08
601.34	978.66
601.69	970.80
602.04	964.04
602.39	957.18
602.74	950.97
603.08	944.63
603.43	938.40
603.78	931.83
604.13	925.50
604.48	918.99
604.83	912.14
605.18	905.53
605.53	899.29
605.87	893.19
606.22	887.63
606.57	881.40
606.92	875.10
607.27	869.07
607.62	863.10
607.96	857.32
608.31	852.21
608.66	846.43
609.01	840.64
609.36	835.02
609.70	829.45
610.05	823.69
610.40	818.05
610.75	812.14
611.10	806.60
611.44	800.82
611.79	795.30
612.14	790.25
612.49	784.76
612.83	779.71
613.18	774.42
613.53	769.17
613.88	763.89
614.22	758.73
614.57	753.44
614.92	747.98
615.27	742.91
615.61	737.63
615.96	732.53
616.31	727.44
616.65	722.70
617.00	717.56
617.35	712.68
617.70	707.77
618.04	703.04
618.39	698.32
618.74	694.11
619.08	689.57
619.43	684.77
619.78	680.10
620.12	675.11
620.47	670.43
620.82	665.50
621.16	660.90
621.51	656.61
621.85	652.26
622.20	647.94
622.55	643.43
622.89	638.97
623.24	634.72
623.59	630.49
623.93	626.10
624.28	622.11
624.62	618.35
624.97	614.46
625.32	610.53
625.66	606.44
626.01	602.17
626.35	598.39
626.70	594.56
627.04	591.13
627.39	587.44
627.73	583.96
628.08	580.49
628.43	576.85
628.77	573.19
629.12	569.62
629.46	566.28
629.81	563.06
630.15	559.85
630.50	556.56
630.84	553.21
631.19	549.93
631.53	546.78
631.88	543.25
632.22	539.93
632.57	536.99
632.91	533.86
633.26	530.80
633.60	527.63
633.95	524.64
634.29	521.19
634.64	518.30
634.98	514.97
635.32	512.07
635.67	509.31
636.01	506.51
636.36	503.57
636.70	500.88
637.05	497.89
637.39	495.00
637.73	492.02
638.08	489.30
638.42	486.43
638.77	483.60
639.11	480.46
639.45	477.47
639.80	474.26
640.14	471.48
640.49	468.76
640.83	466.18
641.17	463.73
641.52	461.10
641.86	458.58
642.20	456.45
642.55	453.89
642.89	451.35
643.23	448.82
643.58	446.72
643.92	444.04
644.26	441.70
644.61	439.53
644.95	437.35
645.29	435.01
645.64	432.88
645.98	430.63
646.32	428.80
646.66	426.67
647.01	424.76
647.35	422.85
647.69	420.86
648.04	418.89
648.38	416.84
648.72	415.00
649.06	412.88
649.41	410.78
649.75	408.74
650.09	406.71
650.43	404.75
650.78	402.65
651.12	400.75
651.46	398.81
651.80	396.90
652.14	395.03
652.49	393.42
652.83	391.63
653.17	389.87
653.51	387.95
653.85	386.44
654.20	384.76
654.54	382.92
654.88	381.15
655.22	379.74
655.56	378.10
655.90	376.48
656.25	374.92
656.59	373.48
656.93	372.02
657.27	370.74
657.61	369.05
657.95	367.51
658.29	366.09
658.64	364.73
658.98	363.18
659.32	361.52
659.66	359.96
660.00	358.58
660.34	357.15
660.68	355.79
661.02	354.31
661.36	352.97
661.70	351.62
662.05	350.30
662.39	348.77
662.73	347.55
663.07	346.54
663.41	345.25
663.75	343.74
664.09	342.42
664.43	340.91
664.77	339.80
665.11	338.62
665.45	337.38
665.79	336.29
666.13	335.06
666.47	333.98
666.81	332.77
667.15	331.50
667.49	330.43
667.83	329.46
668.17	328.29
668.51	327.17
668.85	326.21
669.19	325.47
669.53	324.40
669.87	323.33
670.21	322.15
670.55	321.21
670.89	320.56
671.23	319.51
671.57	318.59
671.91	317.71
672.25	316.73
672.58	315.99
672.92	314.84
673.26	313.96
673.60	313.13
673.94	312.30
674.28	311.48
674.62	310.75
674.96	309.81
675.30	309.06
675.64	308.20
675.97	307.34
676.31	306.30
676.65	305.42
676.99	304.71
677.33	303.87
677.67	303.17
678.01	302.17
678.34	301.56
678.68	300.97
679.02	300.12
679.36	299.44
679.70	298.58
680.04	297.96
680.37	297.23
680.71	296.51
681.05	295.82
681.39	295.18
681.73	294.44
682.06	293.79
682.40	293.21
682.74	292.72
683.08	292.29
683.42	291.49
683.75	290.95
684.09	290.23
684.43	289.64
684.77	288.94
685.10	288.40
685.44	287.78
685.78	287.05
686.12	286.60
686.45	285.94
686.79	285.40
687.13	284.91
687.46	284.45
687.80	284.10
688.14	283.56
688.48	283.03
688.81	282.46
689.15	282.03
689.49	281.49
689.82	280.91
690.16	280.11
690.50	279.68
690.83	279.12
691.17	278.59
691.51	278.11
691.84	277.69
692.18	277.09
692.52	276.52
692.85	276.16
693.19	275.89
693.52	275.49
693.86	275.02
694.20	274.60
694.53	274.16
694.87	273.62
695.21	273.07
695.54	272.56
695.88	272.07
696.21	271.48
696.55	271.07
696.88	270.60
697.22	270.19
697.56	269.87
697.89	269.44
698.23	269.10
698.56	268.66
698.90	268.30
699.23	267.96
699.57	267.59
699.90	267.18
700.24	266.54
700.58	266.18
700.91	265.94
701.25	265.87
701.58	265.82
701.92	265.53
702.25	265.28
702.59	264.96
702.92	264.66
703.26	264.35
703.59	263.98
703.93	264.10
704.26	263.86
704.60	263.54
704.93	263.23
705.26	262.87
705.60	262.64
705.93	262.17
706.27	261.97
706.60	261.83
706.94	261.73
707.27	261.39
707.61	261.19
707.94	260.80
708.27	260.25
708.61	259.56
708.94	259.19
709.28	258.80
709.61	258.55
709.94	258.31
710.28	258.08
710.61	257.71
710.95	256.89
711.28	256.87
711.61	256.52
711.95	256.29
712.28	255.88
712.61	255.59
712.95	255.59
713.28	255.46
713.61	255.07
713.95	254.55
714.28	254.37
714.61	254.02
714.95	253.69
715.28	253.25
715.61	253.01
715.95	252.82
716.28	252.52
716.61	252.32
716.95	251.97
717.28	251.64
717.61	251.44
717.94	251.30
718.28	250.69
718.61	250.41
718.94	250.12
719.27	249.92
719.61	249.73
719.94	249.34
720.27	248.91
720.60	248.73
720.94	248.60
721.27	248.39
721.60	248.20
721.93	248.05
722.27	247.99
722.60	247.91
722.93	247.55
723.26	247.45
723.59	247.17
723.93	247.06
724.26	246.94
724.59	246.75
724.92	246.58
725.25	246.59
725.59	246.40
725.92	246.20
726.25	246.16
726.58	245.98
726.91	245.83
727.24	245.74
727.57	245.53
727.91	245.26
728.24	245.10
728.57	244.88
728.90	244.71
729.23	244.42
729.56	244.46
729.89	244.45
730.22	244.30
730.55	244.12
730.89	243.97
731.22	243.86
731.55	243.69
731.88	243.53
732.21	243.28
732.54	243.12
732.87	243.00
733.20	242.81
733.53	242.63
733.86	242.54
734.19	242.33
734.52	242.23
734.85	242.52
735.18	242.28
735.51	242.29
735.84	242.15
736.17	242.16
736.50	241.70
736.83	242.08
737.16	241.92
737.49	241.76
737.82	241.57
738.15	241.43
738.48	241.25
738.81	241.14
739.14	240.95
739.47	240.83
739.80	240.80
740.13	240.66
740.46	240.47
740.79	240.31
741.12	240.12
741.45	239.97
741.78	239.51
742.11	239.54
742.44	239.31
742.77	239.25
743.10	239.08
743.43	239.05
743.75	238.42
744.08	239.01
744.41	238.95
744.74	238.85
745.07	238.63
745.40	238.67
745.73	238.74
746.06	238.76
746.39	238.74
746.71	238.52
747.04	238.42
747.37	238.32
747.70	238.23
748.03	238.17
748.36	238.08
748.68	237.94
749.01	237.74
749.34	237.64
749.67	237.56
750.00	237.51
750.33	237.73
750.65	237.65
750.98	236.90
751.31	236.86
751.64	236.80
751.97	237.04
752.29	236.91
752.62	236.60
752.95	236.40
753.28	236.27
753.60	236.17
753.93	236.14
754.26	236.13
754.59	235.92
754.91	235.71
755.24	235.59
755.57	235.54
755.90	235.45
756.22	235.31
756.55	235.12
756.88	234.98
757.20	234.57
757.53	234.40
757.86	234.33
758.19	234.26
758.51	234.17
758.84	233.75
759.17	233.67
759.49	233.59
759.82	233.75
760.15	233.68
760.47	233.61
760.80	233.39
761.13	233.40
761.45	233.35
761.78	233.32
762.11	233.33
762.43	233.18
762.76	233.12
763.08	233.16
763.41	233.19
763.74	233.15
764.06	233.09
764.39	233.03
764.71	232.86
765.04	232.69
765.37	232.57
765.69	232.54
766.02	232.37
766.34	232.25
766.67	231.97
767.00	232.01
767.32	232.24
767.65	232.55
767.97	232.40
768.30	232.47
768.62	232.49
768.95	232.35
769.27	232.34
769.60	232.36
769.92	232.12
770.25	231.99
770.57	231.86
770.90	231.84
771.22	231.71
771.55	231.75
771.87	231.82
772.20	231.75
772.52	232.10
772.85	232.65
773.17	232.64
773.50	232.61
773.82	232.42
774.15	232.12
774.47	231.70
774.80	231.63
775.12	231.54
775.45	231.54
775.77	231.53
776.09	231.50
776.42	231.48
776.74	231.70
777.07	231.63
777.39	231.65
777.72	231.53
778.04	231.54
778.36	231.45
778.69	231.36
779.01	231.40
779.33	230.97
779.66	230.44
779.98	230.39
780.31	230.44
780.63	230.70
780.95	230.74
781.28	230.76
781.60	230.66
781.92	230.58
782.25	230.54
782.57	230.56
782.89	230.53
783.22	230.47
783.54	230.30
783.86	230.31
784.19	230.17
784.51	230.29
784.83	230.27
785.16	230.20
785.48	230.19
785.80	230.19
786.12	230.23
786.45	230.14
786.77	230.15
787.09	230.04
787.42	229.79
787.74	229.78
788.06	229.79
788.38	229.80
788.71	229.72
789.03	229.67
789.35	229.64
789.67	229.54
789.99	229.50
790.32	229.41
790.64	229.45
790.96	229.88
791.28	229.61
791.61	229.59
791.93	229.64
792.25	229.56
792.57	229.82
792.89	229.68
793.21	229.66
793.54	229.63
793.86	229.50
794.18	229.52
794.50	229.37
794.82	229.33
795.14	229.33
795.47	229.40
795.79	229.37
796.11	229.21
796.43	229.11
796.75	229.10
797.07	229.09
797.39	229.04
797.71	228.69
798.04	228.80
798.36	228.80
798.68	228.74
799.00	228.79
799.32	228.50
799.64	228.57
799.96	228.61
800.28	228.64
800.60	228.62
800.92	228.61
801.24	228.66
801.56	228.69
801.89	228.65
802.21	228.60
802.53	228.50
802.85	228.64
803.17	228.96
803.49	228.84
803.81	228.90
804.13	228.84
804.45	228.75
804.77	228.73
805.09	228.70
805.41	228.66
805.73	228.55
806.05	228.43
806.37	228.39
806.69	228.38
807.01	228.37
807.33	228.39
807.65	228.26
807.97	228.42
808.28	228.30
808.60	228.28
808.92	228.30
809.24	228.63
809.56	228.51
809.88	228.34
810.20	228.40
810.52	228.36
810.84	228.24
811.16	228.20
811.48	228.26
811.80	228.40
812.12	228.39
812.43	228.50
812.75	228.58
813.07	228.54
813.39	228.56
813.71	228.45
814.03	228.42
814.35	228.39
814.67	228.18
814.98	228.16
815.30	228.18
815.62	228.08
815.94	227.75
816.26	228.03
816.58	227.84
816.89	227.82
817.21	227.72
817.53	227.82
817.85	227.81
818.17	227.75
818.48	227.56
818.80	227.62
819.12	227.52
819.44	227.46
819.76	227.44
820.07	227.38
820.39	227.32
820.71	227.43
821.03	227.52
821.34	227.54
821.66	227.64
821.98	227.55
822.30	227.47
822.61	227.72
822.93	227.40
823.25	227.42
823.57	227.42
823.88	227.50
824.20	227.39
824.52	227.49
824.83	227.40
825.15	227.35
825.47	227.31
825.79	227.36
826.10	227.28
826.42	227.20
826.74	227.31
827.05	227.40
827.37	227.35
827.69	227.24
828.00	227.21
828.32	227.18
828.64	227.20
828.95	227.49
829.27	227.33
829.58	227.36
829.90	227.48
830.22	227.42
830.53	227.37
830.85	227.41
831.17	227.27
831.48	227.25
831.80	227.20
832.11	227.21
832.43	227.15
832.75	227.15
833.06	227.42
833.38	227.19
833.69	227.12
834.01	227.09
834.32	227.07
834.64	227.04
834.96	226.99
835.27	226.99
835.59	226.74
835.90	226.72
836.22	226.69
836.53	226.56
836.85	226.53
837.16	226.99
837.48	226.96
837.79	227.10
838.11	227.15
838.42	227.19
838.74	227.18
839.05	227.15
839.37	227.19
839.68	226.94
840.00	227.01
840.31	227.08
840.63	227.06
840.94	226.97
841.26	226.90
841.57	226.89
841.88	226.91
842.20	226.93
842.51	226.79
842.83	226.79
843.14	227.25
843.46	227.29
843.77	226.99
844.08	226.95
844.40	226.80
844.71	226.72
845.03	226.67
845.34	226.67
845.65	226.60
845.97	226.54
846.28	226.60
846.60	226.54
846.91	226.46
847.22	226.43
847.54	226.52
847.85	226.52
848.16	226.51
848.48	226.42
848.79	226.55
849.10	226.67
849.42	226.70
849.73	226.18
850.04	226.10
850.36	225.97
850.67	226.13
850.98	226.12
851.30	226.13
851.61	226.10
851.92	226.05
852.23	226.22
852.55	226.18
852.86	226.13
853.17	226.16
853.49	226.24
853.80	226.36
854.11	226.35
854.42	226.51
854.74	226.39
855.05	226.42
855.36	226.24
855.67	226.20
855.99	226.19
856.30	226.84
856.61	226.89
856.92	226.78
857.23	226.70
857.55	226.68
857.86	226.71
858.17	226.90
858.48	226.85
858.79	226.74
859.11	226.84
859.42	226.78
859.73	226.73
860.04	226.70
860.35	226.56
860.66	226.47
860.98	226.37
861.29	226.57
861.60	226.61
861.91	226.65
862.22	226.66
862.53	226.61
862.84	226.01
863.16	226.12
863.47	226.08
863.78	226.02
864.09	226.12
864.40	226.09
864.71	226.03
865.02	226.07
865.33	226.06
865.64	226.04
865.95	226.02
866.27	226.32
866.58	226.26
866.89	226.38
867.20	226.47
867.51	226.41
867.82	226.24
868.13	226.35
868.44	226.29
868.75	226.34
869.06	226.35
869.37	226.43
869.68	226.26
869.99	226.45
870.30	226.54
870.61	226.54
870.92	226.56
871.23	226.55
871.54	226.64
871.85	226.76
872.16	226.71
872.47	226.74
872.78	226.40
873.09	226.47
873.40	226.39
873.71	226.42
874.02	226.47
874.33	226.49
874.64	226.37
874.95	226.48
875.26	226.38
875.56	226.35
875.87	226.26
876.18	226.30
876.49	226.71
876.80	226.56
877.11	226.45
877.42	226.38
877.73	226.40
878.04	226.33
878.35	226.26
878.66	226.30
878.96	226.24
879.27	226.33
879.58	226.30
879.89	226.29
880.20	226.39
880.51	226.35
880.82	226.31
881.12	226.32
881.43	226.24
881.74	226.11
882.05	226.09
882.36	226.16
882.67	226.18
882.97	225.61
883.28	225.59
883.59	225.63
883.90	225.72
884.21	225.70
884.51	225.65
884.82	225.57
885.13	225.60
885.44	225.59
885.74	225.55
886.05	225.51
886.36	225.50
886.67	225.26
886.98	225.49
887.28	225.59
887.59	225.52
887.90	225.47
888.20	225.52
888.51	225.65
888.82	225.54
889.13	225.53
889.43	225.95
889.74	226.03
890.05	225.91
890.35	225.82
890.66	225.71
890.97	225.64
891.28	225.60
891.58	225.53
891.89	225.59
892.20	225.51
892.50	225.40
892.81	225.37
893.12	225.36
893.42	225.13
893.73	225.07
894.04	225.08
894.34	225.14
894.65	225.20
894.95	225.03
895.26	225.00
895.57	225.20
895.87	224.75
896.18	224.79
896.48	224.90
896.79	224.96
897.10	225.12
897.40	225.15
897.71	225.21
898.01	225.15
898.32	225.18
898.63	225.27
898.93	225.37
899.24	225.40
899.54	225.40
899.85	225.42
900.15	225.41
900.46	225.47
900.76	225.55
901.07	225.46
901.38	225.50
901.68	225.64
901.99	225.44
902.29	225.58
902.60	225.45
902.90	225.43
903.21	225.36
903.51	225.27
903.82	225.41
904.12	225.46
904.43	225.55
904.73	225.55
905.03	225.57
905.34	226.04
905.64	225.99
905.95	225.99
906.25	225.97
906.56	226.04
906.86	226.07
907.17	225.95
907.47	225.98
907.77	225.98
908.08	225.86
908.38	225.87
908.69	225.87
908.99	226.03
909.30	226.10
909.60	226.10
909.90	226.11
910.21	225.99
910.51	225.92
910.81	225.93
911.12	226.02
911.42	226.04
911.73	225.60
912.03	225.64
912.33	225.78
912.64	225.80
912.94	225.71
913.24	225.59
913.55	225.62
913.85	225.60
914.15	225.78
914.46	225.88
914.76	225.92
915.06	225.90
915.37	225.83
915.67	225.76
915.97	225.85
916.27	225.82
916.58	225.79
916.88	225.71
917.18	225.70
917.49	225.96
917.79	225.93
918.09	226.00
918.39	226.15
918.70	226.10
919.00	226.04
919.30	226.33
919.60	226.35
919.91	226.28
920.21	226.36
920.51	226.18
920.81	226.10
921.12	226.12
921.42	226.06
921.72	226.11
922.02	226.16
922.32	226.14
922.63	226.11
922.93	226.33
923.23	226.42
923.53	226.39
923.83	226.04
924.13	226.06
924.44	225.99
924.74	226.03
925.04	226.12
925.34	226.16
925.64	225.93
925.94	225.90
926.24	226.17
926.55	226.03
926.85	226.06
927.15	226.09
927.45	226.07
927.75	226.03
928.05	225.99
928.35	225.86
928.65	226.02
928.95	226.10
929.26	225.85
929.56	225.97
929.86	226.08
930.16	226.00
930.46	225.93
930.76	225.90
931.06	225.65
931.36	225.59
931.66	225.64
931.96	225.74
932.26	225.80
932.56	225.64
932.86	225.75
933.16	225.73
933.46	225.71
933.76	225.59
934.06	225.73
934.36	225.87
934.66	225.93
934.96	225.80
935.26	225.81
935.56	226.02
935.86	225.87
936.16	225.80
936.46	225.87
936.76	225.85
937.06	225.88
937.36	225.96
937.66	225.95
937.96	225.99
938.26	225.82
938.56	225.76
938.86	225.75
939.16	225.88
939.46	225.91
939.76	226.00
940.06	226.02
940.35	225.89
940.65	225.75
940.95	225.79
941.25	225.73
941.55	225.68
941.85	225.62
942.15	225.72
942.45	225.81
942.75	225.80
943.04	225.89
943.34	225.98
943.64	225.99
943.94	225.97
944.24	225.95
944.54	226.02
944.84	226.06
945.13	226.05
945.43	225.94
945.73	225.99
946.03	225.91
946.33	225.94
946.62	226.02
946.92	226.06
947.22	226.13
947.52	226.20
947.82	226.24
948.11	226.21
948.41	226.15
948.71	226.04
949.01	226.08
949.31	226.03
949.60	225.99
949.90	226.09
950.20	226.00
950.50	225.98
950.79	225.97
951.09	226.03
951.39	226.08
951.69	226.01
951.98	226.07
952.28	226.11
952.58	226.06
952.87	226.02
953.17	226.02
953.47	225.94
953.76	225.92
954.06	225.85
954.36	225.81
954.66	225.78
954.95	225.89
955.25	225.93
955.55	226.00
955.84	225.96
956.14	225.94
956.44	226.03
956.73	225.96
957.03	225.98
957.32	225.99
957.62	225.91
957.92	225.99
958.21	225.95
958.51	226.46
958.81	226.55
959.10	226.61
959.40	226.67
959.69	226.67
959.99	226.76
960.29	226.75
960.58	226.70
960.88	226.95
961.17	226.94
961.47	226.96
961.76	226.86
962.06	226.92
962.36	226.87
962.65	226.90
962.95	226.91
963.24	226.79
963.54	226.83
963.83	226.84
964.13	226.87
964.42	226.73
964.72	226.35
965.01	226.34
965.31	226.20
965.60	226.13
965.90	226.47
966.19	226.33
966.49	226.34
966.78	226.34
967.08	226.27
967.37	226.23
967.67	226.10
967.96	226.19
968.26	226.13
968.55	226.13
968.85	226.14
969.14	226.15
969.43	226.16
969.73	226.06
970.02	226.03
970.32	225.99
970.61	226.03
970.91	225.89
971.20	225.89
971.49	225.92
971.79	225.96
972.08	225.58
972.38	225.60
972.67	225.57
972.96	225.62
973.26	225.50
973.55	225.68
973.85	225.67
974.14	225.65
974.43	225.74
974.73	225.68
975.02	225.59
975.31	225.61
975.61	225.60
975.90	225.59
976.19	225.52
976.49	225.59
976.78	225.55
977.07	225.50
977.37	225.50
977.66	225.51
977.95	225.39
978.24	225.45
978.54	225.57
978.83	225.53
979.12	225.51
979.42	225.45
979.71	225.28
980.00	225.26
980.29	225.26
980.59	225.13
980.88	225.22
981.17	225.21
981.46	225.19
981.76	225.20
982.05	225.28
982.34	225.37
982.63	225.35
982.93	225.39
983.22	225.57
983.51	225.56
983.80	225.64
984.09	225.75
984.39	225.67
984.68	225.64
984.97	225.67
985.26	225.65
985.55	225.65
985.85	225.56
986.14	225.66
986.43	225.74
986.72	225.79
987.01	225.70
987.30	225.73
987.59	225.69
987.89	225.70
988.18	225.56
988.47	225.49
988.76	225.44
989.05	225.39
989.34	225.19
989.63	225.30
989.92	225.21
990.22	225.09
990.51	225.11
990.80	224.98
991.09	225.03
991.38	225.08
991.67	225.10
991.96	225.06
992.25	225.05
992.54	224.89
992.83	224.86
993.12	224.79
993.41	224.80
993.70	225.03
993.99	225.15
994.28	225.23
994.58	225.32
994.87	225.23
995.16	225.26
995.45	225.34
995.74	225.23
996.03	225.30
996.32	225.46
996.61	225.63
996.90	225.70
997.19	225.69
997.48	225.65
997.77	225.61
998.06	225.66
998.34	225.63
998.63	225.73
998.92	225.72
999.21	225.84
999.50	225.86
999.79	225.59
1000.08	225.64
1000.37	225.69
1000.66	225.58
1000.95	225.73
1001.24	225.70
1001.53	225.75
1001.82	225.66
1002.11	225.52
1002.40	225.58
1002.68	225.61
1002.97	225.90
1003.26	225.87
1003.55	225.86
1003.84	225.93
1004.13	226.08
1004.42	226.02
1004.71	225.98
1004.99	225.92
1005.28	225.92
1005.57	225.91
1005.86	225.96
1006.15	225.88
1006.44	225.77
1006.72	225.89
1007.01	225.85
1007.30	225.92
1007.59	225.83
1007.88	225.80
1008.17	225.85
1008.45	225.67
1008.74	225.48
1009.03	225.20
1009.32	225.19
1009.60	225.20
1009.89	225.07
1010.18	224.88
1010.47	224.83
1010.76	224.77
1011.04	224.76
1011.33	224.88
1011.62	224.90
1011.91	224.93
1012.19	224.98
1012.48	225.09
1012.77	225.06
1013.05	225.25
1013.34	225.22
1013.63	225.23
1013.92	225.28
1014.20	225.27
1014.49	225.35
1014.78	225.37
1015.06	225.33
1015.35	225.32
1015.64	225.37
1015.92	225.47
1016.21	225.53
1016.50	225.63
1016.78	225.71
1017.07	225.81
1017.36	225.66
1017.64	225.55
1017.93	225.59
1018.22	225.47
1018.50	225.34
1018.79	225.28
1019.08	225.06
1019.36	225.11
1019.65	225.06
1019.93	225.23
1020.22	225.36
1020.51	225.58
1020.79	225.58
1021.08	224.40
1021.36	223.70
1021.65	224.65
1021.94	225.20
1022.22	226.15
1022.51	223.90
1022.79	227.75
1023.08	226.85
1023.36	231.10
1023.65	225.15
>>>>>End Processed Spectral Data<<<<<
