SpectraSuite Data File
++++++++++++++++++++++++++++++++++++
Date: Wed Sep 04 17:41:54 EDT 2013
User: lab3
Dark Spectrum Present: Yes
Reference Spectrum Present: No
Number of Sampled Component Spectra: 1
Spectrometers: USB2E7196
Integration Time (usec): 170000 (USB2E7196)
Spectra Averaged: 20 (USB2E7196)
Boxcar Smoothing: 10 (USB2E7196)
Correct for Electrical Dark: No (USB2E7196)
Strobe/Lamp Enabled: No (USB2E7196)
Correct for Detector Non-linearity: No (USB2E7196)
Correct for Stray Light: No (USB2E7196)
Number of Pixels in Processed Spectrum: 2048
>>>>>Begin Processed Spectral Data<<<<<
339.09	0.00
339.48	212.15
339.86	214.50
340.24	215.35
340.63	217.30
341.01	226.90
341.39	220.20
341.78	222.30
342.16	224.15
342.54	223.30
342.93	212.12
343.31	222.80
343.69	223.36
344.07	223.80
344.46	224.28
344.84	224.63
345.22	224.49
345.60	224.76
345.99	224.88
346.37	224.99
346.75	225.08
347.13	225.06
347.52	225.08
347.90	225.26
348.28	225.25
348.66	225.35
349.05	225.20
349.43	225.24
349.81	225.29
350.19	225.33
350.57	225.40
350.96	225.58
351.34	225.65
351.72	225.70
352.10	225.76
352.48	225.72
352.87	225.69
353.25	225.72
353.63	225.75
354.01	225.80
354.39	225.81
354.77	225.88
355.15	226.10
355.54	226.10
355.92	226.03
356.30	226.12
356.68	226.50
357.06	226.54
357.44	226.48
357.82	226.55
358.20	227.03
358.58	227.06
358.97	227.09
359.35	227.30
359.73	227.46
360.11	227.56
360.49	227.63
360.87	227.76
361.25	227.95
361.63	228.12
362.01	228.24
362.39	228.27
362.77	228.28
363.15	228.29
363.53	228.36
363.91	228.37
364.29	228.38
364.67	227.89
365.05	227.94
365.43	228.11
365.81	228.24
366.19	228.06
366.57	228.33
366.95	228.30
367.33	228.14
367.71	228.16
368.09	228.28
368.47	228.38
368.85	228.38
369.23	228.55
369.61	228.40
369.99	228.46
370.37	228.49
370.75	228.72
371.13	228.62
371.51	228.56
371.89	228.57
372.27	228.59
372.65	228.68
373.03	228.68
373.41	228.59
373.78	228.46
374.16	228.14
374.54	227.92
374.92	227.92
375.30	227.92
375.68	227.84
376.06	227.78
376.44	227.66
376.82	227.64
377.19	227.47
377.57	227.39
377.95	227.20
378.33	227.10
378.71	226.75
379.09	226.73
379.47	226.69
379.84	226.58
380.22	226.50
380.60	226.37
380.98	226.30
381.36	226.25
381.73	226.16
382.11	226.21
382.49	226.16
382.87	226.03
383.25	225.94
383.62	226.43
384.00	226.24
384.38	226.17
384.76	226.24
385.13	226.36
385.51	226.32
385.89	226.21
386.27	226.27
386.64	226.31
387.02	226.26
387.40	226.15
387.78	226.18
388.15	226.10
388.53	225.93
388.91	225.90
389.29	225.80
389.66	225.89
390.04	225.87
390.42	225.93
390.79	225.86
391.17	225.81
391.55	225.28
391.92	225.27
392.30	225.36
392.68	225.29
393.05	225.22
393.43	225.22
393.81	225.33
394.18	225.25
394.56	225.25
394.94	225.32
395.31	225.27
395.69	225.39
396.06	225.49
396.44	225.67
396.82	225.66
397.19	225.95
397.57	225.87
397.95	225.96
398.32	225.86
398.70	226.04
399.07	226.22
399.45	226.21
399.82	226.34
400.20	226.37
400.58	226.41
400.95	226.26
401.33	226.45
401.70	226.84
402.08	226.97
402.45	227.19
402.83	227.41
403.20	227.68
403.58	227.81
403.95	228.11
404.33	228.29
404.71	228.53
405.08	229.02
405.46	229.21
405.83	229.48
406.21	229.74
406.58	229.95
406.96	230.18
407.33	230.51
407.70	230.88
408.08	231.55
408.45	231.97
408.83	232.49
409.20	232.77
409.58	232.90
409.95	233.34
410.33	233.75
410.70	234.09
411.08	234.58
411.45	235.11
411.82	235.50
412.20	236.25
412.57	237.02
412.95	237.23
413.32	238.03
413.69	238.67
414.07	239.51
414.44	240.32
414.82	241.15
415.19	242.18
415.56	243.15
415.94	243.89
416.31	245.05
416.68	246.20
417.06	247.56
417.43	248.87
417.81	250.39
418.18	251.94
418.55	253.55
418.93	255.26
419.30	256.91
419.67	258.78
420.04	260.57
420.42	262.44
420.79	264.98
421.16	267.25
421.54	269.84
421.91	272.22
422.28	274.76
422.66	277.56
423.03	280.43
423.40	283.12
423.77	286.15
424.15	289.10
424.52	292.17
424.89	295.63
425.26	298.94
425.64	302.00
426.01	305.43
426.38	309.00
426.75	312.85
427.13	316.69
427.50	320.58
427.87	324.65
428.24	328.75
428.61	332.45
428.99	336.94
429.36	341.36
429.73	345.98
430.10	350.51
430.47	355.18
430.85	359.70
431.22	364.84
431.59	370.48
431.96	375.53
432.33	381.41
432.70	386.97
433.08	393.53
433.45	399.61
433.82	405.63
434.19	412.59
434.56	419.27
434.93	425.54
435.30	432.09
435.68	439.24
436.05	446.25
436.42	453.09
436.79	459.47
437.16	466.50
437.53	473.70
437.90	480.93
438.27	488.10
438.64	495.51
439.01	502.45
439.38	508.38
439.75	514.39
440.13	521.08
440.50	527.28
440.87	532.27
441.24	537.65
441.61	543.50
441.98	547.61
442.35	552.40
442.72	557.58
443.09	562.56
443.46	565.50
443.83	567.57
444.20	569.33
444.57	571.52
444.94	572.40
445.31	573.35
445.68	574.76
446.05	574.95
446.42	573.96
446.79	572.92
447.16	571.55
447.53	570.55
447.90	567.53
448.27	564.60
448.64	560.68
449.01	557.82
449.37	552.99
449.74	548.13
450.11	542.63
450.48	536.24
450.85	529.51
451.22	523.88
451.59	518.37
451.96	513.27
452.33	506.64
452.70	500.56
453.07	493.51
453.43	485.86
453.80	478.91
454.17	472.34
454.54	465.98
454.91	459.19
455.28	452.82
455.65	446.59
456.02	441.03
456.38	435.79
456.75	429.31
457.12	423.70
457.49	418.43
457.86	413.13
458.23	408.83
458.59	404.18
458.96	399.39
459.33	395.07
459.70	390.86
460.07	387.48
460.43	383.69
460.80	380.26
461.17	377.20
461.54	373.90
461.91	370.75
462.27	367.48
462.64	364.85
463.01	361.70
463.38	359.08
463.74	355.68
464.11	353.24
464.48	351.08
464.85	348.79
465.21	347.03
465.58	345.05
465.95	342.66
466.32	340.76
466.68	338.95
467.05	337.25
467.42	335.38
467.78	333.58
468.15	331.83
468.52	330.45
468.88	328.63
469.25	327.03
469.62	325.88
469.98	324.54
470.35	323.42
470.72	322.29
471.08	320.83
471.45	319.90
471.82	318.89
472.18	317.72
472.55	316.84
472.92	315.82
473.28	314.97
473.65	314.14
474.02	313.27
474.38	312.57
474.75	312.00
475.11	311.33
475.48	310.74
475.85	310.23
476.21	309.72
476.58	309.39
476.94	309.07
477.31	308.73
477.67	308.48
478.04	308.20
478.41	308.07
478.77	308.38
479.14	308.10
479.50	307.99
479.87	308.04
480.23	308.19
480.60	308.21
480.96	308.30
481.33	308.68
481.69	308.92
482.06	309.08
482.42	309.34
482.79	309.66
483.15	310.06
483.52	310.70
483.88	311.16
484.25	311.63
484.61	312.37
484.98	313.01
485.34	313.95
485.71	314.83
486.07	315.73
486.44	316.36
486.80	317.37
487.17	318.49
487.53	319.77
487.90	321.15
488.26	322.76
488.62	324.31
488.99	325.72
489.35	327.37
489.72	329.13
490.08	330.97
490.44	332.90
490.81	334.92
491.17	336.85
491.54	339.10
491.90	341.56
492.26	343.99
492.63	346.50
492.99	349.09
493.36	351.89
493.72	354.93
494.08	357.98
494.45	361.38
494.81	364.86
495.17	368.27
495.54	372.01
495.90	375.76
496.26	379.71
496.63	384.03
496.99	388.33
497.35	392.86
497.72	397.63
498.08	402.53
498.44	407.66
498.80	413.22
499.17	418.69
499.53	424.24
499.89	430.35
500.26	436.43
500.62	442.65
500.98	449.32
501.34	456.03
501.71	463.04
502.07	469.90
502.43	477.04
502.79	484.69
503.16	492.38
503.52	500.27
503.88	508.43
504.24	516.91
504.60	525.83
504.97	534.92
505.33	543.97
505.69	553.69
506.05	563.28
506.41	572.91
506.78	583.00
507.14	593.59
507.50	603.97
507.86	614.96
508.22	626.14
508.59	637.32
508.95	648.90
509.31	660.97
509.67	673.23
510.03	685.39
510.39	697.73
510.75	710.27
511.12	723.26
511.48	736.43
511.84	749.61
512.20	762.95
512.56	776.51
512.92	790.51
513.28	804.41
513.64	818.71
514.00	833.34
514.37	848.05
514.73	862.72
515.09	877.85
515.45	893.06
515.81	907.97
516.17	923.24
516.53	938.60
516.89	953.66
517.25	969.50
517.61	986.10
517.97	1002.61
518.33	1019.04
518.69	1035.31
519.05	1052.00
519.41	1068.55
519.77	1085.25
520.13	1101.78
520.49	1118.32
520.85	1136.24
521.21	1153.05
521.57	1169.79
521.93	1185.94
522.29	1202.73
522.65	1218.85
523.01	1235.05
523.37	1251.39
523.73	1267.78
524.09	1283.33
524.45	1299.35
524.81	1315.12
525.17	1330.80
525.53	1346.16
525.89	1361.94
526.25	1377.67
526.61	1392.81
526.97	1408.65
527.33	1424.70
527.68	1441.15
528.04	1456.97
528.40	1471.30
528.76	1486.91
529.12	1501.94
529.48	1517.60
529.84	1532.29
530.20	1547.85
530.56	1563.00
530.91	1578.13
531.27	1592.67
531.63	1607.74
531.99	1622.26
532.35	1636.66
532.71	1650.76
533.07	1665.47
533.42	1679.36
533.78	1693.10
534.14	1706.97
534.50	1719.99
534.86	1733.18
535.21	1744.79
535.57	1757.07
535.93	1768.76
536.29	1780.44
536.65	1792.51
537.00	1803.98
537.36	1815.48
537.72	1825.83
538.08	1836.65
538.44	1847.51
538.79	1858.46
539.15	1869.11
539.51	1879.61
539.87	1889.05
540.22	1897.61
540.58	1906.42
540.94	1914.34
541.29	1922.21
541.65	1929.59
542.01	1937.04
542.37	1942.73
542.72	1948.78
543.08	1954.51
543.44	1961.13
543.79	1966.39
544.15	1971.65
544.51	1976.64
544.87	1981.65
545.22	1985.80
545.58	1989.47
545.94	1992.26
546.29	1994.20
546.65	1996.43
547.01	1997.93
547.36	1999.58
547.72	2001.45
548.07	2001.68
548.43	2003.04
548.79	2003.84
549.14	2004.14
549.50	2004.46
549.86	2004.96
550.21	2005.29
550.57	2005.48
550.92	2003.92
551.28	2002.36
551.64	2001.41
551.99	2000.24
552.35	1998.65
552.70	1997.80
553.06	1996.63
553.41	1994.92
553.77	1993.99
554.13	1992.74
554.48	1991.61
554.84	1990.30
555.19	1988.51
555.55	1987.71
555.90	1985.01
556.26	1982.03
556.61	1978.96
556.97	1975.11
557.32	1972.13
557.68	1969.22
558.03	1965.94
558.39	1963.00
558.74	1960.36
559.10	1955.68
559.45	1951.35
559.81	1946.52
560.16	1941.06
560.52	1935.43
560.87	1930.59
561.23	1925.04
561.58	1918.94
561.94	1912.33
562.29	1905.57
562.64	1899.06
563.00	1891.50
563.35	1885.00
563.71	1878.48
564.06	1872.08
564.42	1865.87
564.77	1859.40
565.12	1852.53
565.48	1845.75
565.83	1838.67
566.19	1831.64
566.54	1824.84
566.89	1817.78
567.25	1810.86
567.60	1804.46
567.96	1798.03
568.31	1791.24
568.66	1783.73
569.02	1776.17
569.37	1768.94
569.72	1762.34
570.08	1754.58
570.43	1746.62
570.78	1739.30
571.14	1731.94
571.49	1723.87
571.84	1716.08
572.20	1707.70
572.55	1699.56
572.90	1690.91
573.26	1682.58
573.61	1673.72
573.96	1664.75
574.31	1655.47
574.67	1646.14
575.02	1636.10
575.37	1625.91
575.72	1615.70
576.08	1606.11
576.43	1596.42
576.78	1586.37
577.13	1575.71
577.49	1566.11
577.84	1557.13
578.19	1547.55
578.54	1537.92
578.90	1529.10
579.25	1519.75
579.60	1510.37
579.95	1500.70
580.30	1490.99
580.66	1480.90
581.01	1470.96
581.36	1460.84
581.71	1451.43
582.06	1441.92
582.42	1433.00
582.77	1423.95
583.12	1415.11
583.47	1406.25
583.82	1397.71
584.17	1389.04
584.53	1380.32
584.88	1371.00
585.23	1361.46
585.58	1351.39
585.93	1341.78
586.28	1331.98
586.63	1322.02
586.98	1311.86
587.34	1302.46
587.69	1292.72
588.04	1283.94
588.39	1275.22
588.74	1266.56
589.09	1257.90
589.44	1248.64
589.79	1239.75
590.14	1231.31
590.49	1222.62
590.84	1214.17
591.19	1205.51
591.54	1196.82
591.89	1188.30
592.25	1181.05
592.60	1173.03
592.95	1165.24
593.30	1157.06
593.65	1148.55
594.00	1140.17
594.35	1133.75
594.70	1125.41
595.05	1117.61
595.40	1109.18
595.75	1100.90
596.10	1093.26
596.45	1085.47
596.80	1078.33
597.15	1070.63
597.50	1062.49
597.85	1054.94
598.19	1046.86
598.54	1038.83
598.89	1031.15
599.24	1023.87
599.59	1016.02
599.94	1008.44
600.29	1001.35
600.64	994.10
600.99	986.99
601.34	980.39
601.69	972.35
602.04	965.66
602.39	958.87
602.74	952.65
603.08	946.60
603.43	940.47
603.78	933.71
604.13	927.10
604.48	920.55
604.83	914.10
605.18	907.29
605.53	900.90
605.87	894.64
606.22	889.00
606.57	882.88
606.92	876.37
607.27	870.39
607.62	864.47
607.96	858.82
608.31	853.42
608.66	847.84
609.01	842.02
609.36	836.33
609.70	830.75
610.05	824.89
610.40	818.93
610.75	812.98
611.10	807.25
611.44	801.32
611.79	795.70
612.14	790.37
612.49	785.15
612.83	780.11
613.18	774.85
613.53	769.54
613.88	764.06
614.22	758.91
614.57	753.59
614.92	748.42
615.27	743.24
615.61	737.97
615.96	732.74
616.31	727.55
616.65	722.76
617.00	717.78
617.35	712.99
617.70	708.12
618.04	703.14
618.39	698.55
618.74	694.28
619.08	689.60
619.43	684.80
619.78	679.89
620.12	674.89
620.47	670.23
620.82	665.28
621.16	660.75
621.51	656.52
621.85	652.30
622.20	647.74
622.55	643.17
622.89	638.93
623.24	634.79
623.59	630.59
623.93	626.31
624.28	622.23
624.62	618.46
624.97	614.71
625.32	610.89
625.66	606.89
626.01	602.67
626.35	599.01
626.70	595.24
627.04	591.84
627.39	588.16
627.73	584.68
628.08	581.35
628.43	577.61
628.77	573.82
629.12	570.25
629.46	566.87
629.81	563.86
630.15	560.57
630.50	557.06
630.84	553.76
631.19	550.46
631.53	547.27
631.88	543.48
632.22	540.04
632.57	536.93
632.91	533.75
633.26	530.79
633.60	527.56
633.95	524.40
634.29	520.98
634.64	518.03
634.98	514.71
635.32	511.66
635.67	509.06
636.01	506.16
636.36	503.08
636.70	500.33
637.05	497.20
637.39	494.39
637.73	491.75
638.08	488.98
638.42	486.18
638.77	483.23
639.11	480.37
639.45	477.38
639.80	474.49
640.14	471.70
640.49	468.95
640.83	466.27
641.17	463.74
641.52	461.14
641.86	458.65
642.20	456.65
642.55	454.14
642.89	451.50
643.23	449.26
643.58	447.12
643.92	444.59
644.26	442.26
644.61	440.08
644.95	437.66
645.29	435.32
645.64	433.11
645.98	430.96
646.32	428.99
646.66	426.92
647.01	424.82
647.35	422.94
647.69	420.94
648.04	419.08
648.38	417.17
648.72	415.29
649.06	413.10
649.41	410.78
649.75	408.55
650.09	406.67
650.43	404.62
650.78	402.50
651.12	400.57
651.46	398.67
651.80	396.69
652.14	394.72
652.49	393.01
652.83	391.14
653.17	389.35
653.51	387.43
653.85	385.66
654.20	383.93
654.54	382.04
654.88	380.26
655.22	378.74
655.56	377.07
655.90	375.50
656.25	374.00
656.59	372.56
656.93	371.20
657.27	369.75
657.61	368.04
657.95	366.60
658.29	365.05
658.64	363.68
658.98	362.11
659.32	360.64
659.66	359.15
660.00	357.78
660.34	356.39
660.68	355.06
661.02	353.80
661.36	352.38
661.70	351.11
662.05	349.90
662.39	348.58
662.73	347.32
663.07	346.35
663.41	345.16
663.75	343.69
664.09	342.44
664.43	341.04
664.77	339.95
665.11	338.74
665.45	337.63
665.79	336.49
666.13	335.31
666.47	334.08
666.81	332.88
667.15	331.54
667.49	330.53
667.83	329.61
668.17	328.53
668.51	327.62
668.85	326.64
669.19	325.74
669.53	324.58
669.87	323.48
670.21	322.23
670.55	321.25
670.89	320.71
671.23	319.76
671.57	318.83
671.91	318.03
672.25	317.13
672.58	316.34
672.92	315.35
673.26	314.47
673.60	313.77
673.94	312.99
674.28	312.39
674.62	311.55
674.96	310.51
675.30	309.70
675.64	308.77
675.97	307.94
676.31	306.99
676.65	306.03
676.99	305.47
677.33	304.58
677.67	303.73
678.01	302.60
678.34	301.83
678.68	301.19
679.02	300.22
679.36	299.53
679.70	298.71
680.04	298.08
680.37	297.42
680.71	296.71
681.05	296.02
681.39	295.20
681.73	294.53
682.06	293.96
682.40	293.35
682.74	292.78
683.08	292.27
683.42	291.50
683.75	291.00
684.09	290.29
684.43	289.77
684.77	289.19
685.10	288.66
685.44	288.09
685.78	287.41
686.12	286.84
686.45	286.18
686.79	285.61
687.13	285.11
687.46	284.52
687.80	284.15
688.14	283.53
688.48	283.11
688.81	282.49
689.15	282.02
689.49	281.38
689.82	280.82
690.16	280.12
690.50	279.69
690.83	279.12
691.17	278.44
691.51	277.88
691.84	277.38
692.18	276.85
692.52	276.25
692.85	275.89
693.19	275.62
693.52	275.18
693.86	274.61
694.20	274.03
694.53	273.60
694.87	272.94
695.21	272.48
695.54	272.01
695.88	271.58
696.21	270.93
696.55	270.45
696.88	269.99
697.22	269.51
697.56	269.13
697.89	268.74
698.23	268.44
698.56	268.07
698.90	267.75
699.23	267.26
699.57	266.97
699.90	266.50
700.24	265.94
700.58	265.59
700.91	265.31
701.25	265.33
701.58	265.35
701.92	265.17
702.25	264.90
702.59	264.45
702.92	264.17
703.26	263.92
703.59	263.71
703.93	263.85
704.26	263.66
704.60	263.44
704.93	263.11
705.26	262.72
705.60	262.40
705.93	261.98
706.27	261.86
706.60	261.72
706.94	261.62
707.27	261.34
707.61	261.07
707.94	260.82
708.27	260.13
708.61	259.34
708.94	258.87
709.28	258.61
709.61	258.35
709.94	258.13
710.28	257.89
710.61	257.65
710.95	256.88
711.28	256.86
711.61	256.56
711.95	256.36
712.28	256.10
712.61	255.81
712.95	255.75
713.28	255.69
713.61	255.24
713.95	254.82
714.28	254.57
714.61	254.25
714.95	253.96
715.28	253.69
715.61	253.48
715.95	253.39
716.28	252.99
716.61	252.79
716.95	252.40
717.28	252.13
717.61	251.88
717.94	251.64
718.28	251.07
718.61	250.72
718.94	250.41
719.27	250.11
719.61	249.93
719.94	249.66
720.27	249.19
720.60	248.99
720.94	248.85
721.27	248.63
721.60	248.55
721.93	248.34
722.27	248.27
722.60	248.10
722.93	247.79
723.26	247.70
723.59	247.46
723.93	247.43
724.26	247.27
724.59	247.01
724.92	246.83
725.25	246.79
725.59	246.60
725.92	246.49
726.25	246.36
726.58	246.20
726.91	245.99
727.24	245.83
727.57	245.68
727.91	245.30
728.24	245.27
728.57	244.97
728.90	244.85
729.23	244.55
729.56	244.59
729.89	244.39
730.22	244.12
730.55	243.93
730.89	243.65
731.22	243.44
731.55	243.28
731.88	243.15
732.21	242.87
732.54	242.71
732.87	242.50
733.20	242.40
733.53	242.24
733.86	242.04
734.19	241.78
734.52	241.67
734.85	241.95
735.18	241.60
735.51	241.64
735.84	241.48
736.17	241.46
736.50	241.13
736.83	241.64
737.16	241.58
737.49	241.53
737.82	241.37
738.15	241.33
738.48	241.18
738.81	241.03
739.14	240.88
739.47	240.76
739.80	240.61
740.13	240.52
740.46	240.29
740.79	240.17
741.12	240.05
741.45	239.85
741.78	239.48
742.11	239.55
742.44	239.32
742.77	239.28
743.10	239.10
743.43	238.99
743.75	238.37
744.08	238.88
744.41	238.66
744.74	238.60
745.07	238.37
745.40	238.33
745.73	238.52
746.06	238.38
746.39	238.26
746.71	238.18
747.04	237.99
747.37	237.96
747.70	237.93
748.03	237.94
748.36	237.93
748.68	237.83
749.01	237.62
749.34	237.51
749.67	237.39
750.00	237.37
750.33	237.62
750.65	237.53
750.98	236.84
751.31	236.79
751.64	236.69
751.97	236.90
752.29	236.75
752.62	236.34
752.95	236.20
753.28	236.06
753.60	236.01
753.93	236.10
754.26	236.03
754.59	235.81
754.91	235.66
755.24	235.52
755.57	235.45
755.90	235.33
756.22	235.19
756.55	235.07
756.88	234.86
757.20	234.46
757.53	234.21
757.86	234.12
758.19	234.15
758.51	234.04
758.84	233.73
759.17	233.70
759.49	233.71
759.82	233.93
760.15	234.04
760.47	233.94
760.80	233.66
761.13	233.74
761.45	233.63
761.78	233.59
762.11	233.53
762.43	233.35
762.76	233.30
763.08	233.25
763.41	233.21
763.74	233.16
764.06	233.05
764.39	233.11
764.71	233.05
765.04	232.90
765.37	232.74
765.69	232.70
766.02	232.58
766.34	232.50
766.67	232.26
767.00	232.20
767.32	232.38
767.65	232.57
767.97	232.45
768.30	232.47
768.62	232.43
768.95	232.41
769.27	232.46
769.60	232.37
769.92	232.25
770.25	232.03
770.57	231.81
770.90	231.78
771.22	231.66
771.55	231.71
771.87	231.70
772.20	231.71
772.52	232.05
772.85	232.63
773.17	232.60
773.50	232.53
773.82	232.43
774.15	232.18
774.47	231.87
774.80	231.72
775.12	231.69
775.45	231.62
775.77	231.53
776.09	231.45
776.42	231.53
776.74	231.72
777.07	231.72
777.39	231.85
777.72	231.80
778.04	231.81
778.36	231.65
778.69	231.56
779.01	231.59
779.33	231.08
779.66	230.48
779.98	230.38
780.31	230.35
780.63	230.44
780.95	230.56
781.28	230.52
781.60	230.51
781.92	230.50
782.25	230.47
782.57	230.50
782.89	230.37
783.22	230.25
783.54	230.15
783.86	230.14
784.19	230.07
784.51	230.15
784.83	230.03
785.16	230.00
785.48	230.05
785.80	229.96
786.12	230.01
786.45	229.99
786.77	230.01
787.09	230.05
787.42	229.85
787.74	229.76
788.06	229.81
788.38	229.72
788.71	229.56
789.03	229.51
789.35	229.56
789.67	229.56
789.99	229.59
790.32	229.40
790.64	229.51
790.96	229.81
791.28	229.60
791.61	229.61
791.93	229.55
792.25	229.49
792.57	229.84
792.89	229.75
793.21	229.72
793.54	229.64
793.86	229.50
794.18	229.59
794.50	229.45
794.82	229.42
795.14	229.45
795.47	229.58
795.79	229.53
796.11	229.35
796.43	229.23
796.75	229.21
797.07	229.25
797.39	229.13
797.71	228.77
798.04	228.81
798.36	228.85
798.68	228.85
799.00	228.86
799.32	228.56
799.64	228.61
799.96	228.63
800.28	228.73
800.60	228.64
800.92	228.58
801.24	228.56
801.56	228.58
801.89	228.51
802.21	228.46
802.53	228.39
802.85	228.48
803.17	228.79
803.49	228.68
803.81	228.60
804.13	228.58
804.45	228.51
804.77	228.58
805.09	228.48
805.41	228.47
805.73	228.36
806.05	228.26
806.37	228.22
806.69	228.16
807.01	228.10
807.33	228.10
807.65	227.98
807.97	228.24
808.28	228.11
808.60	228.11
808.92	228.10
809.24	228.42
809.56	228.30
809.88	228.06
810.20	228.06
810.52	228.20
810.84	228.07
811.16	228.07
811.48	228.02
811.80	228.16
812.12	228.08
812.43	228.13
812.75	228.08
813.07	228.04
813.39	228.00
813.71	227.92
814.03	227.94
814.35	227.98
814.67	227.68
814.98	227.70
815.30	227.68
815.62	227.60
815.94	227.25
816.26	227.48
816.58	227.46
816.89	227.45
817.21	227.30
817.53	227.37
817.85	227.37
818.17	227.32
818.48	227.19
818.80	227.33
819.12	227.25
819.44	227.28
819.76	227.21
820.07	227.26
820.39	227.26
820.71	227.24
821.03	227.24
821.34	227.27
821.66	227.30
821.98	227.35
822.30	227.35
822.61	227.68
822.93	227.36
823.25	227.33
823.57	227.32
823.88	227.45
824.20	227.50
824.52	227.57
824.83	227.56
825.15	227.48
825.47	227.42
825.79	227.45
826.10	227.38
826.42	227.31
826.74	227.27
827.05	227.18
827.37	227.22
827.69	227.17
828.00	227.14
828.32	227.13
828.64	227.13
828.95	227.36
829.27	227.20
829.58	227.30
829.90	227.38
830.22	227.39
830.53	227.24
830.85	227.10
831.17	227.00
831.48	227.02
831.80	227.05
832.11	226.96
832.43	226.85
832.75	226.84
833.06	227.10
833.38	227.01
833.69	227.09
834.01	227.12
834.32	227.13
834.64	227.11
834.96	227.12
835.27	227.01
835.59	226.81
835.90	226.70
836.22	226.64
836.53	226.54
836.85	226.46
837.16	226.90
837.48	226.92
837.79	226.99
838.11	226.99
838.42	226.98
838.74	227.07
839.05	227.10
839.37	227.10
839.68	226.79
840.00	226.79
840.31	226.79
840.63	226.67
840.94	226.51
841.26	226.40
841.57	226.33
841.88	226.42
842.20	226.31
842.51	226.30
842.83	226.30
843.14	226.69
843.46	226.72
843.77	226.45
844.08	226.44
844.40	226.34
844.71	226.25
845.03	226.23
845.34	226.17
845.65	226.11
845.97	226.12
846.28	226.17
846.60	226.16
846.91	226.10
847.22	226.11
847.54	226.25
847.85	226.34
848.16	226.32
848.48	226.17
848.79	226.36
849.10	226.40
849.42	226.37
849.73	225.90
850.04	225.89
850.36	225.78
850.67	225.80
850.98	225.87
851.30	225.92
851.61	225.87
851.92	225.90
852.23	226.06
852.55	226.06
852.86	226.17
853.17	226.19
853.49	226.25
853.80	226.39
854.11	226.47
854.42	226.49
854.74	226.49
855.05	226.59
855.36	226.35
855.67	226.33
855.99	226.34
856.30	226.95
856.61	227.00
856.92	227.00
857.23	227.00
857.55	226.93
857.86	226.95
858.17	227.04
858.48	226.96
858.79	226.86
859.11	226.86
859.42	226.78
859.73	226.77
860.04	226.77
860.35	226.62
860.66	226.49
860.98	226.49
861.29	226.56
861.60	226.54
861.91	226.71
862.22	226.67
862.53	226.63
862.84	226.06
863.16	226.17
863.47	226.05
863.78	226.06
864.09	226.04
864.40	226.03
864.71	226.06
865.02	226.11
865.33	226.07
865.64	226.09
865.95	226.09
866.27	226.40
866.58	226.31
866.89	226.35
867.20	226.35
867.51	226.32
867.82	226.27
868.13	226.39
868.44	226.28
868.75	226.32
869.06	226.34
869.37	226.41
869.68	226.23
869.99	226.37
870.30	226.39
870.61	226.43
870.92	226.37
871.23	226.32
871.54	226.35
871.85	226.53
872.16	226.57
872.47	226.53
872.78	226.20
873.09	226.28
873.40	226.22
873.71	226.17
874.02	226.11
874.33	225.99
874.64	225.89
874.95	225.93
875.26	225.88
875.56	225.87
875.87	225.76
876.18	225.70
876.49	226.14
876.80	226.12
877.11	226.05
877.42	225.98
877.73	225.98
878.04	225.87
878.35	225.77
878.66	225.70
878.96	225.64
879.27	225.61
879.58	225.58
879.89	225.54
880.20	225.74
880.51	225.74
880.82	225.79
881.12	225.79
881.43	225.66
881.74	225.58
882.05	225.53
882.36	225.60
882.67	225.67
882.97	225.15
883.28	225.06
883.59	225.03
883.90	225.12
884.21	225.18
884.51	225.27
884.82	225.27
885.13	225.24
885.44	225.25
885.74	225.34
886.05	225.27
886.36	225.27
886.67	225.14
886.98	225.38
887.28	225.47
887.59	225.49
887.90	225.60
888.20	225.62
888.51	225.78
888.82	225.78
889.13	225.84
889.43	226.27
889.74	226.31
890.05	226.34
890.35	226.34
890.66	226.22
890.97	226.18
891.28	226.09
891.58	226.11
891.89	226.16
892.20	226.06
892.50	226.10
892.81	226.11
893.12	226.04
893.42	225.83
893.73	225.83
894.04	225.77
894.34	225.77
894.65	225.75
894.95	225.68
895.26	225.65
895.57	225.90
895.87	225.45
896.18	225.52
896.48	225.60
896.79	225.64
897.10	225.76
897.40	225.79
897.71	225.87
898.01	225.88
898.32	225.99
898.63	225.99
898.93	226.01
899.24	226.06
899.54	226.08
899.85	226.04
900.15	226.04
900.46	226.14
900.76	226.18
901.07	226.25
901.38	226.27
901.68	226.35
901.99	226.03
902.29	226.04
902.60	225.94
902.90	225.86
903.21	225.89
903.51	225.90
903.82	225.94
904.12	225.98
904.43	225.99
904.73	225.91
905.03	225.94
905.34	226.38
905.64	226.42
905.95	226.45
906.25	226.51
906.56	226.48
906.86	226.42
907.17	226.35
907.47	226.33
907.77	226.28
908.08	226.15
908.38	226.23
908.69	226.25
908.99	226.34
909.30	226.44
909.60	226.42
909.90	226.36
910.21	226.24
910.51	226.16
910.81	226.17
911.12	226.17
911.42	226.15
911.73	225.68
912.03	225.67
912.33	225.76
912.64	225.74
912.94	225.71
913.24	225.62
913.55	225.61
913.85	225.54
914.15	225.64
914.46	225.72
914.76	225.64
915.06	225.65
915.37	225.64
915.67	225.57
915.97	225.55
916.27	225.47
916.58	225.52
916.88	225.47
917.18	225.44
917.49	225.81
917.79	225.84
918.09	225.90
918.39	225.94
918.70	225.85
919.00	225.86
919.30	226.14
919.60	226.11
919.91	226.14
920.21	226.11
920.51	226.04
920.81	225.98
921.12	226.07
921.42	225.96
921.72	225.97
922.02	225.96
922.32	225.96
922.63	226.06
922.93	226.27
923.23	226.31
923.53	226.30
923.83	225.93
924.13	225.98
924.44	225.96
924.74	226.09
925.04	226.18
925.34	226.09
925.64	225.84
925.94	225.90
926.24	226.07
926.55	226.09
926.85	226.13
927.15	226.21
927.45	226.20
927.75	226.24
928.05	226.26
928.35	226.26
928.65	226.33
928.95	226.26
929.26	226.05
929.56	226.17
929.86	226.20
930.16	226.18
930.46	226.10
930.76	226.11
931.06	225.87
931.36	225.75
931.66	225.91
931.96	225.96
932.26	225.94
932.56	225.72
932.86	225.80
933.16	225.83
933.46	225.76
933.76	225.65
934.06	225.86
934.36	225.97
934.66	225.94
934.96	225.88
935.26	225.95
935.56	226.06
935.86	225.94
936.16	225.89
936.46	225.89
936.76	225.90
937.06	225.92
937.36	225.94
937.66	226.01
937.96	225.99
938.26	225.85
938.56	225.87
938.86	225.95
939.16	226.11
939.46	226.16
939.76	226.15
940.06	226.26
940.35	226.13
940.65	225.93
940.95	225.99
941.25	225.85
941.55	225.74
941.85	225.73
942.15	225.85
942.45	226.01
942.75	225.95
943.04	225.92
943.34	226.05
943.64	226.04
943.94	225.96
944.24	225.95
944.54	226.05
944.84	226.00
945.13	225.90
945.43	225.71
945.73	225.59
946.03	225.61
946.33	225.55
946.62	225.50
946.92	225.46
947.22	225.42
947.52	225.51
947.82	225.65
948.11	225.58
948.41	225.42
948.71	225.26
949.01	225.34
949.31	225.41
949.60	225.30
949.90	225.36
950.20	225.38
950.50	225.36
950.79	225.33
951.09	225.38
951.39	225.35
951.69	225.33
951.98	225.50
952.28	225.46
952.58	225.42
952.87	225.38
953.17	225.42
953.47	225.39
953.76	225.42
954.06	225.32
954.36	225.36
954.66	225.38
954.95	225.52
955.25	225.52
955.55	225.50
955.84	225.43
956.14	225.52
956.44	225.50
956.73	225.40
957.03	225.40
957.32	225.42
957.62	225.48
957.92	225.60
958.21	225.52
958.51	226.15
958.81	226.17
959.10	226.23
959.40	226.35
959.69	226.43
959.99	226.49
960.29	226.56
960.58	226.45
960.88	226.64
961.17	226.55
961.47	226.61
961.76	226.59
962.06	226.70
962.36	226.56
962.65	226.60
962.95	226.66
963.24	226.68
963.54	226.79
963.83	226.79
964.13	226.76
964.42	226.63
964.72	226.19
965.01	226.21
965.31	226.21
965.60	226.09
965.90	226.40
966.19	226.27
966.49	226.20
966.78	226.22
967.08	226.22
967.37	226.24
967.67	226.12
967.96	226.25
968.26	226.21
968.55	226.36
968.85	226.39
969.14	226.43
969.43	226.42
969.73	226.32
970.02	226.34
970.32	226.30
970.61	226.25
970.91	226.13
971.20	226.14
971.49	226.15
971.79	226.28
972.08	225.96
972.38	226.00
972.67	226.08
972.96	226.16
973.26	226.06
973.55	226.27
973.85	226.32
974.14	226.20
974.43	226.32
974.73	226.20
975.02	226.20
975.31	226.14
975.61	226.15
975.90	226.16
976.19	226.14
976.49	226.15
976.78	226.27
977.07	226.29
977.37	226.28
977.66	226.35
977.95	226.25
978.24	226.28
978.54	226.37
978.83	226.25
979.12	226.16
979.42	226.16
979.71	226.02
980.00	225.96
980.29	226.02
980.59	225.80
980.88	225.88
981.17	225.86
981.46	225.86
981.76	225.83
982.05	225.98
982.34	225.95
982.63	225.93
982.93	225.87
983.22	226.01
983.51	226.07
983.80	226.12
984.09	226.14
984.39	226.12
984.68	225.98
984.97	226.02
985.26	225.99
985.55	226.04
985.85	225.99
986.14	226.02
986.43	226.07
986.72	226.08
987.01	225.85
987.30	225.84
987.59	225.76
987.89	225.79
988.18	225.53
988.47	225.56
988.76	225.53
989.05	225.60
989.34	225.49
989.63	225.46
989.92	225.32
990.22	225.20
990.51	225.13
990.80	225.18
991.09	225.18
991.38	225.24
991.67	225.09
991.96	224.98
992.25	225.03
992.54	224.84
992.83	224.87
993.12	224.91
993.41	224.92
993.70	225.17
993.99	225.24
994.28	225.37
994.58	225.40
994.87	225.34
995.16	225.21
995.45	225.13
995.74	225.07
996.03	225.10
996.32	225.30
996.61	225.41
996.90	225.41
997.19	225.44
997.48	225.47
997.77	225.50
998.06	225.52
998.34	225.46
998.63	225.54
998.92	225.53
999.21	225.61
999.50	225.64
999.79	225.44
1000.08	225.45
1000.37	225.45
1000.66	225.40
1000.95	225.56
1001.24	225.62
1001.53	225.70
1001.82	225.66
1002.11	225.61
1002.40	225.56
1002.68	225.74
1002.97	226.06
1003.26	225.98
1003.55	225.92
1003.84	225.93
1004.13	226.09
1004.42	226.13
1004.71	226.10
1004.99	226.10
1005.28	226.21
1005.57	226.16
1005.86	226.16
1006.15	226.10
1006.44	226.03
1006.72	226.09
1007.01	226.00
1007.30	225.97
1007.59	225.98
1007.88	226.03
1008.17	226.08
1008.45	225.95
1008.74	225.66
1009.03	225.41
1009.32	225.41
1009.60	225.41
1009.89	225.43
1010.18	225.29
1010.47	225.28
1010.76	225.34
1011.04	225.34
1011.33	225.40
1011.62	225.43
1011.91	225.46
1012.19	225.41
1012.48	225.43
1012.77	225.42
1013.05	225.63
1013.34	225.70
1013.63	225.66
1013.92	225.65
1014.20	225.63
1014.49	225.74
1014.78	225.88
1015.06	225.72
1015.35	225.80
1015.64	225.89
1015.92	225.90
1016.21	225.95
1016.50	225.96
1016.78	226.04
1017.07	226.08
1017.36	226.00
1017.64	225.96
1017.93	226.01
1018.22	226.02
1018.50	226.07
1018.79	226.07
1019.08	225.87
1019.36	225.87
1019.65	225.86
1019.93	226.06
1020.22	226.14
1020.51	226.38
1020.79	226.32
1021.08	224.95
1021.36	226.15
1021.65	225.65
1021.94	225.75
1022.22	225.80
1022.51	225.75
1022.79	229.15
1023.08	226.80
1023.36	231.80
1023.65	225.30
>>>>>End Processed Spectral Data<<<<<
