SpectraSuite Data File
++++++++++++++++++++++++++++++++++++
Date: Wed Sep 04 17:53:54 EDT 2013
User: lab3
Dark Spectrum Present: Yes
Reference Spectrum Present: No
Number of Sampled Component Spectra: 1
Spectrometers: USB2E7196
Integration Time (usec): 170000 (USB2E7196)
Spectra Averaged: 20 (USB2E7196)
Boxcar Smoothing: 10 (USB2E7196)
Correct for Electrical Dark: No (USB2E7196)
Strobe/Lamp Enabled: No (USB2E7196)
Correct for Detector Non-linearity: No (USB2E7196)
Correct for Stray Light: No (USB2E7196)
Number of Pixels in Processed Spectrum: 2048
>>>>>Begin Processed Spectral Data<<<<<
339.09	0.00
339.48	212.70
339.86	214.90
340.24	215.55
340.63	217.70
341.01	224.80
341.39	219.95
341.78	221.35
342.16	223.75
342.54	223.45
342.93	212.12
343.31	222.80
343.69	223.41
344.07	223.85
344.46	224.38
344.84	224.76
345.22	224.79
345.60	225.06
345.99	225.35
346.37	225.44
346.75	225.55
347.13	225.56
347.52	225.64
347.90	225.92
348.28	226.06
348.66	226.25
349.05	226.10
349.43	226.08
349.81	226.19
350.19	226.18
350.57	226.34
350.96	226.43
351.34	226.53
351.72	226.57
352.10	226.64
352.48	226.66
352.87	226.67
353.25	226.77
353.63	226.83
354.01	226.80
354.39	226.94
354.77	227.02
355.15	227.21
355.54	227.18
355.92	227.03
356.30	227.03
356.68	227.39
357.06	227.49
357.44	227.61
357.82	227.66
358.20	228.16
358.58	228.10
358.97	228.23
359.35	228.45
359.73	228.64
360.11	228.70
360.49	228.79
360.87	228.87
361.25	228.95
361.63	229.16
362.01	229.24
362.39	229.24
362.77	229.33
363.15	229.36
363.53	229.48
363.91	229.60
364.29	229.66
364.67	229.27
365.05	229.39
365.43	229.45
365.81	229.49
366.19	229.37
366.57	229.64
366.95	229.59
367.33	229.46
367.71	229.45
368.09	229.60
368.47	229.55
368.85	229.50
369.23	229.58
369.61	229.44
369.99	229.59
370.37	229.57
370.75	229.75
371.13	229.64
371.51	229.53
371.89	229.49
372.27	229.45
372.65	229.42
373.03	229.29
373.41	229.17
373.78	229.07
374.16	228.74
374.54	228.57
374.92	228.49
375.30	228.44
375.68	228.29
376.06	228.28
376.44	228.20
376.82	228.23
377.19	228.16
377.57	228.05
377.95	227.79
378.33	227.76
378.71	227.43
379.09	227.42
379.47	227.38
379.84	227.24
380.22	227.14
380.60	227.01
380.98	227.03
381.36	227.00
381.73	226.87
382.11	226.93
382.49	226.83
382.87	226.72
383.25	226.63
383.62	227.09
384.00	226.91
384.38	226.89
384.76	226.97
385.13	227.06
385.51	227.00
385.89	226.94
386.27	226.92
386.64	226.90
387.02	226.79
387.40	226.71
387.78	226.72
388.15	226.73
388.53	226.60
388.91	226.46
389.29	226.36
389.66	226.46
390.04	226.34
390.42	226.40
390.79	226.40
391.17	226.41
391.55	225.83
391.92	225.82
392.30	225.84
392.68	225.68
393.05	225.60
393.43	225.65
393.81	225.74
394.18	225.65
394.56	225.70
394.94	225.85
395.31	225.91
395.69	226.12
396.06	226.21
396.44	226.34
396.82	226.35
397.19	226.65
397.57	226.61
397.95	226.79
398.32	226.73
398.70	226.92
399.07	227.09
399.45	227.22
399.82	227.27
400.20	227.33
400.58	227.42
400.95	227.34
401.33	227.53
401.70	227.95
402.08	228.11
402.45	228.25
402.83	228.52
403.20	228.66
403.58	228.70
403.95	228.96
404.33	229.28
404.71	229.58
405.08	230.03
405.46	230.37
405.83	230.54
406.21	230.81
406.58	231.03
406.96	231.28
407.33	231.68
407.70	232.14
408.08	232.89
408.45	233.35
408.83	233.90
409.20	234.31
409.58	234.41
409.95	235.01
410.33	235.55
410.70	235.90
411.08	236.59
411.45	237.32
411.82	237.90
412.20	238.57
412.57	239.55
412.95	239.93
413.32	240.77
413.69	241.62
414.07	242.58
414.44	243.60
414.82	244.67
415.19	245.80
415.56	246.95
415.94	247.99
416.31	249.44
416.68	250.77
417.06	252.43
417.43	254.13
417.81	255.83
418.18	257.64
418.55	259.55
418.93	261.54
419.30	263.57
419.67	265.73
420.04	268.02
420.42	270.28
420.79	273.27
421.16	276.00
421.54	279.08
421.91	282.04
422.28	285.04
422.66	288.25
423.03	291.63
423.40	294.97
423.77	298.48
424.15	302.06
424.52	305.87
424.89	309.93
425.26	313.84
425.64	317.57
426.01	321.71
426.38	326.14
426.75	330.64
427.13	335.05
427.50	339.73
427.87	344.56
428.24	349.44
428.61	354.04
428.99	359.42
429.36	364.85
429.73	370.31
430.10	375.83
430.47	381.42
430.85	386.96
431.22	393.05
431.59	399.69
431.96	405.70
432.33	412.59
432.70	419.21
433.08	427.02
433.45	434.47
433.82	441.82
434.19	449.92
434.56	457.92
434.93	465.67
435.30	473.47
435.68	482.00
436.05	490.43
436.42	498.59
436.79	506.24
437.16	514.50
437.53	523.28
437.90	531.86
438.27	540.50
438.64	549.58
439.01	557.99
439.38	565.19
439.75	572.51
440.13	580.54
440.50	587.95
440.87	593.92
441.24	600.19
441.61	607.13
441.98	612.20
442.35	618.10
442.72	624.19
443.09	630.08
443.46	633.52
443.83	635.88
444.20	637.83
444.57	640.51
444.94	641.65
445.31	642.90
445.68	644.42
446.05	644.59
446.42	643.23
446.79	641.79
447.16	640.31
447.53	639.11
447.90	635.41
448.27	631.87
448.64	627.17
449.01	623.48
449.37	617.32
449.74	611.36
450.11	604.45
450.48	596.66
450.85	588.65
451.22	581.90
451.59	575.32
451.96	569.18
452.33	561.06
452.70	553.74
453.07	545.01
453.43	535.91
453.80	527.51
454.17	519.52
454.54	511.84
454.91	503.66
455.28	495.64
455.65	488.24
456.02	481.41
456.38	475.06
456.75	467.44
457.12	461.05
457.49	454.75
457.86	448.41
458.23	443.36
458.59	437.64
458.96	431.92
459.33	426.82
459.70	421.69
460.07	417.54
460.43	412.85
460.80	408.53
461.17	404.80
461.54	400.91
461.91	397.09
462.27	393.14
462.64	389.88
463.01	386.36
463.38	383.08
463.74	379.14
464.11	376.11
464.48	373.53
464.85	370.76
465.21	368.64
465.58	366.32
465.95	363.37
466.32	361.12
466.68	358.75
467.05	356.46
467.42	354.28
467.78	352.00
468.15	349.89
468.52	348.28
468.88	345.99
469.25	343.94
469.62	342.52
469.98	340.91
470.35	339.34
470.72	337.80
471.08	336.08
471.45	334.80
471.82	333.59
472.18	332.04
472.55	330.88
472.92	329.54
473.28	328.43
473.65	327.39
474.02	326.40
474.38	325.61
474.75	324.92
475.11	323.95
475.48	323.30
475.85	322.65
476.21	321.99
476.58	321.55
476.94	321.11
477.31	320.53
477.67	320.05
478.04	319.73
478.41	319.46
478.77	319.73
479.14	319.40
479.50	319.26
479.87	319.31
480.23	319.30
480.60	319.26
480.96	319.29
481.33	319.70
481.69	319.84
482.06	320.07
482.42	320.25
482.79	320.65
483.15	321.08
483.52	321.64
483.88	322.16
484.25	322.78
484.61	323.57
484.98	324.26
485.34	325.37
485.71	326.38
486.07	327.35
486.44	328.01
486.80	329.12
487.17	330.27
487.53	331.65
487.90	333.04
488.26	334.67
488.62	336.30
488.99	337.71
489.35	339.54
489.72	341.48
490.08	343.56
490.44	345.64
490.81	347.91
491.17	350.09
491.54	352.57
491.90	355.18
492.26	357.84
492.63	360.73
492.99	363.54
493.36	366.61
493.72	369.97
494.08	373.38
494.45	377.10
494.81	381.00
495.17	384.85
495.54	389.13
495.90	393.48
496.26	398.01
496.63	402.72
496.99	407.42
497.35	412.45
497.72	417.69
498.08	423.07
498.44	428.66
498.80	434.81
499.17	440.77
499.53	446.98
499.89	453.71
500.26	460.54
500.62	467.57
500.98	474.95
501.34	482.46
501.71	490.24
502.07	497.99
502.43	506.08
502.79	514.62
503.16	523.22
503.52	532.05
503.88	541.21
504.24	550.89
504.60	561.03
504.97	571.33
505.33	581.56
505.69	592.59
506.05	603.80
506.41	615.06
506.78	626.81
507.14	638.95
507.50	651.19
507.86	663.56
508.22	676.41
508.59	689.43
508.95	703.04
509.31	717.17
509.67	731.49
510.03	745.76
510.39	760.36
510.75	775.46
511.12	790.61
511.48	806.21
511.84	822.00
512.20	837.83
512.56	853.94
512.92	870.94
513.28	887.77
513.64	905.00
514.00	922.31
514.37	939.99
514.73	958.08
515.09	976.23
515.45	994.78
515.81	1013.17
516.17	1031.82
516.53	1050.48
516.89	1068.98
517.25	1088.36
517.61	1108.49
517.97	1128.91
518.33	1148.75
518.69	1169.00
519.05	1189.59
519.41	1210.19
519.77	1230.94
520.13	1251.84
520.49	1272.36
520.85	1294.88
521.21	1315.84
521.57	1337.33
521.93	1357.99
522.29	1379.07
522.65	1399.64
523.01	1420.65
523.37	1441.10
523.73	1462.23
524.09	1482.70
524.45	1503.44
524.81	1524.46
525.17	1544.75
525.53	1564.68
525.89	1585.54
526.25	1606.32
526.61	1626.30
526.97	1647.06
527.33	1668.61
527.68	1690.22
528.04	1711.29
528.40	1730.52
528.76	1751.52
529.12	1771.58
529.48	1792.56
529.84	1812.23
530.20	1833.35
530.56	1853.88
530.91	1874.98
531.27	1895.13
531.63	1915.72
531.99	1936.20
532.35	1955.73
532.71	1976.29
533.07	1997.28
533.42	2017.06
533.78	2036.92
534.14	2057.17
534.50	2076.54
534.86	2095.67
535.21	2113.13
535.57	2131.64
535.93	2149.46
536.29	2166.98
536.65	2185.13
537.00	2202.57
537.36	2220.50
537.72	2237.01
538.08	2253.99
538.44	2270.49
538.79	2286.63
539.15	2303.02
539.51	2319.27
539.87	2334.71
540.22	2348.50
540.58	2362.72
540.94	2376.11
541.29	2388.74
541.65	2401.17
542.01	2413.47
542.37	2423.94
542.72	2434.87
543.08	2445.50
543.44	2457.06
543.79	2467.05
544.15	2477.08
544.51	2487.14
544.87	2496.54
545.22	2504.96
545.58	2512.84
545.94	2519.88
546.29	2526.69
546.65	2532.83
547.01	2538.08
547.36	2543.68
547.72	2549.20
548.07	2552.92
548.43	2558.13
548.79	2562.72
549.14	2566.58
549.50	2570.37
549.86	2574.25
550.21	2577.88
550.57	2581.11
550.92	2582.34
551.28	2583.60
551.64	2585.80
551.99	2587.20
552.35	2589.00
552.70	2591.39
553.06	2593.06
553.41	2594.60
553.77	2596.33
554.13	2597.94
554.48	2599.38
554.84	2600.43
555.19	2601.50
555.55	2603.52
555.90	2602.74
556.26	2601.98
556.61	2600.32
556.97	2597.94
557.32	2597.10
557.68	2595.79
558.03	2594.48
558.39	2593.26
558.74	2592.17
559.10	2588.51
559.45	2584.95
559.81	2580.35
560.16	2574.68
560.52	2569.49
560.87	2564.87
561.23	2559.37
561.58	2553.42
561.94	2546.59
562.29	2538.97
562.64	2532.23
563.00	2523.82
563.35	2517.14
563.71	2510.49
564.06	2504.37
564.42	2498.18
564.77	2491.22
565.12	2484.07
565.48	2476.39
565.83	2468.66
566.19	2460.83
566.54	2453.28
566.89	2445.75
567.25	2437.96
567.60	2431.05
567.96	2423.82
568.31	2415.50
568.66	2406.86
569.02	2397.83
569.37	2389.95
569.72	2382.87
570.08	2373.49
570.43	2364.00
570.78	2355.19
571.14	2345.89
571.49	2335.70
571.84	2325.98
572.20	2315.32
572.55	2305.05
572.90	2293.95
573.26	2283.54
573.61	2272.46
573.96	2261.04
574.31	2248.61
574.67	2236.76
575.02	2224.12
575.37	2211.02
575.72	2198.19
576.08	2186.05
576.43	2173.71
576.78	2160.25
577.13	2146.35
577.49	2133.75
577.84	2122.07
578.19	2110.07
578.54	2097.43
578.90	2085.65
579.25	2073.26
579.60	2060.50
579.95	2047.43
580.30	2034.35
580.66	2020.73
581.01	2007.49
581.36	1993.97
581.71	1981.73
582.06	1968.94
582.42	1956.67
582.77	1944.34
583.12	1932.62
583.47	1920.48
583.82	1908.50
584.17	1896.50
584.53	1884.62
584.88	1871.51
585.23	1858.14
585.58	1843.75
585.93	1830.57
586.28	1817.14
586.63	1803.14
586.98	1789.35
587.34	1776.28
587.69	1762.86
588.04	1750.31
588.39	1738.29
588.74	1725.96
589.09	1714.05
589.44	1701.14
589.79	1688.91
590.14	1677.12
590.49	1664.71
590.84	1652.80
591.19	1640.72
591.54	1628.78
591.89	1616.88
592.25	1606.74
592.60	1595.25
592.95	1584.02
593.30	1572.28
593.65	1560.25
594.00	1548.52
594.35	1538.66
594.70	1526.82
595.05	1515.84
595.40	1504.02
595.75	1491.92
596.10	1480.75
596.45	1469.08
596.80	1458.49
597.15	1447.05
597.50	1435.17
597.85	1423.88
598.19	1412.15
598.54	1400.54
598.89	1389.33
599.24	1378.56
599.59	1366.84
599.94	1356.19
600.29	1345.90
600.64	1335.54
600.99	1325.10
601.34	1315.60
601.69	1304.29
602.04	1294.55
602.39	1284.84
602.74	1275.58
603.08	1266.23
603.43	1256.93
603.78	1247.12
604.13	1237.37
604.48	1227.68
604.83	1218.03
605.18	1208.45
605.53	1198.81
605.87	1189.89
606.22	1181.26
606.57	1172.15
606.92	1162.82
607.27	1153.88
607.62	1145.11
607.96	1136.45
608.31	1128.61
608.66	1119.97
609.01	1111.57
609.36	1103.05
609.70	1094.51
610.05	1085.84
610.40	1077.67
610.75	1069.11
611.10	1060.84
611.44	1052.33
611.79	1044.30
612.14	1036.44
612.49	1028.43
612.83	1021.21
613.18	1013.39
613.53	1005.51
613.88	997.67
614.22	990.20
614.57	982.47
614.92	974.50
615.27	967.18
615.61	959.33
615.96	951.86
616.31	944.40
616.65	937.59
617.00	930.47
617.35	923.31
617.70	916.05
618.04	909.05
618.39	901.98
618.74	895.66
619.08	888.63
619.43	881.69
619.78	874.72
620.12	867.33
620.47	860.40
620.82	853.26
621.16	846.50
621.51	840.18
621.85	833.75
622.20	827.19
622.55	820.52
622.89	814.03
623.24	807.62
623.59	801.32
623.93	794.61
624.28	788.41
624.62	782.84
624.97	777.06
625.32	771.29
625.66	765.45
626.01	759.32
626.35	753.96
626.70	748.40
627.04	743.20
627.39	737.84
627.73	732.60
628.08	727.60
628.43	722.03
628.77	716.44
629.12	711.30
629.46	706.49
629.81	701.70
630.15	697.03
630.50	692.24
630.84	687.46
631.19	682.79
631.53	678.27
631.88	673.07
632.22	668.11
632.57	663.62
632.91	659.03
633.26	654.73
633.60	650.09
633.95	645.63
634.29	641.00
634.64	636.74
634.98	631.98
635.32	627.54
635.67	623.58
636.01	619.55
636.36	615.04
636.70	610.99
637.05	606.76
637.39	602.72
637.73	598.71
638.08	594.70
638.42	590.67
638.77	586.30
639.11	582.02
639.45	577.71
639.80	573.26
640.14	569.32
640.49	565.31
640.83	561.53
641.17	557.81
641.52	553.92
641.86	550.20
642.20	547.09
642.55	543.52
642.89	539.88
643.23	536.34
643.58	533.18
643.92	529.46
644.26	526.07
644.61	522.72
644.95	519.39
645.29	515.97
645.64	512.81
645.98	509.70
646.32	506.72
646.66	503.82
647.01	500.87
647.35	498.09
647.69	495.12
648.04	492.25
648.38	489.38
648.72	486.69
649.06	483.67
649.41	480.61
649.75	477.55
650.09	474.79
650.43	471.98
650.78	469.12
651.12	466.33
651.46	463.57
651.80	460.83
652.14	458.04
652.49	455.69
652.83	453.07
653.17	450.54
653.51	447.93
653.85	445.52
654.20	443.17
654.54	440.45
654.88	437.96
655.22	435.73
655.56	433.31
655.90	430.93
656.25	428.72
656.59	426.45
656.93	424.39
657.27	422.26
657.61	419.83
657.95	417.64
658.29	415.52
658.64	413.33
658.98	411.11
659.32	408.79
659.66	406.46
660.00	404.30
660.34	402.19
660.68	400.14
661.02	398.08
661.36	395.98
661.70	394.15
662.05	392.25
662.39	390.18
662.73	388.45
663.07	386.80
663.41	384.97
663.75	382.99
664.09	381.08
664.43	379.14
664.77	377.55
665.11	375.71
665.45	374.14
665.79	372.51
666.13	370.76
666.47	369.22
666.81	367.55
667.15	365.90
667.49	364.37
667.83	363.08
668.17	361.56
668.51	360.14
668.85	358.70
669.19	357.51
669.53	356.08
669.87	354.44
670.21	352.84
670.55	351.38
670.89	350.24
671.23	348.96
671.57	347.60
671.91	346.24
672.25	345.06
672.58	343.79
672.92	342.43
673.26	341.23
673.60	340.04
673.94	338.85
674.28	337.65
674.62	336.54
674.96	335.20
675.30	334.03
675.64	332.91
675.97	331.70
676.31	330.36
676.65	329.11
676.99	328.23
677.33	327.05
677.67	326.09
678.01	324.85
678.34	323.83
678.68	322.95
679.02	321.83
679.36	320.77
679.70	319.68
680.04	318.65
680.37	317.70
680.71	316.79
681.05	315.97
681.39	315.18
681.73	314.20
682.06	313.32
682.40	312.38
682.74	311.53
683.08	310.84
683.42	309.82
683.75	309.14
684.09	308.17
684.43	307.41
684.77	306.39
685.10	305.64
685.44	304.73
685.78	303.80
686.12	303.01
686.45	302.19
686.79	301.34
687.13	300.70
687.46	300.00
687.80	299.39
688.14	298.50
688.48	297.72
688.81	296.99
689.15	296.36
689.49	295.65
689.82	294.88
690.16	293.99
690.50	293.42
690.83	292.60
691.17	291.75
691.51	291.07
691.84	290.54
692.18	289.78
692.52	289.09
692.85	288.54
693.19	288.14
693.52	287.56
693.86	287.04
694.20	286.35
694.53	285.70
694.87	284.95
695.21	284.30
695.54	283.73
695.88	283.05
696.21	282.24
696.55	281.65
696.88	281.02
697.22	280.34
697.56	279.81
697.89	279.27
698.23	278.89
698.56	278.35
698.90	277.84
699.23	277.30
699.57	276.82
699.90	276.13
700.24	275.44
700.58	274.96
700.91	274.47
701.25	274.38
701.58	274.26
701.92	273.85
702.25	273.56
702.59	273.06
702.92	272.65
703.26	272.31
703.59	271.86
703.93	271.90
704.26	271.62
704.60	271.14
704.93	270.64
705.26	270.13
705.60	269.79
705.93	269.22
706.27	268.93
706.60	268.65
706.94	268.58
707.27	268.19
707.61	267.79
707.94	267.37
708.27	266.54
708.61	265.76
708.94	265.37
709.28	264.83
709.61	264.38
709.94	264.02
710.28	263.68
710.61	263.40
710.95	262.56
711.28	262.50
711.61	262.07
711.95	261.85
712.28	261.47
712.61	261.10
712.95	261.07
713.28	260.96
713.61	260.51
713.95	259.89
714.28	259.57
714.61	259.17
714.95	258.77
715.28	258.50
715.61	258.18
715.95	257.86
716.28	257.61
716.61	257.47
716.95	257.16
717.28	256.78
717.61	256.45
717.94	256.24
718.28	255.66
718.61	255.38
718.94	255.01
719.27	254.70
719.61	254.47
719.94	254.08
720.27	253.58
720.60	253.34
720.94	253.17
721.27	252.95
721.60	252.78
721.93	252.55
722.27	252.48
722.60	252.35
722.93	252.03
723.26	251.85
723.59	251.51
723.93	251.38
724.26	251.23
724.59	250.99
724.92	250.65
725.25	250.58
725.59	250.44
725.92	250.28
726.25	250.18
726.58	249.95
726.91	249.70
727.24	249.56
727.57	249.38
727.91	249.14
728.24	248.94
728.57	248.70
728.90	248.66
729.23	248.30
729.56	248.26
729.89	248.12
730.22	247.95
730.55	247.75
730.89	247.50
731.22	247.26
731.55	247.08
731.88	247.00
732.21	246.63
732.54	246.37
732.87	246.29
733.20	246.13
733.53	245.96
733.86	245.87
734.19	245.65
734.52	245.51
734.85	245.67
735.18	245.55
735.51	245.59
735.84	245.33
736.17	245.32
736.50	244.95
736.83	245.34
737.16	245.16
737.49	245.05
737.82	244.89
738.15	244.86
738.48	244.70
738.81	244.57
739.14	244.43
739.47	244.28
739.80	244.06
740.13	243.92
740.46	243.75
740.79	243.51
741.12	243.28
741.45	243.12
741.78	242.70
742.11	242.63
742.44	242.31
742.77	242.31
743.10	242.15
743.43	242.00
743.75	241.35
744.08	241.80
744.41	241.65
744.74	241.50
745.07	241.15
745.40	241.14
745.73	241.16
746.06	241.08
746.39	241.07
746.71	240.96
747.04	240.72
747.37	240.64
747.70	240.60
748.03	240.59
748.36	240.47
748.68	240.28
749.01	240.03
749.34	239.95
749.67	239.86
750.00	239.73
750.33	240.01
750.65	239.96
750.98	239.25
751.31	239.16
751.64	239.15
751.97	239.34
752.29	239.21
752.62	238.95
752.95	238.82
753.28	238.64
753.60	238.46
753.93	238.53
754.26	238.37
754.59	238.15
754.91	237.99
755.24	237.91
755.57	237.89
755.90	237.80
756.22	237.69
756.55	237.45
756.88	237.35
757.20	236.86
757.53	236.62
757.86	236.56
758.19	236.45
758.51	236.34
758.84	236.03
759.17	235.85
759.49	235.72
759.82	235.83
760.15	235.78
760.47	235.70
760.80	235.52
761.13	235.51
761.45	235.43
761.78	235.36
762.11	235.31
762.43	235.20
762.76	235.05
763.08	235.06
763.41	234.95
763.74	234.83
764.06	234.81
764.39	234.80
764.71	234.73
765.04	234.60
765.37	234.44
765.69	234.37
766.02	234.20
766.34	234.14
766.67	233.87
767.00	233.93
767.32	234.14
767.65	234.32
767.97	234.21
768.30	234.21
768.62	234.19
768.95	234.03
769.27	234.03
769.60	234.05
769.92	233.90
770.25	233.81
770.57	233.63
770.90	233.61
771.22	233.50
771.55	233.47
771.87	233.42
772.20	233.36
772.52	233.75
772.85	234.33
773.17	234.20
773.50	234.14
773.82	233.95
774.15	233.64
774.47	233.29
774.80	233.22
775.12	233.13
775.45	232.94
775.77	232.93
776.09	232.84
776.42	232.76
776.74	232.84
777.07	232.76
777.39	232.81
777.72	232.67
778.04	232.67
778.36	232.58
778.69	232.62
779.01	232.62
779.33	232.14
779.66	231.60
779.98	231.65
780.31	231.64
780.63	231.85
780.95	231.85
781.28	231.80
781.60	231.72
781.92	231.65
782.25	231.68
782.57	231.69
782.89	231.65
783.22	231.60
783.54	231.46
783.86	231.51
784.19	231.40
784.51	231.47
784.83	231.34
785.16	231.28
785.48	231.19
785.80	231.18
786.12	231.21
786.45	231.13
786.77	231.03
787.09	230.86
787.42	230.63
787.74	230.63
788.06	230.68
788.38	230.66
788.71	230.62
789.03	230.58
789.35	230.52
789.67	230.40
789.99	230.44
790.32	230.36
790.64	230.35
790.96	230.68
791.28	230.48
791.61	230.46
791.93	230.41
792.25	230.31
792.57	230.63
792.89	230.42
793.21	230.45
793.54	230.43
793.86	230.43
794.18	230.37
794.50	230.26
794.82	230.15
795.14	230.16
795.47	230.25
795.79	230.19
796.11	230.04
796.43	230.04
796.75	229.97
797.07	229.92
797.39	229.90
797.71	229.57
798.04	229.57
798.36	229.50
798.68	229.48
799.00	229.55
799.32	229.19
799.64	229.32
799.96	229.22
800.28	229.27
800.60	229.20
800.92	229.24
801.24	229.23
801.56	229.30
801.89	229.24
802.21	229.30
802.53	229.26
802.85	229.39
803.17	229.56
803.49	229.50
803.81	229.47
804.13	229.38
804.45	229.31
804.77	229.39
805.09	229.48
805.41	229.47
805.73	229.30
806.05	229.21
806.37	229.15
806.69	229.16
807.01	229.08
807.33	229.15
807.65	228.97
807.97	229.15
808.28	229.04
808.60	229.04
808.92	228.87
809.24	229.10
809.56	229.03
809.88	228.87
810.20	228.86
810.52	228.97
810.84	228.88
811.16	228.82
811.48	228.74
811.80	228.85
812.12	228.83
812.43	228.98
812.75	228.99
813.07	228.94
813.39	228.97
813.71	228.90
814.03	228.83
814.35	228.89
814.67	228.64
814.98	228.60
815.30	228.62
815.62	228.52
815.94	228.27
816.26	228.42
816.58	228.35
816.89	228.40
817.21	228.24
817.53	228.25
817.85	228.32
818.17	228.32
818.48	228.15
818.80	228.24
819.12	228.21
819.44	228.16
819.76	228.16
820.07	228.13
820.39	228.18
820.71	228.28
821.03	228.25
821.34	228.28
821.66	228.31
821.98	228.28
822.30	228.30
822.61	228.60
822.93	228.43
823.25	228.41
823.57	228.32
823.88	228.45
824.20	228.52
824.52	228.49
824.83	228.47
825.15	228.44
825.47	228.36
825.79	228.36
826.10	228.30
826.42	228.31
826.74	228.29
827.05	228.22
827.37	228.22
827.69	228.22
828.00	228.21
828.32	228.20
828.64	228.21
828.95	228.48
829.27	228.31
829.58	228.25
829.90	228.31
830.22	228.34
830.53	228.20
830.85	228.13
831.17	228.09
831.48	228.11
831.80	228.12
832.11	228.10
832.43	228.01
832.75	228.04
833.06	228.23
833.38	228.13
833.69	228.19
834.01	228.20
834.32	228.14
834.64	228.14
834.96	228.18
835.27	228.14
835.59	227.97
835.90	227.85
836.22	227.88
836.53	227.72
836.85	227.70
837.16	228.18
837.48	228.24
837.79	228.40
838.11	228.40
838.42	228.35
838.74	228.45
839.05	228.44
839.37	228.36
839.68	228.09
840.00	228.04
840.31	228.07
840.63	227.95
840.94	227.86
841.26	227.77
841.57	227.68
841.88	227.72
842.20	227.62
842.51	227.56
842.83	227.55
843.14	228.03
843.46	228.03
843.77	227.74
844.08	227.57
844.40	227.44
844.71	227.41
845.03	227.40
845.34	227.30
845.65	227.26
845.97	227.31
846.28	227.33
846.60	227.36
846.91	227.26
847.22	227.18
847.54	227.29
847.85	227.42
848.16	227.36
848.48	227.22
848.79	227.46
849.10	227.52
849.42	227.53
849.73	227.13
850.04	227.11
850.36	226.97
850.67	227.15
850.98	227.08
851.30	227.07
851.61	227.03
851.92	227.00
852.23	227.21
852.55	227.26
852.86	227.31
853.17	227.40
853.49	227.51
853.80	227.69
854.11	227.74
854.42	227.81
854.74	227.79
855.05	227.86
855.36	227.51
855.67	227.54
855.99	227.48
856.30	228.01
856.61	228.01
856.92	228.00
857.23	227.93
857.55	227.93
857.86	227.93
858.17	227.98
858.48	227.95
858.79	227.79
859.11	227.80
859.42	227.79
859.73	227.69
860.04	227.63
860.35	227.49
860.66	227.43
860.98	227.33
861.29	227.38
861.60	227.31
861.91	227.50
862.22	227.36
862.53	227.28
862.84	226.70
863.16	226.79
863.47	226.74
863.78	226.76
864.09	226.78
864.40	226.70
864.71	226.69
865.02	226.68
865.33	226.67
865.64	226.55
865.95	226.52
866.27	226.89
866.58	226.89
866.89	226.90
867.20	226.87
867.51	226.78
867.82	226.84
868.13	227.03
868.44	226.94
868.75	227.12
869.06	227.18
869.37	227.19
869.68	227.02
869.99	227.13
870.30	227.10
870.61	227.17
870.92	227.20
871.23	227.25
871.54	227.36
871.85	227.48
872.16	227.60
872.47	227.56
872.78	227.18
873.09	227.25
873.40	227.25
873.71	227.28
874.02	227.32
874.33	227.22
874.64	227.15
874.95	227.15
875.26	227.02
875.56	227.06
875.87	227.09
876.18	227.09
876.49	227.48
876.80	227.51
877.11	227.45
877.42	227.41
877.73	227.39
878.04	227.28
878.35	227.27
878.66	227.16
878.96	227.16
879.27	227.20
879.58	227.15
879.89	227.18
880.20	227.24
880.51	227.24
880.82	227.29
881.12	227.30
881.43	227.25
881.74	227.20
882.05	227.11
882.36	227.10
882.67	227.15
882.97	226.65
883.28	226.58
883.59	226.55
883.90	226.64
884.21	226.66
884.51	226.68
884.82	226.53
885.13	226.66
885.44	226.71
885.74	226.70
886.05	226.72
886.36	226.70
886.67	226.57
886.98	226.80
887.28	226.82
887.59	226.74
887.90	226.78
888.20	226.82
888.51	227.03
888.82	226.99
889.13	227.03
889.43	227.42
889.74	227.35
890.05	227.32
890.35	227.33
890.66	227.25
890.97	227.24
891.28	227.30
891.58	227.26
891.89	227.22
892.20	227.22
892.50	227.15
892.81	227.15
893.12	227.09
893.42	226.88
893.73	226.87
894.04	226.91
894.34	226.93
894.65	226.86
894.95	226.74
895.26	226.80
895.57	227.02
895.87	226.64
896.18	226.77
896.48	226.85
896.79	226.79
897.10	226.87
897.40	226.82
897.71	226.83
898.01	226.80
898.32	226.79
898.63	226.80
898.93	226.85
899.24	226.83
899.54	226.95
899.85	226.93
900.15	226.86
900.46	226.87
900.76	226.94
901.07	226.99
901.38	226.93
901.68	226.98
901.99	226.75
902.29	226.73
902.60	226.66
902.90	226.59
903.21	226.55
903.51	226.51
903.82	226.71
904.12	226.74
904.43	226.75
904.73	226.75
905.03	226.77
905.34	227.25
905.64	227.20
905.95	227.12
906.25	227.12
906.56	227.10
906.86	227.02
907.17	226.91
907.47	226.90
907.77	226.86
908.08	226.75
908.38	226.78
908.69	226.79
908.99	226.92
909.30	226.94
909.60	226.98
909.90	226.98
910.21	226.80
910.51	226.73
910.81	226.67
911.12	226.75
911.42	226.73
911.73	226.12
912.03	226.16
912.33	226.24
912.64	226.15
912.94	226.18
913.24	226.10
913.55	226.06
913.85	226.06
914.15	226.17
914.46	226.20
914.76	226.11
915.06	226.10
915.37	225.99
915.67	225.99
915.97	226.00
916.27	225.89
916.58	225.93
916.88	225.80
917.18	225.82
917.49	226.15
917.79	226.15
918.09	226.25
918.39	226.42
918.70	226.39
919.00	226.45
919.30	226.66
919.60	226.75
919.91	226.61
920.21	226.64
920.51	226.47
920.81	226.48
921.12	226.56
921.42	226.56
921.72	226.62
922.02	226.57
922.32	226.64
922.63	226.66
922.93	226.86
923.23	227.01
923.53	226.97
923.83	226.61
924.13	226.68
924.44	226.69
924.74	226.66
925.04	226.75
925.34	226.75
925.64	226.48
925.94	226.47
926.24	226.81
926.55	226.76
926.85	226.94
927.15	226.90
927.45	226.91
927.75	226.87
928.05	226.78
928.35	226.79
928.65	226.84
928.95	226.90
929.26	226.72
929.56	226.79
929.86	226.90
930.16	226.84
930.46	226.78
930.76	226.76
931.06	226.64
931.36	226.51
931.66	226.52
931.96	226.62
932.26	226.61
932.56	226.50
932.86	226.62
933.16	226.58
933.46	226.53
933.76	226.49
934.06	226.70
934.36	226.90
934.66	226.88
934.96	226.84
935.26	226.89
935.56	226.95
935.86	226.83
936.16	226.72
936.46	226.67
936.76	226.66
937.06	226.62
937.36	226.66
937.66	226.75
937.96	226.81
938.26	226.68
938.56	226.67
938.86	226.66
939.16	226.71
939.46	226.79
939.76	226.92
940.06	226.82
940.35	226.63
940.65	226.38
940.95	226.50
941.25	226.41
941.55	226.32
941.85	226.27
942.15	226.41
942.45	226.56
942.75	226.56
943.04	226.63
943.34	226.69
943.64	226.66
943.94	226.56
944.24	226.53
944.54	226.58
944.84	226.54
945.13	226.53
945.43	226.41
945.73	226.36
946.03	226.24
946.33	226.18
946.62	226.15
946.92	226.18
947.22	226.10
947.52	226.12
947.82	226.22
948.11	226.20
948.41	226.04
948.71	225.84
949.01	225.96
949.31	225.84
949.60	225.77
949.90	225.82
950.20	225.76
950.50	225.71
950.79	225.66
951.09	225.78
951.39	225.75
951.69	225.71
951.98	225.75
952.28	225.80
952.58	225.89
952.87	225.93
953.17	226.00
953.47	225.96
953.76	225.96
954.06	225.75
954.36	225.65
954.66	225.66
954.95	225.82
955.25	225.80
955.55	225.82
955.84	225.75
956.14	225.76
956.44	225.81
956.73	225.78
957.03	225.89
957.32	225.81
957.62	225.70
957.92	225.75
958.21	225.67
958.51	226.17
958.81	226.23
959.10	226.32
959.40	226.40
959.69	226.44
959.99	226.46
960.29	226.54
960.58	226.55
960.88	226.68
961.17	226.62
961.47	226.62
961.76	226.61
962.06	226.72
962.36	226.69
962.65	226.71
962.95	226.71
963.24	226.67
963.54	226.74
963.83	226.85
964.13	226.79
964.42	226.71
964.72	226.35
965.01	226.28
965.31	226.20
965.60	226.04
965.90	226.34
966.19	226.28
966.49	226.25
966.78	226.30
967.08	226.27
967.37	226.32
967.67	226.22
967.96	226.27
968.26	226.28
968.55	226.35
968.85	226.37
969.14	226.38
969.43	226.36
969.73	226.27
970.02	226.14
970.32	226.16
970.61	226.23
970.91	226.09
971.20	226.05
971.49	226.03
971.79	226.20
972.08	225.82
972.38	225.84
972.67	225.84
972.96	225.90
973.26	225.85
973.55	225.98
973.85	226.01
974.14	225.97
974.43	225.96
974.73	225.89
975.02	225.82
975.31	225.80
975.61	225.78
975.90	225.80
976.19	225.86
976.49	225.87
976.78	225.90
977.07	225.88
977.37	225.96
977.66	225.98
977.95	225.85
978.24	225.90
978.54	226.07
978.83	226.02
979.12	225.99
979.42	225.93
979.71	225.78
980.00	225.77
980.29	225.84
980.59	225.77
980.88	225.87
981.17	225.87
981.46	225.95
981.76	225.93
982.05	226.00
982.34	226.07
982.63	226.14
982.93	226.10
983.22	226.25
983.51	226.35
983.80	226.45
984.09	226.57
984.39	226.55
984.68	226.48
984.97	226.60
985.26	226.57
985.55	226.67
985.85	226.65
986.14	226.82
986.43	226.85
986.72	226.83
987.01	226.70
987.30	226.71
987.59	226.64
987.89	226.68
988.18	226.60
988.47	226.56
988.76	226.49
989.05	226.55
989.34	226.43
989.63	226.46
989.92	226.40
990.22	226.30
990.51	226.27
990.80	226.20
991.09	226.20
991.38	226.27
991.67	226.20
991.96	226.10
992.25	226.02
992.54	225.90
992.83	225.95
993.12	225.94
993.41	226.05
993.70	226.27
993.99	226.48
994.28	226.47
994.58	226.52
994.87	226.50
995.16	226.36
995.45	226.28
995.74	226.11
996.03	226.20
996.32	226.25
996.61	226.35
996.90	226.32
997.19	226.27
997.48	226.25
997.77	226.18
998.06	226.20
998.34	226.13
998.63	226.09
998.92	226.05
999.21	226.09
999.50	226.04
999.79	225.81
1000.08	225.56
1000.37	225.62
1000.66	225.49
1000.95	225.55
1001.24	225.66
1001.53	225.78
1001.82	225.75
1002.11	225.54
1002.40	225.60
1002.68	225.70
1002.97	226.13
1003.26	226.11
1003.55	226.03
1003.84	226.11
1004.13	226.35
1004.42	226.40
1004.71	226.46
1004.99	226.46
1005.28	226.60
1005.57	226.59
1005.86	226.63
1006.15	226.70
1006.44	226.64
1006.72	226.77
1007.01	226.71
1007.30	226.77
1007.59	226.64
1007.88	226.67
1008.17	226.72
1008.45	226.62
1008.74	226.38
1009.03	226.10
1009.32	226.09
1009.60	226.09
1009.89	226.02
1010.18	225.81
1010.47	225.73
1010.76	225.71
1011.04	225.73
1011.33	225.69
1011.62	225.74
1011.91	225.77
1012.19	225.76
1012.48	225.76
1012.77	225.78
1013.05	225.99
1013.34	225.94
1013.63	226.04
1013.92	226.10
1014.20	226.06
1014.49	226.13
1014.78	226.22
1015.06	226.09
1015.35	226.13
1015.64	226.21
1015.92	226.24
1016.21	226.22
1016.50	226.21
1016.78	226.32
1017.07	226.32
1017.36	226.22
1017.64	226.09
1017.93	226.19
1018.22	226.14
1018.50	226.20
1018.79	226.10
1019.08	225.92
1019.36	225.89
1019.65	225.79
1019.93	225.87
1020.22	226.05
1020.51	226.23
1020.79	226.20
1021.08	224.90
1021.36	226.15
1021.65	225.25
1021.94	226.10
1022.22	225.75
1022.51	224.40
1022.79	228.45
1023.08	228.00
1023.36	231.50
1023.65	225.00
>>>>>End Processed Spectral Data<<<<<
