SpectraSuite Data File
++++++++++++++++++++++++++++++++++++
Date: Wed Sep 04 17:41:09 EDT 2013
User: lab3
Dark Spectrum Present: Yes
Reference Spectrum Present: No
Number of Sampled Component Spectra: 1
Spectrometers: USB2E7196
Integration Time (usec): 170000 (USB2E7196)
Spectra Averaged: 20 (USB2E7196)
Boxcar Smoothing: 10 (USB2E7196)
Correct for Electrical Dark: No (USB2E7196)
Strobe/Lamp Enabled: No (USB2E7196)
Correct for Detector Non-linearity: No (USB2E7196)
Correct for Stray Light: No (USB2E7196)
Number of Pixels in Processed Spectrum: 2048
>>>>>Begin Processed Spectral Data<<<<<
339.09	0.00
339.48	211.95
339.86	213.20
340.24	216.25
340.63	217.20
341.01	226.20
341.39	219.35
341.78	222.00
342.16	223.70
342.54	222.55
342.93	211.99
343.31	222.62
343.69	223.14
344.07	223.65
344.46	224.11
344.84	224.43
345.22	224.40
345.60	224.69
345.99	224.86
346.37	224.88
346.75	224.97
347.13	224.97
347.52	224.90
347.90	225.11
348.28	225.18
348.66	225.39
349.05	225.33
349.43	225.40
349.81	225.38
350.19	225.42
350.57	225.43
350.96	225.49
351.34	225.63
351.72	225.78
352.10	225.86
352.48	225.85
352.87	225.90
353.25	225.89
353.63	225.91
354.01	225.96
354.39	226.13
354.77	226.26
355.15	226.50
355.54	226.59
355.92	226.54
356.30	226.58
356.68	226.89
357.06	226.95
357.44	226.96
357.82	227.04
358.20	227.46
358.58	227.57
358.97	227.66
359.35	227.77
359.73	227.90
360.11	227.94
360.49	228.03
360.87	228.11
361.25	228.28
361.63	228.47
362.01	228.52
362.39	228.51
362.77	228.53
363.15	228.49
363.53	228.53
363.91	228.54
364.29	228.51
364.67	228.09
365.05	228.14
365.43	228.22
365.81	228.31
366.19	228.14
366.57	228.34
366.95	228.31
367.33	228.25
367.71	228.30
368.09	228.44
368.47	228.41
368.85	228.43
369.23	228.54
369.61	228.40
369.99	228.57
370.37	228.59
370.75	228.80
371.13	228.75
371.51	228.61
371.89	228.65
372.27	228.72
372.65	228.71
373.03	228.65
373.41	228.57
373.78	228.43
374.16	228.21
374.54	227.99
374.92	227.93
375.30	227.81
375.68	227.60
376.06	227.57
376.44	227.57
376.82	227.48
377.19	227.38
377.57	227.30
377.95	227.03
378.33	226.99
378.71	226.64
379.09	226.59
379.47	226.62
379.84	226.58
380.22	226.44
380.60	226.32
380.98	226.30
381.36	226.18
381.73	226.15
382.11	226.21
382.49	226.15
382.87	226.05
383.25	226.08
383.62	226.61
384.00	226.40
384.38	226.32
384.76	226.45
385.13	226.56
385.51	226.50
385.89	226.44
386.27	226.36
386.64	226.43
387.02	226.37
387.40	226.32
387.78	226.22
388.15	226.20
388.53	226.13
388.91	226.02
389.29	225.95
389.66	225.93
390.04	225.76
390.42	225.84
390.79	225.85
391.17	225.82
391.55	225.24
391.92	225.27
392.30	225.29
392.68	225.05
393.05	224.98
393.43	225.01
393.81	225.04
394.18	224.98
394.56	225.00
394.94	225.12
395.31	225.08
395.69	225.22
396.06	225.32
396.44	225.42
396.82	225.41
397.19	225.64
397.57	225.60
397.95	225.81
398.32	225.72
398.70	225.80
399.07	225.93
399.45	226.03
399.82	226.12
400.20	226.20
400.58	226.35
400.95	226.17
401.33	226.33
401.70	226.72
402.08	226.93
402.45	227.03
402.83	227.32
403.20	227.43
403.58	227.60
403.95	227.77
404.33	227.93
404.71	228.11
405.08	228.59
405.46	228.83
405.83	229.00
406.21	229.20
406.58	229.47
406.96	229.73
407.33	229.98
407.70	230.31
408.08	230.87
408.45	231.27
408.83	231.77
409.20	232.13
409.58	232.17
409.95	232.60
410.33	233.01
410.70	233.20
411.08	233.78
411.45	234.21
411.82	234.69
412.20	235.42
412.57	236.33
412.95	236.55
413.32	237.32
413.69	237.93
414.07	238.72
414.44	239.49
414.82	240.31
415.19	241.34
415.56	242.30
415.94	243.17
416.31	244.41
416.68	245.59
417.06	246.95
417.43	248.36
417.81	249.74
418.18	251.30
418.55	252.98
418.93	254.69
419.30	256.35
419.67	258.25
420.04	260.02
420.42	261.93
420.79	264.55
421.16	266.77
421.54	269.38
421.91	271.89
422.28	274.50
422.66	277.28
423.03	280.20
423.40	282.96
423.77	285.88
424.15	288.77
424.52	291.97
424.89	295.49
425.26	298.80
425.64	302.01
426.01	305.43
426.38	309.09
426.75	312.88
427.13	316.85
427.50	320.74
427.87	324.89
428.24	328.93
428.61	332.63
428.99	337.21
429.36	341.74
429.73	346.27
430.10	350.92
430.47	355.60
430.85	360.23
431.22	365.53
431.59	371.35
431.96	376.65
432.33	382.34
432.70	387.80
433.08	394.35
433.45	400.49
433.82	406.53
434.19	413.39
434.56	420.01
434.93	426.32
435.30	432.83
435.68	440.04
436.05	447.15
436.42	453.92
436.79	460.18
437.16	467.11
437.53	474.50
437.90	481.60
438.27	488.82
438.64	496.15
439.01	502.85
439.38	508.67
439.75	514.55
440.13	521.17
440.50	527.45
440.87	532.56
441.24	537.88
441.61	543.68
441.98	547.90
442.35	552.83
442.72	557.91
443.09	562.83
443.46	565.57
443.83	567.39
444.20	569.18
444.57	571.38
444.94	572.38
445.31	573.39
445.68	574.73
446.05	574.92
446.42	573.95
446.79	572.87
447.16	571.62
447.53	570.56
447.90	567.59
448.27	564.55
448.64	560.49
449.01	557.46
449.37	552.55
449.74	547.45
450.11	541.88
450.48	535.51
450.85	528.83
451.22	523.25
451.59	517.93
451.96	512.75
452.33	506.15
452.70	500.09
453.07	492.86
453.43	485.31
453.80	478.32
454.17	471.66
454.54	465.24
454.91	458.47
455.28	451.98
455.65	445.91
456.02	440.50
456.38	435.33
456.75	429.04
457.12	423.65
457.49	418.50
457.86	413.08
458.23	408.83
458.59	404.12
458.96	399.30
459.33	394.98
459.70	390.82
460.07	387.48
460.43	383.56
460.80	380.05
461.17	376.88
461.54	373.56
461.91	370.45
462.27	367.28
462.64	364.56
463.01	361.56
463.38	358.86
463.74	355.29
464.11	352.73
464.48	350.51
464.85	348.09
465.21	346.45
465.58	344.63
465.95	342.20
466.32	340.35
466.68	338.52
467.05	336.71
467.42	334.90
467.78	332.99
468.15	331.33
468.52	329.98
468.88	328.16
469.25	326.58
469.62	325.35
469.98	324.11
470.35	322.85
470.72	321.56
471.08	320.08
471.45	319.18
471.82	318.20
472.18	316.96
472.55	316.21
472.92	315.02
473.28	314.11
473.65	313.34
474.02	312.57
474.38	311.85
474.75	311.27
475.11	310.59
475.48	310.04
475.85	309.51
476.21	309.04
476.58	308.76
476.94	308.54
477.31	308.21
477.67	307.91
478.04	307.73
478.41	307.72
478.77	308.05
479.14	307.74
479.50	307.78
479.87	307.96
480.23	308.04
480.60	308.14
480.96	308.25
481.33	308.66
481.69	308.91
482.06	309.21
482.42	309.51
482.79	309.90
483.15	310.35
483.52	310.93
483.88	311.37
484.25	311.95
484.61	312.63
484.98	313.33
485.34	314.28
485.71	315.18
486.07	316.10
486.44	316.72
486.80	317.85
487.17	318.80
487.53	320.05
487.90	321.40
488.26	322.85
488.62	324.46
488.99	325.85
489.35	327.45
489.72	329.25
490.08	331.10
490.44	332.97
490.81	335.08
491.17	337.09
491.54	339.37
491.90	341.64
492.26	344.03
492.63	346.57
492.99	349.07
493.36	351.97
493.72	354.92
494.08	358.07
494.45	361.47
494.81	365.04
495.17	368.57
495.54	372.32
495.90	376.20
496.26	380.19
496.63	384.41
496.99	388.74
497.35	393.35
497.72	398.08
498.08	403.11
498.44	408.16
498.80	413.63
499.17	419.01
499.53	424.66
499.89	430.53
500.26	436.63
500.62	442.95
500.98	449.50
501.34	456.26
501.71	463.11
502.07	469.92
502.43	477.08
502.79	484.36
503.16	492.11
503.52	500.01
503.88	508.12
504.24	516.60
504.60	525.38
504.97	534.28
505.33	543.22
505.69	552.77
506.05	562.39
506.41	571.98
506.78	582.19
507.14	592.69
507.50	603.56
507.86	614.36
508.22	625.45
508.59	636.66
508.95	648.25
509.31	660.46
509.67	672.95
510.03	685.10
510.39	697.73
510.75	710.55
511.12	723.39
511.48	736.49
511.84	749.64
512.20	763.00
512.56	776.71
512.92	791.02
513.28	805.16
513.64	819.58
514.00	834.35
514.37	849.24
514.73	863.90
515.09	878.77
515.45	894.01
515.81	909.27
516.17	924.69
516.53	939.85
516.89	955.03
517.25	970.53
517.61	987.03
517.97	1003.38
518.33	1019.38
518.69	1035.79
519.05	1052.38
519.41	1068.83
519.77	1085.85
520.13	1102.44
520.49	1118.86
520.85	1136.69
521.21	1153.42
521.57	1170.37
521.93	1186.75
522.29	1203.49
522.65	1219.72
523.01	1236.18
523.37	1252.38
523.73	1268.59
524.09	1284.63
524.45	1300.40
524.81	1316.46
525.17	1332.34
525.53	1348.03
525.89	1364.00
526.25	1379.67
526.61	1394.88
526.97	1410.77
527.33	1426.48
527.68	1442.76
528.04	1458.45
528.40	1472.70
528.76	1488.28
529.12	1503.06
529.48	1518.12
529.84	1532.82
530.20	1548.01
530.56	1563.01
530.91	1577.96
531.27	1592.84
531.63	1607.51
531.99	1622.20
532.35	1636.40
532.71	1650.53
533.07	1665.16
533.42	1679.04
533.78	1693.19
534.14	1707.14
534.50	1720.45
534.86	1733.86
535.21	1745.73
535.57	1758.28
535.93	1770.28
536.29	1782.23
536.65	1794.50
537.00	1806.18
537.36	1817.98
537.72	1828.76
538.08	1839.74
538.44	1850.47
538.79	1860.85
539.15	1871.35
539.51	1881.61
539.87	1891.16
540.22	1899.93
540.58	1908.74
540.94	1916.77
541.29	1923.97
541.65	1931.25
542.01	1938.60
542.37	1944.06
542.72	1950.00
543.08	1955.80
543.44	1962.16
543.79	1967.16
544.15	1972.17
544.51	1977.26
544.87	1982.00
545.22	1986.43
545.58	1990.07
545.94	1993.07
546.29	1995.51
546.65	1998.07
547.01	1999.81
547.36	2001.14
547.72	2002.56
548.07	2002.85
548.43	2003.88
548.79	2005.03
549.14	2005.58
549.50	2005.80
549.86	2006.28
550.21	2006.44
550.57	2006.55
550.92	2004.95
551.28	2003.40
551.64	2002.22
551.99	2001.14
552.35	1999.60
552.70	1998.55
553.06	1997.08
553.41	1995.62
553.77	1994.53
554.13	1993.04
554.48	1991.79
554.84	1990.63
555.19	1989.53
555.55	1988.56
555.90	1985.86
556.26	1982.95
556.61	1979.55
556.97	1975.84
557.32	1973.04
557.68	1970.29
558.03	1966.89
558.39	1963.63
558.74	1961.27
559.10	1957.05
559.45	1952.36
559.81	1947.29
560.16	1941.54
560.52	1936.12
560.87	1931.08
561.23	1925.23
561.58	1919.37
561.94	1912.42
562.29	1905.60
562.64	1898.63
563.00	1890.87
563.35	1884.64
563.71	1878.03
564.06	1872.00
564.42	1865.60
564.77	1859.13
565.12	1852.12
565.48	1845.25
565.83	1838.65
566.19	1831.08
566.54	1824.28
566.89	1817.30
567.25	1810.59
567.60	1804.40
567.96	1797.89
568.31	1790.93
568.66	1783.54
569.02	1775.88
569.37	1769.23
569.72	1762.38
570.08	1754.52
570.43	1746.73
570.78	1739.16
571.14	1731.67
571.49	1722.99
571.84	1715.15
572.20	1706.58
572.55	1698.50
572.90	1689.67
573.26	1680.98
573.61	1672.22
573.96	1663.37
574.31	1654.00
574.67	1644.71
575.02	1634.44
575.37	1624.61
575.72	1614.29
576.08	1605.03
576.43	1595.33
576.78	1585.09
577.13	1574.83
577.49	1565.38
577.84	1556.41
578.19	1547.15
578.54	1537.64
578.90	1529.14
579.25	1519.70
579.60	1510.19
579.95	1500.26
580.30	1490.76
580.66	1481.01
581.01	1471.11
581.36	1460.78
581.71	1451.55
582.06	1442.02
582.42	1433.13
582.77	1423.74
583.12	1415.09
583.47	1405.98
583.82	1397.46
584.17	1388.74
584.53	1380.22
584.88	1370.46
585.23	1361.01
585.58	1350.91
585.93	1341.14
586.28	1331.47
586.63	1321.65
586.98	1311.74
587.34	1302.43
587.69	1292.81
588.04	1283.80
588.39	1275.21
588.74	1266.61
589.09	1258.03
589.44	1249.04
589.79	1240.22
590.14	1231.75
590.49	1223.15
590.84	1214.58
591.19	1205.77
591.54	1197.08
591.89	1188.48
592.25	1181.56
592.60	1173.30
592.95	1165.46
593.30	1157.12
593.65	1148.82
594.00	1140.47
594.35	1133.99
594.70	1125.68
595.05	1117.86
595.40	1109.48
595.75	1101.37
596.10	1093.49
596.45	1085.30
596.80	1077.72
597.15	1069.87
597.50	1061.65
597.85	1053.97
598.19	1045.97
598.54	1038.19
598.89	1030.51
599.24	1023.07
599.59	1015.03
599.94	1007.57
600.29	1000.35
600.64	993.66
600.99	986.45
601.34	979.91
601.69	971.68
602.04	965.18
602.39	958.38
602.74	952.18
603.08	945.52
603.43	939.29
603.78	932.80
604.13	926.28
604.48	919.80
604.83	913.37
605.18	906.59
605.53	900.18
605.87	893.75
606.22	888.08
606.57	882.00
606.92	875.71
607.27	869.73
607.62	863.91
607.96	858.05
608.31	852.67
608.66	847.11
609.01	841.50
609.36	835.72
609.70	829.95
610.05	824.08
610.40	818.51
610.75	812.60
611.10	807.03
611.44	801.35
611.79	795.90
612.14	790.48
612.49	785.23
612.83	780.16
613.18	774.95
613.53	769.59
613.88	764.20
614.22	758.89
614.57	753.54
614.92	748.13
615.27	742.94
615.61	737.42
615.96	732.14
616.31	726.94
616.65	721.98
617.00	717.08
617.35	712.25
617.70	707.43
618.04	702.59
618.39	697.74
618.74	693.50
619.08	688.76
619.43	683.99
619.78	679.15
620.12	674.25
620.47	669.70
620.82	664.88
621.16	660.27
621.51	656.00
621.85	651.82
622.20	647.37
622.55	642.86
622.89	638.58
623.24	634.19
623.59	630.09
623.93	626.03
624.28	622.00
624.62	618.23
624.97	614.34
625.32	610.56
625.66	606.60
626.01	602.18
626.35	598.41
626.70	594.80
627.04	591.20
627.39	587.44
627.73	583.88
628.08	580.35
628.43	576.64
628.77	572.87
629.12	569.20
629.46	565.97
629.81	562.78
630.15	559.51
630.50	556.26
630.84	552.69
631.19	549.26
631.53	546.05
631.88	542.35
632.22	539.03
632.57	535.87
632.91	532.76
633.26	530.01
633.60	526.95
633.95	523.70
634.29	520.46
634.64	517.54
634.98	514.22
635.32	511.30
635.67	508.55
636.01	505.82
636.36	502.98
636.70	500.12
637.05	497.24
637.39	494.48
637.73	491.84
638.08	489.32
638.42	486.50
638.77	483.57
639.11	480.66
639.45	477.60
639.80	474.72
640.14	471.98
640.49	469.14
640.83	466.56
641.17	464.18
641.52	461.76
641.86	459.21
642.20	457.13
642.55	454.58
642.89	452.14
643.23	449.62
643.58	447.43
643.92	444.99
644.26	442.54
644.61	440.33
644.95	437.90
645.29	435.34
645.64	433.25
645.98	431.09
646.32	429.08
646.66	426.99
647.01	424.69
647.35	422.65
647.69	420.60
648.04	418.53
648.38	416.52
648.72	414.45
649.06	412.30
649.41	410.14
649.75	408.00
650.09	406.00
650.43	403.97
650.78	401.92
651.12	399.86
651.46	397.96
651.80	395.90
652.14	393.95
652.49	392.41
652.83	390.60
653.17	388.71
653.51	386.89
653.85	385.25
654.20	383.69
654.54	381.84
654.88	380.08
655.22	378.55
655.56	376.86
655.90	375.19
656.25	373.72
656.59	372.10
656.93	370.69
657.27	369.20
657.61	367.61
657.95	365.97
658.29	364.47
658.64	363.10
658.98	361.62
659.32	360.14
659.66	358.58
660.00	357.08
660.34	355.78
660.68	354.34
661.02	352.85
661.36	351.41
661.70	350.05
662.05	348.71
662.39	347.29
662.73	346.08
663.07	345.11
663.41	343.69
663.75	342.30
664.09	341.09
664.43	339.74
664.77	338.61
665.11	337.52
665.45	336.47
665.79	335.34
666.13	334.10
666.47	332.89
666.81	331.68
667.15	330.52
667.49	329.46
667.83	328.51
668.17	327.47
668.51	326.43
668.85	325.53
669.19	324.79
669.53	323.74
669.87	322.63
670.21	321.45
670.55	320.65
670.89	319.99
671.23	318.99
671.57	318.06
671.91	317.09
672.25	316.07
672.58	315.18
672.92	314.15
673.26	313.31
673.60	312.59
673.94	311.83
674.28	311.05
674.62	310.29
674.96	309.43
675.30	308.71
675.64	307.92
675.97	307.03
676.31	305.90
676.65	305.04
676.99	304.45
677.33	303.53
677.67	302.76
678.01	301.76
678.34	301.01
678.68	300.37
679.02	299.69
679.36	299.02
679.70	298.28
680.04	297.64
680.37	297.05
680.71	296.39
681.05	295.72
681.39	295.05
681.73	294.36
682.06	293.67
682.40	292.99
682.74	292.54
683.08	292.15
683.42	291.55
683.75	290.97
684.09	290.21
684.43	289.77
684.77	289.19
685.10	288.66
685.44	288.14
685.78	287.48
686.12	286.84
686.45	286.25
686.79	285.51
687.13	285.01
687.46	284.37
687.80	283.90
688.14	283.34
688.48	282.82
688.81	282.28
689.15	281.91
689.49	281.37
689.82	280.81
690.16	280.05
690.50	279.64
690.83	279.13
691.17	278.55
691.51	277.98
691.84	277.50
692.18	276.87
692.52	276.33
692.85	275.89
693.19	275.56
693.52	275.11
693.86	274.66
694.20	274.15
694.53	273.76
694.87	273.19
695.21	272.67
695.54	272.23
695.88	271.70
696.21	271.06
696.55	270.60
696.88	270.17
697.22	269.74
697.56	269.32
697.89	268.87
698.23	268.57
698.56	268.23
698.90	267.86
699.23	267.53
699.57	267.17
699.90	266.70
700.24	266.23
700.58	265.81
700.91	265.52
701.25	265.54
701.58	265.50
701.92	265.30
702.25	264.99
702.59	264.56
702.92	264.26
703.26	263.99
703.59	263.63
703.93	263.57
704.26	263.32
704.60	263.08
704.93	262.70
705.26	262.25
705.60	261.95
705.93	261.55
706.27	261.36
706.60	261.12
706.94	261.06
707.27	260.80
707.61	260.58
707.94	260.27
708.27	259.54
708.61	258.88
708.94	258.54
709.28	258.27
709.61	257.97
709.94	257.71
710.28	257.46
710.61	257.25
710.95	256.72
711.28	256.77
711.61	256.38
711.95	256.30
712.28	256.01
712.61	255.64
712.95	255.61
713.28	255.52
713.61	255.22
713.95	254.78
714.28	254.49
714.61	254.15
714.95	253.89
715.28	253.55
715.61	253.28
715.95	253.01
716.28	252.79
716.61	252.60
716.95	252.27
717.28	251.98
717.61	251.76
717.94	251.44
718.28	250.82
718.61	250.59
718.94	250.25
719.27	250.00
719.61	249.85
719.94	249.41
720.27	248.94
720.60	248.64
720.94	248.51
721.27	248.40
721.60	248.28
721.93	248.05
722.27	248.07
722.60	248.06
722.93	247.79
723.26	247.64
723.59	247.43
723.93	247.33
724.26	247.22
724.59	246.95
724.92	246.78
725.25	246.64
725.59	246.46
725.92	246.40
726.25	246.30
726.58	246.21
726.91	246.05
727.24	245.88
727.57	245.74
727.91	245.43
728.24	245.24
728.57	245.01
728.90	244.99
729.23	244.67
729.56	244.71
729.89	244.58
730.22	244.27
730.55	244.07
730.89	243.91
731.22	243.73
731.55	243.57
731.88	243.46
732.21	243.31
732.54	243.06
732.87	242.85
733.20	242.72
733.53	242.54
733.86	242.53
734.19	242.36
734.52	242.25
734.85	242.47
735.18	242.19
735.51	242.23
735.84	242.05
736.17	242.06
736.50	241.60
736.83	242.03
737.16	241.97
737.49	241.90
737.82	241.71
738.15	241.59
738.48	241.44
738.81	241.25
739.14	241.03
739.47	240.94
739.80	240.77
740.13	240.63
740.46	240.44
740.79	240.17
741.12	240.06
741.45	239.90
741.78	239.48
742.11	239.55
742.44	239.32
742.77	239.22
743.10	239.05
743.43	238.88
743.75	238.20
744.08	238.70
744.41	238.48
744.74	238.35
745.07	238.14
745.40	238.17
745.73	238.25
746.06	238.25
746.39	238.23
746.71	238.07
747.04	237.93
747.37	237.79
747.70	237.82
748.03	237.72
748.36	237.78
748.68	237.67
749.01	237.38
749.34	237.30
749.67	237.28
750.00	237.24
750.33	237.55
750.65	237.53
750.98	236.86
751.31	236.79
751.64	236.76
751.97	236.95
752.29	236.78
752.62	236.45
752.95	236.26
753.28	236.14
753.60	236.01
753.93	236.08
754.26	236.05
754.59	235.75
754.91	235.59
755.24	235.41
755.57	235.39
755.90	235.32
756.22	235.15
756.55	235.00
756.88	234.78
757.20	234.40
757.53	234.23
757.86	234.10
758.19	234.14
758.51	234.03
758.84	233.76
759.17	233.68
759.49	233.77
759.82	233.98
760.15	233.94
760.47	233.95
760.80	233.75
761.13	233.77
761.45	233.75
761.78	233.70
762.11	233.67
762.43	233.55
762.76	233.49
763.08	233.50
763.41	233.49
763.74	233.46
764.06	233.44
764.39	233.32
764.71	233.31
765.04	233.16
765.37	233.03
765.69	232.93
766.02	232.85
766.34	232.70
766.67	232.42
767.00	232.41
767.32	232.61
767.65	232.83
767.97	232.80
768.30	232.83
768.62	232.84
768.95	232.76
769.27	232.75
769.60	232.77
769.92	232.65
770.25	232.41
770.57	232.31
770.90	232.20
771.22	232.13
771.55	231.96
771.87	231.97
772.20	231.94
772.52	232.29
772.85	232.77
773.17	232.69
773.50	232.61
773.82	232.52
774.15	232.20
774.47	231.88
774.80	231.71
775.12	231.62
775.45	231.55
775.77	231.52
776.09	231.47
776.42	231.41
776.74	231.48
777.07	231.44
777.39	231.41
777.72	231.24
778.04	231.22
778.36	231.25
778.69	231.13
779.01	231.19
779.33	230.67
779.66	230.02
779.98	229.96
780.31	229.96
780.63	230.11
780.95	230.15
781.28	230.09
781.60	229.99
781.92	229.92
782.25	229.87
782.57	229.74
782.89	229.65
783.22	229.59
783.54	229.44
783.86	229.44
784.19	229.32
784.51	229.50
784.83	229.43
785.16	229.38
785.48	229.37
785.80	229.27
786.12	229.32
786.45	229.37
786.77	229.35
787.09	229.34
787.42	229.16
787.74	229.14
788.06	229.17
788.38	229.16
788.71	229.15
789.03	229.15
789.35	229.22
789.67	229.12
789.99	229.13
790.32	229.03
790.64	229.06
790.96	229.50
791.28	229.34
791.61	229.32
791.93	229.35
792.25	229.39
792.57	229.70
792.89	229.62
793.21	229.68
793.54	229.64
793.86	229.55
794.18	229.54
794.50	229.49
794.82	229.42
795.14	229.48
795.47	229.47
795.79	229.52
796.11	229.40
796.43	229.41
796.75	229.40
797.07	229.49
797.39	229.54
797.71	229.15
798.04	229.20
798.36	229.15
798.68	229.12
799.00	229.01
799.32	228.71
799.64	228.76
799.96	228.68
800.28	228.80
800.60	228.78
800.92	228.73
801.24	228.69
801.56	228.80
801.89	228.75
802.21	228.79
802.53	228.68
802.85	228.80
803.17	229.02
803.49	228.91
803.81	228.87
804.13	228.86
804.45	228.80
804.77	228.84
805.09	228.87
805.41	228.78
805.73	228.81
806.05	228.73
806.37	228.72
806.69	228.70
807.01	228.63
807.33	228.59
807.65	228.49
807.97	228.63
808.28	228.51
808.60	228.45
808.92	228.29
809.24	228.57
809.56	228.45
809.88	228.24
810.20	228.32
810.52	228.37
810.84	228.19
811.16	228.14
811.48	228.03
811.80	228.19
812.12	228.20
812.43	228.23
812.75	228.22
813.07	228.08
813.39	228.05
813.71	227.95
814.03	227.96
814.35	227.94
814.67	227.72
814.98	227.66
815.30	227.64
815.62	227.63
815.94	227.26
816.26	227.42
816.58	227.32
816.89	227.29
817.21	227.08
817.53	227.15
817.85	227.10
818.17	227.07
818.48	226.91
818.80	226.99
819.12	226.90
819.44	226.80
819.76	226.83
820.07	226.82
820.39	226.79
820.71	226.71
821.03	226.68
821.34	226.67
821.66	226.66
821.98	226.70
822.30	226.69
822.61	226.99
822.93	226.74
823.25	226.75
823.57	226.63
823.88	226.80
824.20	226.78
824.52	226.93
824.83	226.91
825.15	226.82
825.47	226.71
825.79	226.75
826.10	226.75
826.42	226.73
826.74	226.70
827.05	226.73
827.37	226.83
827.69	226.83
828.00	226.89
828.32	226.97
828.64	226.90
828.95	227.13
829.27	226.93
829.58	226.95
829.90	227.05
830.22	227.19
830.53	227.03
830.85	226.94
831.17	226.80
831.48	226.81
831.80	226.85
832.11	226.91
832.43	226.88
832.75	226.90
833.06	227.23
833.38	227.16
833.69	227.15
834.01	227.17
834.32	227.14
834.64	227.05
834.96	227.01
835.27	227.01
835.59	226.87
835.90	226.83
836.22	226.79
836.53	226.68
836.85	226.52
837.16	227.05
837.48	227.10
837.79	227.31
838.11	227.26
838.42	227.27
838.74	227.29
839.05	227.21
839.37	227.15
839.68	226.78
840.00	226.78
840.31	226.83
840.63	226.81
840.94	226.78
841.26	226.75
841.57	226.77
841.88	226.83
842.20	226.74
842.51	226.71
842.83	226.83
843.14	227.28
843.46	227.30
843.77	227.10
844.08	227.05
844.40	226.90
844.71	226.92
845.03	226.87
845.34	226.81
845.65	226.81
845.97	226.87
846.28	226.98
846.60	226.97
846.91	226.87
847.22	226.85
847.54	226.98
847.85	226.98
848.16	226.92
848.48	226.83
848.79	227.09
849.10	227.17
849.42	227.09
849.73	226.55
850.04	226.54
850.36	226.28
850.67	226.37
850.98	226.35
851.30	226.37
851.61	226.35
851.92	226.35
852.23	226.49
852.55	226.52
852.86	226.48
853.17	226.60
853.49	226.81
853.80	226.87
854.11	226.90
854.42	226.97
854.74	226.94
855.05	226.95
855.36	226.62
855.67	226.63
855.99	226.67
856.30	227.27
856.61	227.33
856.92	227.39
857.23	227.37
857.55	227.40
857.86	227.35
858.17	227.35
858.48	227.26
858.79	227.16
859.11	227.24
859.42	227.16
859.73	227.06
860.04	226.91
860.35	226.81
860.66	226.70
860.98	226.69
861.29	226.70
861.60	226.70
861.91	226.84
862.22	226.72
862.53	226.57
862.84	226.10
863.16	226.15
863.47	226.05
863.78	226.04
864.09	226.01
864.40	226.05
864.71	226.12
865.02	226.23
865.33	226.23
865.64	226.08
865.95	226.14
866.27	226.50
866.58	226.47
866.89	226.47
867.20	226.40
867.51	226.32
867.82	226.32
868.13	226.45
868.44	226.38
868.75	226.47
869.06	226.56
869.37	226.51
869.68	226.43
869.99	226.52
870.30	226.50
870.61	226.52
870.92	226.49
871.23	226.48
871.54	226.47
871.85	226.55
872.16	226.59
872.47	226.58
872.78	226.24
873.09	226.31
873.40	226.33
873.71	226.40
874.02	226.38
874.33	226.38
874.64	226.27
874.95	226.39
875.26	226.30
875.56	226.20
875.87	226.18
876.18	226.14
876.49	226.61
876.80	226.62
877.11	226.54
877.42	226.51
877.73	226.51
878.04	226.49
878.35	226.50
878.66	226.49
878.96	226.43
879.27	226.48
879.58	226.48
879.89	226.45
880.20	226.62
880.51	226.65
880.82	226.62
881.12	226.64
881.43	226.49
881.74	226.45
882.05	226.52
882.36	226.59
882.67	226.60
882.97	226.09
883.28	226.04
883.59	226.09
883.90	226.23
884.21	226.39
884.51	226.39
884.82	226.36
885.13	226.39
885.44	226.42
885.74	226.41
886.05	226.40
886.36	226.36
886.67	226.15
886.98	226.40
887.28	226.47
887.59	226.53
887.90	226.62
888.20	226.62
888.51	226.68
888.82	226.63
889.13	226.66
889.43	227.07
889.74	227.09
890.05	227.00
890.35	226.93
890.66	226.74
890.97	226.66
891.28	226.54
891.58	226.48
891.89	226.44
892.20	226.40
892.50	226.33
892.81	226.29
893.12	226.24
893.42	226.03
893.73	226.01
894.04	225.98
894.34	225.98
894.65	225.98
894.95	225.91
895.26	225.88
895.57	226.09
895.87	225.64
896.18	225.68
896.48	225.78
896.79	225.74
897.10	225.83
897.40	225.86
897.71	225.97
898.01	225.97
898.32	226.01
898.63	225.93
898.93	225.95
899.24	226.01
899.54	226.03
899.85	226.00
900.15	225.99
900.46	225.94
900.76	225.95
901.07	225.97
901.38	225.97
901.68	226.01
901.99	225.81
902.29	225.80
902.60	225.70
902.90	225.59
903.21	225.58
903.51	225.55
903.82	225.65
904.12	225.59
904.43	225.63
904.73	225.68
905.03	225.71
905.34	226.14
905.64	226.09
905.95	226.11
906.25	226.13
906.56	226.08
906.86	226.11
907.17	226.07
907.47	226.09
907.77	226.05
908.08	225.97
908.38	225.99
908.69	226.08
908.99	226.22
909.30	226.26
909.60	226.24
909.90	226.25
910.21	226.12
910.51	226.15
910.81	226.08
911.12	226.08
911.42	226.14
911.73	225.61
912.03	225.68
912.33	225.76
912.64	225.69
912.94	225.75
913.24	225.71
913.55	225.71
913.85	225.63
914.15	225.78
914.46	225.84
914.76	225.74
915.06	225.73
915.37	225.60
915.67	225.65
915.97	225.65
916.27	225.49
916.58	225.54
916.88	225.43
917.18	225.46
917.49	225.80
917.79	225.80
918.09	225.95
918.39	226.05
918.70	226.04
919.00	226.10
919.30	226.25
919.60	226.19
919.91	226.09
920.21	226.14
920.51	226.02
920.81	225.99
921.12	226.18
921.42	226.10
921.72	226.14
922.02	226.09
922.32	226.17
922.63	226.25
922.93	226.43
923.23	226.61
923.53	226.52
923.83	226.16
924.13	226.09
924.44	226.13
924.74	226.18
925.04	226.31
925.34	226.28
925.64	226.14
925.94	226.15
926.24	226.41
926.55	226.41
926.85	226.51
927.15	226.48
927.45	226.40
927.75	226.39
928.05	226.47
928.35	226.47
928.65	226.60
928.95	226.64
929.26	226.48
929.56	226.49
929.86	226.55
930.16	226.53
930.46	226.61
930.76	226.55
931.06	226.30
931.36	226.16
931.66	226.22
931.96	226.23
932.26	226.27
932.56	226.02
932.86	226.02
933.16	225.96
933.46	225.91
933.76	225.78
934.06	225.90
934.36	226.02
934.66	226.03
934.96	225.87
935.26	225.91
935.56	225.96
935.86	225.78
936.16	225.74
936.46	225.66
936.76	225.61
937.06	225.54
937.36	225.56
937.66	225.50
937.96	225.48
938.26	225.35
938.56	225.29
938.86	225.35
939.16	225.40
939.46	225.39
939.76	225.45
940.06	225.61
940.35	225.46
940.65	225.16
940.95	225.18
941.25	225.11
941.55	225.13
941.85	225.00
942.15	225.17
942.45	225.31
942.75	225.30
943.04	225.31
943.34	225.37
943.64	225.38
943.94	225.35
944.24	225.32
944.54	225.36
944.84	225.40
945.13	225.35
945.43	225.36
945.73	225.42
946.03	225.38
946.33	225.29
946.62	225.30
946.92	225.40
947.22	225.36
947.52	225.38
947.82	225.35
948.11	225.45
948.41	225.35
948.71	225.15
949.01	225.26
949.31	225.22
949.60	225.20
949.90	225.28
950.20	225.26
950.50	225.32
950.79	225.35
951.09	225.46
951.39	225.46
951.69	225.42
951.98	225.50
952.28	225.56
952.58	225.57
952.87	225.52
953.17	225.51
953.47	225.53
953.76	225.57
954.06	225.54
954.36	225.44
954.66	225.37
954.95	225.61
955.25	225.64
955.55	225.76
955.84	225.73
956.14	225.81
956.44	225.80
956.73	225.69
957.03	225.69
957.32	225.59
957.62	225.55
957.92	225.58
958.21	225.51
958.51	226.06
958.81	226.11
959.10	226.27
959.40	226.42
959.69	226.44
959.99	226.49
960.29	226.54
960.58	226.52
960.88	226.70
961.17	226.58
961.47	226.64
961.76	226.52
962.06	226.69
962.36	226.57
962.65	226.71
962.95	226.72
963.24	226.71
963.54	226.75
963.83	226.80
964.13	226.78
964.42	226.72
964.72	226.25
965.01	226.25
965.31	226.16
965.60	225.96
965.90	226.26
966.19	226.13
966.49	226.06
966.78	226.07
967.08	226.04
967.37	226.03
967.67	225.87
967.96	225.95
968.26	225.84
968.55	225.92
968.85	225.89
969.14	225.91
969.43	225.88
969.73	225.81
970.02	225.82
970.32	225.79
970.61	225.66
970.91	225.51
971.20	225.34
971.49	225.27
971.79	225.31
972.08	225.00
972.38	225.09
972.67	225.15
972.96	225.21
973.26	225.07
973.55	225.22
973.85	225.22
974.14	225.14
974.43	225.21
974.73	225.05
975.02	224.97
975.31	224.95
975.61	224.92
975.90	224.82
976.19	224.73
976.49	224.81
976.78	224.86
977.07	224.89
977.37	224.97
977.66	225.09
977.95	225.11
978.24	225.15
978.54	225.16
978.83	225.05
979.12	225.03
979.42	225.07
979.71	224.97
980.00	224.91
980.29	224.97
980.59	224.77
980.88	224.88
981.17	224.90
981.46	224.89
981.76	224.90
982.05	225.10
982.34	225.16
982.63	225.11
982.93	225.19
983.22	225.32
983.51	225.31
983.80	225.31
984.09	225.34
984.39	225.25
984.68	225.29
984.97	225.30
985.26	225.18
985.55	225.22
985.85	225.15
986.14	225.25
986.43	225.30
986.72	225.31
987.01	225.25
987.30	225.23
987.59	225.24
987.89	225.22
988.18	225.09
988.47	225.00
988.76	225.02
989.05	224.88
989.34	224.79
989.63	224.95
989.92	224.92
990.22	224.82
990.51	224.86
990.80	224.74
991.09	224.85
991.38	225.03
991.67	225.03
991.96	225.04
992.25	225.04
992.54	224.98
992.83	225.00
993.12	224.92
993.41	225.03
993.70	225.26
993.99	225.45
994.28	225.51
994.58	225.65
994.87	225.58
995.16	225.68
995.45	225.62
995.74	225.47
996.03	225.57
996.32	225.76
996.61	225.90
996.90	225.89
997.19	225.83
997.48	225.75
997.77	225.71
998.06	225.72
998.34	225.75
998.63	225.73
998.92	225.80
999.21	225.94
999.50	225.89
999.79	225.72
1000.08	225.65
1000.37	225.70
1000.66	225.65
1000.95	225.80
1001.24	225.82
1001.53	225.91
1001.82	225.91
1002.11	225.78
1002.40	225.73
1002.68	225.79
1002.97	226.12
1003.26	226.09
1003.55	226.03
1003.84	226.06
1004.13	226.17
1004.42	226.11
1004.71	226.13
1004.99	226.10
1005.28	226.19
1005.57	226.23
1005.86	226.15
1006.15	226.15
1006.44	226.09
1006.72	226.15
1007.01	226.05
1007.30	226.03
1007.59	226.02
1007.88	226.03
1008.17	226.02
1008.45	225.94
1008.74	225.71
1009.03	225.52
1009.32	225.52
1009.60	225.56
1009.89	225.53
1010.18	225.37
1010.47	225.38
1010.76	225.31
1011.04	225.23
1011.33	225.18
1011.62	225.17
1011.91	225.17
1012.19	225.12
1012.48	225.10
1012.77	225.04
1013.05	225.22
1013.34	225.26
1013.63	225.22
1013.92	225.18
1014.20	225.16
1014.49	225.16
1014.78	225.21
1015.06	225.05
1015.35	225.06
1015.64	225.05
1015.92	225.10
1016.21	225.10
1016.50	225.07
1016.78	225.17
1017.07	225.35
1017.36	225.20
1017.64	225.08
1017.93	225.18
1018.22	225.13
1018.50	225.14
1018.79	225.13
1019.08	224.95
1019.36	224.94
1019.65	224.88
1019.93	225.04
1020.22	225.10
1020.51	225.34
1020.79	225.27
1021.08	224.25
1021.36	224.75
1021.65	224.55
1021.94	225.80
1022.22	225.35
1022.51	224.10
1022.79	227.10
1023.08	225.85
1023.36	230.40
1023.65	223.70
>>>>>End Processed Spectral Data<<<<<
