SpectraSuite Data File
++++++++++++++++++++++++++++++++++++
Date: Wed Sep 04 17:40:58 EDT 2013
User: lab3
Dark Spectrum Present: Yes
Reference Spectrum Present: No
Number of Sampled Component Spectra: 1
Spectrometers: USB2E7196
Integration Time (usec): 170000 (USB2E7196)
Spectra Averaged: 20 (USB2E7196)
Boxcar Smoothing: 10 (USB2E7196)
Correct for Electrical Dark: No (USB2E7196)
Strobe/Lamp Enabled: No (USB2E7196)
Correct for Detector Non-linearity: No (USB2E7196)
Correct for Stray Light: No (USB2E7196)
Number of Pixels in Processed Spectrum: 2048
>>>>>Begin Processed Spectral Data<<<<<
339.09	0.00
339.48	213.35
339.86	214.55
340.24	215.60
340.63	216.10
341.01	224.80
341.39	219.00
341.78	221.80
342.16	222.80
342.54	222.95
342.93	211.78
343.31	222.46
343.69	222.93
344.07	223.39
344.46	223.82
344.84	224.22
345.22	224.23
345.60	224.49
345.99	224.69
346.37	224.76
346.75	224.82
347.13	224.92
347.52	224.99
347.90	225.14
348.28	225.24
348.66	225.41
349.05	225.28
349.43	225.36
349.81	225.43
350.19	225.47
350.57	225.55
350.96	225.59
351.34	225.69
351.72	225.81
352.10	225.92
352.48	226.02
352.87	226.05
353.25	226.11
353.63	226.11
354.01	226.13
354.39	226.22
354.77	226.37
355.15	226.52
355.54	226.58
355.92	226.52
356.30	226.59
356.68	226.98
357.06	227.06
357.44	227.00
357.82	227.02
358.20	227.42
358.58	227.45
358.97	227.56
359.35	227.72
359.73	227.92
360.11	227.91
360.49	227.95
360.87	228.05
361.25	228.16
361.63	228.45
362.01	228.56
362.39	228.61
362.77	228.61
363.15	228.61
363.53	228.70
363.91	228.72
364.29	228.73
364.67	228.27
365.05	228.31
365.43	228.46
365.81	228.54
366.19	228.49
366.57	228.67
366.95	228.66
367.33	228.50
367.71	228.46
368.09	228.66
368.47	228.65
368.85	228.65
369.23	228.74
369.61	228.56
369.99	228.61
370.37	228.66
370.75	228.92
371.13	228.81
371.51	228.66
371.89	228.65
372.27	228.71
372.65	228.73
373.03	228.69
373.41	228.60
373.78	228.55
374.16	228.23
374.54	228.05
374.92	227.97
375.30	227.95
375.68	227.86
376.06	227.73
376.44	227.62
376.82	227.56
377.19	227.40
377.57	227.35
377.95	227.24
378.33	227.19
378.71	226.74
379.09	226.77
379.47	226.82
379.84	226.75
380.22	226.63
380.60	226.48
380.98	226.41
381.36	226.29
381.73	226.15
382.11	226.22
382.49	226.18
382.87	226.03
383.25	225.98
383.62	226.43
384.00	226.30
384.38	226.30
384.76	226.43
385.13	226.64
385.51	226.60
385.89	226.45
386.27	226.31
386.64	226.40
387.02	226.26
387.40	226.08
387.78	226.06
388.15	226.01
388.53	225.92
388.91	225.89
389.29	225.84
389.66	225.88
390.04	225.75
390.42	225.74
390.79	225.81
391.17	225.78
391.55	225.20
391.92	225.17
392.30	225.20
392.68	224.99
393.05	224.87
393.43	224.90
393.81	224.87
394.18	224.85
394.56	224.85
394.94	225.01
395.31	224.99
395.69	225.18
396.06	225.31
396.44	225.42
396.82	225.44
397.19	225.70
397.57	225.65
397.95	225.76
398.32	225.72
398.70	225.80
399.07	226.01
399.45	226.06
399.82	226.14
400.20	226.11
400.58	226.22
400.95	226.14
401.33	226.25
401.70	226.70
402.08	226.83
402.45	226.95
402.83	227.15
403.20	227.35
403.58	227.41
403.95	227.59
404.33	227.81
404.71	228.00
405.08	228.48
405.46	228.74
405.83	228.98
406.21	229.23
406.58	229.55
406.96	229.75
407.33	230.07
407.70	230.38
408.08	231.13
408.45	231.55
408.83	231.95
409.20	232.30
409.58	232.40
409.95	232.90
410.33	233.40
410.70	233.66
411.08	234.18
411.45	234.66
411.82	235.16
412.20	235.79
412.57	236.67
412.95	236.92
413.32	237.67
413.69	238.41
414.07	239.21
414.44	239.96
414.82	240.80
415.19	241.80
415.56	242.86
415.94	243.58
416.31	244.75
416.68	246.01
417.06	247.32
417.43	248.75
417.81	250.22
418.18	251.65
418.55	253.28
418.93	254.98
419.30	256.72
419.67	258.53
420.04	260.37
420.42	262.22
420.79	264.81
421.16	267.05
421.54	269.53
421.91	271.95
422.28	274.53
422.66	277.22
423.03	280.11
423.40	282.85
423.77	285.84
424.15	288.84
424.52	291.97
424.89	295.49
425.26	298.70
425.64	301.78
426.01	305.30
426.38	308.97
426.75	312.69
427.13	316.49
427.50	320.45
427.87	324.51
428.24	328.63
428.61	332.34
428.99	336.83
429.36	341.39
429.73	345.92
430.10	350.47
430.47	355.26
430.85	359.80
431.22	365.00
431.59	370.75
431.96	375.95
432.33	381.62
432.70	387.25
433.08	393.86
433.45	400.09
433.82	406.15
434.19	412.94
434.56	419.72
434.93	426.08
435.30	432.50
435.68	439.60
436.05	446.57
436.42	453.47
436.79	459.80
437.16	466.76
437.53	474.12
437.90	481.32
438.27	488.52
438.64	496.08
439.01	502.91
439.38	508.72
439.75	514.64
440.13	521.36
440.50	527.58
440.87	532.62
441.24	537.88
441.61	543.77
441.98	547.96
442.35	552.76
442.72	557.90
443.09	562.84
443.46	565.69
443.83	567.63
444.20	569.33
444.57	571.68
444.94	572.60
445.31	573.59
445.68	575.03
446.05	575.10
446.42	574.07
446.79	572.93
447.16	571.63
447.53	570.61
447.90	567.55
448.27	564.51
448.64	560.57
449.01	557.58
449.37	552.61
449.74	547.70
450.11	542.29
450.48	535.84
450.85	529.19
451.22	523.62
451.59	518.24
451.96	513.04
452.33	506.25
452.70	500.23
453.07	493.11
453.43	485.39
453.80	478.50
454.17	471.85
454.54	465.55
454.91	458.84
455.28	452.20
455.65	446.08
456.02	440.57
456.38	435.21
456.75	428.89
457.12	423.31
457.49	418.13
457.86	412.53
458.23	408.39
458.59	403.72
458.96	399.04
459.33	394.83
459.70	390.67
460.07	387.40
460.43	383.55
460.80	380.00
461.17	376.94
461.54	373.69
461.91	370.51
462.27	367.32
462.64	364.70
463.01	361.84
463.38	359.19
463.74	355.69
464.11	353.28
464.48	351.06
464.85	348.92
465.21	347.24
465.58	345.44
465.95	343.01
466.32	341.13
466.68	339.29
467.05	337.43
467.42	335.64
467.78	333.64
468.15	331.86
468.52	330.55
468.88	328.77
469.25	327.18
469.62	326.05
469.98	324.74
470.35	323.50
470.72	322.31
471.08	320.90
471.45	319.92
471.82	318.94
472.18	317.69
472.55	316.75
472.92	315.66
473.28	314.82
473.65	313.97
474.02	313.16
474.38	312.43
474.75	311.84
475.11	311.04
475.48	310.61
475.85	310.12
476.21	309.55
476.58	309.17
476.94	308.85
477.31	308.43
477.67	308.00
478.04	307.72
478.41	307.58
478.77	307.86
479.14	307.68
479.50	307.59
479.87	307.69
480.23	307.83
480.60	307.85
480.96	307.93
481.33	308.24
481.69	308.36
482.06	308.60
482.42	308.89
482.79	309.33
483.15	309.70
483.52	310.19
483.88	310.66
484.25	311.19
484.61	311.78
484.98	312.43
485.34	313.53
485.71	314.41
486.07	315.36
486.44	316.03
486.80	317.08
487.17	318.15
487.53	319.43
487.90	320.76
488.26	322.34
488.62	323.95
488.99	325.35
489.35	327.00
489.72	328.70
490.08	330.53
490.44	332.37
490.81	334.48
491.17	336.54
491.54	338.95
491.90	341.31
492.26	343.85
492.63	346.43
492.99	348.97
493.36	351.85
493.72	354.74
494.08	357.78
494.45	361.12
494.81	364.72
495.17	368.27
495.54	372.00
495.90	375.83
496.26	379.93
496.63	384.25
496.99	388.63
497.35	393.29
497.72	398.18
498.08	403.16
498.44	408.30
498.80	413.79
499.17	419.20
499.53	424.85
499.89	430.83
500.26	436.91
500.62	443.12
500.98	449.73
501.34	456.53
501.71	463.46
502.07	470.48
502.43	477.59
502.79	484.98
503.16	492.71
503.52	500.61
503.88	508.55
504.24	517.13
504.60	526.03
504.97	535.01
505.33	543.98
505.69	553.64
506.05	563.21
506.41	573.05
506.78	583.09
507.14	593.49
507.50	604.12
507.86	615.14
508.22	626.50
508.59	637.57
508.95	649.34
509.31	661.30
509.67	673.56
510.03	685.76
510.39	698.30
510.75	711.04
511.12	724.04
511.48	737.30
511.84	750.55
512.20	763.84
512.56	777.58
512.92	791.74
513.28	805.79
513.64	820.03
514.00	834.38
514.37	849.10
514.73	864.16
515.09	879.15
515.45	894.03
515.81	909.03
516.17	924.72
516.53	939.74
516.89	954.97
517.25	970.61
517.61	987.07
517.97	1003.57
518.33	1019.75
518.69	1036.00
519.05	1052.89
519.41	1069.38
519.77	1086.43
520.13	1102.85
520.49	1119.25
520.85	1136.96
521.21	1154.01
521.57	1171.00
521.93	1187.32
522.29	1203.93
522.65	1220.05
523.01	1236.40
523.37	1252.33
523.73	1268.61
524.09	1284.50
524.45	1300.68
524.81	1316.73
525.17	1332.67
525.53	1348.15
525.89	1364.29
526.25	1379.95
526.61	1394.92
526.97	1410.60
527.33	1426.01
527.68	1442.46
528.04	1458.28
528.40	1473.08
528.76	1488.44
529.12	1503.49
529.48	1518.87
529.84	1533.55
530.20	1548.77
530.56	1563.94
530.91	1579.47
531.27	1593.96
531.63	1608.98
531.99	1623.61
532.35	1638.05
532.71	1652.19
533.07	1667.03
533.42	1680.71
533.78	1694.55
534.14	1708.43
534.50	1721.45
534.86	1735.06
535.21	1746.79
535.57	1759.27
535.93	1770.68
536.29	1782.40
536.65	1794.74
537.00	1806.25
537.36	1817.92
537.72	1829.04
538.08	1840.02
538.44	1850.65
538.79	1861.27
539.15	1871.86
539.51	1882.07
539.87	1891.45
540.22	1899.91
540.58	1908.84
540.94	1916.97
541.29	1924.60
541.65	1931.84
542.01	1939.34
542.37	1944.78
542.72	1950.88
543.08	1956.41
543.44	1962.77
543.79	1968.05
544.15	1972.83
544.51	1978.26
544.87	1982.80
545.22	1986.84
545.58	1990.23
545.94	1992.90
546.29	1995.19
546.65	1997.30
547.01	1999.00
547.36	2000.42
547.72	2002.17
548.07	2002.11
548.43	2003.27
548.79	2004.18
549.14	2004.69
549.50	2004.78
549.86	2005.27
550.21	2005.45
550.57	2005.56
550.92	2004.28
551.28	2002.75
551.64	2002.16
551.99	2000.91
552.35	1999.48
552.70	1998.67
553.06	1997.82
553.41	1996.44
553.77	1995.47
554.13	1994.01
554.48	1992.83
554.84	1991.64
555.19	1990.06
555.55	1989.14
555.90	1986.40
556.26	1983.43
556.61	1980.12
556.97	1976.32
557.32	1973.61
557.68	1970.65
558.03	1967.58
558.39	1964.43
558.74	1961.68
559.10	1957.07
559.45	1952.38
559.81	1947.36
560.16	1941.33
560.52	1935.70
560.87	1930.63
561.23	1924.79
561.58	1918.79
561.94	1911.93
562.29	1904.98
562.64	1898.04
563.00	1890.58
563.35	1884.17
563.71	1877.88
564.06	1871.71
564.42	1865.70
564.77	1859.16
565.12	1852.23
565.48	1845.49
565.83	1838.81
566.19	1831.63
566.54	1824.39
566.89	1817.48
567.25	1810.73
567.60	1804.56
567.96	1797.78
568.31	1790.70
568.66	1783.27
569.02	1775.86
569.37	1768.88
569.72	1762.08
570.08	1754.62
570.43	1746.51
570.78	1739.04
571.14	1731.21
571.49	1722.99
571.84	1715.03
572.20	1706.45
572.55	1698.36
572.90	1689.04
573.26	1680.22
573.61	1671.53
573.96	1662.87
574.31	1653.38
574.67	1644.25
575.02	1634.29
575.37	1624.55
575.72	1614.60
576.08	1605.42
576.43	1595.63
576.78	1585.37
577.13	1575.35
577.49	1565.55
577.84	1556.52
578.19	1547.22
578.54	1537.70
578.90	1528.60
579.25	1519.41
579.60	1509.93
579.95	1500.18
580.30	1490.71
580.66	1480.97
581.01	1470.96
581.36	1460.59
581.71	1451.42
582.06	1441.88
582.42	1432.52
582.77	1423.28
583.12	1414.60
583.47	1405.72
583.82	1397.16
584.17	1388.60
584.53	1379.85
584.88	1370.47
585.23	1361.18
585.58	1350.96
585.93	1341.51
586.28	1331.93
586.63	1321.88
586.98	1311.98
587.34	1302.39
587.69	1292.86
588.04	1283.94
588.39	1275.51
588.74	1267.27
589.09	1258.52
589.44	1249.50
589.79	1240.97
590.14	1232.41
590.49	1223.67
590.84	1214.98
591.19	1206.32
591.54	1197.65
591.89	1189.10
592.25	1182.08
592.60	1173.85
592.95	1166.06
593.30	1157.60
593.65	1149.33
594.00	1141.06
594.35	1134.61
594.70	1126.66
595.05	1118.90
595.40	1110.60
595.75	1102.21
596.10	1094.27
596.45	1086.31
596.80	1078.71
597.15	1071.03
597.50	1063.04
597.85	1055.33
598.19	1047.24
598.54	1039.19
598.89	1031.29
599.24	1023.76
599.59	1015.57
599.94	1008.34
600.29	1001.11
600.64	994.12
600.99	986.96
601.34	980.45
601.69	972.32
602.04	965.45
602.39	958.81
602.74	952.47
603.08	946.14
603.43	939.73
603.78	933.15
604.13	926.67
604.48	919.93
604.83	913.39
605.18	906.75
605.53	900.23
605.87	894.20
606.22	888.67
606.57	882.50
606.92	876.20
607.27	870.00
607.62	864.14
607.96	858.67
608.31	853.23
608.66	847.57
609.01	842.00
609.36	836.45
609.70	830.77
610.05	824.80
610.40	819.13
610.75	813.25
611.10	807.66
611.44	801.75
611.79	796.30
612.14	790.90
612.49	785.43
612.83	780.48
613.18	775.26
613.53	769.96
613.88	764.63
614.22	759.40
614.57	754.02
614.92	748.52
615.27	743.27
615.61	737.98
615.96	732.84
616.31	727.42
616.65	722.57
617.00	717.63
617.35	712.77
617.70	707.77
618.04	702.79
618.39	697.95
618.74	693.73
619.08	689.12
619.43	684.40
619.78	679.68
620.12	674.75
620.47	670.03
620.82	665.13
621.16	660.52
621.51	656.42
621.85	652.12
622.20	647.88
622.55	643.31
622.89	639.01
623.24	634.82
623.59	630.77
623.93	626.37
624.28	622.10
624.62	618.42
624.97	614.64
625.32	610.98
625.66	606.92
626.01	602.66
626.35	598.86
626.70	595.14
627.04	591.65
627.39	588.00
627.73	584.40
628.08	580.81
628.43	577.11
628.77	573.12
629.12	569.66
629.46	566.38
629.81	563.34
630.15	560.03
630.50	556.45
630.84	552.99
631.19	549.84
631.53	546.77
631.88	543.09
632.22	539.62
632.57	536.49
632.91	533.42
633.26	530.48
633.60	527.30
633.95	524.13
634.29	520.69
634.64	517.56
634.98	514.24
635.32	511.32
635.67	508.71
636.01	506.14
636.36	503.05
636.70	500.32
637.05	497.22
637.39	494.40
637.73	491.71
638.08	489.08
638.42	486.21
638.77	483.29
639.11	480.36
639.45	477.41
639.80	474.45
640.14	471.68
640.49	468.89
640.83	466.30
641.17	463.77
641.52	461.46
641.86	459.09
642.20	457.05
642.55	454.60
642.89	451.99
643.23	449.47
643.58	447.40
643.92	444.66
644.26	442.30
644.61	440.12
644.95	437.77
645.29	435.43
645.64	433.36
645.98	431.11
646.32	429.19
646.66	427.10
647.01	425.02
647.35	423.15
647.69	421.26
648.04	419.38
648.38	417.45
648.72	415.38
649.06	413.29
649.41	411.02
649.75	408.87
650.09	406.85
650.43	404.90
650.78	402.84
651.12	400.93
651.46	399.01
651.80	396.94
652.14	395.09
652.49	393.38
652.83	391.42
653.17	389.72
653.51	387.76
653.85	386.06
654.20	384.36
654.54	382.45
654.88	380.58
655.22	379.05
655.56	377.44
655.90	375.83
656.25	374.28
656.59	372.74
656.93	371.33
657.27	370.02
657.61	368.22
657.95	366.60
658.29	365.03
658.64	363.57
658.98	362.08
659.32	360.51
659.66	359.06
660.00	357.65
660.34	356.18
660.68	354.78
661.02	353.39
661.36	352.03
661.70	350.76
662.05	349.39
662.39	347.97
662.73	346.65
663.07	345.58
663.41	344.29
663.75	342.97
664.09	341.67
664.43	340.18
664.77	339.19
665.11	337.97
665.45	336.88
665.79	335.80
666.13	334.60
666.47	333.45
666.81	332.15
667.15	330.92
667.49	329.93
667.83	329.05
668.17	328.04
668.51	326.99
668.85	326.00
669.19	325.24
669.53	324.01
669.87	323.02
670.21	321.79
670.55	320.83
670.89	320.05
671.23	319.15
671.57	318.24
671.91	317.25
672.25	316.39
672.58	315.62
672.92	314.49
673.26	313.60
673.60	312.75
673.94	311.96
674.28	311.14
674.62	310.35
674.96	309.38
675.30	308.54
675.64	307.70
675.97	306.80
676.31	305.83
676.65	305.08
676.99	304.35
677.33	303.62
677.67	302.87
678.01	301.90
678.34	301.11
678.68	300.43
679.02	299.63
679.36	298.89
679.70	298.09
680.04	297.54
680.37	296.94
680.71	296.29
681.05	295.60
681.39	295.01
681.73	294.32
682.06	293.78
682.40	293.15
682.74	292.50
683.08	292.11
683.42	291.44
683.75	290.90
684.09	290.25
684.43	289.72
684.77	289.13
685.10	288.60
685.44	288.06
685.78	287.43
686.12	286.87
686.45	286.30
686.79	285.63
687.13	285.16
687.46	284.60
687.80	284.14
688.14	283.63
688.48	283.09
688.81	282.51
689.15	282.07
689.49	281.51
689.82	281.14
690.16	280.44
690.50	279.88
690.83	279.30
691.17	278.64
691.51	278.09
691.84	277.63
692.18	277.07
692.52	276.52
692.85	276.05
693.19	275.87
693.52	275.40
693.86	274.99
694.20	274.47
694.53	274.04
694.87	273.54
695.21	273.07
695.54	272.65
695.88	272.09
696.21	271.43
696.55	270.99
696.88	270.48
697.22	270.00
697.56	269.72
697.89	269.27
698.23	269.00
698.56	268.49
698.90	268.10
699.23	267.70
699.57	267.33
699.90	266.96
700.24	266.38
700.58	266.06
700.91	265.73
701.25	265.71
701.58	265.65
701.92	265.39
702.25	265.10
702.59	264.67
702.92	264.44
703.26	264.13
703.59	263.83
703.93	263.93
704.26	263.66
704.60	263.36
704.93	263.05
705.26	262.59
705.60	262.33
705.93	261.90
706.27	261.78
706.60	261.55
706.94	261.43
707.27	260.99
707.61	260.67
707.94	260.42
708.27	259.74
708.61	259.09
708.94	258.76
709.28	258.30
709.61	258.03
709.94	257.71
710.28	257.48
710.61	257.19
710.95	256.46
711.28	256.45
711.61	256.16
711.95	255.99
712.28	255.72
712.61	255.45
712.95	255.49
713.28	255.35
713.61	255.01
713.95	254.58
714.28	254.37
714.61	254.08
714.95	253.71
715.28	253.36
715.61	253.09
715.95	252.80
716.28	252.56
716.61	252.34
716.95	252.02
717.28	251.68
717.61	251.42
717.94	251.13
718.28	250.59
718.61	250.26
718.94	249.93
719.27	249.67
719.61	249.42
719.94	249.05
720.27	248.60
720.60	248.33
720.94	248.13
721.27	247.99
721.60	247.85
721.93	247.64
722.27	247.64
722.60	247.49
722.93	247.24
723.26	247.16
723.59	246.90
723.93	246.89
724.26	246.76
724.59	246.57
724.92	246.44
725.25	246.45
725.59	246.36
725.92	246.27
726.25	246.13
726.58	246.06
726.91	245.82
727.24	245.78
727.57	245.69
727.91	245.50
728.24	245.36
728.57	245.16
728.90	245.12
729.23	244.80
729.56	244.86
729.89	244.64
730.22	244.40
730.55	244.32
730.89	244.06
731.22	243.91
731.55	243.79
731.88	243.63
732.21	243.39
732.54	243.15
732.87	243.01
733.20	242.89
733.53	242.73
733.86	242.72
734.19	242.53
734.52	242.45
734.85	242.63
735.18	242.41
735.51	242.38
735.84	242.22
736.17	242.29
736.50	241.90
736.83	242.48
737.16	242.34
737.49	242.24
737.82	242.10
738.15	242.10
738.48	241.96
738.81	241.83
739.14	241.61
739.47	241.51
739.80	241.30
740.13	241.20
740.46	241.01
740.79	240.75
741.12	240.60
741.45	240.43
741.78	240.02
742.11	240.09
742.44	239.88
742.77	239.79
743.10	239.49
743.43	239.39
743.75	238.72
744.08	239.20
744.41	239.06
744.74	238.96
745.07	238.70
745.40	238.67
745.73	238.77
746.06	238.75
746.39	238.76
746.71	238.67
747.04	238.51
747.37	238.37
747.70	238.35
748.03	238.17
748.36	238.13
748.68	238.05
749.01	237.79
749.34	237.74
749.67	237.61
750.00	237.67
750.33	238.02
750.65	237.99
750.98	237.37
751.31	237.31
751.64	237.21
751.97	237.38
752.29	237.30
752.62	236.95
752.95	236.72
753.28	236.45
753.60	236.28
753.93	236.31
754.26	236.27
754.59	235.99
754.91	236.00
755.24	235.78
755.57	235.70
755.90	235.64
756.22	235.51
756.55	235.34
756.88	235.10
757.20	234.66
757.53	234.43
757.86	234.33
758.19	234.25
758.51	234.21
758.84	233.88
759.17	233.62
759.49	233.62
759.82	233.82
760.15	233.85
760.47	233.80
760.80	233.57
761.13	233.62
761.45	233.62
761.78	233.49
762.11	233.49
762.43	233.40
762.76	233.25
763.08	233.18
763.41	233.23
763.74	233.22
764.06	233.05
764.39	233.03
764.71	233.00
765.04	232.86
765.37	232.78
765.69	232.72
766.02	232.73
766.34	232.60
766.67	232.37
767.00	232.42
767.32	232.72
767.65	233.00
767.97	232.84
768.30	232.79
768.62	232.78
768.95	232.67
769.27	232.58
769.60	232.71
769.92	232.62
770.25	232.48
770.57	232.30
770.90	232.34
771.22	232.20
771.55	232.18
771.87	232.14
772.20	232.10
772.52	232.45
772.85	233.02
773.17	232.95
773.50	232.89
773.82	232.75
774.15	232.38
774.47	232.06
774.80	232.06
775.12	232.01
775.45	231.93
775.77	231.97
776.09	231.98
776.42	231.90
776.74	232.04
777.07	231.98
777.39	231.95
777.72	231.86
778.04	231.91
778.36	231.80
778.69	231.88
779.01	231.82
779.33	231.40
779.66	230.70
779.98	230.67
780.31	230.62
780.63	230.73
780.95	230.81
781.28	230.75
781.60	230.56
781.92	230.48
782.25	230.41
782.57	230.30
782.89	230.20
783.22	230.07
783.54	229.95
783.86	229.93
784.19	229.92
784.51	230.08
784.83	229.90
785.16	229.81
785.48	229.69
785.80	229.63
786.12	229.63
786.45	229.65
786.77	229.65
787.09	229.57
787.42	229.39
787.74	229.30
788.06	229.26
788.38	229.26
788.71	229.23
789.03	229.18
789.35	229.24
789.67	229.14
789.99	229.15
790.32	228.99
790.64	229.01
790.96	229.37
791.28	229.03
791.61	229.05
791.93	229.12
792.25	229.08
792.57	229.41
792.89	229.24
793.21	229.30
793.54	229.19
793.86	229.13
794.18	229.15
794.50	229.06
794.82	229.08
795.14	229.13
795.47	229.16
795.79	229.15
796.11	228.98
796.43	228.98
796.75	228.96
797.07	228.97
797.39	228.92
797.71	228.57
798.04	228.65
798.36	228.61
798.68	228.51
799.00	228.49
799.32	228.18
799.64	228.30
799.96	228.23
800.28	228.38
800.60	228.29
800.92	228.30
801.24	228.25
801.56	228.25
801.89	228.17
802.21	228.19
802.53	228.16
802.85	228.33
803.17	228.48
803.49	228.42
803.81	228.39
804.13	228.40
804.45	228.26
804.77	228.30
805.09	228.29
805.41	228.28
805.73	228.16
806.05	228.07
806.37	228.01
806.69	228.00
807.01	227.95
807.33	228.05
807.65	227.88
807.97	228.14
808.28	227.98
808.60	228.01
808.92	228.00
809.24	228.26
809.56	228.17
809.88	228.05
810.20	228.04
810.52	228.13
810.84	228.08
811.16	228.09
811.48	227.99
811.80	228.16
812.12	228.10
812.43	228.20
812.75	228.25
813.07	228.25
813.39	228.25
813.71	228.17
814.03	228.15
814.35	228.13
814.67	227.95
814.98	228.04
815.30	227.99
815.62	227.87
815.94	227.56
816.26	227.80
816.58	227.75
816.89	227.77
817.21	227.72
817.53	227.69
817.85	227.66
818.17	227.70
818.48	227.52
818.80	227.70
819.12	227.69
819.44	227.57
819.76	227.41
820.07	227.41
820.39	227.40
820.71	227.41
821.03	227.44
821.34	227.41
821.66	227.44
821.98	227.41
822.30	227.35
822.61	227.67
822.93	227.36
823.25	227.30
823.57	227.32
823.88	227.32
824.20	227.30
824.52	227.41
824.83	227.36
825.15	227.39
825.47	227.31
825.79	227.35
826.10	227.28
826.42	227.32
826.74	227.38
827.05	227.35
827.37	227.31
827.69	227.29
828.00	227.29
828.32	227.27
828.64	227.28
828.95	227.57
829.27	227.42
829.58	227.41
829.90	227.49
830.22	227.44
830.53	227.38
830.85	227.34
831.17	227.20
831.48	227.20
831.80	227.13
832.11	227.07
832.43	226.89
832.75	226.91
833.06	227.17
833.38	226.97
833.69	226.91
834.01	226.99
834.32	226.93
834.64	226.88
834.96	226.91
835.27	226.87
835.59	226.71
835.90	226.54
836.22	226.51
836.53	226.40
836.85	226.38
837.16	226.77
837.48	226.78
837.79	226.89
838.11	226.91
838.42	226.84
838.74	226.92
839.05	226.90
839.37	226.94
839.68	226.66
840.00	226.73
840.31	226.82
840.63	226.76
840.94	226.70
841.26	226.64
841.57	226.59
841.88	226.64
842.20	226.52
842.51	226.50
842.83	226.45
843.14	226.93
843.46	226.92
843.77	226.72
844.08	226.61
844.40	226.53
844.71	226.52
845.03	226.53
845.34	226.44
845.65	226.46
845.97	226.41
846.28	226.48
846.60	226.41
846.91	226.25
847.22	226.20
847.54	226.30
847.85	226.29
848.16	226.20
848.48	226.07
848.79	226.26
849.10	226.35
849.42	226.42
849.73	225.88
850.04	225.80
850.36	225.62
850.67	225.78
850.98	225.76
851.30	225.83
851.61	225.84
851.92	225.85
852.23	225.96
852.55	226.04
852.86	225.98
853.17	226.08
853.49	226.25
853.80	226.39
854.11	226.42
854.42	226.55
854.74	226.51
855.05	226.64
855.36	226.51
855.67	226.50
855.99	226.55
856.30	227.17
856.61	227.22
856.92	227.17
857.23	227.16
857.55	227.13
857.86	227.01
858.17	227.15
858.48	227.06
858.79	227.00
859.11	227.06
859.42	227.09
859.73	227.01
860.04	226.95
860.35	226.80
860.66	226.73
860.98	226.62
861.29	226.72
861.60	226.70
861.91	226.74
862.22	226.65
862.53	226.49
862.84	225.97
863.16	226.10
863.47	226.03
863.78	225.97
864.09	226.09
864.40	226.10
864.71	226.07
865.02	226.12
865.33	226.10
865.64	225.95
865.95	225.92
866.27	226.22
866.58	226.27
866.89	226.28
867.20	226.27
867.51	226.26
867.82	226.21
868.13	226.34
868.44	226.22
868.75	226.40
869.06	226.47
869.37	226.45
869.68	226.26
869.99	226.38
870.30	226.50
870.61	226.49
870.92	226.51
871.23	226.41
871.54	226.47
871.85	226.55
872.16	226.69
872.47	226.67
872.78	226.38
873.09	226.41
873.40	226.39
873.71	226.42
874.02	226.42
874.33	226.35
874.64	226.22
874.95	226.42
875.26	226.24
875.56	226.26
875.87	226.25
876.18	226.23
876.49	226.65
876.80	226.58
877.11	226.51
877.42	226.50
877.73	226.58
878.04	226.52
878.35	226.54
878.66	226.48
878.96	226.47
879.27	226.47
879.58	226.40
879.89	226.43
880.20	226.47
880.51	226.50
880.82	226.57
881.12	226.59
881.43	226.49
881.74	226.46
882.05	226.41
882.36	226.55
882.67	226.66
882.97	226.14
883.28	226.07
883.59	226.05
883.90	226.16
884.21	226.24
884.51	226.25
884.82	226.16
885.13	226.17
885.44	226.21
885.74	226.25
886.05	226.20
886.36	226.22
886.67	226.14
886.98	226.30
887.28	226.34
887.59	226.31
887.90	226.23
888.20	226.26
888.51	226.38
888.82	226.26
889.13	226.32
889.43	226.75
889.74	226.78
890.05	226.77
890.35	226.73
890.66	226.60
890.97	226.55
891.28	226.53
891.58	226.54
891.89	226.53
892.20	226.50
892.50	226.48
892.81	226.51
893.12	226.46
893.42	226.30
893.73	226.34
894.04	226.36
894.34	226.46
894.65	226.37
894.95	226.30
895.26	226.33
895.57	226.50
895.87	226.08
896.18	226.16
896.48	226.17
896.79	226.20
897.10	226.26
897.40	226.34
897.71	226.46
898.01	226.40
898.32	226.42
898.63	226.40
898.93	226.45
899.24	226.39
899.54	226.41
899.85	226.44
900.15	226.39
900.46	226.37
900.76	226.36
901.07	226.45
901.38	226.46
901.68	226.59
901.99	226.31
902.29	226.35
902.60	226.30
902.90	226.22
903.21	226.18
903.51	226.15
903.82	226.17
904.12	226.07
904.43	226.05
904.73	226.01
905.03	226.04
905.34	226.45
905.64	226.40
905.95	226.40
906.25	226.38
906.56	226.37
906.86	226.39
907.17	226.36
907.47	226.32
907.77	226.28
908.08	226.13
908.38	226.21
908.69	226.24
908.99	226.31
909.30	226.43
909.60	226.40
909.90	226.45
910.21	226.34
910.51	226.29
910.81	226.38
911.12	226.40
911.42	226.31
911.73	225.90
912.03	225.97
912.33	226.08
912.64	226.01
912.94	225.90
913.24	225.78
913.55	225.73
913.85	225.71
914.15	225.81
914.46	225.80
914.76	225.70
915.06	225.59
915.37	225.48
915.67	225.45
915.97	225.44
916.27	225.33
916.58	225.32
916.88	225.33
917.18	225.24
917.49	225.49
917.79	225.49
918.09	225.52
918.39	225.56
918.70	225.53
919.00	225.56
919.30	225.82
919.60	225.81
919.91	225.75
920.21	225.74
920.51	225.61
920.81	225.62
921.12	225.72
921.42	225.83
921.72	225.84
922.02	225.81
922.32	225.90
922.63	225.90
922.93	226.15
923.23	226.19
923.53	226.12
923.83	225.85
924.13	225.92
924.44	225.87
924.74	225.96
925.04	226.09
925.34	226.07
925.64	225.87
925.94	225.93
926.24	226.26
926.55	226.25
926.85	226.38
927.15	226.31
927.45	226.33
927.75	226.28
928.05	226.29
928.35	226.27
928.65	226.37
928.95	226.41
929.26	226.15
929.56	226.18
929.86	226.29
930.16	226.26
930.46	226.24
930.76	226.31
931.06	226.10
931.36	225.89
931.66	226.01
931.96	226.14
932.26	226.13
932.56	225.86
932.86	225.99
933.16	225.98
933.46	225.96
933.76	225.87
934.06	225.93
934.36	226.09
934.66	226.10
934.96	225.96
935.26	226.04
935.56	226.21
935.86	226.14
936.16	225.99
936.46	225.96
936.76	225.96
937.06	225.88
937.36	225.91
937.66	225.95
937.96	225.86
938.26	225.71
938.56	225.71
938.86	225.76
939.16	225.80
939.46	225.83
939.76	225.88
940.06	225.87
940.35	225.77
940.65	225.57
940.95	225.63
941.25	225.53
941.55	225.41
941.85	225.31
942.15	225.37
942.45	225.60
942.75	225.60
943.04	225.65
943.34	225.75
943.64	225.75
943.94	225.72
944.24	225.77
944.54	225.85
944.84	225.89
945.13	225.80
945.43	225.72
945.73	225.70
946.03	225.70
946.33	225.67
946.62	225.66
946.92	225.69
947.22	225.67
947.52	225.74
947.82	225.79
948.11	225.75
948.41	225.73
948.71	225.51
949.01	225.48
949.31	225.44
949.60	225.45
949.90	225.49
950.20	225.39
950.50	225.37
950.79	225.25
951.09	225.23
951.39	225.27
951.69	225.18
951.98	225.18
952.28	225.11
952.58	225.12
952.87	225.09
953.17	225.10
953.47	224.99
953.76	224.99
954.06	224.88
954.36	224.84
954.66	224.80
954.95	225.02
955.25	225.15
955.55	225.16
955.84	225.04
956.14	225.05
956.44	225.14
956.73	225.10
957.03	225.15
957.32	225.09
957.62	225.01
957.92	225.14
958.21	225.08
958.51	225.64
958.81	225.70
959.10	225.75
959.40	225.86
959.69	225.98
959.99	226.05
960.29	226.12
960.58	226.06
960.88	226.28
961.17	226.21
961.47	226.22
961.76	226.13
962.06	226.26
962.36	226.22
962.65	226.23
962.95	226.24
963.24	226.24
963.54	226.30
963.83	226.38
964.13	226.30
964.42	226.22
964.72	225.86
965.01	225.85
965.31	225.87
965.60	225.83
965.90	226.06
966.19	225.92
966.49	225.95
966.78	226.01
967.08	225.90
967.37	225.95
967.67	225.85
967.96	226.03
968.26	225.98
968.55	226.09
968.85	226.05
969.14	226.09
969.43	226.02
969.73	226.01
970.02	226.00
970.32	226.03
970.61	226.04
970.91	225.87
971.20	225.82
971.49	225.77
971.79	225.82
972.08	225.49
972.38	225.56
972.67	225.50
972.96	225.57
973.26	225.51
973.55	225.64
973.85	225.67
974.14	225.58
974.43	225.58
974.73	225.44
975.02	225.48
975.31	225.46
975.61	225.57
975.90	225.53
976.19	225.51
976.49	225.56
976.78	225.65
977.07	225.71
977.37	225.76
977.66	225.82
977.95	225.64
978.24	225.78
978.54	225.92
978.83	225.89
979.12	225.81
979.42	225.81
979.71	225.69
980.00	225.65
980.29	225.68
980.59	225.60
980.88	225.79
981.17	225.74
981.46	225.75
981.76	225.70
982.05	225.83
982.34	225.87
982.63	225.83
982.93	225.84
983.22	225.97
983.51	225.99
983.80	226.07
984.09	226.18
984.39	226.12
984.68	225.96
984.97	226.05
985.26	226.05
985.55	226.14
985.85	226.03
986.14	226.09
986.43	226.12
986.72	226.15
987.01	225.98
987.30	226.01
987.59	225.99
987.89	226.01
988.18	225.87
988.47	225.83
988.76	225.79
989.05	225.75
989.34	225.63
989.63	225.75
989.92	225.64
990.22	225.54
990.51	225.51
990.80	225.51
991.09	225.50
991.38	225.63
991.67	225.54
991.96	225.56
992.25	225.58
992.54	225.50
992.83	225.46
993.12	225.45
993.41	225.53
993.70	225.67
993.99	225.70
994.28	225.81
994.58	225.94
994.87	225.91
995.16	225.84
995.45	225.76
995.74	225.51
996.03	225.57
996.32	225.70
996.61	225.75
996.90	225.80
997.19	225.81
997.48	225.71
997.77	225.66
998.06	225.69
998.34	225.63
998.63	225.63
998.92	225.71
999.21	225.75
999.50	225.77
999.79	225.63
1000.08	225.64
1000.37	225.61
1000.66	225.50
1000.95	225.58
1001.24	225.66
1001.53	225.74
1001.82	225.86
1002.11	225.74
1002.40	225.79
1002.68	225.93
1002.97	226.30
1003.26	226.24
1003.55	226.23
1003.84	226.31
1004.13	226.46
1004.42	226.40
1004.71	226.48
1004.99	226.37
1005.28	226.48
1005.57	226.42
1005.86	226.42
1006.15	226.38
1006.44	226.23
1006.72	226.33
1007.01	226.30
1007.30	226.32
1007.59	226.29
1007.88	226.19
1008.17	226.29
1008.45	226.16
1008.74	225.94
1009.03	225.60
1009.32	225.54
1009.60	225.51
1009.89	225.41
1010.18	225.17
1010.47	225.26
1010.76	225.16
1011.04	225.18
1011.33	225.20
1011.62	225.25
1011.91	225.35
1012.19	225.32
1012.48	225.45
1012.77	225.42
1013.05	225.65
1013.34	225.61
1013.63	225.59
1013.92	225.65
1014.20	225.60
1014.49	225.66
1014.78	225.78
1015.06	225.75
1015.35	225.92
1015.64	226.04
1015.92	226.04
1016.21	226.10
1016.50	226.12
1016.78	226.20
1017.07	226.20
1017.36	226.10
1017.64	226.02
1017.93	225.96
1018.22	225.92
1018.50	225.93
1018.79	225.84
1019.08	225.63
1019.36	225.65
1019.65	225.60
1019.93	225.76
1020.22	225.81
1020.51	226.02
1020.79	225.88
1021.08	224.15
1021.36	225.50
1021.65	224.80
1021.94	225.75
1022.22	225.30
1022.51	224.55
1022.79	228.35
1023.08	225.95
1023.36	231.15
1023.65	224.20
>>>>>End Processed Spectral Data<<<<<
