SpectraSuite Data File
++++++++++++++++++++++++++++++++++++
Date: Wed Sep 04 17:40:41 EDT 2013
User: lab3
Dark Spectrum Present: Yes
Reference Spectrum Present: No
Number of Sampled Component Spectra: 1
Spectrometers: USB2E7196
Integration Time (usec): 170000 (USB2E7196)
Spectra Averaged: 20 (USB2E7196)
Boxcar Smoothing: 10 (USB2E7196)
Correct for Electrical Dark: No (USB2E7196)
Strobe/Lamp Enabled: No (USB2E7196)
Correct for Detector Non-linearity: No (USB2E7196)
Correct for Stray Light: No (USB2E7196)
Number of Pixels in Processed Spectrum: 2048
>>>>>Begin Processed Spectral Data<<<<<
339.09	0.00
339.48	211.40
339.86	214.50
340.24	215.15
340.63	216.55
341.01	226.00
341.39	220.05
341.78	221.30
342.16	223.60
342.54	223.15
342.93	211.75
343.31	222.49
343.69	223.11
344.07	223.60
344.46	224.11
344.84	224.54
345.22	224.50
345.60	224.81
345.99	225.02
346.37	225.09
346.75	225.21
347.13	225.28
347.52	225.47
347.90	225.70
348.28	225.74
348.66	225.91
349.05	225.72
349.43	225.74
349.81	225.80
350.19	225.73
350.57	225.83
350.96	225.92
351.34	225.93
351.72	226.01
352.10	226.05
352.48	226.09
352.87	226.11
353.25	226.16
353.63	226.15
354.01	226.20
354.39	226.26
354.77	226.28
355.15	226.52
355.54	226.45
355.92	226.37
356.30	226.48
356.68	226.75
357.06	226.79
357.44	226.85
357.82	226.88
358.20	227.43
358.58	227.42
358.97	227.54
359.35	227.70
359.73	227.84
360.11	227.84
360.49	227.80
360.87	227.86
361.25	227.95
361.63	228.12
362.01	228.19
362.39	228.24
362.77	228.34
363.15	228.28
363.53	228.38
363.91	228.45
364.29	228.52
364.67	228.16
365.05	228.26
365.43	228.37
365.81	228.44
366.19	228.21
366.57	228.53
366.95	228.47
367.33	228.37
367.71	228.34
368.09	228.47
368.47	228.56
368.85	228.61
369.23	228.68
369.61	228.50
369.99	228.55
370.37	228.63
370.75	228.83
371.13	228.70
371.51	228.58
371.89	228.54
372.27	228.51
372.65	228.50
373.03	228.50
373.41	228.33
373.78	228.32
374.16	228.11
374.54	227.87
374.92	227.87
375.30	227.88
375.68	227.74
376.06	227.69
376.44	227.57
376.82	227.49
377.19	227.40
377.57	227.36
377.95	227.24
378.33	227.18
378.71	226.85
379.09	226.90
379.47	226.89
379.84	226.84
380.22	226.67
380.60	226.57
380.98	226.45
381.36	226.45
381.73	226.24
382.11	226.21
382.49	226.13
382.87	226.00
383.25	225.85
383.62	226.39
384.00	226.25
384.38	226.25
384.76	226.28
385.13	226.46
385.51	226.43
385.89	226.32
386.27	226.22
386.64	226.24
387.02	226.17
387.40	226.14
387.78	226.03
388.15	226.01
388.53	225.95
388.91	225.93
389.29	225.81
389.66	225.94
390.04	225.84
390.42	225.88
390.79	225.88
391.17	225.90
391.55	225.34
391.92	225.36
392.30	225.37
392.68	225.28
393.05	225.19
393.43	225.12
393.81	225.11
394.18	225.02
394.56	225.05
394.94	225.12
395.31	225.07
395.69	225.30
396.06	225.38
396.44	225.44
396.82	225.41
397.19	225.76
397.57	225.74
397.95	225.91
398.32	225.88
398.70	225.92
399.07	226.11
399.45	226.18
399.82	226.21
400.20	226.22
400.58	226.24
400.95	226.12
401.33	226.37
401.70	226.77
402.08	226.98
402.45	227.08
402.83	227.33
403.20	227.49
403.58	227.57
403.95	227.80
404.33	227.99
404.71	228.26
405.08	228.68
405.46	228.89
405.83	229.08
406.21	229.29
406.58	229.59
406.96	229.76
407.33	230.06
407.70	230.41
408.08	231.10
408.45	231.50
408.83	231.96
409.20	232.17
409.58	232.26
409.95	232.74
410.33	233.17
410.70	233.42
411.08	234.00
411.45	234.50
411.82	235.04
412.20	235.69
412.57	236.47
412.95	236.62
413.32	237.34
413.69	238.01
414.07	238.83
414.44	239.68
414.82	240.54
415.19	241.58
415.56	242.60
415.94	243.38
416.31	244.57
416.68	245.80
417.06	247.20
417.43	248.61
417.81	250.06
418.18	251.60
418.55	253.27
418.93	254.95
419.30	256.68
419.67	258.50
420.04	260.41
420.42	262.34
420.79	265.03
421.16	267.39
421.54	270.02
421.91	272.52
422.28	275.01
422.66	277.74
423.03	280.59
423.40	283.36
423.77	286.30
424.15	289.25
424.52	292.37
424.89	295.91
425.26	299.22
425.64	302.31
426.01	305.73
426.38	309.27
426.75	313.02
427.13	316.81
427.50	320.74
427.87	324.80
428.24	328.91
428.61	332.64
428.99	337.05
429.36	341.47
429.73	345.96
430.10	350.63
430.47	355.39
430.85	359.98
431.22	365.05
431.59	370.73
431.96	376.00
432.33	381.71
432.70	387.22
433.08	393.71
433.45	399.80
433.82	405.97
434.19	412.86
434.56	419.59
434.93	426.00
435.30	432.36
435.68	439.51
436.05	446.45
436.42	453.29
436.79	459.64
437.16	466.71
437.53	473.92
437.90	481.15
438.27	488.27
438.64	495.58
439.01	502.54
439.38	508.49
439.75	514.35
440.13	521.07
440.50	527.22
440.87	532.35
441.24	537.83
441.61	543.66
441.98	547.88
442.35	552.64
442.72	557.65
443.09	562.70
443.46	565.52
443.83	567.48
444.20	569.15
444.57	571.48
444.94	572.30
445.31	573.42
445.68	574.65
446.05	574.82
446.42	573.81
446.79	572.63
447.16	571.32
447.53	570.45
447.90	567.50
448.27	564.66
448.64	560.60
449.01	557.61
449.37	552.62
449.74	547.66
450.11	542.18
450.48	535.91
450.85	529.20
451.22	523.66
451.59	518.39
451.96	513.30
452.33	506.61
452.70	500.53
453.07	493.34
453.43	485.75
453.80	478.90
454.17	472.46
454.54	466.26
454.91	459.53
455.28	452.88
455.65	446.71
456.02	441.15
456.38	435.94
456.75	429.43
457.12	423.94
457.49	418.73
457.86	413.46
458.23	409.20
458.59	404.54
458.96	399.70
459.33	395.35
459.70	390.92
460.07	387.53
460.43	383.75
460.80	380.27
461.17	377.20
461.54	373.81
461.91	370.61
462.27	367.36
462.64	364.61
463.01	361.64
463.38	358.94
463.74	355.45
464.11	352.96
464.48	350.81
464.85	348.34
465.21	346.71
465.58	344.76
465.95	342.37
466.32	340.59
466.68	338.76
467.05	337.02
467.42	335.28
467.78	333.40
468.15	331.66
468.52	330.34
468.88	328.46
469.25	326.91
469.62	325.72
469.98	324.42
470.35	323.22
470.72	322.07
471.08	320.68
471.45	319.69
471.82	318.69
472.18	317.48
472.55	316.88
472.92	315.65
473.28	314.68
473.65	313.73
474.02	312.77
474.38	312.09
474.75	311.49
475.11	310.90
475.48	310.38
475.85	309.88
476.21	309.35
476.58	309.05
476.94	308.76
477.31	308.33
477.67	308.05
478.04	307.80
478.41	307.60
478.77	307.93
479.14	307.62
479.50	307.57
479.87	307.74
480.23	307.77
480.60	307.87
480.96	308.05
481.33	308.55
481.69	308.86
482.06	309.06
482.42	309.36
482.79	309.64
483.15	310.08
483.52	310.62
483.88	311.14
484.25	311.71
484.61	312.36
484.98	313.04
485.34	313.94
485.71	314.92
486.07	316.00
486.44	316.47
486.80	317.62
487.17	318.68
487.53	319.93
487.90	321.22
488.26	322.79
488.62	324.41
488.99	325.73
489.35	327.35
489.72	329.09
490.08	330.88
490.44	332.79
490.81	334.85
491.17	336.84
491.54	339.11
491.90	341.42
492.26	343.88
492.63	346.48
492.99	349.06
493.36	351.81
493.72	354.82
494.08	357.89
494.45	361.29
494.81	364.80
495.17	368.37
495.54	372.17
495.90	376.00
496.26	379.93
496.63	384.04
496.99	388.33
497.35	392.90
497.72	397.64
498.08	402.50
498.44	407.57
498.80	413.10
499.17	418.50
499.53	424.12
499.89	430.00
500.26	435.96
500.62	442.10
500.98	448.87
501.34	455.49
501.71	462.58
502.07	469.42
502.43	476.61
502.79	483.93
503.16	491.51
503.52	499.43
503.88	507.65
504.24	516.31
504.60	524.95
504.97	534.05
505.33	543.07
505.69	552.89
506.05	562.46
506.41	572.25
506.78	582.49
507.14	592.87
507.50	603.59
507.86	614.62
508.22	625.87
508.59	636.91
508.95	648.76
509.31	660.77
509.67	673.09
510.03	685.30
510.39	697.79
510.75	710.54
511.12	723.25
511.48	736.32
511.84	749.68
512.20	763.37
512.56	776.85
512.92	791.07
513.28	805.05
513.64	819.60
514.00	834.08
514.37	848.69
514.73	863.78
515.09	878.91
515.45	893.91
515.81	908.93
516.17	924.45
516.53	939.54
516.89	954.69
517.25	970.49
517.61	987.01
517.97	1003.50
518.33	1019.68
518.69	1036.17
519.05	1052.76
519.41	1069.11
519.77	1085.75
520.13	1102.54
520.49	1118.89
520.85	1137.08
521.21	1153.68
521.57	1170.47
521.93	1186.87
522.29	1203.40
522.65	1219.29
523.01	1235.65
523.37	1251.92
523.73	1268.25
524.09	1284.18
524.45	1300.18
524.81	1316.16
525.17	1331.82
525.53	1347.60
525.89	1363.55
526.25	1379.37
526.61	1394.74
526.97	1410.68
527.33	1426.70
527.68	1442.97
528.04	1458.96
528.40	1472.79
528.76	1488.41
529.12	1503.40
529.48	1518.71
529.84	1533.08
530.20	1548.81
530.56	1564.00
530.91	1579.16
531.27	1593.66
531.63	1608.54
531.99	1623.19
532.35	1637.34
532.71	1651.56
533.07	1666.04
533.42	1679.92
533.78	1693.88
534.14	1707.71
534.50	1720.92
534.86	1734.29
535.21	1746.07
535.57	1758.72
535.93	1770.84
536.29	1782.69
536.65	1794.99
537.00	1806.61
537.36	1818.44
537.72	1828.98
538.08	1840.00
538.44	1850.84
538.79	1861.25
539.15	1871.68
539.51	1882.07
539.87	1891.79
540.22	1900.36
540.58	1909.17
540.94	1917.19
541.29	1924.50
541.65	1931.76
542.01	1938.76
542.37	1944.16
542.72	1950.39
543.08	1955.81
543.44	1962.04
543.79	1967.05
544.15	1971.86
544.51	1977.15
544.87	1981.99
545.22	1986.29
545.58	1989.57
545.94	1992.20
546.29	1994.63
546.65	1996.64
547.01	1998.34
547.36	1999.80
547.72	2001.40
548.07	2001.81
548.43	2003.01
548.79	2003.96
549.14	2004.28
549.50	2004.78
549.86	2005.31
550.21	2005.25
550.57	2005.35
550.92	2004.05
551.28	2002.81
551.64	2002.06
551.99	2000.58
552.35	1999.28
552.70	1998.23
553.06	1997.10
553.41	1995.77
553.77	1995.03
554.13	1994.05
554.48	1992.47
554.84	1991.33
555.19	1990.05
555.55	1988.66
555.90	1986.02
556.26	1982.99
556.61	1979.75
556.97	1975.97
557.32	1973.20
557.68	1970.18
558.03	1967.05
558.39	1963.89
558.74	1960.89
559.10	1956.62
559.45	1952.18
559.81	1947.05
560.16	1941.34
560.52	1935.99
560.87	1930.50
561.23	1924.18
561.58	1918.13
561.94	1911.33
562.29	1904.05
562.64	1897.05
563.00	1889.68
563.35	1883.29
563.71	1877.34
564.06	1871.14
564.42	1864.61
564.77	1857.92
565.12	1851.20
565.48	1843.94
565.83	1836.75
566.19	1829.70
566.54	1822.80
566.89	1815.75
567.25	1808.90
567.60	1802.36
567.96	1795.71
568.31	1789.22
568.66	1782.30
569.02	1774.49
569.37	1767.60
569.72	1761.29
570.08	1753.52
570.43	1745.52
570.78	1737.90
571.14	1729.81
571.49	1721.59
571.84	1713.86
572.20	1705.27
572.55	1697.16
572.90	1688.75
573.26	1680.65
573.61	1671.96
573.96	1662.98
574.31	1653.74
574.67	1644.45
575.02	1634.63
575.37	1624.77
575.72	1614.75
576.08	1605.35
576.43	1595.68
576.78	1585.71
577.13	1575.34
577.49	1566.04
577.84	1557.14
578.19	1548.06
578.54	1538.64
578.90	1529.72
579.25	1520.40
579.60	1511.30
579.95	1501.54
580.30	1491.67
580.66	1481.59
581.01	1471.55
581.36	1461.32
581.71	1451.72
582.06	1442.21
582.42	1433.20
582.77	1423.87
583.12	1414.77
583.47	1405.68
583.82	1397.00
584.17	1388.31
584.53	1379.61
584.88	1369.90
585.23	1360.46
585.58	1350.20
585.93	1340.66
586.28	1331.11
586.63	1321.26
586.98	1311.09
587.34	1301.58
587.69	1292.14
588.04	1283.30
588.39	1274.67
588.74	1265.74
589.09	1257.13
589.44	1248.03
589.79	1239.33
590.14	1230.91
590.49	1222.30
590.84	1213.73
591.19	1205.19
591.54	1196.38
591.89	1187.69
592.25	1180.76
592.60	1172.64
592.95	1164.65
593.30	1156.22
593.65	1147.64
594.00	1139.26
594.35	1132.77
594.70	1124.88
595.05	1116.98
595.40	1108.47
595.75	1100.23
596.10	1092.85
596.45	1084.98
596.80	1077.52
597.15	1069.52
597.50	1061.44
597.85	1053.91
598.19	1045.91
598.54	1038.05
598.89	1030.30
599.24	1022.91
599.59	1014.81
599.94	1007.40
600.29	1000.51
600.64	993.46
600.99	986.62
601.34	980.00
601.69	971.93
602.04	964.95
602.39	958.35
602.74	952.13
603.08	945.84
603.43	939.54
603.78	933.07
604.13	926.49
604.48	920.00
604.83	913.49
605.18	906.80
605.53	900.35
605.87	893.95
606.22	888.51
606.57	882.18
606.92	875.69
607.27	869.65
607.62	863.44
607.96	857.79
608.31	852.30
608.66	846.87
609.01	841.11
609.36	835.40
609.70	829.57
610.05	823.74
610.40	817.92
610.75	811.95
611.10	806.28
611.44	800.62
611.79	795.10
612.14	789.68
612.49	784.31
612.83	779.25
613.18	774.13
613.53	768.73
613.88	763.56
614.22	758.50
614.57	753.10
614.92	747.91
615.27	742.85
615.61	737.46
615.96	732.10
616.31	726.95
616.65	722.15
617.00	717.21
617.35	712.43
617.70	707.57
618.04	702.67
618.39	697.90
618.74	693.44
619.08	688.83
619.43	684.03
619.78	679.18
620.12	674.36
620.47	669.69
620.82	664.89
621.16	660.34
621.51	656.24
621.85	651.87
622.20	647.51
622.55	643.07
622.89	638.80
623.24	634.57
623.59	630.29
623.93	625.95
624.28	621.85
624.62	618.15
624.97	614.34
625.32	610.51
625.66	606.59
626.01	602.39
626.35	598.67
626.70	595.08
627.04	591.60
627.39	587.79
627.73	584.36
628.08	580.86
628.43	577.01
628.77	573.17
629.12	569.64
629.46	566.21
629.81	563.01
630.15	559.74
630.50	556.44
630.84	553.22
631.19	549.92
631.53	546.75
631.88	542.93
632.22	539.38
632.57	536.40
632.91	533.21
633.26	530.42
633.60	527.23
633.95	524.06
634.29	520.84
634.64	518.01
634.98	514.69
635.32	511.80
635.67	509.19
636.01	506.32
636.36	503.35
636.70	500.64
637.05	497.64
637.39	494.91
637.73	492.21
638.08	489.62
638.42	486.92
638.77	484.06
639.11	481.29
639.45	478.50
639.80	475.34
640.14	472.55
640.49	469.84
640.83	467.20
641.17	464.70
641.52	462.13
641.86	459.53
642.20	457.37
642.55	454.69
642.89	452.22
643.23	449.79
643.58	447.66
643.92	445.01
644.26	442.71
644.61	440.43
644.95	438.05
645.29	435.54
645.64	433.26
645.98	430.99
646.32	428.82
646.66	426.56
647.01	424.56
647.35	422.65
647.69	420.54
648.04	418.61
648.38	416.66
648.72	414.71
649.06	412.61
649.41	410.53
649.75	408.46
650.09	406.39
650.43	404.38
650.78	402.28
651.12	400.46
651.46	398.57
651.80	396.53
652.14	394.73
652.49	393.13
652.83	391.29
653.17	389.61
653.51	387.80
653.85	386.29
654.20	384.58
654.54	382.80
654.88	381.10
655.22	379.56
655.56	377.85
655.90	376.18
656.25	374.59
656.59	372.91
656.93	371.42
657.27	370.02
657.61	368.38
657.95	366.84
658.29	365.30
658.64	363.80
658.98	362.21
659.32	360.55
659.66	359.01
660.00	357.62
660.34	356.13
660.68	354.79
661.02	353.39
661.36	352.06
661.70	350.66
662.05	349.24
662.39	347.83
662.73	346.69
663.07	345.56
663.41	344.39
663.75	343.05
664.09	341.78
664.43	340.43
664.77	339.40
665.11	338.21
665.45	337.04
665.79	335.89
666.13	334.73
666.47	333.56
666.81	332.21
667.15	331.00
667.49	329.95
667.83	328.94
668.17	327.88
668.51	326.83
668.85	325.81
669.19	325.10
669.53	323.99
669.87	322.81
670.21	321.74
670.55	320.77
670.89	320.03
671.23	319.09
671.57	318.18
671.91	317.12
672.25	316.29
672.58	315.53
672.92	314.51
673.26	313.70
673.60	312.91
673.94	312.19
674.28	311.43
674.62	310.59
674.96	309.66
675.30	308.85
675.64	308.03
675.97	307.13
676.31	306.07
676.65	305.19
676.99	304.56
677.33	303.74
677.67	303.02
678.01	302.09
678.34	301.45
678.68	300.80
679.02	300.07
679.36	299.40
679.70	298.57
680.04	297.88
680.37	297.20
680.71	296.57
681.05	295.92
681.39	295.25
681.73	294.66
682.06	294.12
682.40	293.46
682.74	292.89
683.08	292.40
683.42	291.83
683.75	291.40
684.09	290.72
684.43	290.08
684.77	289.47
685.10	288.97
685.44	288.39
685.78	287.70
686.12	287.09
686.45	286.33
686.79	285.67
687.13	285.31
687.46	284.73
687.80	284.21
688.14	283.66
688.48	283.13
688.81	282.51
689.15	281.94
689.49	281.35
689.82	280.90
690.16	280.27
690.50	279.70
690.83	279.21
691.17	278.56
691.51	278.09
691.84	277.61
692.18	276.97
692.52	276.38
692.85	276.02
693.19	275.77
693.52	275.41
693.86	274.99
694.20	274.41
694.53	274.05
694.87	273.61
695.21	273.14
695.54	272.74
695.88	272.19
696.21	271.69
696.55	271.31
696.88	270.71
697.22	270.25
697.56	269.95
697.89	269.38
698.23	269.02
698.56	268.55
698.90	268.19
699.23	267.81
699.57	267.49
699.90	266.93
700.24	266.40
700.58	266.05
700.91	265.77
701.25	265.81
701.58	265.78
701.92	265.48
702.25	265.13
702.59	264.68
702.92	264.43
703.26	264.16
703.59	263.81
703.93	263.95
704.26	263.73
704.60	263.40
704.93	263.10
705.26	262.73
705.60	262.57
705.93	262.15
706.27	262.00
706.60	261.81
706.94	261.66
707.27	261.34
707.61	261.02
707.94	260.65
708.27	259.93
708.61	259.19
708.94	258.80
709.28	258.55
709.61	258.19
709.94	257.93
710.28	257.61
710.61	257.34
710.95	256.61
711.28	256.62
711.61	256.20
711.95	256.01
712.28	255.72
712.61	255.33
712.95	255.35
713.28	255.19
713.61	254.77
713.95	254.40
714.28	254.14
714.61	253.86
714.95	253.50
715.28	253.20
715.61	252.96
715.95	252.71
716.28	252.36
716.61	252.23
716.95	251.93
717.28	251.68
717.61	251.42
717.94	251.18
718.28	250.47
718.61	250.31
718.94	250.00
719.27	249.79
719.61	249.67
719.94	249.28
720.27	248.91
720.60	248.72
720.94	248.58
721.27	248.44
721.60	248.31
721.93	248.14
722.27	248.14
722.60	248.03
722.93	247.78
723.26	247.57
723.59	247.34
723.93	247.23
724.26	247.06
724.59	246.89
724.92	246.71
725.25	246.74
725.59	246.54
725.92	246.42
726.25	246.30
726.58	246.16
726.91	245.94
727.24	245.80
727.57	245.62
727.91	245.36
728.24	245.16
728.57	244.97
728.90	244.99
729.23	244.65
729.56	244.70
729.89	244.51
730.22	244.40
730.55	244.26
730.89	244.10
731.22	244.01
731.55	243.86
731.88	243.79
732.21	243.66
732.54	243.55
732.87	243.43
733.20	243.30
733.53	243.12
733.86	242.99
734.19	242.78
734.52	242.73
734.85	242.87
735.18	242.68
735.51	242.71
735.84	242.57
736.17	242.59
736.50	242.20
736.83	242.70
737.16	242.60
737.49	242.47
737.82	242.29
738.15	242.20
738.48	242.08
738.81	241.92
739.14	241.65
739.47	241.46
739.80	241.31
740.13	241.21
740.46	241.00
740.79	240.86
741.12	240.74
741.45	240.56
741.78	240.17
742.11	240.21
742.44	239.98
742.77	239.92
743.10	239.76
743.43	239.63
743.75	239.01
744.08	239.50
744.41	239.36
744.74	239.20
745.07	238.87
745.40	238.79
745.73	238.88
746.06	238.81
746.39	238.74
746.71	238.63
747.04	238.47
747.37	238.40
747.70	238.40
748.03	238.27
748.36	238.29
748.68	238.26
749.01	237.95
749.34	237.81
749.67	237.64
750.00	237.58
750.33	237.88
750.65	237.79
750.98	237.08
751.31	237.04
751.64	237.08
751.97	237.40
752.29	237.28
752.62	236.96
752.95	236.83
753.28	236.71
753.60	236.62
753.93	236.65
754.26	236.61
754.59	236.31
754.91	236.27
755.24	236.02
755.57	235.92
755.90	235.87
756.22	235.77
756.55	235.64
756.88	235.42
757.20	234.94
757.53	234.73
757.86	234.64
758.19	234.57
758.51	234.39
758.84	233.98
759.17	233.77
759.49	233.63
759.82	233.84
760.15	233.76
760.47	233.70
760.80	233.46
761.13	233.42
761.45	233.37
761.78	233.24
762.11	233.15
762.43	232.94
762.76	232.88
763.08	232.79
763.41	232.74
763.74	232.76
764.06	232.70
764.39	232.65
764.71	232.50
765.04	232.31
765.37	232.19
765.69	232.21
766.02	232.17
766.34	232.09
766.67	231.79
767.00	231.84
767.32	231.99
767.65	232.20
767.97	232.05
768.30	232.00
768.62	231.92
768.95	231.84
769.27	231.82
769.60	231.85
769.92	231.74
770.25	231.63
770.57	231.47
770.90	231.36
771.22	231.31
771.55	231.28
771.87	231.32
772.20	231.25
772.52	231.55
772.85	232.06
773.17	232.08
773.50	232.00
773.82	231.81
774.15	231.46
774.47	231.06
774.80	230.95
775.12	230.94
775.45	230.93
775.77	230.93
776.09	231.01
776.42	230.99
776.74	231.07
777.07	231.01
777.39	231.00
777.72	230.89
778.04	230.94
778.36	230.82
778.69	230.84
779.01	230.91
779.33	230.48
779.66	229.93
779.98	229.86
780.31	229.83
780.63	230.05
780.95	230.15
781.28	230.15
781.60	230.17
781.92	230.04
782.25	230.09
782.57	230.05
782.89	229.84
783.22	229.73
783.54	229.65
783.86	229.62
784.19	229.56
784.51	229.71
784.83	229.54
785.16	229.64
785.48	229.54
785.80	229.40
786.12	229.39
786.45	229.36
786.77	229.38
787.09	229.40
787.42	229.21
787.74	229.23
788.06	229.29
788.38	229.29
788.71	229.25
789.03	229.22
789.35	229.25
789.67	229.26
789.99	229.23
790.32	229.07
790.64	229.11
790.96	229.47
791.28	229.34
791.61	229.38
791.93	229.36
792.25	229.33
792.57	229.76
792.89	229.67
793.21	229.73
793.54	229.65
793.86	229.55
794.18	229.51
794.50	229.34
794.82	229.36
795.14	229.40
795.47	229.50
795.79	229.40
796.11	229.25
796.43	229.21
796.75	229.23
797.07	229.30
797.39	229.26
797.71	228.89
798.04	228.91
798.36	228.92
798.68	228.85
799.00	228.90
799.32	228.60
799.64	228.63
799.96	228.53
800.28	228.59
800.60	228.55
800.92	228.56
801.24	228.50
801.56	228.51
801.89	228.38
802.21	228.39
802.53	228.30
802.85	228.38
803.17	228.66
803.49	228.55
803.81	228.52
804.13	228.44
804.45	228.40
804.77	228.41
805.09	228.38
805.41	228.39
805.73	228.25
806.05	228.13
806.37	228.11
806.69	228.11
807.01	228.04
807.33	228.06
807.65	227.94
807.97	228.26
808.28	228.12
808.60	228.07
808.92	227.95
809.24	228.26
809.56	228.19
809.88	227.95
810.20	227.99
810.52	228.10
810.84	227.99
811.16	227.90
811.48	227.88
811.80	228.08
812.12	228.01
812.43	228.10
812.75	228.16
813.07	228.12
813.39	228.15
813.71	228.11
814.03	228.00
814.35	227.97
814.67	227.67
814.98	227.70
815.30	227.78
815.62	227.70
815.94	227.38
816.26	227.62
816.58	227.62
816.89	227.63
817.21	227.51
817.53	227.63
817.85	227.68
818.17	227.62
818.48	227.35
818.80	227.44
819.12	227.31
819.44	227.19
819.76	227.08
820.07	227.03
820.39	227.04
820.71	227.12
821.03	227.18
821.34	227.22
821.66	227.22
821.98	227.26
822.30	227.25
822.61	227.62
822.93	227.34
823.25	227.26
823.57	227.28
823.88	227.37
824.20	227.30
824.52	227.34
824.83	227.35
825.15	227.26
825.47	227.19
825.79	227.29
826.10	227.25
826.42	227.24
826.74	227.25
827.05	227.21
827.37	227.23
827.69	227.19
828.00	227.22
828.32	227.18
828.64	227.11
828.95	227.42
829.27	227.25
829.58	227.28
829.90	227.35
830.22	227.20
830.53	227.05
830.85	227.01
831.17	226.85
831.48	226.76
831.80	226.84
832.11	226.85
832.43	226.76
832.75	226.76
833.06	227.12
833.38	226.98
833.69	227.01
834.01	227.03
834.32	227.00
834.64	226.92
834.96	226.98
835.27	226.95
835.59	226.73
835.90	226.59
836.22	226.60
836.53	226.54
836.85	226.60
837.16	227.05
837.48	227.04
837.79	227.20
838.11	227.28
838.42	227.25
838.74	227.36
839.05	227.32
839.37	227.34
839.68	226.95
840.00	226.99
840.31	226.95
840.63	226.84
840.94	226.78
841.26	226.71
841.57	226.66
841.88	226.65
842.20	226.59
842.51	226.51
842.83	226.54
843.14	226.91
843.46	226.92
843.77	226.74
844.08	226.71
844.40	226.59
844.71	226.57
845.03	226.52
845.34	226.34
845.65	226.40
845.97	226.38
846.28	226.42
846.60	226.45
846.91	226.48
847.22	226.53
847.54	226.70
847.85	226.75
848.16	226.66
848.48	226.60
848.79	226.84
849.10	226.91
849.42	226.87
849.73	226.36
850.04	226.33
850.36	226.11
850.67	226.28
850.98	226.24
851.30	226.24
851.61	226.23
851.92	226.30
852.23	226.41
852.55	226.40
852.86	226.39
853.17	226.38
853.49	226.46
853.80	226.55
854.11	226.53
854.42	226.62
854.74	226.61
855.05	226.65
855.36	226.41
855.67	226.40
855.99	226.43
856.30	227.09
856.61	227.01
856.92	226.99
857.23	226.90
857.55	226.90
857.86	226.85
858.17	226.91
858.48	226.82
858.79	226.64
859.11	226.68
859.42	226.66
859.73	226.66
860.04	226.61
860.35	226.42
860.66	226.20
860.98	226.14
861.29	226.21
861.60	226.18
861.91	226.26
862.22	226.14
862.53	226.00
862.84	225.43
863.16	225.62
863.47	225.51
863.78	225.48
864.09	225.48
864.40	225.50
864.71	225.54
865.02	225.62
865.33	225.57
865.64	225.51
865.95	225.59
866.27	225.81
866.58	225.75
866.89	225.85
867.20	225.82
867.51	225.72
867.82	225.66
868.13	225.73
868.44	225.60
868.75	225.75
869.06	225.85
869.37	225.89
869.68	225.74
869.99	225.83
870.30	225.86
870.61	225.98
870.92	225.94
871.23	225.86
871.54	225.89
871.85	226.04
872.16	226.06
872.47	225.97
872.78	225.73
873.09	225.74
873.40	225.64
873.71	225.71
874.02	225.68
874.33	225.67
874.64	225.60
874.95	225.72
875.26	225.68
875.56	225.57
875.87	225.56
876.18	225.60
876.49	226.08
876.80	226.06
877.11	225.98
877.42	226.01
877.73	226.05
878.04	226.01
878.35	225.95
878.66	226.00
878.96	226.01
879.27	225.98
879.58	225.97
879.89	226.06
880.20	226.23
880.51	226.26
880.82	226.30
881.12	226.35
881.43	226.28
881.74	226.17
882.05	226.18
882.36	226.23
882.67	226.23
882.97	225.73
883.28	225.61
883.59	225.56
883.90	225.54
884.21	225.60
884.51	225.55
884.82	225.52
885.13	225.51
885.44	225.51
885.74	225.52
886.05	225.57
886.36	225.53
886.67	225.39
886.98	225.64
887.28	225.64
887.59	225.68
887.90	225.68
888.20	225.68
888.51	225.82
888.82	225.72
889.13	225.72
889.43	226.13
889.74	226.19
890.05	226.21
890.35	226.24
890.66	226.15
890.97	226.14
891.28	226.12
891.58	226.12
891.89	226.08
892.20	226.00
892.50	225.92
892.81	225.92
893.12	225.95
893.42	225.76
893.73	225.80
894.04	225.75
894.34	225.89
894.65	225.92
894.95	225.85
895.26	225.87
895.57	226.12
895.87	225.68
896.18	225.80
896.48	225.85
896.79	225.85
897.10	225.94
897.40	225.97
897.71	226.03
898.01	226.06
898.32	226.19
898.63	226.18
898.93	226.22
899.24	226.24
899.54	226.22
899.85	226.16
900.15	226.08
900.46	226.07
900.76	226.08
901.07	226.04
901.38	226.09
901.68	226.19
901.99	225.90
902.29	225.98
902.60	225.95
902.90	225.86
903.21	225.89
903.51	225.82
903.82	225.89
904.12	225.92
904.43	225.86
904.73	225.81
905.03	225.90
905.34	226.37
905.64	226.32
905.95	226.33
906.25	226.37
906.56	226.34
906.86	226.31
907.17	226.21
907.47	226.35
907.77	226.27
908.08	226.14
908.38	226.17
908.69	226.17
908.99	226.22
909.30	226.29
909.60	226.26
909.90	226.32
910.21	226.20
910.51	226.10
910.81	226.17
911.12	226.25
911.42	226.20
911.73	225.70
912.03	225.79
912.33	225.87
912.64	225.86
912.94	225.89
913.24	225.84
913.55	225.81
913.85	225.70
914.15	225.84
914.46	225.91
914.76	225.95
915.06	225.88
915.37	225.84
915.67	225.72
915.97	225.72
916.27	225.57
916.58	225.61
916.88	225.65
917.18	225.58
917.49	225.83
917.79	225.84
918.09	225.95
918.39	226.07
918.70	226.01
919.00	226.00
919.30	226.20
919.60	226.18
919.91	226.17
920.21	226.14
920.51	225.99
920.81	225.97
921.12	226.00
921.42	225.99
921.72	225.92
922.02	226.00
922.32	226.07
922.63	226.14
922.93	226.37
923.23	226.39
923.53	226.43
923.83	226.12
924.13	226.19
924.44	226.15
924.74	226.16
925.04	226.25
925.34	226.25
925.64	226.05
925.94	226.11
926.24	226.34
926.55	226.33
926.85	226.40
927.15	226.39
927.45	226.38
927.75	226.40
928.05	226.49
928.35	226.43
928.65	226.50
928.95	226.54
929.26	226.33
929.56	226.35
929.86	226.37
930.16	226.35
930.46	226.30
930.76	226.28
931.06	226.10
931.36	225.97
931.66	226.04
931.96	226.11
932.26	226.10
932.56	225.89
932.86	225.96
933.16	225.97
933.46	225.88
933.76	225.81
934.06	225.93
934.36	226.06
934.66	226.13
934.96	226.04
935.26	226.01
935.56	226.06
935.86	225.93
936.16	225.87
936.46	225.77
936.76	225.72
937.06	225.69
937.36	225.67
937.66	225.78
937.96	225.78
938.26	225.72
938.56	225.69
938.86	225.71
939.16	225.79
939.46	225.82
939.76	225.91
940.06	225.95
940.35	225.77
940.65	225.52
940.95	225.55
941.25	225.45
941.55	225.44
941.85	225.42
942.15	225.59
942.45	225.66
942.75	225.70
943.04	225.74
943.34	225.82
943.64	225.85
943.94	225.75
944.24	225.73
944.54	225.70
944.84	225.70
945.13	225.67
945.43	225.59
945.73	225.54
946.03	225.48
946.33	225.42
946.62	225.41
946.92	225.45
947.22	225.46
947.52	225.51
947.82	225.55
948.11	225.50
948.41	225.35
948.71	225.22
949.01	225.30
949.31	225.28
949.60	225.23
949.90	225.25
950.20	225.18
950.50	225.18
950.79	225.17
951.09	225.30
951.39	225.32
951.69	225.28
951.98	225.38
952.28	225.37
952.58	225.34
952.87	225.34
953.17	225.40
953.47	225.24
953.76	225.28
954.06	225.22
954.36	225.15
954.66	225.12
954.95	225.21
955.25	225.26
955.55	225.34
955.84	225.21
956.14	225.28
956.44	225.38
956.73	225.32
957.03	225.40
957.32	225.41
957.62	225.31
957.92	225.49
958.21	225.49
958.51	226.03
958.81	226.09
959.10	226.21
959.40	226.28
959.69	226.36
959.99	226.42
960.29	226.36
960.58	226.42
960.88	226.70
961.17	226.75
961.47	226.70
961.76	226.61
962.06	226.79
962.36	226.66
962.65	226.69
962.95	226.66
963.24	226.55
963.54	226.51
963.83	226.61
964.13	226.48
964.42	226.33
964.72	225.98
965.01	226.00
965.31	225.90
965.60	225.82
965.90	226.14
966.19	225.99
966.49	226.07
966.78	226.02
967.08	225.93
967.37	225.86
967.67	225.84
967.96	225.90
968.26	225.85
968.55	225.95
968.85	225.88
969.14	225.87
969.43	225.91
969.73	225.91
970.02	225.91
970.32	225.93
970.61	225.95
970.91	225.87
971.20	225.80
971.49	225.84
971.79	225.86
972.08	225.49
972.38	225.53
972.67	225.45
972.96	225.50
973.26	225.40
973.55	225.46
973.85	225.46
974.14	225.43
974.43	225.44
974.73	225.28
975.02	225.27
975.31	225.21
975.61	225.19
975.90	225.08
976.19	224.95
976.49	224.96
976.78	224.95
977.07	224.90
977.37	224.94
977.66	224.97
977.95	224.90
978.24	224.96
978.54	225.05
978.83	225.01
979.12	225.01
979.42	225.06
979.71	225.00
980.00	224.94
980.29	225.01
980.59	224.92
980.88	225.13
981.17	225.10
981.46	225.18
981.76	225.21
982.05	225.40
982.34	225.50
982.63	225.51
982.93	225.49
983.22	225.64
983.51	225.62
983.80	225.71
984.09	225.79
984.39	225.75
984.68	225.72
984.97	225.78
985.26	225.78
985.55	225.76
985.85	225.61
986.14	225.72
986.43	225.86
986.72	225.91
987.01	225.75
987.30	225.80
987.59	225.76
987.89	225.76
988.18	225.58
988.47	225.49
988.76	225.38
989.05	225.43
989.34	225.29
989.63	225.43
989.92	225.33
990.22	225.31
990.51	225.30
990.80	225.22
991.09	225.36
991.38	225.42
991.67	225.39
991.96	225.46
992.25	225.44
992.54	225.24
992.83	225.17
993.12	225.23
993.41	225.30
993.70	225.55
993.99	225.64
994.28	225.73
994.58	225.88
994.87	225.89
995.16	225.83
995.45	225.86
995.74	225.73
996.03	225.81
996.32	225.80
996.61	225.97
996.90	226.01
997.19	225.97
997.48	226.00
997.77	225.95
998.06	226.01
998.34	225.95
998.63	226.02
998.92	226.09
999.21	226.11
999.50	226.13
999.79	225.92
1000.08	225.92
1000.37	225.92
1000.66	225.85
1000.95	225.97
1001.24	225.95
1001.53	225.96
1001.82	225.92
1002.11	225.76
1002.40	225.82
1002.68	225.92
1002.97	226.25
1003.26	226.12
1003.55	226.02
1003.84	226.08
1004.13	226.23
1004.42	226.18
1004.71	226.10
1004.99	226.07
1005.28	226.19
1005.57	226.12
1005.86	226.03
1006.15	225.89
1006.44	225.82
1006.72	225.88
1007.01	225.84
1007.30	225.87
1007.59	225.83
1007.88	225.85
1008.17	225.92
1008.45	225.85
1008.74	225.63
1009.03	225.37
1009.32	225.43
1009.60	225.36
1009.89	225.31
1010.18	225.12
1010.47	225.24
1010.76	225.29
1011.04	225.25
1011.33	225.26
1011.62	225.29
1011.91	225.34
1012.19	225.41
1012.48	225.43
1012.77	225.37
1013.05	225.49
1013.34	225.56
1013.63	225.54
1013.92	225.57
1014.20	225.58
1014.49	225.54
1014.78	225.59
1015.06	225.42
1015.35	225.41
1015.64	225.55
1015.92	225.68
1016.21	225.69
1016.50	225.66
1016.78	225.75
1017.07	225.89
1017.36	225.70
1017.64	225.69
1017.93	225.74
1018.22	225.69
1018.50	225.66
1018.79	225.69
1019.08	225.52
1019.36	225.52
1019.65	225.53
1019.93	225.66
1020.22	225.70
1020.51	225.94
1020.79	225.94
1021.08	224.90
1021.36	224.20
1021.65	225.75
1021.94	224.75
1022.22	226.45
1022.51	225.40
1022.79	228.10
1023.08	226.20
1023.36	230.45
1023.65	225.50
>>>>>End Processed Spectral Data<<<<<
