SpectraSuite Data File
++++++++++++++++++++++++++++++++++++
Date: Wed Sep 04 17:41:26 EDT 2013
User: lab3
Dark Spectrum Present: Yes
Reference Spectrum Present: No
Number of Sampled Component Spectra: 1
Spectrometers: USB2E7196
Integration Time (usec): 170000 (USB2E7196)
Spectra Averaged: 20 (USB2E7196)
Boxcar Smoothing: 10 (USB2E7196)
Correct for Electrical Dark: No (USB2E7196)
Strobe/Lamp Enabled: No (USB2E7196)
Correct for Detector Non-linearity: No (USB2E7196)
Correct for Stray Light: No (USB2E7196)
Number of Pixels in Processed Spectrum: 2048
>>>>>Begin Processed Spectral Data<<<<<
339.09	0.00
339.48	213.30
339.86	214.35
340.24	215.55
340.63	217.05
341.01	225.45
341.39	219.25
341.78	221.70
342.16	224.55
342.54	222.65
342.93	212.17
343.31	222.86
343.69	223.38
344.07	223.81
344.46	224.35
344.84	224.78
345.22	224.73
345.60	225.04
345.99	225.23
346.37	225.29
346.75	225.40
347.13	225.44
347.52	225.45
347.90	225.56
348.28	225.55
348.66	225.69
349.05	225.52
349.43	225.62
349.81	225.69
350.19	225.67
350.57	225.81
350.96	225.87
351.34	225.89
351.72	225.93
352.10	226.02
352.48	226.00
352.87	226.05
353.25	226.14
353.63	226.15
354.01	226.18
354.39	226.23
354.77	226.34
355.15	226.45
355.54	226.50
355.92	226.44
356.30	226.61
356.68	227.06
357.06	227.22
357.44	227.08
357.82	227.13
358.20	227.60
358.58	227.62
358.97	227.76
359.35	227.92
359.73	228.12
360.11	228.14
360.49	228.18
360.87	228.16
361.25	228.23
361.63	228.50
362.01	228.59
362.39	228.66
362.77	228.67
363.15	228.75
363.53	228.77
363.91	228.84
364.29	228.78
364.67	228.32
365.05	228.31
365.43	228.50
365.81	228.52
366.19	228.38
366.57	228.51
366.95	228.52
367.33	228.43
367.71	228.37
368.09	228.52
368.47	228.56
368.85	228.55
369.23	228.62
369.61	228.43
369.99	228.54
370.37	228.56
370.75	228.79
371.13	228.70
371.51	228.57
371.89	228.56
372.27	228.59
372.65	228.51
373.03	228.46
373.41	228.41
373.78	228.39
374.16	228.14
374.54	227.93
374.92	227.80
375.30	227.82
375.68	227.70
376.06	227.70
376.44	227.54
376.82	227.49
377.19	227.39
377.57	227.31
377.95	227.04
378.33	226.86
378.71	226.51
379.09	226.50
379.47	226.57
379.84	226.50
380.22	226.34
380.60	226.27
380.98	226.13
381.36	226.00
381.73	225.84
382.11	225.87
382.49	225.82
382.87	225.64
383.25	225.54
383.62	226.03
384.00	225.77
384.38	225.74
384.76	225.85
385.13	226.00
385.51	225.92
385.89	225.81
386.27	225.89
386.64	225.88
387.02	225.76
387.40	225.59
387.78	225.52
388.15	225.53
388.53	225.42
388.91	225.45
389.29	225.38
389.66	225.48
390.04	225.33
390.42	225.39
390.79	225.45
391.17	225.42
391.55	224.92
391.92	224.96
392.30	225.00
392.68	224.84
393.05	224.76
393.43	224.74
393.81	224.80
394.18	224.66
394.56	224.74
394.94	224.86
395.31	224.88
395.69	225.06
396.06	225.12
396.44	225.19
396.82	225.18
397.19	225.45
397.57	225.39
397.95	225.61
398.32	225.50
398.70	225.60
399.07	225.78
399.45	225.83
399.82	225.87
400.20	225.87
400.58	225.96
400.95	225.88
401.33	226.09
401.70	226.48
402.08	226.57
402.45	226.66
402.83	226.90
403.20	227.06
403.58	227.12
403.95	227.41
404.33	227.68
404.71	227.94
405.08	228.33
405.46	228.52
405.83	228.69
406.21	228.96
406.58	229.24
406.96	229.45
407.33	229.71
407.70	230.12
408.08	230.81
408.45	231.21
408.83	231.71
409.20	232.02
409.58	232.18
409.95	232.73
410.33	233.27
410.70	233.55
411.08	234.11
411.45	234.59
411.82	235.07
412.20	235.72
412.57	236.62
412.95	236.85
413.32	237.64
413.69	238.38
414.07	239.19
414.44	239.98
414.82	240.85
415.19	241.87
415.56	242.87
415.94	243.65
416.31	244.88
416.68	246.09
417.06	247.44
417.43	248.75
417.81	250.20
418.18	251.63
418.55	253.25
418.93	254.92
419.30	256.68
419.67	258.48
420.04	260.34
420.42	262.07
420.79	264.69
421.16	266.91
421.54	269.47
421.91	271.86
422.28	274.40
422.66	277.09
423.03	280.00
423.40	282.73
423.77	285.68
424.15	288.54
424.52	291.66
424.89	295.18
425.26	298.47
425.64	301.65
426.01	304.97
426.38	308.62
426.75	312.30
427.13	316.05
427.50	320.00
427.87	324.08
428.24	328.15
428.61	331.83
428.99	336.32
429.36	340.76
429.73	345.35
430.10	349.97
430.47	354.67
430.85	359.25
431.22	364.40
431.59	370.24
431.96	375.54
432.33	381.25
432.70	386.80
433.08	393.22
433.45	399.38
433.82	405.69
434.19	412.40
434.56	419.27
434.93	425.68
435.30	432.22
435.68	439.36
436.05	446.47
436.42	453.49
436.79	459.90
437.16	466.88
437.53	474.35
437.90	481.59
438.27	488.73
438.64	496.14
439.01	503.19
439.38	508.87
439.75	514.82
440.13	521.45
440.50	527.76
440.87	533.03
441.24	538.34
441.61	544.24
441.98	548.61
442.35	553.37
442.72	558.52
443.09	563.49
443.46	566.38
443.83	568.39
444.20	570.08
444.57	572.45
444.94	573.37
445.31	574.22
445.68	575.69
446.05	575.87
446.42	575.01
446.79	573.77
447.16	572.60
447.53	571.58
447.90	568.60
448.27	565.58
448.64	561.58
449.01	558.62
449.37	553.51
449.74	548.60
450.11	543.17
450.48	536.69
450.85	529.95
451.22	524.38
451.59	518.91
451.96	513.61
452.33	506.82
452.70	500.74
453.07	493.55
453.43	485.82
453.80	478.95
454.17	472.17
454.54	465.83
454.91	459.23
455.28	452.63
455.65	446.44
456.02	440.77
456.38	435.49
456.75	429.05
457.12	423.59
457.49	418.26
457.86	412.73
458.23	408.54
458.59	403.78
458.96	398.97
459.33	394.70
459.70	390.57
460.07	387.16
460.43	383.44
460.80	379.91
461.17	376.84
461.54	373.49
461.91	370.35
462.27	367.19
462.64	364.39
463.01	361.55
463.38	358.91
463.74	355.64
464.11	353.09
464.48	350.97
464.85	348.67
465.21	346.92
465.58	345.10
465.95	342.67
466.32	340.91
466.68	338.90
467.05	337.11
467.42	335.29
467.78	333.29
468.15	331.35
468.52	330.13
468.88	328.21
469.25	326.58
469.62	325.38
469.98	323.98
470.35	322.70
470.72	321.42
471.08	320.04
471.45	318.94
471.82	318.03
472.18	316.77
472.55	315.91
472.92	314.82
473.28	313.94
473.65	313.15
474.02	312.14
474.38	311.61
474.75	311.02
475.11	310.30
475.48	309.88
475.85	309.53
476.21	308.94
476.58	308.67
476.94	308.52
477.31	308.24
477.67	307.96
478.04	307.73
478.41	307.60
478.77	307.93
479.14	307.79
479.50	307.72
479.87	307.78
480.23	307.80
480.60	307.86
480.96	307.95
481.33	308.31
481.69	308.63
482.06	308.82
482.42	309.11
482.79	309.56
483.15	309.97
483.52	310.58
483.88	311.11
484.25	311.64
484.61	312.23
484.98	312.71
485.34	313.59
485.71	314.57
486.07	315.45
486.44	315.95
486.80	317.00
487.17	318.06
487.53	319.51
487.90	320.90
488.26	322.52
488.62	324.06
488.99	325.45
489.35	327.14
489.72	328.97
490.08	330.80
490.44	332.60
490.81	334.74
491.17	336.75
491.54	339.07
491.90	341.44
492.26	343.90
492.63	346.58
492.99	349.17
493.36	351.92
493.72	354.94
494.08	358.25
494.45	361.56
494.81	365.16
495.17	368.61
495.54	372.45
495.90	376.26
496.26	380.29
496.63	384.55
496.99	388.79
497.35	393.29
497.72	398.04
498.08	402.94
498.44	408.13
498.80	413.65
499.17	419.03
499.53	424.63
499.89	430.60
500.26	436.76
500.62	443.09
500.98	449.76
501.34	456.46
501.71	463.18
502.07	470.17
502.43	477.33
502.79	484.69
503.16	492.25
503.52	500.22
503.88	508.38
504.24	516.89
504.60	525.79
504.97	534.77
505.33	543.80
505.69	553.53
506.05	563.01
506.41	572.65
506.78	582.65
507.14	593.13
507.50	603.78
507.86	614.69
508.22	625.89
508.59	636.96
508.95	648.60
509.31	660.80
509.67	673.07
510.03	685.25
510.39	697.84
510.75	710.72
511.12	723.48
511.48	736.71
511.84	750.13
512.20	763.43
512.56	777.08
512.92	791.27
513.28	805.46
513.64	819.81
514.00	834.32
514.37	849.15
514.73	864.16
515.09	879.37
515.45	894.53
515.81	909.46
516.17	924.85
516.53	940.18
516.89	955.40
517.25	971.23
517.61	987.71
517.97	1004.02
518.33	1020.30
518.69	1036.89
519.05	1053.45
519.41	1069.87
519.77	1086.83
520.13	1103.47
520.49	1119.85
520.85	1137.75
521.21	1154.63
521.57	1171.38
521.93	1187.74
522.29	1204.14
522.65	1220.02
523.01	1236.28
523.37	1252.41
523.73	1268.60
524.09	1284.42
524.45	1300.17
524.81	1315.78
525.17	1331.45
525.53	1347.08
525.89	1362.75
526.25	1378.36
526.61	1393.46
526.97	1409.11
527.33	1424.84
527.68	1441.10
528.04	1456.80
528.40	1470.93
528.76	1486.32
529.12	1501.33
529.48	1516.54
529.84	1531.07
530.20	1546.66
530.56	1561.83
530.91	1577.35
531.27	1592.17
531.63	1607.06
531.99	1621.71
532.35	1636.12
532.71	1650.64
533.07	1665.22
533.42	1679.04
533.78	1692.79
534.14	1706.94
534.50	1720.27
534.86	1733.70
535.21	1745.79
535.57	1758.52
535.93	1770.26
536.29	1782.02
536.65	1794.41
537.00	1806.05
537.36	1817.81
537.72	1828.60
538.08	1839.65
538.44	1849.99
538.79	1860.69
539.15	1871.19
539.51	1881.70
539.87	1891.17
540.22	1899.54
540.58	1908.27
540.94	1916.26
541.29	1923.96
541.65	1931.37
542.01	1938.52
542.37	1944.18
542.72	1950.12
543.08	1955.82
543.44	1962.55
543.79	1967.88
544.15	1972.65
544.51	1977.98
544.87	1982.83
545.22	1986.89
545.58	1990.03
545.94	1992.83
546.29	1995.47
546.65	1997.55
547.01	1998.99
547.36	2000.87
547.72	2002.34
548.07	2002.74
548.43	2004.32
548.79	2005.08
549.14	2005.48
549.50	2005.99
549.86	2006.28
550.21	2006.43
550.57	2006.29
550.92	2004.64
551.28	2003.10
551.64	2002.37
551.99	2001.21
552.35	1999.93
552.70	1999.02
553.06	1998.20
553.41	1996.89
553.77	1995.67
554.13	1994.67
554.48	1993.31
554.84	1991.74
555.19	1990.17
555.55	1989.19
555.90	1986.22
556.26	1983.39
556.61	1979.96
556.97	1975.95
557.32	1973.17
557.68	1970.37
558.03	1967.30
558.39	1964.35
558.74	1961.54
559.10	1957.17
559.45	1952.62
559.81	1947.63
560.16	1941.93
560.52	1936.28
560.87	1931.28
561.23	1925.33
561.58	1919.09
561.94	1912.42
562.29	1905.51
562.64	1899.30
563.00	1891.81
563.35	1885.58
563.71	1879.12
564.06	1872.78
564.42	1866.59
564.77	1860.35
565.12	1853.25
565.48	1846.20
565.83	1839.11
566.19	1832.03
566.54	1825.20
566.89	1818.10
567.25	1811.11
567.60	1804.35
567.96	1797.76
568.31	1790.84
568.66	1783.51
569.02	1775.95
569.37	1769.06
569.72	1762.40
570.08	1754.37
570.43	1746.34
570.78	1738.58
571.14	1730.87
571.49	1722.70
571.84	1714.61
572.20	1706.00
572.55	1697.75
572.90	1688.92
573.26	1680.36
573.61	1671.69
573.96	1662.56
574.31	1653.25
574.67	1643.88
575.02	1634.38
575.37	1624.43
575.72	1614.23
576.08	1604.95
576.43	1595.50
576.78	1585.30
577.13	1575.02
577.49	1565.17
577.84	1556.08
578.19	1546.71
578.54	1537.43
578.90	1528.65
579.25	1519.53
579.60	1509.93
579.95	1500.35
580.30	1490.70
580.66	1480.80
581.01	1470.62
581.36	1460.67
581.71	1451.15
582.06	1441.62
582.42	1432.37
582.77	1423.21
583.12	1414.29
583.47	1405.06
583.82	1396.23
584.17	1387.58
584.53	1378.93
584.88	1369.69
585.23	1360.30
585.58	1350.31
585.93	1340.61
586.28	1330.82
586.63	1321.20
586.98	1310.98
587.34	1301.39
587.69	1291.90
588.04	1282.92
588.39	1274.42
588.74	1265.42
589.09	1256.80
589.44	1247.81
589.79	1239.14
590.14	1230.60
590.49	1222.14
590.84	1213.68
591.19	1205.10
591.54	1196.72
591.89	1188.16
592.25	1181.06
592.60	1172.84
592.95	1164.87
593.30	1156.48
593.65	1148.33
594.00	1139.63
594.35	1133.13
594.70	1124.99
595.05	1117.10
595.40	1108.91
595.75	1100.72
596.10	1093.17
596.45	1085.21
596.80	1077.61
597.15	1069.60
597.50	1061.51
597.85	1053.77
598.19	1045.64
598.54	1037.62
598.89	1029.58
599.24	1022.24
599.59	1014.05
599.94	1006.72
600.29	999.81
600.64	992.74
600.99	985.21
601.34	978.74
601.69	970.77
602.04	964.07
602.39	957.40
602.74	951.03
603.08	944.75
603.43	938.42
603.78	931.82
604.13	925.36
604.48	918.66
604.83	912.08
605.18	905.37
605.53	899.00
605.87	892.81
606.22	887.15
606.57	880.84
606.92	874.69
607.27	868.79
607.62	862.84
607.96	857.16
608.31	851.97
608.66	846.40
609.01	840.78
609.36	835.09
609.70	829.49
610.05	823.71
610.40	817.92
610.75	811.87
611.10	806.48
611.44	800.76
611.79	795.56
612.14	790.26
612.49	784.95
612.83	780.10
613.18	774.82
613.53	769.43
613.88	764.08
614.22	758.88
614.57	753.42
614.92	747.92
615.27	742.86
615.61	737.58
615.96	732.37
616.31	727.35
616.65	722.53
617.00	717.52
617.35	712.64
617.70	707.71
618.04	703.08
618.39	698.17
618.74	693.86
619.08	689.26
619.43	684.51
619.78	679.80
620.12	674.82
620.47	670.24
620.82	665.52
621.16	660.97
621.51	656.75
621.85	652.52
622.20	648.23
622.55	643.80
622.89	639.44
623.24	635.15
623.59	630.78
623.93	626.58
624.28	622.48
624.62	618.73
624.97	614.95
625.32	610.98
625.66	606.93
626.01	602.75
626.35	598.94
626.70	595.11
627.04	591.51
627.39	587.80
627.73	584.15
628.08	580.82
628.43	577.16
628.77	573.24
629.12	569.65
629.46	566.32
629.81	562.99
630.15	559.75
630.50	556.33
630.84	553.00
631.19	549.64
631.53	546.48
631.88	542.86
632.22	539.31
632.57	536.28
632.91	533.00
633.26	530.00
633.60	526.80
633.95	523.70
634.29	520.46
634.64	517.43
634.98	514.23
635.32	511.10
635.67	508.36
636.01	505.63
636.36	502.52
636.70	499.80
637.05	496.87
637.39	493.88
637.73	491.20
638.08	488.51
638.42	485.64
638.77	482.74
639.11	479.73
639.45	476.82
639.80	473.87
640.14	471.33
640.49	468.60
640.83	465.94
641.17	463.48
641.52	461.01
641.86	458.57
642.20	456.46
642.55	453.87
642.89	451.32
643.23	448.77
643.58	446.62
643.92	443.97
644.26	441.66
644.61	439.54
644.95	437.18
645.29	434.84
645.64	432.74
645.98	430.61
646.32	428.68
646.66	426.54
647.01	424.38
647.35	422.41
647.69	420.36
648.04	418.48
648.38	416.61
648.72	414.48
649.06	412.33
649.41	410.11
649.75	408.11
650.09	406.17
650.43	404.26
650.78	402.25
651.12	400.40
651.46	398.42
651.80	396.47
652.14	394.60
652.49	392.90
652.83	391.07
653.17	389.17
653.51	387.41
653.85	385.88
654.20	384.24
654.54	382.41
654.88	380.67
655.22	379.18
655.56	377.36
655.90	375.84
656.25	374.22
656.59	372.62
656.93	371.08
657.27	369.71
657.61	368.18
657.95	366.72
658.29	365.09
658.64	363.78
658.98	362.26
659.32	360.68
659.66	359.13
660.00	357.66
660.34	356.31
660.68	354.91
661.02	353.49
661.36	352.10
661.70	350.77
662.05	349.49
662.39	348.04
662.73	346.85
663.07	345.77
663.41	344.64
663.75	343.26
664.09	342.07
664.43	340.66
664.77	339.47
665.11	338.24
665.45	337.21
665.79	336.03
666.13	334.86
666.47	333.75
666.81	332.52
667.15	331.32
667.49	330.25
667.83	329.32
668.17	328.21
668.51	327.19
668.85	326.26
669.19	325.43
669.53	324.29
669.87	323.14
670.21	322.05
670.55	321.05
670.89	320.49
671.23	319.45
671.57	318.51
671.91	317.56
672.25	316.70
672.58	315.82
672.92	314.75
673.26	313.90
673.60	313.11
673.94	312.35
674.28	311.63
674.62	310.86
674.96	309.89
675.30	309.16
675.64	308.32
675.97	307.39
676.31	306.57
676.65	305.70
676.99	305.16
677.33	304.26
677.67	303.53
678.01	302.38
678.34	301.72
678.68	301.14
679.02	300.33
679.36	299.53
679.70	298.75
680.04	298.18
680.37	297.44
680.71	296.61
681.05	296.00
681.39	295.31
681.73	294.63
682.06	293.92
682.40	293.23
682.74	292.70
683.08	292.31
683.42	291.49
683.75	291.12
684.09	290.37
684.43	289.89
684.77	289.20
685.10	288.77
685.44	288.14
685.78	287.46
686.12	286.89
686.45	286.35
686.79	285.76
687.13	285.20
687.46	284.70
687.80	284.31
688.14	283.72
688.48	283.11
688.81	282.52
689.15	282.16
689.49	281.63
689.82	281.13
690.16	280.37
690.50	279.90
690.83	279.26
691.17	278.65
691.51	278.23
691.84	277.79
692.18	277.27
692.52	276.80
692.85	276.39
693.19	276.13
693.52	275.72
693.86	275.28
694.20	274.81
694.53	274.35
694.87	273.84
695.21	273.31
695.54	272.83
695.88	272.35
696.21	271.71
696.55	271.21
696.88	270.70
697.22	270.22
697.56	269.80
697.89	269.36
698.23	269.04
698.56	268.49
698.90	268.19
699.23	267.72
699.57	267.35
699.90	266.81
700.24	266.29
700.58	265.94
700.91	265.60
701.25	265.63
701.58	265.62
701.92	265.35
702.25	264.98
702.59	264.67
702.92	264.41
703.26	264.13
703.59	263.84
703.93	263.90
704.26	263.69
704.60	263.45
704.93	263.10
705.26	262.83
705.60	262.61
705.93	262.11
706.27	261.92
706.60	261.74
706.94	261.66
707.27	261.35
707.61	261.00
707.94	260.70
708.27	259.95
708.61	259.26
708.94	258.90
709.28	258.66
709.61	258.35
709.94	258.06
710.28	257.75
710.61	257.50
710.95	256.85
711.28	256.92
711.61	256.57
711.95	256.44
712.28	255.98
712.61	255.62
712.95	255.67
713.28	255.58
713.61	255.27
713.95	254.88
714.28	254.63
714.61	254.35
714.95	254.03
715.28	253.79
715.61	253.51
715.95	253.27
716.28	252.98
716.61	252.88
716.95	252.47
717.28	252.26
717.61	251.95
717.94	251.70
718.28	251.07
718.61	250.82
718.94	250.51
719.27	250.35
719.61	250.16
719.94	249.82
720.27	249.40
720.60	249.10
720.94	248.84
721.27	248.63
721.60	248.50
721.93	248.30
722.27	248.28
722.60	248.20
722.93	248.01
723.26	247.94
723.59	247.57
723.93	247.51
724.26	247.35
724.59	247.16
724.92	247.01
725.25	246.94
725.59	246.74
725.92	246.64
726.25	246.51
726.58	246.38
726.91	246.10
727.24	246.00
727.57	245.83
727.91	245.66
728.24	245.56
728.57	245.33
728.90	245.20
729.23	244.84
729.56	244.88
729.89	244.68
730.22	244.46
730.55	244.35
730.89	244.18
731.22	243.97
731.55	243.85
731.88	243.67
732.21	243.44
732.54	243.21
732.87	243.05
733.20	242.91
733.53	242.74
733.86	242.69
734.19	242.44
734.52	242.37
734.85	242.59
735.18	242.33
735.51	242.40
735.84	242.34
736.17	242.24
736.50	241.85
736.83	242.25
737.16	242.06
737.49	241.99
737.82	241.86
738.15	241.73
738.48	241.63
738.81	241.48
739.14	241.32
739.47	241.23
739.80	241.13
740.13	241.01
740.46	240.81
740.79	240.63
741.12	240.50
741.45	240.34
741.78	239.87
742.11	239.91
742.44	239.60
742.77	239.55
743.10	239.44
743.43	239.28
743.75	238.66
744.08	239.16
744.41	239.03
744.74	238.82
745.07	238.69
745.40	238.65
745.73	238.77
746.06	238.67
746.39	238.65
746.71	238.41
747.04	238.22
747.37	238.11
747.70	238.08
748.03	237.97
748.36	237.94
748.68	237.87
749.01	237.67
749.34	237.60
749.67	237.43
750.00	237.41
750.33	237.67
750.65	237.65
750.98	236.96
751.31	236.80
751.64	236.84
751.97	236.98
752.29	236.79
752.62	236.45
752.95	236.33
753.28	236.13
753.60	236.02
753.93	236.06
754.26	236.06
754.59	235.81
754.91	235.75
755.24	235.62
755.57	235.56
755.90	235.51
756.22	235.34
756.55	235.20
756.88	235.06
757.20	234.63
757.53	234.43
757.86	234.34
758.19	234.39
758.51	234.32
758.84	233.96
759.17	233.90
759.49	233.89
759.82	234.11
760.15	234.09
760.47	234.06
760.80	233.90
761.13	233.90
761.45	233.86
761.78	233.79
762.11	233.74
762.43	233.56
762.76	233.45
763.08	233.53
763.41	233.50
763.74	233.48
764.06	233.47
764.39	233.40
764.71	233.40
765.04	233.24
765.37	233.08
765.69	233.02
766.02	232.95
766.34	232.84
766.67	232.52
767.00	232.60
767.32	232.75
767.65	232.97
767.97	232.79
768.30	232.78
768.62	232.72
768.95	232.62
769.27	232.57
769.60	232.53
769.92	232.36
770.25	232.16
770.57	231.95
770.90	231.94
771.22	231.91
771.55	231.85
771.87	231.88
772.20	231.86
772.52	232.27
772.85	232.78
773.17	232.73
773.50	232.69
773.82	232.55
774.15	232.27
774.47	231.87
774.80	231.86
775.12	231.78
775.45	231.67
775.77	231.64
776.09	231.72
776.42	231.70
776.74	231.81
777.07	231.81
777.39	231.80
777.72	231.65
778.04	231.62
778.36	231.54
778.69	231.44
779.01	231.42
779.33	231.01
779.66	230.42
779.98	230.36
780.31	230.40
780.63	230.55
780.95	230.63
781.28	230.61
781.60	230.43
781.92	230.39
782.25	230.40
782.57	230.37
782.89	230.25
783.22	230.24
783.54	230.06
783.86	230.11
784.19	230.04
784.51	230.14
784.83	230.02
785.16	230.01
785.48	229.99
785.80	229.97
786.12	229.96
786.45	230.00
786.77	230.03
787.09	229.87
787.42	229.72
787.74	229.64
788.06	229.72
788.38	229.82
788.71	229.78
789.03	229.80
789.35	229.82
789.67	229.67
789.99	229.57
790.32	229.50
790.64	229.55
790.96	229.97
791.28	229.82
791.61	229.83
791.93	229.88
792.25	229.88
792.57	230.22
792.89	230.04
793.21	229.98
793.54	229.96
793.86	229.94
794.18	229.87
794.50	229.88
794.82	229.83
795.14	229.83
795.47	229.83
795.79	229.74
796.11	229.60
796.43	229.61
796.75	229.67
797.07	229.70
797.39	229.55
797.71	229.18
798.04	229.21
798.36	229.13
798.68	229.05
799.00	229.00
799.32	228.74
799.64	228.89
799.96	228.88
800.28	228.88
800.60	228.82
800.92	228.83
801.24	228.74
801.56	228.71
801.89	228.63
802.21	228.63
802.53	228.54
802.85	228.68
803.17	228.96
803.49	228.78
803.81	228.66
804.13	228.57
804.45	228.53
804.77	228.50
805.09	228.51
805.41	228.38
805.73	228.30
806.05	228.11
806.37	228.03
806.69	227.88
807.01	227.85
807.33	227.87
807.65	227.71
807.97	227.93
808.28	227.86
808.60	227.84
808.92	227.75
809.24	228.06
809.56	227.88
809.88	227.59
810.20	227.64
810.52	227.78
810.84	227.76
811.16	227.60
811.48	227.60
811.80	227.73
812.12	227.75
812.43	227.80
812.75	227.82
813.07	227.75
813.39	227.79
813.71	227.67
814.03	227.62
814.35	227.67
814.67	227.39
814.98	227.33
815.30	227.30
815.62	227.25
815.94	226.92
816.26	227.17
816.58	227.10
816.89	227.11
817.21	226.95
817.53	227.02
817.85	227.11
818.17	227.03
818.48	226.87
818.80	226.99
819.12	226.85
819.44	226.81
819.76	226.76
820.07	226.75
820.39	226.78
820.71	226.85
821.03	226.87
821.34	226.90
821.66	227.01
821.98	227.08
822.30	227.05
822.61	227.37
822.93	227.15
823.25	227.20
823.57	227.24
823.88	227.39
824.20	227.36
824.52	227.48
824.83	227.49
825.15	227.49
825.47	227.41
825.79	227.59
826.10	227.58
826.42	227.56
826.74	227.65
827.05	227.68
827.37	227.80
827.69	227.75
828.00	227.79
828.32	227.84
828.64	227.84
828.95	228.16
829.27	227.96
829.58	227.89
829.90	227.99
830.22	227.95
830.53	227.84
830.85	227.80
831.17	227.66
831.48	227.73
831.80	227.76
832.11	227.74
832.43	227.57
832.75	227.54
833.06	227.86
833.38	227.67
833.69	227.66
834.01	227.54
834.32	227.51
834.64	227.45
834.96	227.34
835.27	227.31
835.59	227.06
835.90	227.02
836.22	227.11
836.53	226.99
836.85	226.97
837.16	227.42
837.48	227.42
837.79	227.51
838.11	227.40
838.42	227.37
838.74	227.45
839.05	227.45
839.37	227.39
839.68	227.08
840.00	227.12
840.31	227.12
840.63	227.07
840.94	227.02
841.26	226.99
841.57	227.02
841.88	227.03
842.20	226.95
842.51	226.90
842.83	226.84
843.14	227.24
843.46	227.18
843.77	226.92
844.08	226.82
844.40	226.69
844.71	226.71
845.03	226.64
845.34	226.56
845.65	226.50
845.97	226.52
846.28	226.50
846.60	226.47
846.91	226.40
847.22	226.40
847.54	226.48
847.85	226.46
848.16	226.43
848.48	226.33
848.79	226.65
849.10	226.69
849.42	226.72
849.73	226.28
850.04	226.25
850.36	226.11
850.67	226.27
850.98	226.29
851.30	226.35
851.61	226.32
851.92	226.30
852.23	226.56
852.55	226.66
852.86	226.70
853.17	226.75
853.49	226.80
853.80	226.82
854.11	226.86
854.42	226.91
854.74	226.86
855.05	226.88
855.36	226.54
855.67	226.52
855.99	226.51
856.30	227.10
856.61	227.10
856.92	227.08
857.23	226.98
857.55	226.95
857.86	226.88
858.17	226.97
858.48	226.91
858.79	226.74
859.11	226.73
859.42	226.67
859.73	226.71
860.04	226.70
860.35	226.64
860.66	226.54
860.98	226.47
861.29	226.51
861.60	226.47
861.91	226.61
862.22	226.58
862.53	226.54
862.84	225.94
863.16	226.12
863.47	226.10
863.78	226.13
864.09	226.17
864.40	226.30
864.71	226.32
865.02	226.36
865.33	226.32
865.64	226.23
865.95	226.20
866.27	226.40
866.58	226.38
866.89	226.44
867.20	226.47
867.51	226.43
867.82	226.45
868.13	226.53
868.44	226.41
868.75	226.43
869.06	226.44
869.37	226.50
869.68	226.34
869.99	226.41
870.30	226.45
870.61	226.52
870.92	226.35
871.23	226.29
871.54	226.39
871.85	226.52
872.16	226.60
872.47	226.60
872.78	226.37
873.09	226.40
873.40	226.35
873.71	226.37
874.02	226.41
874.33	226.33
874.64	226.30
874.95	226.34
875.26	226.32
875.56	226.30
875.87	226.31
876.18	226.30
876.49	226.75
876.80	226.60
877.11	226.46
877.42	226.50
877.73	226.53
878.04	226.38
878.35	226.31
878.66	226.32
878.96	226.32
879.27	226.31
879.58	226.31
879.89	226.24
880.20	226.35
880.51	226.40
880.82	226.39
881.12	226.35
881.43	226.26
881.74	226.17
882.05	226.18
882.36	226.16
882.67	226.19
882.97	225.64
883.28	225.70
883.59	225.74
883.90	225.79
884.21	225.88
884.51	225.89
884.82	225.82
885.13	225.77
885.44	225.78
885.74	225.86
886.05	225.80
886.36	225.86
886.67	225.57
886.98	225.76
887.28	225.82
887.59	225.80
887.90	225.80
888.20	225.80
888.51	225.80
888.82	225.67
889.13	225.66
889.43	226.10
889.74	226.04
890.05	226.00
890.35	225.90
890.66	225.70
890.97	225.62
891.28	225.57
891.58	225.61
891.89	225.64
892.20	225.45
892.50	225.44
892.81	225.32
893.12	225.44
893.42	225.10
893.73	225.09
894.04	225.14
894.34	225.21
894.65	225.16
894.95	225.12
895.26	225.10
895.57	225.35
895.87	224.90
896.18	225.00
896.48	225.03
896.79	225.05
897.10	225.13
897.40	225.19
897.71	225.30
898.01	225.23
898.32	225.23
898.63	225.24
898.93	225.20
899.24	225.25
899.54	225.12
899.85	225.18
900.15	225.23
900.46	225.17
900.76	225.16
901.07	225.18
901.38	225.22
901.68	225.34
901.99	225.11
902.29	225.10
902.60	225.04
902.90	225.07
903.21	225.12
903.51	225.12
903.82	225.25
904.12	225.22
904.43	225.23
904.73	225.18
905.03	225.25
905.34	225.77
905.64	225.79
905.95	225.86
906.25	225.90
906.56	225.78
906.86	225.83
907.17	225.82
907.47	225.88
907.77	225.79
908.08	225.70
908.38	225.72
908.69	225.77
908.99	225.87
909.30	225.85
909.60	225.83
909.90	225.86
910.21	225.74
910.51	225.69
910.81	225.70
911.12	225.77
911.42	225.81
911.73	225.31
912.03	225.39
912.33	225.47
912.64	225.45
912.94	225.46
913.24	225.36
913.55	225.30
913.85	225.31
914.15	225.46
914.46	225.55
914.76	225.46
915.06	225.49
915.37	225.37
915.67	225.35
915.97	225.35
916.27	225.30
916.58	225.32
916.88	225.28
917.18	225.28
917.49	225.58
917.79	225.55
918.09	225.65
918.39	225.76
918.70	225.74
919.00	225.76
919.30	226.00
919.60	225.99
919.91	225.99
920.21	225.99
920.51	225.82
920.81	225.79
921.12	225.88
921.42	225.79
921.72	225.83
922.02	225.86
922.32	225.95
922.63	225.95
922.93	226.20
923.23	226.23
923.53	226.16
923.83	225.90
924.13	225.97
924.44	225.92
924.74	225.96
925.04	226.07
925.34	226.07
925.64	225.85
925.94	225.87
926.24	226.11
926.55	226.07
926.85	226.19
927.15	226.18
927.45	226.21
927.75	226.27
928.05	226.23
928.35	226.17
928.65	226.27
928.95	226.35
929.26	226.15
929.56	226.25
929.86	226.30
930.16	226.19
930.46	226.13
930.76	226.12
931.06	225.91
931.36	225.73
931.66	225.79
931.96	225.80
932.26	225.82
932.56	225.60
932.86	225.62
933.16	225.62
933.46	225.59
933.76	225.47
934.06	225.51
934.36	225.71
934.66	225.71
934.96	225.55
935.26	225.49
935.56	225.58
935.86	225.50
936.16	225.44
936.46	225.50
936.76	225.51
937.06	225.45
937.36	225.49
937.66	225.55
937.96	225.50
938.26	225.48
938.56	225.50
938.86	225.61
939.16	225.76
939.46	225.77
939.76	225.78
940.06	225.78
940.35	225.68
940.65	225.44
940.95	225.46
941.25	225.38
941.55	225.34
941.85	225.34
942.15	225.43
942.45	225.59
942.75	225.61
943.04	225.56
943.34	225.69
943.64	225.59
943.94	225.50
944.24	225.50
944.54	225.50
944.84	225.44
945.13	225.34
945.43	225.28
945.73	225.35
946.03	225.36
946.33	225.32
946.62	225.31
946.92	225.30
947.22	225.30
947.52	225.33
947.82	225.43
948.11	225.37
948.41	225.29
948.71	225.16
949.01	225.09
949.31	225.11
949.60	225.08
949.90	225.20
950.20	225.27
950.50	225.35
950.79	225.29
951.09	225.39
951.39	225.33
951.69	225.30
951.98	225.35
952.28	225.36
952.58	225.36
952.87	225.35
953.17	225.45
953.47	225.43
953.76	225.48
954.06	225.37
954.36	225.28
954.66	225.23
954.95	225.32
955.25	225.39
955.55	225.43
955.84	225.35
956.14	225.40
956.44	225.45
956.73	225.32
957.03	225.44
957.32	225.37
957.62	225.42
957.92	225.45
958.21	225.39
958.51	225.93
958.81	226.09
959.10	226.17
959.40	226.30
959.69	226.29
959.99	226.40
960.29	226.41
960.58	226.43
960.88	226.63
961.17	226.57
961.47	226.60
961.76	226.55
962.06	226.64
962.36	226.59
962.65	226.55
962.95	226.62
963.24	226.60
963.54	226.66
963.83	226.68
964.13	226.66
964.42	226.57
964.72	226.17
965.01	226.10
965.31	226.10
965.60	226.00
965.90	226.31
966.19	226.18
966.49	226.21
966.78	226.22
967.08	226.21
967.37	226.20
967.67	226.13
967.96	226.19
968.26	226.16
968.55	226.20
968.85	226.18
969.14	226.15
969.43	226.11
969.73	226.04
970.02	226.02
970.32	226.01
970.61	226.02
970.91	225.92
971.20	225.87
971.49	225.79
971.79	225.84
972.08	225.51
972.38	225.57
972.67	225.51
972.96	225.50
973.26	225.41
973.55	225.62
973.85	225.58
974.14	225.53
974.43	225.50
974.73	225.44
975.02	225.42
975.31	225.38
975.61	225.44
975.90	225.43
976.19	225.43
976.49	225.46
976.78	225.44
977.07	225.45
977.37	225.51
977.66	225.58
977.95	225.51
978.24	225.62
978.54	225.71
978.83	225.69
979.12	225.70
979.42	225.70
979.71	225.57
980.00	225.59
980.29	225.63
980.59	225.57
980.88	225.69
981.17	225.73
981.46	225.72
981.76	225.71
982.05	225.86
982.34	225.90
982.63	225.98
982.93	226.03
983.22	226.13
983.51	226.11
983.80	226.21
984.09	226.22
984.39	226.13
984.68	225.99
984.97	226.10
985.26	226.03
985.55	226.08
985.85	225.97
986.14	226.00
986.43	226.04
986.72	226.09
987.01	225.88
987.30	225.83
987.59	225.83
987.89	225.82
988.18	225.67
988.47	225.65
988.76	225.52
989.05	225.39
989.34	225.35
989.63	225.44
989.92	225.33
990.22	225.30
990.51	225.31
990.80	225.34
991.09	225.29
991.38	225.42
991.67	225.36
991.96	225.31
992.25	225.38
992.54	225.27
992.83	225.24
993.12	225.26
993.41	225.31
993.70	225.50
993.99	225.58
994.28	225.64
994.58	225.71
994.87	225.66
995.16	225.72
995.45	225.63
995.74	225.51
996.03	225.59
996.32	225.66
996.61	225.68
996.90	225.64
997.19	225.65
997.48	225.58
997.77	225.52
998.06	225.54
998.34	225.48
998.63	225.50
998.92	225.56
999.21	225.57
999.50	225.57
999.79	225.40
1000.08	225.33
1000.37	225.34
1000.66	225.21
1000.95	225.34
1001.24	225.42
1001.53	225.49
1001.82	225.47
1002.11	225.35
1002.40	225.42
1002.68	225.66
1002.97	226.09
1003.26	226.02
1003.55	226.00
1003.84	226.02
1004.13	226.22
1004.42	226.21
1004.71	226.25
1004.99	226.19
1005.28	226.40
1005.57	226.36
1005.86	226.36
1006.15	226.39
1006.44	226.32
1006.72	226.47
1007.01	226.40
1007.30	226.33
1007.59	226.30
1007.88	226.32
1008.17	226.37
1008.45	226.32
1008.74	226.06
1009.03	225.78
1009.32	225.89
1009.60	225.84
1009.89	225.86
1010.18	225.65
1010.47	225.61
1010.76	225.56
1011.04	225.59
1011.33	225.55
1011.62	225.59
1011.91	225.64
1012.19	225.65
1012.48	225.73
1012.77	225.66
1013.05	225.91
1013.34	225.91
1013.63	225.93
1013.92	225.99
1014.20	226.03
1014.49	225.96
1014.78	226.03
1015.06	225.86
1015.35	225.81
1015.64	225.90
1015.92	225.94
1016.21	226.01
1016.50	226.03
1016.78	226.23
1017.07	226.23
1017.36	226.15
1017.64	226.04
1017.93	226.05
1018.22	226.00
1018.50	226.04
1018.79	226.00
1019.08	225.73
1019.36	225.73
1019.65	225.66
1019.93	225.74
1020.22	225.70
1020.51	226.02
1020.79	225.92
1021.08	225.35
1021.36	226.75
1021.65	225.05
1021.94	225.10
1022.22	224.95
1022.51	225.15
1022.79	227.80
1023.08	225.75
1023.36	232.25
1023.65	224.30
>>>>>End Processed Spectral Data<<<<<
