SpectraSuite Data File
++++++++++++++++++++++++++++++++++++
Date: Wed Sep 04 17:54:47 EDT 2013
User: lab3
Dark Spectrum Present: Yes
Reference Spectrum Present: No
Number of Sampled Component Spectra: 1
Spectrometers: USB2E7196
Integration Time (usec): 170000 (USB2E7196)
Spectra Averaged: 20 (USB2E7196)
Boxcar Smoothing: 10 (USB2E7196)
Correct for Electrical Dark: No (USB2E7196)
Strobe/Lamp Enabled: No (USB2E7196)
Correct for Detector Non-linearity: No (USB2E7196)
Correct for Stray Light: No (USB2E7196)
Number of Pixels in Processed Spectrum: 2048
>>>>>Begin Processed Spectral Data<<<<<
339.09	0.00
339.48	212.45
339.86	214.40
340.24	216.65
340.63	218.05
341.01	225.50
341.39	220.15
341.78	223.05
342.16	222.25
342.54	224.10
342.93	212.40
343.31	223.09
343.69	223.68
344.07	224.12
344.46	224.55
344.84	224.91
345.22	224.90
345.60	225.19
345.99	225.34
346.37	225.53
346.75	225.60
347.13	225.70
347.52	225.78
347.90	226.01
348.28	226.03
348.66	226.19
349.05	226.04
349.43	226.17
349.81	226.27
350.19	226.28
350.57	226.33
350.96	226.40
351.34	226.55
351.72	226.61
352.10	226.75
352.48	226.84
352.87	226.90
353.25	226.95
353.63	227.05
354.01	227.09
354.39	227.19
354.77	227.27
355.15	227.44
355.54	227.47
355.92	227.30
356.30	227.38
356.68	227.74
357.06	227.83
357.44	227.83
357.82	227.86
358.20	228.35
358.58	228.49
358.97	228.56
359.35	228.74
359.73	228.91
360.11	228.96
360.49	229.03
360.87	229.06
361.25	229.17
361.63	229.32
362.01	229.45
362.39	229.42
362.77	229.48
363.15	229.48
363.53	229.46
363.91	229.57
364.29	229.65
364.67	229.22
365.05	229.31
365.43	229.37
365.81	229.53
366.19	229.36
366.57	229.54
366.95	229.58
367.33	229.52
367.71	229.53
368.09	229.64
368.47	229.63
368.85	229.72
369.23	229.85
369.61	229.70
369.99	229.75
370.37	229.85
370.75	230.07
371.13	230.03
371.51	230.01
371.89	230.09
372.27	230.07
372.65	230.10
373.03	230.06
373.41	230.02
373.78	229.91
374.16	229.64
374.54	229.48
374.92	229.33
375.30	229.24
375.68	229.11
376.06	229.13
376.44	229.06
376.82	228.92
377.19	228.79
377.57	228.72
377.95	228.60
378.33	228.46
378.71	228.12
379.09	228.15
379.47	228.16
379.84	228.02
380.22	227.93
380.60	227.80
380.98	227.77
381.36	227.73
381.73	227.56
382.11	227.65
382.49	227.56
382.87	227.50
383.25	227.43
383.62	227.97
384.00	227.78
384.38	227.74
384.76	227.87
385.13	228.02
385.51	227.93
385.89	227.79
386.27	227.76
386.64	227.83
387.02	227.70
387.40	227.58
387.78	227.55
388.15	227.47
388.53	227.41
388.91	227.29
389.29	227.19
389.66	227.27
390.04	227.12
390.42	227.15
390.79	227.23
391.17	227.21
391.55	226.62
391.92	226.56
392.30	226.55
392.68	226.39
393.05	226.33
393.43	226.36
393.81	226.35
394.18	226.29
394.56	226.29
394.94	226.42
395.31	226.42
395.69	226.62
396.06	226.83
396.44	226.87
396.82	226.92
397.19	227.16
397.57	227.11
397.95	227.25
398.32	227.21
398.70	227.27
399.07	227.38
399.45	227.42
399.82	227.49
400.20	227.52
400.58	227.60
400.95	227.48
401.33	227.72
401.70	228.19
402.08	228.37
402.45	228.52
402.83	228.72
403.20	228.88
403.58	228.88
403.95	229.03
404.33	229.30
404.71	229.55
405.08	230.01
405.46	230.28
405.83	230.51
406.21	230.73
406.58	230.98
406.96	231.26
407.33	231.66
407.70	232.03
408.08	232.76
408.45	233.26
408.83	233.91
409.20	234.27
409.58	234.43
409.95	235.01
410.33	235.50
410.70	235.87
411.08	236.52
411.45	237.10
411.82	237.65
412.20	238.42
412.57	239.29
412.95	239.60
413.32	240.46
413.69	241.22
414.07	242.15
414.44	243.14
414.82	244.13
415.19	245.32
415.56	246.56
415.94	247.63
416.31	249.03
416.68	250.35
417.06	251.95
417.43	253.59
417.81	255.25
418.18	257.08
418.55	259.05
418.93	261.05
419.30	263.15
419.67	265.43
420.04	267.67
420.42	270.06
420.79	273.15
421.16	275.95
421.54	279.10
421.91	282.12
422.28	285.10
422.66	288.40
423.03	291.74
423.40	295.08
423.77	298.62
424.15	302.27
424.52	306.02
424.89	310.08
425.26	314.03
425.64	317.80
426.01	321.94
426.38	326.21
426.75	330.72
427.13	335.30
427.50	340.00
427.87	344.92
428.24	349.75
428.61	354.28
428.99	359.59
429.36	364.93
429.73	370.29
430.10	375.88
430.47	381.52
430.85	387.05
431.22	393.20
431.59	399.99
431.96	405.97
432.33	412.74
432.70	419.50
433.08	427.28
433.45	434.77
433.82	442.12
434.19	450.32
434.56	458.33
434.93	466.13
435.30	473.91
435.68	482.60
436.05	491.02
436.42	499.34
436.79	507.03
437.16	515.48
437.53	524.27
437.90	532.95
438.27	541.41
438.64	550.42
439.01	558.62
439.38	565.73
439.75	573.05
440.13	581.25
440.50	588.81
440.87	595.02
441.24	601.30
441.61	608.22
441.98	613.40
442.35	619.42
442.72	625.26
443.09	631.20
443.46	634.56
443.83	636.96
444.20	638.96
444.57	641.55
444.94	642.54
445.31	643.72
445.68	645.21
446.05	645.63
446.42	644.38
446.79	643.10
447.16	641.51
447.53	640.31
447.90	636.60
448.27	632.94
448.64	628.12
449.01	624.42
449.37	618.38
449.74	612.22
450.11	605.29
450.48	597.61
450.85	589.52
451.22	582.61
451.59	576.00
451.96	569.71
452.33	561.60
452.70	554.33
453.07	545.83
453.43	536.60
453.80	528.05
454.17	519.98
454.54	512.25
454.91	504.11
455.28	495.96
455.65	488.43
456.02	481.46
456.38	475.00
456.75	467.30
457.12	460.77
457.49	454.55
457.86	448.18
458.23	443.01
458.59	437.30
458.96	431.52
459.33	426.32
459.70	421.14
460.07	417.04
460.43	412.37
460.80	407.95
461.17	404.29
461.54	400.30
461.91	396.58
462.27	392.74
462.64	389.40
463.01	385.92
463.38	382.65
463.74	378.64
464.11	375.67
464.48	373.03
464.85	370.24
465.21	368.12
465.58	365.76
465.95	362.91
466.32	360.67
466.68	358.41
467.05	356.29
467.42	354.08
467.78	351.83
468.15	349.69
468.52	348.12
468.88	345.86
469.25	343.97
469.62	342.47
469.98	340.76
470.35	339.36
470.72	337.76
471.08	336.00
471.45	334.79
471.82	333.45
472.18	331.94
472.55	330.92
472.92	329.55
473.28	328.47
473.65	327.48
474.02	326.44
474.38	325.64
474.75	324.79
475.11	323.95
475.48	323.33
475.85	322.71
476.21	322.00
476.58	321.48
476.94	321.05
477.31	320.41
477.67	320.02
478.04	319.58
478.41	319.55
478.77	319.95
479.14	319.70
479.50	319.70
479.87	319.75
480.23	319.69
480.60	319.64
480.96	319.58
481.33	319.84
481.69	319.95
482.06	320.08
482.42	320.40
482.79	320.71
483.15	321.12
483.52	321.70
483.88	322.18
484.25	322.75
484.61	323.52
484.98	324.30
485.34	325.24
485.71	326.25
486.07	327.18
486.44	327.67
486.80	328.79
487.17	329.81
487.53	331.25
487.90	332.71
488.26	334.50
488.62	336.35
488.99	337.90
489.35	339.67
489.72	341.60
490.08	343.43
490.44	345.50
490.81	347.69
491.17	349.83
491.54	352.28
491.90	354.84
492.26	357.47
492.63	360.33
492.99	363.13
493.36	366.20
493.72	369.49
494.08	372.97
494.45	376.60
494.81	380.53
495.17	384.42
495.54	388.51
495.90	392.64
496.26	396.92
496.63	401.56
496.99	406.32
497.35	411.38
497.72	416.83
498.08	422.37
498.44	427.93
498.80	434.06
499.17	440.08
499.53	446.40
499.89	453.06
500.26	459.87
500.62	467.05
500.98	474.36
501.34	481.67
501.71	489.30
502.07	497.15
502.43	505.19
502.79	513.53
503.16	522.26
503.52	531.28
503.88	540.53
504.24	550.27
504.60	560.44
504.97	570.73
505.33	581.03
505.69	592.03
506.05	603.11
506.41	614.42
506.78	626.33
507.14	638.32
507.50	650.67
507.86	663.16
508.22	675.87
508.59	688.88
508.95	702.39
509.31	716.59
509.67	730.71
510.03	745.15
510.39	759.92
510.75	774.87
511.12	790.17
511.48	806.02
511.84	821.75
512.20	837.77
512.56	854.06
512.92	870.82
513.28	887.58
513.64	904.84
514.00	922.24
514.37	939.90
514.73	957.96
515.09	976.07
515.45	994.49
515.81	1013.01
516.17	1032.10
516.53	1051.01
516.89	1069.70
517.25	1089.44
517.61	1109.60
517.97	1129.82
518.33	1149.90
518.69	1170.09
519.05	1190.41
519.41	1211.06
519.77	1231.83
520.13	1252.63
520.49	1273.26
520.85	1295.61
521.21	1316.52
521.57	1337.82
521.93	1358.58
522.29	1379.74
522.65	1400.42
523.01	1421.45
523.37	1442.25
523.73	1463.00
524.09	1483.59
524.45	1504.39
524.81	1524.69
525.17	1545.02
525.53	1565.62
525.89	1586.43
526.25	1607.20
526.61	1627.77
526.97	1648.72
527.33	1670.09
527.68	1691.80
528.04	1713.34
528.40	1732.85
528.76	1753.93
529.12	1774.53
529.48	1795.33
529.84	1815.40
530.20	1836.56
530.56	1857.33
530.91	1878.10
531.27	1898.75
531.63	1919.54
531.99	1940.13
532.35	1960.43
532.71	1981.01
533.07	2001.52
533.42	2021.05
533.78	2040.71
534.14	2060.34
534.50	2079.25
534.86	2098.28
535.21	2115.66
535.57	2133.98
535.93	2151.89
536.29	2169.75
536.65	2187.76
537.00	2205.55
537.36	2223.05
537.72	2239.55
538.08	2256.69
538.44	2273.44
538.79	2289.75
539.15	2305.95
539.51	2321.62
539.87	2336.88
540.22	2350.93
540.58	2365.44
540.94	2378.91
541.29	2391.88
541.65	2404.65
542.01	2417.48
542.37	2427.97
542.72	2439.00
543.08	2449.32
543.44	2460.85
543.79	2470.73
544.15	2480.51
544.51	2490.27
544.87	2500.05
545.22	2508.38
545.58	2515.83
545.94	2522.75
546.29	2529.30
546.65	2535.35
547.01	2541.18
547.36	2546.65
547.72	2551.75
548.07	2555.40
548.43	2560.89
548.79	2565.55
549.14	2569.30
549.50	2572.82
549.86	2576.78
550.21	2580.67
550.57	2584.32
550.92	2585.75
551.28	2587.43
551.64	2589.52
551.99	2591.04
552.35	2592.46
552.70	2594.82
553.06	2596.66
553.41	2598.16
553.77	2599.74
554.13	2601.62
554.48	2603.14
554.84	2604.30
555.19	2605.68
555.55	2607.50
555.90	2606.75
556.26	2605.73
556.61	2604.25
556.97	2602.15
557.32	2601.61
557.68	2600.25
558.03	2598.63
558.39	2597.02
558.74	2596.10
559.10	2592.65
559.45	2589.24
559.81	2584.76
560.16	2579.60
560.52	2574.55
560.87	2570.21
561.23	2564.80
561.58	2558.80
561.94	2551.80
562.29	2544.69
562.64	2537.74
563.00	2529.41
563.35	2522.89
563.71	2516.30
564.06	2510.00
564.42	2503.55
564.77	2496.32
565.12	2488.94
565.48	2481.34
565.83	2473.39
566.19	2465.16
566.54	2457.73
566.89	2449.90
567.25	2442.59
567.60	2435.54
567.96	2428.24
568.31	2419.89
568.66	2411.39
569.02	2402.34
569.37	2394.26
569.72	2386.72
570.08	2377.58
570.43	2368.22
570.78	2358.73
571.14	2349.44
571.49	2339.53
571.84	2330.14
572.20	2319.55
572.55	2309.30
572.90	2298.43
573.26	2288.10
573.61	2276.99
573.96	2265.64
574.31	2253.43
574.67	2241.27
575.02	2228.56
575.37	2215.63
575.72	2202.28
576.08	2189.88
576.43	2177.58
576.78	2164.43
577.13	2150.74
577.49	2137.74
577.84	2125.75
578.19	2114.04
578.54	2101.32
578.90	2089.13
579.25	2076.50
579.60	2063.98
579.95	2051.15
580.30	2038.04
580.66	2025.01
581.01	2011.56
581.36	1997.62
581.71	1984.99
582.06	1972.12
582.42	1959.43
582.77	1946.82
583.12	1935.55
583.47	1923.37
583.82	1911.35
584.17	1899.42
584.53	1887.80
584.88	1874.78
585.23	1861.71
585.58	1847.46
585.93	1834.33
586.28	1821.09
586.63	1807.22
586.98	1792.85
587.34	1779.43
587.69	1766.15
588.04	1753.42
588.39	1741.26
588.74	1729.45
589.09	1717.51
589.44	1704.75
589.79	1692.87
590.14	1681.03
590.49	1668.50
590.84	1656.45
591.19	1644.35
591.54	1631.82
591.89	1619.31
592.25	1609.34
592.60	1597.99
592.95	1586.75
593.30	1574.86
593.65	1562.89
594.00	1551.04
594.35	1541.41
594.70	1529.68
595.05	1518.23
595.40	1506.07
595.75	1494.24
596.10	1482.76
596.45	1470.98
596.80	1460.21
597.15	1448.63
597.50	1436.96
597.85	1425.62
598.19	1413.96
598.54	1402.47
598.89	1391.39
599.24	1380.81
599.59	1369.32
599.94	1358.18
600.29	1347.69
600.64	1337.46
600.99	1326.67
601.34	1317.25
601.69	1306.16
602.04	1296.32
602.39	1286.49
602.74	1277.42
603.08	1268.19
603.43	1259.15
603.78	1249.89
604.13	1240.26
604.48	1230.66
604.83	1220.69
605.18	1210.97
605.53	1201.40
605.87	1192.07
606.22	1183.60
606.57	1174.34
606.92	1164.90
607.27	1156.35
607.62	1147.49
607.96	1138.80
608.31	1131.02
608.66	1122.32
609.01	1113.75
609.36	1105.32
609.70	1097.05
610.05	1088.43
610.40	1079.90
610.75	1071.03
611.10	1062.66
611.44	1054.11
611.79	1045.83
612.14	1038.23
612.49	1030.33
612.83	1023.06
613.18	1015.40
613.53	1007.46
613.88	999.73
614.22	992.08
614.57	983.93
614.92	976.05
615.27	968.76
615.61	961.12
615.96	953.46
616.31	946.02
616.65	939.05
617.00	931.75
617.35	924.53
617.70	917.24
618.04	910.23
618.39	903.05
618.74	896.66
619.08	889.80
619.43	882.85
619.78	875.86
620.12	868.53
620.47	861.68
620.82	854.72
621.16	847.78
621.51	841.43
621.85	835.14
622.20	828.74
622.55	821.77
622.89	815.20
623.24	809.03
623.59	802.76
623.93	796.35
624.28	790.25
624.62	784.76
624.97	779.12
625.32	773.23
625.66	767.43
626.01	761.14
626.35	755.78
626.70	749.97
627.04	744.76
627.39	739.26
627.73	734.00
628.08	728.94
628.43	723.49
628.77	718.07
629.12	712.75
629.46	707.89
629.81	703.25
630.15	698.57
630.50	693.61
630.84	688.61
631.19	683.90
631.53	679.38
631.88	673.90
632.22	668.94
632.57	664.36
632.91	659.64
633.26	655.59
633.60	650.82
633.95	646.34
634.29	641.57
634.64	637.20
634.98	632.36
635.32	627.95
635.67	624.07
636.01	619.74
636.36	615.35
636.70	611.29
637.05	607.11
637.39	602.95
637.73	598.86
638.08	595.02
638.42	590.80
638.77	586.35
639.11	582.11
639.45	577.76
639.80	573.50
640.14	569.54
640.49	565.44
640.83	561.65
641.17	558.18
641.52	554.55
641.86	550.98
642.20	547.80
642.55	544.09
642.89	540.32
643.23	536.90
643.58	533.97
643.92	530.19
644.26	526.77
644.61	523.55
644.95	520.19
645.29	516.71
645.64	513.57
645.98	510.54
646.32	507.70
646.66	504.75
647.01	501.82
647.35	499.10
647.69	496.03
648.04	493.22
648.38	490.27
648.72	487.33
649.06	484.25
649.41	481.17
649.75	478.25
650.09	475.44
650.43	472.53
650.78	469.47
651.12	466.82
651.46	463.95
651.80	461.10
652.14	458.48
652.49	456.07
652.83	453.42
653.17	450.91
653.51	448.16
653.85	445.72
654.20	443.29
654.54	440.64
654.88	438.11
655.22	435.80
655.56	433.25
655.90	431.00
656.25	428.76
656.59	426.49
656.93	424.34
657.27	422.29
657.61	419.89
657.95	417.75
658.29	415.60
658.64	413.57
658.98	411.45
659.32	409.16
659.66	406.90
660.00	404.77
660.34	402.65
660.68	400.68
661.02	398.74
661.36	396.74
661.70	394.76
662.05	392.86
662.39	390.97
662.73	389.31
663.07	387.67
663.41	385.82
663.75	383.93
664.09	381.91
664.43	379.96
664.77	378.38
665.11	376.61
665.45	374.83
665.79	373.21
666.13	371.41
666.47	369.76
666.81	368.14
667.15	366.51
667.49	365.05
667.83	363.73
668.17	362.18
668.51	360.69
668.85	359.33
669.19	358.25
669.53	356.65
669.87	354.98
670.21	353.38
670.55	352.00
670.89	350.93
671.23	349.62
671.57	348.24
671.91	346.84
672.25	345.46
672.58	344.30
672.92	342.75
673.26	341.58
673.60	340.39
673.94	339.22
674.28	338.10
674.62	336.87
674.96	335.42
675.30	334.22
675.64	333.03
675.97	331.81
676.31	330.40
676.65	329.10
676.99	328.20
677.33	327.11
677.67	326.00
678.01	324.70
678.34	323.74
678.68	322.77
679.02	321.70
679.36	320.70
679.70	319.54
680.04	318.76
680.37	317.68
680.71	316.69
681.05	315.72
681.39	314.77
681.73	313.79
682.06	312.99
682.40	312.09
682.74	311.26
683.08	310.56
683.42	309.71
683.75	309.06
684.09	308.05
684.43	307.24
684.77	306.40
685.10	305.57
685.44	304.80
685.78	303.95
686.12	303.20
686.45	302.40
686.79	301.59
687.13	300.83
687.46	300.07
687.80	299.37
688.14	298.56
688.48	297.80
688.81	297.10
689.15	296.52
689.49	295.80
689.82	295.13
690.16	294.26
690.50	293.58
690.83	292.80
691.17	292.10
691.51	291.49
691.84	290.91
692.18	290.24
692.52	289.57
692.85	289.00
693.19	288.51
693.52	287.85
693.86	287.23
694.20	286.62
694.53	286.15
694.87	285.47
695.21	284.95
695.54	284.42
695.88	283.74
696.21	282.90
696.55	282.32
696.88	281.58
697.22	280.91
697.56	280.34
697.89	279.76
698.23	279.18
698.56	278.47
698.90	277.95
699.23	277.38
699.57	276.74
699.90	276.15
700.24	275.50
700.58	275.08
700.91	274.69
701.25	274.54
701.58	274.35
701.92	274.06
702.25	273.52
702.59	273.02
702.92	272.63
703.26	272.28
703.59	271.83
703.93	271.85
704.26	271.53
704.60	271.13
704.93	270.70
705.26	270.29
705.60	269.97
705.93	269.45
706.27	269.21
706.60	269.02
706.94	268.89
707.27	268.50
707.61	268.15
707.94	267.71
708.27	266.96
708.61	266.17
708.94	265.70
709.28	265.34
709.61	264.86
709.94	264.53
710.28	264.16
710.61	263.85
710.95	263.07
711.28	262.95
711.61	262.49
711.95	262.25
712.28	261.82
712.61	261.43
712.95	261.36
713.28	261.18
713.61	260.76
713.95	260.21
714.28	259.91
714.61	259.49
714.95	259.14
715.28	258.69
715.61	258.36
715.95	258.06
716.28	257.66
716.61	257.38
716.95	256.98
717.28	256.63
717.61	256.30
717.94	256.07
718.28	255.50
718.61	255.26
718.94	254.89
719.27	254.67
719.61	254.46
719.94	254.05
720.27	253.51
720.60	253.15
720.94	252.94
721.27	252.75
721.60	252.63
721.93	252.40
722.27	252.46
722.60	252.37
722.93	252.08
723.26	251.94
723.59	251.72
723.93	251.60
724.26	251.48
724.59	251.18
724.92	250.93
725.25	250.79
725.59	250.56
725.92	250.40
726.25	250.19
726.58	249.97
726.91	249.78
727.24	249.61
727.57	249.47
727.91	249.15
728.24	248.89
728.57	248.63
728.90	248.57
729.23	248.17
729.56	248.18
729.89	247.97
730.22	247.79
730.55	247.57
730.89	247.36
731.22	247.20
731.55	247.07
731.88	246.90
732.21	246.67
732.54	246.50
732.87	246.33
733.20	246.25
733.53	246.10
733.86	245.90
734.19	245.81
734.52	245.78
734.85	245.97
735.18	245.80
735.51	245.76
735.84	245.59
736.17	245.57
736.50	245.14
736.83	245.56
737.16	245.37
737.49	245.30
737.82	245.11
738.15	245.05
738.48	244.95
738.81	244.75
739.14	244.61
739.47	244.43
739.80	244.27
740.13	244.13
740.46	243.90
740.79	243.75
741.12	243.56
741.45	243.30
741.78	242.95
742.11	242.99
742.44	242.79
742.77	242.72
743.10	242.50
743.43	242.36
743.75	241.70
744.08	242.18
744.41	241.95
744.74	241.85
745.07	241.57
745.40	241.51
745.73	241.63
746.06	241.51
746.39	241.46
746.71	241.28
747.04	241.02
747.37	240.88
747.70	240.88
748.03	240.75
748.36	240.71
748.68	240.54
749.01	240.27
749.34	240.15
749.67	239.96
750.00	239.97
750.33	240.22
750.65	240.19
750.98	239.52
751.31	239.51
751.64	239.44
751.97	239.45
752.29	239.23
752.62	238.86
752.95	238.75
753.28	238.62
753.60	238.51
753.93	238.61
754.26	238.62
754.59	238.38
754.91	238.25
755.24	238.04
755.57	237.97
755.90	237.84
756.22	237.68
756.55	237.52
756.88	237.27
757.20	236.85
757.53	236.62
757.86	236.50
758.19	236.46
758.51	236.33
758.84	236.11
759.17	236.01
759.49	235.97
759.82	236.10
760.15	236.00
760.47	235.89
760.80	235.67
761.13	235.59
761.45	235.48
761.78	235.38
762.11	235.33
762.43	235.18
762.76	235.06
763.08	235.02
763.41	235.00
763.74	234.97
764.06	234.86
764.39	234.79
764.71	234.69
765.04	234.47
765.37	234.29
765.69	234.21
766.02	234.19
766.34	234.14
766.67	233.77
767.00	233.76
767.32	233.98
767.65	234.20
767.97	234.14
768.30	234.13
768.62	234.10
768.95	233.97
769.27	233.94
769.60	233.98
769.92	233.87
770.25	233.69
770.57	233.51
770.90	233.47
771.22	233.38
771.55	233.38
771.87	233.45
772.20	233.46
772.52	233.82
772.85	234.28
773.17	234.21
773.50	234.28
773.82	234.19
774.15	233.89
774.47	233.56
774.80	233.51
775.12	233.38
775.45	233.29
775.77	233.31
776.09	233.21
776.42	233.13
776.74	233.23
777.07	233.22
777.39	233.21
777.72	233.13
778.04	233.16
778.36	233.06
778.69	232.92
779.01	232.94
779.33	232.50
779.66	231.92
779.98	231.86
780.31	231.78
780.63	231.88
780.95	231.92
781.28	231.83
781.60	231.67
781.92	231.70
782.25	231.61
782.57	231.55
782.89	231.49
783.22	231.41
783.54	231.25
783.86	231.20
784.19	231.17
784.51	231.25
784.83	231.10
785.16	230.99
785.48	230.94
785.80	230.83
786.12	230.81
786.45	230.77
786.77	230.72
787.09	230.62
787.42	230.44
787.74	230.36
788.06	230.38
788.38	230.36
788.71	230.25
789.03	230.25
789.35	230.24
789.67	230.20
789.99	230.22
790.32	230.10
790.64	230.12
790.96	230.41
791.28	230.19
791.61	230.15
791.93	230.21
792.25	230.11
792.57	230.41
792.89	230.24
793.21	230.22
793.54	230.19
793.86	230.07
794.18	230.00
794.50	229.88
794.82	229.77
795.14	229.78
795.47	229.84
795.79	229.77
796.11	229.68
796.43	229.63
796.75	229.57
797.07	229.58
797.39	229.50
797.71	229.18
798.04	229.21
798.36	229.22
798.68	229.23
799.00	229.30
799.32	229.04
799.64	229.16
799.96	229.13
800.28	229.22
800.60	229.21
800.92	229.28
801.24	229.26
801.56	229.34
801.89	229.31
802.21	229.34
802.53	229.31
802.85	229.38
803.17	229.62
803.49	229.47
803.81	229.48
804.13	229.44
804.45	229.39
804.77	229.48
805.09	229.48
805.41	229.31
805.73	229.20
806.05	229.12
806.37	229.10
806.69	229.09
807.01	228.97
807.33	229.05
807.65	228.88
807.97	229.12
808.28	229.02
808.60	228.95
808.92	228.85
809.24	229.08
809.56	229.03
809.88	228.85
810.20	228.93
810.52	228.98
810.84	228.88
811.16	228.81
811.48	228.76
811.80	228.99
812.12	229.01
812.43	229.15
812.75	229.14
813.07	229.09
813.39	229.12
813.71	229.02
814.03	228.96
814.35	229.00
814.67	228.76
814.98	228.72
815.30	228.64
815.62	228.55
815.94	228.30
816.26	228.48
816.58	228.34
816.89	228.37
817.21	228.27
817.53	228.33
817.85	228.36
818.17	228.27
818.48	227.98
818.80	228.12
819.12	227.99
819.44	227.84
819.76	227.79
820.07	227.76
820.39	227.77
820.71	227.77
821.03	227.73
821.34	227.70
821.66	227.83
821.98	227.90
822.30	227.86
822.61	228.08
822.93	227.79
823.25	227.76
823.57	227.67
823.88	227.75
824.20	227.78
824.52	227.84
824.83	227.88
825.15	227.83
825.47	227.70
825.79	227.66
826.10	227.69
826.42	227.61
826.74	227.58
827.05	227.61
827.37	227.60
827.69	227.55
828.00	227.52
828.32	227.52
828.64	227.45
828.95	227.75
829.27	227.56
829.58	227.59
829.90	227.69
830.22	227.72
830.53	227.56
830.85	227.48
831.17	227.37
831.48	227.28
831.80	227.29
832.11	227.32
832.43	227.29
832.75	227.33
833.06	227.70
833.38	227.59
833.69	227.51
834.01	227.51
834.32	227.55
834.64	227.53
834.96	227.49
835.27	227.54
835.59	227.30
835.90	227.30
836.22	227.31
836.53	227.19
836.85	227.15
837.16	227.65
837.48	227.66
837.79	227.85
838.11	227.95
838.42	228.00
838.74	228.02
839.05	228.03
839.37	227.99
839.68	227.63
840.00	227.66
840.31	227.78
840.63	227.77
840.94	227.70
841.26	227.68
841.57	227.70
841.88	227.77
842.20	227.77
842.51	227.66
842.83	227.69
843.14	228.12
843.46	228.14
843.77	227.87
844.08	227.74
844.40	227.50
844.71	227.42
845.03	227.38
845.34	227.36
845.65	227.38
845.97	227.41
846.28	227.44
846.60	227.47
846.91	227.39
847.22	227.42
847.54	227.52
847.85	227.62
848.16	227.54
848.48	227.45
848.79	227.66
849.10	227.75
849.42	227.78
849.73	227.41
850.04	227.44
850.36	227.33
850.67	227.52
850.98	227.64
851.30	227.71
851.61	227.70
851.92	227.72
852.23	227.82
852.55	227.86
852.86	227.95
853.17	227.99
853.49	228.16
853.80	228.18
854.11	228.27
854.42	228.28
854.74	228.27
855.05	228.26
855.36	227.99
855.67	228.06
855.99	228.00
856.30	228.58
856.61	228.56
856.92	228.59
857.23	228.62
857.55	228.54
857.86	228.43
858.17	228.50
858.48	228.44
858.79	228.33
859.11	228.34
859.42	228.28
859.73	228.16
860.04	228.02
860.35	227.90
860.66	227.77
860.98	227.75
861.29	227.85
861.60	227.81
861.91	227.95
862.22	227.73
862.53	227.72
862.84	227.09
863.16	227.21
863.47	227.12
863.78	227.10
864.09	227.17
864.40	227.28
864.71	227.24
865.02	227.29
865.33	227.22
865.64	227.10
865.95	227.07
866.27	227.43
866.58	227.39
866.89	227.50
867.20	227.44
867.51	227.41
867.82	227.27
868.13	227.41
868.44	227.28
868.75	227.47
869.06	227.48
869.37	227.47
869.68	227.26
869.99	227.28
870.30	227.24
870.61	227.19
870.92	227.10
871.23	227.05
871.54	227.09
871.85	227.25
872.16	227.33
872.47	227.31
872.78	227.08
873.09	227.14
873.40	227.00
873.71	226.99
874.02	226.95
874.33	226.94
874.64	226.83
874.95	226.85
875.26	226.72
875.56	226.73
875.87	226.71
876.18	226.73
876.49	227.20
876.80	227.16
877.11	227.11
877.42	227.14
877.73	227.18
878.04	227.10
878.35	227.10
878.66	227.08
878.96	227.03
879.27	226.98
879.58	226.90
879.89	226.97
880.20	227.05
880.51	226.97
880.82	226.99
881.12	227.00
881.43	226.96
881.74	226.93
882.05	226.85
882.36	226.95
882.67	226.96
882.97	226.44
883.28	226.38
883.59	226.36
883.90	226.37
884.21	226.44
884.51	226.40
884.82	226.28
885.13	226.29
885.44	226.34
885.74	226.33
886.05	226.38
886.36	226.36
886.67	226.33
886.98	226.65
887.28	226.74
887.59	226.77
887.90	226.83
888.20	226.81
888.51	227.00
888.82	226.89
889.13	227.02
889.43	227.48
889.74	227.55
890.05	227.55
890.35	227.55
890.66	227.42
890.97	227.37
891.28	227.37
891.58	227.47
891.89	227.48
892.20	227.40
892.50	227.34
892.81	227.30
893.12	227.27
893.42	227.02
893.73	227.03
894.04	227.03
894.34	227.02
894.65	227.06
894.95	226.97
895.26	226.99
895.57	227.17
895.87	226.67
896.18	226.68
896.48	226.74
896.79	226.78
897.10	226.85
897.40	226.94
897.71	227.03
898.01	227.01
898.32	227.05
898.63	227.07
898.93	227.14
899.24	227.23
899.54	227.20
899.85	227.22
900.15	227.11
900.46	227.08
900.76	227.17
901.07	227.16
901.38	227.11
901.68	227.21
901.99	227.00
902.29	227.00
902.60	227.01
902.90	226.92
903.21	226.83
903.51	226.83
903.82	226.92
904.12	226.88
904.43	226.80
904.73	226.75
905.03	226.70
905.34	227.10
905.64	227.01
905.95	226.94
906.25	226.89
906.56	226.89
906.86	226.97
907.17	226.85
907.47	226.84
907.77	226.80
908.08	226.66
908.38	226.64
908.69	226.72
908.99	226.77
909.30	226.83
909.60	226.87
909.90	226.88
910.21	226.70
910.51	226.64
910.81	226.64
911.12	226.60
911.42	226.71
911.73	226.18
912.03	226.18
912.33	226.33
912.64	226.32
912.94	226.27
913.24	226.16
913.55	226.17
913.85	226.14
914.15	226.26
914.46	226.33
914.76	226.26
915.06	226.26
915.37	226.17
915.67	226.10
915.97	226.08
916.27	225.98
916.58	225.95
916.88	225.97
917.18	225.98
917.49	226.34
917.79	226.26
918.09	226.36
918.39	226.51
918.70	226.49
919.00	226.55
919.30	226.74
919.60	226.70
919.91	226.63
920.21	226.66
920.51	226.46
920.81	226.40
921.12	226.45
921.42	226.35
921.72	226.40
922.02	226.45
922.32	226.54
922.63	226.54
922.93	226.78
923.23	226.83
923.53	226.73
923.83	226.43
924.13	226.47
924.44	226.48
924.74	226.54
925.04	226.60
925.34	226.57
925.64	226.50
925.94	226.53
926.24	226.81
926.55	226.81
926.85	226.95
927.15	227.00
927.45	227.04
927.75	227.11
928.05	227.07
928.35	227.00
928.65	227.03
928.95	227.06
929.26	226.88
929.56	226.86
929.86	226.96
930.16	226.92
930.46	226.93
930.76	226.95
931.06	226.75
931.36	226.65
931.66	226.74
931.96	226.70
932.26	226.69
932.56	226.55
932.86	226.60
933.16	226.61
933.46	226.59
933.76	226.50
934.06	226.64
934.36	226.84
934.66	226.86
934.96	226.81
935.26	226.84
935.56	226.99
935.86	226.92
936.16	226.85
936.46	226.85
936.76	226.85
937.06	226.79
937.36	226.86
937.66	226.90
937.96	226.89
938.26	226.85
938.56	226.89
938.86	226.83
939.16	226.86
939.46	226.89
939.76	226.87
940.06	226.86
940.35	226.69
940.65	226.35
940.95	226.36
941.25	226.25
941.55	226.13
941.85	226.00
942.15	226.15
942.45	226.32
942.75	226.24
943.04	226.21
943.34	226.29
943.64	226.18
943.94	226.08
944.24	226.10
944.54	226.14
944.84	226.09
945.13	226.05
945.43	226.00
945.73	225.96
946.03	225.92
946.33	225.91
946.62	225.87
946.92	225.94
947.22	225.91
947.52	225.93
947.82	226.08
948.11	226.13
948.41	226.01
948.71	225.82
949.01	225.90
949.31	225.89
949.60	225.83
949.90	225.91
950.20	225.89
950.50	225.82
950.79	225.84
951.09	225.90
951.39	225.85
951.69	225.75
951.98	225.86
952.28	226.00
952.58	225.95
952.87	225.96
953.17	226.04
953.47	225.95
953.76	225.94
954.06	225.78
954.36	225.64
954.66	225.62
954.95	225.73
955.25	225.72
955.55	225.70
955.84	225.65
956.14	225.67
956.44	225.69
956.73	225.54
957.03	225.46
957.32	225.44
957.62	225.40
957.92	225.54
958.21	225.37
958.51	225.80
958.81	225.82
959.10	225.90
959.40	225.95
959.69	226.06
959.99	226.08
960.29	226.14
960.58	226.13
960.88	226.32
961.17	226.22
961.47	226.25
961.76	226.25
962.06	226.34
962.36	226.32
962.65	226.41
962.95	226.52
963.24	226.60
963.54	226.63
963.83	226.73
964.13	226.67
964.42	226.68
964.72	226.32
965.01	226.42
965.31	226.40
965.60	226.35
965.90	226.62
966.19	226.59
966.49	226.69
966.78	226.67
967.08	226.68
967.37	226.76
967.67	226.69
967.96	226.82
968.26	226.78
968.55	226.86
968.85	226.76
969.14	226.75
969.43	226.73
969.73	226.67
970.02	226.65
970.32	226.66
970.61	226.60
970.91	226.51
971.20	226.39
971.49	226.33
971.79	226.39
972.08	226.11
972.38	226.16
972.67	226.09
972.96	226.19
973.26	226.04
973.55	226.19
973.85	226.20
974.14	226.09
974.43	226.11
974.73	226.01
975.02	226.04
975.31	226.09
975.61	226.04
975.90	226.03
976.19	226.01
976.49	226.06
976.78	226.09
977.07	226.05
977.37	226.18
977.66	226.21
977.95	226.20
978.24	226.19
978.54	226.28
978.83	226.21
979.12	226.17
979.42	226.15
979.71	226.05
980.00	226.04
980.29	226.05
980.59	225.97
980.88	226.07
981.17	226.11
981.46	226.08
981.76	226.08
982.05	226.24
982.34	226.26
982.63	226.26
982.93	226.33
983.22	226.43
983.51	226.36
983.80	226.42
984.09	226.41
984.39	226.40
984.68	226.37
984.97	226.41
985.26	226.42
985.55	226.45
985.85	226.27
986.14	226.33
986.43	226.35
986.72	226.37
987.01	226.14
987.30	226.06
987.59	226.00
987.89	226.07
988.18	225.95
988.47	225.87
988.76	225.80
989.05	225.71
989.34	225.74
989.63	225.93
989.92	225.94
990.22	225.90
990.51	225.92
990.80	225.80
991.09	225.82
991.38	225.88
991.67	225.86
991.96	225.91
992.25	225.95
992.54	225.86
992.83	225.86
993.12	225.90
993.41	226.04
993.70	226.34
993.99	226.39
994.28	226.47
994.58	226.55
994.87	226.51
995.16	226.52
995.45	226.35
995.74	226.19
996.03	226.26
996.32	226.36
996.61	226.46
996.90	226.56
997.19	226.59
997.48	226.60
997.77	226.59
998.06	226.64
998.34	226.58
998.63	226.63
998.92	226.68
999.21	226.78
999.50	226.74
999.79	226.52
1000.08	226.49
1000.37	226.46
1000.66	226.41
1000.95	226.61
1001.24	226.67
1001.53	226.81
1001.82	226.76
1002.11	226.61
1002.40	226.65
1002.68	226.75
1002.97	227.00
1003.26	226.95
1003.55	226.85
1003.84	226.85
1004.13	226.92
1004.42	226.92
1004.71	226.90
1004.99	226.86
1005.28	227.03
1005.57	226.95
1005.86	226.90
1006.15	226.85
1006.44	226.75
1006.72	226.86
1007.01	226.73
1007.30	226.78
1007.59	226.72
1007.88	226.74
1008.17	226.73
1008.45	226.57
1008.74	226.40
1009.03	226.21
1009.32	226.23
1009.60	226.23
1009.89	226.17
1010.18	226.02
1010.47	225.97
1010.76	225.96
1011.04	225.95
1011.33	225.95
1011.62	225.99
1011.91	226.03
1012.19	226.07
1012.48	226.13
1012.77	226.11
1013.05	226.37
1013.34	226.27
1013.63	226.25
1013.92	226.24
1014.20	226.23
1014.49	226.32
1014.78	226.25
1015.06	226.07
1015.35	226.01
1015.64	226.08
1015.92	226.24
1016.21	226.27
1016.50	226.31
1016.78	226.37
1017.07	226.40
1017.36	226.27
1017.64	226.22
1017.93	226.28
1018.22	226.24
1018.50	226.22
1018.79	226.12
1019.08	225.79
1019.36	225.85
1019.65	225.78
1019.93	225.95
1020.22	225.98
1020.51	226.18
1020.79	226.20
1021.08	225.80
1021.36	225.75
1021.65	224.90
1021.94	224.80
1022.22	226.55
1022.51	225.05
1022.79	228.55
1023.08	226.65
1023.36	231.30
1023.65	225.50
>>>>>End Processed Spectral Data<<<<<
