SpectraSuite Data File
++++++++++++++++++++++++++++++++++++
Date: Wed Sep 04 18:01:48 EDT 2013
User: lab3
Dark Spectrum Present: Yes
Reference Spectrum Present: No
Number of Sampled Component Spectra: 1
Spectrometers: USB2E7196
Integration Time (usec): 170000 (USB2E7196)
Spectra Averaged: 20 (USB2E7196)
Boxcar Smoothing: 10 (USB2E7196)
Correct for Electrical Dark: No (USB2E7196)
Strobe/Lamp Enabled: No (USB2E7196)
Correct for Detector Non-linearity: No (USB2E7196)
Correct for Stray Light: No (USB2E7196)
Number of Pixels in Processed Spectrum: 2048
>>>>>Begin Processed Spectral Data<<<<<
339.09	0.00
339.48	212.35
339.86	214.65
340.24	215.40
340.63	218.10
341.01	225.80
341.39	220.45
341.78	222.50
342.16	225.20
342.54	223.50
342.93	212.53
343.31	223.27
343.69	223.87
344.07	224.39
344.46	224.94
344.84	225.32
345.22	225.35
345.60	225.61
345.99	225.86
346.37	225.90
346.75	226.05
347.13	226.03
347.52	226.12
347.90	226.33
348.28	226.34
348.66	226.52
349.05	226.40
349.43	226.56
349.81	226.59
350.19	226.61
350.57	226.64
350.96	226.80
351.34	226.89
351.72	226.87
352.10	226.92
352.48	226.98
352.87	227.08
353.25	227.10
353.63	227.13
354.01	227.08
354.39	227.13
354.77	227.16
355.15	227.35
355.54	227.32
355.92	227.20
356.30	227.34
356.68	227.72
357.06	227.85
357.44	227.80
357.82	227.88
358.20	228.33
358.58	228.38
358.97	228.47
359.35	228.62
359.73	228.82
360.11	228.89
360.49	228.89
360.87	228.88
361.25	229.05
361.63	229.23
362.01	229.32
362.39	229.30
362.77	229.40
363.15	229.52
363.53	229.65
363.91	229.74
364.29	229.75
364.67	229.25
365.05	229.25
365.43	229.32
365.81	229.36
366.19	229.31
366.57	229.61
366.95	229.56
367.33	229.41
367.71	229.47
368.09	229.56
368.47	229.64
368.85	229.66
369.23	229.61
369.61	229.44
369.99	229.62
370.37	229.76
370.75	230.01
371.13	229.84
371.51	229.72
371.89	229.75
372.27	229.69
372.65	229.73
373.03	229.71
373.41	229.65
373.78	229.52
374.16	229.14
374.54	228.83
374.92	228.74
375.30	228.67
375.68	228.50
376.06	228.46
376.44	228.27
376.82	228.23
377.19	228.19
377.57	228.13
377.95	227.84
378.33	227.71
378.71	227.31
379.09	227.30
379.47	227.35
379.84	227.20
380.22	227.10
380.60	226.95
380.98	226.80
381.36	226.75
381.73	226.72
382.11	226.75
382.49	226.69
382.87	226.55
383.25	226.54
383.62	227.04
384.00	226.86
384.38	226.85
384.76	226.86
385.13	227.02
385.51	226.96
385.89	226.94
386.27	226.88
386.64	226.92
387.02	226.86
387.40	226.70
387.78	226.69
388.15	226.75
388.53	226.71
388.91	226.77
389.29	226.74
389.66	226.80
390.04	226.73
390.42	226.82
390.79	226.93
391.17	226.98
391.55	226.43
391.92	226.45
392.30	226.51
392.68	226.36
393.05	226.31
393.43	226.34
393.81	226.34
394.18	226.32
394.56	226.34
394.94	226.47
395.31	226.49
395.69	226.67
396.06	226.70
396.44	226.79
396.82	226.80
397.19	227.07
397.57	227.05
397.95	227.28
398.32	227.23
398.70	227.36
399.07	227.52
399.45	227.61
399.82	227.73
400.20	227.75
400.58	227.97
400.95	227.92
401.33	228.13
401.70	228.62
402.08	228.81
402.45	228.95
402.83	229.20
403.20	229.41
403.58	229.54
403.95	229.85
404.33	230.11
404.71	230.34
405.08	230.80
405.46	231.06
405.83	231.30
406.21	231.52
406.58	231.74
406.96	231.94
407.33	232.35
407.70	232.70
408.08	233.51
408.45	233.91
408.83	234.47
409.20	234.88
409.58	235.01
409.95	235.59
410.33	236.16
410.70	236.53
411.08	237.16
411.45	237.76
411.82	238.36
412.20	239.17
412.57	240.12
412.95	240.45
413.32	241.31
413.69	242.08
414.07	243.07
414.44	244.07
414.82	245.15
415.19	246.23
415.56	247.38
415.94	248.40
416.31	249.80
416.68	251.17
417.06	252.80
417.43	254.46
417.81	256.12
418.18	257.90
418.55	259.86
418.93	261.80
419.30	263.90
419.67	266.03
420.04	268.29
420.42	270.60
420.79	273.66
421.16	276.38
421.54	279.46
421.91	282.41
422.28	285.47
422.66	288.73
423.03	292.19
423.40	295.60
423.77	299.13
424.15	302.79
424.52	306.57
424.89	310.75
425.26	314.71
425.64	318.59
426.01	322.71
426.38	327.00
426.75	331.55
427.13	336.05
427.50	340.95
427.87	345.73
428.24	350.65
428.61	355.21
428.99	360.60
429.36	366.13
429.73	371.71
430.10	377.30
430.47	383.05
430.85	388.72
431.22	394.95
431.59	401.77
431.96	407.98
432.33	414.78
432.70	421.50
433.08	429.40
433.45	436.74
433.82	444.20
434.19	452.45
434.56	460.66
434.93	468.44
435.30	476.27
435.68	484.97
436.05	493.53
436.42	501.89
436.79	509.58
437.16	517.96
437.53	526.78
437.90	535.53
438.27	544.05
438.64	553.12
439.01	561.43
439.38	568.79
439.75	576.00
440.13	584.34
440.50	591.85
440.87	598.05
441.24	604.46
441.61	611.45
441.98	616.63
442.35	622.42
442.72	628.42
443.09	634.32
443.46	637.87
443.83	640.07
444.20	642.02
444.57	644.87
444.94	646.00
445.31	647.26
445.68	648.61
446.05	648.86
446.42	647.43
446.79	645.92
447.16	644.06
447.53	642.75
447.90	638.92
448.27	635.24
448.64	630.25
449.01	626.65
449.37	620.43
449.74	614.39
450.11	607.55
450.48	599.79
450.85	591.62
451.22	584.68
451.59	578.14
451.96	571.76
452.33	563.43
452.70	556.05
453.07	547.13
453.43	538.06
453.80	529.64
454.17	521.59
454.54	513.91
454.91	505.80
455.28	497.88
455.65	490.41
456.02	483.57
456.38	477.19
456.75	469.38
457.12	462.87
457.49	456.62
457.86	450.25
458.23	445.04
458.59	439.31
458.96	433.53
459.33	428.35
459.70	423.29
460.07	419.28
460.43	414.54
460.80	410.27
461.17	406.40
461.54	402.34
461.91	398.48
462.27	394.71
462.64	391.36
463.01	387.70
463.38	384.34
463.74	380.25
464.11	377.19
464.48	374.58
464.85	371.71
465.21	369.43
465.58	367.04
465.95	364.17
466.32	361.94
466.68	359.59
467.05	357.34
467.42	355.17
467.78	352.84
468.15	350.65
468.52	349.11
468.88	346.91
469.25	344.94
469.62	343.52
469.98	341.76
470.35	340.34
470.72	338.76
471.08	337.04
471.45	335.81
471.82	334.54
472.18	333.10
472.55	332.09
472.92	330.71
473.28	329.62
473.65	328.55
474.02	327.46
474.38	326.69
474.75	325.95
475.11	324.97
475.48	324.35
475.85	323.67
476.21	322.87
476.58	322.39
476.94	322.04
477.31	321.52
477.67	321.11
478.04	320.76
478.41	320.68
478.77	320.88
479.14	320.59
479.50	320.51
479.87	320.54
480.23	320.55
480.60	320.50
480.96	320.46
481.33	320.77
481.69	320.95
482.06	321.08
482.42	321.39
482.79	321.85
483.15	322.22
483.52	322.87
483.88	323.34
484.25	323.89
484.61	324.51
484.98	325.20
485.34	326.10
485.71	327.02
486.07	327.97
486.44	328.69
486.80	329.77
487.17	330.83
487.53	332.06
487.90	333.46
488.26	335.18
488.62	336.92
488.99	338.54
489.35	340.35
489.72	342.28
490.08	344.26
490.44	346.22
490.81	348.48
491.17	350.61
491.54	353.27
491.90	355.93
492.26	358.55
492.63	361.39
492.99	364.28
493.36	367.38
493.72	370.74
494.08	374.17
494.45	377.91
494.81	381.81
495.17	385.69
495.54	389.80
495.90	394.15
496.26	398.62
496.63	403.28
496.99	408.05
497.35	413.05
497.72	418.23
498.08	423.80
498.44	429.40
498.80	435.48
499.17	441.49
499.53	447.80
499.89	454.52
500.26	461.28
500.62	468.26
500.98	475.70
501.34	483.05
501.71	490.83
502.07	498.54
502.43	506.68
502.79	515.20
503.16	523.97
503.52	532.93
503.88	542.20
504.24	551.93
504.60	562.03
504.97	572.45
505.33	583.05
505.69	594.06
506.05	605.30
506.41	616.69
506.78	628.37
507.14	640.31
507.50	652.63
507.86	665.42
508.22	678.51
508.59	691.45
508.95	705.24
509.31	719.47
509.67	733.86
510.03	748.18
510.39	762.91
510.75	778.15
511.12	793.42
511.48	809.14
511.84	824.80
512.20	840.79
512.56	857.16
512.92	874.02
513.28	890.93
513.64	908.06
514.00	925.60
514.37	943.54
514.73	961.67
515.09	979.97
515.45	998.44
515.81	1016.90
516.17	1035.80
516.53	1054.64
516.89	1073.26
517.25	1092.92
517.61	1113.42
517.97	1133.80
518.33	1153.99
518.69	1174.19
519.05	1194.63
519.41	1215.55
519.77	1236.51
520.13	1257.22
520.49	1277.85
520.85	1300.31
521.21	1321.75
521.57	1342.85
521.93	1363.69
522.29	1385.04
522.65	1405.81
523.01	1426.78
523.37	1447.56
523.73	1468.64
524.09	1489.34
524.45	1510.28
524.81	1531.30
525.17	1552.02
525.53	1572.55
525.89	1593.25
526.25	1614.35
526.61	1635.03
526.97	1655.94
527.33	1677.44
527.68	1699.65
528.04	1721.11
528.40	1740.50
528.76	1761.54
529.12	1782.13
529.48	1802.78
529.84	1822.75
530.20	1844.28
530.56	1865.08
530.91	1885.99
531.27	1906.74
531.63	1927.48
531.99	1948.46
532.35	1968.33
532.71	1988.32
533.07	2009.09
533.42	2029.12
533.78	2049.10
534.14	2069.14
534.50	2088.35
534.86	2107.50
535.21	2124.84
535.57	2143.52
535.93	2161.67
536.29	2179.64
536.65	2197.97
537.00	2215.96
537.36	2233.83
537.72	2250.22
538.08	2267.54
538.44	2284.58
538.79	2301.07
539.15	2317.71
539.51	2333.30
539.87	2348.64
540.22	2363.01
540.58	2377.48
540.94	2390.97
541.29	2403.80
541.65	2416.37
542.01	2429.24
542.37	2439.91
542.72	2451.23
543.08	2461.94
543.44	2473.66
543.79	2483.87
544.15	2493.67
544.51	2503.68
544.87	2513.39
545.22	2522.20
545.58	2529.71
545.94	2537.09
546.29	2543.75
546.65	2550.05
547.01	2555.74
547.36	2561.34
547.72	2566.93
548.07	2570.85
548.43	2576.12
548.79	2580.59
549.14	2584.69
549.50	2588.38
549.86	2592.64
550.21	2596.20
550.57	2599.53
550.92	2601.23
551.28	2602.61
551.64	2605.19
551.99	2607.20
552.35	2609.07
552.70	2611.10
553.06	2613.02
553.41	2614.10
553.77	2615.82
554.13	2617.56
554.48	2619.04
554.84	2620.81
555.19	2622.13
555.55	2623.91
555.90	2623.04
556.26	2622.84
556.61	2621.46
556.97	2619.61
557.32	2619.04
557.68	2618.07
558.03	2616.43
558.39	2615.24
558.74	2614.20
559.10	2611.32
559.45	2607.94
559.81	2603.35
560.16	2598.38
560.52	2593.65
560.87	2589.28
561.23	2584.03
561.58	2578.01
561.94	2571.49
562.29	2563.78
562.64	2556.74
563.00	2548.61
563.35	2542.57
563.71	2535.69
564.06	2529.72
564.42	2522.87
564.77	2515.95
565.12	2508.20
565.48	2500.65
565.83	2492.59
566.19	2484.59
566.54	2476.61
566.89	2468.42
567.25	2460.81
567.60	2453.46
567.96	2445.82
568.31	2438.11
568.66	2429.19
569.02	2420.09
569.37	2412.14
569.72	2404.86
570.08	2395.65
570.43	2385.97
570.78	2376.62
571.14	2367.29
571.49	2357.01
571.84	2347.58
572.20	2336.30
572.55	2326.69
572.90	2316.24
573.26	2305.98
573.61	2295.13
573.96	2284.10
574.31	2272.11
574.67	2260.31
575.02	2247.85
575.37	2235.22
575.72	2221.66
576.08	2209.60
576.43	2197.15
576.78	2183.85
577.13	2169.72
577.49	2156.88
577.84	2145.12
578.19	2132.82
578.54	2120.10
578.90	2107.86
579.25	2095.63
579.60	2083.37
579.95	2069.91
580.30	2056.38
580.66	2042.71
581.01	2028.71
581.36	2014.45
581.71	2001.91
582.06	1988.95
582.42	1976.07
582.77	1963.29
583.12	1951.32
583.47	1938.82
583.82	1926.82
584.17	1914.98
584.53	1903.39
584.88	1890.50
585.23	1877.62
585.58	1863.51
585.93	1850.00
586.28	1836.77
586.63	1822.56
586.98	1808.25
587.34	1795.33
587.69	1782.04
588.04	1769.20
588.39	1757.00
588.74	1744.95
589.09	1732.53
589.44	1719.51
589.79	1707.53
590.14	1695.75
590.49	1683.58
590.84	1671.43
591.19	1659.26
591.54	1646.62
591.89	1634.12
592.25	1623.93
592.60	1612.08
592.95	1600.90
593.30	1589.08
593.65	1577.00
594.00	1565.17
594.35	1555.37
594.70	1543.31
595.05	1531.85
595.40	1519.98
595.75	1508.25
596.10	1496.90
596.45	1485.38
596.80	1474.68
597.15	1463.09
597.50	1451.06
597.85	1439.76
598.19	1427.98
598.54	1416.14
598.89	1404.90
599.24	1394.49
599.59	1382.47
599.94	1371.65
600.29	1360.87
600.64	1350.33
600.99	1339.11
601.34	1329.35
601.69	1318.30
602.04	1308.04
602.39	1298.18
602.74	1288.69
603.08	1279.17
603.43	1269.62
603.78	1259.81
604.13	1250.19
604.48	1240.33
604.83	1230.63
605.18	1220.73
605.53	1211.12
605.87	1201.87
606.22	1193.07
606.57	1183.66
606.92	1174.24
607.27	1165.00
607.62	1156.15
607.96	1147.64
608.31	1139.78
608.66	1131.26
609.01	1122.39
609.36	1114.01
609.70	1105.37
610.05	1096.56
610.40	1088.04
610.75	1079.19
611.10	1070.85
611.44	1062.13
611.79	1054.19
612.14	1046.28
612.49	1038.07
612.83	1030.73
613.18	1023.04
613.53	1015.08
613.88	1006.90
614.22	999.30
614.57	991.51
614.92	983.65
615.27	975.94
615.61	968.39
615.96	960.58
616.31	953.18
616.65	946.01
617.00	938.75
617.35	931.75
617.70	924.55
618.04	917.52
618.39	910.50
618.74	903.95
619.08	896.77
619.43	889.63
619.78	882.82
620.12	875.57
620.47	868.54
620.82	861.26
621.16	854.54
621.51	848.11
621.85	841.74
622.20	835.11
622.55	828.45
622.89	821.89
623.24	815.51
623.59	808.98
623.93	802.61
624.28	796.38
624.62	790.60
624.97	784.57
625.32	778.56
625.66	772.55
626.01	766.30
626.35	760.82
626.70	755.15
627.04	749.76
627.39	744.02
627.73	738.63
628.08	733.58
628.43	728.09
628.77	722.41
629.12	716.91
629.46	711.91
629.81	707.04
630.15	702.23
630.50	697.31
630.84	692.39
631.19	687.58
631.53	682.95
631.88	677.67
632.22	672.85
632.57	668.45
632.91	663.72
633.26	659.07
633.60	654.43
633.95	649.79
634.29	645.03
634.64	640.65
634.98	635.81
635.32	631.48
635.67	627.37
636.01	623.24
636.36	619.05
636.70	614.99
637.05	610.80
637.39	606.56
637.73	602.33
638.08	598.18
638.42	593.71
638.77	589.33
639.11	584.90
639.45	580.63
639.80	576.20
640.14	572.15
640.49	568.29
640.83	564.38
641.17	560.64
641.52	556.72
641.86	553.20
642.20	550.11
642.55	546.43
642.89	542.67
643.23	539.20
643.58	536.07
643.92	532.35
644.26	528.88
644.61	525.66
644.95	522.37
645.29	519.00
645.64	516.04
645.98	512.95
646.32	510.15
646.66	506.91
647.01	504.00
647.35	501.15
647.69	498.08
648.04	495.25
648.38	492.40
648.72	489.63
649.06	486.46
649.41	483.19
649.75	480.20
650.09	477.41
650.43	474.38
650.78	471.39
651.12	468.61
651.46	465.82
651.80	463.07
652.14	460.45
652.49	457.98
652.83	455.42
653.17	452.80
653.51	449.99
653.85	447.74
654.20	445.18
654.54	442.58
654.88	440.01
655.22	437.61
655.56	435.18
655.90	432.77
656.25	430.61
656.59	428.49
656.93	426.22
657.27	424.26
657.61	421.93
657.95	419.58
658.29	417.37
658.64	415.30
658.98	412.92
659.32	410.59
659.66	408.45
660.00	406.15
660.34	404.02
660.68	402.02
661.02	399.80
661.36	397.82
661.70	395.76
662.05	393.85
662.39	391.90
662.73	390.12
663.07	388.50
663.41	386.57
663.75	384.56
664.09	382.70
664.43	380.66
664.77	378.99
665.11	377.12
665.45	375.40
665.79	373.66
666.13	371.91
666.47	370.22
666.81	368.42
667.15	366.79
667.49	365.30
667.83	364.04
668.17	362.53
668.51	361.01
668.85	359.68
669.19	358.60
669.53	357.03
669.87	355.47
670.21	353.97
670.55	352.58
670.89	351.55
671.23	350.13
671.57	348.73
671.91	347.32
672.25	346.09
672.58	344.95
672.92	343.54
673.26	342.34
673.60	341.14
673.94	340.01
674.28	338.89
674.62	337.70
674.96	336.32
675.30	335.19
675.64	333.97
675.97	332.67
676.31	331.34
676.65	330.12
676.99	329.08
677.33	327.86
677.67	326.76
678.01	325.34
678.34	324.39
678.68	323.38
679.02	322.27
679.36	321.24
679.70	320.07
680.04	319.24
680.37	318.13
680.71	317.22
681.05	316.32
681.39	315.43
681.73	314.50
682.06	313.60
682.40	312.71
682.74	311.94
683.08	311.25
683.42	310.23
683.75	309.52
684.09	308.58
684.43	307.71
684.77	306.92
685.10	306.23
685.44	305.38
685.78	304.58
686.12	303.87
686.45	303.04
686.79	302.22
687.13	301.39
687.46	300.75
687.80	300.06
688.14	299.19
688.48	298.41
688.81	297.61
689.15	296.91
689.49	296.11
689.82	295.41
690.16	294.53
690.50	293.87
690.83	293.10
691.17	292.36
691.51	291.68
691.84	291.00
692.18	290.29
692.52	289.57
692.85	288.98
693.19	288.53
693.52	288.00
693.86	287.34
694.20	286.72
694.53	286.14
694.87	285.43
695.21	284.80
695.54	284.23
695.88	283.52
696.21	282.73
696.55	282.28
696.88	281.60
697.22	280.99
697.56	280.50
697.89	279.90
698.23	279.43
698.56	278.88
698.90	278.39
699.23	277.82
699.57	277.29
699.90	276.70
700.24	276.05
700.58	275.59
700.91	275.26
701.25	275.14
701.58	274.94
701.92	274.61
702.25	274.17
702.59	273.71
702.92	273.37
703.26	273.12
703.59	272.61
703.93	272.60
704.26	272.28
704.60	271.89
704.93	271.42
705.26	270.94
705.60	270.46
705.93	269.91
706.27	269.67
706.60	269.54
706.94	269.38
707.27	268.93
707.61	268.63
707.94	268.18
708.27	267.47
708.61	266.86
708.94	266.40
709.28	266.05
709.61	265.61
709.94	265.28
710.28	264.76
710.61	264.34
710.95	263.53
711.28	263.44
711.61	262.94
711.95	262.64
712.28	262.27
712.61	262.00
712.95	262.04
713.28	261.83
713.61	261.30
713.95	260.76
714.28	260.47
714.61	260.00
714.95	259.71
715.28	259.27
715.61	258.91
715.95	258.53
716.28	258.14
716.61	257.89
716.95	257.53
717.28	257.27
717.61	256.98
717.94	256.70
718.28	256.07
718.61	255.85
718.94	255.59
719.27	255.34
719.61	255.15
719.94	254.70
720.27	254.19
720.60	253.92
720.94	253.72
721.27	253.50
721.60	253.41
721.93	253.06
722.27	253.01
722.60	252.82
722.93	252.63
723.26	252.50
723.59	252.21
723.93	252.05
724.26	251.90
724.59	251.73
724.92	251.54
725.25	251.54
725.59	251.25
725.92	251.11
726.25	250.97
726.58	250.73
726.91	250.56
727.24	250.49
727.57	250.29
727.91	250.03
728.24	249.93
728.57	249.70
728.90	249.61
729.23	249.32
729.56	249.34
729.89	249.12
730.22	248.93
730.55	248.76
730.89	248.65
731.22	248.36
731.55	248.17
731.88	248.04
732.21	247.65
732.54	247.51
732.87	247.38
733.20	247.19
733.53	247.08
733.86	246.87
734.19	246.55
734.52	246.43
734.85	246.61
735.18	246.27
735.51	246.17
735.84	246.06
736.17	245.97
736.50	245.53
736.83	245.99
737.16	245.89
737.49	245.74
737.82	245.46
738.15	245.48
738.48	245.35
738.81	245.20
739.14	245.09
739.47	244.95
739.80	244.61
740.13	244.51
740.46	244.19
740.79	243.98
741.12	243.89
741.45	243.69
741.78	243.18
742.11	243.22
742.44	242.97
742.77	242.85
743.10	242.56
743.43	242.39
743.75	241.73
744.08	242.19
744.41	242.02
744.74	241.83
745.07	241.58
745.40	241.47
745.73	241.49
746.06	241.35
746.39	241.24
746.71	241.20
747.04	240.91
747.37	240.84
747.70	240.86
748.03	240.81
748.36	240.78
748.68	240.70
749.01	240.43
749.34	240.26
749.67	240.12
750.00	240.13
750.33	240.35
750.65	240.29
750.98	239.53
751.31	239.45
751.64	239.39
751.97	239.49
752.29	239.34
752.62	239.02
752.95	238.84
753.28	238.66
753.60	238.45
753.93	238.55
754.26	238.45
754.59	238.15
754.91	237.91
755.24	237.73
755.57	237.71
755.90	237.60
756.22	237.46
756.55	237.31
756.88	237.12
757.20	236.70
757.53	236.45
757.86	236.36
758.19	236.30
758.51	236.24
758.84	235.92
759.17	235.74
759.49	235.70
759.82	235.90
760.15	235.89
760.47	235.84
760.80	235.60
761.13	235.59
761.45	235.55
761.78	235.51
762.11	235.41
762.43	235.21
762.76	235.21
763.08	235.23
763.41	235.18
763.74	235.19
764.06	235.13
764.39	235.01
764.71	234.88
765.04	234.70
765.37	234.59
765.69	234.55
766.02	234.55
766.34	234.44
766.67	234.17
767.00	234.21
767.32	234.46
767.65	234.76
767.97	234.65
768.30	234.60
768.62	234.60
768.95	234.60
769.27	234.58
769.60	234.54
769.92	234.41
770.25	234.24
770.57	234.07
770.90	234.03
771.22	233.98
771.55	234.03
771.87	234.04
772.20	233.97
772.52	234.32
772.85	234.84
773.17	234.79
773.50	234.75
773.82	234.62
774.15	234.29
774.47	233.87
774.80	233.77
775.12	233.69
775.45	233.61
775.77	233.53
776.09	233.48
776.42	233.44
776.74	233.54
777.07	233.49
777.39	233.47
777.72	233.40
778.04	233.44
778.36	233.32
778.69	233.35
779.01	233.31
779.33	232.85
779.66	232.30
779.98	232.22
780.31	232.21
780.63	232.39
780.95	232.41
781.28	232.41
781.60	232.32
781.92	232.33
782.25	232.30
782.57	232.24
782.89	232.17
783.22	232.07
783.54	231.92
783.86	231.90
784.19	231.82
784.51	231.93
784.83	231.78
785.16	231.74
785.48	231.66
785.80	231.68
786.12	231.63
786.45	231.52
786.77	231.54
787.09	231.41
787.42	231.16
787.74	231.20
788.06	231.13
788.38	231.14
788.71	231.02
789.03	230.95
789.35	230.92
789.67	230.88
789.99	230.87
790.32	230.78
790.64	230.90
790.96	231.26
791.28	231.08
791.61	231.04
791.93	231.05
792.25	230.99
792.57	231.29
792.89	231.18
793.21	231.17
793.54	231.03
793.86	230.95
794.18	230.96
794.50	230.77
794.82	230.76
795.14	230.81
795.47	230.91
795.79	230.91
796.11	230.83
796.43	230.73
796.75	230.74
797.07	230.75
797.39	230.62
797.71	230.22
798.04	230.17
798.36	230.22
798.68	230.12
799.00	230.04
799.32	229.75
799.64	229.88
799.96	229.82
800.28	229.90
800.60	229.93
800.92	229.85
801.24	229.83
801.56	229.85
801.89	229.74
802.21	229.67
802.53	229.50
802.85	229.60
803.17	229.78
803.49	229.63
803.81	229.55
804.13	229.49
804.45	229.55
804.77	229.62
805.09	229.56
805.41	229.54
805.73	229.44
806.05	229.30
806.37	229.22
806.69	229.21
807.01	229.18
807.33	229.18
807.65	229.07
807.97	229.32
808.28	229.21
808.60	229.25
808.92	229.20
809.24	229.53
809.56	229.42
809.88	229.33
810.20	229.38
810.52	229.46
810.84	229.41
811.16	229.25
811.48	229.17
811.80	229.36
812.12	229.37
812.43	229.49
812.75	229.55
813.07	229.50
813.39	229.55
813.71	229.54
814.03	229.50
814.35	229.53
814.67	229.26
814.98	229.24
815.30	229.18
815.62	229.10
815.94	228.74
816.26	228.95
816.58	228.87
816.89	228.90
817.21	228.84
817.53	228.83
817.85	228.91
818.17	228.96
818.48	228.78
818.80	228.88
819.12	228.82
819.44	228.71
819.76	228.67
820.07	228.58
820.39	228.48
820.71	228.53
821.03	228.53
821.34	228.49
821.66	228.54
821.98	228.55
822.30	228.56
822.61	228.89
822.93	228.64
823.25	228.61
823.57	228.54
823.88	228.58
824.20	228.58
824.52	228.60
824.83	228.52
825.15	228.44
825.47	228.33
825.79	228.40
826.10	228.36
826.42	228.36
826.74	228.43
827.05	228.40
827.37	228.37
827.69	228.32
828.00	228.37
828.32	228.39
828.64	228.35
828.95	228.56
829.27	228.40
829.58	228.39
829.90	228.43
830.22	228.45
830.53	228.31
830.85	228.28
831.17	228.16
831.48	228.21
831.80	228.27
832.11	228.29
832.43	228.22
832.75	228.26
833.06	228.48
833.38	228.33
833.69	228.37
834.01	228.41
834.32	228.39
834.64	228.39
834.96	228.39
835.27	228.39
835.59	228.19
835.90	228.19
836.22	228.20
836.53	228.06
836.85	227.93
837.16	228.48
837.48	228.45
837.79	228.61
838.11	228.58
838.42	228.54
838.74	228.50
839.05	228.46
839.37	228.48
839.68	228.19
840.00	228.24
840.31	228.21
840.63	228.13
840.94	228.10
841.26	227.99
841.57	227.89
841.88	227.98
842.20	227.90
842.51	227.74
842.83	227.77
843.14	228.24
843.46	228.32
843.77	227.94
844.08	227.95
844.40	227.81
844.71	227.74
845.03	227.66
845.34	227.78
845.65	227.75
845.97	227.67
846.28	227.69
846.60	227.78
846.91	227.80
847.22	227.82
847.54	227.88
847.85	227.95
848.16	228.01
848.48	227.86
848.79	228.10
849.10	228.18
849.42	228.16
849.73	227.70
850.04	227.75
850.36	227.60
850.67	227.69
850.98	227.69
851.30	227.78
851.61	227.78
851.92	227.60
852.23	227.70
852.55	227.75
852.86	227.81
853.17	227.75
853.49	227.80
853.80	227.91
854.11	227.97
854.42	227.95
854.74	227.87
855.05	227.92
855.36	227.68
855.67	227.69
855.99	227.71
856.30	228.26
856.61	228.17
856.92	228.23
857.23	228.18
857.55	228.10
857.86	228.03
858.17	228.16
858.48	228.11
858.79	228.07
859.11	228.11
859.42	228.02
859.73	227.90
860.04	227.92
860.35	227.76
860.66	227.61
860.98	227.62
861.29	227.68
861.60	227.63
861.91	227.70
862.22	227.62
862.53	227.51
862.84	226.99
863.16	227.13
863.47	227.03
863.78	227.05
864.09	227.13
864.40	227.18
864.71	227.14
865.02	227.24
865.33	227.14
865.64	227.03
865.95	227.04
866.27	227.40
866.58	227.28
866.89	227.37
867.20	227.35
867.51	227.30
867.82	227.24
868.13	227.36
868.44	227.25
868.75	227.34
869.06	227.40
869.37	227.40
869.68	227.25
869.99	227.33
870.30	227.30
870.61	227.25
870.92	227.15
871.23	227.08
871.54	227.12
871.85	227.29
872.16	227.39
872.47	227.36
872.78	227.10
873.09	227.23
873.40	227.13
873.71	227.20
874.02	227.19
874.33	227.12
874.64	227.04
874.95	227.18
875.26	227.10
875.56	227.04
875.87	227.08
876.18	227.03
876.49	227.46
876.80	227.39
877.11	227.38
877.42	227.43
877.73	227.45
878.04	227.39
878.35	227.32
878.66	227.33
878.96	227.30
879.27	227.28
879.58	227.25
879.89	227.21
880.20	227.27
880.51	227.26
880.82	227.28
881.12	227.29
881.43	227.14
881.74	227.04
882.05	227.04
882.36	227.08
882.67	227.06
882.97	226.55
883.28	226.55
883.59	226.56
883.90	226.58
884.21	226.69
884.51	226.65
884.82	226.59
885.13	226.53
885.44	226.56
885.74	226.55
886.05	226.47
886.36	226.44
886.67	226.29
886.98	226.55
887.28	226.60
887.59	226.62
887.90	226.65
888.20	226.66
888.51	226.72
888.82	226.56
889.13	226.66
889.43	227.10
889.74	227.05
890.05	226.95
890.35	226.89
890.66	226.77
890.97	226.67
891.28	226.58
891.58	226.60
891.89	226.56
892.20	226.48
892.50	226.53
892.81	226.46
893.12	226.45
893.42	226.19
893.73	226.25
894.04	226.22
894.34	226.26
894.65	226.29
894.95	226.17
895.26	226.27
895.57	226.47
895.87	226.01
896.18	226.16
896.48	226.27
896.79	226.25
897.10	226.25
897.40	226.34
897.71	226.50
898.01	226.44
898.32	226.52
898.63	226.54
898.93	226.48
899.24	226.63
899.54	226.57
899.85	226.61
900.15	226.55
900.46	226.54
900.76	226.59
901.07	226.59
901.38	226.65
901.68	226.62
901.99	226.38
902.29	226.41
902.60	226.31
902.90	226.25
903.21	226.32
903.51	226.26
903.82	226.36
904.12	226.30
904.43	226.33
904.73	226.30
905.03	226.32
905.34	226.81
905.64	226.80
905.95	226.94
906.25	226.92
906.56	226.90
906.86	226.88
907.17	226.85
907.47	226.85
907.77	226.82
908.08	226.79
908.38	226.78
908.69	226.90
908.99	227.07
909.30	227.10
909.60	227.07
909.90	227.19
910.21	227.06
910.51	227.01
910.81	227.02
911.12	227.04
911.42	227.07
911.73	226.56
912.03	226.55
912.33	226.61
912.64	226.54
912.94	226.49
913.24	226.47
913.55	226.44
913.85	226.40
914.15	226.51
914.46	226.59
914.76	226.60
915.06	226.50
915.37	226.35
915.67	226.30
915.97	226.32
916.27	226.22
916.58	226.23
916.88	226.24
917.18	226.27
917.49	226.65
917.79	226.64
918.09	226.72
918.39	226.89
918.70	226.87
919.00	226.93
919.30	227.16
919.60	227.11
919.91	227.02
920.21	227.06
920.51	226.96
920.81	226.92
921.12	226.98
921.42	226.97
921.72	227.03
922.02	227.12
922.32	227.18
922.63	227.21
922.93	227.47
923.23	227.46
923.53	227.39
923.83	226.97
924.13	227.00
924.44	227.00
924.74	227.05
925.04	227.12
925.34	227.11
925.64	226.96
925.94	227.01
926.24	227.32
926.55	227.29
926.85	227.31
927.15	227.34
927.45	227.35
927.75	227.29
928.05	227.33
928.35	227.35
928.65	227.43
928.95	227.49
929.26	227.34
929.56	227.45
929.86	227.47
930.16	227.50
930.46	227.48
930.76	227.53
931.06	227.28
931.36	227.18
931.66	227.33
931.96	227.36
932.26	227.32
932.56	227.15
932.86	227.28
933.16	227.37
933.46	227.29
933.76	227.28
934.06	227.50
934.36	227.60
934.66	227.60
934.96	227.47
935.26	227.50
935.56	227.55
935.86	227.37
936.16	227.35
936.46	227.36
936.76	227.31
937.06	227.25
937.36	227.33
937.66	227.33
937.96	227.23
938.26	227.13
938.56	227.16
938.86	227.16
939.16	227.19
939.46	227.16
939.76	227.23
940.06	227.11
940.35	226.93
940.65	226.68
940.95	226.67
941.25	226.62
941.55	226.52
941.85	226.43
942.15	226.58
942.45	226.78
942.75	226.69
943.04	226.76
943.34	226.84
943.64	226.72
943.94	226.65
944.24	226.68
944.54	226.68
944.84	226.62
945.13	226.52
945.43	226.51
945.73	226.49
946.03	226.44
946.33	226.42
946.62	226.44
946.92	226.46
947.22	226.52
947.52	226.57
947.82	226.55
948.11	226.61
948.41	226.47
948.71	226.31
949.01	226.43
949.31	226.32
949.60	226.23
949.90	226.30
950.20	226.27
950.50	226.24
950.79	226.24
951.09	226.35
951.39	226.38
951.69	226.28
951.98	226.31
952.28	226.27
952.58	226.24
952.87	226.23
953.17	226.25
953.47	226.12
953.76	226.07
954.06	225.96
954.36	225.84
954.66	225.83
954.95	225.89
955.25	225.87
955.55	225.97
955.84	225.88
956.14	225.93
956.44	225.99
956.73	225.90
957.03	225.94
957.32	225.94
957.62	225.91
957.92	226.00
958.21	225.99
958.51	226.60
958.81	226.70
959.10	226.77
959.40	226.88
959.69	226.91
959.99	227.02
960.29	227.10
960.58	227.09
960.88	227.35
961.17	227.28
961.47	227.26
961.76	227.21
962.06	227.28
962.36	227.19
962.65	227.22
962.95	227.28
963.24	227.23
963.54	227.24
963.83	227.24
964.13	227.13
964.42	227.03
964.72	226.58
965.01	226.60
965.31	226.54
965.60	226.40
965.90	226.74
966.19	226.68
966.49	226.70
966.78	226.67
967.08	226.61
967.37	226.65
967.67	226.56
967.96	226.64
968.26	226.72
968.55	226.87
968.85	226.95
969.14	226.87
969.43	226.95
969.73	226.93
970.02	226.92
970.32	226.98
970.61	226.94
970.91	226.82
971.20	226.76
971.49	226.73
971.79	226.84
972.08	226.46
972.38	226.43
972.67	226.40
972.96	226.50
973.26	226.34
973.55	226.43
973.85	226.44
974.14	226.37
974.43	226.37
974.73	226.24
975.02	226.19
975.31	226.23
975.61	226.21
975.90	226.13
976.19	226.09
976.49	226.14
976.78	226.24
977.07	226.29
977.37	226.34
977.66	226.37
977.95	226.28
978.24	226.37
978.54	226.52
978.83	226.51
979.12	226.50
979.42	226.58
979.71	226.57
980.00	226.63
980.29	226.66
980.59	226.60
980.88	226.70
981.17	226.68
981.46	226.64
981.76	226.62
982.05	226.79
982.34	226.80
982.63	226.76
982.93	226.73
983.22	226.79
983.51	226.83
983.80	226.86
984.09	226.95
984.39	226.89
984.68	226.78
984.97	226.78
985.26	226.71
985.55	226.68
985.85	226.53
986.14	226.52
986.43	226.55
986.72	226.48
987.01	226.37
987.30	226.29
987.59	226.31
987.89	226.29
988.18	226.17
988.47	226.15
988.76	226.09
989.05	226.07
989.34	226.05
989.63	226.12
989.92	226.10
990.22	226.02
990.51	225.98
990.80	225.93
991.09	225.93
991.38	225.98
991.67	225.95
991.96	225.93
992.25	225.96
992.54	225.87
992.83	225.83
993.12	225.74
993.41	225.81
993.70	226.03
993.99	226.12
994.28	226.10
994.58	226.19
994.87	226.19
995.16	226.19
995.45	226.12
995.74	225.96
996.03	226.05
996.32	226.11
996.61	226.24
996.90	226.22
997.19	226.25
997.48	226.27
997.77	226.28
998.06	226.33
998.34	226.34
998.63	226.35
998.92	226.42
999.21	226.49
999.50	226.50
999.79	226.29
1000.08	226.25
1000.37	226.30
1000.66	226.17
1000.95	226.25
1001.24	226.19
1001.53	226.29
1001.82	226.28
1002.11	226.17
1002.40	226.18
1002.68	226.32
1002.97	226.65
1003.26	226.57
1003.55	226.49
1003.84	226.59
1004.13	226.71
1004.42	226.65
1004.71	226.66
1004.99	226.62
1005.28	226.72
1005.57	226.64
1005.86	226.64
1006.15	226.64
1006.44	226.63
1006.72	226.70
1007.01	226.57
1007.30	226.65
1007.59	226.59
1007.88	226.55
1008.17	226.49
1008.45	226.46
1008.74	226.19
1009.03	225.98
1009.32	226.07
1009.60	226.07
1009.89	225.95
1010.18	225.75
1010.47	225.71
1010.76	225.66
1011.04	225.69
1011.33	225.83
1011.62	225.92
1011.91	225.98
1012.19	225.99
1012.48	225.97
1012.77	226.02
1013.05	226.32
1013.34	226.21
1013.63	226.19
1013.92	226.24
1014.20	226.25
1014.49	226.19
1014.78	226.24
1015.06	226.13
1015.35	226.08
1015.64	226.15
1015.92	226.19
1016.21	226.27
1016.50	226.28
1016.78	226.34
1017.07	226.35
1017.36	226.14
1017.64	226.11
1017.93	226.15
1018.22	226.13
1018.50	226.07
1018.79	226.07
1019.08	225.80
1019.36	225.96
1019.65	225.93
1019.93	226.02
1020.22	226.08
1020.51	226.32
1020.79	226.26
1021.08	226.30
1021.36	225.05
1021.65	226.25
1021.94	225.60
1022.22	226.95
1022.51	225.50
1022.79	227.70
1023.08	226.55
1023.36	230.60
1023.65	224.40
>>>>>End Processed Spectral Data<<<<<
