SpectraSuite Data File
++++++++++++++++++++++++++++++++++++
Date: Wed Sep 04 17:54:08 EDT 2013
User: lab3
Dark Spectrum Present: Yes
Reference Spectrum Present: No
Number of Sampled Component Spectra: 1
Spectrometers: USB2E7196
Integration Time (usec): 170000 (USB2E7196)
Spectra Averaged: 20 (USB2E7196)
Boxcar Smoothing: 10 (USB2E7196)
Correct for Electrical Dark: No (USB2E7196)
Strobe/Lamp Enabled: No (USB2E7196)
Correct for Detector Non-linearity: No (USB2E7196)
Correct for Stray Light: No (USB2E7196)
Number of Pixels in Processed Spectrum: 2048
>>>>>Begin Processed Spectral Data<<<<<
339.09	0.00
339.48	212.30
339.86	215.10
340.24	217.00
340.63	217.65
341.01	227.75
341.39	219.80
341.78	221.50
342.16	223.90
342.54	223.05
342.93	212.37
343.31	223.09
343.69	223.67
344.07	224.09
344.46	224.56
344.84	224.99
345.22	224.85
345.60	225.15
345.99	225.36
346.37	225.41
346.75	225.48
347.13	225.63
347.52	225.64
347.90	225.76
348.28	225.80
348.66	225.91
349.05	225.80
349.43	225.88
349.81	225.89
350.19	226.01
350.57	226.07
350.96	226.18
351.34	226.24
351.72	226.34
352.10	226.39
352.48	226.43
352.87	226.41
353.25	226.52
353.63	226.54
354.01	226.60
354.39	226.69
354.77	226.75
355.15	226.90
355.54	226.95
355.92	226.91
356.30	226.96
356.68	227.30
357.06	227.36
357.44	227.31
357.82	227.42
358.20	227.84
358.58	227.84
358.97	227.90
359.35	228.13
359.73	228.26
360.11	228.39
360.49	228.44
360.87	228.47
361.25	228.59
361.63	228.72
362.01	228.83
362.39	228.92
362.77	229.09
363.15	229.13
363.53	229.24
363.91	229.30
364.29	229.40
364.67	229.00
365.05	229.02
365.43	229.18
365.81	229.20
366.19	229.09
366.57	229.41
366.95	229.44
367.33	229.30
367.71	229.30
368.09	229.43
368.47	229.39
368.85	229.44
369.23	229.50
369.61	229.45
369.99	229.57
370.37	229.64
370.75	229.78
371.13	229.64
371.51	229.48
371.89	229.50
372.27	229.43
372.65	229.46
373.03	229.41
373.41	229.37
373.78	229.33
374.16	228.99
374.54	228.70
374.92	228.64
375.30	228.58
375.68	228.48
376.06	228.45
376.44	228.38
376.82	228.33
377.19	228.24
377.57	228.13
377.95	227.85
378.33	227.72
378.71	227.45
379.09	227.48
379.47	227.55
379.84	227.47
380.22	227.36
380.60	227.16
380.98	227.07
381.36	226.93
381.73	226.80
382.11	226.89
382.49	226.82
382.87	226.68
383.25	226.64
383.62	227.10
384.00	226.89
384.38	226.91
384.76	226.92
385.13	227.05
385.51	226.93
385.89	226.89
386.27	226.79
386.64	226.74
387.02	226.68
387.40	226.50
387.78	226.48
388.15	226.55
388.53	226.53
388.91	226.51
389.29	226.49
389.66	226.57
390.04	226.46
390.42	226.54
390.79	226.56
391.17	226.57
391.55	226.08
391.92	226.05
392.30	226.01
392.68	225.92
393.05	225.88
393.43	225.99
393.81	226.00
394.18	226.03
394.56	226.14
394.94	226.21
395.31	226.29
395.69	226.39
396.06	226.48
396.44	226.57
396.82	226.61
397.19	226.86
397.57	226.78
397.95	226.88
398.32	226.81
398.70	226.93
399.07	227.07
399.45	227.05
399.82	227.20
400.20	227.25
400.58	227.36
400.95	227.25
401.33	227.43
401.70	227.88
402.08	227.98
402.45	228.04
402.83	228.34
403.20	228.48
403.58	228.66
403.95	228.82
404.33	229.04
404.71	229.26
405.08	229.70
405.46	230.03
405.83	230.32
406.21	230.59
406.58	230.90
406.96	231.20
407.33	231.64
407.70	231.98
408.08	232.69
408.45	233.18
408.83	233.72
409.20	234.05
409.58	234.20
409.95	234.74
410.33	235.36
410.70	235.63
411.08	236.24
411.45	236.79
411.82	237.36
412.20	238.22
412.57	239.20
412.95	239.55
413.32	240.41
413.69	241.28
414.07	242.28
414.44	243.27
414.82	244.30
415.19	245.44
415.56	246.69
415.94	247.73
416.31	249.14
416.68	250.49
417.06	252.23
417.43	253.89
417.81	255.77
418.18	257.62
418.55	259.60
418.93	261.71
419.30	263.85
419.67	266.06
420.04	268.32
420.42	270.61
420.79	273.68
421.16	276.41
421.54	279.40
421.91	282.39
422.28	285.46
422.66	288.68
423.03	292.15
423.40	295.44
423.77	298.93
424.15	302.43
424.52	306.22
424.89	310.36
425.26	314.33
425.64	317.95
426.01	322.05
426.38	326.43
426.75	330.94
427.13	335.40
427.50	340.20
427.87	345.03
428.24	349.90
428.61	354.40
428.99	359.75
429.36	365.15
429.73	370.48
430.10	375.89
430.47	381.61
430.85	387.28
431.22	393.39
431.59	400.17
431.96	406.52
432.33	413.41
432.70	419.98
433.08	427.87
433.45	435.31
433.82	442.59
434.19	450.79
434.56	458.87
434.93	466.63
435.30	474.29
435.68	482.87
436.05	491.30
436.42	499.65
436.79	507.27
437.16	515.57
437.53	524.48
437.90	533.22
438.27	541.72
438.64	550.60
439.01	558.79
439.38	566.05
439.75	573.14
440.13	581.10
440.50	588.71
440.87	594.70
441.24	601.08
441.61	608.13
441.98	613.06
442.35	618.84
442.72	624.76
443.09	630.55
443.46	633.92
443.83	636.26
444.20	638.25
444.57	641.03
444.94	642.07
445.31	643.12
445.68	644.51
446.05	644.68
446.42	643.23
446.79	641.90
447.16	640.30
447.53	639.05
447.90	635.38
448.27	631.60
448.64	626.60
449.01	622.89
449.37	616.75
449.74	610.82
450.11	603.97
450.48	596.26
450.85	588.37
451.22	581.52
451.59	574.88
451.96	568.55
452.33	560.40
452.70	553.19
453.07	544.53
453.43	535.35
453.80	527.01
454.17	519.11
454.54	511.50
454.91	503.25
455.28	495.17
455.65	487.85
456.02	480.99
456.38	474.71
456.75	466.93
457.12	460.39
457.49	454.10
457.86	447.70
458.23	442.60
458.59	436.87
458.96	431.10
459.33	426.03
459.70	420.85
460.07	416.71
460.43	412.03
460.80	407.89
461.17	404.25
461.54	400.22
461.91	396.31
462.27	392.42
462.64	389.06
463.01	385.62
463.38	382.30
463.74	378.28
464.11	375.40
464.48	372.87
464.85	370.01
465.21	367.80
465.58	365.53
465.95	362.68
466.32	360.49
466.68	358.23
467.05	356.04
467.42	353.92
467.78	351.66
468.15	349.56
468.52	347.82
468.88	345.55
469.25	343.63
469.62	342.23
469.98	340.65
470.35	339.16
470.72	337.65
471.08	335.87
471.45	334.68
471.82	333.40
472.18	331.86
472.55	330.85
472.92	329.57
473.28	328.42
473.65	327.34
474.02	326.25
474.38	325.43
474.75	324.68
475.11	323.89
475.48	323.27
475.85	322.55
476.21	321.93
476.58	321.52
476.94	321.10
477.31	320.71
477.67	320.25
478.04	320.04
478.41	319.94
478.77	320.23
479.14	319.95
479.50	319.88
479.87	319.93
480.23	319.97
480.60	319.97
480.96	319.95
481.33	320.32
481.69	320.60
482.06	320.82
482.42	321.02
482.79	321.30
483.15	321.70
483.52	322.37
483.88	322.78
484.25	323.37
484.61	324.05
484.98	324.65
485.34	325.61
485.71	326.53
486.07	327.43
486.44	327.99
486.80	329.09
487.17	330.24
487.53	331.60
487.90	332.98
488.26	334.66
488.62	336.44
488.99	337.93
489.35	339.60
489.72	341.40
490.08	343.49
490.44	345.63
490.81	347.94
491.17	350.16
491.54	352.76
491.90	355.23
492.26	357.82
492.63	360.66
492.99	363.48
493.36	366.59
493.72	369.82
494.08	373.37
494.45	376.97
494.81	380.89
495.17	384.69
495.54	388.77
495.90	392.98
496.26	397.35
496.63	401.90
496.99	406.71
497.35	411.79
497.72	417.00
498.08	422.41
498.44	427.96
498.80	433.91
499.17	439.85
499.53	446.11
499.89	452.90
500.26	459.71
500.62	466.65
500.98	474.04
501.34	481.58
501.71	489.31
502.07	497.24
502.43	505.22
502.79	513.69
503.16	522.41
503.52	531.41
503.88	540.66
504.24	550.40
504.60	560.37
504.97	570.71
505.33	581.04
505.69	592.25
506.05	603.33
506.41	614.64
506.78	626.33
507.14	638.36
507.50	650.70
507.86	663.16
508.22	676.12
508.59	689.06
508.95	702.67
509.31	716.56
509.67	730.90
510.03	745.11
510.39	759.71
510.75	774.71
511.12	790.01
511.48	805.46
511.84	821.25
512.20	837.23
512.56	853.35
512.92	870.26
513.28	886.70
513.64	903.97
514.00	921.35
514.37	939.19
514.73	957.21
515.09	975.60
515.45	994.01
515.81	1012.23
516.17	1030.98
516.53	1049.49
516.89	1068.28
517.25	1087.35
517.61	1107.56
517.97	1127.82
518.33	1147.94
518.69	1167.93
519.05	1188.54
519.41	1209.07
519.77	1229.90
520.13	1250.80
520.49	1271.45
520.85	1293.77
521.21	1314.56
521.57	1335.73
521.93	1356.32
522.29	1377.40
522.65	1397.70
523.01	1418.83
523.37	1439.73
523.73	1460.74
524.09	1481.53
524.45	1502.37
524.81	1523.50
525.17	1544.18
525.53	1564.92
525.89	1585.81
526.25	1606.74
526.61	1626.90
526.97	1648.06
527.33	1669.20
527.68	1690.70
528.04	1711.82
528.40	1731.44
528.76	1752.52
529.12	1773.23
529.48	1794.30
529.84	1814.47
530.20	1835.77
530.56	1856.31
530.91	1877.24
531.27	1897.66
531.63	1918.19
531.99	1938.50
532.35	1958.61
532.71	1978.56
533.07	1999.29
533.42	2018.90
533.78	2038.59
534.14	2058.59
534.50	2077.54
534.86	2096.76
535.21	2114.17
535.57	2132.37
535.93	2150.05
536.29	2167.84
536.65	2186.20
537.00	2203.85
537.36	2221.39
537.72	2237.77
538.08	2254.90
538.44	2271.55
538.79	2287.78
539.15	2304.01
539.51	2320.06
539.87	2335.10
540.22	2349.32
540.58	2363.43
540.94	2376.75
541.29	2389.66
541.65	2402.08
542.01	2414.46
542.37	2424.80
542.72	2436.10
543.08	2447.06
543.44	2458.72
543.79	2468.47
544.15	2477.98
544.51	2487.62
544.87	2497.40
545.22	2505.87
545.58	2513.65
545.94	2520.89
546.29	2527.35
546.65	2533.77
547.01	2539.48
547.36	2544.82
547.72	2550.25
548.07	2554.05
548.43	2559.57
548.79	2564.34
549.14	2568.53
549.50	2572.27
549.86	2576.36
550.21	2580.22
550.57	2583.37
550.92	2584.55
551.28	2586.04
551.64	2588.25
551.99	2590.20
552.35	2591.41
552.70	2593.54
553.06	2595.19
553.41	2596.18
553.77	2597.72
554.13	2599.18
554.48	2600.67
554.84	2602.03
555.19	2603.03
555.55	2604.51
555.90	2603.60
556.26	2602.61
556.61	2600.97
556.97	2598.78
557.32	2598.00
557.68	2596.20
558.03	2594.76
558.39	2593.57
558.74	2592.80
559.10	2589.42
559.45	2585.72
559.81	2581.24
560.16	2576.25
560.52	2570.75
560.87	2566.30
561.23	2561.08
561.58	2555.29
561.94	2548.24
562.29	2540.84
562.64	2533.88
563.00	2525.56
563.35	2518.86
563.71	2512.09
564.06	2506.02
564.42	2499.58
564.77	2492.70
565.12	2485.51
565.48	2477.90
565.83	2469.91
566.19	2461.75
566.54	2453.65
566.89	2445.73
567.25	2437.96
567.60	2430.64
567.96	2423.66
568.31	2415.93
568.66	2407.55
569.02	2398.36
569.37	2390.35
569.72	2383.06
570.08	2373.80
570.43	2364.76
570.78	2355.97
571.14	2346.35
571.49	2336.01
571.84	2326.17
572.20	2315.61
572.55	2305.52
572.90	2294.48
573.26	2284.20
573.61	2273.05
573.96	2262.16
574.31	2249.83
574.67	2238.04
575.02	2225.30
575.37	2212.59
575.72	2199.27
576.08	2186.95
576.43	2174.48
576.78	2161.12
577.13	2147.03
577.49	2134.28
577.84	2122.42
578.19	2110.18
578.54	2097.63
578.90	2085.65
579.25	2073.69
579.60	2061.01
579.95	2048.08
580.30	2034.97
580.66	2021.63
581.01	2008.32
581.36	1994.43
581.71	1981.97
582.06	1969.36
582.42	1956.86
582.77	1943.96
583.12	1932.12
583.47	1919.92
583.82	1907.85
584.17	1895.66
584.53	1883.98
584.88	1871.17
585.23	1857.85
585.58	1843.73
585.93	1830.74
586.28	1817.43
586.63	1803.34
586.98	1789.29
587.34	1776.04
587.69	1762.82
588.04	1750.38
588.39	1738.36
588.74	1726.28
589.09	1714.58
589.44	1701.75
589.79	1689.61
590.14	1677.96
590.49	1665.70
590.84	1653.57
591.19	1641.68
591.54	1629.89
591.89	1617.80
592.25	1607.71
592.60	1595.95
592.95	1584.34
593.30	1572.25
593.65	1560.34
594.00	1548.57
594.35	1538.67
594.70	1526.75
595.05	1515.50
595.40	1503.33
595.75	1491.39
596.10	1480.13
596.45	1468.33
596.80	1457.45
597.15	1446.08
597.50	1434.22
597.85	1422.93
598.19	1411.11
598.54	1399.65
598.89	1388.42
599.24	1377.92
599.59	1366.41
599.94	1355.87
600.29	1345.65
600.64	1335.64
600.99	1325.19
601.34	1315.53
601.69	1304.40
602.04	1294.66
602.39	1284.98
602.74	1275.72
603.08	1266.35
603.43	1257.23
603.78	1247.69
604.13	1238.24
604.48	1228.54
604.83	1218.91
605.18	1208.85
605.53	1199.79
605.87	1190.41
606.22	1181.85
606.57	1172.49
606.92	1162.93
607.27	1154.07
607.62	1145.36
607.96	1136.80
608.31	1128.81
608.66	1120.44
609.01	1112.06
609.36	1103.60
609.70	1095.00
610.05	1086.60
610.40	1078.19
610.75	1069.27
611.10	1060.92
611.44	1052.27
611.79	1044.26
612.14	1036.40
612.49	1028.91
612.83	1021.36
613.18	1013.77
613.53	1005.98
613.88	998.15
614.22	990.55
614.57	982.51
614.92	974.68
615.27	967.14
615.61	959.37
615.96	951.80
616.31	944.22
616.65	937.28
617.00	930.13
617.35	922.89
617.70	915.93
618.04	908.95
618.39	901.96
618.74	895.66
619.08	888.87
619.43	881.89
619.78	874.89
620.12	867.75
620.47	860.82
620.82	853.64
621.16	846.79
621.51	840.39
621.85	834.24
622.20	827.56
622.55	820.98
622.89	814.65
623.24	808.36
623.59	802.16
623.93	795.79
624.28	789.68
624.62	784.19
624.97	778.17
625.32	772.38
625.66	766.40
626.01	760.45
626.35	754.87
626.70	749.35
627.04	743.90
627.39	738.25
627.73	732.99
628.08	727.96
628.43	722.57
628.77	717.24
629.12	712.14
629.46	707.45
629.81	702.83
630.15	698.00
630.50	693.14
630.84	688.31
631.19	683.58
631.53	678.83
631.88	673.44
632.22	668.75
632.57	664.24
632.91	659.73
633.26	655.10
633.60	650.46
633.95	645.86
634.29	641.14
634.64	636.89
634.98	632.10
635.32	627.53
635.67	623.54
636.01	619.36
636.36	615.02
636.70	610.90
637.05	606.53
637.39	602.33
637.73	598.13
638.08	594.20
638.42	590.16
638.77	585.91
639.11	581.63
639.45	577.17
639.80	572.83
640.14	568.75
640.49	564.77
640.83	560.96
641.17	557.33
641.52	553.70
641.86	550.08
642.20	547.13
642.55	543.67
642.89	540.05
643.23	536.50
643.58	533.33
643.92	529.61
644.26	526.25
644.61	523.11
644.95	519.78
645.29	516.28
645.64	513.16
645.98	510.19
646.32	507.31
646.66	504.20
647.01	501.38
647.35	498.67
647.69	495.76
648.04	493.04
648.38	490.20
648.72	487.39
649.06	484.29
649.41	481.03
649.75	478.06
650.09	475.28
650.43	472.45
650.78	469.43
651.12	466.62
651.46	463.88
651.80	461.04
652.14	458.47
652.49	456.02
652.83	453.36
653.17	450.73
653.51	448.06
653.85	445.86
654.20	443.36
654.54	440.66
654.88	438.18
655.22	435.91
655.56	433.45
655.90	431.18
656.25	429.04
656.59	426.83
656.93	424.69
657.27	422.55
657.61	420.15
657.95	417.97
658.29	415.87
658.64	413.75
658.98	411.59
659.32	409.31
659.66	407.08
660.00	405.01
660.34	402.92
660.68	400.87
661.02	398.80
661.36	396.88
661.70	395.00
662.05	393.13
662.39	391.08
662.73	389.33
663.07	387.66
663.41	385.79
663.75	383.99
664.09	382.13
664.43	380.25
664.77	378.55
665.11	376.80
665.45	375.14
665.79	373.42
666.13	371.69
666.47	370.06
666.81	368.39
667.15	366.55
667.49	365.06
667.83	363.72
668.17	362.19
668.51	360.80
668.85	359.48
669.19	358.20
669.53	356.65
669.87	355.10
670.21	353.57
670.55	352.12
670.89	350.96
671.23	349.54
671.57	348.21
671.91	347.00
672.25	345.65
672.58	344.47
672.92	343.05
673.26	341.84
673.60	340.60
673.94	339.45
674.28	338.48
674.62	337.30
674.96	335.95
675.30	334.79
675.64	333.49
675.97	332.20
676.31	330.93
676.65	329.65
676.99	328.67
677.33	327.42
677.67	326.38
678.01	325.05
678.34	324.04
678.68	323.08
679.02	321.85
679.36	320.83
679.70	319.74
680.04	318.85
680.37	317.83
680.71	316.92
681.05	316.04
681.39	315.08
681.73	314.19
682.06	313.33
682.40	312.40
682.74	311.54
683.08	310.71
683.42	309.71
683.75	309.04
684.09	308.09
684.43	307.33
684.77	306.39
685.10	305.59
685.44	304.81
685.78	303.91
686.12	303.20
686.45	302.42
686.79	301.71
687.13	301.08
687.46	300.40
687.80	299.74
688.14	298.84
688.48	298.02
688.81	297.25
689.15	296.63
689.49	295.90
689.82	295.17
690.16	294.34
690.50	293.70
690.83	292.93
691.17	292.16
691.51	291.43
691.84	290.89
692.18	290.21
692.52	289.44
692.85	288.85
693.19	288.45
693.52	287.79
693.86	287.04
694.20	286.31
694.53	285.69
694.87	284.93
695.21	284.43
695.54	283.84
695.88	283.12
696.21	282.40
696.55	281.91
696.88	281.35
697.22	280.75
697.56	280.22
697.89	279.60
698.23	279.16
698.56	278.59
698.90	278.08
699.23	277.48
699.57	277.02
699.90	276.37
700.24	275.63
700.58	275.15
700.91	274.79
701.25	274.62
701.58	274.50
701.92	274.17
702.25	273.67
702.59	273.15
702.92	272.83
703.26	272.39
703.59	271.87
703.93	271.77
704.26	271.40
704.60	270.96
704.93	270.60
705.26	270.06
705.60	269.74
705.93	269.27
706.27	269.07
706.60	268.78
706.94	268.62
707.27	268.21
707.61	267.84
707.94	267.42
708.27	266.68
708.61	265.79
708.94	265.34
709.28	264.98
709.61	264.60
709.94	264.20
710.28	263.83
710.61	263.39
710.95	262.64
711.28	262.54
711.61	262.18
711.95	261.87
712.28	261.51
712.61	261.15
712.95	261.02
713.28	260.82
713.61	260.35
713.95	259.87
714.28	259.55
714.61	259.16
714.95	258.73
715.28	258.31
715.61	258.08
715.95	257.71
716.28	257.21
716.61	256.93
716.95	256.47
717.28	256.15
717.61	255.84
717.94	255.48
718.28	254.83
718.61	254.46
718.94	254.10
719.27	253.85
719.61	253.55
719.94	253.10
720.27	252.59
720.60	252.28
720.94	252.05
721.27	251.81
721.60	251.69
721.93	251.40
722.27	251.36
722.60	251.31
722.93	251.10
723.26	250.93
723.59	250.65
723.93	250.54
724.26	250.34
724.59	250.15
724.92	250.05
725.25	250.05
725.59	249.93
725.92	249.80
726.25	249.67
726.58	249.48
726.91	249.31
727.24	249.24
727.57	249.08
727.91	248.82
728.24	248.73
728.57	248.47
728.90	248.42
729.23	248.18
729.56	248.09
729.89	247.96
730.22	247.79
730.55	247.66
730.89	247.50
731.22	247.34
731.55	247.22
731.88	247.03
732.21	246.80
732.54	246.61
732.87	246.39
733.20	246.18
733.53	246.12
733.86	245.99
734.19	245.72
734.52	245.65
734.85	245.80
735.18	245.58
735.51	245.63
735.84	245.53
736.17	245.53
736.50	245.13
736.83	245.54
737.16	245.51
737.49	245.39
737.82	245.25
738.15	245.17
738.48	244.98
738.81	244.85
739.14	244.59
739.47	244.37
739.80	244.31
740.13	244.22
740.46	243.97
740.79	243.79
741.12	243.59
741.45	243.44
741.78	243.09
742.11	243.05
742.44	242.76
742.77	242.65
743.10	242.42
743.43	242.25
743.75	241.58
744.08	241.98
744.41	241.80
744.74	241.66
745.07	241.43
745.40	241.33
745.73	241.40
746.06	241.34
746.39	241.27
746.71	241.06
747.04	240.91
747.37	240.72
747.70	240.70
748.03	240.66
748.36	240.53
748.68	240.40
749.01	240.12
749.34	239.99
749.67	239.92
750.00	239.80
750.33	240.10
750.65	239.97
750.98	239.34
751.31	239.23
751.64	239.08
751.97	239.26
752.29	239.10
752.62	238.73
752.95	238.57
753.28	238.43
753.60	238.31
753.93	238.32
754.26	238.32
754.59	238.08
754.91	237.92
755.24	237.75
755.57	237.57
755.90	237.44
756.22	237.26
756.55	237.06
756.88	236.83
757.20	236.34
757.53	236.18
757.86	236.01
758.19	236.06
758.51	235.95
758.84	235.56
759.17	235.46
759.49	235.45
759.82	235.63
760.15	235.61
760.47	235.50
760.80	235.20
761.13	235.14
761.45	235.00
761.78	234.89
762.11	234.85
762.43	234.68
762.76	234.63
763.08	234.65
763.41	234.52
763.74	234.44
764.06	234.40
764.39	234.31
764.71	234.22
765.04	234.05
765.37	233.98
765.69	233.90
766.02	233.84
766.34	233.68
766.67	233.42
767.00	233.37
767.32	233.61
767.65	233.91
767.97	233.79
768.30	233.81
768.62	233.78
768.95	233.69
769.27	233.65
769.60	233.69
769.92	233.59
770.25	233.48
770.57	233.43
770.90	233.33
771.22	233.19
771.55	233.18
771.87	233.08
772.20	233.00
772.52	233.43
772.85	233.93
773.17	233.93
773.50	233.83
773.82	233.72
774.15	233.47
774.47	233.14
774.80	233.02
775.12	232.91
775.45	232.92
775.77	232.93
776.09	232.99
776.42	232.89
776.74	232.99
777.07	232.95
777.39	232.95
777.72	232.98
778.04	233.07
778.36	233.01
778.69	232.96
779.01	232.92
779.33	232.42
779.66	231.79
779.98	231.70
780.31	231.65
780.63	231.80
780.95	231.78
781.28	231.71
781.60	231.66
781.92	231.68
782.25	231.59
782.57	231.55
782.89	231.47
783.22	231.43
783.54	231.36
783.86	231.34
784.19	231.28
784.51	231.38
784.83	231.24
785.16	231.18
785.48	231.17
785.80	231.17
786.12	231.15
786.45	231.17
786.77	231.20
787.09	231.20
787.42	231.05
787.74	230.99
788.06	230.89
788.38	230.82
788.71	230.72
789.03	230.63
789.35	230.62
789.67	230.51
789.99	230.48
790.32	230.33
790.64	230.38
790.96	230.68
791.28	230.45
791.61	230.37
791.93	230.37
792.25	230.25
792.57	230.60
792.89	230.50
793.21	230.51
793.54	230.41
793.86	230.31
794.18	230.26
794.50	230.17
794.82	230.19
795.14	230.23
795.47	230.35
795.79	230.42
796.11	230.25
796.43	230.24
796.75	230.21
797.07	230.12
797.39	230.05
797.71	229.67
798.04	229.69
798.36	229.66
798.68	229.63
799.00	229.73
799.32	229.37
799.64	229.50
799.96	229.46
800.28	229.50
800.60	229.53
800.92	229.60
801.24	229.55
801.56	229.65
801.89	229.61
802.21	229.59
802.53	229.45
802.85	229.58
803.17	229.79
803.49	229.65
803.81	229.69
804.13	229.63
804.45	229.64
804.77	229.70
805.09	229.77
805.41	229.68
805.73	229.55
806.05	229.47
806.37	229.40
806.69	229.37
807.01	229.36
807.33	229.32
807.65	229.13
807.97	229.31
808.28	229.18
808.60	229.15
808.92	229.01
809.24	229.32
809.56	229.24
809.88	229.12
810.20	229.18
810.52	229.19
810.84	229.20
811.16	229.10
811.48	228.99
811.80	229.13
812.12	229.11
812.43	229.19
812.75	229.21
813.07	229.15
813.39	229.17
813.71	229.06
814.03	229.05
814.35	229.06
814.67	228.92
814.98	228.85
815.30	228.82
815.62	228.77
815.94	228.40
816.26	228.58
816.58	228.45
816.89	228.51
817.21	228.43
817.53	228.44
817.85	228.46
818.17	228.44
818.48	228.24
818.80	228.33
819.12	228.26
819.44	228.18
819.76	228.05
820.07	228.04
820.39	228.00
820.71	228.03
821.03	228.01
821.34	227.97
821.66	228.09
821.98	228.10
822.30	228.12
822.61	228.48
822.93	228.22
823.25	228.17
823.57	228.07
823.88	228.18
824.20	228.15
824.52	228.26
824.83	228.22
825.15	228.18
825.47	228.13
825.79	228.15
826.10	228.14
826.42	228.21
826.74	228.18
827.05	228.15
827.37	228.09
827.69	227.97
828.00	227.99
828.32	227.94
828.64	227.85
828.95	228.06
829.27	227.87
829.58	227.92
829.90	228.01
830.22	228.03
830.53	227.90
830.85	227.86
831.17	227.67
831.48	227.68
831.80	227.66
832.11	227.63
832.43	227.51
832.75	227.50
833.06	227.79
833.38	227.64
833.69	227.68
834.01	227.71
834.32	227.76
834.64	227.70
834.96	227.74
835.27	227.79
835.59	227.58
835.90	227.53
836.22	227.47
836.53	227.36
836.85	227.34
837.16	227.74
837.48	227.64
837.79	227.83
838.11	227.85
838.42	227.86
838.74	227.89
839.05	227.94
839.37	227.88
839.68	227.47
840.00	227.47
840.31	227.47
840.63	227.42
840.94	227.45
841.26	227.40
841.57	227.30
841.88	227.31
842.20	227.26
842.51	227.14
842.83	227.12
843.14	227.53
843.46	227.51
843.77	227.28
844.08	227.36
844.40	227.15
844.71	227.05
845.03	227.05
845.34	227.02
845.65	227.04
845.97	227.05
846.28	227.20
846.60	227.25
846.91	227.25
847.22	227.19
847.54	227.25
847.85	227.24
848.16	227.20
848.48	227.05
848.79	227.24
849.10	227.25
849.42	227.33
849.73	226.91
850.04	226.88
850.36	226.75
850.67	226.70
850.98	226.76
851.30	226.83
851.61	226.77
851.92	226.79
852.23	226.86
852.55	226.96
852.86	226.85
853.17	226.87
853.49	226.94
853.80	227.10
854.11	227.10
854.42	227.22
854.74	227.25
855.05	227.35
855.36	227.10
855.67	227.15
855.99	227.09
856.30	227.71
856.61	227.71
856.92	227.64
857.23	227.70
857.55	227.65
857.86	227.64
858.17	227.76
858.48	227.64
858.79	227.54
859.11	227.52
859.42	227.56
859.73	227.51
860.04	227.47
860.35	227.33
860.66	227.16
860.98	227.12
861.29	227.12
861.60	227.06
861.91	227.22
862.22	227.06
862.53	227.00
862.84	226.32
863.16	226.44
863.47	226.38
863.78	226.34
864.09	226.41
864.40	226.39
864.71	226.40
865.02	226.46
865.33	226.38
865.64	226.33
865.95	226.32
866.27	226.59
866.58	226.61
866.89	226.67
867.20	226.67
867.51	226.52
867.82	226.50
868.13	226.64
868.44	226.55
868.75	226.78
869.06	226.90
869.37	226.95
869.68	226.84
869.99	226.97
870.30	226.96
870.61	227.01
870.92	226.97
871.23	226.91
871.54	227.02
871.85	227.18
872.16	227.18
872.47	227.17
872.78	226.90
873.09	226.94
873.40	226.86
873.71	226.95
874.02	227.03
874.33	227.08
874.64	226.93
874.95	227.10
875.26	226.99
875.56	226.91
875.87	226.95
876.18	226.91
876.49	227.39
876.80	227.39
877.11	227.25
877.42	227.28
877.73	227.34
878.04	227.19
878.35	227.20
878.66	227.29
878.96	227.33
879.27	227.33
879.58	227.26
879.89	227.28
880.20	227.34
880.51	227.40
880.82	227.39
881.12	227.51
881.43	227.34
881.74	227.27
882.05	227.18
882.36	227.23
882.67	227.30
882.97	226.78
883.28	226.74
883.59	226.76
883.90	226.83
884.21	226.82
884.51	226.83
884.82	226.74
885.13	226.73
885.44	226.66
885.74	226.75
886.05	226.72
886.36	226.72
886.67	226.63
886.98	226.86
887.28	226.87
887.59	226.86
887.90	226.91
888.20	226.95
888.51	227.12
888.82	227.00
889.13	227.03
889.43	227.39
889.74	227.34
890.05	227.25
890.35	227.16
890.66	227.09
890.97	226.97
891.28	226.92
891.58	226.92
891.89	226.91
892.20	226.81
892.50	226.76
892.81	226.76
893.12	226.67
893.42	226.33
893.73	226.29
894.04	226.21
894.34	226.25
894.65	226.19
894.95	226.09
895.26	226.09
895.57	226.28
895.87	225.88
896.18	226.00
896.48	226.07
896.79	226.06
897.10	226.10
897.40	226.20
897.71	226.32
898.01	226.22
898.32	226.25
898.63	226.24
898.93	226.28
899.24	226.27
899.54	226.27
899.85	226.21
900.15	226.23
900.46	226.28
900.76	226.26
901.07	226.22
901.38	226.22
901.68	226.33
901.99	226.01
902.29	226.07
902.60	225.93
902.90	225.90
903.21	225.90
903.51	225.86
903.82	225.93
904.12	225.88
904.43	225.91
904.73	225.86
905.03	225.87
905.34	226.35
905.64	226.32
905.95	226.33
906.25	226.49
906.56	226.50
906.86	226.52
907.17	226.49
907.47	226.52
907.77	226.48
908.08	226.34
908.38	226.38
908.69	226.36
908.99	226.53
909.30	226.60
909.60	226.65
909.90	226.72
910.21	226.62
910.51	226.57
910.81	226.57
911.12	226.66
911.42	226.68
911.73	226.17
912.03	226.26
912.33	226.41
912.64	226.25
912.94	226.15
913.24	226.00
913.55	225.98
913.85	226.02
914.15	226.11
914.46	226.24
914.76	226.29
915.06	226.21
915.37	226.14
915.67	226.03
915.97	226.04
916.27	225.90
916.58	225.85
916.88	225.85
917.18	225.83
917.49	226.15
917.79	226.15
918.09	226.23
918.39	226.39
918.70	226.36
919.00	226.43
919.30	226.71
919.60	226.81
919.91	226.82
920.21	226.80
920.51	226.68
920.81	226.64
921.12	226.72
921.42	226.83
921.72	226.84
922.02	226.98
922.32	227.06
922.63	227.09
922.93	227.43
923.23	227.50
923.53	227.52
923.83	227.18
924.13	227.21
924.44	227.24
924.74	227.27
925.04	227.30
925.34	227.33
925.64	227.13
925.94	227.10
926.24	227.30
926.55	227.29
926.85	227.39
927.15	227.40
927.45	227.40
927.75	227.36
928.05	227.34
928.35	227.29
928.65	227.28
928.95	227.35
929.26	227.11
929.56	227.12
929.86	227.17
930.16	227.18
930.46	227.14
930.76	227.06
931.06	226.80
931.36	226.73
931.66	226.78
931.96	226.80
932.26	226.88
932.56	226.75
932.86	226.80
933.16	226.71
933.46	226.65
933.76	226.58
934.06	226.71
934.36	226.95
934.66	226.83
934.96	226.82
935.26	226.78
935.56	226.82
935.86	226.69
936.16	226.63
936.46	226.55
936.76	226.50
937.06	226.50
937.36	226.52
937.66	226.53
937.96	226.51
938.26	226.37
938.56	226.26
938.86	226.25
939.16	226.37
939.46	226.45
939.76	226.47
940.06	226.44
940.35	226.30
940.65	226.05
940.95	226.20
941.25	226.04
941.55	226.05
941.85	226.06
942.15	226.17
942.45	226.25
942.75	226.27
943.04	226.23
943.34	226.35
943.64	226.35
943.94	226.30
944.24	226.25
944.54	226.39
944.84	226.40
945.13	226.29
945.43	226.21
945.73	226.21
946.03	226.19
946.33	226.14
946.62	226.10
946.92	226.11
947.22	226.15
947.52	226.21
947.82	226.26
948.11	226.23
948.41	226.18
948.71	226.00
949.01	225.98
949.31	226.03
949.60	225.90
949.90	225.96
950.20	225.99
950.50	226.01
950.79	226.03
951.09	226.12
951.39	226.12
951.69	226.06
951.98	226.23
952.28	226.19
952.58	226.24
952.87	226.20
953.17	226.28
953.47	226.20
953.76	226.20
954.06	226.06
954.36	225.93
954.66	225.86
954.95	226.08
955.25	226.21
955.55	226.27
955.84	226.22
956.14	226.23
956.44	226.24
956.73	226.16
957.03	226.11
957.32	226.13
957.62	226.13
957.92	226.24
958.21	226.14
958.51	226.75
958.81	226.80
959.10	226.99
959.40	227.08
959.69	227.14
959.99	227.24
960.29	227.31
960.58	227.38
960.88	227.58
961.17	227.51
961.47	227.52
961.76	227.45
962.06	227.61
962.36	227.53
962.65	227.55
962.95	227.59
963.24	227.56
963.54	227.52
963.83	227.56
964.13	227.53
964.42	227.45
964.72	227.01
965.01	226.97
965.31	226.79
965.60	226.65
965.90	226.89
966.19	226.70
966.49	226.70
966.78	226.68
967.08	226.63
967.37	226.58
967.67	226.51
967.96	226.54
968.26	226.46
968.55	226.55
968.85	226.50
969.14	226.47
969.43	226.45
969.73	226.46
970.02	226.41
970.32	226.33
970.61	226.26
970.91	226.11
971.20	226.02
971.49	226.01
971.79	225.99
972.08	225.64
972.38	225.74
972.67	225.67
972.96	225.68
973.26	225.59
973.55	225.71
973.85	225.67
974.14	225.68
974.43	225.76
974.73	225.59
975.02	225.54
975.31	225.53
975.61	225.53
975.90	225.43
976.19	225.38
976.49	225.49
976.78	225.53
977.07	225.54
977.37	225.63
977.66	225.64
977.95	225.64
978.24	225.63
978.54	225.66
978.83	225.65
979.12	225.66
979.42	225.65
979.71	225.64
980.00	225.53
980.29	225.50
980.59	225.29
980.88	225.45
981.17	225.40
981.46	225.41
981.76	225.42
982.05	225.59
982.34	225.60
982.63	225.56
982.93	225.52
983.22	225.68
983.51	225.68
983.80	225.80
984.09	225.87
984.39	225.90
984.68	225.83
984.97	225.90
985.26	225.87
985.55	225.96
985.85	225.86
986.14	225.98
986.43	226.10
986.72	226.18
987.01	226.02
987.30	226.04
987.59	226.04
987.89	226.03
988.18	225.87
988.47	225.88
988.76	225.81
989.05	225.82
989.34	225.77
989.63	225.91
989.92	225.79
990.22	225.73
990.51	225.74
990.80	225.74
991.09	225.76
991.38	225.80
991.67	225.77
991.96	225.75
992.25	225.80
992.54	225.69
992.83	225.66
993.12	225.71
993.41	225.84
993.70	226.00
993.99	226.18
994.28	226.26
994.58	226.30
994.87	226.31
995.16	226.30
995.45	226.21
995.74	226.05
996.03	226.24
996.32	226.30
996.61	226.41
996.90	226.41
997.19	226.42
997.48	226.47
997.77	226.40
998.06	226.37
998.34	226.36
998.63	226.33
998.92	226.41
999.21	226.50
999.50	226.47
999.79	226.28
1000.08	226.17
1000.37	226.16
1000.66	226.20
1000.95	226.27
1001.24	226.25
1001.53	226.34
1001.82	226.25
1002.11	226.03
1002.40	226.10
1002.68	226.20
1002.97	226.52
1003.26	226.44
1003.55	226.32
1003.84	226.35
1004.13	226.55
1004.42	226.54
1004.71	226.57
1004.99	226.48
1005.28	226.57
1005.57	226.52
1005.86	226.50
1006.15	226.45
1006.44	226.36
1006.72	226.33
1007.01	226.30
1007.30	226.38
1007.59	226.27
1007.88	226.25
1008.17	226.34
1008.45	226.20
1008.74	225.97
1009.03	225.70
1009.32	225.74
1009.60	225.73
1009.89	225.63
1010.18	225.42
1010.47	225.40
1010.76	225.32
1011.04	225.34
1011.33	225.35
1011.62	225.40
1011.91	225.43
1012.19	225.43
1012.48	225.48
1012.77	225.44
1013.05	225.60
1013.34	225.58
1013.63	225.58
1013.92	225.65
1014.20	225.60
1014.49	225.58
1014.78	225.65
1015.06	225.55
1015.35	225.52
1015.64	225.65
1015.92	225.80
1016.21	225.86
1016.50	225.81
1016.78	225.92
1017.07	226.00
1017.36	225.90
1017.64	225.85
1017.93	225.90
1018.22	225.92
1018.50	225.94
1018.79	225.99
1019.08	225.78
1019.36	225.79
1019.65	225.75
1019.93	225.89
1020.22	225.96
1020.51	226.23
1020.79	226.15
1021.08	225.95
1021.36	225.80
1021.65	226.55
1021.94	225.45
1022.22	225.70
1022.51	224.35
1022.79	227.70
1023.08	226.70
1023.36	231.35
1023.65	224.80
>>>>>End Processed Spectral Data<<<<<
