SpectraSuite Data File
++++++++++++++++++++++++++++++++++++
Date: Wed Sep 04 17:52:41 EDT 2013
User: lab3
Dark Spectrum Present: Yes
Reference Spectrum Present: No
Number of Sampled Component Spectra: 1
Spectrometers: USB2E7196
Integration Time (usec): 170000 (USB2E7196)
Spectra Averaged: 20 (USB2E7196)
Boxcar Smoothing: 10 (USB2E7196)
Correct for Electrical Dark: No (USB2E7196)
Strobe/Lamp Enabled: No (USB2E7196)
Correct for Detector Non-linearity: No (USB2E7196)
Correct for Stray Light: No (USB2E7196)
Number of Pixels in Processed Spectrum: 2048
>>>>>Begin Processed Spectral Data<<<<<
339.09	0.00
339.48	213.00
339.86	214.75
340.24	215.20
340.63	218.55
341.01	225.35
341.39	219.05
341.78	221.95
342.16	223.55
342.54	223.45
342.93	212.17
343.31	222.85
343.69	223.36
344.07	223.78
344.46	224.35
344.84	224.71
345.22	224.70
345.60	225.05
345.99	225.27
346.37	225.44
346.75	225.50
347.13	225.64
347.52	225.70
347.90	225.96
348.28	226.00
348.66	226.19
349.05	226.06
349.43	226.19
349.81	226.31
350.19	226.40
350.57	226.41
350.96	226.60
351.34	226.74
351.72	226.88
352.10	226.99
352.48	227.02
352.87	227.05
353.25	227.10
353.63	227.10
354.01	227.10
354.39	227.10
354.77	227.18
355.15	227.32
355.54	227.37
355.92	227.25
356.30	227.31
356.68	227.57
357.06	227.68
357.44	227.62
357.82	227.62
358.20	228.04
358.58	228.13
358.97	228.10
359.35	228.31
359.73	228.43
360.11	228.60
360.49	228.67
360.87	228.72
361.25	228.83
361.63	229.05
362.01	229.12
362.39	229.19
362.77	229.28
363.15	229.36
363.53	229.40
363.91	229.46
364.29	229.50
364.67	229.19
365.05	229.20
365.43	229.29
365.81	229.36
366.19	229.23
366.57	229.44
366.95	229.46
367.33	229.29
367.71	229.29
368.09	229.32
368.47	229.28
368.85	229.18
369.23	229.28
369.61	229.11
369.99	229.25
370.37	229.34
370.75	229.61
371.13	229.41
371.51	229.35
371.89	229.37
372.27	229.36
372.65	229.27
373.03	229.22
373.41	229.18
373.78	229.05
374.16	228.74
374.54	228.47
374.92	228.40
375.30	228.38
375.68	228.22
376.06	228.11
376.44	228.06
376.82	228.17
377.19	228.07
377.57	227.95
377.95	227.77
378.33	227.62
378.71	227.19
379.09	227.18
379.47	227.17
379.84	227.04
380.22	226.99
380.60	226.85
380.98	226.74
381.36	226.66
381.73	226.54
382.11	226.54
382.49	226.53
382.87	226.41
383.25	226.34
383.62	226.85
384.00	226.77
384.38	226.68
384.76	226.67
385.13	226.83
385.51	226.87
385.89	226.80
386.27	226.71
386.64	226.75
387.02	226.70
387.40	226.62
387.78	226.64
388.15	226.60
388.53	226.60
388.91	226.61
389.29	226.51
389.66	226.65
390.04	226.66
390.42	226.72
390.79	226.72
391.17	226.66
391.55	226.17
391.92	226.21
392.30	226.37
392.68	226.26
393.05	226.15
393.43	226.14
393.81	226.16
394.18	226.12
394.56	226.20
394.94	226.35
395.31	226.36
395.69	226.55
396.06	226.78
396.44	226.87
396.82	226.90
397.19	227.27
397.57	227.25
397.95	227.32
398.32	227.36
398.70	227.53
399.07	227.71
399.45	227.76
399.82	227.79
400.20	227.75
400.58	227.90
400.95	227.85
401.33	228.03
401.70	228.57
402.08	228.74
402.45	228.85
402.83	229.07
403.20	229.26
403.58	229.31
403.95	229.49
404.33	229.72
404.71	229.95
405.08	230.36
405.46	230.57
405.83	230.90
406.21	231.12
406.58	231.42
406.96	231.72
407.33	232.10
407.70	232.50
408.08	233.22
408.45	233.63
408.83	234.19
409.20	234.57
409.58	234.66
409.95	235.26
410.33	235.79
410.70	236.12
411.08	236.72
411.45	237.27
411.82	237.76
412.20	238.57
412.57	239.51
412.95	239.92
413.32	240.84
413.69	241.59
414.07	242.49
414.44	243.48
414.82	244.47
415.19	245.56
415.56	246.72
415.94	247.74
416.31	249.12
416.68	250.47
417.06	252.05
417.43	253.65
417.81	255.38
418.18	257.17
418.55	259.14
418.93	261.15
419.30	263.27
419.67	265.50
420.04	267.70
420.42	270.06
420.79	273.05
421.16	275.66
421.54	278.69
421.91	281.65
422.28	284.63
422.66	287.88
423.03	291.35
423.40	294.68
423.77	298.12
424.15	301.68
424.52	305.36
424.89	309.56
425.26	313.52
425.64	317.28
426.01	321.49
426.38	325.87
426.75	330.41
427.13	335.06
427.50	339.75
427.87	344.66
428.24	349.38
428.61	353.84
428.99	359.17
429.36	364.61
429.73	370.07
430.10	375.60
430.47	381.18
430.85	386.84
431.22	392.97
431.59	399.74
431.96	406.03
432.33	413.03
432.70	419.48
433.08	427.34
433.45	434.64
433.82	441.84
434.19	450.12
434.56	458.18
434.93	465.76
435.30	473.60
435.68	482.03
436.05	490.50
436.42	498.88
436.79	506.55
437.16	514.96
437.53	523.79
437.90	532.35
438.27	540.85
438.64	549.65
439.01	558.04
439.38	565.24
439.75	572.35
440.13	580.35
440.50	587.90
440.87	593.97
441.24	600.48
441.61	607.60
441.98	612.56
442.35	618.35
442.72	624.37
443.09	630.12
443.46	633.69
443.83	636.05
444.20	637.87
444.57	640.72
444.94	641.74
445.31	642.80
445.68	644.29
446.05	644.62
446.42	643.28
446.79	641.84
447.16	640.29
447.53	638.97
447.90	635.30
448.27	631.75
448.64	626.85
449.01	623.06
449.37	616.85
449.74	610.84
450.11	604.03
450.48	596.25
450.85	588.17
451.22	581.25
451.59	574.65
451.96	568.47
452.33	560.35
452.70	553.17
453.07	544.51
453.43	535.36
453.80	526.92
454.17	518.87
454.54	511.09
454.91	502.90
455.28	494.95
455.65	487.52
456.02	480.71
456.38	474.34
456.75	466.58
457.12	460.09
457.49	453.85
457.86	447.45
458.23	442.41
458.59	436.86
458.96	431.18
459.33	426.06
459.70	421.04
460.07	416.88
460.43	412.12
460.80	407.90
461.17	404.26
461.54	400.35
461.91	396.64
462.27	392.83
462.64	389.62
463.01	386.08
463.38	382.80
463.74	378.80
464.11	375.73
464.48	373.24
464.85	370.47
465.21	368.25
465.58	365.99
465.95	363.04
466.32	360.71
466.68	358.40
467.05	356.29
467.42	354.06
467.78	351.85
468.15	349.60
468.52	347.98
468.88	345.78
469.25	343.82
469.62	342.39
469.98	340.71
470.35	339.15
470.72	337.72
471.08	335.99
471.45	334.75
471.82	333.55
472.18	332.05
472.55	330.95
472.92	329.56
473.28	328.40
473.65	327.46
474.02	326.47
474.38	325.63
474.75	324.85
475.11	323.93
475.48	323.07
475.85	322.52
476.21	321.90
476.58	321.45
476.94	321.21
477.31	320.66
477.67	320.25
478.04	319.97
478.41	319.70
478.77	320.05
479.14	319.73
479.50	319.62
479.87	319.63
480.23	319.65
480.60	319.73
480.96	319.83
481.33	320.17
481.69	320.29
482.06	320.48
482.42	320.74
482.79	321.19
483.15	321.82
483.52	322.52
483.88	323.00
484.25	323.51
484.61	324.02
484.98	324.82
485.34	325.85
485.71	326.78
486.07	327.68
486.44	328.25
486.80	329.37
487.17	330.56
487.53	331.99
487.90	333.48
488.26	335.19
488.62	336.87
488.99	338.40
489.35	340.21
489.72	342.10
490.08	344.09
490.44	346.12
490.81	348.30
491.17	350.45
491.54	353.01
491.90	355.53
492.26	358.25
492.63	361.06
492.99	363.92
493.36	366.92
493.72	370.37
494.08	373.83
494.45	377.47
494.81	381.38
495.17	385.37
495.54	389.41
495.90	393.61
496.26	397.91
496.63	402.55
496.99	407.45
497.35	412.44
497.72	417.72
498.08	423.05
498.44	428.63
498.80	434.71
499.17	440.52
499.53	446.70
499.89	453.27
500.26	459.99
500.62	467.09
500.98	474.55
501.34	481.90
501.71	489.67
502.07	497.46
502.43	505.50
502.79	513.61
503.16	522.33
503.52	531.28
503.88	540.65
504.24	550.26
504.60	560.16
504.97	570.63
505.33	580.93
505.69	592.06
506.05	603.08
506.41	614.22
506.78	626.06
507.14	638.20
507.50	650.57
507.86	663.22
508.22	676.12
508.59	689.04
508.95	702.62
509.31	716.63
509.67	731.00
510.03	745.19
510.39	759.89
510.75	774.76
511.12	789.89
511.48	805.42
511.84	821.06
512.20	836.88
512.56	853.00
512.92	869.74
513.28	886.41
513.64	903.58
514.00	921.08
514.37	938.67
514.73	956.68
515.09	974.80
515.45	992.98
515.81	1011.01
516.17	1029.86
516.53	1048.45
516.89	1067.01
517.25	1086.05
517.61	1106.14
517.97	1126.56
518.33	1146.65
518.69	1167.00
519.05	1187.37
519.41	1207.96
519.77	1228.83
520.13	1249.62
520.49	1270.09
520.85	1292.36
521.21	1313.33
521.57	1334.60
521.93	1355.32
522.29	1376.18
522.65	1396.62
523.01	1417.61
523.37	1438.52
523.73	1459.55
524.09	1479.99
524.45	1500.75
524.81	1521.58
525.17	1542.44
525.53	1563.00
525.89	1583.86
526.25	1604.57
526.61	1624.66
526.97	1645.48
527.33	1666.83
527.68	1688.27
528.04	1709.69
528.40	1728.90
528.76	1749.85
529.12	1770.21
529.48	1791.18
529.84	1811.47
530.20	1832.79
530.56	1853.48
530.91	1874.44
531.27	1894.82
531.63	1915.61
531.99	1936.38
532.35	1956.63
532.71	1976.51
533.07	1996.80
533.42	2016.60
533.78	2036.45
534.14	2056.44
534.50	2075.45
534.86	2094.67
535.21	2112.05
535.57	2130.11
535.93	2148.01
536.29	2165.80
536.65	2183.94
537.00	2201.29
537.36	2218.72
537.72	2234.92
538.08	2251.86
538.44	2268.44
538.79	2284.26
539.15	2300.54
539.51	2316.12
539.87	2331.39
540.22	2345.37
540.58	2359.69
540.94	2372.60
541.29	2384.95
541.65	2397.26
542.01	2409.90
542.37	2420.05
542.72	2431.07
543.08	2441.54
543.44	2453.20
543.79	2463.25
544.15	2472.79
544.51	2482.51
544.87	2492.07
545.22	2500.87
545.58	2508.70
545.94	2515.73
546.29	2522.31
546.65	2528.42
547.01	2533.96
547.36	2539.14
547.72	2544.82
548.07	2548.54
548.43	2553.69
548.79	2558.25
549.14	2562.30
549.50	2565.98
549.86	2570.01
550.21	2573.97
550.57	2577.36
550.92	2578.60
551.28	2579.62
551.64	2582.10
551.99	2584.10
552.35	2585.49
552.70	2587.49
553.06	2588.93
553.41	2589.95
553.77	2591.69
554.13	2593.14
554.48	2594.86
554.84	2595.79
555.19	2596.87
555.55	2598.72
555.90	2598.08
556.26	2597.42
556.61	2595.87
556.97	2593.52
557.32	2592.76
557.68	2591.20
558.03	2589.93
558.39	2588.79
558.74	2588.07
559.10	2584.60
559.45	2580.85
559.81	2576.05
560.16	2570.64
560.52	2565.67
560.87	2561.44
561.23	2555.95
561.58	2550.11
561.94	2543.01
562.29	2536.05
562.64	2528.74
563.00	2520.50
563.35	2513.61
563.71	2506.73
564.06	2500.75
564.42	2494.37
564.77	2487.19
565.12	2479.62
565.48	2471.88
565.83	2463.62
566.19	2455.35
566.54	2447.45
566.89	2439.34
567.25	2432.33
567.60	2425.22
567.96	2417.90
568.31	2409.51
568.66	2401.08
569.02	2392.60
569.37	2384.43
569.72	2376.75
570.08	2367.44
570.43	2358.08
570.78	2349.46
571.14	2340.32
571.49	2329.82
571.84	2320.33
572.20	2309.99
572.55	2300.12
572.90	2289.18
573.26	2278.75
573.61	2267.71
573.96	2256.17
574.31	2244.57
574.67	2232.49
575.02	2219.99
575.37	2207.04
575.72	2194.23
576.08	2181.90
576.43	2168.87
576.78	2155.80
577.13	2142.16
577.49	2129.53
577.84	2117.70
578.19	2105.52
578.54	2092.65
578.90	2080.91
579.25	2068.54
579.60	2055.87
579.95	2043.04
580.30	2029.77
580.66	2016.57
581.01	2003.20
581.36	1989.72
581.71	1977.14
582.06	1964.38
582.42	1952.00
582.77	1939.55
583.12	1927.57
583.47	1915.43
583.82	1903.73
584.17	1891.72
584.53	1880.13
584.88	1867.10
585.23	1853.46
585.58	1839.33
585.93	1826.31
586.28	1813.25
586.63	1799.57
586.98	1785.50
587.34	1772.27
587.69	1759.26
588.04	1746.71
588.39	1734.85
588.74	1722.60
589.09	1710.69
589.44	1697.84
589.79	1685.82
590.14	1673.79
590.49	1661.70
590.84	1649.75
591.19	1637.75
591.54	1625.48
591.89	1613.13
592.25	1603.23
592.60	1592.20
592.95	1581.01
593.30	1569.20
593.65	1556.90
594.00	1544.76
594.35	1535.00
594.70	1523.09
595.05	1512.06
595.40	1500.31
595.75	1488.26
596.10	1477.20
596.45	1465.44
596.80	1454.82
597.15	1443.33
597.50	1431.64
597.85	1420.31
598.19	1408.76
598.54	1397.07
598.89	1386.02
599.24	1375.49
599.59	1363.91
599.94	1353.00
600.29	1342.61
600.64	1332.55
600.99	1322.17
601.34	1312.61
601.69	1301.53
602.04	1291.95
602.39	1282.22
602.74	1273.02
603.08	1263.79
603.43	1254.42
603.78	1244.62
604.13	1234.97
604.48	1225.29
604.83	1215.66
605.18	1205.66
605.53	1196.14
605.87	1187.07
606.22	1178.36
606.57	1169.23
606.92	1159.96
607.27	1151.16
607.62	1142.46
607.96	1133.78
608.31	1125.85
608.66	1117.39
609.01	1108.75
609.36	1100.35
609.70	1091.77
610.05	1083.00
610.40	1074.68
610.75	1066.06
611.10	1057.96
611.44	1049.37
611.79	1041.34
612.14	1033.60
612.49	1026.11
612.83	1018.85
613.18	1011.15
613.53	1003.47
613.88	995.41
614.22	987.65
614.57	979.86
614.92	971.98
615.27	964.41
615.61	956.66
615.96	949.25
616.31	941.90
616.65	934.82
617.00	927.46
617.35	920.49
617.70	913.31
618.04	906.22
618.39	899.20
618.74	893.02
619.08	886.06
619.43	879.22
619.78	872.05
620.12	864.80
620.47	857.74
620.82	850.61
621.16	843.91
621.51	837.65
621.85	831.43
622.20	824.94
622.55	818.30
622.89	812.05
623.24	805.68
623.59	799.28
623.93	793.00
624.28	787.02
624.62	781.44
624.97	775.72
625.32	770.17
625.66	764.38
626.01	758.08
626.35	752.68
626.70	747.17
627.04	741.98
627.39	736.44
627.73	731.30
628.08	726.27
628.43	721.01
628.77	715.74
629.12	710.46
629.46	705.70
629.81	701.25
630.15	696.38
630.50	691.57
630.84	686.96
631.19	682.16
631.53	677.49
631.88	672.19
632.22	667.24
632.57	662.71
632.91	658.24
633.26	654.06
633.60	649.45
633.95	644.97
634.29	640.44
634.64	636.11
634.98	631.43
635.32	627.25
635.67	623.31
636.01	619.02
636.36	614.60
636.70	610.47
637.05	606.20
637.39	602.13
637.73	598.01
638.08	593.91
638.42	589.74
638.77	585.56
639.11	581.07
639.45	576.85
639.80	572.49
640.14	568.47
640.49	564.38
640.83	560.46
641.17	556.62
641.52	552.85
641.86	549.28
642.20	546.15
642.55	542.37
642.89	538.69
643.23	535.24
643.58	532.13
643.92	528.47
644.26	525.00
644.61	521.84
644.95	518.55
645.29	515.21
645.64	511.99
645.98	508.89
646.32	506.14
646.66	503.05
647.01	500.05
647.35	497.07
647.69	494.14
648.04	491.43
648.38	488.62
648.72	485.80
649.06	482.86
649.41	479.81
649.75	476.79
650.09	473.89
650.43	471.05
650.78	468.06
651.12	465.40
651.46	462.73
651.80	459.88
652.14	457.22
652.49	454.70
652.83	452.19
653.17	449.67
653.51	447.05
653.85	444.67
654.20	442.20
654.54	439.74
654.88	437.24
655.22	434.95
655.56	432.61
655.90	430.31
656.25	427.91
656.59	425.61
656.93	423.57
657.27	421.48
657.61	419.05
657.95	416.81
658.29	414.55
658.64	412.42
658.98	410.22
659.32	408.02
659.66	405.81
660.00	403.58
660.34	401.51
660.68	399.53
661.02	397.53
661.36	395.62
661.70	393.58
662.05	391.69
662.39	389.72
662.73	387.95
663.07	386.30
663.41	384.60
663.75	382.72
664.09	380.97
664.43	379.18
664.77	377.55
665.11	375.85
665.45	374.24
665.79	372.57
666.13	370.98
666.47	369.25
666.81	367.60
667.15	366.05
667.49	364.69
667.83	363.39
668.17	361.95
668.51	360.58
668.85	359.27
669.19	358.10
669.53	356.54
669.87	354.94
670.21	353.38
670.55	351.91
670.89	350.85
671.23	349.38
671.57	347.93
671.91	346.60
672.25	345.30
672.58	344.15
672.92	342.75
673.26	341.40
673.60	340.29
673.94	339.24
674.28	338.17
674.62	336.89
674.96	335.60
675.30	334.44
675.64	333.25
675.97	332.07
676.31	330.69
676.65	329.45
676.99	328.48
677.33	327.25
677.67	326.18
678.01	324.89
678.34	323.82
678.68	322.93
679.02	321.89
679.36	320.90
679.70	319.84
680.04	318.90
680.37	317.95
680.71	316.95
681.05	315.95
681.39	315.01
681.73	314.06
682.06	313.05
682.40	312.06
682.74	311.20
683.08	310.38
683.42	309.44
683.75	308.75
684.09	307.78
684.43	307.05
684.77	306.19
685.10	305.35
685.44	304.54
685.78	303.61
686.12	302.81
686.45	302.03
686.79	301.09
687.13	300.38
687.46	299.63
687.80	299.01
688.14	298.18
688.48	297.44
688.81	296.73
689.15	296.10
689.49	295.39
689.82	294.65
690.16	293.77
690.50	293.15
690.83	292.33
691.17	291.62
691.51	290.95
691.84	290.35
692.18	289.65
692.52	288.99
692.85	288.41
693.19	288.06
693.52	287.45
693.86	286.84
694.20	286.16
694.53	285.54
694.87	284.91
695.21	284.31
695.54	283.63
695.88	282.87
696.21	282.14
696.55	281.57
696.88	280.99
697.22	280.40
697.56	279.85
697.89	279.20
698.23	278.66
698.56	277.99
698.90	277.51
699.23	276.90
699.57	276.37
699.90	275.82
700.24	275.04
700.58	274.52
700.91	274.22
701.25	274.11
701.58	274.05
701.92	273.63
702.25	273.27
702.59	272.85
702.92	272.54
703.26	272.13
703.59	271.71
703.93	271.67
704.26	271.37
704.60	271.00
704.93	270.73
705.26	270.26
705.60	269.95
705.93	269.38
706.27	269.21
706.60	268.95
706.94	268.75
707.27	268.39
707.61	268.09
707.94	267.60
708.27	266.86
708.61	266.06
708.94	265.60
709.28	265.16
709.61	264.67
709.94	264.30
710.28	263.94
710.61	263.55
710.95	262.77
711.28	262.69
711.61	262.23
711.95	261.96
712.28	261.55
712.61	261.23
712.95	261.16
713.28	260.96
713.61	260.57
713.95	260.09
714.28	259.84
714.61	259.37
714.95	259.04
715.28	258.66
715.61	258.36
715.95	257.99
716.28	257.72
716.61	257.51
716.95	257.13
717.28	256.84
717.61	256.56
717.94	256.25
718.28	255.63
718.61	255.36
718.94	254.91
719.27	254.68
719.61	254.41
719.94	254.07
720.27	253.55
720.60	253.24
720.94	252.95
721.27	252.66
721.60	252.49
721.93	252.21
722.27	252.20
722.60	252.03
722.93	251.80
723.26	251.58
723.59	251.29
723.93	251.07
724.26	250.88
724.59	250.60
724.92	250.45
725.25	250.33
725.59	250.20
725.92	250.09
726.25	250.00
726.58	249.81
726.91	249.59
727.24	249.50
727.57	249.33
727.91	249.11
728.24	248.99
728.57	248.77
728.90	248.71
729.23	248.30
729.56	248.32
729.89	248.16
730.22	247.83
730.55	247.67
730.89	247.53
731.22	247.36
731.55	247.16
731.88	247.03
732.21	246.74
732.54	246.42
732.87	246.29
733.20	245.91
733.53	245.78
733.86	245.62
734.19	245.27
734.52	245.14
734.85	245.29
735.18	245.02
735.51	245.06
735.84	244.84
736.17	244.88
736.50	244.52
736.83	244.91
737.16	244.88
737.49	244.73
737.82	244.54
738.15	244.39
738.48	244.33
738.81	244.10
739.14	243.94
739.47	243.83
739.80	243.60
740.13	243.64
740.46	243.38
740.79	243.20
741.12	243.14
741.45	242.88
741.78	242.49
742.11	242.57
742.44	242.26
742.77	242.23
743.10	241.95
743.43	241.81
743.75	241.20
744.08	241.66
744.41	241.49
744.74	241.32
745.07	241.07
745.40	240.98
745.73	241.05
746.06	240.99
746.39	240.96
746.71	240.80
747.04	240.60
747.37	240.46
747.70	240.39
748.03	240.28
748.36	240.31
748.68	240.24
749.01	239.91
749.34	239.86
749.67	239.69
750.00	239.69
750.33	239.93
750.65	239.84
750.98	239.12
751.31	239.10
751.64	239.05
751.97	239.28
752.29	239.15
752.62	238.86
752.95	238.71
753.28	238.55
753.60	238.44
753.93	238.49
754.26	238.43
754.59	238.19
754.91	238.02
755.24	237.88
755.57	237.88
755.90	237.80
756.22	237.61
756.55	237.43
756.88	237.25
757.20	236.79
757.53	236.60
757.86	236.51
758.19	236.45
758.51	236.41
758.84	236.10
759.17	235.91
759.49	235.80
759.82	235.97
760.15	235.96
760.47	235.89
760.80	235.66
761.13	235.72
761.45	235.68
761.78	235.61
762.11	235.54
762.43	235.22
762.76	235.17
763.08	235.17
763.41	235.19
763.74	235.14
764.06	235.01
764.39	234.97
764.71	234.85
765.04	234.72
765.37	234.58
765.69	234.49
766.02	234.43
766.34	234.31
766.67	234.02
767.00	233.93
767.32	234.23
767.65	234.42
767.97	234.28
768.30	234.27
768.62	234.22
768.95	234.11
769.27	234.02
769.60	234.00
769.92	233.81
770.25	233.63
770.57	233.41
770.90	233.35
771.22	233.22
771.55	233.11
771.87	233.02
772.20	232.92
772.52	233.29
772.85	233.85
773.17	233.86
773.50	233.83
773.82	233.75
774.15	233.28
774.47	232.90
774.80	232.79
775.12	232.70
775.45	232.64
775.77	232.58
776.09	232.68
776.42	232.58
776.74	232.77
777.07	232.75
777.39	232.85
777.72	232.80
778.04	232.81
778.36	232.71
778.69	232.76
779.01	232.78
779.33	232.23
779.66	231.65
779.98	231.51
780.31	231.41
780.63	231.49
780.95	231.58
781.28	231.63
781.60	231.54
781.92	231.49
782.25	231.47
782.57	231.47
782.89	231.32
783.22	231.20
783.54	231.00
783.86	230.97
784.19	230.83
784.51	230.92
784.83	230.81
785.16	230.87
785.48	230.76
785.80	230.75
786.12	230.80
786.45	230.67
786.77	230.70
787.09	230.71
787.42	230.56
787.74	230.56
788.06	230.57
788.38	230.60
788.71	230.53
789.03	230.47
789.35	230.49
789.67	230.37
789.99	230.42
790.32	230.35
790.64	230.34
790.96	230.71
791.28	230.55
791.61	230.46
791.93	230.40
792.25	230.37
792.57	230.62
792.89	230.51
793.21	230.57
793.54	230.51
793.86	230.40
794.18	230.37
794.50	230.23
794.82	230.14
795.14	230.12
795.47	230.17
795.79	230.16
796.11	230.12
796.43	230.12
796.75	230.04
797.07	230.05
797.39	230.08
797.71	229.72
798.04	229.67
798.36	229.77
798.68	229.79
799.00	229.83
799.32	229.57
799.64	229.66
799.96	229.72
800.28	229.80
800.60	229.69
800.92	229.74
801.24	229.75
801.56	229.76
801.89	229.68
802.21	229.67
802.53	229.59
802.85	229.65
803.17	229.91
803.49	229.79
803.81	229.75
804.13	229.66
804.45	229.60
804.77	229.66
805.09	229.60
805.41	229.50
805.73	229.39
806.05	229.29
806.37	229.25
806.69	229.09
807.01	229.02
807.33	229.17
807.65	229.00
807.97	229.15
808.28	229.11
808.60	229.11
808.92	229.00
809.24	229.28
809.56	229.19
809.88	228.98
810.20	229.05
810.52	229.14
810.84	229.05
811.16	229.02
811.48	228.90
811.80	229.03
812.12	229.01
812.43	229.07
812.75	229.07
813.07	228.96
813.39	228.98
813.71	228.87
814.03	228.68
814.35	228.65
814.67	228.46
814.98	228.36
815.30	228.34
815.62	228.32
815.94	227.96
816.26	228.08
816.58	227.90
816.89	227.90
817.21	227.70
817.53	227.75
817.85	227.70
818.17	227.68
818.48	227.53
818.80	227.61
819.12	227.58
819.44	227.48
819.76	227.46
820.07	227.41
820.39	227.47
820.71	227.54
821.03	227.54
821.34	227.48
821.66	227.55
821.98	227.56
822.30	227.45
822.61	227.68
822.93	227.49
823.25	227.52
823.57	227.49
823.88	227.60
824.20	227.59
824.52	227.64
824.83	227.69
825.15	227.64
825.47	227.58
825.79	227.53
826.10	227.57
826.42	227.48
826.74	227.54
827.05	227.48
827.37	227.49
827.69	227.47
828.00	227.46
828.32	227.41
828.64	227.36
828.95	227.73
829.27	227.63
829.58	227.57
829.90	227.69
830.22	227.72
830.53	227.62
830.85	227.54
831.17	227.49
831.48	227.48
831.80	227.43
832.11	227.45
832.43	227.45
832.75	227.42
833.06	227.76
833.38	227.67
833.69	227.61
834.01	227.67
834.32	227.70
834.64	227.75
834.96	227.73
835.27	227.64
835.59	227.47
835.90	227.44
836.22	227.48
836.53	227.35
836.85	227.24
837.16	227.69
837.48	227.78
837.79	227.94
838.11	228.01
838.42	228.03
838.74	228.05
839.05	227.99
839.37	227.96
839.68	227.66
840.00	227.62
840.31	227.80
840.63	227.71
840.94	227.61
841.26	227.52
841.57	227.59
841.88	227.79
842.20	227.68
842.51	227.61
842.83	227.58
843.14	228.06
843.46	228.16
843.77	227.85
844.08	227.74
844.40	227.57
844.71	227.48
845.03	227.46
845.34	227.43
845.65	227.44
845.97	227.41
846.28	227.47
846.60	227.50
846.91	227.39
847.22	227.36
847.54	227.55
847.85	227.56
848.16	227.48
848.48	227.32
848.79	227.50
849.10	227.54
849.42	227.60
849.73	227.09
850.04	227.02
850.36	226.88
850.67	226.98
850.98	226.99
851.30	227.01
851.61	227.01
851.92	226.97
852.23	227.06
852.55	227.12
852.86	227.11
853.17	227.16
853.49	227.18
853.80	227.30
854.11	227.23
854.42	227.29
854.74	227.24
855.05	227.27
855.36	227.09
855.67	227.01
855.99	226.95
856.30	227.49
856.61	227.48
856.92	227.50
857.23	227.51
857.55	227.42
857.86	227.33
858.17	227.44
858.48	227.37
858.79	227.31
859.11	227.28
859.42	227.30
859.73	227.16
860.04	227.14
860.35	227.01
860.66	226.83
860.98	226.80
861.29	226.84
861.60	226.77
861.91	226.80
862.22	226.69
862.53	226.65
862.84	226.12
863.16	226.30
863.47	226.20
863.78	226.09
864.09	226.15
864.40	226.22
864.71	226.15
865.02	226.16
865.33	226.09
865.64	226.07
865.95	226.10
866.27	226.39
866.58	226.41
866.89	226.43
867.20	226.48
867.51	226.40
867.82	226.37
868.13	226.53
868.44	226.40
868.75	226.63
869.06	226.61
869.37	226.63
869.68	226.42
869.99	226.60
870.30	226.67
870.61	226.73
870.92	226.68
871.23	226.69
871.54	226.80
871.85	226.98
872.16	227.11
872.47	226.99
872.78	226.73
873.09	226.75
873.40	226.71
873.71	226.81
874.02	226.88
874.33	226.90
874.64	226.81
874.95	227.02
875.26	226.86
875.56	226.87
875.87	226.88
876.18	226.83
876.49	227.24
876.80	227.13
877.11	227.03
877.42	227.10
877.73	227.04
878.04	226.96
878.35	226.84
878.66	226.80
878.96	226.80
879.27	226.85
879.58	226.82
879.89	226.80
880.20	226.90
880.51	226.86
880.82	226.85
881.12	226.90
881.43	226.75
881.74	226.72
882.05	226.73
882.36	226.83
882.67	226.93
882.97	226.42
883.28	226.49
883.59	226.54
883.90	226.50
884.21	226.55
884.51	226.57
884.82	226.55
885.13	226.50
885.44	226.57
885.74	226.59
886.05	226.57
886.36	226.63
886.67	226.44
886.98	226.78
887.28	226.82
887.59	226.80
887.90	226.86
888.20	226.82
888.51	226.90
888.82	226.78
889.13	226.79
889.43	227.24
889.74	227.23
890.05	227.20
890.35	227.24
890.66	227.28
890.97	227.14
891.28	227.04
891.58	227.08
891.89	227.02
892.20	226.95
892.50	226.84
892.81	226.84
893.12	226.85
893.42	226.54
893.73	226.55
894.04	226.55
894.34	226.53
894.65	226.54
894.95	226.49
895.26	226.50
895.57	226.65
895.87	226.09
896.18	226.16
896.48	226.20
896.79	226.17
897.10	226.18
897.40	226.30
897.71	226.42
898.01	226.33
898.32	226.37
898.63	226.40
898.93	226.49
899.24	226.45
899.54	226.46
899.85	226.44
900.15	226.44
900.46	226.54
900.76	226.58
901.07	226.56
901.38	226.56
901.68	226.63
901.99	226.39
902.29	226.51
902.60	226.46
902.90	226.37
903.21	226.31
903.51	226.20
903.82	226.27
904.12	226.29
904.43	226.38
904.73	226.38
905.03	226.36
905.34	226.84
905.64	226.81
905.95	226.86
906.25	226.86
906.56	226.78
906.86	226.67
907.17	226.60
907.47	226.75
907.77	226.75
908.08	226.64
908.38	226.70
908.69	226.73
908.99	226.79
909.30	226.86
909.60	226.87
909.90	226.95
910.21	226.85
910.51	226.72
910.81	226.72
911.12	226.75
911.42	226.75
911.73	226.26
912.03	226.34
912.33	226.31
912.64	226.27
912.94	226.34
913.24	226.20
913.55	226.23
913.85	226.15
914.15	226.16
914.46	226.26
914.76	226.25
915.06	226.25
915.37	226.14
915.67	226.05
915.97	226.10
916.27	226.03
916.58	226.06
916.88	226.11
917.18	226.00
917.49	226.32
917.79	226.22
918.09	226.27
918.39	226.33
918.70	226.39
919.00	226.42
919.30	226.60
919.60	226.70
919.91	226.63
920.21	226.68
920.51	226.61
920.81	226.55
921.12	226.60
921.42	226.54
921.72	226.67
922.02	226.76
922.32	226.75
922.63	226.77
922.93	226.94
923.23	226.97
923.53	226.98
923.83	226.67
924.13	226.82
924.44	226.79
924.74	226.85
925.04	226.92
925.34	226.87
925.64	226.66
925.94	226.68
926.24	226.90
926.55	226.81
926.85	226.90
927.15	226.93
927.45	226.94
927.75	226.91
928.05	226.85
928.35	226.78
928.65	226.84
928.95	226.90
929.26	226.78
929.56	226.89
929.86	226.91
930.16	226.91
930.46	226.90
930.76	226.92
931.06	226.71
931.36	226.59
931.66	226.76
931.96	226.80
932.26	226.73
932.56	226.60
932.86	226.69
933.16	226.64
933.46	226.60
933.76	226.50
934.06	226.65
934.36	226.82
934.66	226.80
934.96	226.79
935.26	226.76
935.56	226.75
935.86	226.55
936.16	226.53
936.46	226.43
936.76	226.34
937.06	226.21
937.36	226.21
937.66	226.25
937.96	226.14
938.26	226.07
938.56	226.10
938.86	226.09
939.16	226.19
939.46	226.26
939.76	226.30
940.06	226.29
940.35	226.20
940.65	225.94
940.95	225.96
941.25	225.77
941.55	225.72
941.85	225.68
942.15	225.80
942.45	225.92
942.75	225.91
943.04	226.01
943.34	226.17
943.64	226.14
943.94	226.05
944.24	225.98
944.54	225.94
944.84	225.94
945.13	225.87
945.43	225.75
945.73	225.74
946.03	225.68
946.33	225.61
946.62	225.51
946.92	225.55
947.22	225.62
947.52	225.74
947.82	225.85
948.11	225.81
948.41	225.79
948.71	225.65
949.01	225.72
949.31	225.59
949.60	225.54
949.90	225.62
950.20	225.62
950.50	225.73
950.79	225.76
951.09	225.84
951.39	225.83
951.69	225.76
951.98	225.83
952.28	225.85
952.58	225.85
952.87	225.91
953.17	225.97
953.47	225.95
953.76	225.90
954.06	225.87
954.36	225.80
954.66	225.77
954.95	225.92
955.25	225.97
955.55	226.04
955.84	225.98
956.14	226.07
956.44	226.12
956.73	226.05
957.03	226.08
957.32	226.07
957.62	226.05
957.92	226.13
958.21	226.05
958.51	226.62
958.81	226.74
959.10	226.82
959.40	226.93
959.69	226.98
959.99	227.09
960.29	227.03
960.58	227.03
960.88	227.18
961.17	227.11
961.47	227.15
961.76	227.16
962.06	227.22
962.36	227.10
962.65	227.13
962.95	227.13
963.24	227.05
963.54	227.13
963.83	227.22
964.13	227.24
964.42	227.11
964.72	226.69
965.01	226.65
965.31	226.56
965.60	226.39
965.90	226.65
966.19	226.48
966.49	226.54
966.78	226.55
967.08	226.43
967.37	226.45
967.67	226.38
967.96	226.39
968.26	226.45
968.55	226.50
968.85	226.50
969.14	226.51
969.43	226.59
969.73	226.50
970.02	226.42
970.32	226.35
970.61	226.41
970.91	226.25
971.20	226.24
971.49	226.27
971.79	226.33
972.08	225.96
972.38	226.09
972.67	226.04
972.96	226.15
973.26	226.06
973.55	226.22
973.85	226.14
974.14	226.16
974.43	226.17
974.73	226.10
975.02	226.06
975.31	226.11
975.61	226.09
975.90	226.00
976.19	225.98
976.49	226.03
976.78	226.06
977.07	226.07
977.37	226.07
977.66	225.96
977.95	225.99
978.24	226.02
978.54	226.07
978.83	226.05
979.12	226.01
979.42	226.08
979.71	226.01
980.00	226.06
980.29	226.05
980.59	225.96
980.88	226.14
981.17	226.07
981.46	226.00
981.76	225.96
982.05	226.16
982.34	226.17
982.63	226.17
982.93	226.14
983.22	226.33
983.51	226.43
983.80	226.58
984.09	226.56
984.39	226.63
984.68	226.57
984.97	226.61
985.26	226.54
985.55	226.49
985.85	226.35
986.14	226.35
986.43	226.41
986.72	226.44
987.01	226.22
987.30	226.29
987.59	226.29
987.89	226.36
988.18	226.19
988.47	226.12
988.76	226.11
989.05	226.05
989.34	225.89
989.63	225.98
989.92	225.92
990.22	225.87
990.51	225.81
990.80	225.77
991.09	225.81
991.38	225.87
991.67	225.92
991.96	225.93
992.25	225.96
992.54	225.84
992.83	225.76
993.12	225.79
993.41	225.88
993.70	226.08
993.99	226.10
994.28	226.18
994.58	226.28
994.87	226.18
995.16	226.21
995.45	226.22
995.74	226.00
996.03	226.07
996.32	226.21
996.61	226.32
996.90	226.32
997.19	226.27
997.48	226.27
997.77	226.24
998.06	226.29
998.34	226.26
998.63	226.33
998.92	226.40
999.21	226.41
999.50	226.42
999.79	226.20
1000.08	226.18
1000.37	226.19
1000.66	226.16
1000.95	226.33
1001.24	226.37
1001.53	226.42
1001.82	226.40
1002.11	226.21
1002.40	226.20
1002.68	226.35
1002.97	226.74
1003.26	226.73
1003.55	226.68
1003.84	226.72
1004.13	226.77
1004.42	226.77
1004.71	226.71
1004.99	226.70
1005.28	226.85
1005.57	226.74
1005.86	226.69
1006.15	226.66
1006.44	226.58
1006.72	226.68
1007.01	226.57
1007.30	226.57
1007.59	226.57
1007.88	226.55
1008.17	226.66
1008.45	226.58
1008.74	226.34
1009.03	226.11
1009.32	226.09
1009.60	226.05
1009.89	225.97
1010.18	225.89
1010.47	225.82
1010.76	225.82
1011.04	225.73
1011.33	225.72
1011.62	225.72
1011.91	225.80
1012.19	225.80
1012.48	225.83
1012.77	225.81
1013.05	225.99
1013.34	226.01
1013.63	225.95
1013.92	226.02
1014.20	225.97
1014.49	225.94
1014.78	225.99
1015.06	225.78
1015.35	225.77
1015.64	225.92
1015.92	226.02
1016.21	226.05
1016.50	226.10
1016.78	226.17
1017.07	226.25
1017.36	226.20
1017.64	226.23
1017.93	226.27
1018.22	226.26
1018.50	226.24
1018.79	226.21
1019.08	226.02
1019.36	226.04
1019.65	225.95
1019.93	226.05
1020.22	226.19
1020.51	226.41
1020.79	226.25
1021.08	225.35
1021.36	225.25
1021.65	226.40
1021.94	225.80
1022.22	226.50
1022.51	224.20
1022.79	227.45
1023.08	228.00
1023.36	230.80
1023.65	223.50
>>>>>End Processed Spectral Data<<<<<
