SpectraSuite Data File
++++++++++++++++++++++++++++++++++++
Date: Wed Sep 04 18:02:05 EDT 2013
User: lab3
Dark Spectrum Present: Yes
Reference Spectrum Present: No
Number of Sampled Component Spectra: 1
Spectrometers: USB2E7196
Integration Time (usec): 170000 (USB2E7196)
Spectra Averaged: 20 (USB2E7196)
Boxcar Smoothing: 10 (USB2E7196)
Correct for Electrical Dark: No (USB2E7196)
Strobe/Lamp Enabled: No (USB2E7196)
Correct for Detector Non-linearity: No (USB2E7196)
Correct for Stray Light: No (USB2E7196)
Number of Pixels in Processed Spectrum: 2048
>>>>>Begin Processed Spectral Data<<<<<
339.09	0.00
339.48	213.00
339.86	214.25
340.24	214.95
340.63	217.75
341.01	226.75
341.39	219.70
341.78	222.95
342.16	223.85
342.54	223.05
342.93	212.65
343.31	223.41
343.69	223.98
344.07	224.48
344.46	225.06
344.84	225.40
345.22	225.40
345.60	225.72
345.99	225.91
346.37	226.00
346.75	226.13
347.13	226.23
347.52	226.25
347.90	226.43
348.28	226.39
348.66	226.56
349.05	226.39
349.43	226.52
349.81	226.55
350.19	226.56
350.57	226.65
350.96	226.76
351.34	226.84
351.72	226.93
352.10	227.10
352.48	227.05
352.87	227.15
353.25	227.16
353.63	227.21
354.01	227.25
354.39	227.37
354.77	227.46
355.15	227.74
355.54	227.77
355.92	227.69
356.30	227.80
356.68	228.07
357.06	228.28
357.44	228.24
357.82	228.21
358.20	228.70
358.58	228.73
358.97	228.78
359.35	228.99
359.73	229.15
360.11	229.11
360.49	229.24
360.87	229.35
361.25	229.48
361.63	229.68
362.01	229.74
362.39	229.77
362.77	229.81
363.15	229.75
363.53	229.75
363.91	229.82
364.29	229.93
364.67	229.54
365.05	229.52
365.43	229.60
365.81	229.76
366.19	229.63
366.57	229.86
366.95	229.83
367.33	229.66
367.71	229.64
368.09	229.81
368.47	229.79
368.85	229.73
369.23	229.82
369.61	229.64
369.99	229.77
370.37	229.79
370.75	230.00
371.13	229.90
371.51	229.88
371.89	229.90
372.27	229.96
372.65	230.00
373.03	229.94
373.41	229.86
373.78	229.75
374.16	229.42
374.54	229.23
374.92	229.18
375.30	229.12
375.68	228.99
376.06	228.93
376.44	228.85
376.82	228.87
377.19	228.75
377.57	228.68
377.95	228.50
378.33	228.36
378.71	228.01
379.09	227.99
379.47	227.98
379.84	227.82
380.22	227.55
380.60	227.45
380.98	227.38
381.36	227.34
381.73	227.30
382.11	227.36
382.49	227.25
382.87	227.18
383.25	227.13
383.62	227.67
384.00	227.45
384.38	227.42
384.76	227.40
385.13	227.51
385.51	227.49
385.89	227.37
386.27	227.39
386.64	227.42
387.02	227.34
387.40	227.22
387.78	227.27
388.15	227.33
388.53	227.23
388.91	227.23
389.29	227.15
389.66	227.06
390.04	226.91
390.42	226.98
390.79	226.93
391.17	226.96
391.55	226.40
391.92	226.39
392.30	226.51
392.68	226.42
393.05	226.32
393.43	226.29
393.81	226.26
394.18	226.19
394.56	226.20
394.94	226.30
395.31	226.35
395.69	226.50
396.06	226.54
396.44	226.65
396.82	226.63
397.19	226.92
397.57	227.09
397.95	227.21
398.32	227.07
398.70	227.17
399.07	227.29
399.45	227.32
399.82	227.36
400.20	227.34
400.58	227.45
400.95	227.45
401.33	227.62
401.70	228.11
402.08	228.26
402.45	228.46
402.83	228.73
403.20	228.89
403.58	228.96
403.95	229.16
404.33	229.38
404.71	229.63
405.08	230.05
405.46	230.16
405.83	230.41
406.21	230.71
406.58	231.04
406.96	231.29
407.33	231.59
407.70	231.99
408.08	232.78
408.45	233.29
408.83	233.73
409.20	234.13
409.58	234.24
409.95	234.77
410.33	235.25
410.70	235.61
411.08	236.23
411.45	236.83
411.82	237.41
412.20	238.14
412.57	239.09
412.95	239.40
413.32	240.43
413.69	241.35
414.07	242.30
414.44	243.33
414.82	244.38
415.19	245.57
415.56	246.81
415.94	247.81
416.31	249.21
416.68	250.74
417.06	252.38
417.43	254.07
417.81	255.87
418.18	257.62
418.55	259.63
418.93	261.59
419.30	263.70
419.67	265.97
420.04	268.25
420.42	270.58
420.79	273.74
421.16	276.38
421.54	279.38
421.91	282.43
422.28	285.52
422.66	288.82
423.03	292.29
423.40	295.60
423.77	299.07
424.15	302.70
424.52	306.42
424.89	310.64
425.26	314.59
425.64	318.33
426.01	322.70
426.38	327.07
426.75	331.74
427.13	336.40
427.50	341.15
427.87	346.11
428.24	351.13
428.61	355.65
428.99	361.07
429.36	366.54
429.73	372.08
430.10	377.56
430.47	383.31
430.85	388.94
431.22	395.21
431.59	402.09
431.96	408.38
432.33	415.35
432.70	422.01
433.08	429.88
433.45	437.33
433.82	444.61
434.19	452.99
434.56	461.08
434.93	468.75
435.30	476.55
435.68	485.22
436.05	493.67
436.42	501.99
436.79	509.72
437.16	518.22
437.53	527.03
437.90	535.85
438.27	544.49
438.64	553.69
439.01	561.87
439.38	568.96
439.75	576.06
440.13	584.09
440.50	591.66
440.87	597.89
441.24	604.44
441.61	611.52
441.98	616.42
442.35	622.31
442.72	628.31
443.09	634.12
443.46	637.60
443.83	639.92
444.20	641.95
444.57	644.66
444.94	645.71
445.31	646.81
445.68	648.11
446.05	648.23
446.42	646.70
446.79	645.54
447.16	644.06
447.53	642.75
447.90	638.99
448.27	635.32
448.64	630.35
449.01	626.61
449.37	620.39
449.74	614.28
450.11	607.27
450.48	599.42
450.85	591.43
451.22	584.46
451.59	577.81
451.96	571.38
452.33	563.08
452.70	555.62
453.07	546.90
453.43	537.71
453.80	529.17
454.17	521.06
454.54	513.17
454.91	504.94
455.28	497.02
455.65	489.63
456.02	482.70
456.38	476.26
456.75	468.37
457.12	461.81
457.49	455.54
457.86	449.09
458.23	444.10
458.59	438.38
458.96	432.54
459.33	427.30
459.70	422.31
460.07	418.21
460.43	413.54
460.80	409.25
461.17	405.55
461.54	401.64
461.91	397.86
462.27	394.02
462.64	390.70
463.01	387.16
463.38	383.85
463.74	379.80
464.11	376.80
464.48	374.23
464.85	371.43
465.21	369.35
465.58	367.17
465.95	364.23
466.32	361.94
466.68	359.59
467.05	357.45
467.42	355.21
467.78	352.94
468.15	350.72
468.52	349.08
468.88	346.71
469.25	344.78
469.62	343.38
469.98	341.71
470.35	340.17
470.72	338.60
471.08	336.86
471.45	335.60
471.82	334.28
472.18	332.77
472.55	331.68
472.92	330.22
473.28	329.11
473.65	328.12
474.02	327.10
474.38	326.33
474.75	325.52
475.11	324.55
475.48	323.86
475.85	323.39
476.21	322.83
476.58	322.40
476.94	321.94
477.31	321.41
477.67	320.96
478.04	320.63
478.41	320.43
478.77	320.67
479.14	320.40
479.50	320.43
479.87	320.45
480.23	320.50
480.60	320.61
480.96	320.63
481.33	320.92
481.69	321.19
482.06	321.41
482.42	321.73
482.79	322.20
483.15	322.71
483.52	323.23
483.88	323.68
484.25	324.30
484.61	325.05
484.98	325.68
485.34	326.61
485.71	327.58
486.07	328.45
486.44	329.08
486.80	330.14
487.17	331.18
487.53	332.64
487.90	334.13
488.26	335.74
488.62	337.35
488.99	338.79
489.35	340.45
489.72	342.39
490.08	344.36
490.44	346.42
490.81	348.66
491.17	350.81
491.54	353.35
491.90	355.92
492.26	358.57
492.63	361.36
492.99	364.25
493.36	367.32
493.72	370.82
494.08	374.33
494.45	378.11
494.81	381.96
495.17	385.71
495.54	389.85
495.90	394.13
496.26	398.67
496.63	403.43
496.99	408.15
497.35	413.08
497.72	418.48
498.08	423.91
498.44	429.65
498.80	435.69
499.17	441.69
499.53	447.99
499.89	454.61
500.26	461.52
500.62	468.49
500.98	475.93
501.34	483.29
501.71	491.02
502.07	498.97
502.43	507.10
502.79	515.57
503.16	524.24
503.52	533.19
503.88	542.36
504.24	552.08
504.60	562.31
504.97	572.74
505.33	583.17
505.69	594.34
506.05	605.23
506.41	616.55
506.78	628.03
507.14	640.03
507.50	652.42
507.86	665.01
508.22	678.20
508.59	691.30
508.95	705.07
509.31	719.14
509.67	733.38
510.03	747.75
510.39	762.62
510.75	777.66
511.12	792.89
511.48	808.64
511.84	824.32
512.20	840.20
512.56	856.39
512.92	873.10
513.28	889.89
513.64	907.49
514.00	925.02
514.37	943.13
514.73	961.45
515.09	979.59
515.45	998.06
515.81	1016.59
516.17	1035.54
516.53	1054.09
516.89	1072.87
517.25	1092.30
517.61	1112.57
517.97	1133.12
518.33	1153.26
518.69	1173.73
519.05	1194.27
519.41	1215.08
519.77	1236.32
520.13	1257.18
520.49	1277.92
520.85	1300.53
521.21	1321.71
521.57	1343.02
521.93	1363.78
522.29	1385.15
522.65	1405.91
523.01	1426.87
523.37	1447.41
523.73	1468.46
524.09	1489.38
524.45	1510.21
524.81	1531.08
525.17	1551.82
525.53	1572.12
525.89	1593.35
526.25	1614.40
526.61	1634.75
526.97	1655.86
527.33	1677.22
527.68	1699.02
528.04	1720.35
528.40	1739.67
528.76	1760.57
529.12	1781.03
529.48	1801.80
529.84	1821.65
530.20	1843.15
530.56	1864.09
530.91	1885.52
531.27	1906.32
531.63	1927.01
531.99	1947.94
532.35	1968.18
532.71	1988.87
533.07	2009.61
533.42	2029.33
533.78	2049.58
534.14	2069.79
534.50	2088.95
534.86	2108.32
535.21	2126.15
535.57	2144.64
535.93	2162.53
536.29	2180.50
536.65	2198.69
537.00	2216.60
537.36	2234.34
537.72	2250.86
538.08	2268.18
538.44	2284.71
538.79	2300.89
539.15	2317.42
539.51	2333.30
539.87	2349.05
540.22	2363.12
540.58	2377.38
540.94	2390.82
541.29	2403.23
541.65	2415.97
542.01	2428.72
542.37	2439.12
542.72	2450.40
543.08	2461.45
543.44	2473.52
543.79	2483.72
544.15	2493.98
544.51	2504.49
544.87	2514.56
545.22	2523.51
545.58	2531.05
545.94	2538.43
546.29	2545.39
546.65	2551.72
547.01	2557.19
547.36	2562.33
547.72	2567.93
548.07	2572.37
548.43	2577.89
548.79	2582.56
549.14	2586.59
549.50	2590.44
549.86	2594.77
550.21	2598.21
550.57	2601.62
550.92	2603.00
551.28	2604.65
551.64	2607.04
551.99	2608.53
552.35	2610.25
552.70	2612.13
553.06	2613.88
553.41	2615.01
553.77	2616.54
554.13	2618.20
554.48	2620.39
554.84	2622.09
555.19	2623.16
555.55	2624.67
555.90	2623.67
556.26	2622.82
556.61	2621.26
556.97	2619.37
557.32	2618.49
557.68	2617.61
558.03	2616.05
558.39	2615.25
558.74	2614.35
559.10	2611.22
559.45	2608.02
559.81	2603.60
560.16	2598.81
560.52	2594.38
560.87	2590.04
561.23	2584.70
561.58	2578.73
561.94	2571.60
562.29	2564.35
562.64	2557.50
563.00	2549.14
563.35	2543.05
563.71	2536.71
564.06	2530.93
564.42	2524.21
564.77	2517.61
565.12	2510.37
565.48	2502.74
565.83	2494.48
566.19	2486.28
566.54	2478.72
566.89	2470.45
567.25	2462.82
567.60	2455.47
567.96	2448.01
568.31	2439.94
568.66	2431.36
569.02	2422.44
569.37	2414.35
569.72	2406.64
570.08	2397.35
570.43	2388.02
570.78	2378.85
571.14	2369.28
571.49	2359.04
571.84	2349.57
572.20	2338.05
572.55	2328.02
572.90	2317.00
573.26	2306.44
573.61	2295.41
573.96	2283.87
574.31	2272.20
574.67	2260.25
575.02	2247.16
575.37	2234.46
575.72	2221.29
576.08	2208.92
576.43	2196.73
576.78	2183.24
577.13	2169.35
577.49	2156.38
577.84	2144.53
578.19	2132.00
578.54	2119.73
578.90	2107.35
579.25	2094.86
579.60	2082.82
579.95	2069.49
580.30	2056.47
580.66	2043.04
581.01	2029.40
581.36	2015.32
581.71	2002.07
582.06	1988.75
582.42	1976.37
582.77	1963.31
583.12	1951.32
583.47	1938.74
583.82	1926.51
584.17	1914.88
584.53	1903.10
584.88	1890.17
585.23	1876.82
585.58	1862.47
585.93	1848.94
586.28	1835.41
586.63	1821.36
586.98	1807.26
587.34	1793.97
587.69	1780.89
588.04	1768.14
588.39	1755.92
588.74	1743.75
589.09	1731.72
589.44	1718.89
589.79	1706.80
590.14	1694.88
590.49	1683.05
590.84	1671.12
591.19	1659.04
591.54	1646.53
591.89	1634.33
592.25	1624.00
592.60	1612.53
592.95	1601.37
593.30	1589.29
593.65	1577.44
594.00	1565.31
594.35	1555.25
594.70	1543.40
595.05	1531.70
595.40	1519.60
595.75	1507.73
596.10	1496.60
596.45	1485.20
596.80	1474.55
597.15	1462.99
597.50	1451.29
597.85	1439.65
598.19	1427.93
598.54	1415.84
598.89	1404.51
599.24	1393.80
599.59	1381.94
599.94	1371.13
600.29	1360.60
600.64	1350.15
600.99	1339.39
601.34	1330.02
601.69	1318.88
602.04	1308.88
602.39	1299.26
602.74	1290.15
603.08	1280.65
603.43	1271.13
603.78	1261.39
604.13	1251.71
604.48	1241.92
604.83	1232.04
605.18	1222.17
605.53	1212.63
605.87	1203.55
606.22	1194.76
606.57	1185.46
606.92	1176.33
607.27	1167.26
607.62	1158.14
607.96	1149.35
608.31	1141.36
608.66	1132.86
609.01	1123.98
609.36	1115.45
609.70	1106.68
610.05	1097.79
610.40	1089.10
610.75	1080.46
611.10	1071.98
611.44	1063.17
611.79	1055.19
612.14	1047.40
612.49	1039.15
612.83	1031.55
613.18	1023.66
613.53	1015.87
613.88	1007.40
614.22	999.48
614.57	991.41
614.92	983.60
615.27	976.11
615.61	968.34
615.96	960.39
616.31	953.01
616.65	945.66
617.00	938.32
617.35	930.84
617.70	923.76
618.04	916.50
618.39	909.43
618.74	902.94
619.08	895.74
619.43	888.48
619.78	881.56
620.12	874.47
620.47	867.43
620.82	860.28
621.16	853.55
621.51	847.26
621.85	840.97
622.20	834.53
622.55	827.80
622.89	821.41
623.24	815.07
623.59	808.50
623.93	802.30
624.28	796.11
624.62	790.61
624.97	784.65
625.32	778.75
625.66	772.71
626.01	766.59
626.35	761.06
626.70	755.48
627.04	750.30
627.39	744.53
627.73	739.41
628.08	734.30
628.43	728.99
628.77	723.36
629.12	718.00
629.46	713.15
629.81	708.34
630.15	703.35
630.50	698.52
630.84	693.57
631.19	688.62
631.53	684.03
631.88	678.66
632.22	673.77
632.57	669.29
632.91	664.66
633.26	660.01
633.60	655.39
633.95	650.47
634.29	645.50
634.64	641.20
634.98	636.46
635.32	631.91
635.67	627.75
636.01	623.41
636.36	619.05
636.70	614.94
637.05	610.78
637.39	606.69
637.73	602.48
638.08	598.63
638.42	594.37
638.77	589.95
639.11	585.71
639.45	581.37
639.80	576.85
640.14	572.66
640.49	568.74
640.83	564.81
641.17	561.33
641.52	557.64
641.86	554.03
642.20	550.66
642.55	546.91
642.89	543.30
643.23	539.93
643.58	536.80
643.92	533.05
644.26	529.56
644.61	526.15
644.95	522.72
645.29	519.21
645.64	516.10
645.98	512.97
646.32	509.97
646.66	506.96
647.01	504.04
647.35	501.34
647.69	498.50
648.04	495.66
648.38	492.79
648.72	489.88
649.06	486.78
649.41	483.62
649.75	480.68
650.09	477.85
650.43	474.92
650.78	471.81
651.12	468.94
651.46	466.16
651.80	463.38
652.14	460.68
652.49	458.20
652.83	455.59
653.17	453.00
653.51	450.38
653.85	447.85
654.20	445.32
654.54	442.55
654.88	439.91
655.22	437.65
655.56	435.13
655.90	432.75
656.25	430.46
656.59	428.17
656.93	425.95
657.27	423.84
657.61	421.45
657.95	419.34
658.29	417.18
658.64	415.09
658.98	412.79
659.32	410.45
659.66	408.21
660.00	406.00
660.34	403.83
660.68	401.83
661.02	399.63
661.36	397.55
661.70	395.65
662.05	393.72
662.39	391.74
662.73	389.93
663.07	388.35
663.41	386.48
663.75	384.64
664.09	382.82
664.43	380.90
664.77	379.15
665.11	377.34
665.45	375.73
665.79	374.00
666.13	372.38
666.47	370.74
666.81	369.08
667.15	367.46
667.49	365.99
667.83	364.60
668.17	363.18
668.51	361.87
668.85	360.50
669.19	359.33
669.53	357.65
669.87	356.10
670.21	354.47
670.55	353.09
670.89	351.94
671.23	350.56
671.57	349.06
671.91	347.75
672.25	346.37
672.58	345.09
672.92	343.69
673.26	342.45
673.60	341.29
673.94	340.08
674.28	338.89
674.62	337.76
674.96	336.36
675.30	335.18
675.64	333.89
675.97	332.63
676.31	331.25
676.65	330.11
676.99	329.19
677.33	327.99
677.67	326.94
678.01	325.67
678.34	324.57
678.68	323.73
679.02	322.68
679.36	321.72
679.70	320.71
680.04	319.78
680.37	318.83
680.71	317.82
681.05	316.97
681.39	316.07
681.73	315.02
682.06	314.13
682.40	313.29
682.74	312.45
683.08	311.70
683.42	310.86
683.75	310.11
684.09	309.13
684.43	308.35
684.77	307.55
685.10	306.77
685.44	306.02
685.78	305.18
686.12	304.33
686.45	303.56
686.79	302.68
687.13	301.98
687.46	301.20
687.80	300.60
688.14	299.70
688.48	298.90
688.81	298.18
689.15	297.63
689.49	296.92
689.82	296.18
690.16	295.27
690.50	294.49
690.83	293.71
691.17	292.95
691.51	292.16
691.84	291.45
692.18	290.70
692.52	290.00
692.85	289.36
693.19	288.97
693.52	288.29
693.86	287.64
694.20	286.99
694.53	286.38
694.87	285.58
695.21	284.98
695.54	284.44
695.88	283.78
696.21	282.91
696.55	282.23
696.88	281.61
697.22	281.02
697.56	280.53
697.89	279.92
698.23	279.45
698.56	278.95
698.90	278.48
699.23	277.99
699.57	277.49
699.90	276.80
700.24	276.12
700.58	275.66
700.91	275.21
701.25	275.04
701.58	274.86
701.92	274.55
702.25	274.07
702.59	273.51
702.92	273.13
703.26	272.76
703.59	272.42
703.93	272.42
704.26	272.07
704.60	271.61
704.93	271.17
705.26	270.63
705.60	270.31
705.93	269.70
706.27	269.41
706.60	269.10
706.94	268.91
707.27	268.52
707.61	268.17
707.94	267.76
708.27	267.04
708.61	266.35
708.94	265.92
709.28	265.53
709.61	265.18
709.94	264.77
710.28	264.48
710.61	264.02
710.95	263.20
711.28	263.10
711.61	262.66
711.95	262.48
712.28	262.09
712.61	261.67
712.95	261.73
713.28	261.52
713.61	261.09
713.95	260.66
714.28	260.31
714.61	259.85
714.95	259.47
715.28	259.04
715.61	258.74
715.95	258.41
716.28	258.12
716.61	257.83
716.95	257.47
717.28	256.96
717.61	256.68
717.94	256.37
718.28	255.80
718.61	255.56
718.94	255.18
719.27	254.96
719.61	254.73
719.94	254.24
720.27	253.78
720.60	253.45
720.94	253.25
721.27	253.10
721.60	253.05
721.93	252.85
722.27	252.84
722.60	252.60
722.93	252.33
723.26	252.16
723.59	251.85
723.93	251.78
724.26	251.74
724.59	251.50
724.92	251.31
725.25	251.27
725.59	251.08
725.92	250.87
726.25	250.68
726.58	250.54
726.91	250.40
727.24	250.25
727.57	250.10
727.91	249.72
728.24	249.58
728.57	249.25
728.90	249.17
729.23	248.76
729.56	248.75
729.89	248.68
730.22	248.49
730.55	248.35
730.89	248.11
731.22	247.87
731.55	247.71
731.88	247.56
732.21	247.25
732.54	247.04
732.87	246.92
733.20	246.73
733.53	246.50
733.86	246.30
734.19	246.03
734.52	246.00
734.85	246.25
735.18	246.00
735.51	246.01
735.84	245.87
736.17	245.92
736.50	245.57
736.83	245.87
737.16	245.71
737.49	245.65
737.82	245.45
738.15	245.35
738.48	245.20
738.81	245.05
739.14	244.92
739.47	244.75
739.80	244.54
740.13	244.46
740.46	244.26
740.79	244.03
741.12	243.95
741.45	243.69
741.78	243.27
742.11	243.30
742.44	243.03
742.77	242.92
743.10	242.69
743.43	242.53
743.75	241.88
744.08	242.30
744.41	242.10
744.74	241.98
745.07	241.73
745.40	241.68
745.73	241.75
746.06	241.53
746.39	241.55
746.71	241.40
747.04	241.21
747.37	241.10
747.70	241.01
748.03	240.89
748.36	240.85
748.68	240.65
749.01	240.28
749.34	240.17
749.67	240.04
750.00	239.96
750.33	240.23
750.65	240.19
750.98	239.51
751.31	239.36
751.64	239.27
751.97	239.45
752.29	239.28
752.62	238.95
752.95	238.82
753.28	238.60
753.60	238.48
753.93	238.57
754.26	238.50
754.59	238.22
754.91	238.05
755.24	237.88
755.57	237.83
755.90	237.75
756.22	237.63
756.55	237.40
756.88	237.22
757.20	236.78
757.53	236.48
757.86	236.35
758.19	236.28
758.51	236.15
758.84	235.88
759.17	235.71
759.49	235.68
759.82	235.84
760.15	235.80
760.47	235.74
760.80	235.46
761.13	235.46
761.45	235.48
761.78	235.43
762.11	235.35
762.43	235.19
762.76	235.06
763.08	235.00
763.41	234.97
763.74	234.92
764.06	234.83
764.39	234.87
764.71	234.86
765.04	234.76
765.37	234.63
765.69	234.55
766.02	234.45
766.34	234.30
766.67	234.03
767.00	233.99
767.32	234.15
767.65	234.38
767.97	234.24
768.30	234.21
768.62	234.14
768.95	234.05
769.27	234.06
769.60	234.13
769.92	234.02
770.25	233.89
770.57	233.75
770.90	233.71
771.22	233.64
771.55	233.55
771.87	233.48
772.20	233.50
772.52	233.79
772.85	234.32
773.17	234.32
773.50	234.29
773.82	234.16
774.15	233.88
774.47	233.58
774.80	233.48
775.12	233.36
775.45	233.28
775.77	233.27
776.09	233.25
776.42	233.13
776.74	233.22
777.07	233.11
777.39	233.10
777.72	232.95
778.04	232.95
778.36	232.80
778.69	232.89
779.01	232.84
779.33	232.46
779.66	231.88
779.98	231.78
780.31	231.76
780.63	231.93
780.95	232.00
781.28	231.89
781.60	231.79
781.92	231.74
782.25	231.71
782.57	231.68
782.89	231.62
783.22	231.59
783.54	231.40
783.86	231.46
784.19	231.33
784.51	231.45
784.83	231.21
785.16	231.22
785.48	231.08
785.80	231.06
786.12	231.01
786.45	231.02
786.77	231.04
787.09	230.91
787.42	230.69
787.74	230.61
788.06	230.61
788.38	230.53
788.71	230.47
789.03	230.49
789.35	230.48
789.67	230.33
789.99	230.32
790.32	230.32
790.64	230.32
790.96	230.72
791.28	230.63
791.61	230.64
791.93	230.69
792.25	230.62
792.57	230.88
792.89	230.78
793.21	230.77
793.54	230.70
793.86	230.66
794.18	230.70
794.50	230.66
794.82	230.65
795.14	230.74
795.47	230.82
795.79	230.73
796.11	230.54
796.43	230.50
796.75	230.50
797.07	230.44
797.39	230.35
797.71	230.03
798.04	229.91
798.36	229.95
798.68	229.90
799.00	229.95
799.32	229.73
799.64	229.75
799.96	229.68
800.28	229.76
800.60	229.65
800.92	229.62
801.24	229.45
801.56	229.45
801.89	229.39
802.21	229.38
802.53	229.25
802.85	229.40
803.17	229.65
803.49	229.42
803.81	229.35
804.13	229.31
804.45	229.18
804.77	229.26
805.09	229.25
805.41	229.08
805.73	229.00
806.05	228.78
806.37	228.78
806.69	228.74
807.01	228.66
807.33	228.73
807.65	228.56
807.97	228.87
808.28	228.81
808.60	228.77
808.92	228.70
809.24	229.05
809.56	228.96
809.88	228.75
810.20	228.88
810.52	228.99
810.84	228.95
811.16	228.87
811.48	228.83
811.80	228.99
812.12	229.03
812.43	229.04
812.75	229.16
813.07	229.10
813.39	229.15
813.71	229.02
814.03	229.01
814.35	229.05
814.67	228.75
814.98	228.70
815.30	228.66
815.62	228.54
815.94	228.22
816.26	228.38
816.58	228.25
816.89	228.23
817.21	228.10
817.53	228.15
817.85	228.20
818.17	228.12
818.48	227.88
818.80	228.00
819.12	227.92
819.44	227.79
819.76	227.78
820.07	227.75
820.39	227.74
820.71	227.80
821.03	227.78
821.34	227.84
821.66	227.93
821.98	228.00
822.30	228.01
822.61	228.38
822.93	228.20
823.25	228.24
823.57	228.19
823.88	228.26
824.20	228.26
824.52	228.27
824.83	228.23
825.15	228.21
825.47	228.13
825.79	228.18
826.10	228.19
826.42	228.12
826.74	228.10
827.05	228.09
827.37	228.02
827.69	227.98
828.00	228.01
828.32	227.94
828.64	227.95
828.95	228.23
829.27	228.05
829.58	227.97
829.90	228.08
830.22	228.11
830.53	228.09
830.85	227.99
831.17	227.93
831.48	228.01
831.80	228.06
832.11	227.95
832.43	228.01
832.75	227.98
833.06	228.22
833.38	228.15
833.69	228.13
834.01	228.21
834.32	228.23
834.64	228.10
834.96	228.12
835.27	228.09
835.59	227.89
835.90	227.83
836.22	227.85
836.53	227.67
836.85	227.69
837.16	228.11
837.48	228.19
837.79	228.33
838.11	228.33
838.42	228.24
838.74	228.38
839.05	228.23
839.37	228.23
839.68	228.04
840.00	227.98
840.31	228.06
840.63	227.98
840.94	227.83
841.26	227.82
841.57	227.73
841.88	227.80
842.20	227.75
842.51	227.63
842.83	227.60
843.14	228.06
843.46	228.00
843.77	227.72
844.08	227.63
844.40	227.52
844.71	227.43
845.03	227.54
845.34	227.50
845.65	227.44
845.97	227.44
846.28	227.40
846.60	227.48
846.91	227.48
847.22	227.45
847.54	227.63
847.85	227.67
848.16	227.71
848.48	227.61
848.79	227.77
849.10	227.80
849.42	227.85
849.73	227.34
850.04	227.34
850.36	227.19
850.67	227.27
850.98	227.24
851.30	227.32
851.61	227.25
851.92	227.26
852.23	227.42
852.55	227.45
852.86	227.50
853.17	227.55
853.49	227.60
853.80	227.76
854.11	227.80
854.42	227.90
854.74	227.83
855.05	227.82
855.36	227.63
855.67	227.65
855.99	227.72
856.30	228.42
856.61	228.40
856.92	228.40
857.23	228.45
857.55	228.40
857.86	228.32
858.17	228.40
858.48	228.25
858.79	228.26
859.11	228.32
859.42	228.27
859.73	228.16
860.04	228.17
860.35	227.93
860.66	227.75
860.98	227.69
861.29	227.79
861.60	227.71
861.91	227.77
862.22	227.69
862.53	227.58
862.84	226.97
863.16	227.09
863.47	226.98
863.78	226.91
864.09	226.96
864.40	227.06
864.71	226.98
865.02	227.15
865.33	227.05
865.64	226.95
865.95	226.90
866.27	227.19
866.58	227.12
866.89	227.19
867.20	227.20
867.51	227.14
867.82	227.08
868.13	227.19
868.44	227.10
868.75	227.16
869.06	227.21
869.37	227.20
869.68	227.02
869.99	227.17
870.30	227.17
870.61	227.24
870.92	227.12
871.23	227.03
871.54	226.95
871.85	227.02
872.16	227.07
872.47	227.14
872.78	226.88
873.09	226.92
873.40	226.90
873.71	226.94
874.02	226.99
874.33	226.91
874.64	226.76
874.95	226.89
875.26	226.72
875.56	226.68
875.87	226.70
876.18	226.67
876.49	227.00
876.80	227.06
877.11	226.98
877.42	227.01
877.73	227.13
878.04	227.14
878.35	227.15
878.66	227.16
878.96	227.07
879.27	227.07
879.58	226.97
879.89	226.96
880.20	227.14
880.51	227.04
880.82	227.03
881.12	227.15
881.43	226.94
881.74	226.94
882.05	226.86
882.36	226.87
882.67	226.93
882.97	226.50
883.28	226.34
883.59	226.28
883.90	226.29
884.21	226.30
884.51	226.21
884.82	226.14
885.13	226.10
885.44	226.15
885.74	226.19
886.05	226.24
886.36	226.29
886.67	226.04
886.98	226.30
887.28	226.39
887.59	226.40
887.90	226.52
888.20	226.56
888.51	226.69
888.82	226.64
889.13	226.66
889.43	227.07
889.74	227.09
890.05	227.16
890.35	227.12
890.66	227.09
890.97	227.09
891.28	227.04
891.58	227.07
891.89	227.02
892.20	226.93
892.50	226.91
892.81	226.87
893.12	226.87
893.42	226.71
893.73	226.68
894.04	226.70
894.34	226.65
894.65	226.70
894.95	226.60
895.26	226.60
895.57	226.80
895.87	226.42
896.18	226.48
896.48	226.40
896.79	226.44
897.10	226.44
897.40	226.51
897.71	226.57
898.01	226.56
898.32	226.64
898.63	226.62
898.93	226.61
899.24	226.60
899.54	226.65
899.85	226.65
900.15	226.71
900.46	226.67
900.76	226.83
901.07	226.83
901.38	226.88
901.68	226.96
901.99	226.78
902.29	226.71
902.60	226.67
902.90	226.70
903.21	226.72
903.51	226.78
903.82	226.95
904.12	226.96
904.43	226.99
904.73	226.93
905.03	226.98
905.34	227.50
905.64	227.47
905.95	227.43
906.25	227.37
906.56	227.35
906.86	227.31
907.17	227.25
907.47	227.25
907.77	227.23
908.08	227.08
908.38	227.08
908.69	227.19
908.99	227.27
909.30	227.29
909.60	227.29
909.90	227.29
910.21	227.07
910.51	227.05
910.81	227.01
911.12	227.03
911.42	227.04
911.73	226.52
912.03	226.60
912.33	226.72
912.64	226.73
912.94	226.68
913.24	226.68
913.55	226.63
913.85	226.54
914.15	226.59
914.46	226.73
914.76	226.66
915.06	226.61
915.37	226.62
915.67	226.64
915.97	226.65
916.27	226.55
916.58	226.54
916.88	226.55
917.18	226.59
917.49	226.91
917.79	226.95
918.09	227.00
918.39	227.12
918.70	227.10
919.00	227.13
919.30	227.33
919.60	227.27
919.91	227.22
920.21	227.26
920.51	227.23
920.81	227.19
921.12	227.28
921.42	227.31
921.72	227.28
922.02	227.25
922.32	227.26
922.63	227.22
922.93	227.49
923.23	227.39
923.53	227.33
923.83	227.05
924.13	227.03
924.44	227.01
924.74	227.10
925.04	227.20
925.34	227.19
925.64	227.02
925.94	227.06
926.24	227.34
926.55	227.39
926.85	227.46
927.15	227.43
927.45	227.43
927.75	227.37
928.05	227.35
928.35	227.30
928.65	227.38
928.95	227.48
929.26	227.31
929.56	227.42
929.86	227.49
930.16	227.44
930.46	227.43
930.76	227.44
931.06	227.20
931.36	227.04
931.66	227.07
931.96	227.07
932.26	227.06
932.56	226.85
932.86	226.81
933.16	226.81
933.46	226.78
933.76	226.71
934.06	226.84
934.36	227.03
934.66	227.07
934.96	226.92
935.26	226.95
935.56	226.96
935.86	226.90
936.16	226.80
936.46	226.73
936.76	226.74
937.06	226.62
937.36	226.61
937.66	226.64
937.96	226.64
938.26	226.62
938.56	226.60
938.86	226.55
939.16	226.70
939.46	226.72
939.76	226.80
940.06	226.84
940.35	226.75
940.65	226.55
940.95	226.56
941.25	226.51
941.55	226.42
941.85	226.43
942.15	226.42
942.45	226.59
942.75	226.63
943.04	226.62
943.34	226.79
943.64	226.70
943.94	226.65
944.24	226.58
944.54	226.55
944.84	226.61
945.13	226.60
945.43	226.42
945.73	226.38
946.03	226.30
946.33	226.22
946.62	226.14
946.92	226.03
947.22	226.05
947.52	226.08
947.82	226.20
948.11	226.12
948.41	226.03
948.71	225.93
949.01	225.97
949.31	225.94
949.60	225.90
949.90	225.98
950.20	225.96
950.50	226.03
950.79	226.02
951.09	226.00
951.39	225.97
951.69	225.93
951.98	225.95
952.28	225.97
952.58	225.92
952.87	225.97
953.17	226.14
953.47	226.08
953.76	226.08
954.06	225.96
954.36	225.95
954.66	225.97
954.95	226.13
955.25	226.10
955.55	226.11
955.84	226.04
956.14	226.07
956.44	226.12
956.73	225.98
957.03	225.99
957.32	226.07
957.62	226.04
957.92	226.17
958.21	226.14
958.51	226.70
958.81	226.83
959.10	226.85
959.40	226.89
959.69	226.95
959.99	227.04
960.29	227.09
960.58	227.10
960.88	227.34
961.17	227.18
961.47	227.25
961.76	227.18
962.06	227.26
962.36	227.25
962.65	227.30
962.95	227.38
963.24	227.34
963.54	227.36
963.83	227.39
964.13	227.40
964.42	227.39
964.72	226.97
965.01	226.98
965.31	226.98
965.60	226.89
965.90	227.24
966.19	227.15
966.49	227.16
966.78	227.06
967.08	226.93
967.37	226.95
967.67	226.88
967.96	227.02
968.26	227.02
968.55	227.06
968.85	227.01
969.14	227.10
969.43	227.10
969.73	226.99
970.02	227.01
970.32	227.01
970.61	227.00
970.91	226.90
971.20	226.79
971.49	226.76
971.79	226.87
972.08	226.45
972.38	226.48
972.67	226.46
972.96	226.62
973.26	226.52
973.55	226.69
973.85	226.70
974.14	226.68
974.43	226.70
974.73	226.66
975.02	226.60
975.31	226.53
975.61	226.55
975.90	226.47
976.19	226.47
976.49	226.48
976.78	226.43
977.07	226.41
977.37	226.54
977.66	226.55
977.95	226.40
978.24	226.52
978.54	226.59
978.83	226.55
979.12	226.50
979.42	226.64
979.71	226.49
980.00	226.44
980.29	226.40
980.59	226.31
980.88	226.36
981.17	226.39
981.46	226.38
981.76	226.39
982.05	226.63
982.34	226.66
982.63	226.66
982.93	226.74
983.22	226.89
983.51	226.80
983.80	226.87
984.09	226.99
984.39	226.93
984.68	226.87
984.97	226.89
985.26	226.87
985.55	226.81
985.85	226.71
986.14	226.82
986.43	226.85
986.72	226.81
987.01	226.68
987.30	226.75
987.59	226.67
987.89	226.64
988.18	226.46
988.47	226.43
988.76	226.37
989.05	226.25
989.34	226.12
989.63	226.28
989.92	226.17
990.22	226.08
990.51	226.01
990.80	225.98
991.09	225.97
991.38	225.98
991.67	225.97
991.96	225.93
992.25	225.90
992.54	225.70
992.83	225.67
993.12	225.63
993.41	225.54
993.70	225.75
993.99	225.87
994.28	225.93
994.58	225.99
994.87	225.95
995.16	225.92
995.45	225.91
995.74	225.76
996.03	225.85
996.32	225.90
996.61	226.04
996.90	226.05
997.19	226.04
997.48	226.02
997.77	226.01
998.06	226.06
998.34	226.04
998.63	226.17
998.92	226.18
999.21	226.32
999.50	226.36
999.79	226.20
1000.08	226.12
1000.37	226.15
1000.66	226.05
1000.95	226.22
1001.24	226.29
1001.53	226.29
1001.82	226.17
1002.11	226.08
1002.40	226.24
1002.68	226.39
1002.97	226.68
1003.26	226.69
1003.55	226.62
1003.84	226.59
1004.13	226.78
1004.42	226.81
1004.71	226.78
1004.99	226.85
1005.28	226.93
1005.57	226.91
1005.86	226.85
1006.15	226.87
1006.44	226.75
1006.72	226.82
1007.01	226.71
1007.30	226.70
1007.59	226.71
1007.88	226.76
1008.17	226.87
1008.45	226.62
1008.74	226.39
1009.03	226.15
1009.32	226.15
1009.60	226.20
1009.89	226.24
1010.18	226.05
1010.47	225.98
1010.76	226.05
1011.04	225.98
1011.33	226.03
1011.62	226.13
1011.91	226.26
1012.19	226.29
1012.48	226.28
1012.77	226.32
1013.05	226.50
1013.34	226.54
1013.63	226.58
1013.92	226.60
1014.20	226.51
1014.49	226.62
1014.78	226.62
1015.06	226.44
1015.35	226.43
1015.64	226.45
1015.92	226.46
1016.21	226.44
1016.50	226.45
1016.78	226.53
1017.07	226.61
1017.36	226.42
1017.64	226.32
1017.93	226.29
1018.22	226.19
1018.50	226.24
1018.79	226.17
1019.08	225.97
1019.36	225.97
1019.65	225.87
1019.93	226.06
1020.22	226.14
1020.51	226.36
1020.79	226.35
1021.08	224.60
1021.36	225.45
1021.65	225.60
1021.94	226.05
1022.22	226.25
1022.51	225.35
1022.79	229.60
1023.08	227.10
1023.36	231.95
1023.65	226.15
>>>>>End Processed Spectral Data<<<<<
