SpectraSuite Data File
++++++++++++++++++++++++++++++++++++
Date: Wed Sep 04 17:52:34 EDT 2013
User: lab3
Dark Spectrum Present: Yes
Reference Spectrum Present: No
Number of Sampled Component Spectra: 1
Spectrometers: USB2E7196
Integration Time (usec): 170000 (USB2E7196)
Spectra Averaged: 20 (USB2E7196)
Boxcar Smoothing: 10 (USB2E7196)
Correct for Electrical Dark: No (USB2E7196)
Strobe/Lamp Enabled: No (USB2E7196)
Correct for Detector Non-linearity: No (USB2E7196)
Correct for Stray Light: No (USB2E7196)
Number of Pixels in Processed Spectrum: 2048
>>>>>Begin Processed Spectral Data<<<<<
339.09	0.00
339.48	213.60
339.86	214.20
340.24	215.30
340.63	217.35
341.01	225.15
341.39	220.05
341.78	223.30
342.16	223.55
342.54	224.75
342.93	212.61
343.31	223.35
343.69	223.84
344.07	224.36
344.46	224.85
344.84	225.22
345.22	225.19
345.60	225.47
345.99	225.62
346.37	225.71
346.75	225.74
347.13	225.80
347.52	225.82
347.90	225.97
348.28	225.99
348.66	226.14
349.05	226.05
349.43	226.19
349.81	226.18
350.19	226.20
350.57	226.21
350.96	226.25
351.34	226.30
351.72	226.43
352.10	226.46
352.48	226.47
352.87	226.54
353.25	226.63
353.63	226.64
354.01	226.67
354.39	226.76
354.77	226.77
355.15	227.00
355.54	227.10
355.92	227.04
356.30	227.15
356.68	227.49
357.06	227.58
357.44	227.47
357.82	227.56
358.20	228.05
358.58	228.13
358.97	228.21
359.35	228.34
359.73	228.46
360.11	228.57
360.49	228.71
360.87	228.74
361.25	228.91
361.63	229.11
362.01	229.25
362.39	229.26
362.77	229.40
363.15	229.39
363.53	229.44
363.91	229.45
364.29	229.44
364.67	228.98
365.05	228.96
365.43	229.05
365.81	229.16
366.19	228.97
366.57	229.14
366.95	229.17
367.33	229.11
367.71	229.05
368.09	229.19
368.47	229.13
368.85	229.14
369.23	229.19
369.61	229.10
369.99	229.15
370.37	229.18
370.75	229.40
371.13	229.27
371.51	229.20
371.89	229.26
372.27	229.23
372.65	229.22
373.03	229.25
373.41	229.18
373.78	229.07
374.16	228.76
374.54	228.54
374.92	228.41
375.30	228.33
375.68	228.27
376.06	228.17
376.44	228.11
376.82	228.05
377.19	228.00
377.57	227.93
377.95	227.69
378.33	227.59
378.71	227.25
379.09	227.30
379.47	227.23
379.84	227.11
380.22	227.04
380.60	226.97
380.98	226.84
381.36	226.78
381.73	226.64
382.11	226.63
382.49	226.64
382.87	226.55
383.25	226.54
383.62	227.02
384.00	226.77
384.38	226.74
384.76	226.85
385.13	226.95
385.51	226.80
385.89	226.75
386.27	226.72
386.64	226.71
387.02	226.54
387.40	226.48
387.78	226.48
388.15	226.42
388.53	226.38
388.91	226.42
389.29	226.38
389.66	226.50
390.04	226.46
390.42	226.47
390.79	226.46
391.17	226.43
391.55	225.90
391.92	225.95
392.30	225.99
392.68	225.87
393.05	225.76
393.43	225.83
393.81	225.85
394.18	225.76
394.56	225.81
394.94	226.01
395.31	226.00
395.69	226.17
396.06	226.28
396.44	226.29
396.82	226.24
397.19	226.53
397.57	226.49
397.95	226.67
398.32	226.66
398.70	226.82
399.07	227.00
399.45	227.02
399.82	227.15
400.20	227.26
400.58	227.34
400.95	227.31
401.33	227.58
401.70	228.15
402.08	228.41
402.45	228.53
402.83	228.75
403.20	228.95
403.58	229.01
403.95	229.27
404.33	229.59
404.71	229.85
405.08	230.30
405.46	230.54
405.83	230.79
406.21	231.00
406.58	231.30
406.96	231.51
407.33	231.84
407.70	232.19
408.08	232.84
408.45	233.29
408.83	233.72
409.20	234.04
409.58	234.08
409.95	234.56
410.33	235.19
410.70	235.55
411.08	236.16
411.45	236.81
411.82	237.39
412.20	238.06
412.57	239.05
412.95	239.35
413.32	240.24
413.69	241.01
414.07	241.96
414.44	242.89
414.82	243.95
415.19	245.18
415.56	246.35
415.94	247.36
416.31	248.81
416.68	250.26
417.06	251.86
417.43	253.55
417.81	255.26
418.18	256.97
418.55	258.92
418.93	260.97
419.30	263.02
419.67	265.15
420.04	267.45
420.42	269.76
420.79	272.86
421.16	275.67
421.54	278.67
421.91	281.60
422.28	284.74
422.66	287.93
423.03	291.40
423.40	294.75
423.77	298.23
424.15	301.77
424.52	305.55
424.89	309.65
425.26	313.55
425.64	317.31
426.01	321.40
426.38	325.78
426.75	330.29
427.13	334.77
427.50	339.63
427.87	344.50
428.24	349.37
428.61	353.80
428.99	358.95
429.36	364.45
429.73	369.93
430.10	375.40
430.47	381.06
430.85	386.68
431.22	392.85
431.59	399.68
431.96	405.90
432.33	412.85
432.70	419.55
433.08	427.44
433.45	434.78
433.82	442.21
434.19	450.32
434.56	458.38
434.93	466.11
435.30	473.66
435.68	482.27
436.05	490.63
436.42	498.97
436.79	506.70
437.16	515.03
437.53	523.73
437.90	532.41
438.27	541.06
438.64	549.95
439.01	558.13
439.38	565.20
439.75	572.36
440.13	580.29
440.50	587.81
440.87	593.70
441.24	600.20
441.61	607.19
441.98	612.38
442.35	618.13
442.72	624.11
443.09	630.14
443.46	633.40
443.83	635.76
444.20	637.65
444.57	640.35
444.94	641.37
445.31	642.61
445.68	643.97
446.05	644.07
446.42	642.69
446.79	641.35
447.16	639.85
447.53	638.49
447.90	634.80
448.27	631.17
448.64	626.35
449.01	622.59
449.37	616.47
449.74	610.46
450.11	603.64
450.48	595.90
450.85	587.74
451.22	581.17
451.59	574.56
451.96	568.31
452.33	560.16
452.70	552.90
453.07	544.13
453.43	535.07
453.80	526.74
454.17	518.83
454.54	511.14
454.91	502.97
455.28	495.07
455.65	487.68
456.02	480.83
456.38	474.55
456.75	466.96
457.12	460.47
457.49	454.14
457.86	447.79
458.23	442.71
458.59	437.11
458.96	431.15
459.33	426.05
459.70	420.96
460.07	416.97
460.43	412.29
460.80	408.09
461.17	404.37
461.54	400.42
461.91	396.62
462.27	392.78
462.64	389.55
463.01	385.97
463.38	382.71
463.74	378.69
464.11	375.70
464.48	373.00
464.85	370.10
465.21	367.87
465.58	365.60
465.95	362.75
466.32	360.54
466.68	358.32
467.05	356.07
467.42	354.02
467.78	351.60
468.15	349.39
468.52	347.82
468.88	345.55
469.25	343.68
469.62	342.26
469.98	340.62
470.35	338.99
470.72	337.57
471.08	335.83
471.45	334.63
471.82	333.35
472.18	331.89
472.55	330.89
472.92	329.65
473.28	328.44
473.65	327.33
474.02	326.29
474.38	325.50
474.75	324.75
475.11	323.80
475.48	323.23
475.85	322.62
476.21	321.92
476.58	321.53
476.94	321.06
477.31	320.50
477.67	320.07
478.04	319.88
478.41	319.77
478.77	320.12
479.14	319.78
479.50	319.80
479.87	319.91
480.23	319.88
480.60	319.88
480.96	320.01
481.33	320.45
481.69	320.68
482.06	320.85
482.42	321.22
482.79	321.66
483.15	322.15
483.52	322.90
483.88	323.49
484.25	323.94
484.61	324.63
484.98	325.32
485.34	326.31
485.71	327.21
486.07	328.19
486.44	328.65
486.80	329.78
487.17	330.84
487.53	332.16
487.90	333.66
488.26	335.29
488.62	337.01
488.99	338.53
489.35	340.26
489.72	342.08
490.08	343.96
490.44	345.87
490.81	348.04
491.17	350.17
491.54	352.66
491.90	355.30
492.26	357.95
492.63	360.83
492.99	363.66
493.36	366.80
493.72	369.99
494.08	373.57
494.45	377.28
494.81	381.07
495.17	384.89
495.54	388.94
495.90	393.14
496.26	397.45
496.63	402.06
496.99	406.82
497.35	411.97
497.72	417.14
498.08	422.62
498.44	428.25
498.80	434.27
499.17	440.24
499.53	446.44
499.89	452.98
500.26	459.65
500.62	466.52
500.98	473.90
501.34	481.39
501.71	489.24
502.07	496.91
502.43	505.05
502.79	513.46
503.16	522.20
503.52	531.22
503.88	540.44
504.24	550.00
504.60	560.04
504.97	570.23
505.33	580.89
505.69	591.93
506.05	602.93
506.41	614.20
506.78	625.77
507.14	637.88
507.50	650.08
507.86	662.73
508.22	675.92
508.59	688.56
508.95	702.12
509.31	716.02
509.67	730.47
510.03	744.72
510.39	759.40
510.75	774.22
511.12	789.31
511.48	804.94
511.84	820.65
512.20	836.49
512.56	852.95
512.92	869.47
513.28	886.17
513.64	903.60
514.00	920.94
514.37	938.44
514.73	956.37
515.09	974.77
515.45	993.18
515.81	1011.39
516.17	1030.50
516.53	1049.05
516.89	1067.60
517.25	1086.67
517.61	1106.88
517.97	1127.18
518.33	1147.30
518.69	1167.66
519.05	1188.11
519.41	1208.66
519.77	1229.64
520.13	1250.01
520.49	1270.54
520.85	1292.79
521.21	1313.70
521.57	1334.91
521.93	1355.68
522.29	1377.08
522.65	1397.48
523.01	1418.11
523.37	1438.79
523.73	1459.54
524.09	1480.20
524.45	1500.90
524.81	1521.76
525.17	1542.39
525.53	1562.78
525.89	1583.52
526.25	1604.32
526.61	1624.63
526.97	1645.80
527.33	1666.99
527.68	1688.74
528.04	1709.90
528.40	1729.41
528.76	1750.38
529.12	1770.46
529.48	1791.47
529.84	1811.31
530.20	1832.50
530.56	1853.54
530.91	1874.36
531.27	1894.61
531.63	1915.04
531.99	1935.60
532.35	1955.38
532.71	1975.43
533.07	1996.11
533.42	2015.88
533.78	2035.59
534.14	2055.21
534.50	2074.03
534.86	2093.01
535.21	2110.58
535.57	2128.96
535.93	2146.63
536.29	2164.16
536.65	2182.34
537.00	2199.84
537.36	2217.16
537.72	2233.53
538.08	2250.10
538.44	2266.42
538.79	2282.59
539.15	2298.62
539.51	2314.41
539.87	2329.45
540.22	2342.79
540.58	2356.87
540.94	2370.15
541.29	2382.44
541.65	2395.26
542.01	2407.59
542.37	2418.05
542.72	2429.06
543.08	2439.39
543.44	2450.67
543.79	2460.56
544.15	2470.57
544.51	2480.32
544.87	2490.03
545.22	2498.57
545.58	2506.59
545.94	2513.97
546.29	2520.50
546.65	2526.94
547.01	2532.39
547.36	2537.98
547.72	2543.53
548.07	2547.06
548.43	2552.34
548.79	2557.09
549.14	2560.54
549.50	2564.19
549.86	2568.22
550.21	2571.94
550.57	2575.38
550.92	2576.70
551.28	2578.17
551.64	2580.26
551.99	2582.10
552.35	2583.20
552.70	2585.34
553.06	2586.81
553.41	2587.76
553.77	2589.54
554.13	2591.31
554.48	2593.01
554.84	2594.57
555.19	2595.99
555.55	2597.70
555.90	2596.86
556.26	2596.06
556.61	2594.57
556.97	2592.60
557.32	2591.40
557.68	2590.04
558.03	2588.65
558.39	2587.41
558.74	2586.47
559.10	2583.21
559.45	2579.62
559.81	2575.15
560.16	2569.72
560.52	2564.66
560.87	2560.32
561.23	2554.87
561.58	2548.54
561.94	2541.25
562.29	2533.61
562.64	2526.53
563.00	2518.55
563.35	2512.03
563.71	2505.25
564.06	2499.19
564.42	2492.54
564.77	2486.16
565.12	2478.47
565.48	2470.87
565.83	2463.06
566.19	2454.80
566.54	2446.76
566.89	2438.80
567.25	2431.50
567.60	2424.33
567.96	2417.03
568.31	2408.83
568.66	2400.20
569.02	2391.62
569.37	2383.77
569.72	2376.30
570.08	2367.21
570.43	2357.77
570.78	2348.78
571.14	2339.38
571.49	2329.42
571.84	2319.81
572.20	2309.05
572.55	2299.11
572.90	2288.38
573.26	2278.04
573.61	2267.12
573.96	2256.12
574.31	2243.93
574.67	2231.88
575.02	2219.58
575.37	2206.67
575.72	2193.61
576.08	2181.68
576.43	2168.97
576.78	2155.87
577.13	2142.31
577.49	2129.84
577.84	2117.93
578.19	2105.49
578.54	2093.08
578.90	2080.98
579.25	2068.97
579.60	2056.39
579.95	2043.39
580.30	2030.22
580.66	2016.81
581.01	2003.26
581.36	1989.47
581.71	1977.19
582.06	1964.56
582.42	1952.12
582.77	1939.62
583.12	1928.01
583.47	1915.78
583.82	1904.02
584.17	1891.91
584.53	1880.14
584.88	1867.14
585.23	1854.01
585.58	1840.09
585.93	1826.80
586.28	1813.68
586.63	1799.90
586.98	1785.65
587.34	1772.64
587.69	1759.32
588.04	1746.72
588.39	1734.59
588.74	1722.77
589.09	1710.68
589.44	1697.77
589.79	1685.67
590.14	1673.96
590.49	1661.74
590.84	1649.77
591.19	1637.64
591.54	1625.50
591.89	1613.40
592.25	1603.11
592.60	1591.72
592.95	1580.43
593.30	1568.55
593.65	1556.55
594.00	1544.36
594.35	1534.66
594.70	1522.44
595.05	1511.45
595.40	1499.66
595.75	1487.78
596.10	1476.35
596.45	1464.92
596.80	1454.14
597.15	1442.74
597.50	1431.01
597.85	1419.60
598.19	1407.92
598.54	1396.32
598.89	1385.37
599.24	1374.73
599.59	1363.28
599.94	1352.58
600.29	1342.34
600.64	1332.12
600.99	1321.30
601.34	1311.83
601.69	1300.68
602.04	1291.15
602.39	1281.38
602.74	1272.24
603.08	1263.20
603.43	1253.85
603.78	1244.00
604.13	1234.61
604.48	1224.91
604.83	1215.07
605.18	1205.57
605.53	1196.16
605.87	1186.91
606.22	1178.39
606.57	1169.02
606.92	1159.73
607.27	1150.70
607.62	1141.92
607.96	1133.47
608.31	1125.75
608.66	1117.41
609.01	1108.99
609.36	1100.84
609.70	1092.25
610.05	1083.56
610.40	1074.99
610.75	1066.25
611.10	1057.98
611.44	1049.35
611.79	1041.19
612.14	1033.52
612.49	1025.54
612.83	1018.12
613.18	1010.51
613.53	1002.73
613.88	995.11
614.22	987.36
614.57	979.53
614.92	971.63
615.27	964.12
615.61	956.48
615.96	948.89
616.31	941.35
616.65	934.04
617.00	926.78
617.35	919.55
617.70	912.46
618.04	905.50
618.39	898.58
618.74	892.33
619.08	885.56
619.43	878.58
619.78	871.77
620.12	864.55
620.47	857.68
620.82	850.47
621.16	843.65
621.51	837.40
621.85	831.27
622.20	824.83
622.55	818.35
622.89	811.94
623.24	805.51
623.59	799.35
623.93	793.16
624.28	787.18
624.62	781.67
624.97	776.01
625.32	770.31
625.66	764.51
626.01	758.43
626.35	753.02
626.70	747.44
627.04	742.14
627.39	736.71
627.73	731.54
628.08	726.52
628.43	721.13
628.77	715.66
629.12	710.29
629.46	705.41
629.81	700.67
630.15	695.99
630.50	691.17
630.84	686.41
631.19	681.77
631.53	677.10
631.88	671.80
632.22	666.90
632.57	662.51
632.91	657.94
633.26	653.55
633.60	648.71
633.95	644.23
634.29	639.44
634.64	635.25
634.98	630.57
635.32	626.16
635.67	622.29
636.01	618.19
636.36	614.10
636.70	610.10
637.05	605.91
637.39	601.65
637.73	597.53
638.08	593.41
638.42	589.09
638.77	584.76
639.11	580.67
639.45	576.33
639.80	571.94
640.14	567.94
640.49	563.93
640.83	560.19
641.17	556.40
641.52	552.66
641.86	548.95
642.20	545.84
642.55	542.09
642.89	538.28
643.23	534.77
643.58	531.43
643.92	527.74
644.26	524.27
644.61	521.01
644.95	517.82
645.29	514.47
645.64	511.41
645.98	508.30
646.32	505.30
646.66	502.31
647.01	499.33
647.35	496.45
647.69	493.61
648.04	490.91
648.38	488.17
648.72	485.44
649.06	482.42
649.41	479.41
649.75	476.53
650.09	473.79
650.43	470.94
650.78	468.01
651.12	465.32
651.46	462.69
651.80	460.04
652.14	457.38
652.49	454.97
652.83	452.30
653.17	449.81
653.51	447.30
653.85	444.91
654.20	442.42
654.54	439.90
654.88	437.28
655.22	435.02
655.56	432.51
655.90	430.21
656.25	427.99
656.59	425.61
656.93	423.53
657.27	421.41
657.61	418.94
657.95	416.83
658.29	414.67
658.64	412.56
658.98	410.35
659.32	408.11
659.66	405.83
660.00	403.79
660.34	401.78
660.68	399.61
661.02	397.70
661.36	395.83
661.70	393.91
662.05	391.99
662.39	389.90
662.73	388.22
663.07	386.56
663.41	384.73
663.75	382.89
664.09	381.03
664.43	379.13
664.77	377.67
665.11	375.91
665.45	374.19
665.79	372.50
666.13	370.78
666.47	369.10
666.81	367.55
667.15	365.80
667.49	364.30
667.83	363.11
668.17	361.55
668.51	360.23
668.85	358.92
669.19	357.84
669.53	356.37
669.87	354.82
670.21	353.26
670.55	351.89
670.89	350.76
671.23	349.40
671.57	348.00
671.91	346.56
672.25	345.21
672.58	344.06
672.92	342.66
673.26	341.38
673.60	340.23
673.94	339.03
674.28	337.97
674.62	336.85
674.96	335.48
675.30	334.31
675.64	333.08
675.97	331.86
676.31	330.51
676.65	329.35
676.99	328.43
677.33	327.25
677.67	326.17
678.01	324.84
678.34	323.83
678.68	322.97
679.02	322.01
679.36	320.99
679.70	319.87
680.04	318.90
680.37	318.06
680.71	317.13
681.05	316.25
681.39	315.28
681.73	314.27
682.06	313.31
682.40	312.43
682.74	311.59
683.08	310.81
683.42	309.93
683.75	309.16
684.09	308.13
684.43	307.34
684.77	306.46
685.10	305.63
685.44	304.86
685.78	303.96
686.12	303.08
686.45	302.31
686.79	301.52
687.13	300.85
687.46	300.03
687.80	299.24
688.14	298.41
688.48	297.70
688.81	296.85
689.15	296.20
689.49	295.52
689.82	294.78
690.16	293.80
690.50	293.04
690.83	292.38
691.17	291.63
691.51	290.90
691.84	290.30
692.18	289.62
692.52	288.83
692.85	288.20
693.19	287.73
693.52	287.09
693.86	286.40
694.20	285.70
694.53	285.12
694.87	284.49
695.21	283.83
695.54	283.26
695.88	282.66
696.21	281.89
696.55	281.18
696.88	280.51
697.22	280.00
697.56	279.51
697.89	278.83
698.23	278.33
698.56	277.77
698.90	277.24
699.23	276.67
699.57	276.17
699.90	275.55
700.24	274.85
700.58	274.30
700.91	273.88
701.25	273.73
701.58	273.59
701.92	273.19
702.25	272.74
702.59	272.20
702.92	271.80
703.26	271.46
703.59	271.11
703.93	271.07
704.26	270.68
704.60	270.26
704.93	269.85
705.26	269.41
705.60	269.11
705.93	268.62
706.27	268.38
706.60	268.14
706.94	268.11
707.27	267.85
707.61	267.61
707.94	267.20
708.27	266.52
708.61	265.74
708.94	265.46
709.28	265.09
709.61	264.73
709.94	264.49
710.28	264.16
710.61	263.78
710.95	263.03
711.28	263.04
711.61	262.69
711.95	262.43
712.28	261.99
712.61	261.68
712.95	261.63
713.28	261.49
713.61	261.05
713.95	260.50
714.28	260.11
714.61	259.72
714.95	259.37
715.28	258.99
715.61	258.69
715.95	258.30
716.28	257.92
716.61	257.68
716.95	257.23
717.28	256.95
717.61	256.64
717.94	256.39
718.28	255.76
718.61	255.36
718.94	255.03
719.27	254.81
719.61	254.54
719.94	254.12
720.27	253.70
720.60	253.43
720.94	253.12
721.27	252.95
721.60	252.79
721.93	252.60
722.27	252.59
722.60	252.37
722.93	252.12
723.26	251.93
723.59	251.58
723.93	251.47
724.26	251.25
724.59	251.02
724.92	250.81
725.25	250.70
725.59	250.54
725.92	250.40
726.25	250.20
726.58	250.01
726.91	249.75
727.24	249.55
727.57	249.36
727.91	249.07
728.24	248.92
728.57	248.65
728.90	248.55
729.23	248.16
729.56	248.21
729.89	248.02
730.22	247.84
730.55	247.65
730.89	247.41
731.22	247.21
731.55	247.05
731.88	246.94
732.21	246.60
732.54	246.38
732.87	246.15
733.20	246.04
733.53	245.88
733.86	245.80
734.19	245.61
734.52	245.51
734.85	245.70
735.18	245.47
735.51	245.41
735.84	245.26
736.17	245.22
736.50	244.84
736.83	245.23
737.16	245.15
737.49	245.16
737.82	245.00
738.15	244.95
738.48	244.73
738.81	244.52
739.14	244.38
739.47	244.22
739.80	244.03
740.13	243.97
740.46	243.82
740.79	243.65
741.12	243.45
741.45	243.30
741.78	242.97
742.11	243.00
742.44	242.84
742.77	242.75
743.10	242.56
743.43	242.39
743.75	241.72
744.08	242.15
744.41	241.96
744.74	241.82
745.07	241.50
745.40	241.52
745.73	241.60
746.06	241.48
746.39	241.43
746.71	241.37
747.04	241.10
747.37	240.84
747.70	240.67
748.03	240.52
748.36	240.47
748.68	240.31
749.01	240.00
749.34	239.83
749.67	239.73
750.00	239.61
750.33	239.76
750.65	239.65
750.98	238.93
751.31	238.74
751.64	238.67
751.97	238.86
752.29	238.68
752.62	238.30
752.95	238.13
753.28	237.93
753.60	237.77
753.93	237.76
754.26	237.79
754.59	237.60
754.91	237.48
755.24	237.28
755.57	237.16
755.90	237.08
756.22	236.87
756.55	236.67
756.88	236.49
757.20	236.15
757.53	236.00
757.86	235.90
758.19	235.90
758.51	235.80
758.84	235.49
759.17	235.34
759.49	235.27
759.82	235.42
760.15	235.36
760.47	235.23
760.80	235.02
761.13	234.99
761.45	234.84
761.78	234.79
762.11	234.67
762.43	234.53
762.76	234.31
763.08	234.32
763.41	234.21
763.74	234.23
764.06	234.13
764.39	234.01
764.71	233.90
765.04	233.76
765.37	233.57
765.69	233.44
766.02	233.32
766.34	233.23
766.67	233.05
767.00	233.14
767.32	233.36
767.65	233.58
767.97	233.41
768.30	233.43
768.62	233.40
768.95	233.34
769.27	233.30
769.60	233.44
769.92	233.34
770.25	233.25
770.57	233.15
770.90	233.11
771.22	233.00
771.55	233.02
771.87	233.00
772.20	232.99
772.52	233.37
772.85	234.00
773.17	233.99
773.50	233.79
773.82	233.63
774.15	233.29
774.47	233.01
774.80	232.95
775.12	232.90
775.45	232.88
775.77	232.88
776.09	232.85
776.42	232.75
776.74	232.83
777.07	232.71
777.39	232.60
777.72	232.50
778.04	232.50
778.36	232.46
778.69	232.48
779.01	232.46
779.33	232.03
779.66	231.39
779.98	231.30
780.31	231.41
780.63	231.61
780.95	231.71
781.28	231.64
781.60	231.61
781.92	231.56
782.25	231.52
782.57	231.47
782.89	231.39
783.22	231.30
783.54	231.19
783.86	231.22
784.19	231.21
784.51	231.25
784.83	231.20
785.16	231.17
785.48	231.07
785.80	231.07
786.12	231.06
786.45	231.06
786.77	231.07
787.09	231.03
787.42	230.73
787.74	230.70
788.06	230.70
788.38	230.60
788.71	230.58
789.03	230.52
789.35	230.55
789.67	230.48
789.99	230.46
790.32	230.38
790.64	230.46
790.96	230.77
791.28	230.59
791.61	230.58
791.93	230.51
792.25	230.39
792.57	230.67
792.89	230.55
793.21	230.60
793.54	230.48
793.86	230.38
794.18	230.43
794.50	230.29
794.82	230.23
795.14	230.26
795.47	230.32
795.79	230.24
796.11	230.08
796.43	230.06
796.75	230.07
797.07	230.04
797.39	229.97
797.71	229.69
798.04	229.76
798.36	229.74
798.68	229.67
799.00	229.75
799.32	229.49
799.64	229.60
799.96	229.54
800.28	229.64
800.60	229.60
800.92	229.58
801.24	229.51
801.56	229.55
801.89	229.48
802.21	229.45
802.53	229.40
802.85	229.49
803.17	229.74
803.49	229.63
803.81	229.55
804.13	229.50
804.45	229.39
804.77	229.33
805.09	229.37
805.41	229.33
805.73	229.23
806.05	229.11
806.37	229.02
806.69	228.87
807.01	228.81
807.33	228.81
807.65	228.68
807.97	228.87
808.28	228.80
808.60	228.82
808.92	228.76
809.24	229.05
809.56	228.91
809.88	228.70
810.20	228.72
810.52	228.84
810.84	228.80
811.16	228.72
811.48	228.70
811.80	228.82
812.12	228.82
812.43	228.96
812.75	228.99
813.07	229.00
813.39	229.10
813.71	229.06
814.03	228.99
814.35	229.03
814.67	228.86
814.98	228.78
815.30	228.80
815.62	228.71
815.94	228.38
816.26	228.65
816.58	228.51
816.89	228.55
817.21	228.41
817.53	228.45
817.85	228.49
818.17	228.51
818.48	228.30
818.80	228.35
819.12	228.17
819.44	228.09
819.76	228.04
820.07	227.99
820.39	227.99
820.71	228.10
821.03	228.09
821.34	228.07
821.66	228.13
821.98	228.12
822.30	228.16
822.61	228.46
822.93	228.25
823.25	228.33
823.57	228.24
823.88	228.35
824.20	228.24
824.52	228.29
824.83	228.25
825.15	228.18
825.47	228.26
825.79	228.38
826.10	228.34
826.42	228.29
826.74	228.35
827.05	228.31
827.37	228.25
827.69	228.23
828.00	228.27
828.32	228.25
828.64	228.18
828.95	228.39
829.27	228.21
829.58	228.17
829.90	228.14
830.22	228.15
830.53	228.05
830.85	228.06
831.17	227.92
831.48	227.98
831.80	228.02
832.11	227.89
832.43	227.80
832.75	227.82
833.06	228.05
833.38	227.85
833.69	227.89
834.01	227.91
834.32	227.81
834.64	227.71
834.96	227.72
835.27	227.74
835.59	227.59
835.90	227.53
836.22	227.49
836.53	227.45
836.85	227.41
837.16	227.85
837.48	227.85
837.79	228.06
838.11	227.98
838.42	227.98
838.74	227.99
839.05	227.95
839.37	227.88
839.68	227.66
840.00	227.70
840.31	227.66
840.63	227.65
840.94	227.61
841.26	227.55
841.57	227.53
841.88	227.48
842.20	227.43
842.51	227.43
842.83	227.41
843.14	227.80
843.46	227.80
843.77	227.56
844.08	227.50
844.40	227.32
844.71	227.30
845.03	227.29
845.34	227.25
845.65	227.26
845.97	227.30
846.28	227.25
846.60	227.32
846.91	227.25
847.22	227.18
847.54	227.34
847.85	227.37
848.16	227.31
848.48	227.23
848.79	227.35
849.10	227.31
849.42	227.35
849.73	226.98
850.04	226.95
850.36	226.74
850.67	226.85
850.98	226.97
851.30	226.99
851.61	226.94
851.92	226.99
852.23	227.05
852.55	227.06
852.86	227.02
853.17	227.06
853.49	227.16
853.80	227.33
854.11	227.35
854.42	227.47
854.74	227.49
855.05	227.58
855.36	227.35
855.67	227.31
855.99	227.36
856.30	227.95
856.61	228.02
856.92	228.08
857.23	228.04
857.55	227.92
857.86	227.87
858.17	227.91
858.48	227.87
858.79	227.85
859.11	227.92
859.42	227.97
859.73	227.85
860.04	227.85
860.35	227.69
860.66	227.57
860.98	227.54
861.29	227.60
861.60	227.50
861.91	227.58
862.22	227.56
862.53	227.45
862.84	226.82
863.16	226.94
863.47	226.77
863.78	226.78
864.09	226.74
864.40	226.85
864.71	226.93
865.02	227.03
865.33	226.96
865.64	226.87
865.95	226.87
866.27	227.15
866.58	227.15
866.89	227.18
867.20	227.15
867.51	227.09
867.82	226.98
868.13	227.15
868.44	227.10
868.75	227.22
869.06	227.29
869.37	227.39
869.68	227.21
869.99	227.30
870.30	227.24
870.61	227.34
870.92	227.21
871.23	227.15
871.54	227.09
871.85	227.19
872.16	227.30
872.47	227.26
872.78	227.03
873.09	227.07
873.40	226.96
873.71	227.00
874.02	227.03
874.33	227.10
874.64	226.97
874.95	227.06
875.26	226.97
875.56	226.92
875.87	226.85
876.18	226.75
876.49	227.28
876.80	227.27
877.11	227.17
877.42	227.14
877.73	227.13
878.04	227.05
878.35	227.11
878.66	227.06
878.96	227.02
879.27	227.04
879.58	226.97
879.89	227.01
880.20	227.11
880.51	227.03
880.82	226.96
881.12	227.04
881.43	226.91
881.74	226.85
882.05	226.82
882.36	226.80
882.67	226.91
882.97	226.32
883.28	226.33
883.59	226.37
883.90	226.50
884.21	226.57
884.51	226.64
884.82	226.50
885.13	226.45
885.44	226.48
885.74	226.45
886.05	226.40
886.36	226.35
886.67	226.20
886.98	226.41
887.28	226.43
887.59	226.39
887.90	226.38
888.20	226.35
888.51	226.45
888.82	226.35
889.13	226.37
889.43	226.85
889.74	226.86
890.05	226.85
890.35	226.85
890.66	226.79
890.97	226.75
891.28	226.75
891.58	226.78
891.89	226.71
892.20	226.63
892.50	226.63
892.81	226.62
893.12	226.62
893.42	226.43
893.73	226.47
894.04	226.46
894.34	226.52
894.65	226.54
894.95	226.48
895.26	226.50
895.57	226.72
895.87	226.22
896.18	226.25
896.48	226.26
896.79	226.20
897.10	226.25
897.40	226.15
897.71	226.20
898.01	226.10
898.32	226.27
898.63	226.33
898.93	226.36
899.24	226.44
899.54	226.41
899.85	226.37
900.15	226.37
900.46	226.35
900.76	226.39
901.07	226.42
901.38	226.40
901.68	226.52
901.99	226.26
902.29	226.26
902.60	226.24
902.90	226.23
903.21	226.22
903.51	226.19
903.82	226.38
904.12	226.30
904.43	226.39
904.73	226.28
905.03	226.26
905.34	226.72
905.64	226.62
905.95	226.67
906.25	226.62
906.56	226.62
906.86	226.70
907.17	226.62
907.47	226.61
907.77	226.58
908.08	226.50
908.38	226.55
908.69	226.64
908.99	226.65
909.30	226.67
909.60	226.65
909.90	226.69
910.21	226.57
910.51	226.58
910.81	226.55
911.12	226.63
911.42	226.65
911.73	226.09
912.03	226.18
912.33	226.30
912.64	226.34
912.94	226.32
913.24	226.26
913.55	226.29
913.85	226.22
914.15	226.30
914.46	226.33
914.76	226.25
915.06	226.21
915.37	226.17
915.67	226.15
915.97	226.15
916.27	225.98
916.58	226.04
916.88	226.00
917.18	225.99
917.49	226.23
917.79	226.24
918.09	226.38
918.39	226.48
918.70	226.40
919.00	226.43
919.30	226.65
919.60	226.60
919.91	226.52
920.21	226.62
920.51	226.60
920.81	226.58
921.12	226.67
921.42	226.63
921.72	226.68
922.02	226.69
922.32	226.74
922.63	226.77
922.93	226.93
923.23	226.99
923.53	226.92
923.83	226.62
924.13	226.65
924.44	226.64
924.74	226.67
925.04	226.83
925.34	226.85
925.64	226.62
925.94	226.66
926.24	226.94
926.55	226.86
926.85	226.91
927.15	226.92
927.45	226.88
927.75	226.93
928.05	226.94
928.35	226.90
928.65	226.97
928.95	227.05
929.26	226.87
929.56	226.91
929.86	227.01
930.16	226.97
930.46	226.89
930.76	226.89
931.06	226.69
931.36	226.47
931.66	226.50
931.96	226.59
932.26	226.64
932.56	226.39
932.86	226.45
933.16	226.36
933.46	226.32
933.76	226.26
934.06	226.36
934.36	226.49
934.66	226.44
934.96	226.33
935.26	226.35
935.56	226.50
935.86	226.35
936.16	226.26
936.46	226.24
936.76	226.23
937.06	226.13
937.36	226.21
937.66	226.25
937.96	226.20
938.26	226.02
938.56	225.91
938.86	225.95
939.16	226.07
939.46	226.13
939.76	226.18
940.06	226.13
940.35	225.96
940.65	225.71
940.95	225.72
941.25	225.61
941.55	225.50
941.85	225.36
942.15	225.52
942.45	225.61
942.75	225.52
943.04	225.53
943.34	225.61
943.64	225.52
943.94	225.44
944.24	225.48
944.54	225.55
944.84	225.53
945.13	225.46
945.43	225.34
945.73	225.23
946.03	225.19
946.33	225.21
946.62	225.25
946.92	225.26
947.22	225.35
947.52	225.44
947.82	225.50
948.11	225.49
948.41	225.29
948.71	225.16
949.01	225.27
949.31	225.23
949.60	225.17
949.90	225.26
950.20	225.23
950.50	225.25
950.79	225.24
951.09	225.33
951.39	225.38
951.69	225.35
951.98	225.50
952.28	225.55
952.58	225.46
952.87	225.51
953.17	225.54
953.47	225.44
953.76	225.47
954.06	225.45
954.36	225.42
954.66	225.55
954.95	225.69
955.25	225.72
955.55	225.79
955.84	225.76
956.14	225.80
956.44	225.89
956.73	225.82
957.03	225.85
957.32	225.89
957.62	225.90
957.92	226.05
958.21	226.05
958.51	226.51
958.81	226.66
959.10	226.69
959.40	226.85
959.69	226.92
959.99	226.92
960.29	226.93
960.58	226.89
960.88	227.01
961.17	227.04
961.47	227.13
961.76	227.07
962.06	227.20
962.36	227.15
962.65	227.20
962.95	227.25
963.24	227.27
963.54	227.29
963.83	227.28
964.13	227.11
964.42	227.01
964.72	226.70
965.01	226.74
965.31	226.71
965.60	226.57
965.90	226.90
966.19	226.88
966.49	226.91
966.78	226.93
967.08	226.86
967.37	226.81
967.67	226.66
967.96	226.84
968.26	226.82
968.55	226.91
968.85	226.86
969.14	226.80
969.43	226.82
969.73	226.75
970.02	226.73
970.32	226.77
970.61	226.65
970.91	226.48
971.20	226.31
971.49	226.30
971.79	226.40
972.08	226.06
972.38	226.04
972.67	226.00
972.96	226.05
973.26	225.96
973.55	226.11
973.85	226.05
974.14	225.94
974.43	225.97
974.73	225.88
975.02	225.79
975.31	225.85
975.61	225.73
975.90	225.68
976.19	225.65
976.49	225.65
976.78	225.78
977.07	225.80
977.37	225.96
977.66	225.94
977.95	225.84
978.24	225.87
978.54	225.96
978.83	225.94
979.12	225.92
979.42	225.90
979.71	225.76
980.00	225.88
980.29	225.87
980.59	225.75
980.88	225.82
981.17	225.82
981.46	225.77
981.76	225.80
982.05	226.01
982.34	225.96
982.63	225.96
982.93	225.88
983.22	226.01
983.51	225.99
983.80	226.05
984.09	226.09
984.39	226.04
984.68	225.97
984.97	225.93
985.26	225.87
985.55	225.94
985.85	225.84
986.14	225.84
986.43	225.88
986.72	225.84
987.01	225.72
987.30	225.70
987.59	225.62
987.89	225.63
988.18	225.46
988.47	225.51
988.76	225.49
989.05	225.53
989.34	225.47
989.63	225.58
989.92	225.49
990.22	225.46
990.51	225.47
990.80	225.48
991.09	225.53
991.38	225.63
991.67	225.59
991.96	225.57
992.25	225.60
992.54	225.55
992.83	225.55
993.12	225.60
993.41	225.75
993.70	226.00
993.99	226.15
994.28	226.21
994.58	226.31
994.87	226.30
995.16	226.31
995.45	226.22
995.74	226.02
996.03	226.10
996.32	226.16
996.61	226.30
996.90	226.30
997.19	226.31
997.48	226.35
997.77	226.34
998.06	226.49
998.34	226.39
998.63	226.41
998.92	226.46
999.21	226.45
999.50	226.47
999.79	226.27
1000.08	226.23
1000.37	226.26
1000.66	226.19
1000.95	226.32
1001.24	226.32
1001.53	226.48
1001.82	226.55
1002.11	226.41
1002.40	226.52
1002.68	226.60
1002.97	226.96
1003.26	226.90
1003.55	226.82
1003.84	226.86
1004.13	227.01
1004.42	227.06
1004.71	227.03
1004.99	226.94
1005.28	227.10
1005.57	227.02
1005.86	227.05
1006.15	227.02
1006.44	226.87
1006.72	226.88
1007.01	226.77
1007.30	226.75
1007.59	226.69
1007.88	226.70
1008.17	226.79
1008.45	226.62
1008.74	226.40
1009.03	226.19
1009.32	226.20
1009.60	226.14
1009.89	226.11
1010.18	225.83
1010.47	225.79
1010.76	225.76
1011.04	225.80
1011.33	225.79
1011.62	225.80
1011.91	225.84
1012.19	225.77
1012.48	225.81
1012.77	225.85
1013.05	226.04
1013.34	226.05
1013.63	225.97
1013.92	225.88
1014.20	225.82
1014.49	225.85
1014.78	225.90
1015.06	225.76
1015.35	225.79
1015.64	225.84
1015.92	225.83
1016.21	225.83
1016.50	225.85
1016.78	225.96
1017.07	225.98
1017.36	225.82
1017.64	225.76
1017.93	225.80
1018.22	225.78
1018.50	225.79
1018.79	225.71
1019.08	225.52
1019.36	225.57
1019.65	225.54
1019.93	225.72
1020.22	225.83
1020.51	226.04
1020.79	225.94
1021.08	224.85
1021.36	225.30
1021.65	224.80
1021.94	226.20
1022.22	226.50
1022.51	224.85
1022.79	227.85
1023.08	227.05
1023.36	230.95
1023.65	223.85
>>>>>End Processed Spectral Data<<<<<
