SpectraSuite Data File
++++++++++++++++++++++++++++++++++++
Date: Wed Sep 04 18:00:28 EDT 2013
User: lab3
Dark Spectrum Present: Yes
Reference Spectrum Present: No
Number of Sampled Component Spectra: 1
Spectrometers: USB2E7196
Integration Time (usec): 170000 (USB2E7196)
Spectra Averaged: 20 (USB2E7196)
Boxcar Smoothing: 10 (USB2E7196)
Correct for Electrical Dark: No (USB2E7196)
Strobe/Lamp Enabled: No (USB2E7196)
Correct for Detector Non-linearity: No (USB2E7196)
Correct for Stray Light: No (USB2E7196)
Number of Pixels in Processed Spectrum: 2048
>>>>>Begin Processed Spectral Data<<<<<
339.09	0.00
339.48	214.00
339.86	214.40
340.24	215.45
340.63	217.05
341.01	226.85
341.39	220.95
341.78	222.10
342.16	223.95
342.54	223.60
342.93	212.48
343.31	223.21
343.69	223.70
344.07	224.18
344.46	224.72
344.84	225.12
345.22	225.06
345.60	225.33
345.99	225.48
346.37	225.65
346.75	225.75
347.13	225.76
347.52	225.87
347.90	226.15
348.28	226.22
348.66	226.39
349.05	226.19
349.43	226.24
349.81	226.36
350.19	226.39
350.57	226.45
350.96	226.65
351.34	226.80
351.72	226.91
352.10	227.06
352.48	227.05
352.87	227.10
353.25	227.27
353.63	227.31
354.01	227.42
354.39	227.42
354.77	227.50
355.15	227.75
355.54	227.65
355.92	227.52
356.30	227.62
356.68	227.87
357.06	228.01
357.44	228.04
357.82	228.10
358.20	228.48
358.58	228.50
358.97	228.59
359.35	228.67
359.73	228.89
360.11	228.87
360.49	228.93
360.87	229.00
361.25	229.00
361.63	229.16
362.01	229.28
362.39	229.31
362.77	229.39
363.15	229.43
363.53	229.53
363.91	229.64
364.29	229.61
364.67	229.23
365.05	229.18
365.43	229.24
365.81	229.32
366.19	229.24
366.57	229.43
366.95	229.44
367.33	229.38
367.71	229.33
368.09	229.47
368.47	229.51
368.85	229.47
369.23	229.57
369.61	229.41
369.99	229.47
370.37	229.54
370.75	229.74
371.13	229.58
371.51	229.58
371.89	229.54
372.27	229.53
372.65	229.58
373.03	229.68
373.41	229.56
373.78	229.50
374.16	229.20
374.54	229.03
374.92	228.92
375.30	228.86
375.68	228.70
376.06	228.64
376.44	228.59
376.82	228.61
377.19	228.50
377.57	228.43
377.95	228.21
378.33	228.08
378.71	227.81
379.09	227.91
379.47	227.83
379.84	227.75
380.22	227.67
380.60	227.54
380.98	227.41
381.36	227.42
381.73	227.20
382.11	227.35
382.49	227.29
382.87	227.13
383.25	227.13
383.62	227.66
384.00	227.48
384.38	227.42
384.76	227.50
385.13	227.66
385.51	227.67
385.89	227.58
386.27	227.52
386.64	227.48
387.02	227.32
387.40	227.24
387.78	227.21
388.15	227.27
388.53	227.24
388.91	227.24
389.29	227.13
389.66	227.23
390.04	227.07
390.42	227.09
390.79	227.10
391.17	227.02
391.55	226.43
391.92	226.40
392.30	226.46
392.68	226.35
393.05	226.27
393.43	226.27
393.81	226.32
394.18	226.35
394.56	226.31
394.94	226.48
395.31	226.53
395.69	226.69
396.06	226.70
396.44	226.82
396.82	226.84
397.19	227.14
397.57	227.10
397.95	227.28
398.32	227.27
398.70	227.36
399.07	227.51
399.45	227.62
399.82	227.77
400.20	227.78
400.58	227.81
400.95	227.71
401.33	227.89
401.70	228.32
402.08	228.51
402.45	228.72
402.83	228.89
403.20	229.08
403.58	229.13
403.95	229.39
404.33	229.59
404.71	229.76
405.08	230.22
405.46	230.46
405.83	230.70
406.21	230.95
406.58	231.32
406.96	231.62
407.33	231.95
407.70	232.30
408.08	233.13
408.45	233.59
408.83	234.11
409.20	234.50
409.58	234.74
409.95	235.27
410.33	235.90
410.70	236.28
411.08	236.91
411.45	237.55
411.82	238.14
412.20	238.96
412.57	240.04
412.95	240.44
413.32	241.37
413.69	242.20
414.07	243.14
414.44	244.12
414.82	245.11
415.19	246.38
415.56	247.60
415.94	248.48
416.31	249.98
416.68	251.47
417.06	253.08
417.43	254.69
417.81	256.40
418.18	258.17
418.55	260.14
418.93	262.16
419.30	264.30
419.67	266.57
420.04	268.77
420.42	271.02
420.79	274.05
421.16	276.79
421.54	279.86
421.91	282.82
422.28	285.90
422.66	289.26
423.03	292.65
423.40	295.96
423.77	299.58
424.15	303.06
424.52	306.83
424.89	311.07
425.26	314.99
425.64	318.90
426.01	323.06
426.38	327.45
426.75	332.01
427.13	336.62
427.50	341.46
427.87	346.47
428.24	351.31
428.61	355.83
428.99	361.27
429.36	366.74
429.73	372.28
430.10	377.86
430.47	383.57
430.85	389.23
431.22	395.49
431.59	402.33
431.96	408.67
432.33	415.66
432.70	422.32
433.08	430.28
433.45	437.70
433.82	445.15
434.19	453.52
434.56	461.68
434.93	469.54
435.30	477.22
435.68	485.78
436.05	494.28
436.42	502.65
436.79	510.42
437.16	518.90
437.53	527.90
437.90	536.64
438.27	545.22
438.64	554.29
439.01	562.70
439.38	569.85
439.75	577.07
440.13	585.16
440.50	592.79
440.87	599.13
441.24	605.67
441.61	612.58
441.98	617.68
442.35	623.45
442.72	629.49
443.09	635.33
443.46	638.76
443.83	641.26
444.20	643.21
444.57	645.85
444.94	647.00
445.31	647.94
445.68	649.29
446.05	649.40
446.42	647.99
446.79	646.47
447.16	644.85
447.53	643.58
447.90	639.78
448.27	636.08
448.64	630.99
449.01	627.07
449.37	620.97
449.74	614.80
450.11	607.79
450.48	599.81
450.85	591.67
451.22	584.89
451.59	578.10
451.96	571.67
452.33	563.41
452.70	555.88
453.07	547.23
453.43	538.07
453.80	529.73
454.17	521.61
454.54	513.81
454.91	505.69
455.28	497.69
455.65	490.20
456.02	483.21
456.38	476.92
456.75	469.12
457.12	462.57
457.49	456.13
457.86	449.66
458.23	444.57
458.59	438.83
458.96	432.93
459.33	427.88
459.70	422.83
460.07	418.78
460.43	413.95
460.80	409.66
461.17	405.87
461.54	401.76
461.91	397.86
462.27	394.02
462.64	390.61
463.01	386.89
463.38	383.56
463.74	379.45
464.11	376.34
464.48	373.62
464.85	370.78
465.21	368.73
465.58	366.51
465.95	363.55
466.32	361.46
466.68	359.12
467.05	356.84
467.42	354.69
467.78	352.38
468.15	350.28
468.52	348.63
468.88	346.48
469.25	344.60
469.62	343.22
469.98	341.58
470.35	340.18
470.72	338.78
471.08	337.07
471.45	335.89
471.82	334.54
472.18	333.26
472.55	332.18
472.92	330.80
473.28	329.70
473.65	328.72
474.02	327.58
474.38	326.77
474.75	326.04
475.11	325.09
475.48	324.46
475.85	323.83
476.21	323.15
476.58	322.67
476.94	322.27
477.31	321.80
477.67	321.44
478.04	321.06
478.41	320.89
478.77	321.20
479.14	320.90
479.50	320.81
479.87	320.78
480.23	320.79
480.60	320.84
480.96	320.91
481.33	321.27
481.69	321.56
482.06	321.84
482.42	322.10
482.79	322.53
483.15	322.90
483.52	323.59
483.88	324.07
484.25	324.53
484.61	325.20
484.98	325.85
485.34	326.81
485.71	327.84
486.07	328.85
486.44	329.57
486.80	330.75
487.17	331.90
487.53	333.25
487.90	334.68
488.26	336.37
488.62	338.07
488.99	339.58
489.35	341.26
489.72	343.08
490.08	345.06
490.44	347.08
490.81	349.33
491.17	351.45
491.54	353.97
491.90	356.64
492.26	359.31
492.63	362.06
492.99	364.86
493.36	367.79
493.72	371.01
494.08	374.40
494.45	378.03
494.81	381.94
495.17	385.85
495.54	390.03
495.90	394.12
496.26	398.58
496.63	403.24
496.99	408.10
497.35	413.15
497.72	418.43
498.08	423.89
498.44	429.62
498.80	435.62
499.17	441.82
499.53	448.07
499.89	454.71
500.26	461.71
500.62	468.81
500.98	476.31
501.34	483.93
501.71	491.60
502.07	499.53
502.43	507.66
502.79	516.11
503.16	524.79
503.52	533.86
503.88	543.12
504.24	552.84
504.60	562.88
504.97	573.18
505.33	583.66
505.69	594.81
506.05	605.75
506.41	617.19
506.78	628.86
507.14	641.07
507.50	653.32
507.86	665.96
508.22	678.87
508.59	691.91
508.95	705.40
509.31	719.60
509.67	733.98
510.03	748.35
510.39	763.17
510.75	778.25
511.12	793.70
511.48	809.39
511.84	825.20
512.20	841.35
512.56	857.92
512.92	874.71
513.28	891.57
513.64	908.98
514.00	926.52
514.37	944.10
514.73	962.15
515.09	980.57
515.45	999.19
515.81	1017.80
516.17	1036.63
516.53	1055.43
516.89	1074.24
517.25	1093.65
517.61	1113.82
517.97	1134.13
518.33	1154.50
518.69	1174.72
519.05	1195.33
519.41	1216.06
519.77	1237.11
520.13	1257.76
520.49	1278.65
520.85	1301.02
521.21	1322.24
521.57	1343.54
521.93	1364.49
522.29	1385.86
522.65	1406.69
523.01	1427.47
523.37	1447.94
523.73	1469.05
524.09	1489.62
524.45	1510.26
524.81	1531.19
525.17	1551.99
525.53	1572.59
525.89	1593.02
526.25	1613.93
526.61	1634.45
526.97	1655.61
527.33	1676.97
527.68	1699.07
528.04	1720.57
528.40	1740.32
528.76	1761.42
529.12	1782.06
529.48	1803.19
529.84	1823.40
530.20	1844.77
530.56	1865.86
530.91	1887.21
531.27	1907.65
531.63	1928.42
531.99	1949.31
532.35	1969.48
532.71	1989.88
533.07	2010.79
533.42	2030.98
533.78	2051.14
534.14	2070.95
534.50	2089.88
534.86	2109.13
535.21	2126.54
535.57	2144.98
535.93	2162.76
536.29	2180.67
536.65	2199.09
537.00	2216.63
537.36	2234.44
537.72	2250.77
538.08	2267.76
538.44	2284.49
538.79	2301.38
539.15	2318.32
539.51	2334.52
539.87	2349.75
540.22	2363.72
540.58	2377.87
540.94	2391.51
541.29	2404.20
541.65	2416.96
542.01	2429.68
542.37	2440.13
542.72	2451.15
543.08	2461.81
543.44	2473.69
543.79	2483.65
544.15	2493.17
544.51	2503.28
544.87	2512.91
545.22	2521.83
545.58	2530.01
545.94	2537.37
546.29	2543.73
546.65	2549.77
547.01	2555.31
547.36	2561.03
547.72	2566.46
548.07	2570.34
548.43	2575.69
548.79	2580.47
549.14	2584.84
549.50	2588.69
549.86	2592.96
550.21	2596.95
550.57	2600.35
550.92	2601.59
551.28	2603.22
551.64	2605.69
551.99	2607.89
552.35	2609.55
552.70	2611.98
553.06	2613.59
553.41	2614.65
553.77	2616.32
554.13	2618.10
554.48	2619.81
554.84	2621.03
555.19	2623.10
555.55	2624.82
555.90	2624.16
556.26	2623.24
556.61	2621.43
556.97	2619.42
557.32	2618.90
557.68	2617.76
558.03	2616.49
558.39	2615.30
558.74	2614.57
559.10	2611.47
559.45	2607.49
559.81	2602.97
560.16	2597.66
560.52	2592.56
560.87	2588.37
561.23	2582.97
561.58	2577.15
561.94	2570.22
562.29	2563.13
562.64	2555.86
563.00	2547.96
563.35	2541.30
563.71	2534.95
564.06	2528.84
564.42	2522.63
564.77	2515.71
565.12	2508.32
565.48	2500.49
565.83	2492.74
566.19	2484.46
566.54	2476.73
566.89	2468.78
567.25	2461.32
567.60	2454.14
567.96	2446.86
568.31	2438.99
568.66	2430.67
569.02	2421.59
569.37	2413.64
569.72	2406.04
570.08	2396.60
570.43	2387.28
570.78	2378.36
571.14	2368.88
571.49	2358.90
571.84	2349.06
572.20	2338.11
572.55	2327.69
572.90	2316.76
573.26	2306.28
573.61	2295.36
573.96	2284.25
574.31	2272.43
574.67	2260.57
575.02	2247.79
575.37	2234.89
575.72	2221.38
576.08	2209.08
576.43	2196.47
576.78	2183.10
577.13	2169.39
577.49	2156.37
577.84	2144.34
578.19	2132.02
578.54	2119.15
578.90	2106.90
579.25	2094.55
579.60	2081.80
579.95	2068.97
580.30	2055.73
580.66	2042.14
581.01	2028.57
581.36	2014.26
581.71	2001.59
582.06	1988.35
582.42	1975.68
582.77	1962.93
583.12	1951.15
583.47	1938.83
583.82	1926.85
584.17	1914.63
584.53	1902.94
584.88	1890.07
585.23	1876.79
585.58	1862.59
585.93	1849.60
586.28	1836.39
586.63	1822.06
586.98	1807.98
587.34	1794.64
587.69	1781.71
588.04	1769.20
588.39	1757.03
588.74	1744.95
589.09	1732.94
589.44	1720.14
589.79	1707.88
590.14	1695.85
590.49	1683.55
590.84	1671.33
591.19	1659.35
591.54	1647.08
591.89	1634.67
592.25	1624.43
592.60	1612.91
592.95	1601.44
593.30	1589.08
593.65	1576.89
594.00	1565.00
594.35	1555.20
594.70	1543.34
595.05	1531.59
595.40	1519.47
595.75	1507.27
596.10	1496.01
596.45	1484.10
596.80	1473.19
597.15	1461.72
597.50	1449.81
597.85	1438.47
598.19	1426.79
598.54	1414.68
598.89	1403.60
599.24	1392.70
599.59	1380.81
599.94	1369.88
600.29	1359.27
600.64	1348.95
600.99	1338.28
601.34	1328.70
601.69	1317.32
602.04	1307.26
602.39	1297.38
602.74	1288.22
603.08	1278.73
603.43	1269.41
603.78	1259.75
604.13	1250.05
604.48	1240.31
604.83	1230.58
605.18	1220.58
605.53	1211.10
605.87	1202.12
606.22	1193.19
606.57	1183.95
606.92	1174.53
607.27	1165.49
607.62	1156.61
607.96	1148.01
608.31	1140.03
608.66	1131.55
609.01	1122.86
609.36	1114.24
609.70	1105.65
610.05	1096.72
610.40	1088.27
610.75	1079.45
611.10	1070.90
611.44	1062.04
611.79	1053.87
612.14	1046.19
612.49	1038.20
612.83	1030.53
613.18	1022.34
613.53	1014.58
613.88	1006.35
614.22	998.58
614.57	990.62
614.92	982.80
615.27	975.17
615.61	967.30
615.96	959.62
616.31	951.99
616.65	945.14
617.00	937.99
617.35	930.97
617.70	923.83
618.04	916.68
618.39	909.76
618.74	903.49
619.08	896.51
619.43	889.16
619.78	881.97
620.12	874.75
620.47	868.17
620.82	860.85
621.16	854.09
621.51	847.81
621.85	841.65
622.20	834.97
622.55	828.28
622.89	821.94
623.24	815.50
623.59	809.06
623.93	802.52
624.28	796.12
624.62	790.27
624.97	784.45
625.32	778.48
625.66	772.41
626.01	766.15
626.35	760.62
626.70	755.13
627.04	749.95
627.39	744.42
627.73	738.94
628.08	733.81
628.43	728.43
628.77	722.86
629.12	717.38
629.46	712.58
629.81	707.78
630.15	702.74
630.50	697.79
630.84	693.00
631.19	688.17
631.53	683.54
631.88	678.10
632.22	673.09
632.57	668.63
632.91	664.06
633.26	659.70
633.60	654.87
633.95	650.12
634.29	645.30
634.64	640.88
634.98	636.12
635.32	631.85
635.67	627.78
636.01	623.55
636.36	619.04
636.70	614.84
637.05	610.57
637.39	606.37
637.73	602.20
638.08	598.14
638.42	593.98
638.77	589.65
639.11	585.39
639.45	580.98
639.80	576.50
640.14	572.33
640.49	568.34
640.83	564.55
641.17	560.92
641.52	557.12
641.86	553.43
642.20	550.27
642.55	546.45
642.89	542.81
643.23	539.31
643.58	536.19
643.92	532.52
644.26	529.24
644.61	526.15
644.95	522.87
645.29	519.53
645.64	516.27
645.98	513.26
646.32	510.37
646.66	507.25
647.01	504.23
647.35	501.58
647.69	498.57
648.04	495.77
648.38	492.91
648.72	490.04
649.06	487.06
649.41	483.84
649.75	480.77
650.09	477.94
650.43	474.93
650.78	471.93
651.12	469.24
651.46	466.46
651.80	463.48
652.14	460.70
652.49	458.20
652.83	455.64
653.17	452.87
653.51	450.01
653.85	447.73
654.20	445.27
654.54	442.51
654.88	440.05
655.22	437.71
655.56	435.23
655.90	433.01
656.25	430.61
656.59	428.41
656.93	426.33
657.27	424.21
657.61	421.90
657.95	419.65
658.29	417.36
658.64	415.09
658.98	412.91
659.32	410.67
659.66	408.36
660.00	406.19
660.34	404.30
660.68	402.46
661.02	400.36
661.36	398.37
661.70	396.47
662.05	394.31
662.39	392.32
662.73	390.60
663.07	388.79
663.41	387.05
663.75	385.01
664.09	383.11
664.43	381.15
664.77	379.51
665.11	377.81
665.45	376.10
665.79	374.50
666.13	372.87
666.47	371.37
666.81	369.80
667.15	368.08
667.49	366.51
667.83	365.18
668.17	363.60
668.51	362.15
668.85	360.72
669.19	359.68
669.53	358.14
669.87	356.58
670.21	355.08
670.55	353.70
670.89	352.71
671.23	351.32
671.57	349.95
671.91	348.60
672.25	347.15
672.58	345.97
672.92	344.48
673.26	343.14
673.60	341.87
673.94	340.66
674.28	339.52
674.62	338.35
674.96	336.84
675.30	335.77
675.64	334.49
675.97	333.26
676.31	331.86
676.65	330.65
676.99	329.63
677.33	328.40
677.67	327.17
678.01	325.70
678.34	324.71
678.68	323.68
679.02	322.50
679.36	321.49
679.70	320.40
680.04	319.46
680.37	318.50
680.71	317.40
681.05	316.50
681.39	315.67
681.73	314.59
682.06	313.85
682.40	312.90
682.74	312.03
683.08	311.25
683.42	310.30
683.75	309.46
684.09	308.45
684.43	307.71
684.77	306.82
685.10	306.14
685.44	305.23
685.78	304.40
686.12	303.62
686.45	302.86
686.79	302.00
687.13	301.24
687.46	300.55
687.80	299.94
688.14	299.02
688.48	298.20
688.81	297.50
689.15	296.75
689.49	295.97
689.82	295.31
690.16	294.40
690.50	293.78
690.83	293.01
691.17	292.18
691.51	291.49
691.84	290.92
692.18	290.17
692.52	289.48
692.85	288.84
693.19	288.40
693.52	287.73
693.86	287.07
694.20	286.45
694.53	285.75
694.87	284.98
695.21	284.30
695.54	283.64
695.88	282.95
696.21	282.15
696.55	281.55
696.88	280.86
697.22	280.28
697.56	279.67
697.89	279.08
698.23	278.74
698.56	278.10
698.90	277.63
699.23	277.13
699.57	276.70
699.90	276.18
700.24	275.55
700.58	275.14
700.91	274.75
701.25	274.72
701.58	274.64
701.92	274.37
702.25	274.04
702.59	273.64
702.92	273.26
703.26	272.94
703.59	272.56
703.93	272.63
704.26	272.30
704.60	271.98
704.93	271.66
705.26	271.13
705.60	270.80
705.93	270.22
706.27	269.94
706.60	269.63
706.94	269.41
707.27	268.98
707.61	268.61
707.94	268.25
708.27	267.44
708.61	266.69
708.94	266.23
709.28	265.81
709.61	265.38
709.94	265.09
710.28	264.78
710.61	264.41
710.95	263.62
711.28	263.50
711.61	263.07
711.95	262.78
712.28	262.40
712.61	262.10
712.95	262.07
713.28	262.00
713.61	261.55
713.95	261.05
714.28	260.78
714.61	260.39
714.95	259.99
715.28	259.58
715.61	259.17
715.95	258.86
716.28	258.56
716.61	258.30
716.95	257.86
717.28	257.52
717.61	257.25
717.94	257.02
718.28	256.43
718.61	256.06
718.94	255.69
719.27	255.38
719.61	255.08
719.94	254.64
720.27	254.06
720.60	253.79
720.94	253.56
721.27	253.31
721.60	253.21
721.93	252.96
722.27	252.95
722.60	252.82
722.93	252.57
723.26	252.37
723.59	252.08
723.93	252.00
724.26	251.76
724.59	251.50
724.92	251.27
725.25	251.13
725.59	250.95
725.92	250.80
726.25	250.67
726.58	250.51
726.91	250.32
727.24	250.15
727.57	250.05
727.91	249.74
728.24	249.58
728.57	249.31
728.90	249.14
729.23	248.80
729.56	248.83
729.89	248.62
730.22	248.35
730.55	248.15
730.89	247.92
731.22	247.71
731.55	247.50
731.88	247.25
732.21	247.01
732.54	246.85
732.87	246.79
733.20	246.65
733.53	246.50
733.86	246.36
734.19	246.19
734.52	246.00
734.85	246.11
735.18	245.90
735.51	245.90
735.84	245.83
736.17	245.80
736.50	245.35
736.83	245.73
737.16	245.58
737.49	245.49
737.82	245.34
738.15	245.33
738.48	245.21
738.81	245.06
739.14	244.93
739.47	244.79
739.80	244.51
740.13	244.39
740.46	244.10
740.79	243.90
741.12	243.76
741.45	243.55
741.78	243.22
742.11	243.25
742.44	242.96
742.77	242.80
743.10	242.60
743.43	242.59
743.75	241.97
744.08	242.49
744.41	242.32
744.74	242.08
745.07	241.84
745.40	241.80
745.73	241.86
746.06	241.74
746.39	241.71
746.71	241.58
747.04	241.36
747.37	241.31
747.70	241.30
748.03	241.15
748.36	241.10
748.68	241.03
749.01	240.70
749.34	240.59
749.67	240.52
750.00	240.49
750.33	240.68
750.65	240.60
750.98	239.87
751.31	239.75
751.64	239.72
751.97	239.86
752.29	239.74
752.62	239.50
752.95	239.28
753.28	239.01
753.60	238.83
753.93	238.91
754.26	238.90
754.59	238.68
754.91	238.56
755.24	238.46
755.57	238.32
755.90	238.25
756.22	238.04
756.55	237.82
756.88	237.58
757.20	237.10
757.53	236.87
757.86	236.79
758.19	236.71
758.51	236.65
758.84	236.18
759.17	236.01
759.49	235.89
759.82	236.04
760.15	236.04
760.47	236.02
760.80	235.76
761.13	235.63
761.45	235.48
761.78	235.42
762.11	235.35
762.43	235.28
762.76	235.18
763.08	235.23
763.41	235.21
763.74	235.19
764.06	235.17
764.39	235.12
764.71	235.03
765.04	234.99
765.37	234.91
765.69	234.94
766.02	234.79
766.34	234.70
766.67	234.45
767.00	234.39
767.32	234.48
767.65	234.67
767.97	234.60
768.30	234.52
768.62	234.39
768.95	234.23
769.27	234.05
769.60	234.10
769.92	233.95
770.25	233.77
770.57	233.58
770.90	233.47
771.22	233.31
771.55	233.23
771.87	233.07
772.20	232.94
772.52	233.22
772.85	233.73
773.17	233.66
773.50	233.62
773.82	233.57
774.15	233.30
774.47	232.98
774.80	232.82
775.12	232.74
775.45	232.67
775.77	232.63
776.09	232.63
776.42	232.53
776.74	232.59
777.07	232.54
777.39	232.52
777.72	232.48
778.04	232.50
778.36	232.38
778.69	232.35
779.01	232.37
779.33	231.97
779.66	231.38
779.98	231.39
780.31	231.33
780.63	231.44
780.95	231.48
781.28	231.39
781.60	231.32
781.92	231.30
782.25	231.21
782.57	231.23
782.89	231.15
783.22	231.06
783.54	230.86
783.86	230.81
784.19	230.80
784.51	230.85
784.83	230.77
785.16	230.79
785.48	230.82
785.80	230.70
786.12	230.67
786.45	230.68
786.77	230.59
787.09	230.57
787.42	230.38
787.74	230.35
788.06	230.40
788.38	230.41
788.71	230.35
789.03	230.39
789.35	230.35
789.67	230.33
789.99	230.35
790.32	230.29
790.64	230.41
790.96	230.80
791.28	230.71
791.61	230.69
791.93	230.73
792.25	230.64
792.57	231.06
792.89	230.96
793.21	230.98
793.54	230.93
793.86	230.82
794.18	230.78
794.50	230.73
794.82	230.66
795.14	230.77
795.47	230.84
795.79	230.85
796.11	230.78
796.43	230.68
796.75	230.57
797.07	230.63
797.39	230.51
797.71	230.11
798.04	230.08
798.36	230.07
798.68	230.03
799.00	230.05
799.32	229.74
799.64	229.87
799.96	229.80
800.28	229.84
800.60	229.84
800.92	229.80
801.24	229.72
801.56	229.72
801.89	229.59
802.21	229.60
802.53	229.49
802.85	229.60
803.17	229.88
803.49	229.83
803.81	229.80
804.13	229.76
804.45	229.71
804.77	229.64
805.09	229.60
805.41	229.49
805.73	229.40
806.05	229.23
806.37	229.16
806.69	229.14
807.01	229.10
807.33	229.14
807.65	228.96
807.97	229.25
808.28	229.21
808.60	229.18
808.92	229.07
809.24	229.37
809.56	229.16
809.88	228.98
810.20	229.06
810.52	229.12
810.84	229.04
811.16	228.93
811.48	228.90
811.80	229.04
812.12	229.09
812.43	229.22
812.75	229.33
813.07	229.30
813.39	229.27
813.71	229.19
814.03	229.14
814.35	229.19
814.67	228.90
814.98	228.74
815.30	228.71
815.62	228.61
815.94	228.26
816.26	228.53
816.58	228.40
816.89	228.35
817.21	228.19
817.53	228.18
817.85	228.22
818.17	228.24
818.48	228.04
818.80	228.06
819.12	227.92
819.44	227.78
819.76	227.67
820.07	227.69
820.39	227.74
820.71	227.77
821.03	227.80
821.34	227.81
821.66	227.94
821.98	227.99
822.30	228.05
822.61	228.35
822.93	228.11
823.25	228.10
823.57	228.12
823.88	228.23
824.20	228.26
824.52	228.27
824.83	228.26
825.15	228.32
825.47	228.34
825.79	228.40
826.10	228.40
826.42	228.33
826.74	228.34
827.05	228.29
827.37	228.30
827.69	228.31
828.00	228.37
828.32	228.42
828.64	228.37
828.95	228.62
829.27	228.45
829.58	228.46
829.90	228.60
830.22	228.56
830.53	228.44
830.85	228.43
831.17	228.39
831.48	228.38
831.80	228.30
832.11	228.25
832.43	228.15
832.75	228.17
833.06	228.53
833.38	228.48
833.69	228.48
834.01	228.52
834.32	228.47
834.64	228.37
834.96	228.30
835.27	228.28
835.59	228.07
835.90	228.10
836.22	228.05
836.53	227.85
836.85	227.81
837.16	228.35
837.48	228.40
837.79	228.59
838.11	228.58
838.42	228.67
838.74	228.68
839.05	228.69
839.37	228.65
839.68	228.36
840.00	228.34
840.31	228.40
840.63	228.29
840.94	228.30
841.26	228.23
841.57	228.20
841.88	228.26
842.20	228.19
842.51	228.07
842.83	228.07
843.14	228.49
843.46	228.54
843.77	228.21
844.08	228.15
844.40	227.95
844.71	227.94
845.03	227.82
845.34	227.74
845.65	227.68
845.97	227.65
846.28	227.68
846.60	227.72
846.91	227.66
847.22	227.68
847.54	227.77
847.85	227.82
848.16	227.82
848.48	227.74
848.79	227.95
849.10	228.05
849.42	228.08
849.73	227.70
850.04	227.62
850.36	227.36
850.67	227.42
850.98	227.44
851.30	227.41
851.61	227.45
851.92	227.52
852.23	227.68
852.55	227.72
852.86	227.69
853.17	227.66
853.49	227.71
853.80	227.82
854.11	227.84
854.42	228.00
854.74	227.90
855.05	227.89
855.36	227.62
855.67	227.54
855.99	227.51
856.30	228.05
856.61	228.03
856.92	228.09
857.23	228.04
857.55	227.92
857.86	227.94
858.17	227.99
858.48	227.90
858.79	227.81
859.11	227.90
859.42	227.88
859.73	227.83
860.04	227.84
860.35	227.63
860.66	227.48
860.98	227.39
861.29	227.49
861.60	227.50
861.91	227.61
862.22	227.58
862.53	227.58
862.84	226.99
863.16	227.12
863.47	227.03
863.78	227.01
864.09	227.10
864.40	227.14
864.71	227.09
865.02	227.11
865.33	227.06
865.64	226.89
865.95	226.86
866.27	227.17
866.58	227.15
866.89	227.24
867.20	227.22
867.51	227.10
867.82	227.05
868.13	227.19
868.44	227.10
868.75	227.17
869.06	227.19
869.37	227.27
869.68	227.18
869.99	227.35
870.30	227.36
870.61	227.37
870.92	227.28
871.23	227.25
871.54	227.33
871.85	227.44
872.16	227.55
872.47	227.58
872.78	227.30
873.09	227.20
873.40	227.16
873.71	227.22
874.02	227.27
874.33	227.25
874.64	227.14
874.95	227.17
875.26	227.06
875.56	227.03
875.87	226.98
876.18	226.91
876.49	227.29
876.80	227.25
877.11	227.12
877.42	227.05
877.73	227.04
878.04	226.97
878.35	226.94
878.66	226.92
878.96	226.79
879.27	226.78
879.58	226.80
879.89	226.77
880.20	226.80
880.51	226.73
880.82	226.72
881.12	226.70
881.43	226.65
881.74	226.55
882.05	226.49
882.36	226.49
882.67	226.55
882.97	226.06
883.28	226.03
883.59	226.04
883.90	226.17
884.21	226.28
884.51	226.19
884.82	226.11
885.13	226.12
885.44	226.25
885.74	226.25
886.05	226.24
886.36	226.20
886.67	226.04
886.98	226.39
887.28	226.46
887.59	226.47
887.90	226.49
888.20	226.52
888.51	226.59
888.82	226.57
889.13	226.68
889.43	227.07
889.74	227.06
890.05	227.14
890.35	227.07
890.66	226.98
890.97	226.98
891.28	226.94
891.58	226.99
891.89	226.97
892.20	226.92
892.50	226.91
892.81	226.94
893.12	227.00
893.42	226.69
893.73	226.69
894.04	226.70
894.34	226.65
894.65	226.71
894.95	226.67
895.26	226.75
895.57	226.86
895.87	226.40
896.18	226.56
896.48	226.59
896.79	226.62
897.10	226.65
897.40	226.75
897.71	226.80
898.01	226.74
898.32	226.78
898.63	226.74
898.93	226.83
899.24	226.89
899.54	226.86
899.85	226.91
900.15	226.85
900.46	226.82
900.76	226.95
901.07	226.92
901.38	226.93
901.68	226.94
901.99	226.72
902.29	226.83
902.60	226.79
902.90	226.72
903.21	226.70
903.51	226.65
903.82	226.67
904.12	226.65
904.43	226.66
904.73	226.65
905.03	226.69
905.34	227.15
905.64	227.12
905.95	227.14
906.25	227.14
906.56	227.17
906.86	227.19
907.17	227.17
907.47	227.20
907.77	227.16
908.08	227.08
908.38	227.09
908.69	227.10
908.99	227.15
909.30	227.17
909.60	227.13
909.90	227.18
910.21	227.02
910.51	226.98
910.81	226.98
911.12	226.97
911.42	226.98
911.73	226.48
912.03	226.50
912.33	226.60
912.64	226.51
912.94	226.46
913.24	226.44
913.55	226.38
913.85	226.32
914.15	226.47
914.46	226.48
914.76	226.47
915.06	226.44
915.37	226.30
915.67	226.33
915.97	226.38
916.27	226.29
916.58	226.38
916.88	226.37
917.18	226.27
917.49	226.63
917.79	226.63
918.09	226.63
918.39	226.74
918.70	226.71
919.00	226.71
919.30	226.97
919.60	226.85
919.91	226.79
920.21	226.88
920.51	226.75
920.81	226.78
921.12	226.85
921.42	226.85
921.72	226.94
922.02	226.90
922.32	226.90
922.63	226.99
922.93	227.19
923.23	227.22
923.53	227.25
923.83	226.90
924.13	226.92
924.44	226.92
924.74	226.92
925.04	227.01
925.34	227.07
925.64	226.82
925.94	226.85
926.24	227.15
926.55	227.11
926.85	227.18
927.15	227.18
927.45	227.14
927.75	227.06
928.05	227.00
928.35	227.10
928.65	227.19
928.95	227.20
929.26	227.08
929.56	227.20
929.86	227.33
930.16	227.30
930.46	227.27
930.76	227.28
931.06	227.10
931.36	227.00
931.66	227.07
931.96	227.12
932.26	227.20
932.56	226.97
932.86	226.99
933.16	226.99
933.46	226.96
933.76	226.88
934.06	227.06
934.36	227.27
934.66	227.21
934.96	227.20
935.26	227.23
935.56	227.35
935.86	227.26
936.16	227.17
936.46	227.11
936.76	227.13
937.06	227.12
937.36	227.20
937.66	227.21
937.96	227.21
938.26	227.17
938.56	227.08
938.86	227.18
939.16	227.27
939.46	227.31
939.76	227.33
940.06	227.39
940.35	227.27
940.65	227.05
940.95	227.10
941.25	227.02
941.55	226.99
941.85	226.92
942.15	227.08
942.45	227.13
942.75	227.17
943.04	227.22
943.34	227.35
943.64	227.28
943.94	227.17
944.24	227.15
944.54	227.18
944.84	227.17
945.13	226.99
945.43	226.97
945.73	226.96
946.03	226.90
946.33	226.87
946.62	226.90
946.92	226.82
947.22	226.83
947.52	226.84
947.82	226.85
948.11	226.75
948.41	226.62
948.71	226.55
949.01	226.57
949.31	226.51
949.60	226.45
949.90	226.56
950.20	226.57
950.50	226.55
950.79	226.44
951.09	226.59
951.39	226.69
951.69	226.61
951.98	226.71
952.28	226.72
952.58	226.72
952.87	226.61
953.17	226.70
953.47	226.62
953.76	226.57
954.06	226.53
954.36	226.46
954.66	226.40
954.95	226.47
955.25	226.48
955.55	226.51
955.84	226.35
956.14	226.40
956.44	226.43
956.73	226.35
957.03	226.37
957.32	226.30
957.62	226.27
957.92	226.34
958.21	226.21
958.51	226.73
958.81	226.75
959.10	226.89
959.40	227.01
959.69	227.02
959.99	227.13
960.29	227.06
960.58	227.10
960.88	227.29
961.17	227.25
961.47	227.33
961.76	227.24
962.06	227.43
962.36	227.31
962.65	227.31
962.95	227.35
963.24	227.29
963.54	227.24
963.83	227.33
964.13	227.26
964.42	227.19
964.72	226.80
965.01	226.86
965.31	226.81
965.60	226.71
965.90	227.02
966.19	226.89
966.49	226.92
966.78	226.88
967.08	226.80
967.37	226.80
967.67	226.71
967.96	226.81
968.26	226.73
968.55	226.81
968.85	226.83
969.14	226.73
969.43	226.77
969.73	226.78
970.02	226.68
970.32	226.65
970.61	226.66
970.91	226.54
971.20	226.44
971.49	226.35
971.79	226.37
972.08	226.10
972.38	226.21
972.67	226.19
972.96	226.25
973.26	226.18
973.55	226.36
973.85	226.37
974.14	226.38
974.43	226.42
974.73	226.30
975.02	226.31
975.31	226.40
975.61	226.42
975.90	226.32
976.19	226.30
976.49	226.38
976.78	226.33
977.07	226.33
977.37	226.41
977.66	226.46
977.95	226.37
978.24	226.37
978.54	226.49
978.83	226.48
979.12	226.49
979.42	226.47
979.71	226.34
980.00	226.25
980.29	226.19
980.59	226.11
980.88	226.32
981.17	226.28
981.46	226.30
981.76	226.27
982.05	226.50
982.34	226.57
982.63	226.54
982.93	226.59
983.22	226.80
983.51	226.77
983.80	226.85
984.09	226.90
984.39	226.81
984.68	226.68
984.97	226.67
985.26	226.63
985.55	226.73
985.85	226.58
986.14	226.69
986.43	226.73
986.72	226.69
987.01	226.54
987.30	226.48
987.59	226.36
987.89	226.35
988.18	226.17
988.47	226.05
988.76	226.03
989.05	226.04
989.34	225.90
989.63	226.03
989.92	225.89
990.22	225.84
990.51	225.83
990.80	225.81
991.09	225.85
991.38	225.84
991.67	225.75
991.96	225.78
992.25	225.78
992.54	225.73
992.83	225.73
993.12	225.65
993.41	225.83
993.70	226.06
993.99	226.19
994.28	226.28
994.58	226.42
994.87	226.32
995.16	226.32
995.45	226.21
995.74	226.05
996.03	226.20
996.32	226.32
996.61	226.42
996.90	226.47
997.19	226.42
997.48	226.48
997.77	226.41
998.06	226.46
998.34	226.47
998.63	226.41
998.92	226.46
999.21	226.57
999.50	226.49
999.79	226.40
1000.08	226.37
1000.37	226.41
1000.66	226.29
1000.95	226.48
1001.24	226.46
1001.53	226.61
1001.82	226.57
1002.11	226.42
1002.40	226.45
1002.68	226.55
1002.97	226.85
1003.26	226.82
1003.55	226.74
1003.84	226.76
1004.13	226.90
1004.42	226.81
1004.71	226.85
1004.99	226.79
1005.28	226.91
1005.57	226.90
1005.86	226.83
1006.15	226.86
1006.44	226.79
1006.72	226.86
1007.01	226.79
1007.30	226.84
1007.59	226.80
1007.88	226.83
1008.17	226.90
1008.45	226.80
1008.74	226.63
1009.03	226.41
1009.32	226.49
1009.60	226.57
1009.89	226.57
1010.18	226.39
1010.47	226.39
1010.76	226.38
1011.04	226.40
1011.33	226.45
1011.62	226.45
1011.91	226.50
1012.19	226.51
1012.48	226.56
1012.77	226.60
1013.05	226.88
1013.34	226.84
1013.63	226.78
1013.92	226.87
1014.20	226.86
1014.49	226.94
1014.78	226.97
1015.06	226.85
1015.35	226.79
1015.64	226.79
1015.92	226.85
1016.21	226.92
1016.50	226.95
1016.78	227.06
1017.07	227.09
1017.36	226.98
1017.64	226.94
1017.93	226.93
1018.22	226.91
1018.50	226.85
1018.79	226.88
1019.08	226.56
1019.36	226.66
1019.65	226.57
1019.93	226.68
1020.22	226.75
1020.51	226.97
1020.79	226.88
1021.08	227.00
1021.36	225.60
1021.65	228.15
1021.94	225.95
1022.22	227.50
1022.51	224.85
1022.79	229.70
1023.08	227.65
1023.36	232.80
1023.65	224.90
>>>>>End Processed Spectral Data<<<<<
