SpectraSuite Data File
++++++++++++++++++++++++++++++++++++
Date: Wed Sep 04 18:05:20 EDT 2013
User: lab3
Dark Spectrum Present: Yes
Reference Spectrum Present: No
Number of Sampled Component Spectra: 1
Spectrometers: USB2E7196
Integration Time (usec): 170000 (USB2E7196)
Spectra Averaged: 20 (USB2E7196)
Boxcar Smoothing: 10 (USB2E7196)
Correct for Electrical Dark: No (USB2E7196)
Strobe/Lamp Enabled: No (USB2E7196)
Correct for Detector Non-linearity: No (USB2E7196)
Correct for Stray Light: No (USB2E7196)
Number of Pixels in Processed Spectrum: 2048
>>>>>Begin Processed Spectral Data<<<<<
339.09	0.00
339.48	212.95
339.86	216.00
340.24	215.65
340.63	217.80
341.01	225.95
341.39	218.95
341.78	222.60
342.16	224.70
342.54	224.10
342.93	212.66
343.31	223.45
343.69	224.01
344.07	224.42
344.46	224.97
344.84	225.36
345.22	225.39
345.60	225.76
345.99	225.98
346.37	226.05
346.75	226.07
347.13	226.25
347.52	226.25
347.90	226.47
348.28	226.59
348.66	226.65
349.05	226.51
349.43	226.64
349.81	226.72
350.19	226.81
350.57	226.87
350.96	226.99
351.34	227.07
351.72	227.18
352.10	227.29
352.48	227.32
352.87	227.39
353.25	227.41
353.63	227.46
354.01	227.43
354.39	227.52
354.77	227.63
355.15	227.74
355.54	227.78
355.92	227.66
356.30	227.71
356.68	228.11
357.06	228.31
357.44	228.25
357.82	228.36
358.20	228.82
358.58	228.87
358.97	228.92
359.35	229.01
359.73	229.20
360.11	229.21
360.49	229.33
360.87	229.37
361.25	229.49
361.63	229.66
362.01	229.77
362.39	229.82
362.77	229.94
363.15	229.94
363.53	229.94
363.91	230.01
364.29	230.07
364.67	229.62
365.05	229.62
365.43	229.79
365.81	229.78
366.19	229.58
366.57	229.79
366.95	229.76
367.33	229.67
367.71	229.67
368.09	229.82
368.47	229.80
368.85	229.82
369.23	229.93
369.61	229.72
369.99	229.87
370.37	229.90
370.75	230.13
371.13	229.95
371.51	229.93
371.89	229.97
372.27	229.91
372.65	229.95
373.03	229.95
373.41	229.84
373.78	229.80
374.16	229.48
374.54	229.28
374.92	229.25
375.30	229.21
375.68	229.01
376.06	228.88
376.44	228.75
376.82	228.65
377.19	228.53
377.57	228.56
377.95	228.37
378.33	228.24
378.71	227.93
379.09	227.98
379.47	228.01
379.84	227.89
380.22	227.76
380.60	227.65
380.98	227.56
381.36	227.46
381.73	227.36
382.11	227.44
382.49	227.36
382.87	227.25
383.25	227.21
383.62	227.74
384.00	227.63
384.38	227.56
384.76	227.73
385.13	227.88
385.51	227.76
385.89	227.58
386.27	227.55
386.64	227.57
387.02	227.48
387.40	227.39
387.78	227.37
388.15	227.41
388.53	227.30
388.91	227.23
389.29	227.15
389.66	227.17
390.04	227.11
390.42	227.23
390.79	227.24
391.17	227.23
391.55	226.72
391.92	226.76
392.30	226.94
392.68	226.77
393.05	226.64
393.43	226.64
393.81	226.69
394.18	226.72
394.56	226.76
394.94	226.83
395.31	226.80
395.69	227.03
396.06	227.09
396.44	227.19
396.82	227.34
397.19	227.73
397.57	227.74
397.95	227.87
398.32	227.85
398.70	227.90
399.07	228.09
399.45	228.15
399.82	228.27
400.20	228.23
400.58	228.30
400.95	228.25
401.33	228.46
401.70	228.99
402.08	229.08
402.45	229.17
402.83	229.47
403.20	229.66
403.58	229.69
403.95	229.94
404.33	230.21
404.71	230.35
405.08	230.70
405.46	230.94
405.83	231.20
406.21	231.40
406.58	231.71
406.96	231.88
407.33	232.20
407.70	232.60
408.08	233.31
408.45	233.75
408.83	234.29
409.20	234.74
409.58	234.89
409.95	235.48
410.33	236.04
410.70	236.39
411.08	237.01
411.45	237.59
411.82	238.11
412.20	238.87
412.57	239.87
412.95	240.28
413.32	241.11
413.69	241.88
414.07	242.80
414.44	243.80
414.82	244.86
415.19	246.01
415.56	247.15
415.94	248.14
416.31	249.61
416.68	251.04
417.06	252.60
417.43	254.27
417.81	255.99
418.18	257.70
418.55	259.67
418.93	261.77
419.30	263.99
419.67	266.32
420.04	268.53
420.42	270.90
420.79	274.05
421.16	276.86
421.54	280.00
421.91	282.99
422.28	286.13
422.66	289.49
423.03	293.09
423.40	296.44
423.77	300.06
424.15	303.64
424.52	307.44
424.89	311.74
425.26	315.62
425.64	319.46
426.01	323.75
426.38	328.21
426.75	332.63
427.13	337.13
427.50	342.01
427.87	346.98
428.24	351.77
428.61	356.29
428.99	361.66
429.36	367.02
429.73	372.66
430.10	378.21
430.47	383.98
430.85	389.56
431.22	395.64
431.59	402.44
431.96	408.79
432.33	415.76
432.70	422.45
433.08	430.34
433.45	437.74
433.82	445.10
434.19	453.30
434.56	461.46
434.93	469.21
435.30	476.91
435.68	485.51
436.05	494.10
436.42	502.48
436.79	510.07
437.16	518.67
437.53	527.37
437.90	536.12
438.27	544.67
438.64	553.64
439.01	562.25
439.38	569.46
439.75	576.56
440.13	584.53
440.50	592.01
440.87	598.16
441.24	604.64
441.61	611.60
441.98	616.68
442.35	622.64
442.72	628.62
443.09	634.53
443.46	638.10
443.83	640.43
444.20	642.32
444.57	645.27
444.94	646.30
445.31	647.39
445.68	648.81
446.05	648.89
446.42	647.62
446.79	646.10
447.16	644.44
447.53	643.19
447.90	639.56
448.27	635.92
448.64	631.11
449.01	627.37
449.37	621.34
449.74	615.28
450.11	608.33
450.48	600.62
450.85	592.47
451.22	585.37
451.59	578.69
451.96	572.22
452.33	564.01
452.70	556.48
453.07	547.84
453.43	538.60
453.80	530.20
454.17	522.03
454.54	514.33
454.91	506.20
455.28	498.20
455.65	490.63
456.02	483.66
456.38	477.18
456.75	469.29
457.12	462.61
457.49	456.30
457.86	449.81
458.23	444.63
458.59	438.83
458.96	433.13
459.33	427.95
459.70	423.04
460.07	418.90
460.43	414.34
460.80	410.04
461.17	406.19
461.54	402.19
461.91	398.38
462.27	394.44
462.64	390.96
463.01	387.36
463.38	384.09
463.74	380.07
464.11	376.98
464.48	374.38
464.85	371.61
465.21	369.45
465.58	367.17
465.95	364.33
466.32	362.13
466.68	359.81
467.05	357.54
467.42	355.26
467.78	352.90
468.15	350.71
468.52	349.10
468.88	346.88
469.25	344.97
469.62	343.53
469.98	341.86
470.35	340.47
470.72	338.99
471.08	337.28
471.45	336.04
471.82	334.80
472.18	333.39
472.55	332.32
472.92	330.96
473.28	329.86
473.65	328.73
474.02	327.63
474.38	326.78
474.75	326.05
475.11	325.20
475.48	324.53
475.85	323.89
476.21	323.17
476.58	322.78
476.94	322.34
477.31	321.77
477.67	321.42
478.04	321.07
478.41	320.92
478.77	321.21
479.14	320.95
479.50	320.92
479.87	320.94
480.23	321.00
480.60	320.95
480.96	320.93
481.33	321.32
481.69	321.54
482.06	321.73
482.42	322.11
482.79	322.48
483.15	322.90
483.52	323.59
483.88	324.08
484.25	324.66
484.61	325.36
484.98	326.04
485.34	327.01
485.71	327.99
486.07	328.90
486.44	329.55
486.80	330.68
487.17	331.71
487.53	333.11
487.90	334.54
488.26	336.24
488.62	338.01
488.99	339.51
489.35	341.36
489.72	343.34
490.08	345.21
490.44	347.20
490.81	349.45
491.17	351.56
491.54	354.20
491.90	356.73
492.26	359.51
492.63	362.35
492.99	365.16
493.36	368.17
493.72	371.53
494.08	375.00
494.45	378.65
494.81	382.72
495.17	386.59
495.54	390.61
495.90	394.80
496.26	399.22
496.63	403.75
496.99	408.57
497.35	413.53
497.72	418.79
498.08	424.35
498.44	429.95
498.80	436.08
499.17	442.01
499.53	448.34
499.89	454.80
500.26	461.61
500.62	468.51
500.98	475.96
501.34	483.40
501.71	491.04
502.07	498.85
502.43	506.93
502.79	515.29
503.16	524.14
503.52	533.16
503.88	542.54
504.24	552.42
504.60	562.37
504.97	572.76
505.33	583.34
505.69	594.48
506.05	605.56
506.41	616.86
506.78	628.48
507.14	640.57
507.50	653.03
507.86	665.66
508.22	678.77
508.59	691.76
508.95	705.56
509.31	719.68
509.67	734.13
510.03	748.40
510.39	763.34
510.75	778.39
511.12	793.86
511.48	809.61
511.84	825.32
512.20	841.19
512.56	857.64
512.92	874.41
513.28	891.18
513.64	908.55
514.00	926.04
514.37	944.10
514.73	962.22
515.09	980.73
515.45	999.40
515.81	1017.71
516.17	1036.59
516.53	1055.01
516.89	1073.82
517.25	1093.15
517.61	1113.50
517.97	1133.71
518.33	1153.89
518.69	1174.10
519.05	1194.35
519.41	1215.21
519.77	1236.53
520.13	1257.25
520.49	1278.16
520.85	1300.45
521.21	1321.62
521.57	1342.99
521.93	1363.66
522.29	1384.86
522.65	1405.56
523.01	1426.14
523.37	1447.10
523.73	1468.36
524.09	1489.17
524.45	1510.12
524.81	1531.24
525.17	1551.82
525.53	1572.37
525.89	1593.14
526.25	1614.16
526.61	1635.03
526.97	1655.88
527.33	1677.36
527.68	1699.29
528.04	1720.53
528.40	1740.14
528.76	1761.21
529.12	1781.53
529.48	1802.57
529.84	1822.96
530.20	1844.23
530.56	1865.36
530.91	1886.28
531.27	1906.68
531.63	1927.44
531.99	1948.23
532.35	1968.33
532.71	1988.81
533.07	2009.66
533.42	2029.77
533.78	2049.76
534.14	2069.55
534.50	2088.72
534.86	2107.80
535.21	2125.47
535.57	2143.94
535.93	2162.14
536.29	2180.12
536.65	2198.55
537.00	2216.40
537.36	2233.93
537.72	2250.31
538.08	2267.89
538.44	2284.95
538.79	2301.66
539.15	2318.55
539.51	2334.56
539.87	2350.02
540.22	2364.47
540.58	2378.72
540.94	2392.16
541.29	2404.70
541.65	2417.70
542.01	2430.64
542.37	2441.39
542.72	2452.46
543.08	2463.75
543.44	2475.54
543.79	2486.04
544.15	2496.02
544.51	2505.92
544.87	2515.85
545.22	2524.82
545.58	2532.60
545.94	2539.88
546.29	2546.32
546.65	2552.60
547.01	2558.37
547.36	2564.19
547.72	2569.60
548.07	2573.92
548.43	2579.40
548.79	2584.32
549.14	2588.48
549.50	2592.38
549.86	2596.74
550.21	2600.65
550.57	2603.60
550.92	2605.37
551.28	2606.89
551.64	2609.16
551.99	2611.32
552.35	2612.82
552.70	2614.93
553.06	2616.63
553.41	2617.78
553.77	2620.19
554.13	2622.15
554.48	2623.61
554.84	2624.93
555.19	2625.92
555.55	2627.71
555.90	2627.12
556.26	2626.64
556.61	2625.25
556.97	2623.25
557.32	2622.73
557.68	2621.82
558.03	2620.81
558.39	2619.46
558.74	2618.60
559.10	2615.54
559.45	2612.31
559.81	2608.14
560.16	2603.22
560.52	2598.61
560.87	2594.48
561.23	2588.94
561.58	2582.76
561.94	2575.94
562.29	2568.34
562.64	2561.66
563.00	2553.36
563.35	2547.25
563.71	2540.63
564.06	2534.16
564.42	2527.76
564.77	2520.65
565.12	2512.89
565.48	2504.84
565.83	2496.87
566.19	2488.38
566.54	2480.95
566.89	2472.78
567.25	2464.84
567.60	2457.39
567.96	2449.69
568.31	2441.62
568.66	2432.70
569.02	2423.70
569.37	2415.92
569.72	2408.64
570.08	2399.50
570.43	2389.99
570.78	2380.52
571.14	2371.03
571.49	2361.33
571.84	2351.83
572.20	2340.80
572.55	2330.79
572.90	2320.02
573.26	2309.51
573.61	2298.67
573.96	2287.41
574.31	2275.49
574.67	2263.89
575.02	2251.39
575.37	2238.47
575.72	2225.18
576.08	2213.12
576.43	2200.56
576.78	2187.12
577.13	2172.92
577.49	2160.13
577.84	2148.35
578.19	2136.06
578.54	2123.43
578.90	2110.98
579.25	2098.68
579.60	2086.23
579.95	2073.10
580.30	2059.81
580.66	2046.38
581.01	2032.79
581.36	2018.65
581.71	2005.82
582.06	1992.92
582.42	1980.13
582.77	1967.44
583.12	1955.53
583.47	1942.89
583.82	1930.95
584.17	1919.06
584.53	1907.40
584.88	1894.25
585.23	1880.99
585.58	1866.72
585.93	1853.59
586.28	1839.95
586.63	1825.46
586.98	1811.19
587.34	1798.01
587.69	1784.89
588.04	1772.22
588.39	1759.99
588.74	1747.72
589.09	1735.52
589.44	1722.37
589.79	1710.47
590.14	1698.54
590.49	1686.47
590.84	1674.37
591.19	1661.76
591.54	1649.38
591.89	1637.20
592.25	1626.78
592.60	1615.47
592.95	1604.09
593.30	1591.83
593.65	1580.15
594.00	1568.36
594.35	1558.41
594.70	1546.51
595.05	1535.04
595.40	1523.14
595.75	1511.21
596.10	1499.91
596.45	1488.12
596.80	1477.38
597.15	1465.73
597.50	1453.75
597.85	1442.10
598.19	1430.40
598.54	1418.90
598.89	1407.57
599.24	1396.86
599.59	1385.19
599.94	1374.07
600.29	1363.33
600.64	1352.81
600.99	1341.63
601.34	1331.91
601.69	1320.63
602.04	1310.51
602.39	1300.67
602.74	1290.95
603.08	1281.39
603.43	1272.09
603.78	1262.56
604.13	1252.92
604.48	1243.13
604.83	1233.50
605.18	1223.52
605.53	1213.98
605.87	1204.74
606.22	1196.10
606.57	1186.69
606.92	1177.22
607.27	1168.05
607.62	1159.30
607.96	1150.55
608.31	1142.82
608.66	1134.45
609.01	1125.95
609.36	1117.42
609.70	1108.64
610.05	1100.14
610.40	1091.58
610.75	1082.51
611.10	1073.83
611.44	1065.15
611.79	1056.96
612.14	1048.90
612.49	1040.93
612.83	1033.38
613.18	1025.65
613.53	1017.62
613.88	1009.60
614.22	1001.82
614.57	993.96
614.92	986.08
615.27	978.67
615.61	970.73
615.96	962.72
616.31	954.97
616.65	947.93
617.00	940.52
617.35	933.04
617.70	925.82
618.04	918.69
618.39	911.60
618.74	905.04
619.08	898.05
619.43	890.97
619.78	884.03
620.12	876.73
620.47	869.62
620.82	862.44
621.16	855.70
621.51	849.35
621.85	842.84
622.20	836.24
622.55	829.47
622.89	822.88
623.24	816.40
623.59	810.08
623.93	803.64
624.28	797.36
624.62	791.64
624.97	785.66
625.32	779.79
625.66	773.87
626.01	767.55
626.35	761.68
626.70	756.04
627.04	750.81
627.39	745.24
627.73	740.00
628.08	734.83
628.43	729.33
628.77	723.66
629.12	718.15
629.46	713.14
629.81	708.27
630.15	703.48
630.50	698.69
630.84	693.75
631.19	688.81
631.53	684.41
631.88	679.15
632.22	674.14
632.57	669.76
632.91	665.12
633.26	660.69
633.60	656.03
633.95	651.29
634.29	646.33
634.64	641.84
634.98	637.02
635.32	632.41
635.67	628.17
636.01	623.94
636.36	619.72
636.70	615.76
637.05	611.59
637.39	607.35
637.73	603.10
638.08	599.05
638.42	594.81
638.77	590.36
639.11	585.93
639.45	581.71
639.80	577.15
640.14	573.06
640.49	569.02
640.83	565.26
641.17	561.63
641.52	557.85
641.86	554.34
642.20	551.07
642.55	547.31
642.89	543.61
643.23	540.11
643.58	537.07
643.92	533.15
644.26	529.68
644.61	526.43
644.95	523.12
645.29	519.70
645.64	516.61
645.98	513.50
646.32	510.64
646.66	507.60
647.01	504.63
647.35	501.78
647.69	498.74
648.04	495.83
648.38	492.93
648.72	490.04
649.06	486.84
649.41	483.71
649.75	480.90
650.09	478.14
650.43	475.33
650.78	472.30
651.12	469.60
651.46	466.69
651.80	463.92
652.14	461.13
652.49	458.56
652.83	455.92
653.17	453.27
653.51	450.46
653.85	448.01
654.20	445.43
654.54	442.83
654.88	440.40
655.22	438.22
655.56	435.85
655.90	433.50
656.25	431.33
656.59	429.06
656.93	426.79
657.27	424.67
657.61	422.08
657.95	419.75
658.29	417.50
658.64	415.43
658.98	413.11
659.32	410.85
659.66	408.67
660.00	406.47
660.34	404.37
660.68	402.33
661.02	400.36
661.36	398.42
661.70	396.33
662.05	394.14
662.39	392.01
662.73	390.12
663.07	388.47
663.41	386.57
663.75	384.62
664.09	382.67
664.43	380.65
664.77	379.13
665.11	377.44
665.45	375.84
665.79	374.26
666.13	372.62
666.47	370.93
666.81	369.22
667.15	367.58
667.49	366.10
667.83	364.81
668.17	363.17
668.51	361.69
668.85	360.33
669.19	359.25
669.53	357.65
669.87	356.02
670.21	354.38
670.55	353.00
670.89	352.00
671.23	350.82
671.57	349.40
671.91	347.94
672.25	346.59
672.58	345.36
672.92	343.84
673.26	342.57
673.60	341.36
673.94	340.19
674.28	338.94
674.62	337.74
674.96	336.45
675.30	335.34
675.64	334.12
675.97	332.93
676.31	331.61
676.65	330.43
676.99	329.55
677.33	328.39
677.67	327.30
678.01	325.79
678.34	324.57
678.68	323.68
679.02	322.60
679.36	321.52
679.70	320.40
680.04	319.49
680.37	318.45
680.71	317.43
681.05	316.51
681.39	315.73
681.73	314.81
682.06	313.86
682.40	312.90
682.74	312.11
683.08	311.38
683.42	310.51
683.75	309.78
684.09	308.81
684.43	308.02
684.77	307.08
685.10	306.40
685.44	305.69
685.78	304.81
686.12	304.11
686.45	303.36
686.79	302.44
687.13	301.76
687.46	301.08
687.80	300.56
688.14	299.70
688.48	298.87
688.81	298.05
689.15	297.50
689.49	296.76
689.82	296.06
690.16	295.13
690.50	294.44
690.83	293.73
691.17	293.02
691.51	292.29
691.84	291.73
692.18	290.97
692.52	290.25
692.85	289.60
693.19	289.13
693.52	288.46
693.86	287.98
694.20	287.30
694.53	286.63
694.87	285.83
695.21	285.21
695.54	284.63
695.88	283.97
696.21	283.15
696.55	282.51
696.88	281.90
697.22	281.36
697.56	280.80
697.89	280.19
698.23	279.63
698.56	279.10
698.90	278.61
699.23	278.14
699.57	277.70
699.90	277.15
700.24	276.45
700.58	276.04
700.91	275.58
701.25	275.47
701.58	275.35
701.92	274.99
702.25	274.52
702.59	274.08
702.92	273.73
703.26	273.41
703.59	273.07
703.93	272.97
704.26	272.55
704.60	272.12
704.93	271.71
705.26	271.28
705.60	270.89
705.93	270.33
706.27	270.09
706.60	269.72
706.94	269.51
707.27	269.12
707.61	268.73
707.94	268.39
708.27	267.58
708.61	266.82
708.94	266.35
709.28	266.00
709.61	265.58
709.94	265.16
710.28	264.75
710.61	264.36
710.95	263.60
711.28	263.53
711.61	263.15
711.95	262.84
712.28	262.41
712.61	262.07
712.95	261.98
713.28	261.71
713.61	261.27
713.95	260.90
714.28	260.54
714.61	260.18
714.95	259.77
715.28	259.39
715.61	259.12
715.95	258.87
716.28	258.47
716.61	258.17
716.95	257.82
717.28	257.48
717.61	257.15
717.94	256.83
718.28	256.17
718.61	255.84
718.94	255.59
719.27	255.40
719.61	255.15
719.94	254.78
720.27	254.34
720.60	254.11
720.94	253.76
721.27	253.59
721.60	253.38
721.93	253.06
722.27	253.00
722.60	252.81
722.93	252.50
723.26	252.35
723.59	252.05
723.93	251.93
724.26	251.70
724.59	251.48
724.92	251.29
725.25	251.29
725.59	251.14
725.92	250.94
726.25	250.70
726.58	250.52
726.91	250.29
727.24	250.16
727.57	249.97
727.91	249.75
728.24	249.58
728.57	249.34
728.90	249.28
729.23	249.00
729.56	248.97
729.89	248.88
730.22	248.75
730.55	248.57
730.89	248.38
731.22	248.30
731.55	248.09
731.88	247.94
732.21	247.64
732.54	247.38
732.87	247.25
733.20	247.10
733.53	246.87
733.86	246.70
734.19	246.46
734.52	246.37
734.85	246.49
735.18	246.26
735.51	246.31
735.84	246.15
736.17	246.08
736.50	245.67
736.83	246.01
737.16	245.85
737.49	245.79
737.82	245.62
738.15	245.44
738.48	245.31
738.81	245.15
739.14	244.96
739.47	244.83
739.80	244.64
740.13	244.59
740.46	244.45
740.79	244.29
741.12	244.07
741.45	243.75
741.78	243.34
742.11	243.33
742.44	243.03
742.77	242.93
743.10	242.75
743.43	242.59
743.75	242.00
744.08	242.48
744.41	242.25
744.74	242.03
745.07	241.80
745.40	241.69
745.73	241.68
746.06	241.60
746.39	241.43
746.71	241.31
747.04	241.05
747.37	240.83
747.70	240.84
748.03	240.85
748.36	240.82
748.68	240.71
749.01	240.43
749.34	240.37
749.67	240.25
750.00	240.22
750.33	240.58
750.65	240.45
750.98	239.69
751.31	239.55
751.64	239.55
751.97	239.73
752.29	239.63
752.62	239.35
752.95	239.17
753.28	239.11
753.60	238.88
753.93	238.90
754.26	238.86
754.59	238.49
754.91	238.26
755.24	238.13
755.57	238.08
755.90	238.00
756.22	237.77
756.55	237.54
756.88	237.34
757.20	236.78
757.53	236.56
757.86	236.42
758.19	236.38
758.51	236.24
758.84	235.86
759.17	235.71
759.49	235.65
759.82	235.76
760.15	235.71
760.47	235.61
760.80	235.36
761.13	235.38
761.45	235.31
761.78	235.23
762.11	235.15
762.43	234.95
762.76	234.82
763.08	234.79
763.41	234.81
763.74	234.74
764.06	234.65
764.39	234.55
764.71	234.57
765.04	234.42
765.37	234.25
765.69	234.22
766.02	234.07
766.34	233.97
766.67	233.74
767.00	233.69
767.32	233.89
767.65	234.10
767.97	233.96
768.30	233.99
768.62	233.95
768.95	233.79
769.27	233.80
769.60	233.79
769.92	233.66
770.25	233.44
770.57	233.26
770.90	233.19
771.22	233.18
771.55	233.07
771.87	233.14
772.20	233.15
772.52	233.50
772.85	234.10
773.17	234.08
773.50	233.96
773.82	233.84
774.15	233.65
774.47	233.31
774.80	233.21
775.12	233.08
775.45	233.00
775.77	233.05
776.09	233.02
776.42	233.00
776.74	233.10
777.07	233.02
777.39	233.08
777.72	233.05
778.04	233.12
778.36	233.07
778.69	232.98
779.01	232.98
779.33	232.54
779.66	232.00
779.98	231.90
780.31	231.92
780.63	232.18
780.95	232.18
781.28	232.12
781.60	232.08
781.92	232.12
782.25	232.18
782.57	232.20
782.89	232.19
783.22	232.17
783.54	232.05
783.86	232.11
784.19	232.12
784.51	232.25
784.83	232.05
785.16	232.04
785.48	231.98
785.80	231.91
786.12	231.93
786.45	231.86
786.77	231.94
787.09	231.94
787.42	231.69
787.74	231.73
788.06	231.78
788.38	231.76
788.71	231.68
789.03	231.65
789.35	231.65
789.67	231.39
789.99	231.35
790.32	231.28
790.64	231.30
790.96	231.53
791.28	231.39
791.61	231.38
791.93	231.34
792.25	231.28
792.57	231.52
792.89	231.32
793.21	231.27
793.54	231.12
793.86	231.05
794.18	231.04
794.50	230.86
794.82	230.84
795.14	230.87
795.47	230.93
795.79	230.88
796.11	230.69
796.43	230.71
796.75	230.68
797.07	230.64
797.39	230.57
797.71	230.18
798.04	230.13
798.36	230.11
798.68	230.05
799.00	230.10
799.32	229.83
799.64	229.95
799.96	229.96
800.28	230.05
800.60	229.99
800.92	230.00
801.24	229.95
801.56	229.93
801.89	229.79
802.21	229.77
802.53	229.65
802.85	229.73
803.17	229.89
803.49	229.77
803.81	229.75
804.13	229.67
804.45	229.59
804.77	229.65
805.09	229.60
805.41	229.55
805.73	229.52
806.05	229.43
806.37	229.39
806.69	229.30
807.01	229.26
807.33	229.29
807.65	229.09
807.97	229.25
808.28	229.22
808.60	229.21
808.92	229.02
809.24	229.31
809.56	229.22
809.88	229.11
810.20	229.07
810.52	229.12
810.84	229.05
811.16	229.02
811.48	228.95
811.80	229.15
812.12	229.09
812.43	229.09
812.75	229.11
813.07	229.04
813.39	229.09
813.71	228.92
814.03	228.85
814.35	228.87
814.67	228.68
814.98	228.61
815.30	228.63
815.62	228.64
815.94	228.28
816.26	228.46
816.58	228.34
816.89	228.41
817.21	228.28
817.53	228.32
817.85	228.37
818.17	228.33
818.48	228.15
818.80	228.24
819.12	228.18
819.44	228.08
819.76	228.01
820.07	228.00
820.39	228.07
820.71	228.12
821.03	228.17
821.34	228.13
821.66	228.16
821.98	228.19
822.30	228.15
822.61	228.48
822.93	228.30
823.25	228.30
823.57	228.31
823.88	228.44
824.20	228.43
824.52	228.52
824.83	228.56
825.15	228.48
825.47	228.52
825.79	228.57
826.10	228.61
826.42	228.60
826.74	228.65
827.05	228.65
827.37	228.60
827.69	228.53
828.00	228.57
828.32	228.52
828.64	228.44
828.95	228.76
829.27	228.55
829.58	228.53
829.90	228.64
830.22	228.62
830.53	228.50
830.85	228.46
831.17	228.33
831.48	228.30
831.80	228.29
832.11	228.23
832.43	228.21
832.75	228.19
833.06	228.57
833.38	228.44
833.69	228.42
834.01	228.48
834.32	228.46
834.64	228.42
834.96	228.45
835.27	228.51
835.59	228.37
835.90	228.35
836.22	228.35
836.53	228.25
836.85	228.21
837.16	228.71
837.48	228.72
837.79	228.88
838.11	228.85
838.42	228.78
838.74	228.81
839.05	228.79
839.37	228.79
839.68	228.40
840.00	228.39
840.31	228.41
840.63	228.32
840.94	228.30
841.26	228.20
841.57	228.22
841.88	228.17
842.20	228.01
842.51	227.91
842.83	227.94
843.14	228.36
843.46	228.35
843.77	227.99
844.08	227.92
844.40	227.79
844.71	227.76
845.03	227.80
845.34	227.72
845.65	227.62
845.97	227.60
846.28	227.66
846.60	227.62
846.91	227.60
847.22	227.58
847.54	227.62
847.85	227.72
848.16	227.69
848.48	227.68
848.79	227.90
849.10	227.94
849.42	227.91
849.73	227.45
850.04	227.49
850.36	227.36
850.67	227.50
850.98	227.46
851.30	227.45
851.61	227.44
851.92	227.41
852.23	227.60
852.55	227.64
852.86	227.69
853.17	227.74
853.49	227.78
853.80	227.90
854.11	227.95
854.42	228.00
854.74	227.89
855.05	227.88
855.36	227.59
855.67	227.64
855.99	227.63
856.30	228.25
856.61	228.15
856.92	228.15
857.23	228.12
857.55	228.05
857.86	228.13
858.17	228.19
858.48	228.19
858.79	228.02
859.11	228.04
859.42	227.98
859.73	227.97
860.04	227.99
860.35	227.88
860.66	227.78
860.98	227.72
861.29	227.85
861.60	227.83
861.91	228.03
862.22	227.96
862.53	227.88
862.84	227.21
863.16	227.37
863.47	227.30
863.78	227.32
864.09	227.45
864.40	227.42
864.71	227.45
865.02	227.58
865.33	227.56
865.64	227.48
865.95	227.46
866.27	227.76
866.58	227.71
866.89	227.76
867.20	227.72
867.51	227.71
867.82	227.68
868.13	227.86
868.44	227.72
868.75	227.88
869.06	227.96
869.37	228.10
869.68	227.96
869.99	228.06
870.30	228.06
870.61	228.07
870.92	228.03
871.23	227.95
871.54	227.93
871.85	228.05
872.16	228.10
872.47	228.07
872.78	227.80
873.09	227.81
873.40	227.69
873.71	227.75
874.02	227.78
874.33	227.76
874.64	227.60
874.95	227.68
875.26	227.51
875.56	227.43
875.87	227.40
876.18	227.36
876.49	227.86
876.80	227.79
877.11	227.63
877.42	227.60
877.73	227.72
878.04	227.60
878.35	227.65
878.66	227.65
878.96	227.62
879.27	227.58
879.58	227.56
879.89	227.61
880.20	227.70
880.51	227.66
880.82	227.54
881.12	227.58
881.43	227.48
881.74	227.39
882.05	227.40
882.36	227.43
882.67	227.46
882.97	226.91
883.28	226.87
883.59	226.89
883.90	226.95
884.21	226.96
884.51	226.95
884.82	226.83
885.13	226.82
885.44	226.78
885.74	226.82
886.05	226.80
886.36	226.77
886.67	226.57
886.98	226.83
887.28	226.98
887.59	226.97
887.90	227.02
888.20	226.99
888.51	227.06
888.82	226.96
889.13	226.94
889.43	227.32
889.74	227.27
890.05	227.29
890.35	227.26
890.66	227.12
890.97	227.05
891.28	226.99
891.58	227.09
891.89	227.08
892.20	226.98
892.50	226.92
892.81	226.86
893.12	226.87
893.42	226.67
893.73	226.66
894.04	226.69
894.34	226.62
894.65	226.70
894.95	226.65
895.26	226.69
895.57	226.94
895.87	226.50
896.18	226.62
896.48	226.67
896.79	226.69
897.10	226.76
897.40	226.91
897.71	226.95
898.01	226.82
898.32	226.85
898.63	226.87
898.93	226.90
899.24	227.00
899.54	226.98
899.85	226.86
900.15	226.79
900.46	226.75
900.76	226.90
901.07	226.81
901.38	226.76
901.68	226.75
901.99	226.50
902.29	226.55
902.60	226.47
902.90	226.35
903.21	226.29
903.51	226.28
903.82	226.32
904.12	226.37
904.43	226.38
904.73	226.39
905.03	226.44
905.34	226.89
905.64	226.82
905.95	226.87
906.25	226.91
906.56	227.02
906.86	227.03
907.17	226.93
907.47	227.07
907.77	227.07
908.08	227.06
908.38	227.10
908.69	227.19
908.99	227.28
909.30	227.39
909.60	227.43
909.90	227.39
910.21	227.29
910.51	227.24
910.81	227.29
911.12	227.32
911.42	227.29
911.73	226.81
912.03	226.92
912.33	226.96
912.64	226.96
912.94	226.80
913.24	226.73
913.55	226.72
913.85	226.62
914.15	226.76
914.46	226.78
914.76	226.75
915.06	226.65
915.37	226.61
915.67	226.58
915.97	226.55
916.27	226.45
916.58	226.41
916.88	226.42
917.18	226.33
917.49	226.60
917.79	226.69
918.09	226.72
918.39	226.79
918.70	226.75
919.00	226.73
919.30	226.96
919.60	226.91
919.91	226.85
920.21	226.89
920.51	226.81
920.81	226.75
921.12	226.85
921.42	226.86
921.72	226.78
922.02	226.70
922.32	226.78
922.63	226.83
922.93	227.05
923.23	227.04
923.53	227.03
923.83	226.78
924.13	226.78
924.44	226.82
924.74	226.85
925.04	226.92
925.34	226.88
925.64	226.72
925.94	226.75
926.24	226.98
926.55	226.98
926.85	227.01
927.15	227.04
927.45	227.09
927.75	227.14
928.05	227.24
928.35	227.22
928.65	227.31
928.95	227.36
929.26	227.20
929.56	227.25
929.86	227.31
930.16	227.24
930.46	227.16
930.76	227.18
931.06	226.97
931.36	226.92
931.66	227.02
931.96	227.07
932.26	227.08
932.56	226.95
932.86	226.92
933.16	227.04
933.46	227.00
933.76	226.90
934.06	226.96
934.36	227.12
934.66	227.22
934.96	227.15
935.26	227.23
935.56	227.26
935.86	227.16
936.16	227.08
936.46	227.00
936.76	226.99
937.06	226.84
937.36	226.89
937.66	226.94
937.96	226.94
938.26	226.82
938.56	226.83
938.86	226.81
939.16	226.96
939.46	226.89
939.76	226.99
940.06	226.97
940.35	226.85
940.65	226.61
940.95	226.59
941.25	226.46
941.55	226.32
941.85	226.30
942.15	226.43
942.45	226.63
942.75	226.70
943.04	226.76
943.34	227.01
943.64	226.96
943.94	226.85
944.24	226.78
944.54	226.83
944.84	226.86
945.13	226.79
945.43	226.67
945.73	226.65
946.03	226.50
946.33	226.42
946.62	226.44
946.92	226.41
947.22	226.50
947.52	226.61
947.82	226.74
948.11	226.73
948.41	226.63
948.71	226.38
949.01	226.38
949.31	226.27
949.60	226.15
949.90	226.23
950.20	226.22
950.50	226.26
950.79	226.30
951.09	226.32
951.39	226.38
951.69	226.35
951.98	226.40
952.28	226.43
952.58	226.47
952.87	226.44
953.17	226.58
953.47	226.45
953.76	226.37
954.06	226.25
954.36	226.16
954.66	226.18
954.95	226.31
955.25	226.38
955.55	226.44
955.84	226.31
956.14	226.36
956.44	226.36
956.73	226.26
957.03	226.25
957.32	226.32
957.62	226.28
957.92	226.30
958.21	226.25
958.51	226.83
958.81	226.86
959.10	226.87
959.40	226.92
959.69	227.00
959.99	227.15
960.29	227.14
960.58	227.17
960.88	227.26
961.17	227.26
961.47	227.28
961.76	227.24
962.06	227.34
962.36	227.25
962.65	227.31
962.95	227.37
963.24	227.33
963.54	227.26
963.83	227.36
964.13	227.46
964.42	227.35
964.72	226.87
965.01	226.87
965.31	226.80
965.60	226.69
965.90	226.93
966.19	226.72
966.49	226.77
966.78	226.77
967.08	226.76
967.37	226.69
967.67	226.68
967.96	226.75
968.26	226.81
968.55	226.95
968.85	226.95
969.14	226.96
969.43	226.97
969.73	227.03
970.02	226.95
970.32	226.93
970.61	226.94
970.91	226.90
971.20	226.76
971.49	226.88
971.79	226.88
972.08	226.60
972.38	226.68
972.67	226.68
972.96	226.70
973.26	226.65
973.55	226.90
973.85	226.85
974.14	226.83
974.43	226.85
974.73	226.72
975.02	226.73
975.31	226.78
975.61	226.74
975.90	226.67
976.19	226.59
976.49	226.55
976.78	226.60
977.07	226.63
977.37	226.75
977.66	226.75
977.95	226.71
978.24	226.71
978.54	226.76
978.83	226.70
979.12	226.72
979.42	226.64
979.71	226.51
980.00	226.50
980.29	226.54
980.59	226.41
980.88	226.47
981.17	226.40
981.46	226.37
981.76	226.40
982.05	226.48
982.34	226.57
982.63	226.51
982.93	226.53
983.22	226.59
983.51	226.62
983.80	226.62
984.09	226.68
984.39	226.68
984.68	226.71
984.97	226.80
985.26	226.72
985.55	226.77
985.85	226.63
986.14	226.68
986.43	226.75
986.72	226.69
987.01	226.62
987.30	226.67
987.59	226.60
987.89	226.60
988.18	226.51
988.47	226.44
988.76	226.45
989.05	226.38
989.34	226.31
989.63	226.43
989.92	226.34
990.22	226.27
990.51	226.23
990.80	226.10
991.09	226.11
991.38	226.18
991.67	226.18
991.96	226.14
992.25	226.16
992.54	226.01
992.83	226.03
993.12	225.95
993.41	225.98
993.70	226.19
993.99	226.30
994.28	226.26
994.58	226.38
994.87	226.30
995.16	226.29
995.45	226.28
995.74	226.08
996.03	226.20
996.32	226.25
996.61	226.35
996.90	226.40
997.19	226.34
997.48	226.31
997.77	226.24
998.06	226.28
998.34	226.21
998.63	226.26
998.92	226.35
999.21	226.41
999.50	226.46
999.79	226.35
1000.08	226.22
1000.37	226.30
1000.66	226.25
1000.95	226.46
1001.24	226.50
1001.53	226.49
1001.82	226.51
1002.11	226.42
1002.40	226.49
1002.68	226.61
1002.97	226.98
1003.26	226.86
1003.55	226.79
1003.84	226.81
1004.13	226.97
1004.42	226.97
1004.71	226.96
1004.99	226.82
1005.28	226.95
1005.57	226.87
1005.86	226.80
1006.15	226.85
1006.44	226.74
1006.72	226.75
1007.01	226.63
1007.30	226.63
1007.59	226.59
1007.88	226.58
1008.17	226.62
1008.45	226.52
1008.74	226.38
1009.03	226.10
1009.32	226.21
1009.60	226.22
1009.89	226.20
1010.18	226.02
1010.47	225.96
1010.76	225.91
1011.04	226.00
1011.33	226.05
1011.62	226.12
1011.91	226.12
1012.19	226.10
1012.48	226.15
1012.77	226.10
1013.05	226.25
1013.34	226.20
1013.63	226.20
1013.92	226.19
1014.20	226.12
1014.49	226.09
1014.78	226.15
1015.06	225.98
1015.35	225.97
1015.64	226.02
1015.92	226.16
1016.21	226.20
1016.50	226.24
1016.78	226.24
1017.07	226.25
1017.36	226.18
1017.64	226.10
1017.93	226.20
1018.22	226.15
1018.50	226.15
1018.79	226.15
1019.08	225.94
1019.36	226.00
1019.65	225.95
1019.93	226.12
1020.22	226.23
1020.51	226.54
1020.79	226.43
1021.08	225.45
1021.36	225.50
1021.65	225.35
1021.94	225.35
1022.22	226.15
1022.51	224.80
1022.79	228.80
1023.08	227.65
1023.36	232.20
1023.65	225.70
>>>>>End Processed Spectral Data<<<<<
