SpectraSuite Data File
++++++++++++++++++++++++++++++++++++
Date: Wed Sep 04 17:42:29 EDT 2013
User: lab3
Dark Spectrum Present: Yes
Reference Spectrum Present: No
Number of Sampled Component Spectra: 1
Spectrometers: USB2E7196
Integration Time (usec): 170000 (USB2E7196)
Spectra Averaged: 20 (USB2E7196)
Boxcar Smoothing: 10 (USB2E7196)
Correct for Electrical Dark: No (USB2E7196)
Strobe/Lamp Enabled: No (USB2E7196)
Correct for Detector Non-linearity: No (USB2E7196)
Correct for Stray Light: No (USB2E7196)
Number of Pixels in Processed Spectrum: 2048
>>>>>Begin Processed Spectral Data<<<<<
339.09	0.00
339.48	213.10
339.86	214.85
340.24	215.75
340.63	216.35
341.01	225.55
341.39	219.45
341.78	221.70
342.16	223.80
342.54	222.10
342.93	211.86
343.31	222.54
343.69	223.06
344.07	223.46
344.46	223.89
344.84	224.35
345.22	224.33
345.60	224.64
345.99	224.79
346.37	224.87
346.75	224.95
347.13	224.97
347.52	225.04
347.90	225.18
348.28	225.23
348.66	225.38
349.05	225.26
349.43	225.35
349.81	225.47
350.19	225.57
350.57	225.56
350.96	225.63
351.34	225.73
351.72	225.80
352.10	225.96
352.48	226.03
352.87	226.00
353.25	226.08
353.63	226.08
354.01	226.11
354.39	226.18
354.77	226.29
355.15	226.49
355.54	226.48
355.92	226.45
356.30	226.57
356.68	226.97
357.06	227.06
357.44	226.95
357.82	226.93
358.20	227.35
358.58	227.48
358.97	227.54
359.35	227.68
359.73	227.81
360.11	227.82
360.49	227.93
360.87	228.00
361.25	228.04
361.63	228.26
362.01	228.32
362.39	228.31
362.77	228.44
363.15	228.45
363.53	228.53
363.91	228.60
364.29	228.60
364.67	228.17
365.05	228.20
365.43	228.37
365.81	228.54
366.19	228.40
366.57	228.61
366.95	228.64
367.33	228.53
367.71	228.50
368.09	228.60
368.47	228.54
368.85	228.59
369.23	228.65
369.61	228.46
369.99	228.66
370.37	228.77
370.75	228.93
371.13	228.84
371.51	228.68
371.89	228.60
372.27	228.65
372.65	228.62
373.03	228.66
373.41	228.55
373.78	228.40
374.16	228.11
374.54	227.96
374.92	227.85
375.30	227.83
375.68	227.77
376.06	227.73
376.44	227.73
376.82	227.68
377.19	227.65
377.57	227.56
377.95	227.32
378.33	227.16
378.71	226.84
379.09	226.88
379.47	227.01
379.84	227.02
380.22	226.86
380.60	226.75
380.98	226.58
381.36	226.58
381.73	226.52
382.11	226.60
382.49	226.60
382.87	226.54
383.25	226.52
383.62	226.94
384.00	226.83
384.38	226.75
384.76	226.82
385.13	226.97
385.51	226.99
385.89	226.91
386.27	226.94
386.64	226.99
387.02	226.86
387.40	226.70
387.78	226.69
388.15	226.72
388.53	226.71
388.91	226.74
389.29	226.65
389.66	226.66
390.04	226.55
390.42	226.50
390.79	226.50
391.17	226.50
391.55	226.04
391.92	225.98
392.30	226.05
392.68	225.86
393.05	225.84
393.43	225.87
393.81	225.91
394.18	225.79
394.56	225.77
394.94	225.90
395.31	225.86
395.69	226.00
396.06	226.05
396.44	226.10
396.82	226.15
397.19	226.42
397.57	226.39
397.95	226.53
398.32	226.46
398.70	226.58
399.07	226.69
399.45	226.74
399.82	226.77
400.20	226.79
400.58	226.95
400.95	226.76
401.33	226.88
401.70	227.28
402.08	227.50
402.45	227.57
402.83	227.75
403.20	227.87
403.58	227.96
403.95	228.15
404.33	228.41
404.71	228.55
405.08	228.93
405.46	229.16
405.83	229.32
406.21	229.61
406.58	229.83
406.96	230.10
407.33	230.46
407.70	230.82
408.08	231.49
408.45	231.84
408.83	232.30
409.20	232.61
409.58	232.71
409.95	233.18
410.33	233.69
410.70	234.05
411.08	234.66
411.45	235.14
411.82	235.57
412.20	236.14
412.57	236.98
412.95	237.24
413.32	238.03
413.69	238.74
414.07	239.46
414.44	240.28
414.82	241.10
415.19	242.03
415.56	243.02
415.94	243.75
416.31	244.96
416.68	246.13
417.06	247.48
417.43	248.90
417.81	250.30
418.18	251.83
418.55	253.42
418.93	255.11
419.30	256.80
419.67	258.69
420.04	260.59
420.42	262.46
420.79	265.07
421.16	267.31
421.54	269.86
421.91	272.42
422.28	274.92
422.66	277.62
423.03	280.56
423.40	283.33
423.77	286.39
424.15	289.30
424.52	292.45
424.89	295.83
425.26	299.11
425.64	302.34
426.01	305.80
426.38	309.38
426.75	313.08
427.13	316.95
427.50	320.86
427.87	324.95
428.24	329.08
428.61	332.73
428.99	337.20
429.36	341.64
429.73	346.06
430.10	350.70
430.47	355.46
430.85	359.92
431.22	365.00
431.59	370.70
431.96	375.84
432.33	381.60
432.70	387.16
433.08	393.69
433.45	399.83
433.82	405.92
434.19	412.66
434.56	419.41
434.93	425.83
435.30	432.22
435.68	439.30
436.05	446.29
436.42	453.20
436.79	459.50
437.16	466.50
437.53	473.97
437.90	481.14
438.27	488.18
438.64	495.76
439.01	502.75
439.38	508.61
439.75	514.50
440.13	521.09
440.50	527.40
440.87	532.51
441.24	537.80
441.61	543.66
441.98	547.93
442.35	552.81
442.72	557.79
443.09	562.77
443.46	565.66
443.83	567.56
444.20	569.33
444.57	571.62
444.94	572.53
445.31	573.45
445.68	574.84
446.05	575.07
446.42	573.96
446.79	572.75
447.16	571.62
447.53	570.80
447.90	567.99
448.27	565.09
448.64	561.09
449.01	558.01
449.37	552.99
449.74	548.12
450.11	542.57
450.48	536.17
450.85	529.53
451.22	523.85
451.59	518.42
451.96	513.21
452.33	506.54
452.70	500.53
453.07	493.38
453.43	485.69
453.80	478.83
454.17	472.29
454.54	465.92
454.91	458.99
455.28	452.34
455.65	446.12
456.02	440.54
456.38	435.14
456.75	428.74
457.12	423.20
457.49	418.04
457.86	412.72
458.23	408.43
458.59	403.72
458.96	399.05
459.33	394.92
459.70	390.70
460.07	387.35
460.43	383.52
460.80	380.01
461.17	376.90
461.54	373.63
461.91	370.39
462.27	367.26
462.64	364.50
463.01	361.60
463.38	358.87
463.74	355.38
464.11	353.04
464.48	350.97
464.85	348.72
465.21	347.10
465.58	345.24
465.95	342.92
466.32	341.10
466.68	339.21
467.05	337.38
467.42	335.58
467.78	333.66
468.15	331.87
468.52	330.59
468.88	328.72
469.25	327.15
469.62	325.96
469.98	324.65
470.35	323.50
470.72	322.30
471.08	320.91
471.45	319.92
471.82	318.83
472.18	317.56
472.55	316.72
472.92	315.44
473.28	314.52
473.65	313.70
474.02	312.82
474.38	312.19
474.75	311.55
475.11	310.82
475.48	310.36
475.85	309.81
476.21	309.23
476.58	309.02
476.94	308.73
477.31	308.38
477.67	308.09
478.04	307.91
478.41	307.70
478.77	308.04
479.14	307.84
479.50	307.81
479.87	307.95
480.23	308.10
480.60	308.15
480.96	308.17
481.33	308.54
481.69	308.85
482.06	309.01
482.42	309.26
482.79	309.73
483.15	310.17
483.52	310.85
483.88	311.25
484.25	311.77
484.61	312.28
484.98	312.89
485.34	313.80
485.71	314.61
486.07	315.57
486.44	316.11
486.80	317.07
487.17	318.09
487.53	319.32
487.90	320.58
488.26	322.20
488.62	323.80
488.99	325.16
489.35	326.71
489.72	328.50
490.08	330.35
490.44	332.13
490.81	334.08
491.17	336.04
491.54	338.44
491.90	340.79
492.26	343.36
492.63	345.82
492.99	348.40
493.36	351.15
493.72	354.22
494.08	357.32
494.45	360.78
494.81	364.43
495.17	367.97
495.54	371.78
495.90	375.45
496.26	379.46
496.63	383.68
496.99	388.06
497.35	392.66
497.72	397.48
498.08	402.40
498.44	407.57
498.80	413.08
499.17	418.42
499.53	424.01
499.89	429.75
500.26	435.95
500.62	442.28
500.98	448.99
501.34	455.61
501.71	462.56
502.07	469.36
502.43	476.45
502.79	483.74
503.16	491.30
503.52	499.31
503.88	507.38
504.24	515.90
504.60	524.57
504.97	533.57
505.33	542.58
505.69	552.13
506.05	561.79
506.41	571.43
506.78	581.66
507.14	592.04
507.50	602.90
507.86	614.03
508.22	625.16
508.59	636.33
508.95	648.01
509.31	660.13
509.67	672.48
510.03	684.68
510.39	697.16
510.75	709.98
511.12	723.03
511.48	736.26
511.84	749.57
512.20	762.94
512.56	776.43
512.92	790.63
513.28	805.07
513.64	819.20
514.00	833.87
514.37	848.51
514.73	863.68
515.09	878.73
515.45	893.73
515.81	908.70
516.17	924.01
516.53	939.20
516.89	954.41
517.25	970.33
517.61	986.57
517.97	1003.11
518.33	1019.51
518.69	1035.59
519.05	1052.01
519.41	1068.36
519.77	1085.38
520.13	1102.20
520.49	1118.56
520.85	1136.22
521.21	1153.12
521.57	1169.86
521.93	1186.25
522.29	1202.87
522.65	1218.90
523.01	1235.19
523.37	1251.28
523.73	1267.64
524.09	1283.44
524.45	1299.24
524.81	1315.26
525.17	1331.17
525.53	1346.66
525.89	1362.27
526.25	1378.16
526.61	1393.43
526.97	1409.33
527.33	1424.98
527.68	1441.10
528.04	1456.83
528.40	1470.87
528.76	1486.35
529.12	1501.33
529.48	1516.74
529.84	1531.12
530.20	1546.74
530.56	1561.67
530.91	1577.07
531.27	1591.74
531.63	1606.83
531.99	1621.38
532.35	1635.27
532.71	1649.56
533.07	1664.52
533.42	1678.35
533.78	1692.31
534.14	1706.18
534.50	1719.03
534.86	1732.38
535.21	1744.04
535.57	1756.82
535.93	1768.73
536.29	1780.83
536.65	1792.96
537.00	1804.45
537.36	1816.36
537.72	1826.90
538.08	1838.17
538.44	1848.78
538.79	1859.13
539.15	1869.54
539.51	1879.86
539.87	1889.29
540.22	1897.64
540.58	1906.21
540.94	1914.33
541.29	1921.81
541.65	1929.24
542.01	1936.83
542.37	1942.60
542.72	1948.77
543.08	1954.05
543.44	1960.55
543.79	1965.09
544.15	1970.12
544.51	1975.25
544.87	1979.91
545.22	1983.98
545.58	1987.44
545.94	1990.56
546.29	1992.82
546.65	1994.98
547.01	1996.82
547.36	1998.50
547.72	2000.49
548.07	2000.95
548.43	2002.17
548.79	2002.99
549.14	2003.56
549.50	2004.00
549.86	2004.41
550.21	2004.82
550.57	2004.83
550.92	2003.64
551.28	2002.70
551.64	2002.23
551.99	2001.28
552.35	1999.80
552.70	1998.98
553.06	1997.93
553.41	1996.39
553.77	1995.75
554.13	1994.53
554.48	1993.02
554.84	1991.99
555.19	1990.69
555.55	1989.54
555.90	1986.75
556.26	1983.77
556.61	1980.27
556.97	1976.33
557.32	1973.85
557.68	1970.85
558.03	1967.69
558.39	1964.45
558.74	1961.70
559.10	1957.01
559.45	1952.22
559.81	1947.17
560.16	1941.53
560.52	1936.03
560.87	1930.79
561.23	1924.79
561.58	1918.77
561.94	1911.86
562.29	1904.86
562.64	1897.79
563.00	1890.23
563.35	1883.93
563.71	1877.79
564.06	1871.91
564.42	1865.69
564.77	1859.01
565.12	1852.32
565.48	1845.85
565.83	1838.74
566.19	1831.74
566.54	1824.80
566.89	1817.81
567.25	1811.25
567.60	1804.84
567.96	1798.20
568.31	1791.41
568.66	1784.31
569.02	1776.78
569.37	1770.20
569.72	1763.57
570.08	1756.10
570.43	1748.29
570.78	1740.95
571.14	1733.05
571.49	1724.90
571.84	1717.08
572.20	1708.43
572.55	1700.08
572.90	1691.14
573.26	1682.95
573.61	1674.04
573.96	1665.03
574.31	1655.57
574.67	1646.24
575.02	1636.34
575.37	1626.11
575.72	1615.99
576.08	1606.54
576.43	1596.97
576.78	1587.02
577.13	1576.64
577.49	1566.91
577.84	1557.77
578.19	1548.51
578.54	1539.05
578.90	1529.84
579.25	1520.54
579.60	1511.22
579.95	1501.42
580.30	1491.52
580.66	1481.47
581.01	1471.50
581.36	1461.30
581.71	1452.14
582.06	1442.77
582.42	1433.74
582.77	1424.50
583.12	1415.56
583.47	1406.39
583.82	1397.57
584.17	1388.69
584.53	1380.04
584.88	1370.26
585.23	1360.76
585.58	1350.34
585.93	1340.56
586.28	1330.97
586.63	1321.06
586.98	1310.89
587.34	1301.50
587.69	1292.10
588.04	1283.05
588.39	1274.50
588.74	1265.95
589.09	1257.29
589.44	1247.71
589.79	1238.84
590.14	1230.31
590.49	1221.70
590.84	1213.14
591.19	1204.45
591.54	1195.80
591.89	1187.14
592.25	1180.11
592.60	1171.92
592.95	1164.00
593.30	1155.88
593.65	1147.51
594.00	1139.10
594.35	1132.57
594.70	1124.21
595.05	1116.23
595.40	1107.79
595.75	1099.42
596.10	1091.59
596.45	1083.56
596.80	1076.25
597.15	1068.46
597.50	1060.49
597.85	1052.83
598.19	1044.91
598.54	1036.89
598.89	1029.23
599.24	1022.13
599.59	1014.20
599.94	1006.92
600.29	999.89
600.64	992.97
600.99	985.73
601.34	979.17
601.69	971.16
602.04	964.71
602.39	958.22
602.74	952.39
603.08	946.07
603.43	939.76
603.78	933.30
604.13	926.79
604.48	920.23
604.83	913.71
605.18	907.01
605.53	900.75
605.87	894.83
606.22	889.10
606.57	882.63
606.92	876.38
607.27	870.42
607.62	864.47
607.96	858.67
608.31	853.25
608.66	847.45
609.01	841.78
609.36	836.08
609.70	830.36
610.05	824.32
610.40	818.63
610.75	812.73
611.10	807.07
611.44	801.41
611.79	795.98
612.14	790.81
612.49	785.65
612.83	780.48
613.18	775.11
613.53	769.71
613.88	764.44
614.22	759.19
614.57	753.80
614.92	748.56
615.27	743.38
615.61	738.09
615.96	733.11
616.31	727.90
616.65	723.04
617.00	718.00
617.35	712.95
617.70	708.04
618.04	703.36
618.39	698.57
618.74	694.22
619.08	689.52
619.43	684.63
619.78	679.76
620.12	674.99
620.47	670.24
620.82	665.44
621.16	660.74
621.51	656.53
621.85	652.27
622.20	647.82
622.55	643.32
622.89	639.11
623.24	634.77
623.59	630.45
623.93	626.23
624.28	622.07
624.62	618.52
624.97	614.66
625.32	610.74
625.66	606.82
626.01	602.61
626.35	598.79
626.70	595.13
627.04	591.56
627.39	587.72
627.73	584.33
628.08	580.78
628.43	577.18
628.77	573.37
629.12	569.79
629.46	566.44
629.81	563.32
630.15	559.94
630.50	556.61
630.84	553.28
631.19	549.98
631.53	546.91
631.88	543.13
632.22	539.62
632.57	536.56
632.91	533.31
633.26	530.30
633.60	527.15
633.95	523.96
634.29	520.70
634.64	517.73
634.98	514.36
635.32	511.45
635.67	508.78
636.01	505.92
636.36	503.00
636.70	500.26
637.05	497.25
637.39	494.55
637.73	491.80
638.08	489.21
638.42	486.23
638.77	483.28
639.11	480.45
639.45	477.57
639.80	474.46
640.14	471.66
640.49	468.83
640.83	466.23
641.17	463.69
641.52	461.10
641.86	458.58
642.20	456.48
642.55	453.94
642.89	451.47
643.23	448.88
643.58	446.64
643.92	443.99
644.26	441.55
644.61	439.23
644.95	436.95
645.29	434.52
645.64	432.40
645.98	430.14
646.32	428.03
646.66	425.82
647.01	423.80
647.35	421.92
647.69	419.83
648.04	417.88
648.38	415.91
648.72	413.95
649.06	411.89
649.41	409.68
649.75	407.63
650.09	405.58
650.43	403.67
650.78	401.65
651.12	399.81
651.46	397.95
651.80	396.03
652.14	394.16
652.49	392.47
652.83	390.66
653.17	389.05
653.51	387.25
653.85	385.77
654.20	384.10
654.54	382.37
654.88	380.69
655.22	379.35
655.56	377.65
655.90	376.03
656.25	374.45
656.59	372.97
656.93	371.52
657.27	370.20
657.61	368.68
657.95	367.17
658.29	365.67
658.64	364.46
658.98	362.97
659.32	361.38
659.66	359.86
660.00	358.52
660.34	357.07
660.68	355.82
661.02	354.29
661.36	352.90
661.70	351.43
662.05	350.11
662.39	348.62
662.73	347.47
663.07	346.43
663.41	345.20
663.75	343.81
664.09	342.56
664.43	341.02
664.77	339.85
665.11	338.60
665.45	337.41
665.79	336.12
666.13	334.93
666.47	333.77
666.81	332.60
667.15	331.22
667.49	330.11
667.83	329.11
668.17	328.11
668.51	327.09
668.85	326.31
669.19	325.62
669.53	324.50
669.87	323.43
670.21	322.29
670.55	321.24
670.89	320.59
671.23	319.61
671.57	318.71
671.91	317.79
672.25	316.86
672.58	316.02
672.92	314.90
673.26	314.04
673.60	313.29
673.94	312.55
674.28	311.90
674.62	311.20
674.96	310.15
675.30	309.35
675.64	308.52
675.97	307.51
676.31	306.49
676.65	305.60
676.99	304.93
677.33	304.05
677.67	303.31
678.01	302.26
678.34	301.58
678.68	300.96
679.02	300.16
679.36	299.45
679.70	298.73
680.04	298.15
680.37	297.43
680.71	296.68
681.05	295.98
681.39	295.32
681.73	294.51
682.06	293.88
682.40	293.26
682.74	292.69
683.08	292.27
683.42	291.57
683.75	291.08
684.09	290.31
684.43	289.79
684.77	289.17
685.10	288.56
685.44	287.80
685.78	287.16
686.12	286.68
686.45	286.11
686.79	285.53
687.13	285.01
687.46	284.49
687.80	283.94
688.14	283.34
688.48	282.75
688.81	282.23
689.15	281.77
689.49	281.22
689.82	280.63
690.16	279.88
690.50	279.40
690.83	278.81
691.17	278.27
691.51	277.73
691.84	277.34
692.18	276.84
692.52	276.45
692.85	275.98
693.19	275.63
693.52	275.16
693.86	274.70
694.20	274.23
694.53	273.78
694.87	273.26
695.21	272.78
695.54	272.35
695.88	271.82
696.21	271.26
696.55	270.79
696.88	270.39
697.22	270.01
697.56	269.67
697.89	269.21
698.23	268.92
698.56	268.50
698.90	268.12
699.23	267.72
699.57	267.31
699.90	266.86
700.24	266.33
700.58	265.95
700.91	265.62
701.25	265.67
701.58	265.58
701.92	265.42
702.25	265.08
702.59	264.75
702.92	264.51
703.26	264.24
703.59	263.96
703.93	264.06
704.26	263.72
704.60	263.35
704.93	263.06
705.26	262.62
705.60	262.34
705.93	261.98
706.27	261.83
706.60	261.71
706.94	261.58
707.27	261.29
707.61	261.09
707.94	260.79
708.27	260.17
708.61	259.61
708.94	259.27
709.28	259.00
709.61	258.62
709.94	258.37
710.28	258.09
710.61	257.79
710.95	257.06
711.28	257.16
711.61	256.85
711.95	256.69
712.28	256.39
712.61	256.16
712.95	256.14
713.28	256.07
713.61	255.68
713.95	255.34
714.28	255.06
714.61	254.69
714.95	254.41
715.28	253.99
715.61	253.64
715.95	253.32
716.28	252.95
716.61	252.82
716.95	252.43
717.28	252.24
717.61	251.99
717.94	251.71
718.28	251.04
718.61	250.75
718.94	250.40
719.27	250.24
719.61	250.04
719.94	249.68
720.27	249.15
720.60	248.96
720.94	248.70
721.27	248.52
721.60	248.45
721.93	248.22
722.27	248.20
722.60	248.12
722.93	247.94
723.26	247.88
723.59	247.65
723.93	247.53
724.26	247.35
724.59	247.20
724.92	247.04
725.25	247.04
725.59	246.93
725.92	246.83
726.25	246.67
726.58	246.49
726.91	246.16
727.24	246.04
727.57	245.80
727.91	245.53
728.24	245.41
728.57	245.10
728.90	245.02
729.23	244.66
729.56	244.70
729.89	244.52
730.22	244.32
730.55	244.07
730.89	243.92
731.22	243.72
731.55	243.52
731.88	243.37
732.21	243.06
732.54	242.89
732.87	242.71
733.20	242.55
733.53	242.46
733.86	242.47
734.19	242.32
734.52	242.26
734.85	242.55
735.18	242.30
735.51	242.36
735.84	242.23
736.17	242.22
736.50	241.84
736.83	242.34
737.16	242.16
737.49	242.14
737.82	242.01
738.15	241.97
738.48	241.85
738.81	241.75
739.14	241.63
739.47	241.42
739.80	241.26
740.13	241.20
740.46	240.90
740.79	240.65
741.12	240.53
741.45	240.28
741.78	239.88
742.11	239.90
742.44	239.68
742.77	239.62
743.10	239.52
743.43	239.44
743.75	238.81
744.08	239.36
744.41	239.24
744.74	239.10
745.07	238.85
745.40	238.79
745.73	238.89
746.06	238.81
746.39	238.80
746.71	238.62
747.04	238.42
747.37	238.39
747.70	238.37
748.03	238.30
748.36	238.40
748.68	238.28
749.01	238.01
749.34	237.87
749.67	237.68
750.00	237.66
750.33	237.87
750.65	237.74
750.98	237.00
751.31	236.88
751.64	236.78
751.97	236.92
752.29	236.80
752.62	236.44
752.95	236.33
753.28	236.17
753.60	236.13
753.93	236.20
754.26	236.05
754.59	235.86
754.91	235.63
755.24	235.45
755.57	235.29
755.90	235.26
756.22	235.15
756.55	235.05
756.88	234.81
757.20	234.42
757.53	234.28
757.86	234.25
758.19	234.18
758.51	234.11
758.84	233.85
759.17	233.77
759.49	233.77
759.82	233.86
760.15	233.84
760.47	233.70
760.80	233.44
761.13	233.51
761.45	233.39
761.78	233.40
762.11	233.25
762.43	233.18
762.76	233.08
763.08	233.11
763.41	233.09
763.74	233.02
764.06	232.86
764.39	232.80
764.71	232.70
765.04	232.59
765.37	232.53
765.69	232.43
766.02	232.35
766.34	232.27
766.67	232.01
767.00	232.01
767.32	232.30
767.65	232.54
767.97	232.44
768.30	232.38
768.62	232.23
768.95	232.10
769.27	232.13
769.60	232.15
769.92	231.98
770.25	231.78
770.57	231.71
770.90	231.66
771.22	231.51
771.55	231.44
771.87	231.32
772.20	231.27
772.52	231.61
772.85	232.14
773.17	232.08
773.50	232.04
773.82	231.88
774.15	231.58
774.47	231.19
774.80	231.01
775.12	230.97
775.45	230.92
775.77	231.00
776.09	230.95
776.42	230.94
776.74	230.98
777.07	230.91
777.39	230.86
777.72	230.80
778.04	230.80
778.36	230.75
778.69	230.79
779.01	230.68
779.33	230.30
779.66	229.65
779.98	229.57
780.31	229.63
780.63	229.83
780.95	229.92
781.28	229.87
781.60	229.85
781.92	229.85
782.25	229.91
782.57	229.85
782.89	229.74
783.22	229.66
783.54	229.60
783.86	229.62
784.19	229.57
784.51	229.75
784.83	229.72
785.16	229.62
785.48	229.56
785.80	229.62
786.12	229.57
786.45	229.60
786.77	229.62
787.09	229.54
787.42	229.34
787.74	229.27
788.06	229.28
788.38	229.25
788.71	229.19
789.03	229.18
789.35	229.26
789.67	229.23
789.99	229.21
790.32	229.11
790.64	229.19
790.96	229.58
791.28	229.25
791.61	229.23
791.93	229.28
792.25	229.29
792.57	229.59
792.89	229.54
793.21	229.54
793.54	229.49
793.86	229.42
794.18	229.44
794.50	229.25
794.82	229.24
795.14	229.30
795.47	229.38
795.79	229.36
796.11	229.14
796.43	229.11
796.75	229.07
797.07	229.08
797.39	229.04
797.71	228.63
798.04	228.72
798.36	228.66
798.68	228.70
799.00	228.72
799.32	228.47
799.64	228.57
799.96	228.50
800.28	228.57
800.60	228.57
800.92	228.63
801.24	228.64
801.56	228.72
801.89	228.64
802.21	228.57
802.53	228.50
802.85	228.62
803.17	228.81
803.49	228.70
803.81	228.64
804.13	228.59
804.45	228.52
804.77	228.56
805.09	228.51
805.41	228.39
805.73	228.24
806.05	228.11
806.37	228.00
806.69	227.98
807.01	227.83
807.33	227.87
807.65	227.66
807.97	227.91
808.28	227.83
808.60	227.92
808.92	227.88
809.24	228.07
809.56	227.97
809.88	227.77
810.20	227.81
810.52	227.93
810.84	227.83
811.16	227.76
811.48	227.78
811.80	228.01
812.12	228.07
812.43	228.16
812.75	228.12
813.07	228.04
813.39	227.99
813.71	228.00
814.03	227.90
814.35	227.87
814.67	227.70
814.98	227.60
815.30	227.50
815.62	227.43
815.94	227.12
816.26	227.33
816.58	227.27
816.89	227.22
817.21	227.11
817.53	227.16
817.85	227.23
818.17	227.16
818.48	226.95
818.80	227.02
819.12	226.99
819.44	226.90
819.76	226.84
820.07	226.89
820.39	226.89
820.71	226.91
821.03	226.91
821.34	226.82
821.66	226.89
821.98	226.98
822.30	226.98
822.61	227.29
822.93	227.01
823.25	227.02
823.57	227.04
823.88	227.14
824.20	227.13
824.52	227.21
824.83	227.25
825.15	227.13
825.47	227.10
825.79	227.07
826.10	227.09
826.42	227.16
826.74	227.16
827.05	227.09
827.37	227.11
827.69	227.09
828.00	227.18
828.32	227.14
828.64	227.06
828.95	227.35
829.27	227.35
829.58	227.37
829.90	227.50
830.22	227.50
830.53	227.35
830.85	227.33
831.17	227.17
831.48	227.08
831.80	227.19
832.11	227.20
832.43	227.18
832.75	227.17
833.06	227.45
833.38	227.35
833.69	227.35
834.01	227.39
834.32	227.41
834.64	227.32
834.96	227.36
835.27	227.32
835.59	227.10
835.90	226.97
836.22	226.99
836.53	226.87
836.85	226.88
837.16	227.38
837.48	227.38
837.79	227.57
838.11	227.55
838.42	227.54
838.74	227.55
839.05	227.51
839.37	227.51
839.68	227.26
840.00	227.20
840.31	227.31
840.63	227.22
840.94	227.17
841.26	227.17
841.57	227.14
841.88	227.20
842.20	227.14
842.51	227.00
842.83	227.01
843.14	227.45
843.46	227.40
843.77	227.11
844.08	227.11
844.40	226.97
844.71	226.95
845.03	226.86
845.34	226.77
845.65	226.79
845.97	226.80
846.28	226.70
846.60	226.81
846.91	226.67
847.22	226.69
847.54	226.82
847.85	226.82
848.16	226.77
848.48	226.69
848.79	226.83
849.10	226.92
849.42	226.92
849.73	226.42
850.04	226.38
850.36	226.21
850.67	226.25
850.98	226.29
851.30	226.34
851.61	226.31
851.92	226.35
852.23	226.50
852.55	226.55
852.86	226.58
853.17	226.56
853.49	226.62
853.80	226.68
854.11	226.66
854.42	226.66
854.74	226.62
855.05	226.58
855.36	226.45
855.67	226.44
855.99	226.42
856.30	227.01
856.61	227.01
856.92	227.00
857.23	227.04
857.55	226.95
857.86	226.91
858.17	227.00
858.48	226.87
858.79	226.71
859.11	226.71
859.42	226.71
859.73	226.60
860.04	226.63
860.35	226.52
860.66	226.31
860.98	226.37
861.29	226.46
861.60	226.43
861.91	226.54
862.22	226.48
862.53	226.44
862.84	225.83
863.16	225.99
863.47	225.86
863.78	225.78
864.09	225.76
864.40	225.84
864.71	225.90
865.02	225.93
865.33	225.90
865.64	225.86
865.95	225.90
866.27	226.29
866.58	226.24
866.89	226.25
867.20	226.35
867.51	226.24
867.82	226.18
868.13	226.32
868.44	226.21
868.75	226.31
869.06	226.35
869.37	226.44
869.68	226.24
869.99	226.35
870.30	226.42
870.61	226.49
870.92	226.39
871.23	226.34
871.54	226.50
871.85	226.59
872.16	226.64
872.47	226.56
872.78	226.22
873.09	226.24
873.40	226.25
873.71	226.36
874.02	226.39
874.33	226.37
874.64	226.30
874.95	226.39
875.26	226.24
875.56	226.18
875.87	226.15
876.18	226.19
876.49	226.68
876.80	226.66
877.11	226.58
877.42	226.60
877.73	226.59
878.04	226.47
878.35	226.49
878.66	226.50
878.96	226.50
879.27	226.59
879.58	226.59
879.89	226.58
880.20	226.71
880.51	226.72
880.82	226.74
881.12	226.79
881.43	226.63
881.74	226.62
882.05	226.61
882.36	226.68
882.67	226.69
882.97	226.22
883.28	226.20
883.59	226.18
883.90	226.29
884.21	226.40
884.51	226.46
884.82	226.41
885.13	226.40
885.44	226.45
885.74	226.46
886.05	226.49
886.36	226.45
886.67	226.25
886.98	226.51
887.28	226.56
887.59	226.57
887.90	226.65
888.20	226.67
888.51	226.86
888.82	226.76
889.13	226.84
889.43	227.11
889.74	227.05
890.05	227.03
890.35	226.95
890.66	226.76
890.97	226.69
891.28	226.64
891.58	226.63
891.89	226.48
892.20	226.31
892.50	226.24
892.81	226.17
893.12	226.15
893.42	225.92
893.73	225.95
894.04	225.96
894.34	225.94
894.65	225.91
894.95	225.77
895.26	225.82
895.57	226.03
895.87	225.62
896.18	225.73
896.48	225.82
896.79	225.82
897.10	225.96
897.40	225.95
897.71	226.08
898.01	226.05
898.32	226.26
898.63	226.35
898.93	226.38
899.24	226.42
899.54	226.35
899.85	226.24
900.15	226.17
900.46	226.10
900.76	226.17
901.07	226.20
901.38	226.20
901.68	226.21
901.99	225.87
902.29	225.97
902.60	225.95
902.90	225.86
903.21	225.83
903.51	225.79
903.82	225.95
904.12	225.91
904.43	225.91
904.73	225.86
905.03	225.83
905.34	226.24
905.64	226.15
905.95	226.18
906.25	226.24
906.56	226.25
906.86	226.29
907.17	226.21
907.47	226.16
907.77	226.11
908.08	225.97
908.38	226.02
908.69	226.00
908.99	226.08
909.30	226.20
909.60	226.18
909.90	226.21
910.21	226.07
910.51	225.95
910.81	225.97
911.12	225.95
911.42	225.95
911.73	225.45
912.03	225.60
912.33	225.71
912.64	225.73
912.94	225.61
913.24	225.54
913.55	225.47
913.85	225.49
914.15	225.58
914.46	225.67
914.76	225.70
915.06	225.66
915.37	225.48
915.67	225.39
915.97	225.43
916.27	225.33
916.58	225.34
916.88	225.36
917.18	225.31
917.49	225.60
917.79	225.61
918.09	225.69
918.39	225.80
918.70	225.77
919.00	225.73
919.30	226.00
919.60	225.93
919.91	225.85
920.21	225.84
920.51	225.73
920.81	225.70
921.12	225.69
921.42	225.71
921.72	225.77
922.02	225.81
922.32	225.82
922.63	225.85
922.93	226.11
923.23	226.07
923.53	226.04
923.83	225.76
924.13	225.81
924.44	225.78
924.74	225.79
925.04	225.87
925.34	225.84
925.64	225.60
925.94	225.65
926.24	225.97
926.55	225.92
926.85	226.03
927.15	226.10
927.45	226.13
927.75	226.16
928.05	226.22
928.35	226.14
928.65	226.30
928.95	226.33
929.26	226.10
929.56	226.19
929.86	226.22
930.16	226.22
930.46	226.13
930.76	226.19
931.06	226.08
931.36	225.97
931.66	226.08
931.96	226.19
932.26	226.24
932.56	226.05
932.86	226.15
933.16	226.08
933.46	226.00
933.76	225.96
934.06	226.00
934.36	226.08
934.66	226.09
934.96	225.98
935.26	226.01
935.56	226.06
935.86	225.95
936.16	225.93
936.46	225.81
936.76	225.80
937.06	225.74
937.36	225.68
937.66	225.66
937.96	225.61
938.26	225.52
938.56	225.42
938.86	225.48
939.16	225.52
939.46	225.56
939.76	225.58
940.06	225.55
940.35	225.47
940.65	225.24
940.95	225.25
941.25	225.18
941.55	225.10
941.85	225.09
942.15	225.25
942.45	225.41
942.75	225.45
943.04	225.50
943.34	225.61
943.64	225.56
943.94	225.48
944.24	225.49
944.54	225.48
944.84	225.49
945.13	225.38
945.43	225.34
945.73	225.31
946.03	225.25
946.33	225.21
946.62	225.26
946.92	225.32
947.22	225.36
947.52	225.37
947.82	225.48
948.11	225.45
948.41	225.30
948.71	225.17
949.01	225.25
949.31	225.27
949.60	225.25
949.90	225.36
950.20	225.38
950.50	225.43
950.79	225.45
951.09	225.46
951.39	225.51
951.69	225.52
951.98	225.64
952.28	225.70
952.58	225.79
952.87	225.73
953.17	225.79
953.47	225.74
953.76	225.73
954.06	225.57
954.36	225.44
954.66	225.47
954.95	225.55
955.25	225.54
955.55	225.52
955.84	225.45
956.14	225.47
956.44	225.59
956.73	225.48
957.03	225.51
957.32	225.58
957.62	225.58
957.92	225.61
958.21	225.56
958.51	226.08
958.81	226.08
959.10	226.11
959.40	226.24
959.69	226.29
959.99	226.31
960.29	226.34
960.58	226.35
960.88	226.54
961.17	226.46
961.47	226.44
961.76	226.47
962.06	226.52
962.36	226.51
962.65	226.47
962.95	226.49
963.24	226.46
963.54	226.54
963.83	226.53
964.13	226.46
964.42	226.36
964.72	225.97
965.01	226.00
965.31	225.97
965.60	225.83
965.90	226.09
966.19	225.95
966.49	226.01
966.78	226.01
967.08	225.96
967.37	225.97
967.67	225.95
967.96	225.97
968.26	225.98
968.55	226.01
968.85	226.01
969.14	225.98
969.43	225.95
969.73	225.90
970.02	225.89
970.32	225.91
970.61	225.85
970.91	225.79
971.20	225.73
971.49	225.77
971.79	225.80
972.08	225.47
972.38	225.59
972.67	225.56
972.96	225.63
973.26	225.55
973.55	225.70
973.85	225.60
974.14	225.57
974.43	225.57
974.73	225.48
975.02	225.36
975.31	225.39
975.61	225.35
975.90	225.31
976.19	225.25
976.49	225.26
976.78	225.41
977.07	225.35
977.37	225.39
977.66	225.34
977.95	225.32
978.24	225.39
978.54	225.47
978.83	225.45
979.12	225.38
979.42	225.35
979.71	225.26
980.00	225.38
980.29	225.40
980.59	225.37
980.88	225.51
981.17	225.56
981.46	225.56
981.76	225.59
982.05	225.71
982.34	225.78
982.63	225.83
982.93	225.80
983.22	226.01
983.51	226.01
983.80	226.10
984.09	226.17
984.39	226.14
984.68	226.08
984.97	226.13
985.26	226.14
985.55	226.21
985.85	226.12
986.14	226.20
986.43	226.20
986.72	226.13
987.01	226.01
987.30	225.99
987.59	225.98
987.89	225.98
988.18	225.86
988.47	225.79
988.76	225.71
989.05	225.67
989.34	225.54
989.63	225.65
989.92	225.57
990.22	225.52
990.51	225.51
990.80	225.45
991.09	225.45
991.38	225.56
991.67	225.52
991.96	225.55
992.25	225.54
992.54	225.48
992.83	225.51
993.12	225.46
993.41	225.65
993.70	225.85
993.99	225.99
994.28	226.07
994.58	226.26
994.87	226.26
995.16	226.27
995.45	226.27
995.74	226.10
996.03	226.18
996.32	226.23
996.61	226.20
996.90	226.25
997.19	226.26
997.48	226.25
997.77	226.15
998.06	226.20
998.34	226.13
998.63	226.19
998.92	226.24
999.21	226.33
999.50	226.30
999.79	226.15
1000.08	226.13
1000.37	226.13
1000.66	225.99
1000.95	226.11
1001.24	226.13
1001.53	226.16
1001.82	226.15
1002.11	225.99
1002.40	226.10
1002.68	226.33
1002.97	226.68
1003.26	226.61
1003.55	226.54
1003.84	226.55
1004.13	226.63
1004.42	226.60
1004.71	226.59
1004.99	226.50
1005.28	226.61
1005.57	226.56
1005.86	226.49
1006.15	226.40
1006.44	226.27
1006.72	226.32
1007.01	226.22
1007.30	226.17
1007.59	226.15
1007.88	226.12
1008.17	226.20
1008.45	226.02
1008.74	225.85
1009.03	225.65
1009.32	225.62
1009.60	225.67
1009.89	225.70
1010.18	225.56
1010.47	225.56
1010.76	225.53
1011.04	225.49
1011.33	225.55
1011.62	225.56
1011.91	225.62
1012.19	225.60
1012.48	225.68
1012.77	225.65
1013.05	225.84
1013.34	225.91
1013.63	225.79
1013.92	225.89
1014.20	225.78
1014.49	225.81
1014.78	225.82
1015.06	225.61
1015.35	225.63
1015.64	225.65
1015.92	225.68
1016.21	225.65
1016.50	225.67
1016.78	225.68
1017.07	225.75
1017.36	225.56
1017.64	225.47
1017.93	225.44
1018.22	225.41
1018.50	225.34
1018.79	225.36
1019.08	225.11
1019.36	225.07
1019.65	225.04
1019.93	225.13
1020.22	225.21
1020.51	225.45
1020.79	225.40
1021.08	224.30
1021.36	224.05
1021.65	225.75
1021.94	224.70
1022.22	225.05
1022.51	224.30
1022.79	227.65
1023.08	225.05
1023.36	231.20
1023.65	224.70
>>>>>End Processed Spectral Data<<<<<
