SpectraSuite Data File
++++++++++++++++++++++++++++++++++++
Date: Wed Sep 04 17:55:46 EDT 2013
User: lab3
Dark Spectrum Present: Yes
Reference Spectrum Present: No
Number of Sampled Component Spectra: 1
Spectrometers: USB2E7196
Integration Time (usec): 170000 (USB2E7196)
Spectra Averaged: 20 (USB2E7196)
Boxcar Smoothing: 10 (USB2E7196)
Correct for Electrical Dark: No (USB2E7196)
Strobe/Lamp Enabled: No (USB2E7196)
Correct for Detector Non-linearity: No (USB2E7196)
Correct for Stray Light: No (USB2E7196)
Number of Pixels in Processed Spectrum: 2048
>>>>>Begin Processed Spectral Data<<<<<
339.09	0.00
339.48	214.10
339.86	214.85
340.24	214.85
340.63	217.05
341.01	226.10
341.39	220.40
341.78	223.05
342.16	224.20
342.54	223.10
342.93	212.53
343.31	223.19
343.69	223.69
344.07	224.10
344.46	224.63
344.84	225.07
345.22	225.03
345.60	225.37
345.99	225.59
346.37	225.68
346.75	225.81
347.13	225.86
347.52	225.97
347.90	226.21
348.28	226.16
348.66	226.33
349.05	226.19
349.43	226.24
349.81	226.30
350.19	226.30
350.57	226.41
350.96	226.62
351.34	226.74
351.72	226.86
352.10	227.07
352.48	227.06
352.87	227.10
353.25	227.19
353.63	227.13
354.01	227.06
354.39	227.15
354.77	227.21
355.15	227.36
355.54	227.36
355.92	227.18
356.30	227.26
356.68	227.64
357.06	227.65
357.44	227.64
357.82	227.71
358.20	228.22
358.58	228.23
358.97	228.25
359.35	228.44
359.73	228.60
360.11	228.68
360.49	228.82
360.87	228.85
361.25	228.95
361.63	229.18
362.01	229.33
362.39	229.32
362.77	229.43
363.15	229.51
363.53	229.56
363.91	229.66
364.29	229.76
364.67	229.26
365.05	229.34
365.43	229.42
365.81	229.50
366.19	229.25
366.57	229.53
366.95	229.52
367.33	229.47
367.71	229.41
368.09	229.43
368.47	229.44
368.85	229.50
369.23	229.58
369.61	229.41
369.99	229.58
370.37	229.65
370.75	229.85
371.13	229.78
371.51	229.71
371.89	229.68
372.27	229.67
372.65	229.73
373.03	229.77
373.41	229.73
373.78	229.59
374.16	229.33
374.54	229.12
374.92	229.06
375.30	228.95
375.68	228.79
376.06	228.73
376.44	228.63
376.82	228.63
377.19	228.53
377.57	228.52
377.95	228.27
378.33	228.14
378.71	227.79
379.09	227.75
379.47	227.72
379.84	227.62
380.22	227.49
380.60	227.35
380.98	227.24
381.36	227.21
381.73	227.15
382.11	227.22
382.49	227.12
382.87	226.96
383.25	226.92
383.62	227.44
384.00	227.31
384.38	227.31
384.76	227.34
385.13	227.45
385.51	227.40
385.89	227.24
386.27	227.25
386.64	227.31
387.02	227.17
387.40	227.16
387.78	227.21
388.15	227.15
388.53	227.11
388.91	227.07
389.29	226.94
389.66	227.00
390.04	226.88
390.42	226.97
390.79	226.96
391.17	226.93
391.55	226.41
391.92	226.29
392.30	226.23
392.68	226.08
393.05	226.07
393.43	226.05
393.81	226.15
394.18	226.06
394.56	226.06
394.94	226.19
395.31	226.12
395.69	226.29
396.06	226.36
396.44	226.45
396.82	226.40
397.19	226.79
397.57	226.76
397.95	226.85
398.32	226.79
398.70	226.93
399.07	227.14
399.45	227.26
399.82	227.36
400.20	227.48
400.58	227.62
400.95	227.50
401.33	227.67
401.70	228.09
402.08	228.24
402.45	228.29
402.83	228.57
403.20	228.71
403.58	228.76
403.95	229.04
404.33	229.23
404.71	229.49
405.08	229.92
405.46	230.15
405.83	230.43
406.21	230.67
406.58	231.01
406.96	231.20
407.33	231.50
407.70	232.00
408.08	232.76
408.45	233.14
408.83	233.71
409.20	234.08
409.58	234.19
409.95	234.81
410.33	235.47
410.70	235.78
411.08	236.46
411.45	237.15
411.82	237.72
412.20	238.55
412.57	239.62
412.95	239.96
413.32	240.85
413.69	241.67
414.07	242.58
414.44	243.51
414.82	244.60
415.19	245.77
415.56	246.88
415.94	247.86
416.31	249.27
416.68	250.60
417.06	252.25
417.43	253.97
417.81	255.77
418.18	257.44
418.55	259.50
418.93	261.48
419.30	263.55
419.67	265.76
420.04	268.03
420.42	270.24
420.79	273.26
421.16	276.12
421.54	279.11
421.91	282.14
422.28	285.32
422.66	288.61
423.03	292.21
423.40	295.60
423.77	299.23
424.15	302.88
424.52	306.65
424.89	310.77
425.26	314.72
425.64	318.41
426.01	322.68
426.38	327.01
426.75	331.62
427.13	336.20
427.50	340.98
427.87	345.88
428.24	350.86
428.61	355.27
428.99	360.52
429.36	366.13
429.73	371.56
430.10	377.05
430.47	382.66
430.85	388.15
431.22	394.40
431.59	401.18
431.96	407.46
432.33	414.44
432.70	421.10
433.08	428.89
433.45	436.30
433.82	443.66
434.19	451.96
434.56	459.83
434.93	467.49
435.30	475.30
435.68	483.92
436.05	492.29
436.42	500.69
436.79	508.45
437.16	516.80
437.53	525.67
437.90	534.22
438.27	542.82
438.64	551.74
439.01	559.96
439.38	567.00
439.75	574.17
440.13	582.21
440.50	589.78
440.87	595.85
441.24	602.28
441.61	609.23
441.98	614.20
442.35	620.05
442.72	626.02
443.09	631.79
443.46	635.03
443.83	637.36
444.20	639.41
444.57	642.05
444.94	643.00
445.31	644.12
445.68	645.61
446.05	645.70
446.42	644.34
446.79	642.86
447.16	641.34
447.53	639.90
447.90	636.22
448.27	632.46
448.64	627.54
449.01	623.72
449.37	617.61
449.74	611.46
450.11	604.78
450.48	596.95
450.85	588.94
451.22	582.04
451.59	575.37
451.96	568.99
452.33	560.82
452.70	553.54
453.07	544.70
453.43	535.53
453.80	527.14
454.17	518.99
454.54	511.33
454.91	503.05
455.28	495.09
455.65	487.55
456.02	480.71
456.38	474.42
456.75	466.70
457.12	460.16
457.49	453.94
457.86	447.43
458.23	442.30
458.59	436.64
458.96	430.95
459.33	425.82
459.70	420.68
460.07	416.58
460.43	411.90
460.80	407.68
461.17	404.00
461.54	400.11
461.91	396.55
462.27	392.70
462.64	389.46
463.01	385.89
463.38	382.63
463.74	378.65
464.11	375.75
464.48	373.19
464.85	370.30
465.21	368.12
465.58	365.99
465.95	363.30
466.32	361.05
466.68	358.88
467.05	356.77
467.42	354.78
467.78	352.56
468.15	350.47
468.52	349.02
468.88	346.70
469.25	344.85
469.62	343.31
469.98	341.66
470.35	340.19
470.72	338.80
471.08	337.11
471.45	335.91
471.82	334.61
472.18	333.17
472.55	332.22
472.92	330.93
473.28	329.69
473.65	328.56
474.02	327.51
474.38	326.70
474.75	325.89
475.11	324.89
475.48	324.20
475.85	323.58
476.21	322.78
476.58	322.41
476.94	321.90
477.31	321.35
477.67	320.99
478.04	320.68
478.41	320.49
478.77	320.85
479.14	320.48
479.50	320.38
479.87	320.41
480.23	320.44
480.60	320.48
480.96	320.57
481.33	321.00
481.69	321.17
482.06	321.41
482.42	321.67
482.79	322.04
483.15	322.39
483.52	323.01
483.88	323.54
484.25	324.04
484.61	324.69
484.98	325.46
485.34	326.48
485.71	327.33
486.07	328.22
486.44	328.68
486.80	329.80
487.17	330.86
487.53	332.18
487.90	333.53
488.26	335.22
488.62	336.84
488.99	338.20
489.35	339.97
489.72	341.82
490.08	343.74
490.44	345.70
490.81	348.00
491.17	350.12
491.54	352.51
491.90	355.19
492.26	357.88
492.63	360.60
492.99	363.35
493.36	366.54
493.72	369.85
494.08	373.31
494.45	376.95
494.81	380.91
495.17	384.91
495.54	389.01
495.90	393.24
496.26	397.70
496.63	402.40
496.99	407.13
497.35	412.14
497.72	417.63
498.08	423.08
498.44	428.67
498.80	434.83
499.17	440.91
499.53	447.19
499.89	453.81
500.26	460.68
500.62	467.64
500.98	475.02
501.34	482.47
501.71	490.35
502.07	498.24
502.43	506.36
502.79	514.64
503.16	523.43
503.52	532.38
503.88	541.74
504.24	551.45
504.60	561.55
504.97	571.80
505.33	582.03
505.69	593.32
506.05	604.37
506.41	615.41
506.78	627.23
507.14	639.16
507.50	651.51
507.86	664.16
508.22	677.15
508.59	690.21
508.95	703.65
509.31	717.71
509.67	731.91
510.03	746.10
510.39	760.75
510.75	775.77
511.12	790.87
511.48	806.36
511.84	822.18
512.20	838.28
512.56	854.61
512.92	871.31
513.28	888.12
513.64	905.61
514.00	923.01
514.37	940.68
514.73	958.73
515.09	977.00
515.45	995.20
515.81	1013.58
516.17	1032.41
516.53	1051.24
516.89	1069.93
517.25	1089.39
517.61	1109.87
517.97	1130.21
518.33	1150.22
518.69	1170.65
519.05	1191.12
519.41	1211.71
519.77	1232.64
520.13	1253.35
520.49	1274.41
520.85	1296.55
521.21	1317.60
521.57	1339.31
521.93	1360.09
522.29	1381.54
522.65	1402.17
523.01	1423.56
523.37	1444.24
523.73	1465.00
524.09	1485.75
524.45	1506.47
524.81	1527.25
525.17	1547.67
525.53	1568.25
525.89	1589.24
526.25	1609.96
526.61	1630.42
526.97	1651.40
527.33	1672.71
527.68	1694.49
528.04	1715.54
528.40	1735.23
528.76	1756.06
529.12	1776.35
529.48	1797.25
529.84	1817.37
530.20	1838.66
530.56	1859.04
530.91	1880.12
531.27	1900.81
531.63	1921.27
531.99	1941.70
532.35	1961.94
532.71	1982.32
533.07	2003.00
533.42	2022.61
533.78	2042.49
534.14	2062.43
534.50	2081.42
534.86	2100.79
535.21	2118.60
535.57	2137.29
535.93	2155.27
536.29	2173.14
536.65	2191.22
537.00	2209.01
537.36	2226.60
537.72	2243.07
538.08	2260.28
538.44	2277.10
538.79	2293.25
539.15	2309.81
539.51	2326.00
539.87	2341.23
540.22	2355.15
540.58	2369.20
540.94	2382.60
541.29	2395.25
541.65	2407.95
542.01	2420.58
542.37	2430.64
542.72	2441.28
543.08	2451.42
543.44	2463.12
543.79	2473.03
544.15	2482.94
544.51	2492.71
544.87	2501.91
545.22	2510.28
545.58	2517.96
545.94	2524.64
546.29	2531.35
546.65	2537.46
547.01	2543.01
547.36	2548.39
547.72	2553.99
548.07	2558.19
548.43	2563.54
548.79	2568.37
549.14	2572.31
549.50	2576.29
549.86	2580.48
550.21	2584.35
550.57	2587.98
550.92	2589.14
551.28	2590.73
551.64	2593.26
551.99	2595.11
552.35	2597.07
552.70	2599.58
553.06	2601.49
553.41	2603.10
553.77	2605.00
554.13	2606.76
554.48	2608.12
554.84	2609.53
555.19	2610.56
555.55	2612.10
555.90	2611.39
556.26	2610.57
556.61	2609.06
556.97	2606.78
557.32	2605.83
557.68	2604.81
558.03	2603.59
558.39	2602.13
558.74	2601.08
559.10	2597.50
559.45	2593.80
559.81	2589.21
560.16	2583.72
560.52	2578.54
560.87	2574.10
561.23	2568.43
561.58	2562.28
561.94	2555.70
562.29	2548.56
562.64	2541.74
563.00	2533.81
563.35	2527.34
563.71	2520.95
564.06	2514.45
564.42	2507.94
564.77	2501.15
565.12	2493.59
565.48	2485.63
565.83	2477.91
566.19	2469.78
566.54	2461.84
566.89	2454.12
567.25	2446.53
567.60	2439.56
567.96	2432.17
568.31	2424.20
568.66	2415.76
569.02	2407.16
569.37	2398.73
569.72	2391.11
570.08	2381.66
570.43	2372.06
570.78	2362.83
571.14	2353.11
571.49	2343.02
571.84	2333.53
572.20	2322.97
572.55	2312.97
572.90	2302.12
573.26	2291.65
573.61	2280.67
573.96	2269.46
574.31	2257.53
574.67	2245.70
575.02	2232.94
575.37	2220.19
575.72	2206.97
576.08	2194.85
576.43	2182.30
576.78	2169.22
577.13	2155.39
577.49	2142.73
577.84	2130.76
578.19	2118.71
578.54	2105.82
578.90	2093.96
579.25	2081.33
579.60	2068.47
579.95	2055.44
580.30	2042.26
580.66	2028.79
581.01	2015.21
581.36	2001.59
581.71	1988.72
582.06	1975.68
582.42	1963.15
582.77	1950.37
583.12	1938.40
583.47	1926.01
583.82	1914.02
584.17	1901.88
584.53	1890.01
584.88	1877.05
585.23	1863.80
585.58	1849.58
585.93	1836.59
586.28	1823.51
586.63	1809.60
586.98	1795.72
587.34	1782.33
587.69	1769.17
588.04	1756.47
588.39	1744.61
588.74	1732.28
589.09	1719.98
589.44	1707.21
589.79	1694.84
590.14	1683.14
590.49	1670.76
590.84	1658.68
591.19	1646.32
591.54	1634.30
591.89	1622.09
592.25	1611.77
592.60	1600.52
592.95	1589.26
593.30	1577.22
593.65	1564.96
594.00	1553.08
594.35	1543.10
594.70	1531.18
595.05	1519.79
595.40	1507.80
595.75	1495.73
596.10	1484.63
596.45	1473.18
596.80	1462.41
597.15	1451.39
597.50	1439.51
597.85	1428.40
598.19	1416.74
598.54	1405.35
598.89	1393.98
599.24	1383.44
599.59	1371.83
599.94	1360.80
600.29	1350.45
600.64	1340.32
600.99	1329.49
601.34	1320.01
601.69	1308.93
602.04	1299.28
602.39	1289.56
602.74	1280.61
603.08	1271.36
603.43	1262.02
603.78	1252.48
604.13	1242.64
604.48	1232.86
604.83	1223.20
605.18	1213.14
605.53	1203.60
605.87	1194.40
606.22	1185.96
606.57	1176.60
606.92	1167.27
607.27	1158.57
607.62	1149.62
607.96	1141.02
608.31	1133.32
608.66	1124.96
609.01	1116.28
609.36	1107.65
609.70	1099.01
610.05	1090.16
610.40	1081.56
610.75	1072.77
611.10	1064.55
611.44	1056.12
611.79	1047.91
612.14	1040.00
612.49	1032.38
612.83	1024.98
613.18	1017.30
613.53	1009.36
613.88	1001.47
614.22	993.77
614.57	985.55
614.92	977.78
615.27	970.11
615.61	962.31
615.96	954.63
616.31	947.30
616.65	940.29
617.00	933.07
617.35	925.73
617.70	918.59
618.04	911.55
618.39	904.37
618.74	898.07
619.08	891.10
619.43	884.09
619.78	877.00
620.12	869.69
620.47	862.66
620.82	855.46
621.16	848.65
621.51	842.40
621.85	836.21
622.20	829.58
622.55	823.03
622.89	816.55
623.24	810.10
623.59	803.63
623.93	797.24
624.28	791.07
624.62	785.52
624.97	779.76
625.32	774.01
625.66	768.18
626.01	761.80
626.35	756.27
626.70	750.83
627.04	745.52
627.39	740.01
627.73	734.65
628.08	729.78
628.43	724.45
628.77	718.99
629.12	713.74
629.46	708.90
629.81	704.09
630.15	699.33
630.50	694.59
630.84	689.76
631.19	684.97
631.53	680.44
631.88	675.04
632.22	669.99
632.57	665.29
632.91	660.59
633.26	656.34
633.60	651.74
633.95	647.03
634.29	642.27
634.64	637.77
634.98	633.04
635.32	628.55
635.67	624.47
636.01	620.19
636.36	615.80
636.70	611.59
637.05	607.48
637.39	603.34
637.73	599.13
638.08	595.19
638.42	590.98
638.77	586.56
639.11	582.42
639.45	578.19
639.80	573.96
640.14	569.97
640.49	565.88
640.83	562.10
641.17	558.34
641.52	554.72
641.86	551.10
642.20	547.98
642.55	544.45
642.89	540.65
643.23	537.25
643.58	534.10
643.92	530.63
644.26	527.12
644.61	523.97
644.95	520.59
645.29	517.10
645.64	513.97
645.98	510.97
646.32	508.14
646.66	505.12
647.01	502.04
647.35	499.16
647.69	496.36
648.04	493.47
648.38	490.76
648.72	487.86
649.06	484.99
649.41	481.85
649.75	478.78
650.09	476.00
650.43	473.00
650.78	470.03
651.12	467.22
651.46	464.51
651.80	461.64
652.14	458.98
652.49	456.47
652.83	453.87
653.17	451.20
653.51	448.37
653.85	446.00
654.20	443.63
654.54	441.01
654.88	438.36
655.22	436.09
655.56	433.68
655.90	431.43
656.25	429.10
656.59	426.86
656.93	424.64
657.27	422.63
657.61	420.30
657.95	418.07
658.29	415.72
658.64	413.55
658.98	411.34
659.32	409.07
659.66	406.87
660.00	404.73
660.34	402.72
660.68	400.75
661.02	398.54
661.36	396.57
661.70	394.60
662.05	392.69
662.39	390.63
662.73	388.71
663.07	387.01
663.41	385.29
663.75	383.39
664.09	381.59
664.43	379.62
664.77	377.97
665.11	376.20
665.45	374.67
665.79	373.07
666.13	371.34
666.47	369.71
666.81	368.08
667.15	366.39
667.49	364.83
667.83	363.55
668.17	362.12
668.51	360.63
668.85	359.30
669.19	358.09
669.53	356.51
669.87	354.98
670.21	353.30
670.55	351.84
670.89	350.65
671.23	349.22
671.57	347.75
671.91	346.44
672.25	345.10
672.58	343.87
672.92	342.41
673.26	341.22
673.60	340.00
673.94	338.82
674.28	337.68
674.62	336.55
674.96	335.13
675.30	333.86
675.64	332.63
675.97	331.36
676.31	329.98
676.65	328.85
676.99	327.91
677.33	326.82
677.67	325.62
678.01	324.28
678.34	323.24
678.68	322.40
679.02	321.28
679.36	320.33
679.70	319.18
680.04	318.27
680.37	317.29
680.71	316.31
681.05	315.48
681.39	314.73
681.73	313.77
682.06	312.83
682.40	312.07
682.74	311.27
683.08	310.55
683.42	309.72
683.75	309.03
684.09	308.11
684.43	307.41
684.77	306.63
685.10	305.98
685.44	305.27
685.78	304.44
686.12	303.64
686.45	302.82
686.79	302.04
687.13	301.36
687.46	300.56
687.80	299.91
688.14	299.10
688.48	298.27
688.81	297.46
689.15	297.03
689.49	296.32
689.82	295.62
690.16	294.75
690.50	294.13
690.83	293.36
691.17	292.52
691.51	291.77
691.84	291.22
692.18	290.52
692.52	289.75
692.85	289.17
693.19	288.78
693.52	288.15
693.86	287.51
694.20	286.82
694.53	286.25
694.87	285.64
695.21	284.91
695.54	284.26
695.88	283.64
696.21	282.80
696.55	282.17
696.88	281.61
697.22	281.05
697.56	280.50
697.89	279.92
698.23	279.50
698.56	278.93
698.90	278.44
699.23	277.88
699.57	277.43
699.90	276.78
700.24	276.12
700.58	275.69
700.91	275.29
701.25	275.17
701.58	275.03
701.92	274.57
702.25	274.20
702.59	273.72
702.92	273.27
703.26	272.85
703.59	272.40
703.93	272.34
704.26	272.01
704.60	271.61
704.93	271.15
705.26	270.60
705.60	270.16
705.93	269.58
706.27	269.24
706.60	268.97
706.94	268.83
707.27	268.42
707.61	268.09
707.94	267.66
708.27	266.95
708.61	266.28
708.94	265.82
709.28	265.42
709.61	265.09
709.94	264.78
710.28	264.41
710.61	264.05
710.95	263.23
711.28	263.13
711.61	262.65
711.95	262.34
712.28	262.02
712.61	261.74
712.95	261.66
713.28	261.61
713.61	261.07
713.95	260.50
714.28	260.13
714.61	259.70
714.95	259.40
715.28	258.99
715.61	258.52
715.95	258.23
716.28	257.86
716.61	257.55
716.95	257.16
717.28	256.80
717.61	256.49
717.94	256.22
718.28	255.53
718.61	255.27
718.94	254.97
719.27	254.67
719.61	254.42
719.94	254.06
720.27	253.54
720.60	253.26
720.94	253.15
721.27	252.92
721.60	252.77
721.93	252.46
722.27	252.37
722.60	252.29
722.93	252.03
723.26	251.86
723.59	251.62
723.93	251.46
724.26	251.33
724.59	251.09
724.92	250.91
725.25	250.91
725.59	250.68
725.92	250.50
726.25	250.34
726.58	250.20
726.91	249.93
727.24	249.82
727.57	249.68
727.91	249.36
728.24	249.23
728.57	249.00
728.90	248.86
729.23	248.52
729.56	248.52
729.89	248.32
730.22	248.15
730.55	247.90
730.89	247.70
731.22	247.44
731.55	247.25
731.88	247.05
732.21	246.76
732.54	246.61
732.87	246.49
733.20	246.35
733.53	246.13
733.86	246.03
734.19	245.71
734.52	245.60
734.85	245.84
735.18	245.59
735.51	245.58
735.84	245.56
736.17	245.55
736.50	245.11
736.83	245.64
737.16	245.46
737.49	245.39
737.82	245.22
738.15	245.18
738.48	245.07
738.81	244.93
739.14	244.71
739.47	244.53
739.80	244.34
740.13	244.27
740.46	244.12
740.79	243.94
741.12	243.81
741.45	243.55
741.78	243.11
742.11	243.10
742.44	242.83
742.77	242.69
743.10	242.46
743.43	242.40
743.75	241.70
744.08	242.26
744.41	242.08
744.74	241.95
745.07	241.75
745.40	241.65
745.73	241.74
746.06	241.67
746.39	241.60
746.71	241.47
747.04	241.22
747.37	241.03
747.70	240.87
748.03	240.85
748.36	240.91
748.68	240.79
749.01	240.51
749.34	240.39
749.67	240.26
750.00	240.23
750.33	240.42
750.65	240.29
750.98	239.50
751.31	239.44
751.64	239.36
751.97	239.45
752.29	239.39
752.62	239.03
752.95	238.88
753.28	238.63
753.60	238.52
753.93	238.54
754.26	238.49
754.59	238.31
754.91	238.16
755.24	237.92
755.57	237.77
755.90	237.71
756.22	237.52
756.55	237.33
756.88	237.10
757.20	236.70
757.53	236.50
757.86	236.39
758.19	236.28
758.51	236.17
758.84	235.89
759.17	235.69
759.49	235.58
759.82	235.64
760.15	235.69
760.47	235.48
760.80	235.29
761.13	235.21
761.45	235.14
761.78	234.95
762.11	234.86
762.43	234.67
762.76	234.52
763.08	234.55
763.41	234.54
763.74	234.48
764.06	234.36
764.39	234.31
764.71	234.21
765.04	234.09
765.37	234.00
765.69	233.87
766.02	233.75
766.34	233.73
766.67	233.56
767.00	233.53
767.32	233.75
767.65	233.95
767.97	233.84
768.30	233.74
768.62	233.70
768.95	233.67
769.27	233.65
769.60	233.71
769.92	233.52
770.25	233.36
770.57	233.25
770.90	233.22
771.22	233.08
771.55	233.05
771.87	232.99
772.20	232.93
772.52	233.32
772.85	233.91
773.17	233.86
773.50	233.70
773.82	233.60
774.15	233.36
774.47	233.03
774.80	233.00
775.12	233.00
775.45	232.93
775.77	232.90
776.09	232.91
776.42	232.89
776.74	233.06
777.07	233.01
777.39	232.94
777.72	232.88
778.04	232.98
778.36	232.95
778.69	232.92
779.01	232.87
779.33	232.42
779.66	231.85
779.98	231.75
780.31	231.79
780.63	231.91
780.95	231.94
781.28	231.89
781.60	231.78
781.92	231.73
782.25	231.73
782.57	231.65
782.89	231.57
783.22	231.41
783.54	231.23
783.86	231.21
784.19	231.16
784.51	231.21
784.83	231.06
785.16	230.97
785.48	230.94
785.80	230.93
786.12	230.95
786.45	230.88
786.77	230.93
787.09	230.86
787.42	230.68
787.74	230.71
788.06	230.67
788.38	230.67
788.71	230.59
789.03	230.57
789.35	230.60
789.67	230.50
789.99	230.54
790.32	230.45
790.64	230.49
790.96	230.84
791.28	230.66
791.61	230.62
791.93	230.59
792.25	230.60
792.57	230.92
792.89	230.83
793.21	230.84
793.54	230.73
793.86	230.66
794.18	230.60
794.50	230.46
794.82	230.49
795.14	230.52
795.47	230.68
795.79	230.64
796.11	230.46
796.43	230.45
796.75	230.41
797.07	230.40
797.39	230.27
797.71	229.95
798.04	230.00
798.36	230.05
798.68	230.03
799.00	230.05
799.32	229.76
799.64	229.75
799.96	229.80
800.28	229.84
800.60	229.82
800.92	229.83
801.24	229.81
801.56	229.80
801.89	229.76
802.21	229.73
802.53	229.71
802.85	229.80
803.17	230.05
803.49	229.96
803.81	229.93
804.13	229.94
804.45	229.86
804.77	229.86
805.09	229.81
805.41	229.81
805.73	229.74
806.05	229.61
806.37	229.63
806.69	229.51
807.01	229.45
807.33	229.51
807.65	229.41
807.97	229.64
808.28	229.57
808.60	229.50
808.92	229.39
809.24	229.61
809.56	229.49
809.88	229.33
810.20	229.33
810.52	229.44
810.84	229.39
811.16	229.35
811.48	229.27
811.80	229.41
812.12	229.36
812.43	229.37
812.75	229.40
813.07	229.36
813.39	229.43
813.71	229.36
814.03	229.29
814.35	229.29
814.67	229.09
814.98	229.01
815.30	228.97
815.62	228.88
815.94	228.58
816.26	228.85
816.58	228.65
816.89	228.71
817.21	228.56
817.53	228.50
817.85	228.54
818.17	228.53
818.48	228.39
818.80	228.47
819.12	228.36
819.44	228.22
819.76	228.11
820.07	228.05
820.39	228.01
820.71	228.02
821.03	228.03
821.34	227.91
821.66	227.94
821.98	228.01
822.30	227.99
822.61	228.25
822.93	228.03
823.25	228.08
823.57	228.04
823.88	228.17
824.20	228.23
824.52	228.28
824.83	228.25
825.15	228.15
825.47	228.05
825.79	228.15
826.10	228.14
826.42	228.13
826.74	228.17
827.05	228.30
827.37	228.30
827.69	228.24
828.00	228.21
828.32	228.26
828.64	228.22
828.95	228.47
829.27	228.40
829.58	228.38
829.90	228.41
830.22	228.38
830.53	228.17
830.85	228.11
831.17	227.97
831.48	227.97
831.80	228.01
832.11	227.99
832.43	227.91
832.75	227.92
833.06	228.25
833.38	228.09
833.69	227.95
834.01	228.01
834.32	227.93
834.64	227.97
834.96	227.89
835.27	227.81
835.59	227.72
835.90	227.67
836.22	227.64
836.53	227.59
836.85	227.62
837.16	228.19
837.48	228.18
837.79	228.36
838.11	228.39
838.42	228.37
838.74	228.47
839.05	228.40
839.37	228.37
839.68	227.97
840.00	227.94
840.31	228.01
840.63	227.93
840.94	227.94
841.26	227.92
841.57	227.91
841.88	227.99
842.20	227.83
842.51	227.65
842.83	227.61
843.14	228.00
843.46	227.94
843.77	227.63
844.08	227.56
844.40	227.44
844.71	227.34
845.03	227.31
845.34	227.20
845.65	227.19
845.97	227.21
846.28	227.31
846.60	227.37
846.91	227.24
847.22	227.18
847.54	227.26
847.85	227.25
848.16	227.23
848.48	227.12
848.79	227.36
849.10	227.44
849.42	227.55
849.73	227.14
850.04	227.19
850.36	226.95
850.67	227.09
850.98	227.04
851.30	227.15
851.61	227.16
851.92	227.20
852.23	227.34
852.55	227.42
852.86	227.40
853.17	227.43
853.49	227.50
853.80	227.59
854.11	227.62
854.42	227.65
854.74	227.61
855.05	227.65
855.36	227.35
855.67	227.37
855.99	227.31
856.30	227.83
856.61	227.76
856.92	227.81
857.23	227.75
857.55	227.75
857.86	227.74
858.17	227.74
858.48	227.64
858.79	227.49
859.11	227.47
859.42	227.49
859.73	227.45
860.04	227.54
860.35	227.46
860.66	227.38
860.98	227.40
861.29	227.48
861.60	227.47
861.91	227.65
862.22	227.57
862.53	227.52
862.84	227.01
863.16	227.20
863.47	227.15
863.78	227.12
864.09	227.10
864.40	227.09
864.71	227.09
865.02	227.22
865.33	227.17
865.64	227.09
865.95	227.05
866.27	227.29
866.58	227.18
866.89	227.27
867.20	227.26
867.51	227.14
867.82	227.11
868.13	227.23
868.44	227.08
868.75	227.20
869.06	227.14
869.37	227.18
869.68	226.93
869.99	226.98
870.30	227.04
870.61	227.07
870.92	226.98
871.23	226.91
871.54	226.95
871.85	227.11
872.16	227.16
872.47	227.16
872.78	226.88
873.09	226.92
873.40	226.78
873.71	226.76
874.02	226.79
874.33	226.71
874.64	226.60
874.95	226.69
875.26	226.56
875.56	226.58
875.87	226.53
876.18	226.63
876.49	227.15
876.80	227.13
877.11	227.13
877.42	227.25
877.73	227.31
878.04	227.21
878.35	227.20
878.66	227.25
878.96	227.18
879.27	227.22
879.58	227.17
879.89	227.13
880.20	227.35
880.51	227.39
880.82	227.35
881.12	227.35
881.43	227.27
881.74	227.24
882.05	227.29
882.36	227.35
882.67	227.36
882.97	226.79
883.28	226.75
883.59	226.73
883.90	226.64
884.21	226.73
884.51	226.69
884.82	226.66
885.13	226.61
885.44	226.59
885.74	226.55
886.05	226.64
886.36	226.77
886.67	226.54
886.98	226.76
887.28	226.90
887.59	226.97
887.90	226.91
888.20	226.88
888.51	226.98
888.82	226.90
889.13	226.90
889.43	227.28
889.74	227.16
890.05	227.04
890.35	227.03
890.66	226.96
890.97	227.00
891.28	226.89
891.58	226.90
891.89	226.99
892.20	226.97
892.50	226.90
892.81	226.89
893.12	226.82
893.42	226.62
893.73	226.57
894.04	226.54
894.34	226.67
894.65	226.64
894.95	226.54
895.26	226.52
895.57	226.71
895.87	226.38
896.18	226.51
896.48	226.68
896.79	226.68
897.10	226.75
897.40	226.77
897.71	226.85
898.01	226.81
898.32	226.83
898.63	226.83
898.93	226.87
899.24	226.91
899.54	226.96
899.85	226.92
900.15	227.00
900.46	226.93
900.76	226.94
901.07	227.02
901.38	227.00
901.68	227.08
901.99	226.83
902.29	226.78
902.60	226.79
902.90	226.71
903.21	226.68
903.51	226.60
903.82	226.68
904.12	226.67
904.43	226.76
904.73	226.75
905.03	226.80
905.34	227.23
905.64	227.13
905.95	227.10
906.25	227.14
906.56	227.00
906.86	227.02
907.17	227.01
907.47	226.95
907.77	226.97
908.08	226.88
908.38	226.96
908.69	227.03
908.99	227.08
909.30	227.13
909.60	227.13
909.90	227.16
910.21	227.06
910.51	227.02
910.81	226.95
911.12	226.95
911.42	226.88
911.73	226.39
912.03	226.41
912.33	226.54
912.64	226.47
912.94	226.51
913.24	226.44
913.55	226.39
913.85	226.37
914.15	226.37
914.46	226.40
914.76	226.37
915.06	226.24
915.37	226.16
915.67	226.10
915.97	226.09
916.27	225.96
916.58	225.91
916.88	225.92
917.18	225.87
917.49	226.11
917.79	226.15
918.09	226.18
918.39	226.25
918.70	226.28
919.00	226.28
919.30	226.54
919.60	226.46
919.91	226.36
920.21	226.42
920.51	226.34
920.81	226.30
921.12	226.27
921.42	226.29
921.72	226.22
922.02	226.23
922.32	226.30
922.63	226.27
922.93	226.45
923.23	226.41
923.53	226.43
923.83	226.15
924.13	226.20
924.44	226.25
924.74	226.37
925.04	226.43
925.34	226.44
925.64	226.20
925.94	226.32
926.24	226.60
926.55	226.51
926.85	226.59
927.15	226.61
927.45	226.64
927.75	226.65
928.05	226.75
928.35	226.79
928.65	226.88
928.95	226.95
929.26	226.83
929.56	226.90
929.86	226.96
930.16	226.98
930.46	226.90
930.76	226.85
931.06	226.62
931.36	226.44
931.66	226.47
931.96	226.47
932.26	226.50
932.56	226.30
932.86	226.42
933.16	226.44
933.46	226.40
933.76	226.36
934.06	226.46
934.36	226.67
934.66	226.62
934.96	226.54
935.26	226.55
935.56	226.63
935.86	226.57
936.16	226.45
936.46	226.35
936.76	226.34
937.06	226.35
937.36	226.38
937.66	226.46
937.96	226.48
938.26	226.43
938.56	226.35
938.86	226.38
939.16	226.42
939.46	226.47
939.76	226.50
940.06	226.46
940.35	226.30
940.65	226.00
940.95	225.99
941.25	225.96
941.55	225.88
941.85	225.80
942.15	225.88
942.45	226.06
942.75	226.06
943.04	226.07
943.34	226.13
943.64	226.08
943.94	226.02
944.24	225.94
944.54	225.94
944.84	225.95
945.13	225.93
945.43	225.89
945.73	225.80
946.03	225.77
946.33	225.74
946.62	225.72
946.92	225.70
947.22	225.75
947.52	225.71
947.82	225.87
948.11	225.82
948.41	225.75
948.71	225.61
949.01	225.68
949.31	225.63
949.60	225.58
949.90	225.67
950.20	225.61
950.50	225.69
950.79	225.65
951.09	225.80
951.39	225.78
951.69	225.69
951.98	225.80
952.28	225.85
952.58	225.88
952.87	226.00
953.17	226.05
953.47	226.05
953.76	226.02
954.06	225.88
954.36	225.83
954.66	225.75
954.95	225.87
955.25	225.91
955.55	225.97
955.84	225.87
956.14	225.92
956.44	225.95
956.73	225.83
957.03	225.94
957.32	225.84
957.62	225.88
957.92	226.03
958.21	225.97
958.51	226.55
958.81	226.64
959.10	226.61
959.40	226.78
959.69	226.77
959.99	226.92
960.29	226.95
960.58	226.97
960.88	227.23
961.17	227.24
961.47	227.30
961.76	227.31
962.06	227.44
962.36	227.34
962.65	227.47
962.95	227.52
963.24	227.46
963.54	227.53
963.83	227.55
964.13	227.46
964.42	227.38
964.72	226.90
965.01	226.88
965.31	226.91
965.60	226.82
965.90	227.13
966.19	227.08
966.49	227.13
966.78	227.15
967.08	227.13
967.37	227.05
967.67	227.01
967.96	227.06
968.26	227.08
968.55	227.23
968.85	227.15
969.14	227.15
969.43	227.15
969.73	227.12
970.02	227.01
970.32	226.99
970.61	226.95
970.91	226.90
971.20	226.85
971.49	226.78
971.79	226.84
972.08	226.53
972.38	226.56
972.67	226.53
972.96	226.53
973.26	226.43
973.55	226.57
973.85	226.47
974.14	226.46
974.43	226.49
974.73	226.40
975.02	226.42
975.31	226.42
975.61	226.45
975.90	226.40
976.19	226.39
976.49	226.43
976.78	226.58
977.07	226.49
977.37	226.52
977.66	226.60
977.95	226.50
978.24	226.55
978.54	226.56
978.83	226.54
979.12	226.57
979.42	226.54
979.71	226.46
980.00	226.46
980.29	226.43
980.59	226.37
980.88	226.53
981.17	226.51
981.46	226.49
981.76	226.52
982.05	226.65
982.34	226.73
982.63	226.81
982.93	226.72
983.22	226.98
983.51	226.99
983.80	227.05
984.09	227.09
984.39	226.97
984.68	226.91
984.97	226.99
985.26	226.99
985.55	227.05
985.85	227.00
986.14	227.04
986.43	227.07
986.72	226.99
987.01	226.68
987.30	226.60
987.59	226.62
987.89	226.64
988.18	226.50
988.47	226.46
988.76	226.38
989.05	226.41
989.34	226.27
989.63	226.38
989.92	226.25
990.22	226.27
990.51	226.31
990.80	226.32
991.09	226.31
991.38	226.33
991.67	226.34
991.96	226.29
992.25	226.36
992.54	226.29
992.83	226.28
993.12	226.35
993.41	226.48
993.70	226.71
993.99	226.76
994.28	226.92
994.58	227.00
994.87	226.92
995.16	226.90
995.45	226.80
995.74	226.65
996.03	226.78
996.32	226.82
996.61	226.98
996.90	226.97
997.19	226.98
997.48	226.96
997.77	226.80
998.06	226.88
998.34	226.84
998.63	226.85
998.92	226.95
999.21	227.03
999.50	227.00
999.79	226.83
1000.08	226.77
1000.37	226.66
1000.66	226.61
1000.95	226.73
1001.24	226.76
1001.53	226.85
1001.82	226.78
1002.11	226.59
1002.40	226.59
1002.68	226.65
1002.97	226.94
1003.26	226.86
1003.55	226.73
1003.84	226.84
1004.13	226.96
1004.42	226.87
1004.71	226.88
1004.99	226.88
1005.28	226.94
1005.57	226.85
1005.86	226.71
1006.15	226.71
1006.44	226.63
1006.72	226.69
1007.01	226.67
1007.30	226.65
1007.59	226.61
1007.88	226.69
1008.17	226.74
1008.45	226.65
1008.74	226.37
1009.03	226.17
1009.32	226.13
1009.60	226.13
1009.89	226.03
1010.18	225.79
1010.47	225.81
1010.76	225.76
1011.04	225.66
1011.33	225.67
1011.62	225.73
1011.91	225.81
1012.19	225.80
1012.48	225.80
1012.77	225.76
1013.05	225.92
1013.34	225.89
1013.63	225.78
1013.92	225.73
1014.20	225.69
1014.49	225.64
1014.78	225.70
1015.06	225.52
1015.35	225.59
1015.64	225.67
1015.92	225.78
1016.21	225.80
1016.50	225.79
1016.78	225.86
1017.07	225.93
1017.36	225.80
1017.64	225.75
1017.93	225.77
1018.22	225.67
1018.50	225.65
1018.79	225.59
1019.08	225.30
1019.36	225.30
1019.65	225.26
1019.93	225.41
1020.22	225.50
1020.51	225.77
1020.79	225.78
1021.08	224.60
1021.36	224.80
1021.65	224.80
1021.94	224.40
1022.22	225.75
1022.51	223.75
1022.79	228.05
1023.08	226.25
1023.36	231.00
1023.65	225.85
>>>>>End Processed Spectral Data<<<<<
