SpectraSuite Data File
++++++++++++++++++++++++++++++++++++
Date: Wed Sep 04 17:45:44 EDT 2013
User: lab3
Dark Spectrum Present: Yes
Reference Spectrum Present: No
Number of Sampled Component Spectra: 1
Spectrometers: USB2E7196
Integration Time (usec): 170000 (USB2E7196)
Spectra Averaged: 20 (USB2E7196)
Boxcar Smoothing: 10 (USB2E7196)
Correct for Electrical Dark: No (USB2E7196)
Strobe/Lamp Enabled: No (USB2E7196)
Correct for Detector Non-linearity: No (USB2E7196)
Correct for Stray Light: No (USB2E7196)
Number of Pixels in Processed Spectrum: 2048
>>>>>Begin Processed Spectral Data<<<<<
339.09	0.00
339.48	212.80
339.86	213.40
340.24	214.95
340.63	216.40
341.01	225.15
341.39	220.30
341.78	221.90
342.16	222.95
342.54	223.60
342.93	211.87
343.31	222.53
343.69	223.10
344.07	223.57
344.46	224.10
344.84	224.56
345.22	224.51
345.60	224.72
345.99	224.87
346.37	224.99
346.75	225.06
347.13	225.09
347.52	225.16
347.90	225.42
348.28	225.43
348.66	225.57
349.05	225.41
349.43	225.45
349.81	225.54
350.19	225.60
350.57	225.64
350.96	225.76
351.34	225.90
351.72	226.00
352.10	226.14
352.48	226.16
352.87	226.18
353.25	226.30
353.63	226.33
354.01	226.39
354.39	226.43
354.77	226.55
355.15	226.77
355.54	226.72
355.92	226.64
356.30	226.68
356.68	227.08
357.06	227.25
357.44	227.21
357.82	227.32
358.20	227.78
358.58	227.83
358.97	227.86
359.35	227.99
359.73	228.05
360.11	228.09
360.49	228.18
360.87	228.24
361.25	228.34
361.63	228.63
362.01	228.73
362.39	228.76
362.77	228.73
363.15	228.73
363.53	228.80
363.91	228.82
364.29	228.92
364.67	228.55
365.05	228.64
365.43	228.78
365.81	228.86
366.19	228.71
366.57	228.98
366.95	228.95
367.33	228.89
367.71	228.92
368.09	229.11
368.47	229.07
368.85	229.05
369.23	229.11
369.61	228.90
369.99	229.05
370.37	229.17
370.75	229.43
371.13	229.29
371.51	229.21
371.89	229.23
372.27	229.24
372.65	229.14
373.03	229.01
373.41	228.88
373.78	228.78
374.16	228.55
374.54	228.36
374.92	228.29
375.30	228.26
375.68	228.10
376.06	228.01
376.44	227.87
376.82	227.84
377.19	227.73
377.57	227.64
377.95	227.43
378.33	227.31
378.71	226.99
379.09	227.07
379.47	227.06
379.84	226.98
380.22	226.83
380.60	226.69
380.98	226.62
381.36	226.60
381.73	226.43
382.11	226.39
382.49	226.27
382.87	226.19
383.25	226.11
383.62	226.65
384.00	226.45
384.38	226.55
384.76	226.62
385.13	226.76
385.51	226.75
385.89	226.63
386.27	226.60
386.64	226.53
387.02	226.41
387.40	226.35
387.78	226.35
388.15	226.33
388.53	226.24
388.91	226.20
389.29	226.16
389.66	226.14
390.04	226.10
390.42	226.20
390.79	226.19
391.17	226.16
391.55	225.61
391.92	225.59
392.30	225.61
392.68	225.49
393.05	225.48
393.43	225.52
393.81	225.56
394.18	225.54
394.56	225.65
394.94	225.77
395.31	225.83
395.69	226.01
396.06	226.16
396.44	226.33
396.82	226.39
397.19	226.64
397.57	226.70
397.95	226.79
398.32	226.74
398.70	226.80
399.07	226.95
399.45	226.92
399.82	227.05
400.20	227.02
400.58	227.06
400.95	226.91
401.33	227.09
401.70	227.57
402.08	227.67
402.45	227.79
402.83	228.00
403.20	228.12
403.58	228.25
403.95	228.47
404.33	228.72
404.71	228.93
405.08	229.38
405.46	229.63
405.83	229.85
406.21	230.14
406.58	230.50
406.96	230.76
407.33	231.19
407.70	231.58
408.08	232.35
408.45	232.88
408.83	233.41
409.20	233.73
409.58	233.91
409.95	234.40
410.33	234.93
410.70	235.30
411.08	235.87
411.45	236.37
411.82	236.85
412.20	237.58
412.57	238.55
412.95	238.91
413.32	239.78
413.69	240.60
414.07	241.49
414.44	242.45
414.82	243.47
415.19	244.65
415.56	245.82
415.94	246.82
416.31	248.20
416.68	249.53
417.06	251.18
417.43	252.71
417.81	254.49
418.18	256.25
418.55	258.21
418.93	260.27
419.30	262.31
419.67	264.59
420.04	266.75
420.42	268.97
420.79	271.92
421.16	274.59
421.54	277.56
421.91	280.48
422.28	283.43
422.66	286.60
423.03	289.97
423.40	293.16
423.77	296.60
424.15	300.04
424.52	303.77
424.89	307.84
425.26	311.70
425.64	315.43
426.01	319.52
426.38	323.80
426.75	328.27
427.13	332.79
427.50	337.36
427.87	342.14
428.24	346.93
428.61	351.36
428.99	356.56
429.36	361.92
429.73	367.30
430.10	372.75
430.47	378.40
430.85	383.90
431.22	389.80
431.59	396.53
431.96	402.61
432.33	409.43
432.70	415.91
433.08	423.60
433.45	430.71
433.82	437.83
434.19	445.80
434.56	453.59
434.93	461.12
435.30	468.58
435.68	476.83
436.05	485.14
436.42	493.21
436.79	500.81
437.16	508.89
437.53	517.43
437.90	525.87
438.27	534.18
438.64	542.83
439.01	551.08
439.38	558.07
439.75	565.11
440.13	572.89
440.50	580.25
440.87	586.31
441.24	592.56
441.61	599.44
441.98	604.44
442.35	610.26
442.72	616.14
443.09	622.03
443.46	625.54
443.83	627.91
444.20	629.94
444.57	632.65
444.94	633.77
445.31	634.88
445.68	636.32
446.05	636.48
446.42	635.21
446.79	633.83
447.16	632.10
447.53	630.95
447.90	627.44
448.27	623.94
448.64	619.07
449.01	615.59
449.37	609.61
449.74	603.78
450.11	597.03
450.48	589.43
450.85	581.49
451.22	574.85
451.59	568.26
451.96	562.15
452.33	554.25
452.70	547.10
453.07	538.72
453.43	529.78
453.80	521.68
454.17	513.86
454.54	506.38
454.91	498.55
455.28	490.73
455.65	483.55
456.02	476.88
456.38	470.84
456.75	463.23
457.12	457.03
457.49	450.88
457.86	444.62
458.23	439.62
458.59	434.15
458.96	428.53
459.33	423.52
459.70	418.47
460.07	414.28
460.43	409.71
460.80	405.43
461.17	401.81
461.54	397.79
461.91	394.14
462.27	390.30
462.64	386.99
463.01	383.54
463.38	380.25
463.74	376.22
464.11	373.20
464.48	370.66
464.85	367.74
465.21	365.59
465.58	363.39
465.95	360.54
466.32	358.31
466.68	356.05
467.05	353.87
467.42	351.68
467.78	349.56
468.15	347.46
468.52	345.95
468.88	343.75
469.25	341.93
469.62	340.45
469.98	338.93
470.35	337.50
470.72	336.00
471.08	334.23
471.45	332.99
471.82	331.66
472.18	330.21
472.55	329.29
472.92	327.99
473.28	326.81
473.65	325.85
474.02	324.84
474.38	323.98
474.75	323.33
475.11	322.55
475.48	321.81
475.85	321.17
476.21	320.58
476.58	320.13
476.94	319.75
477.31	319.30
477.67	318.85
478.04	318.52
478.41	318.34
478.77	318.63
479.14	318.38
479.50	318.28
479.87	318.39
480.23	318.28
480.60	318.23
480.96	318.32
481.33	318.67
481.69	318.86
482.06	319.06
482.42	319.31
482.79	319.65
483.15	320.00
483.52	320.63
483.88	321.06
484.25	321.55
484.61	322.19
484.98	322.86
485.34	323.85
485.71	324.82
486.07	325.76
486.44	326.39
486.80	327.48
487.17	328.59
487.53	329.79
487.90	331.27
488.26	332.92
488.62	334.57
488.99	335.99
489.35	337.75
489.72	339.59
490.08	341.53
490.44	343.54
490.81	345.81
491.17	347.92
491.54	350.41
491.90	353.00
492.26	355.63
492.63	358.38
492.99	361.09
493.36	364.07
493.72	367.33
494.08	370.75
494.45	374.49
494.81	378.34
495.17	382.29
495.54	386.42
495.90	390.54
496.26	394.97
496.63	399.66
496.99	404.42
497.35	409.48
497.72	414.67
498.08	420.03
498.44	425.67
498.80	431.76
499.17	437.64
499.53	443.91
499.89	450.36
500.26	457.18
500.62	464.19
500.98	471.57
501.34	479.07
501.71	486.75
502.07	494.45
502.43	502.55
502.79	510.84
503.16	519.49
503.52	528.48
503.88	537.42
504.24	547.08
504.60	556.98
504.97	567.30
505.33	577.67
505.69	588.67
506.05	599.56
506.41	610.75
506.78	622.40
507.14	634.28
507.50	646.57
507.86	658.98
508.22	671.80
508.59	684.50
508.95	697.77
509.31	711.68
509.67	725.80
510.03	739.78
510.39	754.37
510.75	768.97
511.12	784.08
511.48	799.63
511.84	815.05
512.20	830.54
512.56	846.34
512.92	862.72
513.28	879.13
513.64	896.25
514.00	913.40
514.37	930.93
514.73	948.71
515.09	966.72
515.45	984.81
515.81	1002.81
516.17	1021.31
516.53	1039.65
516.89	1057.90
517.25	1076.99
517.61	1096.86
517.97	1116.69
518.33	1136.45
518.69	1156.38
519.05	1176.46
519.41	1196.96
519.77	1217.82
520.13	1238.30
520.49	1258.54
520.85	1279.14
521.21	1299.78
521.57	1320.72
521.93	1340.89
522.29	1361.90
522.65	1382.06
523.01	1402.55
523.37	1422.97
523.73	1443.54
524.09	1463.86
524.45	1484.25
524.81	1504.46
525.17	1524.71
525.53	1544.81
525.89	1565.16
526.25	1585.42
526.61	1605.38
526.97	1625.67
527.33	1646.44
527.68	1667.46
528.04	1688.35
528.40	1709.15
528.76	1729.70
529.12	1749.68
529.48	1770.09
529.84	1789.32
530.20	1809.67
530.56	1829.86
530.91	1850.21
531.27	1870.06
531.63	1890.13
531.99	1909.74
532.35	1929.26
532.71	1948.74
533.07	1968.64
533.42	1987.93
533.78	2007.25
534.14	2026.57
534.50	2044.97
534.86	2063.45
535.21	2080.58
535.57	2098.65
535.93	2115.69
536.29	2132.70
536.65	2150.04
537.00	2167.23
537.36	2184.30
537.72	2200.10
538.08	2216.65
538.44	2232.71
538.79	2248.60
539.15	2264.34
539.51	2280.00
539.87	2294.75
540.22	2308.15
540.58	2322.04
540.94	2334.87
541.29	2346.87
541.65	2358.89
542.01	2370.84
542.37	2380.69
542.72	2391.12
543.08	2401.03
543.44	2411.60
543.79	2421.07
544.15	2430.29
544.51	2439.68
544.87	2448.68
545.22	2457.05
545.58	2464.26
545.94	2470.85
546.29	2476.80
546.65	2482.71
547.01	2488.00
547.36	2492.93
547.72	2498.00
548.07	2501.20
548.43	2505.80
548.79	2510.26
549.14	2513.93
549.50	2517.44
549.86	2521.13
550.21	2524.53
550.57	2527.09
550.92	2528.33
551.28	2529.05
551.64	2530.83
551.99	2532.22
552.35	2533.22
552.70	2535.13
553.06	2536.47
553.41	2537.47
553.77	2539.10
554.13	2540.35
554.48	2541.41
554.84	2542.33
555.19	2543.26
555.55	2544.55
555.90	2543.51
556.26	2542.30
556.61	2540.35
556.97	2538.01
557.32	2537.22
557.68	2535.60
558.03	2534.06
558.39	2532.49
558.74	2531.46
559.10	2528.03
559.45	2524.46
559.81	2520.10
560.16	2514.50
560.52	2509.45
560.87	2504.67
561.23	2498.81
561.58	2492.63
561.94	2485.58
562.29	2477.98
562.64	2470.71
563.00	2462.47
563.35	2455.78
563.71	2448.78
564.06	2442.54
564.42	2435.59
564.77	2428.12
565.12	2420.71
565.48	2412.85
565.83	2405.05
566.19	2397.06
566.54	2389.11
566.89	2380.81
567.25	2372.97
567.60	2365.75
567.96	2358.02
568.31	2350.08
568.66	2341.87
569.02	2332.79
569.37	2324.71
569.72	2317.56
570.08	2308.27
570.43	2299.10
570.78	2290.40
571.14	2281.03
571.49	2270.82
571.84	2261.33
572.20	2250.77
572.55	2240.74
572.90	2230.13
573.26	2219.58
573.61	2208.68
573.96	2197.83
574.31	2185.95
574.67	2174.48
575.02	2162.22
575.37	2149.80
575.72	2137.01
576.08	2125.18
576.43	2112.93
576.78	2100.15
577.13	2086.65
577.49	2074.30
577.84	2062.57
578.19	2050.41
578.54	2037.92
578.90	2026.32
579.25	2014.50
579.60	2002.39
579.95	1989.76
580.30	1977.07
580.66	1963.97
581.01	1950.82
581.36	1937.23
581.71	1924.98
582.06	1912.52
582.42	1900.25
582.77	1888.13
583.12	1876.33
583.47	1864.07
583.82	1852.49
584.17	1840.86
584.53	1829.27
584.88	1817.04
585.23	1804.33
585.58	1790.53
585.93	1778.03
586.28	1764.89
586.63	1751.33
586.98	1737.50
587.34	1724.74
587.69	1711.79
588.04	1699.81
588.39	1688.18
588.74	1676.34
589.09	1664.54
589.44	1651.80
589.79	1640.20
590.14	1628.56
590.49	1616.91
590.84	1605.11
591.19	1593.38
591.54	1581.35
591.89	1569.50
592.25	1559.56
592.60	1548.54
592.95	1537.64
593.30	1525.93
593.65	1514.44
594.00	1502.95
594.35	1493.61
594.70	1482.07
595.05	1471.09
595.40	1459.33
595.75	1447.67
596.10	1437.13
596.45	1426.09
596.80	1415.90
597.15	1404.72
597.50	1393.28
597.85	1382.17
598.19	1371.19
598.54	1360.11
598.89	1349.47
599.24	1339.25
599.59	1327.77
599.94	1317.22
600.29	1307.30
600.64	1297.56
600.99	1287.18
601.34	1277.92
601.69	1267.21
602.04	1257.70
602.39	1248.54
602.74	1239.92
603.08	1230.99
603.43	1221.95
603.78	1212.59
604.13	1203.23
604.48	1193.86
604.83	1184.49
605.18	1174.89
605.53	1165.57
605.87	1156.47
606.22	1148.02
606.57	1139.24
606.92	1130.40
607.27	1121.87
607.62	1113.38
607.96	1105.10
608.31	1097.70
608.66	1089.43
609.01	1081.17
609.36	1073.05
609.70	1064.67
610.05	1056.23
610.40	1048.25
610.75	1039.70
611.10	1031.80
611.44	1023.57
611.79	1015.69
612.14	1008.15
612.49	1000.92
612.83	993.77
613.18	986.34
613.53	978.94
613.88	971.13
614.22	963.57
614.57	955.93
614.92	948.40
615.27	941.23
615.61	933.65
615.96	926.28
616.31	918.95
616.65	912.38
617.00	905.43
617.35	898.50
617.70	891.38
618.04	884.66
618.39	877.89
618.74	871.87
619.08	865.44
619.43	858.76
619.78	851.89
620.12	845.08
620.47	838.70
620.82	831.81
621.16	825.35
621.51	819.23
621.85	813.23
622.20	806.94
622.55	800.47
622.89	794.29
623.24	788.34
623.59	782.28
623.93	776.12
624.28	770.11
624.62	764.81
624.97	759.44
625.32	753.90
625.66	748.26
626.01	742.14
626.35	736.91
626.70	731.64
627.04	726.58
627.39	721.34
627.73	716.32
628.08	711.35
628.43	706.21
628.77	701.13
629.12	696.02
629.46	691.32
629.81	686.75
630.15	682.31
630.50	677.68
630.84	673.08
631.19	668.35
631.53	664.04
631.88	658.98
632.22	654.09
632.57	649.76
632.91	645.20
633.26	641.00
633.60	636.53
633.95	631.87
634.29	627.36
634.64	623.03
634.98	618.30
635.32	614.12
635.67	610.34
636.01	606.29
636.36	602.24
636.70	598.40
637.05	594.40
637.39	590.40
637.73	586.40
638.08	582.60
638.42	578.61
638.77	574.61
639.11	570.30
639.45	566.25
639.80	562.01
640.14	558.28
640.49	554.41
640.83	550.63
641.17	547.26
641.52	543.67
641.86	540.05
642.20	537.02
642.55	533.47
642.89	529.96
643.23	526.58
643.58	523.49
643.92	519.80
644.26	516.50
644.61	513.40
644.95	510.10
645.29	506.74
645.64	503.72
645.98	500.64
646.32	497.96
646.66	494.92
647.01	492.12
647.35	489.39
647.69	486.69
648.04	484.00
648.38	481.33
648.72	478.62
649.06	475.79
649.41	472.79
649.75	470.04
650.09	467.30
650.43	464.53
650.78	461.56
651.12	458.98
651.46	456.34
651.80	453.52
652.14	451.06
652.49	448.74
652.83	446.30
653.17	443.77
653.51	441.20
653.85	439.00
654.20	436.65
654.54	434.17
654.88	431.67
655.22	429.45
655.56	427.06
655.90	424.77
656.25	422.61
656.59	420.57
656.93	418.38
657.27	416.29
657.61	414.01
657.95	412.00
658.29	409.84
658.64	407.79
658.98	405.80
659.32	403.50
659.66	401.33
660.00	399.24
660.34	397.26
660.68	395.36
661.02	393.32
661.36	391.38
661.70	389.38
662.05	387.52
662.39	385.63
662.73	383.89
663.07	382.42
663.41	380.79
663.75	378.84
664.09	377.08
664.43	375.27
664.77	373.74
665.11	371.96
665.45	370.43
665.79	368.87
666.13	367.19
666.47	365.77
666.81	364.18
667.15	362.48
667.49	361.14
667.83	359.84
668.17	358.41
668.51	356.94
668.85	355.67
669.19	354.60
669.53	353.10
669.87	351.53
670.21	349.98
670.55	348.54
670.89	347.44
671.23	346.15
671.57	344.75
671.91	343.36
672.25	342.12
672.58	340.86
672.92	339.47
673.26	338.25
673.60	336.97
673.94	335.78
674.28	334.75
674.62	333.49
674.96	332.15
675.30	331.06
675.64	330.01
675.97	328.85
676.31	327.45
676.65	326.28
676.99	325.43
677.33	324.19
677.67	323.10
678.01	321.80
678.34	320.76
678.68	319.90
679.02	318.88
679.36	317.95
679.70	317.00
680.04	316.16
680.37	315.24
680.71	314.28
681.05	313.44
681.39	312.56
681.73	311.68
682.06	310.85
682.40	310.00
682.74	309.17
683.08	308.36
683.42	307.48
683.75	306.78
684.09	305.79
684.43	305.15
684.77	304.31
685.10	303.57
685.44	302.76
685.78	301.94
686.12	301.15
686.45	300.33
686.79	299.48
687.13	298.78
687.46	298.10
687.80	297.52
688.14	296.76
688.48	296.07
688.81	295.35
689.15	294.69
689.49	293.97
689.82	293.30
690.16	292.47
690.50	291.94
690.83	291.23
691.17	290.55
691.51	289.83
691.84	289.25
692.18	288.56
692.52	287.97
692.85	287.35
693.19	287.05
693.52	286.42
693.86	285.76
694.20	285.14
694.53	284.51
694.87	283.93
695.21	283.30
695.54	282.69
695.88	281.93
696.21	281.23
696.55	280.63
696.88	279.98
697.22	279.40
697.56	278.92
697.89	278.26
698.23	277.77
698.56	277.15
698.90	276.70
699.23	276.26
699.57	275.75
699.90	275.15
700.24	274.40
700.58	273.98
700.91	273.68
701.25	273.50
701.58	273.37
701.92	272.99
702.25	272.50
702.59	271.99
702.92	271.67
703.26	271.30
703.59	270.91
703.93	270.98
704.26	270.62
704.60	270.15
704.93	269.73
705.26	269.31
705.60	268.97
705.93	268.44
706.27	268.18
706.60	267.91
706.94	267.72
707.27	267.45
707.61	267.13
707.94	266.70
708.27	265.95
708.61	265.20
708.94	264.74
709.28	264.45
709.61	264.08
709.94	263.77
710.28	263.40
710.61	263.03
710.95	262.14
711.28	262.12
711.61	261.71
711.95	261.50
712.28	261.07
712.61	260.73
712.95	260.61
713.28	260.40
713.61	259.95
713.95	259.52
714.28	259.15
714.61	258.74
714.95	258.38
715.28	257.92
715.61	257.61
715.95	257.32
716.28	256.86
716.61	256.65
716.95	256.27
717.28	255.93
717.61	255.61
717.94	255.37
718.28	254.73
718.61	254.45
718.94	254.06
719.27	253.82
719.61	253.63
719.94	253.31
720.27	252.82
720.60	252.57
720.94	252.30
721.27	252.08
721.60	251.96
721.93	251.69
722.27	251.74
722.60	251.55
722.93	251.23
723.26	251.10
723.59	250.75
723.93	250.58
724.26	250.47
724.59	250.28
724.92	250.09
725.25	249.96
725.59	249.70
725.92	249.58
726.25	249.43
726.58	249.20
726.91	248.83
727.24	248.70
727.57	248.56
727.91	248.34
728.24	248.13
728.57	247.84
728.90	247.80
729.23	247.52
729.56	247.55
729.89	247.40
730.22	247.21
730.55	247.04
730.89	246.90
731.22	246.65
731.55	246.38
731.88	246.29
732.21	246.04
732.54	245.87
732.87	245.74
733.20	245.51
733.53	245.39
733.86	245.36
734.19	245.07
734.52	244.95
734.85	245.15
735.18	244.93
735.51	244.96
735.84	244.72
736.17	244.64
736.50	244.23
736.83	244.70
737.16	244.56
737.49	244.46
737.82	244.29
738.15	244.25
738.48	244.15
738.81	243.96
739.14	243.75
739.47	243.58
739.80	243.43
740.13	243.40
740.46	243.15
740.79	242.94
741.12	242.83
741.45	242.62
741.78	242.15
742.11	242.24
742.44	241.99
742.77	241.96
743.10	241.79
743.43	241.62
743.75	240.89
744.08	241.45
744.41	241.31
744.74	241.19
745.07	240.94
745.40	240.87
745.73	240.89
746.06	240.77
746.39	240.78
746.71	240.55
747.04	240.41
747.37	240.31
747.70	240.35
748.03	240.30
748.36	240.25
748.68	240.13
749.01	239.79
749.34	239.61
749.67	239.53
750.00	239.53
750.33	239.82
750.65	239.81
750.98	239.03
751.31	238.85
751.64	238.72
751.97	238.92
752.29	238.84
752.62	238.55
752.95	238.41
753.28	238.23
753.60	238.10
753.93	238.05
754.26	238.00
754.59	237.68
754.91	237.51
755.24	237.36
755.57	237.29
755.90	237.17
756.22	237.12
756.55	236.95
756.88	236.68
757.20	236.32
757.53	236.04
757.86	235.98
758.19	235.92
758.51	235.76
758.84	235.36
759.17	235.26
759.49	235.21
759.82	235.40
760.15	235.37
760.47	235.36
760.80	235.10
761.13	235.02
761.45	234.90
761.78	234.80
762.11	234.78
762.43	234.64
762.76	234.58
763.08	234.51
763.41	234.42
763.74	234.29
764.06	234.11
764.39	234.06
764.71	233.90
765.04	233.83
765.37	233.76
765.69	233.74
766.02	233.56
766.34	233.46
766.67	233.24
767.00	233.27
767.32	233.46
767.65	233.77
767.97	233.67
768.30	233.71
768.62	233.65
768.95	233.47
769.27	233.40
769.60	233.34
769.92	233.20
770.25	233.05
770.57	233.02
770.90	232.97
771.22	232.82
771.55	232.84
771.87	232.82
772.20	232.81
772.52	233.14
772.85	233.70
773.17	233.62
773.50	233.47
773.82	233.36
774.15	232.99
774.47	232.60
774.80	232.55
775.12	232.49
775.45	232.47
775.77	232.41
776.09	232.40
776.42	232.29
776.74	232.35
777.07	232.29
777.39	232.27
777.72	232.20
778.04	232.21
778.36	232.15
778.69	232.09
779.01	231.97
779.33	231.51
779.66	230.89
779.98	230.87
780.31	230.88
780.63	231.01
780.95	231.09
781.28	231.00
781.60	230.89
781.92	230.83
782.25	230.73
782.57	230.75
782.89	230.66
783.22	230.67
783.54	230.54
783.86	230.57
784.19	230.46
784.51	230.59
784.83	230.53
785.16	230.44
785.48	230.41
785.80	230.46
786.12	230.49
786.45	230.45
786.77	230.36
787.09	230.29
787.42	230.08
787.74	230.02
788.06	230.02
788.38	229.99
788.71	229.93
789.03	229.94
789.35	229.91
789.67	229.89
789.99	229.85
790.32	229.81
790.64	229.83
790.96	230.16
791.28	229.91
791.61	229.90
791.93	229.87
792.25	229.84
792.57	230.09
792.89	229.97
793.21	230.00
793.54	229.95
793.86	229.82
794.18	229.84
794.50	229.80
794.82	229.78
795.14	229.84
795.47	229.92
795.79	229.87
796.11	229.73
796.43	229.65
796.75	229.66
797.07	229.70
797.39	229.65
797.71	229.29
798.04	229.32
798.36	229.29
798.68	229.24
799.00	229.24
799.32	229.05
799.64	229.05
799.96	229.00
800.28	229.13
800.60	229.19
800.92	229.20
801.24	229.05
801.56	229.16
801.89	229.04
802.21	229.03
802.53	228.98
802.85	229.12
803.17	229.38
803.49	229.24
803.81	229.18
804.13	229.19
804.45	229.14
804.77	229.17
805.09	229.14
805.41	229.15
805.73	229.02
806.05	228.87
806.37	228.83
806.69	228.72
807.01	228.60
807.33	228.55
807.65	228.27
807.97	228.51
808.28	228.33
808.60	228.30
808.92	228.24
809.24	228.45
809.56	228.33
809.88	228.16
810.20	228.20
810.52	228.27
810.84	228.10
811.16	228.01
811.48	227.92
811.80	228.09
812.12	228.05
812.43	228.09
812.75	228.06
813.07	228.04
813.39	228.04
813.71	227.98
814.03	227.96
814.35	227.98
814.67	227.80
814.98	227.90
815.30	227.93
815.62	227.84
815.94	227.58
816.26	227.73
816.58	227.61
816.89	227.70
817.21	227.56
817.53	227.57
817.85	227.62
818.17	227.68
818.48	227.46
818.80	227.58
819.12	227.57
819.44	227.53
819.76	227.52
820.07	227.52
820.39	227.54
820.71	227.60
821.03	227.65
821.34	227.62
821.66	227.63
821.98	227.62
822.30	227.61
822.61	227.90
822.93	227.72
823.25	227.72
823.57	227.61
823.88	227.75
824.20	227.74
824.52	227.82
824.83	227.80
825.15	227.79
825.47	227.68
825.79	227.71
826.10	227.65
826.42	227.62
826.74	227.67
827.05	227.59
827.37	227.55
827.69	227.54
828.00	227.54
828.32	227.40
828.64	227.39
828.95	227.58
829.27	227.38
829.58	227.35
829.90	227.35
830.22	227.36
830.53	227.21
830.85	227.13
831.17	227.02
831.48	226.97
831.80	227.02
832.11	226.99
832.43	226.90
832.75	226.93
833.06	227.27
833.38	227.15
833.69	227.13
834.01	227.15
834.32	227.09
834.64	227.01
834.96	227.09
835.27	227.09
835.59	226.94
835.90	226.97
836.22	226.94
836.53	226.88
836.85	226.88
837.16	227.40
837.48	227.41
837.79	227.57
838.11	227.60
838.42	227.59
838.74	227.64
839.05	227.60
839.37	227.58
839.68	227.20
840.00	227.22
840.31	227.39
840.63	227.30
840.94	227.32
841.26	227.31
841.57	227.24
841.88	227.30
842.20	227.26
842.51	227.14
842.83	227.20
843.14	227.71
843.46	227.66
843.77	227.34
844.08	227.42
844.40	227.23
844.71	227.14
845.03	227.06
845.34	227.04
845.65	227.04
845.97	227.06
846.28	227.11
846.60	227.13
846.91	226.95
847.22	227.05
847.54	227.12
847.85	227.15
848.16	227.19
848.48	227.04
848.79	227.27
849.10	227.32
849.42	227.34
849.73	226.84
850.04	226.87
850.36	226.67
850.67	226.71
850.98	226.73
851.30	226.89
851.61	226.93
851.92	226.92
852.23	227.10
852.55	227.10
852.86	227.11
853.17	227.15
853.49	227.32
853.80	227.39
854.11	227.36
854.42	227.43
854.74	227.34
855.05	227.39
855.36	227.09
855.67	227.05
855.99	227.02
856.30	227.57
856.61	227.54
856.92	227.61
857.23	227.57
857.55	227.51
857.86	227.45
858.17	227.56
858.48	227.48
858.79	227.34
859.11	227.35
859.42	227.32
859.73	227.27
860.04	227.17
860.35	226.94
860.66	226.88
860.98	226.85
861.29	226.95
861.60	226.88
861.91	227.00
862.22	226.94
862.53	226.94
862.84	226.30
863.16	226.43
863.47	226.28
863.78	226.26
864.09	226.32
864.40	226.27
864.71	226.20
865.02	226.28
865.33	226.12
865.64	226.03
865.95	225.95
866.27	226.20
866.58	226.19
866.89	226.34
867.20	226.30
867.51	226.17
867.82	226.06
868.13	226.24
868.44	226.10
868.75	226.15
869.06	226.14
869.37	226.18
869.68	226.00
869.99	226.11
870.30	226.05
870.61	226.04
870.92	226.00
871.23	225.95
871.54	225.96
871.85	226.17
872.16	226.25
872.47	226.21
872.78	225.99
873.09	226.00
873.40	225.92
873.71	225.94
874.02	225.96
874.33	225.88
874.64	225.68
874.95	225.76
875.26	225.65
875.56	225.55
875.87	225.55
876.18	225.55
876.49	225.99
876.80	225.97
877.11	225.90
877.42	225.97
877.73	225.96
878.04	225.90
878.35	225.88
878.66	225.83
878.96	225.90
879.27	225.85
879.58	225.82
879.89	225.75
880.20	225.90
880.51	225.91
880.82	226.04
881.12	226.13
881.43	226.05
881.74	226.07
882.05	226.09
882.36	226.11
882.67	226.08
882.97	225.61
883.28	225.67
883.59	225.75
883.90	225.75
884.21	225.86
884.51	225.81
884.82	225.77
885.13	225.83
885.44	225.85
885.74	225.94
886.05	225.96
886.36	226.05
886.67	225.90
886.98	226.17
887.28	226.23
887.59	226.24
887.90	226.29
888.20	226.38
888.51	226.50
888.82	226.50
889.13	226.66
889.43	227.01
889.74	227.04
890.05	226.98
890.35	226.96
890.66	226.82
890.97	226.80
891.28	226.72
891.58	226.76
891.89	226.70
892.20	226.62
892.50	226.61
892.81	226.59
893.12	226.55
893.42	226.33
893.73	226.32
894.04	226.29
894.34	226.31
894.65	226.25
894.95	226.18
895.26	226.23
895.57	226.40
895.87	226.07
896.18	226.07
896.48	226.08
896.79	226.07
897.10	226.20
897.40	226.27
897.71	226.35
898.01	226.24
898.32	226.32
898.63	226.36
898.93	226.36
899.24	226.29
899.54	226.30
899.85	226.21
900.15	226.17
900.46	226.31
900.76	226.34
901.07	226.33
901.38	226.39
901.68	226.40
901.99	226.09
902.29	225.95
902.60	225.92
902.90	225.95
903.21	226.00
903.51	225.93
903.82	226.02
904.12	226.05
904.43	226.18
904.73	226.14
905.03	226.03
905.34	226.51
905.64	226.55
905.95	226.51
906.25	226.56
906.56	226.51
906.86	226.37
907.17	226.34
907.47	226.35
907.77	226.21
908.08	226.06
908.38	226.16
908.69	226.31
908.99	226.39
909.30	226.42
909.60	226.30
909.90	226.32
910.21	226.08
910.51	225.96
910.81	225.86
911.12	225.85
911.42	225.89
911.73	225.34
912.03	225.38
912.33	225.46
912.64	225.46
912.94	225.52
913.24	225.45
913.55	225.40
913.85	225.38
914.15	225.58
914.46	225.73
914.76	225.61
915.06	225.55
915.37	225.51
915.67	225.45
915.97	225.51
916.27	225.37
916.58	225.45
916.88	225.48
917.18	225.43
917.49	225.83
917.79	225.86
918.09	225.95
918.39	226.10
918.70	226.06
919.00	226.06
919.30	226.21
919.60	226.26
919.91	226.21
920.21	226.20
920.51	226.00
920.81	225.95
921.12	226.04
921.42	226.04
921.72	226.00
922.02	225.96
922.32	225.96
922.63	226.01
922.93	226.20
923.23	226.28
923.53	226.27
923.83	225.90
924.13	225.88
924.44	225.82
924.74	225.90
925.04	226.03
925.34	225.96
925.64	225.72
925.94	225.69
926.24	226.00
926.55	225.95
926.85	226.04
927.15	225.99
927.45	225.98
927.75	226.00
928.05	226.08
928.35	226.05
928.65	226.22
928.95	226.27
929.26	226.16
929.56	226.17
929.86	226.27
930.16	226.22
930.46	226.24
930.76	226.35
931.06	226.08
931.36	225.91
931.66	226.05
931.96	226.16
932.26	226.17
932.56	225.97
932.86	226.04
933.16	226.06
933.46	226.09
933.76	226.03
934.06	226.13
934.36	226.22
934.66	226.22
934.96	226.07
935.26	226.07
935.56	226.06
935.86	225.93
936.16	225.77
936.46	225.77
936.76	225.75
937.06	225.68
937.36	225.76
937.66	225.81
937.96	225.76
938.26	225.64
938.56	225.58
938.86	225.61
939.16	225.70
939.46	225.75
939.76	225.71
940.06	225.73
940.35	225.57
940.65	225.39
940.95	225.45
941.25	225.40
941.55	225.31
941.85	225.32
942.15	225.45
942.45	225.63
942.75	225.60
943.04	225.65
943.34	225.68
943.64	225.58
943.94	225.54
944.24	225.51
944.54	225.55
944.84	225.65
945.13	225.58
945.43	225.48
945.73	225.40
946.03	225.38
946.33	225.38
946.62	225.37
946.92	225.33
947.22	225.36
947.52	225.41
947.82	225.61
948.11	225.52
948.41	225.46
948.71	225.31
949.01	225.35
949.31	225.27
949.60	225.27
949.90	225.40
950.20	225.40
950.50	225.43
950.79	225.51
951.09	225.53
951.39	225.53
951.69	225.53
951.98	225.62
952.28	225.65
952.58	225.63
952.87	225.72
953.17	225.85
953.47	225.83
953.76	225.80
954.06	225.63
954.36	225.59
954.66	225.59
954.95	225.78
955.25	225.89
955.55	225.99
955.84	225.97
956.14	225.94
956.44	225.98
956.73	225.89
957.03	225.81
957.32	225.76
957.62	225.75
957.92	225.81
958.21	225.83
958.51	226.37
958.81	226.44
959.10	226.45
959.40	226.44
959.69	226.47
959.99	226.59
960.29	226.65
960.58	226.69
960.88	226.85
961.17	226.76
961.47	226.74
961.76	226.72
962.06	226.71
962.36	226.68
962.65	226.71
962.95	226.79
963.24	226.76
963.54	226.80
963.83	226.89
964.13	226.88
964.42	226.78
964.72	226.38
965.01	226.37
965.31	226.28
965.60	226.19
965.90	226.44
966.19	226.29
966.49	226.26
966.78	226.29
967.08	226.20
967.37	226.26
967.67	226.15
967.96	226.12
968.26	226.09
968.55	226.10
968.85	226.07
969.14	226.04
969.43	226.05
969.73	226.02
970.02	225.85
970.32	225.78
970.61	225.70
970.91	225.59
971.20	225.49
971.49	225.43
971.79	225.45
972.08	225.07
972.38	225.12
972.67	225.11
972.96	225.07
973.26	224.99
973.55	225.02
973.85	225.00
974.14	224.99
974.43	225.10
974.73	225.00
975.02	224.96
975.31	224.98
975.61	225.03
975.90	225.00
976.19	225.02
976.49	225.09
976.78	225.14
977.07	225.14
977.37	225.16
977.66	225.24
977.95	225.23
978.24	225.30
978.54	225.39
978.83	225.36
979.12	225.35
979.42	225.37
979.71	225.30
980.00	225.26
980.29	225.21
980.59	225.08
980.88	225.27
981.17	225.21
981.46	225.26
981.76	225.23
982.05	225.40
982.34	225.45
982.63	225.45
982.93	225.45
983.22	225.59
983.51	225.63
983.80	225.76
984.09	225.87
984.39	225.87
984.68	225.77
984.97	225.89
985.26	225.91
985.55	225.91
985.85	225.84
986.14	225.97
986.43	226.09
986.72	226.14
987.01	225.98
987.30	226.03
987.59	225.99
987.89	226.02
988.18	225.89
988.47	225.87
988.76	225.86
989.05	225.82
989.34	225.73
989.63	225.86
989.92	225.73
990.22	225.59
990.51	225.57
990.80	225.61
991.09	225.61
991.38	225.70
991.67	225.72
991.96	225.72
992.25	225.80
992.54	225.77
992.83	225.81
993.12	225.79
993.41	225.93
993.70	226.08
993.99	226.19
994.28	226.26
994.58	226.38
994.87	226.32
995.16	226.39
995.45	226.40
995.74	226.26
996.03	226.35
996.32	226.45
996.61	226.51
996.90	226.42
997.19	226.40
997.48	226.45
997.77	226.35
998.06	226.34
998.34	226.25
998.63	226.19
998.92	226.16
999.21	226.24
999.50	226.21
999.79	226.05
1000.08	225.95
1000.37	225.90
1000.66	225.78
1000.95	225.93
1001.24	225.83
1001.53	225.86
1001.82	225.84
1002.11	225.69
1002.40	225.68
1002.68	225.84
1002.97	226.18
1003.26	226.04
1003.55	225.87
1003.84	225.95
1004.13	226.10
1004.42	226.05
1004.71	226.01
1004.99	225.96
1005.28	226.00
1005.57	225.89
1005.86	225.84
1006.15	225.74
1006.44	225.59
1006.72	225.66
1007.01	225.46
1007.30	225.49
1007.59	225.40
1007.88	225.30
1008.17	225.33
1008.45	225.23
1008.74	224.98
1009.03	224.69
1009.32	224.70
1009.60	224.70
1009.89	224.54
1010.18	224.37
1010.47	224.36
1010.76	224.42
1011.04	224.41
1011.33	224.50
1011.62	224.51
1011.91	224.52
1012.19	224.60
1012.48	224.67
1012.77	224.62
1013.05	224.92
1013.34	224.88
1013.63	224.86
1013.92	224.99
1014.20	224.95
1014.49	225.02
1014.78	225.06
1015.06	225.02
1015.35	225.05
1015.64	225.11
1015.92	225.28
1016.21	225.33
1016.50	225.31
1016.78	225.32
1017.07	225.33
1017.36	225.20
1017.64	225.25
1017.93	225.37
1018.22	225.32
1018.50	225.30
1018.79	225.32
1019.08	225.14
1019.36	225.25
1019.65	225.25
1019.93	225.33
1020.22	225.47
1020.51	225.73
1020.79	225.73
1021.08	224.35
1021.36	224.00
1021.65	225.70
1021.94	226.30
1022.22	225.85
1022.51	224.95
1022.79	227.30
1023.08	226.70
1023.36	231.35
1023.65	224.70
>>>>>End Processed Spectral Data<<<<<
