SpectraSuite Data File
++++++++++++++++++++++++++++++++++++
Date: Wed Sep 04 17:41:12 EDT 2013
User: lab3
Dark Spectrum Present: Yes
Reference Spectrum Present: No
Number of Sampled Component Spectra: 1
Spectrometers: USB2E7196
Integration Time (usec): 170000 (USB2E7196)
Spectra Averaged: 20 (USB2E7196)
Boxcar Smoothing: 10 (USB2E7196)
Correct for Electrical Dark: No (USB2E7196)
Strobe/Lamp Enabled: No (USB2E7196)
Correct for Detector Non-linearity: No (USB2E7196)
Correct for Stray Light: No (USB2E7196)
Number of Pixels in Processed Spectrum: 2048
>>>>>Begin Processed Spectral Data<<<<<
339.09	0.00
339.48	212.35
339.86	213.40
340.24	216.10
340.63	217.60
341.01	226.15
341.39	219.35
341.78	221.55
342.16	224.05
342.54	222.15
342.93	212.17
343.31	222.88
343.69	223.42
344.07	223.94
344.46	224.47
344.84	224.90
345.22	224.83
345.60	225.09
345.99	225.25
346.37	225.30
346.75	225.42
347.13	225.45
347.52	225.49
347.90	225.70
348.28	225.69
348.66	225.86
349.05	225.67
349.43	225.70
349.81	225.77
350.19	225.77
350.57	225.77
350.96	225.84
351.34	225.85
351.72	225.95
352.10	225.96
352.48	225.87
352.87	225.87
353.25	225.87
353.63	225.94
354.01	226.00
354.39	226.06
354.77	226.21
355.15	226.35
355.54	226.36
355.92	226.25
356.30	226.30
356.68	226.65
357.06	226.75
357.44	226.76
357.82	226.74
358.20	227.22
358.58	227.36
358.97	227.48
359.35	227.71
359.73	227.82
360.11	227.92
360.49	228.00
360.87	228.04
361.25	228.18
361.63	228.30
362.01	228.35
362.39	228.35
362.77	228.35
363.15	228.31
363.53	228.39
363.91	228.47
364.29	228.48
364.67	228.07
365.05	228.06
365.43	228.04
365.81	228.15
366.19	227.99
366.57	228.18
366.95	228.12
367.33	227.98
367.71	227.98
368.09	228.09
368.47	228.15
368.85	228.10
369.23	228.20
369.61	228.10
369.99	228.21
370.37	228.29
370.75	228.52
371.13	228.47
371.51	228.35
371.89	228.45
372.27	228.47
372.65	228.49
373.03	228.48
373.41	228.43
373.78	228.37
374.16	228.13
374.54	227.91
374.92	227.80
375.30	227.81
375.68	227.69
376.06	227.65
376.44	227.46
376.82	227.46
377.19	227.35
377.57	227.27
377.95	227.07
378.33	227.00
378.71	226.61
379.09	226.67
379.47	226.66
379.84	226.43
380.22	226.34
380.60	226.22
380.98	226.10
381.36	226.06
381.73	225.92
382.11	225.91
382.49	225.84
382.87	225.80
383.25	225.69
383.62	226.17
384.00	226.01
384.38	226.03
384.76	226.11
385.13	226.27
385.51	226.21
385.89	226.15
386.27	226.11
386.64	226.25
387.02	226.17
387.40	226.09
387.78	226.14
388.15	226.12
388.53	226.06
388.91	226.07
389.29	226.00
389.66	226.13
390.04	226.04
390.42	226.14
390.79	226.12
391.17	226.16
391.55	225.63
391.92	225.65
392.30	225.77
392.68	225.65
393.05	225.65
393.43	225.69
393.81	225.74
394.18	225.71
394.56	225.66
394.94	225.72
395.31	225.76
395.69	225.89
396.06	226.00
396.44	226.13
396.82	226.16
397.19	226.50
397.57	226.46
397.95	226.60
398.32	226.47
398.70	226.58
399.07	226.74
399.45	226.84
399.82	226.88
400.20	226.90
400.58	226.98
400.95	226.76
401.33	226.96
401.70	227.37
402.08	227.45
402.45	227.52
402.83	227.75
403.20	227.97
403.58	228.04
403.95	228.21
404.33	228.40
404.71	228.57
405.08	228.98
405.46	229.18
405.83	229.37
406.21	229.63
406.58	229.82
406.96	229.96
407.33	230.23
407.70	230.59
408.08	231.22
408.45	231.55
408.83	232.02
409.20	232.30
409.58	232.39
409.95	232.91
410.33	233.38
410.70	233.63
411.08	234.07
411.45	234.58
411.82	235.01
412.20	235.64
412.57	236.52
412.95	236.72
413.32	237.50
413.69	238.21
414.07	238.95
414.44	239.77
414.82	240.65
415.19	241.64
415.56	242.58
415.94	243.37
416.31	244.62
416.68	245.81
417.06	247.20
417.43	248.57
417.81	250.04
418.18	251.56
418.55	253.26
418.93	255.01
419.30	256.74
419.67	258.65
420.04	260.54
420.42	262.42
420.79	264.97
421.16	267.25
421.54	269.91
421.91	272.45
422.28	274.91
422.66	277.64
423.03	280.56
423.40	283.28
423.77	286.24
424.15	289.16
424.52	292.39
424.89	295.85
425.26	299.17
425.64	302.35
426.01	305.85
426.38	309.37
426.75	313.10
427.13	316.89
427.50	320.85
427.87	324.87
428.24	328.93
428.61	332.61
428.99	337.03
429.36	341.46
429.73	345.92
430.10	350.66
430.47	355.41
430.85	359.97
431.22	365.22
431.59	370.87
431.96	376.07
432.33	381.70
432.70	387.31
433.08	393.95
433.45	400.00
433.82	406.21
434.19	413.17
434.56	419.81
434.93	426.18
435.30	432.66
435.68	439.90
436.05	446.95
436.42	454.00
436.79	460.39
437.16	467.21
437.53	474.64
437.90	481.85
438.27	489.04
438.64	496.52
439.01	503.46
439.38	509.27
439.75	515.28
440.13	522.16
440.50	528.33
440.87	533.18
441.24	538.55
441.61	544.25
441.98	548.40
442.35	553.26
442.72	558.42
443.09	563.34
443.46	566.15
443.83	568.07
444.20	569.71
444.57	571.94
444.94	573.02
445.31	574.01
445.68	575.32
446.05	575.45
446.42	574.40
446.79	573.28
447.16	572.12
447.53	571.15
447.90	567.82
448.27	564.80
448.64	560.90
449.01	557.88
449.37	552.83
449.74	547.84
450.11	542.40
450.48	535.99
450.85	529.34
451.22	523.75
451.59	518.25
451.96	513.00
452.33	506.35
452.70	500.31
453.07	493.12
453.43	485.45
453.80	478.49
454.17	471.85
454.54	465.50
454.91	458.69
455.28	451.99
455.65	445.98
456.02	440.40
456.38	435.10
456.75	428.78
457.12	423.41
457.49	418.38
457.86	413.00
458.23	408.69
458.59	403.99
458.96	399.13
459.33	395.02
459.70	390.84
460.07	387.44
460.43	383.60
460.80	379.99
461.17	376.94
461.54	373.73
461.91	370.61
462.27	367.34
462.64	364.62
463.01	361.83
463.38	359.11
463.74	355.74
464.11	353.32
464.48	351.12
464.85	348.65
465.21	346.76
465.58	344.87
465.95	342.49
466.32	340.68
466.68	338.84
467.05	336.98
467.42	335.12
467.78	333.19
468.15	331.36
468.52	330.14
468.88	328.30
469.25	326.64
469.62	325.47
469.98	324.12
470.35	322.95
470.72	321.66
471.08	320.31
471.45	319.36
471.82	318.35
472.18	317.15
472.55	316.45
472.92	315.49
473.28	314.60
473.65	313.79
474.02	312.93
474.38	312.29
474.75	311.75
475.11	311.15
475.48	310.70
475.85	310.25
476.21	309.70
476.58	309.37
476.94	309.12
477.31	308.77
477.67	308.49
478.04	308.30
478.41	308.13
478.77	308.55
479.14	308.32
479.50	308.31
479.87	308.35
480.23	308.36
480.60	308.30
480.96	308.39
481.33	308.86
481.69	309.04
482.06	309.28
482.42	309.50
482.79	309.85
483.15	310.28
483.52	310.98
483.88	311.50
484.25	312.01
484.61	312.58
484.98	313.27
485.34	314.28
485.71	315.10
486.07	316.10
486.44	316.54
486.80	317.55
487.17	318.55
487.53	319.84
487.90	321.26
488.26	322.90
488.62	324.49
488.99	325.82
489.35	327.43
489.72	329.18
490.08	331.07
490.44	332.99
490.81	335.00
491.17	336.94
491.54	339.17
491.90	341.57
492.26	344.01
492.63	346.51
492.99	349.02
493.36	351.90
493.72	354.88
494.08	357.98
494.45	361.30
494.81	364.85
495.17	368.40
495.54	372.08
495.90	375.89
496.26	379.76
496.63	383.91
496.99	388.28
497.35	392.83
497.72	397.64
498.08	402.48
498.44	407.65
498.80	413.00
499.17	418.50
499.53	424.02
499.89	430.07
500.26	436.13
500.62	442.47
500.98	449.00
501.34	455.59
501.71	462.52
502.07	469.51
502.43	476.68
502.79	484.08
503.16	491.72
503.52	499.49
503.88	507.72
504.24	516.28
504.60	525.11
504.97	534.14
505.33	543.10
505.69	552.76
506.05	562.33
506.41	572.24
506.78	582.21
507.14	592.73
507.50	603.16
507.86	613.93
508.22	624.95
508.59	636.16
508.95	647.95
509.31	660.05
509.67	672.21
510.03	684.30
510.39	696.73
510.75	709.54
511.12	722.46
511.48	735.59
511.84	748.87
512.20	762.17
512.56	775.83
512.92	790.02
513.28	804.13
513.64	818.57
514.00	833.02
514.37	847.95
514.73	862.89
515.09	878.33
515.45	893.69
515.81	908.99
516.17	924.50
516.53	939.58
516.89	954.68
517.25	970.67
517.61	987.22
517.97	1003.69
518.33	1019.92
518.69	1036.27
519.05	1052.82
519.41	1069.38
519.77	1086.32
520.13	1102.81
520.49	1119.02
520.85	1136.94
521.21	1153.66
521.57	1170.40
521.93	1186.57
522.29	1203.23
522.65	1219.04
523.01	1235.35
523.37	1250.99
523.73	1267.25
524.09	1283.20
524.45	1299.21
524.81	1314.89
525.17	1330.64
525.53	1346.24
525.89	1361.84
526.25	1377.77
526.61	1393.01
526.97	1408.82
527.33	1424.53
527.68	1440.90
528.04	1456.96
528.40	1471.32
528.76	1486.83
529.12	1502.13
529.48	1517.50
529.84	1532.23
530.20	1547.75
530.56	1562.67
530.91	1578.25
531.27	1592.97
531.63	1607.56
531.99	1622.37
532.35	1636.80
532.71	1651.12
533.07	1665.91
533.42	1679.96
533.78	1693.73
534.14	1707.76
534.50	1720.85
534.86	1734.15
535.21	1745.80
535.57	1758.14
535.93	1769.79
536.29	1781.71
536.65	1793.74
537.00	1805.40
537.36	1816.88
537.72	1827.75
538.08	1838.96
538.44	1849.61
538.79	1859.81
539.15	1870.51
539.51	1880.79
539.87	1890.36
540.22	1898.83
540.58	1907.34
540.94	1915.22
541.29	1922.81
541.65	1929.99
542.01	1937.00
542.37	1942.54
542.72	1948.72
543.08	1954.38
543.44	1961.00
543.79	1966.07
544.15	1971.14
544.51	1976.58
544.87	1981.44
545.22	1985.59
545.58	1988.96
545.94	1991.92
546.29	1994.79
546.65	1997.05
547.01	1998.55
547.36	2000.07
547.72	2001.83
548.07	2002.43
548.43	2003.55
548.79	2004.26
549.14	2004.61
549.50	2005.04
549.86	2005.56
550.21	2005.84
550.57	2005.79
550.92	2004.12
551.28	2002.72
551.64	2001.73
551.99	2000.50
552.35	1999.21
552.70	1998.29
553.06	1997.09
553.41	1995.64
553.77	1994.66
554.13	1993.66
554.48	1992.64
554.84	1991.15
555.19	1989.80
555.55	1988.84
555.90	1986.45
556.26	1983.41
556.61	1980.63
556.97	1976.96
557.32	1974.44
557.68	1971.46
558.03	1968.43
558.39	1965.58
558.74	1962.70
559.10	1958.24
559.45	1953.37
559.81	1948.19
560.16	1942.42
560.52	1937.00
560.87	1932.02
561.23	1925.71
561.58	1919.62
561.94	1912.53
562.29	1905.54
562.64	1898.67
563.00	1890.99
563.35	1884.58
563.71	1878.32
564.06	1871.92
564.42	1865.80
564.77	1859.17
565.12	1852.28
565.48	1845.35
565.83	1838.19
566.19	1830.97
566.54	1824.03
566.89	1817.15
567.25	1810.45
567.60	1804.13
567.96	1797.73
568.31	1790.78
568.66	1783.72
569.02	1776.14
569.37	1769.26
569.72	1762.67
570.08	1754.88
570.43	1746.97
570.78	1739.32
571.14	1731.81
571.49	1723.44
571.84	1715.41
572.20	1706.79
572.55	1698.58
572.90	1689.77
573.26	1681.38
573.61	1672.89
573.96	1664.11
574.31	1654.61
574.67	1645.31
575.02	1635.16
575.37	1625.04
575.72	1614.79
576.08	1605.48
576.43	1595.76
576.78	1585.76
577.13	1575.43
577.49	1565.75
577.84	1556.69
578.19	1547.59
578.54	1538.18
578.90	1529.20
579.25	1520.28
579.60	1510.84
579.95	1501.28
580.30	1491.51
580.66	1481.35
581.01	1471.10
581.36	1460.81
581.71	1451.39
582.06	1441.78
582.42	1432.99
582.77	1423.78
583.12	1415.04
583.47	1405.86
583.82	1397.11
584.17	1388.39
584.53	1379.96
584.88	1370.57
585.23	1360.95
585.58	1350.74
585.93	1341.03
586.28	1331.55
586.63	1321.38
586.98	1311.33
587.34	1301.91
587.69	1292.71
588.04	1283.91
588.39	1275.51
588.74	1267.06
589.09	1258.66
589.44	1249.57
589.79	1240.63
590.14	1232.38
590.49	1223.55
590.84	1214.95
591.19	1206.40
591.54	1197.57
591.89	1188.95
592.25	1181.86
592.60	1173.85
592.95	1166.08
593.30	1157.77
593.65	1149.62
594.00	1141.33
594.35	1134.87
594.70	1126.47
595.05	1118.48
595.40	1110.19
595.75	1101.90
596.10	1093.80
596.45	1085.58
596.80	1078.02
597.15	1070.23
597.50	1061.88
597.85	1054.27
598.19	1046.35
598.54	1038.33
598.89	1030.84
599.24	1023.38
599.59	1015.23
599.94	1007.81
600.29	1000.60
600.64	993.56
600.99	985.91
601.34	979.24
601.69	971.17
602.04	964.53
602.39	957.76
602.74	951.44
603.08	945.04
603.43	938.85
603.78	932.55
604.13	926.12
604.48	919.55
604.83	913.01
605.18	906.29
605.53	900.00
605.87	893.75
606.22	888.05
606.57	881.88
606.92	875.69
607.27	869.89
607.62	864.01
607.96	858.27
608.31	852.83
608.66	847.28
609.01	841.57
609.36	835.90
609.70	830.33
610.05	824.64
610.40	818.95
610.75	813.24
611.10	807.46
611.44	801.59
611.79	796.04
612.14	790.86
612.49	785.69
612.83	780.53
613.18	775.40
613.53	770.13
613.88	764.76
614.22	759.44
614.57	753.87
614.92	748.46
615.27	743.41
615.61	738.21
615.96	732.93
616.31	727.77
616.65	722.91
617.00	717.83
617.35	712.91
617.70	708.14
618.04	703.20
618.39	698.55
618.74	694.45
619.08	689.72
619.43	684.84
619.78	680.07
620.12	675.11
620.47	670.45
620.82	665.47
621.16	660.94
621.51	656.71
621.85	652.43
622.20	647.97
622.55	643.32
622.89	639.16
623.24	634.89
623.59	630.80
623.93	626.51
624.28	622.52
624.62	618.73
624.97	614.83
625.32	610.85
625.66	606.86
626.01	602.55
626.35	598.99
626.70	595.34
627.04	591.63
627.39	587.98
627.73	584.32
628.08	580.86
628.43	577.26
628.77	573.36
629.12	569.67
629.46	566.41
629.81	563.26
630.15	559.90
630.50	556.59
630.84	553.11
631.19	549.83
631.53	546.57
631.88	542.86
632.22	539.26
632.57	536.33
632.91	533.06
633.26	530.11
633.60	526.75
633.95	523.51
634.29	520.29
634.64	517.33
634.98	514.16
635.32	511.23
635.67	508.40
636.01	505.63
636.36	502.83
636.70	500.14
637.05	497.21
637.39	494.42
637.73	491.65
638.08	489.03
638.42	486.27
638.77	483.32
639.11	480.45
639.45	477.59
639.80	474.54
640.14	471.69
640.49	468.93
640.83	466.37
641.17	463.85
641.52	461.44
641.86	458.89
642.20	456.64
642.55	454.06
642.89	451.37
643.23	448.96
643.58	446.81
643.92	444.22
644.26	441.95
644.61	439.68
644.95	437.24
645.29	434.89
645.64	432.65
645.98	430.45
646.32	428.49
646.66	426.35
647.01	424.21
647.35	422.36
647.69	420.34
648.04	418.40
648.38	416.48
648.72	414.34
649.06	412.18
649.41	410.05
649.75	407.97
650.09	406.14
650.43	404.18
650.78	402.08
651.12	400.12
651.46	398.13
651.80	396.21
652.14	394.46
652.49	392.70
652.83	390.87
653.17	389.07
653.51	387.18
653.85	385.64
654.20	383.99
654.54	382.11
654.88	380.29
655.22	378.80
655.56	377.05
655.90	375.50
656.25	374.04
656.59	372.50
656.93	371.07
657.27	369.53
657.61	367.96
657.95	366.48
658.29	364.99
658.64	363.66
658.98	362.17
659.32	360.54
659.66	359.00
660.00	357.65
660.34	356.27
660.68	354.96
661.02	353.52
661.36	352.20
661.70	350.96
662.05	349.75
662.39	348.32
662.73	347.23
663.07	346.14
663.41	344.88
663.75	343.62
664.09	342.29
664.43	341.05
664.77	339.95
665.11	338.67
665.45	337.51
665.79	336.30
666.13	335.11
666.47	333.95
666.81	332.82
667.15	331.52
667.49	330.53
667.83	329.60
668.17	328.54
668.51	327.46
668.85	326.54
669.19	325.69
669.53	324.62
669.87	323.46
670.21	322.29
670.55	321.37
670.89	320.59
671.23	319.66
671.57	318.67
671.91	317.74
672.25	316.78
672.58	315.90
672.92	314.91
673.26	314.09
673.60	313.33
673.94	312.55
674.28	311.85
674.62	311.00
674.96	310.06
675.30	309.27
675.64	308.45
675.97	307.56
676.31	306.56
676.65	305.74
676.99	305.17
677.33	304.41
677.67	303.53
678.01	302.51
678.34	301.77
678.68	301.19
679.02	300.33
679.36	299.65
679.70	298.94
680.04	298.10
680.37	297.30
680.71	296.59
681.05	295.92
681.39	295.25
681.73	294.57
682.06	293.87
682.40	293.17
682.74	292.61
683.08	292.20
683.42	291.52
683.75	290.91
684.09	290.10
684.43	289.49
684.77	288.89
685.10	288.36
685.44	287.81
685.78	287.21
686.12	286.68
686.45	286.04
686.79	285.46
687.13	285.09
687.46	284.54
687.80	284.13
688.14	283.56
688.48	283.01
688.81	282.42
689.15	281.94
689.49	281.42
689.82	280.89
690.16	280.05
690.50	279.61
690.83	279.09
691.17	278.50
691.51	278.07
691.84	277.65
692.18	277.14
692.52	276.63
692.85	276.10
693.19	275.90
693.52	275.52
693.86	275.04
694.20	274.58
694.53	274.22
694.87	273.63
695.21	273.16
695.54	272.59
695.88	272.18
696.21	271.59
696.55	271.13
696.88	270.62
697.22	270.34
697.56	269.97
697.89	269.50
698.23	269.15
698.56	268.62
698.90	268.30
699.23	267.86
699.57	267.48
699.90	267.01
700.24	266.41
700.58	266.13
700.91	265.76
701.25	265.73
701.58	265.77
701.92	265.54
702.25	265.18
702.59	264.91
702.92	264.57
703.26	264.32
703.59	264.05
703.93	264.20
704.26	263.78
704.60	263.47
704.93	263.08
705.26	262.74
705.60	262.63
705.93	262.15
706.27	262.00
706.60	261.84
706.94	261.77
707.27	261.42
707.61	261.13
707.94	260.88
708.27	260.24
708.61	259.45
708.94	259.10
709.28	258.82
709.61	258.46
709.94	258.17
710.28	257.93
710.61	257.72
710.95	257.02
711.28	257.10
711.61	256.66
711.95	256.58
712.28	256.21
712.61	255.82
712.95	255.88
713.28	255.80
713.61	255.40
713.95	254.98
714.28	254.83
714.61	254.49
714.95	254.12
715.28	253.75
715.61	253.49
715.95	253.23
716.28	252.90
716.61	252.72
716.95	252.46
717.28	252.20
717.61	251.81
717.94	251.51
718.28	250.96
718.61	250.76
718.94	250.45
719.27	250.24
719.61	250.09
719.94	249.64
720.27	249.14
720.60	248.89
720.94	248.71
721.27	248.47
721.60	248.31
721.93	248.19
722.27	248.14
722.60	248.04
722.93	247.72
723.26	247.61
723.59	247.40
723.93	247.27
724.26	247.12
724.59	247.04
724.92	246.93
725.25	246.82
725.59	246.63
725.92	246.47
726.25	246.36
726.58	246.17
726.91	246.00
727.24	245.90
727.57	245.72
727.91	245.40
728.24	245.25
728.57	245.04
728.90	244.90
729.23	244.64
729.56	244.77
729.89	244.69
730.22	244.50
730.55	244.30
730.89	244.09
731.22	243.91
731.55	243.60
731.88	243.48
732.21	243.27
732.54	243.18
732.87	242.98
733.20	242.87
733.53	242.70
733.86	242.58
734.19	242.36
734.52	242.33
734.85	242.56
735.18	242.33
735.51	242.37
735.84	242.18
736.17	242.19
736.50	241.73
736.83	242.13
737.16	242.02
737.49	241.94
737.82	241.80
738.15	241.73
738.48	241.78
738.81	241.52
739.14	241.39
739.47	241.16
739.80	241.08
740.13	240.99
740.46	240.73
740.79	240.53
741.12	240.42
741.45	240.26
741.78	239.91
742.11	239.95
742.44	239.74
742.77	239.70
743.10	239.44
743.43	239.25
743.75	238.64
744.08	239.11
744.41	238.97
744.74	238.83
745.07	238.55
745.40	238.48
745.73	238.60
746.06	238.42
746.39	238.41
746.71	238.25
747.04	238.06
747.37	237.98
747.70	237.99
748.03	237.90
748.36	237.74
748.68	237.62
749.01	237.31
749.34	237.22
749.67	237.17
750.00	237.13
750.33	237.52
750.65	237.50
750.98	236.81
751.31	236.70
751.64	236.56
751.97	236.75
752.29	236.55
752.62	236.25
752.95	236.11
753.28	235.92
753.60	235.85
753.93	235.90
754.26	235.89
754.59	235.62
754.91	235.44
755.24	235.37
755.57	235.28
755.90	235.26
756.22	235.11
756.55	234.90
756.88	234.72
757.20	234.28
757.53	234.01
757.86	233.96
758.19	233.91
758.51	233.92
758.84	233.56
759.17	233.51
759.49	233.47
759.82	233.77
760.15	233.78
760.47	233.74
760.80	233.45
761.13	233.45
761.45	233.37
761.78	233.35
762.11	233.30
762.43	233.16
762.76	233.00
763.08	233.00
763.41	233.00
763.74	232.98
764.06	232.87
764.39	232.85
764.71	232.78
765.04	232.72
765.37	232.55
765.69	232.54
766.02	232.46
766.34	232.36
766.67	232.05
767.00	232.04
767.32	232.18
767.65	232.52
767.97	232.41
768.30	232.41
768.62	232.36
768.95	232.22
769.27	232.15
769.60	232.23
769.92	232.06
770.25	231.93
770.57	231.80
770.90	231.65
771.22	231.59
771.55	231.50
771.87	231.43
772.20	231.42
772.52	231.81
772.85	232.34
773.17	232.32
773.50	232.28
773.82	232.19
774.15	231.99
774.47	231.60
774.80	231.43
775.12	231.36
775.45	231.31
775.77	231.31
776.09	231.23
776.42	231.21
776.74	231.31
777.07	231.27
777.39	231.23
777.72	231.25
778.04	231.30
778.36	231.22
778.69	231.22
779.01	231.19
779.33	230.74
779.66	230.15
779.98	230.06
780.31	229.96
780.63	230.11
780.95	230.05
781.28	230.01
781.60	230.01
781.92	230.00
782.25	230.00
782.57	229.94
782.89	229.92
783.22	229.83
783.54	229.72
783.86	229.70
784.19	229.67
784.51	229.74
784.83	229.69
785.16	229.64
785.48	229.68
785.80	229.66
786.12	229.60
786.45	229.52
786.77	229.57
787.09	229.56
787.42	229.34
787.74	229.39
788.06	229.36
788.38	229.32
788.71	229.26
789.03	229.28
789.35	229.34
789.67	229.28
789.99	229.32
790.32	229.27
790.64	229.27
790.96	229.65
791.28	229.48
791.61	229.32
791.93	229.30
792.25	229.24
792.57	229.60
792.89	229.54
793.21	229.55
793.54	229.41
793.86	229.35
794.18	229.35
794.50	229.23
794.82	229.26
795.14	229.30
795.47	229.39
795.79	229.32
796.11	229.19
796.43	229.14
796.75	229.05
797.07	229.02
797.39	229.00
797.71	228.55
798.04	228.47
798.36	228.49
798.68	228.50
799.00	228.42
799.32	228.10
799.64	228.16
799.96	228.20
800.28	228.30
800.60	228.31
800.92	228.30
801.24	228.27
801.56	228.30
801.89	228.25
802.21	228.27
802.53	228.20
802.85	228.32
803.17	228.57
803.49	228.50
803.81	228.51
804.13	228.42
804.45	228.41
804.77	228.48
805.09	228.49
805.41	228.41
805.73	228.40
806.05	228.29
806.37	228.26
806.69	228.14
807.01	228.13
807.33	228.08
807.65	227.96
807.97	228.18
808.28	228.05
808.60	228.05
808.92	227.95
809.24	228.26
809.56	228.17
809.88	227.98
810.20	228.04
810.52	228.08
810.84	228.11
811.16	228.06
811.48	228.06
811.80	228.18
812.12	228.20
812.43	228.26
812.75	228.25
813.07	228.15
813.39	228.25
813.71	228.11
814.03	228.11
814.35	228.09
814.67	227.84
814.98	227.83
815.30	227.85
815.62	227.74
815.94	227.46
816.26	227.71
816.58	227.70
816.89	227.75
817.21	227.63
817.53	227.55
817.85	227.59
818.17	227.63
818.48	227.47
818.80	227.59
819.12	227.48
819.44	227.47
819.76	227.49
820.07	227.40
820.39	227.44
820.71	227.45
821.03	227.50
821.34	227.50
821.66	227.57
821.98	227.61
822.30	227.66
822.61	227.94
822.93	227.69
823.25	227.56
823.57	227.43
823.88	227.57
824.20	227.70
824.52	227.75
824.83	227.76
825.15	227.71
825.47	227.59
825.79	227.65
826.10	227.58
826.42	227.58
826.74	227.66
827.05	227.63
827.37	227.62
827.69	227.54
828.00	227.47
828.32	227.47
828.64	227.40
828.95	227.59
829.27	227.36
829.58	227.24
829.90	227.34
830.22	227.40
830.53	227.19
830.85	227.13
831.17	227.09
831.48	227.00
831.80	227.02
832.11	227.01
832.43	226.93
832.75	226.98
833.06	227.25
833.38	227.10
833.69	227.06
834.01	227.12
834.32	227.11
834.64	227.13
834.96	227.10
835.27	227.11
835.59	227.01
835.90	227.00
836.22	227.10
836.53	227.01
836.85	226.93
837.16	227.45
837.48	227.45
837.79	227.50
838.11	227.59
838.42	227.58
838.74	227.68
839.05	227.64
839.37	227.64
839.68	227.30
840.00	227.34
840.31	227.39
840.63	227.27
840.94	227.26
841.26	227.22
841.57	227.15
841.88	227.19
842.20	227.10
842.51	227.00
842.83	226.94
843.14	227.33
843.46	227.35
843.77	227.00
844.08	226.97
844.40	226.86
844.71	226.71
845.03	226.65
845.34	226.57
845.65	226.57
845.97	226.46
846.28	226.45
846.60	226.45
846.91	226.37
847.22	226.40
847.54	226.50
847.85	226.51
848.16	226.49
848.48	226.28
848.79	226.40
849.10	226.51
849.42	226.55
849.73	226.15
850.04	226.15
850.36	225.99
850.67	226.03
850.98	226.08
851.30	226.14
851.61	226.13
851.92	226.12
852.23	226.23
852.55	226.33
852.86	226.26
853.17	226.28
853.49	226.38
853.80	226.50
854.11	226.55
854.42	226.67
854.74	226.58
855.05	226.65
855.36	226.44
855.67	226.41
855.99	226.42
856.30	227.00
856.61	226.94
856.92	227.06
857.23	227.06
857.55	226.95
857.86	227.03
858.17	227.10
858.48	227.00
858.79	226.96
859.11	227.03
859.42	227.14
859.73	227.10
860.04	227.10
860.35	226.86
860.66	226.65
860.98	226.65
861.29	226.79
861.60	226.75
861.91	226.83
862.22	226.75
862.53	226.64
862.84	226.05
863.16	226.25
863.47	226.12
863.78	226.09
864.09	226.08
864.40	226.05
864.71	226.10
865.02	226.22
865.33	226.10
865.64	226.00
865.95	225.96
866.27	226.25
866.58	226.24
866.89	226.43
867.20	226.41
867.51	226.28
867.82	226.25
868.13	226.45
868.44	226.38
868.75	226.44
869.06	226.52
869.37	226.61
869.68	226.41
869.99	226.47
870.30	226.49
870.61	226.66
870.92	226.58
871.23	226.50
871.54	226.59
871.85	226.72
872.16	226.79
872.47	226.75
872.78	226.49
873.09	226.50
873.40	226.37
873.71	226.41
874.02	226.41
874.33	226.37
874.64	226.31
874.95	226.41
875.26	226.30
875.56	226.25
875.87	226.15
876.18	226.16
876.49	226.67
876.80	226.57
877.11	226.45
877.42	226.48
877.73	226.51
878.04	226.42
878.35	226.44
878.66	226.40
878.96	226.44
879.27	226.43
879.58	226.42
879.89	226.39
880.20	226.50
880.51	226.55
880.82	226.51
881.12	226.40
881.43	226.20
881.74	226.18
882.05	226.21
882.36	226.25
882.67	226.27
882.97	225.72
883.28	225.73
883.59	225.73
883.90	225.69
884.21	225.83
884.51	225.81
884.82	225.74
885.13	225.75
885.44	225.68
885.74	225.65
886.05	225.62
886.36	225.65
886.67	225.52
886.98	225.73
887.28	225.81
887.59	225.85
887.90	225.93
888.20	225.94
888.51	226.04
888.82	226.00
889.13	226.08
889.43	226.47
889.74	226.46
890.05	226.45
890.35	226.51
890.66	226.37
890.97	226.28
891.28	226.21
891.58	226.19
891.89	226.22
892.20	226.17
892.50	226.14
892.81	226.13
893.12	226.14
893.42	225.85
893.73	225.82
894.04	225.83
894.34	225.88
894.65	225.87
894.95	225.76
895.26	225.77
895.57	225.92
895.87	225.42
896.18	225.48
896.48	225.54
896.79	225.52
897.10	225.55
897.40	225.65
897.71	225.74
898.01	225.70
898.32	225.77
898.63	225.80
898.93	225.87
899.24	225.85
899.54	225.80
899.85	225.82
900.15	225.85
900.46	225.81
900.76	225.84
901.07	225.85
901.38	225.83
901.68	225.90
901.99	225.69
902.29	225.80
902.60	225.73
902.90	225.65
903.21	225.63
903.51	225.62
903.82	225.69
904.12	225.71
904.43	225.72
904.73	225.70
905.03	225.73
905.34	226.17
905.64	226.12
905.95	226.20
906.25	226.22
906.56	226.25
906.86	226.21
907.17	226.14
907.47	226.25
907.77	226.21
908.08	226.08
908.38	226.07
908.69	226.09
908.99	226.17
909.30	226.23
909.60	226.12
909.90	226.11
910.21	225.89
910.51	225.77
910.81	225.76
911.12	225.76
911.42	225.72
911.73	225.22
912.03	225.32
912.33	225.36
912.64	225.40
912.94	225.36
913.24	225.32
913.55	225.31
913.85	225.17
914.15	225.35
914.46	225.44
914.76	225.40
915.06	225.34
915.37	225.27
915.67	225.21
915.97	225.33
916.27	225.25
916.58	225.31
916.88	225.30
917.18	225.28
917.49	225.62
917.79	225.58
918.09	225.56
918.39	225.73
918.70	225.72
919.00	225.69
919.30	225.82
919.60	225.82
919.91	225.70
920.21	225.76
920.51	225.58
920.81	225.56
921.12	225.67
921.42	225.56
921.72	225.60
922.02	225.62
922.32	225.67
922.63	225.73
922.93	225.99
923.23	226.08
923.53	226.08
923.83	225.73
924.13	225.81
924.44	225.90
924.74	225.89
925.04	226.00
925.34	225.98
925.64	225.83
925.94	225.85
926.24	226.22
926.55	226.19
926.85	226.31
927.15	226.24
927.45	226.18
927.75	226.33
928.05	226.33
928.35	226.33
928.65	226.39
928.95	226.43
929.26	226.24
929.56	226.31
929.86	226.36
930.16	226.37
930.46	226.34
930.76	226.37
931.06	226.17
931.36	226.03
931.66	226.13
931.96	226.16
932.26	226.28
932.56	226.10
932.86	226.09
933.16	226.07
933.46	226.06
933.76	226.11
934.06	226.20
934.36	226.47
934.66	226.40
934.96	226.28
935.26	226.27
935.56	226.37
935.86	226.19
936.16	226.10
936.46	226.08
936.76	226.04
937.06	225.96
937.36	226.02
937.66	226.06
937.96	226.00
938.26	225.87
938.56	225.76
938.86	225.79
939.16	225.98
939.46	226.02
939.76	226.06
940.06	225.98
940.35	225.92
940.65	225.64
940.95	225.70
941.25	225.60
941.55	225.56
941.85	225.46
942.15	225.60
942.45	225.75
942.75	225.70
943.04	225.85
943.34	225.94
943.64	225.91
943.94	225.82
944.24	225.80
944.54	225.97
944.84	226.02
945.13	225.89
945.43	225.70
945.73	225.71
946.03	225.67
946.33	225.60
946.62	225.49
946.92	225.40
947.22	225.42
947.52	225.49
947.82	225.52
948.11	225.44
948.41	225.32
948.71	225.14
949.01	225.13
949.31	224.97
949.60	224.95
949.90	225.00
950.20	224.98
950.50	224.98
950.79	224.81
951.09	224.82
951.39	224.85
951.69	224.83
951.98	224.88
952.28	224.89
952.58	224.89
952.87	224.91
953.17	225.03
953.47	225.02
953.76	225.07
954.06	224.92
954.36	224.91
954.66	224.92
954.95	225.07
955.25	225.13
955.55	225.13
955.84	225.02
956.14	225.05
956.44	225.11
956.73	225.04
957.03	225.16
957.32	225.14
957.62	225.10
957.92	225.24
958.21	225.21
958.51	225.78
958.81	225.85
959.10	225.89
959.40	226.01
959.69	226.02
959.99	226.02
960.29	226.12
960.58	226.10
960.88	226.35
961.17	226.34
961.47	226.38
961.76	226.42
962.06	226.48
962.36	226.43
962.65	226.45
962.95	226.49
963.24	226.39
963.54	226.39
963.83	226.48
964.13	226.44
964.42	226.23
964.72	225.80
965.01	225.76
965.31	225.74
965.60	225.61
965.90	225.85
966.19	225.81
966.49	225.88
966.78	225.90
967.08	225.80
967.37	225.84
967.67	225.73
967.96	225.77
968.26	225.78
968.55	225.77
968.85	225.74
969.14	225.75
969.43	225.77
969.73	225.82
970.02	225.75
970.32	225.76
970.61	225.82
970.91	225.66
971.20	225.68
971.49	225.69
971.79	225.76
972.08	225.54
972.38	225.57
972.67	225.51
972.96	225.62
973.26	225.54
973.55	225.65
973.85	225.70
974.14	225.67
974.43	225.74
974.73	225.67
975.02	225.63
975.31	225.65
975.61	225.62
975.90	225.58
976.19	225.55
976.49	225.50
976.78	225.53
977.07	225.62
977.37	225.65
977.66	225.73
977.95	225.59
978.24	225.57
978.54	225.62
978.83	225.62
979.12	225.54
979.42	225.57
979.71	225.45
980.00	225.38
980.29	225.43
980.59	225.29
980.88	225.47
981.17	225.49
981.46	225.48
981.76	225.54
982.05	225.66
982.34	225.68
982.63	225.71
982.93	225.70
983.22	225.86
983.51	225.80
983.80	225.82
984.09	225.93
984.39	225.86
984.68	225.84
984.97	225.89
985.26	225.88
985.55	225.87
985.85	225.75
986.14	225.88
986.43	225.93
986.72	225.96
987.01	225.76
987.30	225.75
987.59	225.69
987.89	225.67
988.18	225.49
988.47	225.49
988.76	225.44
989.05	225.42
989.34	225.33
989.63	225.47
989.92	225.37
990.22	225.27
990.51	225.33
990.80	225.30
991.09	225.27
991.38	225.34
991.67	225.22
991.96	225.20
992.25	225.17
992.54	225.07
992.83	225.03
993.12	225.03
993.41	225.12
993.70	225.34
993.99	225.47
994.28	225.50
994.58	225.57
994.87	225.55
995.16	225.60
995.45	225.47
995.74	225.22
996.03	225.30
996.32	225.41
996.61	225.55
996.90	225.54
997.19	225.53
997.48	225.52
997.77	225.52
998.06	225.55
998.34	225.53
998.63	225.53
998.92	225.58
999.21	225.68
999.50	225.73
999.79	225.51
1000.08	225.45
1000.37	225.48
1000.66	225.42
1000.95	225.51
1001.24	225.47
1001.53	225.62
1001.82	225.74
1002.11	225.58
1002.40	225.64
1002.68	225.71
1002.97	226.01
1003.26	225.87
1003.55	225.80
1003.84	225.89
1004.13	226.09
1004.42	226.12
1004.71	226.11
1004.99	226.05
1005.28	226.16
1005.57	226.04
1005.86	226.05
1006.15	226.00
1006.44	225.92
1006.72	225.94
1007.01	225.93
1007.30	225.92
1007.59	225.81
1007.88	225.81
1008.17	225.90
1008.45	225.80
1008.74	225.58
1009.03	225.37
1009.32	225.51
1009.60	225.50
1009.89	225.41
1010.18	225.20
1010.47	225.10
1010.76	225.09
1011.04	225.12
1011.33	225.11
1011.62	225.24
1011.91	225.37
1012.19	225.37
1012.48	225.41
1012.77	225.44
1013.05	225.65
1013.34	225.67
1013.63	225.64
1013.92	225.62
1014.20	225.64
1014.49	225.66
1014.78	225.69
1015.06	225.55
1015.35	225.46
1015.64	225.56
1015.92	225.65
1016.21	225.72
1016.50	225.74
1016.78	225.80
1017.07	225.83
1017.36	225.71
1017.64	225.59
1017.93	225.56
1018.22	225.58
1018.50	225.54
1018.79	225.52
1019.08	225.25
1019.36	225.30
1019.65	225.28
1019.93	225.45
1020.22	225.41
1020.51	225.59
1020.79	225.54
1021.08	225.25
1021.36	224.10
1021.65	225.20
1021.94	224.75
1022.22	226.20
1022.51	224.15
1022.79	228.00
1023.08	224.85
1023.36	230.55
1023.65	224.15
>>>>>End Processed Spectral Data<<<<<
