SpectraSuite Data File
++++++++++++++++++++++++++++++++++++
Date: Wed Sep 04 17:39:59 EDT 2013
User: lab3
Dark Spectrum Present: Yes
Reference Spectrum Present: No
Number of Sampled Component Spectra: 1
Spectrometers: USB2E7196
Integration Time (usec): 170000 (USB2E7196)
Spectra Averaged: 20 (USB2E7196)
Boxcar Smoothing: 10 (USB2E7196)
Correct for Electrical Dark: No (USB2E7196)
Strobe/Lamp Enabled: No (USB2E7196)
Correct for Detector Non-linearity: No (USB2E7196)
Correct for Stray Light: No (USB2E7196)
Number of Pixels in Processed Spectrum: 2048
>>>>>Begin Processed Spectral Data<<<<<
339.09	0.00
339.48	212.65
339.86	214.85
340.24	215.15
340.63	216.95
341.01	226.50
341.39	218.40
341.78	222.50
342.16	222.60
342.54	222.60
342.93	212.03
343.31	222.66
343.69	223.23
344.07	223.67
344.46	224.14
344.84	224.49
345.22	224.34
345.60	224.71
345.99	224.88
346.37	225.00
346.75	225.10
347.13	225.12
347.52	225.14
347.90	225.34
348.28	225.32
348.66	225.41
349.05	225.25
349.43	225.24
349.81	225.35
350.19	225.33
350.57	225.42
350.96	225.50
351.34	225.64
351.72	225.69
352.10	225.79
352.48	225.78
352.87	225.86
353.25	225.99
353.63	226.02
354.01	226.03
354.39	226.13
354.77	226.20
355.15	226.44
355.54	226.46
355.92	226.30
356.30	226.39
356.68	226.76
357.06	226.83
357.44	226.95
357.82	226.93
358.20	227.43
358.58	227.51
358.97	227.60
359.35	227.80
359.73	227.93
360.11	227.95
360.49	228.14
360.87	228.22
361.25	228.31
361.63	228.50
362.01	228.58
362.39	228.56
362.77	228.63
363.15	228.61
363.53	228.72
363.91	228.83
364.29	228.81
364.67	228.40
365.05	228.41
365.43	228.45
365.81	228.58
366.19	228.35
366.57	228.46
366.95	228.39
367.33	228.23
367.71	228.19
368.09	228.37
368.47	228.33
368.85	228.25
369.23	228.35
369.61	228.15
369.99	228.29
370.37	228.43
370.75	228.69
371.13	228.60
371.51	228.45
371.89	228.51
372.27	228.59
372.65	228.62
373.03	228.60
373.41	228.56
373.78	228.55
374.16	228.32
374.54	228.19
374.92	228.19
375.30	228.22
375.68	228.12
376.06	228.06
376.44	227.99
376.82	227.99
377.19	227.85
377.57	227.77
377.95	227.56
378.33	227.40
378.71	226.99
379.09	227.02
379.47	226.98
379.84	226.84
380.22	226.66
380.60	226.57
380.98	226.50
381.36	226.41
381.73	226.20
382.11	226.28
382.49	226.21
382.87	226.05
383.25	225.95
383.62	226.40
384.00	226.22
384.38	226.10
384.76	226.20
385.13	226.34
385.51	226.34
385.89	226.15
386.27	226.04
386.64	226.14
387.02	226.06
387.40	226.02
387.78	226.01
388.15	226.07
388.53	225.97
388.91	225.98
389.29	225.91
389.66	226.01
390.04	225.87
390.42	225.96
390.79	226.01
391.17	225.97
391.55	225.41
391.92	225.39
392.30	225.45
392.68	225.28
393.05	225.27
393.43	225.33
393.81	225.43
394.18	225.45
394.56	225.43
394.94	225.56
395.31	225.55
395.69	225.72
396.06	225.81
396.44	225.92
396.82	225.90
397.19	226.21
397.57	226.17
397.95	226.31
398.32	226.22
398.70	226.30
399.07	226.49
399.45	226.60
399.82	226.72
400.20	226.74
400.58	226.85
400.95	226.78
401.33	226.93
401.70	227.39
402.08	227.50
402.45	227.62
402.83	227.78
403.20	228.01
403.58	228.03
403.95	228.24
404.33	228.40
404.71	228.63
405.08	228.96
405.46	229.09
405.83	229.33
406.21	229.51
406.58	229.80
406.96	229.98
407.33	230.28
407.70	230.53
408.08	231.27
408.45	231.60
408.83	231.96
409.20	232.24
409.58	232.26
409.95	232.73
410.33	233.18
410.70	233.40
411.08	233.96
411.45	234.46
411.82	234.89
412.20	235.54
412.57	236.37
412.95	236.63
413.32	237.45
413.69	238.15
414.07	238.92
414.44	239.73
414.82	240.65
415.19	241.61
415.56	242.51
415.94	243.31
416.31	244.52
416.68	245.73
417.06	247.05
417.43	248.54
417.81	249.97
418.18	251.50
418.55	253.18
418.93	254.83
419.30	256.57
419.67	258.52
420.04	260.42
420.42	262.33
420.79	264.95
421.16	267.18
421.54	269.68
421.91	272.18
422.28	274.65
422.66	277.30
423.03	280.26
423.40	283.22
423.77	286.14
424.15	289.14
424.52	292.31
424.89	295.78
425.26	299.02
425.64	302.16
426.01	305.52
426.38	309.14
426.75	312.82
427.13	316.66
427.50	320.55
427.87	324.60
428.24	328.66
428.61	332.29
428.99	336.84
429.36	341.46
429.73	346.06
430.10	350.73
430.47	355.41
430.85	360.00
431.22	365.06
431.59	370.83
431.96	375.95
432.33	381.55
432.70	387.10
433.08	393.64
433.45	399.84
433.82	405.95
434.19	412.75
434.56	419.62
434.93	426.04
435.30	432.40
435.68	439.55
436.05	446.56
436.42	453.53
436.79	459.85
437.16	466.69
437.53	473.99
437.90	481.18
438.27	488.42
438.64	495.80
439.01	502.79
439.38	508.57
439.75	514.58
440.13	521.52
440.50	527.80
440.87	532.92
441.24	538.33
441.61	544.26
441.98	548.43
442.35	553.26
442.72	558.19
443.09	563.23
443.46	566.05
443.83	568.01
444.20	569.80
444.57	572.16
444.94	573.07
445.31	574.08
445.68	575.48
446.05	575.67
446.42	574.58
446.79	573.49
447.16	572.36
447.53	571.33
447.90	568.22
448.27	565.33
448.64	561.27
449.01	558.27
449.37	553.12
449.74	548.21
450.11	542.66
450.48	536.37
450.85	529.61
451.22	524.03
451.59	518.70
451.96	513.41
452.33	506.70
452.70	500.68
453.07	493.52
453.43	485.94
453.80	479.08
454.17	472.60
454.54	466.23
454.91	459.37
455.28	452.85
455.65	446.65
456.02	441.12
456.38	435.81
456.75	429.35
457.12	423.97
457.49	418.86
457.86	413.38
458.23	409.11
458.59	404.39
458.96	399.66
459.33	395.23
459.70	391.10
460.07	387.68
460.43	383.74
460.80	380.19
461.17	376.99
461.54	373.57
461.91	370.41
462.27	367.07
462.64	364.43
463.01	361.41
463.38	358.73
463.74	355.18
464.11	352.84
464.48	350.70
464.85	348.32
465.21	346.51
465.58	344.61
465.95	342.25
466.32	340.49
466.68	338.54
467.05	336.85
467.42	334.99
467.78	333.11
468.15	331.48
468.52	330.18
468.88	328.34
469.25	326.71
469.62	325.58
469.98	324.26
470.35	322.98
470.72	321.69
471.08	320.27
471.45	319.24
471.82	318.15
472.18	316.90
472.55	316.19
472.92	315.16
473.28	314.36
473.65	313.40
474.02	312.58
474.38	311.94
474.75	311.34
475.11	310.63
475.48	310.09
475.85	309.59
476.21	309.02
476.58	308.75
476.94	308.54
477.31	308.20
477.67	307.98
478.04	307.77
478.41	307.80
478.77	308.15
479.14	307.89
479.50	307.92
479.87	308.01
480.23	308.03
480.60	307.99
480.96	308.07
481.33	308.53
481.69	308.74
482.06	309.05
482.42	309.42
482.79	309.90
483.15	310.34
483.52	310.97
483.88	311.48
484.25	312.02
484.61	312.72
484.98	313.36
485.34	314.24
485.71	315.14
486.07	316.12
486.44	316.74
486.80	317.89
487.17	318.98
487.53	320.31
487.90	321.66
488.26	323.37
488.62	324.97
488.99	326.40
489.35	328.14
489.72	329.83
490.08	331.62
490.44	333.38
490.81	335.50
491.17	337.52
491.54	339.83
491.90	342.22
492.26	344.54
492.63	347.05
492.99	349.65
493.36	352.48
493.72	355.44
494.08	358.55
494.45	361.96
494.81	365.44
495.17	368.95
495.54	372.81
495.90	376.53
496.26	380.59
496.63	384.80
496.99	389.11
497.35	393.65
497.72	398.37
498.08	403.35
498.44	408.55
498.80	414.04
499.17	419.53
499.53	425.11
499.89	431.08
500.26	437.19
500.62	443.49
500.98	450.03
501.34	456.63
501.71	463.44
502.07	470.38
502.43	477.69
502.79	485.17
503.16	492.71
503.52	500.68
503.88	508.62
504.24	517.15
504.60	525.83
504.97	534.98
505.33	544.05
505.69	553.71
506.05	563.10
506.41	572.82
506.78	582.87
507.14	593.23
507.50	603.92
507.86	614.86
508.22	626.01
508.59	637.24
508.95	649.01
509.31	661.21
509.67	673.37
510.03	685.35
510.39	697.80
510.75	710.64
511.12	723.65
511.48	736.69
511.84	749.90
512.20	763.37
512.56	776.95
512.92	790.90
513.28	804.80
513.64	819.25
514.00	833.87
514.37	848.34
514.73	863.38
515.09	878.40
515.45	893.47
515.81	908.59
516.17	923.95
516.53	939.11
516.89	954.22
517.25	969.97
517.61	986.29
517.97	1002.80
518.33	1018.98
518.69	1035.09
519.05	1051.74
519.41	1068.40
519.77	1085.35
520.13	1101.80
520.49	1118.19
520.85	1136.08
521.21	1152.76
521.57	1169.20
521.93	1185.62
522.29	1202.34
522.65	1218.60
523.01	1234.91
523.37	1251.02
523.73	1267.58
524.09	1283.45
524.45	1299.45
524.81	1315.36
525.17	1331.36
525.53	1347.02
525.89	1362.90
526.25	1378.78
526.61	1393.90
526.97	1409.81
527.33	1425.72
527.68	1442.13
528.04	1458.25
528.40	1472.65
528.76	1487.73
529.12	1503.07
529.48	1518.48
529.84	1532.93
530.20	1548.38
530.56	1563.43
530.91	1578.56
531.27	1592.75
531.63	1607.50
531.99	1622.16
532.35	1636.54
532.71	1650.70
533.07	1665.07
533.42	1678.86
533.78	1692.70
534.14	1707.01
534.50	1719.83
534.86	1732.91
535.21	1744.51
535.57	1756.93
535.93	1768.74
536.29	1780.92
536.65	1792.99
537.00	1804.67
537.36	1816.39
537.72	1827.11
538.08	1838.44
538.44	1849.31
538.79	1860.14
539.15	1870.76
539.51	1881.08
539.87	1890.60
540.22	1899.03
540.58	1907.94
540.94	1915.79
541.29	1923.17
541.65	1930.24
542.01	1937.58
542.37	1943.12
542.72	1949.34
543.08	1954.90
543.44	1961.28
543.79	1966.48
544.15	1971.54
544.51	1976.82
544.87	1981.73
545.22	1985.65
545.58	1988.54
545.94	1991.33
546.29	1993.80
546.65	1996.01
547.01	1997.50
547.36	1998.89
547.72	2000.77
548.07	2001.00
548.43	2002.50
548.79	2003.02
549.14	2003.59
549.50	2003.91
549.86	2004.40
550.21	2004.37
550.57	2004.42
550.92	2003.04
551.28	2001.48
551.64	2000.56
551.99	1999.32
552.35	1997.75
552.70	1996.81
553.06	1995.84
553.41	1994.67
553.77	1993.65
554.13	1992.40
554.48	1991.10
554.84	1989.88
555.19	1988.36
555.55	1987.54
555.90	1984.67
556.26	1982.15
556.61	1978.86
556.97	1974.98
557.32	1972.23
557.68	1969.62
558.03	1966.40
558.39	1962.95
558.74	1960.42
559.10	1956.05
559.45	1951.40
559.81	1946.27
560.16	1940.60
560.52	1935.24
560.87	1929.96
561.23	1924.08
561.58	1918.31
561.94	1911.72
562.29	1904.60
562.64	1897.72
563.00	1889.90
563.35	1883.57
563.71	1877.16
564.06	1870.81
564.42	1864.58
564.77	1858.15
565.12	1850.96
565.48	1844.35
565.83	1837.64
566.19	1830.39
566.54	1823.42
566.89	1816.14
567.25	1809.44
567.60	1803.17
567.96	1796.41
568.31	1789.26
568.66	1781.62
569.02	1773.69
569.37	1766.69
569.72	1760.16
570.08	1752.29
570.43	1744.42
570.78	1736.61
571.14	1728.95
571.49	1720.92
571.84	1713.15
572.20	1704.57
572.55	1696.52
572.90	1687.28
573.26	1678.97
573.61	1670.10
573.96	1661.07
574.31	1651.71
574.67	1642.33
575.02	1632.48
575.37	1622.58
575.72	1612.41
576.08	1603.12
576.43	1593.65
576.78	1583.44
577.13	1573.22
577.49	1563.58
577.84	1554.70
578.19	1545.65
578.54	1536.08
578.90	1526.95
579.25	1517.56
579.60	1508.18
579.95	1498.47
580.30	1488.96
580.66	1478.86
581.01	1469.00
581.36	1458.80
581.71	1449.65
582.06	1440.15
582.42	1430.86
582.77	1421.66
583.12	1412.93
583.47	1404.04
583.82	1395.22
584.17	1386.49
584.53	1377.79
584.88	1368.35
585.23	1358.65
585.58	1348.66
585.93	1339.26
586.28	1329.64
586.63	1319.68
586.98	1309.32
587.34	1300.12
587.69	1290.61
588.04	1281.78
588.39	1273.20
588.74	1264.59
589.09	1255.89
589.44	1246.72
589.79	1238.06
590.14	1229.65
590.49	1221.03
590.84	1212.46
591.19	1203.93
591.54	1195.40
591.89	1186.88
592.25	1179.94
592.60	1171.99
592.95	1164.05
593.30	1155.68
593.65	1147.45
594.00	1139.18
594.35	1132.99
594.70	1124.74
595.05	1116.83
595.40	1108.38
595.75	1099.98
596.10	1092.40
596.45	1084.63
596.80	1077.33
597.15	1069.65
597.50	1061.48
597.85	1053.93
598.19	1045.87
598.54	1038.04
598.89	1030.34
599.24	1023.04
599.59	1014.97
599.94	1007.35
600.29	1000.16
600.64	993.21
600.99	985.87
601.34	979.51
601.69	971.29
602.04	964.63
602.39	958.03
602.74	952.16
603.08	945.80
603.43	939.47
603.78	932.83
604.13	926.23
604.48	919.63
604.83	913.23
605.18	906.43
605.53	900.06
605.87	893.74
606.22	887.77
606.57	881.50
606.92	875.24
607.27	869.47
607.62	863.68
607.96	858.02
608.31	852.75
608.66	847.11
609.01	841.34
609.36	835.49
609.70	829.83
610.05	823.83
610.40	818.29
610.75	812.28
611.10	806.76
611.44	801.10
611.79	795.60
612.14	790.26
612.49	784.91
612.83	779.94
613.18	774.68
613.53	769.71
613.88	764.32
614.22	759.14
614.57	753.68
614.92	748.35
615.27	743.17
615.61	737.79
615.96	732.49
616.31	727.40
616.65	722.67
617.00	717.47
617.35	712.33
617.70	707.52
618.04	702.74
618.39	697.87
618.74	693.42
619.08	688.71
619.43	683.91
619.78	679.20
620.12	674.28
620.47	669.49
620.82	664.61
621.16	660.10
621.51	655.89
621.85	651.64
622.20	647.11
622.55	642.58
622.89	638.35
623.24	634.13
623.59	629.92
623.93	625.56
624.28	621.54
624.62	618.08
624.97	614.15
625.32	610.35
625.66	606.36
626.01	602.28
626.35	598.44
626.70	594.72
627.04	591.16
627.39	587.42
627.73	583.93
628.08	580.44
628.43	576.64
628.77	572.89
629.12	569.29
629.46	566.00
629.81	562.78
630.15	559.46
630.50	556.13
630.84	552.91
631.19	549.59
631.53	546.51
631.88	542.65
632.22	539.35
632.57	536.21
632.91	533.13
633.26	530.07
633.60	527.02
633.95	523.80
634.29	520.47
634.64	517.36
634.98	514.16
635.32	511.14
635.67	508.53
636.01	505.75
636.36	502.79
636.70	499.99
637.05	496.97
637.39	494.09
637.73	491.28
638.08	488.50
638.42	485.70
638.77	482.86
639.11	479.99
639.45	476.95
639.80	473.99
640.14	471.19
640.49	468.29
640.83	465.71
641.17	463.30
641.52	460.80
641.86	458.51
642.20	456.33
642.55	453.81
642.89	451.32
643.23	448.78
643.58	446.77
643.92	444.18
644.26	441.90
644.61	439.80
644.95	437.47
645.29	435.20
645.64	433.12
645.98	430.86
646.32	428.91
646.66	426.75
647.01	424.71
647.35	422.79
647.69	420.95
648.04	419.01
648.38	417.05
648.72	415.20
649.06	413.10
649.41	410.98
649.75	408.96
650.09	406.95
650.43	405.06
650.78	402.83
651.12	401.05
651.46	399.08
651.80	397.15
652.14	395.28
652.49	393.48
652.83	391.71
653.17	389.99
653.51	388.07
653.85	386.49
654.20	384.85
654.54	383.09
654.88	381.39
655.22	379.80
655.56	378.17
655.90	376.51
656.25	374.83
656.59	373.28
656.93	371.78
657.27	370.35
657.61	368.69
657.95	367.28
658.29	365.73
658.64	364.34
658.98	362.79
659.32	361.21
659.66	359.77
660.00	358.26
660.34	356.90
660.68	355.61
661.02	354.17
661.36	352.67
661.70	351.21
662.05	349.82
662.39	348.44
662.73	347.14
663.07	346.11
663.41	344.95
663.75	343.60
664.09	342.31
664.43	340.88
664.77	339.65
665.11	338.36
665.45	337.22
665.79	336.13
666.13	334.95
666.47	333.78
666.81	332.60
667.15	331.33
667.49	330.26
667.83	329.35
668.17	328.37
668.51	327.40
668.85	326.62
669.19	325.82
669.53	324.68
669.87	323.55
670.21	322.33
670.55	321.28
670.89	320.62
671.23	319.64
671.57	318.74
671.91	317.84
672.25	316.91
672.58	316.10
672.92	315.12
673.26	314.26
673.60	313.45
673.94	312.59
674.28	311.92
674.62	311.13
674.96	310.13
675.30	309.27
675.64	308.45
675.97	307.42
676.31	306.48
676.65	305.64
676.99	305.06
677.33	304.14
677.67	303.44
678.01	302.36
678.34	301.70
678.68	301.18
679.02	300.39
679.36	299.62
679.70	298.84
680.04	298.21
680.37	297.51
680.71	296.86
681.05	296.26
681.39	295.51
681.73	294.81
682.06	294.19
682.40	293.56
682.74	293.06
683.08	292.71
683.42	291.99
683.75	291.44
684.09	290.67
684.43	290.22
684.77	289.58
685.10	289.10
685.44	288.45
685.78	287.73
686.12	287.10
686.45	286.62
686.79	285.98
687.13	285.40
687.46	284.78
687.80	284.35
688.14	283.67
688.48	283.11
688.81	282.46
689.15	282.04
689.49	281.50
689.82	280.86
690.16	280.11
690.50	279.64
690.83	279.11
691.17	278.56
691.51	277.95
691.84	277.52
692.18	276.93
692.52	276.38
692.85	275.98
693.19	275.81
693.52	275.37
693.86	274.83
694.20	274.30
694.53	273.95
694.87	273.41
695.21	272.97
695.54	272.56
695.88	272.12
696.21	271.51
696.55	271.05
696.88	270.64
697.22	270.20
697.56	269.81
697.89	269.34
698.23	269.01
698.56	268.66
698.90	268.23
699.23	267.83
699.57	267.54
699.90	267.00
700.24	266.40
700.58	266.05
700.91	265.80
701.25	265.84
701.58	265.72
701.92	265.41
702.25	265.09
702.59	264.75
702.92	264.50
703.26	264.14
703.59	263.81
703.93	263.95
704.26	263.74
704.60	263.45
704.93	263.13
705.26	262.74
705.60	262.49
705.93	262.08
706.27	261.94
706.60	261.71
706.94	261.67
707.27	261.32
707.61	261.06
707.94	260.78
708.27	260.17
708.61	259.49
708.94	259.14
709.28	258.87
709.61	258.46
709.94	258.22
710.28	258.00
710.61	257.72
710.95	256.92
711.28	256.80
711.61	256.53
711.95	256.34
712.28	255.99
712.61	255.71
712.95	255.72
713.28	255.58
713.61	255.25
713.95	254.75
714.28	254.49
714.61	254.14
714.95	253.81
715.28	253.38
715.61	253.18
715.95	252.97
716.28	252.68
716.61	252.50
716.95	252.12
717.28	251.84
717.61	251.50
717.94	251.27
718.28	250.78
718.61	250.44
718.94	250.11
719.27	249.86
719.61	249.67
719.94	249.29
720.27	248.82
720.60	248.51
720.94	248.34
721.27	248.28
721.60	248.15
721.93	247.96
722.27	247.95
722.60	247.86
722.93	247.61
723.26	247.49
723.59	247.25
723.93	247.11
724.26	247.04
724.59	246.89
724.92	246.76
725.25	246.64
725.59	246.49
725.92	246.45
726.25	246.36
726.58	246.22
726.91	246.02
727.24	245.98
727.57	245.88
727.91	245.55
728.24	245.35
728.57	245.18
728.90	245.09
729.23	244.90
729.56	244.93
729.89	244.74
730.22	244.56
730.55	244.44
730.89	244.27
731.22	244.09
731.55	243.96
731.88	243.80
732.21	243.61
732.54	243.47
732.87	243.23
733.20	243.12
733.53	242.97
733.86	242.89
734.19	242.66
734.52	242.60
734.85	242.93
735.18	242.77
735.51	242.78
735.84	242.64
736.17	242.69
736.50	242.30
736.83	242.71
737.16	242.55
737.49	242.50
737.82	242.45
738.15	242.36
738.48	242.19
738.81	242.12
739.14	241.92
739.47	241.78
739.80	241.74
740.13	241.66
740.46	241.49
740.79	241.30
741.12	241.20
741.45	240.97
741.78	240.55
742.11	240.58
742.44	240.33
742.77	240.25
743.10	239.91
743.43	239.75
743.75	239.18
744.08	239.67
744.41	239.45
744.74	239.24
745.07	239.06
745.40	239.04
745.73	239.07
746.06	239.01
746.39	238.88
746.71	238.69
747.04	238.49
747.37	238.36
747.70	238.34
748.03	238.27
748.36	238.18
748.68	238.03
749.01	237.76
749.34	237.59
749.67	237.50
750.00	237.53
750.33	237.87
750.65	237.74
750.98	237.02
751.31	236.94
751.64	236.86
751.97	237.07
752.29	237.05
752.62	236.71
752.95	236.59
753.28	236.43
753.60	236.35
753.93	236.41
754.26	236.34
754.59	236.10
754.91	235.90
755.24	235.81
755.57	235.73
755.90	235.56
756.22	235.46
756.55	235.29
756.88	235.01
757.20	234.53
757.53	234.36
757.86	234.27
758.19	234.19
758.51	234.06
758.84	233.64
759.17	233.40
759.49	233.38
759.82	233.52
760.15	233.55
760.47	233.41
760.80	233.21
761.13	233.22
761.45	233.10
761.78	233.04
762.11	232.95
762.43	232.87
762.76	232.83
763.08	232.85
763.41	232.85
763.74	232.91
764.06	232.81
764.39	232.81
764.71	232.74
765.04	232.69
765.37	232.57
765.69	232.46
766.02	232.41
766.34	232.28
766.67	232.10
767.00	232.08
767.32	232.30
767.65	232.48
767.97	232.34
768.30	232.33
768.62	232.33
768.95	232.33
769.27	232.30
769.60	232.33
769.92	232.15
770.25	231.99
770.57	231.83
770.90	231.76
771.22	231.59
771.55	231.55
771.87	231.47
772.20	231.45
772.52	231.89
772.85	232.45
773.17	232.44
773.50	232.31
773.82	232.25
774.15	231.99
774.47	231.71
774.80	231.60
775.12	231.59
775.45	231.47
775.77	231.36
776.09	231.31
776.42	231.25
776.74	231.35
777.07	231.30
777.39	231.26
777.72	231.29
778.04	231.35
778.36	231.34
778.69	231.37
779.01	231.37
779.33	230.96
779.66	230.36
779.98	230.28
780.31	230.21
780.63	230.33
780.95	230.34
781.28	230.18
781.60	230.16
781.92	230.08
782.25	230.05
782.57	230.05
782.89	230.03
783.22	230.05
783.54	229.92
783.86	229.92
784.19	229.89
784.51	229.95
784.83	229.93
785.16	229.82
785.48	229.74
785.80	229.74
786.12	229.69
786.45	229.68
786.77	229.76
787.09	229.77
787.42	229.59
787.74	229.69
788.06	229.67
788.38	229.56
788.71	229.50
789.03	229.50
789.35	229.54
789.67	229.41
789.99	229.33
790.32	229.32
790.64	229.32
790.96	229.62
791.28	229.46
791.61	229.30
791.93	229.33
792.25	229.34
792.57	229.66
792.89	229.52
793.21	229.44
793.54	229.31
793.86	229.19
794.18	229.14
794.50	229.01
794.82	229.00
795.14	229.15
795.47	229.26
795.79	229.32
796.11	229.20
796.43	229.20
796.75	229.21
797.07	229.18
797.39	229.14
797.71	228.88
798.04	228.87
798.36	228.98
798.68	228.94
799.00	228.90
799.32	228.58
799.64	228.71
799.96	228.71
800.28	228.84
800.60	228.88
800.92	228.90
801.24	228.88
801.56	229.03
801.89	228.88
802.21	228.88
802.53	228.68
802.85	228.75
803.17	228.97
803.49	228.82
803.81	228.72
804.13	228.66
804.45	228.49
804.77	228.55
805.09	228.54
805.41	228.41
805.73	228.39
806.05	228.31
806.37	228.24
806.69	228.14
807.01	228.02
807.33	228.04
807.65	227.87
807.97	227.98
808.28	227.76
808.60	227.74
808.92	227.61
809.24	227.98
809.56	227.91
809.88	227.72
810.20	227.79
810.52	227.93
810.84	227.89
811.16	227.89
811.48	227.81
811.80	227.97
812.12	228.05
812.43	228.06
812.75	228.07
813.07	228.01
813.39	228.14
813.71	228.05
814.03	227.98
814.35	228.08
814.67	227.95
814.98	227.95
815.30	227.93
815.62	227.88
815.94	227.52
816.26	227.69
816.58	227.55
816.89	227.53
817.21	227.35
817.53	227.40
817.85	227.47
818.17	227.51
818.48	227.24
818.80	227.31
819.12	227.25
819.44	227.15
819.76	227.04
820.07	227.04
820.39	227.07
820.71	227.13
821.03	227.04
821.34	226.95
821.66	227.10
821.98	227.15
822.30	227.13
822.61	227.39
822.93	227.16
823.25	227.26
823.57	227.24
823.88	227.35
824.20	227.30
824.52	227.28
824.83	227.17
825.15	227.21
825.47	227.16
825.79	227.16
826.10	227.13
826.42	227.19
826.74	227.10
827.05	227.08
827.37	227.06
827.69	227.07
828.00	227.12
828.32	227.08
828.64	227.03
828.95	227.31
829.27	227.18
829.58	227.16
829.90	227.12
830.22	227.12
830.53	227.00
830.85	226.94
831.17	226.82
831.48	226.90
831.80	226.85
832.11	226.82
832.43	226.82
832.75	226.79
833.06	227.10
833.38	227.05
833.69	227.05
834.01	227.03
834.32	227.00
834.64	226.94
834.96	226.96
835.27	227.00
835.59	226.81
835.90	226.73
836.22	226.74
836.53	226.71
836.85	226.70
837.16	227.19
837.48	227.22
837.79	227.39
838.11	227.32
838.42	227.32
838.74	227.42
839.05	227.33
839.37	227.37
839.68	227.01
840.00	227.04
840.31	227.10
840.63	227.04
840.94	227.00
841.26	226.94
841.57	227.01
841.88	226.98
842.20	226.91
842.51	226.82
842.83	226.82
843.14	227.22
843.46	227.23
843.77	226.97
844.08	226.98
844.40	226.89
844.71	226.85
845.03	226.84
845.34	226.76
845.65	226.74
845.97	226.78
846.28	226.84
846.60	226.85
846.91	226.75
847.22	226.81
847.54	226.95
847.85	226.93
848.16	226.77
848.48	226.76
848.79	226.96
849.10	227.12
849.42	227.16
849.73	226.80
850.04	226.77
850.36	226.61
850.67	226.66
850.98	226.66
851.30	226.75
851.61	226.75
851.92	226.74
852.23	226.94
852.55	226.95
852.86	227.02
853.17	227.04
853.49	227.16
853.80	227.22
854.11	227.31
854.42	227.40
854.74	227.39
855.05	227.38
855.36	227.15
855.67	227.13
855.99	227.20
856.30	227.64
856.61	227.61
856.92	227.57
857.23	227.56
857.55	227.46
857.86	227.35
858.17	227.38
858.48	227.34
858.79	227.24
859.11	227.22
859.42	227.13
859.73	227.04
860.04	227.03
860.35	226.87
860.66	226.64
860.98	226.62
861.29	226.63
861.60	226.66
861.91	226.69
862.22	226.58
862.53	226.46
862.84	225.93
863.16	226.08
863.47	226.05
863.78	226.05
864.09	226.09
864.40	226.18
864.71	226.16
865.02	226.19
865.33	226.14
865.64	226.02
865.95	225.98
866.27	226.28
866.58	226.23
866.89	226.30
867.20	226.26
867.51	226.18
867.82	226.19
868.13	226.33
868.44	226.25
868.75	226.32
869.06	226.35
869.37	226.39
869.68	226.27
869.99	226.33
870.30	226.30
870.61	226.30
870.92	226.20
871.23	226.18
871.54	226.24
871.85	226.30
872.16	226.41
872.47	226.36
872.78	226.11
873.09	226.13
873.40	226.03
873.71	226.11
874.02	226.12
874.33	226.12
874.64	225.88
874.95	226.03
875.26	225.94
875.56	225.85
875.87	225.81
876.18	225.70
876.49	226.17
876.80	226.14
877.11	226.10
877.42	226.13
877.73	226.13
878.04	226.03
878.35	226.02
878.66	226.03
878.96	226.10
879.27	226.00
879.58	225.98
879.89	226.03
880.20	226.16
880.51	226.19
880.82	226.15
881.12	226.21
881.43	226.12
881.74	226.06
882.05	226.04
882.36	226.08
882.67	226.21
882.97	225.70
883.28	225.69
883.59	225.68
883.90	225.74
884.21	225.86
884.51	225.84
884.82	225.77
885.13	225.80
885.44	225.71
885.74	225.80
886.05	225.82
886.36	225.83
886.67	225.65
886.98	225.95
887.28	226.00
887.59	226.09
887.90	226.03
888.20	226.04
888.51	226.17
888.82	226.14
889.13	226.18
889.43	226.60
889.74	226.65
890.05	226.68
890.35	226.66
890.66	226.60
890.97	226.62
891.28	226.60
891.58	226.60
891.89	226.69
892.20	226.58
892.50	226.48
892.81	226.48
893.12	226.46
893.42	226.14
893.73	226.14
894.04	226.05
894.34	226.14
894.65	226.30
894.95	226.21
895.26	226.24
895.57	226.38
895.87	225.90
896.18	225.94
896.48	225.99
896.79	225.92
897.10	225.94
897.40	225.92
897.71	226.09
898.01	226.05
898.32	226.04
898.63	226.14
898.93	226.14
899.24	226.15
899.54	226.16
899.85	226.20
900.15	226.17
900.46	226.25
900.76	226.25
901.07	226.12
901.38	226.10
901.68	226.12
901.99	225.89
902.29	225.87
902.60	225.81
902.90	225.72
903.21	225.74
903.51	225.74
903.82	225.84
904.12	225.74
904.43	225.73
904.73	225.72
905.03	225.75
905.34	226.28
905.64	226.25
905.95	226.22
906.25	226.24
906.56	226.22
906.86	226.18
907.17	226.15
907.47	226.21
907.77	226.22
908.08	226.11
908.38	226.15
908.69	226.23
908.99	226.35
909.30	226.39
909.60	226.41
909.90	226.39
910.21	226.28
910.51	226.25
910.81	226.24
911.12	226.30
911.42	226.24
911.73	225.72
912.03	225.70
912.33	225.80
912.64	225.78
912.94	225.75
913.24	225.61
913.55	225.56
913.85	225.49
914.15	225.58
914.46	225.60
914.76	225.48
915.06	225.43
915.37	225.32
915.67	225.25
915.97	225.23
916.27	225.13
916.58	225.21
916.88	225.20
917.18	225.16
917.49	225.50
917.79	225.55
918.09	225.62
918.39	225.70
918.70	225.66
919.00	225.58
919.30	225.75
919.60	225.80
919.91	225.76
920.21	225.83
920.51	225.68
920.81	225.75
921.12	225.91
921.42	225.87
921.72	225.94
922.02	225.99
922.32	226.01
922.63	226.06
922.93	226.19
923.23	226.14
923.53	226.09
923.83	225.69
924.13	225.64
924.44	225.63
924.74	225.74
925.04	225.84
925.34	225.85
925.64	225.67
925.94	225.65
926.24	225.98
926.55	225.91
926.85	226.04
927.15	225.99
927.45	225.98
927.75	226.03
928.05	226.03
928.35	226.01
928.65	226.14
928.95	226.15
929.26	226.01
929.56	226.09
929.86	226.20
930.16	226.24
930.46	226.33
930.76	226.31
931.06	226.10
931.36	226.01
931.66	226.17
931.96	226.27
932.26	226.30
932.56	226.16
932.86	226.11
933.16	226.10
933.46	226.16
933.76	226.09
934.06	226.30
934.36	226.48
934.66	226.47
934.96	226.40
935.26	226.41
935.56	226.48
935.86	226.38
936.16	226.23
936.46	226.23
936.76	226.15
937.06	226.10
937.36	226.14
937.66	226.20
937.96	226.13
938.26	226.03
938.56	226.10
938.86	226.09
939.16	226.29
939.46	226.32
939.76	226.29
940.06	226.24
940.35	226.08
940.65	225.83
940.95	225.87
941.25	225.70
941.55	225.65
941.85	225.61
942.15	225.72
942.45	225.96
942.75	225.87
943.04	225.85
943.34	225.97
943.64	225.89
943.94	225.77
944.24	225.79
944.54	225.84
944.84	225.77
945.13	225.66
945.43	225.54
945.73	225.43
946.03	225.33
946.33	225.31
946.62	225.24
946.92	225.27
947.22	225.24
947.52	225.32
947.82	225.45
948.11	225.36
948.41	225.25
948.71	225.04
949.01	225.10
949.31	225.11
949.60	225.00
949.90	225.05
950.20	225.00
950.50	225.00
950.79	224.93
951.09	224.99
951.39	224.92
951.69	224.90
951.98	225.06
952.28	225.11
952.58	225.08
952.87	225.06
953.17	225.04
953.47	224.99
953.76	224.93
954.06	224.70
954.36	224.65
954.66	224.71
954.95	224.88
955.25	224.89
955.55	224.90
955.84	224.91
956.14	224.98
956.44	225.10
956.73	224.96
957.03	224.98
957.32	225.00
957.62	225.02
957.92	225.14
958.21	225.03
958.51	225.57
958.81	225.63
959.10	225.68
959.40	225.74
959.69	225.82
959.99	225.90
960.29	226.00
960.58	226.04
960.88	226.22
961.17	226.15
961.47	226.19
961.76	226.18
962.06	226.29
962.36	226.21
962.65	226.20
962.95	226.23
963.24	226.17
963.54	226.16
963.83	226.20
964.13	226.13
964.42	226.14
964.72	225.80
965.01	225.85
965.31	225.89
965.60	225.81
965.90	226.08
966.19	225.98
966.49	226.07
966.78	226.04
967.08	225.96
967.37	225.96
967.67	225.87
967.96	225.94
968.26	225.90
968.55	225.94
968.85	225.96
969.14	226.01
969.43	226.07
969.73	226.00
970.02	226.02
970.32	226.00
970.61	225.95
970.91	225.81
971.20	225.76
971.49	225.70
971.79	225.81
972.08	225.53
972.38	225.66
972.67	225.55
972.96	225.65
973.26	225.62
973.55	225.73
973.85	225.80
974.14	225.75
974.43	225.82
974.73	225.87
975.02	225.83
975.31	225.86
975.61	225.93
975.90	225.97
976.19	226.00
976.49	226.05
976.78	226.07
977.07	226.07
977.37	226.11
977.66	226.17
977.95	226.06
978.24	226.10
978.54	226.13
978.83	226.16
979.12	226.14
979.42	226.06
979.71	226.05
980.00	226.00
980.29	226.03
980.59	225.85
980.88	225.89
981.17	225.92
981.46	225.87
981.76	225.85
982.05	225.97
982.34	225.99
982.63	225.98
982.93	226.01
983.22	226.11
983.51	226.08
983.80	226.17
984.09	226.29
984.39	226.21
984.68	226.12
984.97	226.12
985.26	226.09
985.55	226.12
985.85	225.96
986.14	226.03
986.43	226.05
986.72	226.10
987.01	225.96
987.30	225.93
987.59	225.88
987.89	225.86
988.18	225.62
988.47	225.52
988.76	225.49
989.05	225.46
989.34	225.37
989.63	225.54
989.92	225.40
990.22	225.31
990.51	225.38
990.80	225.42
991.09	225.44
991.38	225.57
991.67	225.49
991.96	225.45
992.25	225.42
992.54	225.41
992.83	225.40
993.12	225.37
993.41	225.43
993.70	225.75
993.99	225.86
994.28	225.95
994.58	226.10
994.87	226.02
995.16	225.98
995.45	225.94
995.74	225.72
996.03	225.78
996.32	225.86
996.61	225.92
996.90	225.88
997.19	225.87
997.48	225.74
997.77	225.81
998.06	225.85
998.34	225.86
998.63	225.76
998.92	225.84
999.21	225.91
999.50	225.90
999.79	225.64
1000.08	225.60
1000.37	225.66
1000.66	225.55
1000.95	225.75
1001.24	225.75
1001.53	225.85
1001.82	225.85
1002.11	225.75
1002.40	225.81
1002.68	225.90
1002.97	226.23
1003.26	226.14
1003.55	226.12
1003.84	226.10
1004.13	226.31
1004.42	226.26
1004.71	226.36
1004.99	226.22
1005.28	226.32
1005.57	226.30
1005.86	226.28
1006.15	226.25
1006.44	226.16
1006.72	226.25
1007.01	226.12
1007.30	226.17
1007.59	226.12
1007.88	226.15
1008.17	226.27
1008.45	226.15
1008.74	226.01
1009.03	225.82
1009.32	225.92
1009.60	225.93
1009.89	225.90
1010.18	225.62
1010.47	225.68
1010.76	225.66
1011.04	225.69
1011.33	225.76
1011.62	225.79
1011.91	225.84
1012.19	225.82
1012.48	225.82
1012.77	225.81
1013.05	226.03
1013.34	226.02
1013.63	225.98
1013.92	226.03
1014.20	225.91
1014.49	225.90
1014.78	225.95
1015.06	225.70
1015.35	225.69
1015.64	225.77
1015.92	225.85
1016.21	225.98
1016.50	225.94
1016.78	225.93
1017.07	225.93
1017.36	225.73
1017.64	225.63
1017.93	225.66
1018.22	225.61
1018.50	225.64
1018.79	225.62
1019.08	225.47
1019.36	225.49
1019.65	225.47
1019.93	225.55
1020.22	225.62
1020.51	225.86
1020.79	225.77
1021.08	224.30
1021.36	225.25
1021.65	226.35
1021.94	226.90
1022.22	226.00
1022.51	225.15
1022.79	227.20
1023.08	226.00
1023.36	231.30
1023.65	224.20
>>>>>End Processed Spectral Data<<<<<
