SpectraSuite Data File
++++++++++++++++++++++++++++++++++++
Date: Wed Sep 04 18:03:46 EDT 2013
User: lab3
Dark Spectrum Present: Yes
Reference Spectrum Present: No
Number of Sampled Component Spectra: 1
Spectrometers: USB2E7196
Integration Time (usec): 170000 (USB2E7196)
Spectra Averaged: 20 (USB2E7196)
Boxcar Smoothing: 10 (USB2E7196)
Correct for Electrical Dark: No (USB2E7196)
Strobe/Lamp Enabled: No (USB2E7196)
Correct for Detector Non-linearity: No (USB2E7196)
Correct for Stray Light: No (USB2E7196)
Number of Pixels in Processed Spectrum: 2048
>>>>>Begin Processed Spectral Data<<<<<
339.09	0.00
339.48	213.75
339.86	214.95
340.24	216.65
340.63	219.00
341.01	226.50
341.39	221.55
341.78	223.65
342.16	224.80
342.54	222.85
342.93	212.99
343.31	223.75
343.69	224.30
344.07	224.79
344.46	225.21
344.84	225.59
345.22	225.57
345.60	225.80
345.99	225.94
346.37	225.97
346.75	226.10
347.13	226.18
347.52	226.22
347.90	226.43
348.28	226.46
348.66	226.60
349.05	226.47
349.43	226.56
349.81	226.78
350.19	226.81
350.57	226.93
350.96	226.95
351.34	226.97
351.72	227.05
352.10	227.12
352.48	227.21
352.87	227.24
353.25	227.27
353.63	227.32
354.01	227.38
354.39	227.51
354.77	227.63
355.15	227.86
355.54	227.85
355.92	227.73
356.30	227.83
356.68	228.22
357.06	228.27
357.44	228.23
357.82	228.15
358.20	228.64
358.58	228.59
358.97	228.69
359.35	228.92
359.73	229.05
360.11	229.20
360.49	229.22
360.87	229.30
361.25	229.42
361.63	229.56
362.01	229.62
362.39	229.66
362.77	229.74
363.15	229.78
363.53	229.88
363.91	230.00
364.29	229.98
364.67	229.49
365.05	229.59
365.43	229.70
365.81	229.81
366.19	229.63
366.57	229.87
366.95	229.89
367.33	229.74
367.71	229.76
368.09	229.85
368.47	229.89
368.85	229.89
369.23	229.99
369.61	229.92
369.99	230.07
370.37	230.07
370.75	230.27
371.13	230.15
371.51	230.04
371.89	229.99
372.27	229.98
372.65	230.03
373.03	230.00
373.41	229.96
373.78	229.88
374.16	229.65
374.54	229.50
374.92	229.45
375.30	229.43
375.68	229.28
376.06	229.15
376.44	229.10
376.82	229.00
377.19	228.87
377.57	228.77
377.95	228.58
378.33	228.47
378.71	228.15
379.09	228.19
379.47	228.21
379.84	228.17
380.22	228.12
380.60	227.97
380.98	227.82
381.36	227.70
381.73	227.61
382.11	227.65
382.49	227.56
382.87	227.34
383.25	227.25
383.62	227.76
384.00	227.60
384.38	227.48
384.76	227.50
385.13	227.60
385.51	227.50
385.89	227.35
386.27	227.35
386.64	227.31
387.02	227.07
387.40	226.98
387.78	226.89
388.15	226.80
388.53	226.76
388.91	226.76
389.29	226.62
389.66	226.52
390.04	226.38
390.42	226.38
390.79	226.39
391.17	226.40
391.55	225.80
391.92	225.86
392.30	225.93
392.68	225.85
393.05	225.89
393.43	225.91
393.81	225.90
394.18	225.83
394.56	225.86
394.94	226.08
395.31	226.01
395.69	226.16
396.06	226.29
396.44	226.35
396.82	226.32
397.19	226.65
397.57	226.76
397.95	226.93
398.32	226.90
398.70	227.03
399.07	227.17
399.45	227.27
399.82	227.35
400.20	227.35
400.58	227.46
400.95	227.23
401.33	227.47
401.70	228.02
402.08	228.24
402.45	228.39
402.83	228.55
403.20	228.80
403.58	228.93
403.95	229.13
404.33	229.37
404.71	229.61
405.08	230.10
405.46	230.38
405.83	230.65
406.21	230.89
406.58	231.23
406.96	231.54
407.33	231.86
407.70	232.28
408.08	233.10
408.45	233.57
408.83	234.18
409.20	234.56
409.58	234.71
409.95	235.24
410.33	235.83
410.70	236.20
411.08	236.82
411.45	237.48
411.82	238.12
412.20	238.90
412.57	239.87
412.95	240.19
413.32	241.07
413.69	241.90
414.07	242.86
414.44	243.86
414.82	244.93
415.19	246.15
415.56	247.27
415.94	248.25
416.31	249.70
416.68	251.13
417.06	252.80
417.43	254.42
417.81	256.20
418.18	257.98
418.55	259.92
418.93	261.93
419.30	263.99
419.67	266.18
420.04	268.46
420.42	270.81
420.79	273.97
421.16	276.76
421.54	279.84
421.91	282.88
422.28	285.97
422.66	289.13
423.03	292.55
423.40	295.91
423.77	299.55
424.15	303.06
424.52	306.87
424.89	310.98
425.26	314.95
425.64	318.75
426.01	322.96
426.38	327.45
426.75	332.05
427.13	336.75
427.50	341.54
427.87	346.43
428.24	351.41
428.61	355.98
428.99	361.36
429.36	366.73
429.73	372.25
430.10	377.79
430.47	383.58
430.85	389.23
431.22	395.50
431.59	402.27
431.96	408.52
432.33	415.58
432.70	422.28
433.08	430.21
433.45	437.73
433.82	445.16
434.19	453.40
434.56	461.48
434.93	469.20
435.30	477.11
435.68	485.77
436.05	494.18
436.42	502.45
436.79	510.14
437.16	518.59
437.53	527.37
437.90	536.11
438.27	544.92
438.64	553.98
439.01	562.39
439.38	569.52
439.75	576.73
440.13	584.79
440.50	592.39
440.87	598.41
441.24	604.86
441.61	611.96
441.98	617.04
442.35	622.84
442.72	628.89
443.09	634.60
443.46	638.07
443.83	640.25
444.20	642.35
444.57	645.02
444.94	646.10
445.31	647.22
445.68	648.50
446.05	648.45
446.42	647.10
446.79	645.55
447.16	644.09
447.53	642.91
447.90	639.01
448.27	635.32
448.64	630.56
449.01	626.77
449.37	620.36
449.74	614.27
450.11	607.50
450.48	599.68
450.85	591.62
451.22	584.67
451.59	578.14
451.96	571.77
452.33	563.57
452.70	556.17
453.07	547.40
453.43	538.36
453.80	529.95
454.17	521.70
454.54	514.02
454.91	505.77
455.28	497.74
455.65	490.34
456.02	483.45
456.38	477.00
456.75	469.13
457.12	462.74
457.49	456.36
457.86	449.90
458.23	444.67
458.59	439.01
458.96	433.24
459.33	428.13
459.70	422.88
460.07	418.79
460.43	414.10
460.80	409.92
461.17	406.09
461.54	402.18
461.91	398.49
462.27	394.54
462.64	391.16
463.01	387.56
463.38	384.32
463.74	380.30
464.11	377.23
464.48	374.62
464.85	371.63
465.21	369.50
465.58	367.21
465.95	364.38
466.32	362.18
466.68	359.87
467.05	357.66
467.42	355.51
467.78	353.24
468.15	351.12
468.52	349.50
468.88	347.31
469.25	345.31
469.62	343.88
469.98	342.25
470.35	340.72
470.72	339.31
471.08	337.52
471.45	336.26
471.82	335.05
472.18	333.62
472.55	332.64
472.92	331.36
473.28	330.25
473.65	329.10
474.02	327.92
474.38	327.09
474.75	326.37
475.11	325.45
475.48	324.86
475.85	324.17
476.21	323.50
476.58	323.01
476.94	322.59
477.31	322.13
477.67	321.75
478.04	321.41
478.41	321.14
478.77	321.38
479.14	321.07
479.50	321.01
479.87	321.04
480.23	321.12
480.60	321.11
480.96	321.17
481.33	321.54
481.69	321.83
482.06	322.13
482.42	322.28
482.79	322.71
483.15	323.14
483.52	323.90
483.88	324.28
484.25	324.85
484.61	325.49
484.98	326.14
485.34	327.16
485.71	328.19
486.07	329.09
486.44	329.71
486.80	330.84
487.17	331.85
487.53	333.10
487.90	334.53
488.26	336.26
488.62	337.87
488.99	339.41
489.35	341.18
489.72	342.95
490.08	345.04
490.44	347.06
490.81	349.24
491.17	351.30
491.54	353.94
491.90	356.66
492.26	359.30
492.63	362.14
492.99	364.91
493.36	368.04
493.72	371.51
494.08	374.95
494.45	378.61
494.81	382.61
495.17	386.51
495.54	390.56
495.90	394.67
496.26	399.08
496.63	403.75
496.99	408.52
497.35	413.59
497.72	418.92
498.08	424.36
498.44	430.09
498.80	436.16
499.17	442.25
499.53	448.50
499.89	455.26
500.26	461.95
500.62	468.95
500.98	476.27
501.34	483.76
501.71	491.56
502.07	499.41
502.43	507.51
502.79	515.88
503.16	524.61
503.52	533.73
503.88	543.05
504.24	552.72
504.60	562.73
504.97	573.03
505.33	583.40
505.69	594.46
506.05	605.50
506.41	616.80
506.78	628.41
507.14	640.35
507.50	652.71
507.86	665.53
508.22	678.52
508.59	691.65
508.95	705.34
509.31	719.59
509.67	733.95
510.03	748.18
510.39	763.00
510.75	778.08
511.12	793.34
511.48	808.88
511.84	824.57
512.20	840.46
512.56	856.72
512.92	873.57
513.28	890.39
513.64	907.48
514.00	924.96
514.37	942.73
514.73	961.06
515.09	979.23
515.45	997.63
515.81	1015.89
516.17	1034.61
516.53	1053.25
516.89	1071.93
517.25	1091.29
517.61	1111.66
517.97	1132.25
518.33	1152.30
518.69	1172.60
519.05	1193.17
519.41	1213.86
519.77	1235.23
520.13	1256.13
520.49	1276.92
520.85	1299.60
521.21	1321.11
521.57	1342.65
521.93	1363.51
522.29	1384.59
522.65	1405.47
523.01	1426.65
523.37	1447.60
523.73	1468.85
524.09	1489.60
524.45	1510.58
524.81	1531.54
525.17	1552.07
525.53	1572.56
525.89	1593.63
526.25	1614.47
526.61	1635.12
526.97	1656.40
527.33	1677.77
527.68	1699.75
528.04	1721.25
528.40	1740.73
528.76	1761.69
529.12	1781.87
529.48	1802.59
529.84	1823.00
530.20	1844.15
530.56	1865.07
530.91	1886.18
531.27	1906.63
531.63	1927.40
531.99	1948.12
532.35	1968.28
532.71	1989.03
533.07	2009.59
533.42	2029.71
533.78	2049.64
534.14	2069.81
534.50	2089.01
534.86	2108.10
535.21	2125.63
535.57	2144.24
535.93	2162.08
536.29	2180.00
536.65	2198.87
537.00	2216.99
537.36	2234.76
537.72	2251.59
538.08	2268.58
538.44	2285.59
538.79	2302.20
539.15	2318.70
539.51	2334.52
539.87	2349.97
540.22	2364.23
540.58	2378.70
540.94	2392.10
541.29	2405.06
541.65	2417.71
542.01	2430.44
542.37	2441.07
542.72	2452.30
543.08	2463.23
543.44	2475.19
543.79	2485.19
544.15	2494.61
544.51	2504.88
544.87	2514.37
545.22	2523.00
545.58	2530.78
545.94	2538.18
546.29	2544.88
546.65	2551.18
547.01	2556.72
547.36	2562.45
547.72	2567.81
548.07	2572.15
548.43	2577.58
548.79	2582.52
549.14	2586.54
549.50	2590.43
549.86	2594.97
550.21	2598.81
550.57	2601.66
550.92	2603.07
551.28	2604.67
551.64	2607.31
551.99	2609.14
552.35	2611.05
552.70	2612.98
553.06	2614.70
553.41	2615.90
553.77	2617.93
554.13	2619.72
554.48	2621.74
554.84	2623.48
555.19	2625.06
555.55	2626.69
555.90	2625.83
556.26	2625.19
556.61	2623.91
556.97	2621.84
557.32	2620.87
557.68	2619.96
558.03	2618.70
558.39	2617.79
558.74	2617.22
559.10	2613.86
559.45	2610.37
559.81	2605.62
560.16	2601.03
560.52	2596.58
560.87	2592.33
561.23	2586.88
561.58	2581.04
561.94	2574.25
562.29	2566.47
562.64	2558.98
563.00	2550.60
563.35	2544.42
563.71	2537.56
564.06	2531.55
564.42	2525.15
564.77	2518.40
565.12	2510.55
565.48	2503.16
565.83	2495.05
566.19	2487.16
566.54	2479.55
566.89	2471.42
567.25	2464.33
567.60	2456.80
567.96	2449.12
568.31	2440.88
568.66	2431.99
569.02	2422.93
569.37	2414.87
569.72	2407.55
570.08	2398.43
570.43	2389.07
570.78	2379.64
571.14	2370.05
571.49	2359.85
571.84	2350.05
572.20	2338.96
572.55	2329.17
572.90	2318.15
573.26	2307.63
573.61	2296.10
573.96	2285.07
574.31	2273.15
574.67	2260.79
575.02	2248.18
575.37	2235.32
575.72	2221.95
576.08	2209.57
576.43	2197.25
576.78	2183.62
577.13	2169.68
577.49	2156.99
577.84	2145.06
578.19	2132.96
578.54	2120.90
578.90	2108.47
579.25	2096.17
579.60	2083.94
579.95	2070.81
580.30	2057.77
580.66	2044.33
581.01	2030.86
581.36	2016.74
581.71	2004.22
582.06	1991.47
582.42	1978.96
582.77	1966.28
583.12	1954.38
583.47	1942.24
583.82	1930.00
584.17	1918.15
584.53	1906.41
584.88	1893.22
585.23	1880.15
585.58	1865.82
585.93	1852.23
586.28	1838.75
586.63	1824.84
586.98	1810.33
587.34	1796.97
587.69	1783.69
588.04	1770.95
588.39	1758.75
588.74	1746.40
589.09	1734.04
589.44	1721.04
589.79	1708.88
590.14	1697.11
590.49	1685.10
590.84	1672.93
591.19	1660.69
591.54	1648.30
591.89	1635.93
592.25	1625.69
592.60	1613.95
592.95	1602.60
593.30	1590.24
593.65	1578.52
594.00	1566.31
594.35	1556.38
594.70	1544.64
595.05	1533.07
595.40	1521.10
595.75	1508.95
596.10	1497.98
596.45	1486.39
596.80	1475.46
597.15	1464.12
597.50	1451.80
597.85	1440.29
598.19	1428.65
598.54	1417.09
598.89	1405.92
599.24	1395.35
599.59	1383.45
599.94	1372.67
600.29	1361.93
600.64	1351.57
600.99	1340.72
601.34	1331.30
601.69	1320.30
602.04	1310.15
602.39	1300.32
602.74	1290.89
603.08	1281.63
603.43	1271.94
603.78	1261.96
604.13	1252.18
604.48	1242.11
604.83	1232.45
605.18	1222.63
605.53	1212.82
605.87	1203.45
606.22	1194.55
606.57	1185.07
606.92	1175.91
607.27	1166.83
607.62	1158.03
607.96	1149.44
608.31	1141.35
608.66	1132.63
609.01	1123.60
609.36	1115.10
609.70	1106.37
610.05	1097.53
610.40	1088.81
610.75	1079.95
611.10	1071.59
611.44	1062.98
611.79	1054.84
612.14	1047.20
612.49	1039.05
612.83	1031.75
613.18	1023.99
613.53	1016.26
613.88	1008.04
614.22	1000.31
614.57	992.28
614.92	984.48
615.27	977.03
615.61	969.23
615.96	961.38
616.31	954.17
616.65	946.99
617.00	939.62
617.35	932.41
617.70	925.30
618.04	918.23
618.39	911.26
618.74	904.77
619.08	897.69
619.43	890.33
619.78	883.17
620.12	875.82
620.47	869.00
620.82	861.57
621.16	854.92
621.51	848.38
621.85	841.96
622.20	835.35
622.55	828.33
622.89	821.76
623.24	815.41
623.59	808.79
623.93	802.31
624.28	796.19
624.62	790.51
624.97	784.59
625.32	778.73
625.66	772.73
626.01	766.55
626.35	760.97
626.70	755.41
627.04	750.25
627.39	744.50
627.73	739.00
628.08	733.99
628.43	728.50
628.77	723.09
629.12	717.76
629.46	712.87
629.81	708.32
630.15	703.59
630.50	698.75
630.84	693.87
631.19	689.09
631.53	684.50
631.88	679.21
632.22	674.19
632.57	669.64
632.91	665.00
633.26	660.57
633.60	655.99
633.95	651.31
634.29	646.33
634.64	642.08
634.98	637.31
635.32	632.86
635.67	628.77
636.01	624.34
636.36	620.03
636.70	616.02
637.05	611.75
637.39	607.49
637.73	603.36
638.08	599.41
638.42	595.19
638.77	590.77
639.11	586.41
639.45	582.15
639.80	577.78
640.14	573.53
640.49	569.54
640.83	565.52
641.17	561.90
641.52	558.25
641.86	554.61
642.20	551.34
642.55	547.59
642.89	543.92
643.23	540.58
643.58	537.46
643.92	533.69
644.26	530.20
644.61	527.00
644.95	523.66
645.29	520.12
645.64	516.94
645.98	513.85
646.32	510.83
646.66	507.79
647.01	504.77
647.35	502.01
647.69	499.08
648.04	496.31
648.38	493.43
648.72	490.50
649.06	487.50
649.41	484.30
649.75	481.36
650.09	478.48
650.43	475.37
650.78	472.30
651.12	469.36
651.46	466.55
651.80	463.70
652.14	460.81
652.49	458.43
652.83	455.81
653.17	452.97
653.51	450.35
653.85	447.90
654.20	445.34
654.54	442.70
654.88	440.03
655.22	437.71
655.56	435.20
655.90	432.87
656.25	430.56
656.59	428.24
656.93	426.02
657.27	423.90
657.61	421.49
657.95	419.31
658.29	417.24
658.64	415.19
658.98	412.94
659.32	410.69
659.66	408.31
660.00	406.15
660.34	404.20
660.68	402.11
661.02	399.97
661.36	398.05
661.70	396.02
662.05	394.03
662.39	392.03
662.73	390.15
663.07	388.42
663.41	386.49
663.75	384.65
664.09	382.80
664.43	380.80
664.77	379.27
665.11	377.31
665.45	375.54
665.79	373.88
666.13	372.00
666.47	370.42
666.81	368.89
667.15	367.16
667.49	365.61
667.83	364.25
668.17	362.69
668.51	361.11
668.85	359.69
669.19	358.56
669.53	356.94
669.87	355.37
670.21	353.84
670.55	352.35
670.89	351.18
671.23	349.80
671.57	348.35
671.91	346.91
672.25	345.64
672.58	344.48
672.92	342.98
673.26	341.86
673.60	340.69
673.94	339.45
674.28	338.34
674.62	337.19
674.96	335.85
675.30	334.75
675.64	333.61
675.97	332.43
676.31	331.08
676.65	329.85
676.99	328.92
677.33	327.74
677.67	326.71
678.01	325.33
678.34	324.20
678.68	323.26
679.02	322.19
679.36	321.25
679.70	320.16
680.04	319.27
680.37	318.24
680.71	317.20
681.05	316.26
681.39	315.37
681.73	314.34
682.06	313.51
682.40	312.70
682.74	311.88
683.08	311.16
683.42	310.19
683.75	309.52
684.09	308.59
684.43	307.84
684.77	306.95
685.10	306.32
685.44	305.58
685.78	304.83
686.12	304.08
686.45	303.26
686.79	302.35
687.13	301.57
687.46	300.85
687.80	300.19
688.14	299.33
688.48	298.52
688.81	297.85
689.15	297.11
689.49	296.30
689.82	295.64
690.16	294.71
690.50	294.08
690.83	293.29
691.17	292.51
691.51	291.83
691.84	291.36
692.18	290.61
692.52	289.96
692.85	289.43
693.19	288.98
693.52	288.30
693.86	287.71
694.20	287.10
694.53	286.57
694.87	285.86
695.21	285.25
695.54	284.70
695.88	283.99
696.21	283.22
696.55	282.70
696.88	282.00
697.22	281.47
697.56	280.91
697.89	280.27
698.23	279.85
698.56	279.22
698.90	278.68
699.23	278.08
699.57	277.59
699.90	276.86
700.24	276.20
700.58	275.80
700.91	275.43
701.25	275.34
701.58	275.15
701.92	274.84
702.25	274.43
702.59	273.96
702.92	273.56
703.26	273.31
703.59	272.87
703.93	272.78
704.26	272.44
704.60	272.04
704.93	271.68
705.26	271.16
705.60	270.85
705.93	270.31
706.27	270.09
706.60	269.79
706.94	269.64
707.27	269.20
707.61	268.81
707.94	268.43
708.27	267.68
708.61	266.96
708.94	266.53
709.28	266.13
709.61	265.64
709.94	265.39
710.28	265.01
710.61	264.67
710.95	263.96
711.28	263.78
711.61	263.45
711.95	263.22
712.28	262.88
712.61	262.54
712.95	262.49
713.28	262.38
713.61	261.94
713.95	261.41
714.28	261.06
714.61	260.70
714.95	260.25
715.28	259.84
715.61	259.43
715.95	259.06
716.28	258.68
716.61	258.55
716.95	258.10
717.28	257.70
717.61	257.25
717.94	256.97
718.28	256.42
718.61	256.08
718.94	255.65
719.27	255.37
719.61	255.07
719.94	254.74
720.27	254.11
720.60	253.85
720.94	253.64
721.27	253.50
721.60	253.29
721.93	253.08
722.27	253.09
722.60	252.92
722.93	252.67
723.26	252.57
723.59	252.24
723.93	252.21
724.26	252.10
724.59	251.92
724.92	251.71
725.25	251.61
725.59	251.34
725.92	251.26
726.25	251.04
726.58	250.81
726.91	250.49
727.24	250.43
727.57	250.21
727.91	249.91
728.24	249.69
728.57	249.43
728.90	249.30
729.23	248.96
729.56	249.02
729.89	248.81
730.22	248.50
730.55	248.33
730.89	248.10
731.22	247.87
731.55	247.73
731.88	247.55
732.21	247.26
732.54	247.17
732.87	247.00
733.20	246.87
733.53	246.72
733.86	246.61
734.19	246.30
734.52	246.23
734.85	246.42
735.18	246.21
735.51	246.26
735.84	246.14
736.17	246.09
736.50	245.65
736.83	246.13
737.16	246.06
737.49	245.96
737.82	245.72
738.15	245.65
738.48	245.52
738.81	245.39
739.14	245.23
739.47	244.97
739.80	244.72
740.13	244.63
740.46	244.48
740.79	244.23
741.12	244.07
741.45	243.84
741.78	243.40
742.11	243.35
742.44	243.03
742.77	242.93
743.10	242.73
743.43	242.66
743.75	242.00
744.08	242.46
744.41	242.21
744.74	242.06
745.07	241.76
745.40	241.64
745.73	241.67
746.06	241.61
746.39	241.63
746.71	241.52
747.04	241.32
747.37	241.15
747.70	241.16
748.03	241.15
748.36	241.09
748.68	241.11
749.01	240.91
749.34	240.85
749.67	240.76
750.00	240.63
750.33	240.79
750.65	240.71
750.98	239.91
751.31	239.92
751.64	239.84
751.97	240.02
752.29	239.90
752.62	239.58
752.95	239.47
753.28	239.24
753.60	239.12
753.93	239.07
754.26	239.06
754.59	238.73
754.91	238.47
755.24	238.33
755.57	238.19
755.90	238.05
756.22	237.89
756.55	237.62
756.88	237.43
757.20	237.05
757.53	236.78
757.86	236.81
758.19	236.67
758.51	236.58
758.84	236.21
759.17	236.09
759.49	236.02
759.82	236.06
760.15	236.08
760.47	235.96
760.80	235.79
761.13	235.73
761.45	235.69
761.78	235.65
762.11	235.59
762.43	235.37
762.76	235.31
763.08	235.33
763.41	235.25
763.74	235.19
764.06	235.12
764.39	235.02
764.71	234.91
765.04	234.76
765.37	234.64
765.69	234.59
766.02	234.47
766.34	234.35
766.67	234.16
767.00	234.17
767.32	234.36
767.65	234.58
767.97	234.44
768.30	234.38
768.62	234.40
768.95	234.35
769.27	234.30
769.60	234.36
769.92	234.24
770.25	234.16
770.57	234.06
770.90	233.95
771.22	233.91
771.55	233.83
771.87	233.82
772.20	233.74
772.52	234.05
772.85	234.65
773.17	234.63
773.50	234.53
773.82	234.35
774.15	234.02
774.47	233.71
774.80	233.65
775.12	233.57
775.45	233.53
775.77	233.45
776.09	233.44
776.42	233.34
776.74	233.41
777.07	233.34
777.39	233.28
777.72	233.23
778.04	233.23
778.36	233.19
778.69	233.16
779.01	233.18
779.33	232.73
779.66	232.06
779.98	231.99
780.31	232.00
780.63	232.16
780.95	232.29
781.28	232.17
781.60	232.14
781.92	232.12
782.25	232.00
782.57	231.90
782.89	231.87
783.22	231.80
783.54	231.63
783.86	231.64
784.19	231.58
784.51	231.65
784.83	231.54
785.16	231.49
785.48	231.49
785.80	231.35
786.12	231.35
786.45	231.37
786.77	231.37
787.09	231.32
787.42	231.11
787.74	231.06
788.06	231.09
788.38	231.00
788.71	230.90
789.03	230.88
789.35	230.88
789.67	230.76
789.99	230.73
790.32	230.63
790.64	230.68
790.96	231.04
791.28	230.79
791.61	230.81
791.93	230.77
792.25	230.66
792.57	231.01
792.89	230.91
793.21	230.85
793.54	230.72
793.86	230.61
794.18	230.60
794.50	230.47
794.82	230.41
795.14	230.45
795.47	230.57
795.79	230.51
796.11	230.41
796.43	230.42
796.75	230.37
797.07	230.39
797.39	230.28
797.71	229.97
798.04	230.01
798.36	229.95
798.68	229.90
799.00	229.94
799.32	229.66
799.64	229.76
799.96	229.75
800.28	229.89
800.60	229.83
800.92	229.84
801.24	229.80
801.56	229.83
801.89	229.73
802.21	229.72
802.53	229.68
802.85	229.80
803.17	229.92
803.49	229.90
803.81	229.78
804.13	229.78
804.45	229.68
804.77	229.77
805.09	229.77
805.41	229.69
805.73	229.59
806.05	229.56
806.37	229.41
806.69	229.36
807.01	229.25
807.33	229.29
807.65	229.10
807.97	229.29
808.28	229.23
808.60	229.17
808.92	229.11
809.24	229.34
809.56	229.23
809.88	229.04
810.20	229.00
810.52	229.11
810.84	229.00
811.16	228.90
811.48	228.70
811.80	228.81
812.12	228.80
812.43	228.87
812.75	228.81
813.07	228.83
813.39	228.81
813.71	228.77
814.03	228.68
814.35	228.72
814.67	228.56
814.98	228.50
815.30	228.59
815.62	228.49
815.94	228.16
816.26	228.28
816.58	228.24
816.89	228.16
817.21	228.10
817.53	228.17
817.85	228.22
818.17	228.26
818.48	228.10
818.80	228.29
819.12	228.21
819.44	228.14
819.76	228.15
820.07	228.19
820.39	228.14
820.71	228.21
821.03	228.18
821.34	228.10
821.66	228.17
821.98	228.24
822.30	228.19
822.61	228.53
822.93	228.46
823.25	228.43
823.57	228.49
823.88	228.55
824.20	228.50
824.52	228.62
824.83	228.69
825.15	228.67
825.47	228.60
825.79	228.66
826.10	228.68
826.42	228.64
826.74	228.64
827.05	228.65
827.37	228.71
827.69	228.73
828.00	228.78
828.32	228.75
828.64	228.65
828.95	228.95
829.27	228.83
829.58	228.71
829.90	228.80
830.22	228.81
830.53	228.68
830.85	228.67
831.17	228.51
831.48	228.44
831.80	228.46
832.11	228.40
832.43	228.30
832.75	228.30
833.06	228.55
833.38	228.41
833.69	228.34
834.01	228.22
834.32	228.21
834.64	228.16
834.96	228.18
835.27	228.17
835.59	227.98
835.90	227.79
836.22	227.75
836.53	227.71
836.85	227.68
837.16	228.15
837.48	228.08
837.79	228.25
838.11	228.23
838.42	228.16
838.74	228.18
839.05	228.13
839.37	228.10
839.68	227.83
840.00	227.84
840.31	227.90
840.63	227.85
840.94	227.77
841.26	227.69
841.57	227.62
841.88	227.61
842.20	227.54
842.51	227.48
842.83	227.51
843.14	227.96
843.46	227.91
843.77	227.62
844.08	227.68
844.40	227.50
844.71	227.49
845.03	227.45
845.34	227.44
845.65	227.46
845.97	227.36
846.28	227.35
846.60	227.43
846.91	227.36
847.22	227.34
847.54	227.46
847.85	227.44
848.16	227.35
848.48	227.28
848.79	227.53
849.10	227.59
849.42	227.61
849.73	227.08
850.04	227.09
850.36	226.88
850.67	226.87
850.98	226.85
851.30	226.89
851.61	226.89
851.92	226.84
852.23	227.00
852.55	227.10
852.86	227.16
853.17	227.08
853.49	227.22
853.80	227.29
854.11	227.37
854.42	227.51
854.74	227.50
855.05	227.54
855.36	227.22
855.67	227.31
855.99	227.37
856.30	228.03
856.61	228.03
856.92	228.06
857.23	228.07
857.55	228.12
857.86	228.12
858.17	228.29
858.48	228.22
858.79	228.05
859.11	228.12
859.42	228.09
859.73	228.13
860.04	228.15
860.35	228.02
860.66	227.83
860.98	227.79
861.29	227.88
861.60	227.78
861.91	227.92
862.22	227.84
862.53	227.72
862.84	227.12
863.16	227.25
863.47	227.20
863.78	227.17
864.09	227.15
864.40	227.12
864.71	227.00
865.02	227.04
865.33	227.09
865.64	226.99
865.95	226.98
866.27	227.24
866.58	227.10
866.89	227.24
867.20	227.23
867.51	227.14
867.82	227.13
868.13	227.33
868.44	227.18
868.75	227.31
869.06	227.35
869.37	227.51
869.68	227.38
869.99	227.52
870.30	227.56
870.61	227.62
870.92	227.59
871.23	227.60
871.54	227.72
871.85	227.81
872.16	227.78
872.47	227.77
872.78	227.50
873.09	227.60
873.40	227.52
873.71	227.55
874.02	227.58
874.33	227.54
874.64	227.45
874.95	227.57
875.26	227.37
875.56	227.31
875.87	227.19
876.18	227.12
876.49	227.48
876.80	227.44
877.11	227.34
877.42	227.32
877.73	227.34
878.04	227.14
878.35	227.09
878.66	227.16
878.96	227.14
879.27	227.07
879.58	227.02
879.89	227.03
880.20	227.18
880.51	227.20
880.82	227.22
881.12	227.23
881.43	227.14
881.74	227.11
882.05	227.09
882.36	227.07
882.67	227.16
882.97	226.69
883.28	226.66
883.59	226.68
883.90	226.68
884.21	226.75
884.51	226.87
884.82	226.74
885.13	226.70
885.44	226.70
885.74	226.73
886.05	226.76
886.36	226.76
886.67	226.58
886.98	226.81
887.28	226.87
887.59	226.90
887.90	226.87
888.20	226.91
888.51	227.04
888.82	226.93
889.13	226.96
889.43	227.33
889.74	227.35
890.05	227.33
890.35	227.29
890.66	227.23
890.97	227.16
891.28	227.20
891.58	227.20
891.89	227.16
892.20	227.17
892.50	227.09
892.81	227.08
893.12	227.07
893.42	226.80
893.73	226.73
894.04	226.64
894.34	226.73
894.65	226.70
894.95	226.67
895.26	226.69
895.57	226.86
895.87	226.49
896.18	226.52
896.48	226.55
896.79	226.55
897.10	226.60
897.40	226.69
897.71	226.71
898.01	226.71
898.32	226.83
898.63	226.78
898.93	226.77
899.24	226.83
899.54	226.89
899.85	226.92
900.15	226.96
900.46	227.00
900.76	227.05
901.07	227.08
901.38	227.07
901.68	227.25
901.99	227.01
902.29	227.04
902.60	227.04
902.90	227.05
903.21	227.11
903.51	227.03
903.82	227.08
904.12	227.11
904.43	227.13
904.73	227.14
905.03	227.24
905.34	227.73
905.64	227.63
905.95	227.57
906.25	227.52
906.56	227.50
906.86	227.57
907.17	227.50
907.47	227.52
907.77	227.41
908.08	227.25
908.38	227.21
908.69	227.21
908.99	227.25
909.30	227.21
909.60	227.19
909.90	227.20
910.21	227.09
910.51	227.05
910.81	227.00
911.12	226.93
911.42	226.89
911.73	226.38
912.03	226.42
912.33	226.53
912.64	226.50
912.94	226.49
913.24	226.32
913.55	226.28
913.85	226.19
914.15	226.22
914.46	226.27
914.76	226.28
915.06	226.30
915.37	226.25
915.67	226.19
915.97	226.20
916.27	226.12
916.58	226.11
916.88	226.05
917.18	226.05
917.49	226.37
917.79	226.30
918.09	226.36
918.39	226.51
918.70	226.47
919.00	226.53
919.30	226.75
919.60	226.76
919.91	226.70
920.21	226.75
920.51	226.69
920.81	226.63
921.12	226.74
921.42	226.68
921.72	226.65
922.02	226.70
922.32	226.78
922.63	226.82
922.93	226.99
923.23	227.07
923.53	227.01
923.83	226.67
924.13	226.79
924.44	226.79
924.74	226.79
925.04	226.86
925.34	226.83
925.64	226.64
925.94	226.73
926.24	227.02
926.55	226.96
926.85	227.15
927.15	227.21
927.45	227.20
927.75	227.25
928.05	227.34
928.35	227.35
928.65	227.40
928.95	227.44
929.26	227.30
929.56	227.36
929.86	227.44
930.16	227.49
930.46	227.43
930.76	227.51
931.06	227.34
931.36	227.26
931.66	227.34
931.96	227.41
932.26	227.35
932.56	227.20
932.86	227.24
933.16	227.17
933.46	227.13
933.76	227.10
934.06	227.17
934.36	227.30
934.66	227.34
934.96	227.26
935.26	227.30
935.56	227.36
935.86	227.26
936.16	227.23
936.46	227.15
936.76	227.13
937.06	227.07
937.36	227.19
937.66	227.18
937.96	227.13
938.26	227.07
938.56	227.06
938.86	227.05
939.16	227.22
939.46	227.28
939.76	227.25
940.06	227.23
940.35	227.16
940.65	226.98
940.95	226.97
941.25	226.93
941.55	226.85
941.85	226.87
942.15	226.90
942.45	227.02
942.75	227.01
943.04	227.08
943.34	227.12
943.64	227.06
943.94	227.02
944.24	227.04
944.54	227.02
944.84	227.05
945.13	227.00
945.43	226.88
945.73	226.84
946.03	226.88
946.33	226.83
946.62	226.76
946.92	226.63
947.22	226.76
947.52	226.80
947.82	226.85
948.11	226.77
948.41	226.73
948.71	226.68
949.01	226.75
949.31	226.64
949.60	226.64
949.90	226.62
950.20	226.64
950.50	226.67
950.79	226.58
951.09	226.63
951.39	226.64
951.69	226.56
951.98	226.64
952.28	226.56
952.58	226.54
952.87	226.58
953.17	226.69
953.47	226.55
953.76	226.52
954.06	226.46
954.36	226.38
954.66	226.42
954.95	226.49
955.25	226.45
955.55	226.55
955.84	226.49
956.14	226.52
956.44	226.45
956.73	226.40
957.03	226.47
957.32	226.41
957.62	226.38
957.92	226.51
958.21	226.40
958.51	227.05
958.81	227.11
959.10	227.14
959.40	227.30
959.69	227.26
959.99	227.33
960.29	227.32
960.58	227.32
960.88	227.44
961.17	227.41
961.47	227.43
961.76	227.36
962.06	227.42
962.36	227.37
962.65	227.47
962.95	227.42
963.24	227.35
963.54	227.35
963.83	227.34
964.13	227.30
964.42	227.22
964.72	226.73
965.01	226.72
965.31	226.64
965.60	226.44
965.90	226.73
966.19	226.55
966.49	226.54
966.78	226.48
967.08	226.44
967.37	226.40
967.67	226.38
967.96	226.44
968.26	226.37
968.55	226.42
968.85	226.37
969.14	226.42
969.43	226.45
969.73	226.44
970.02	226.46
970.32	226.44
970.61	226.47
970.91	226.41
971.20	226.39
971.49	226.44
971.79	226.55
972.08	226.22
972.38	226.28
972.67	226.34
972.96	226.46
973.26	226.39
973.55	226.50
973.85	226.49
974.14	226.50
974.43	226.57
974.73	226.49
975.02	226.42
975.31	226.45
975.61	226.45
975.90	226.44
976.19	226.35
976.49	226.38
976.78	226.43
977.07	226.40
977.37	226.42
977.66	226.43
977.95	226.39
978.24	226.40
978.54	226.58
978.83	226.55
979.12	226.53
979.42	226.53
979.71	226.45
980.00	226.46
980.29	226.43
980.59	226.35
980.88	226.48
981.17	226.54
981.46	226.54
981.76	226.54
982.05	226.64
982.34	226.72
982.63	226.84
982.93	226.84
983.22	226.99
983.51	227.03
983.80	227.11
984.09	227.22
984.39	227.25
984.68	227.16
984.97	227.14
985.26	227.10
985.55	227.13
985.85	227.04
986.14	227.10
986.43	227.12
986.72	227.13
987.01	227.04
987.30	227.03
987.59	227.00
987.89	227.01
988.18	226.87
988.47	226.82
988.76	226.68
989.05	226.59
989.34	226.39
989.63	226.48
989.92	226.40
990.22	226.26
990.51	226.25
990.80	226.23
991.09	226.29
991.38	226.35
991.67	226.30
991.96	226.31
992.25	226.30
992.54	226.21
992.83	226.28
993.12	226.27
993.41	226.36
993.70	226.57
993.99	226.71
994.28	226.81
994.58	226.86
994.87	226.80
995.16	226.86
995.45	226.93
995.74	226.81
996.03	226.89
996.32	226.98
996.61	227.02
996.90	226.98
997.19	226.88
997.48	226.84
997.77	226.79
998.06	226.80
998.34	226.80
998.63	226.85
998.92	226.83
999.21	226.86
999.50	226.80
999.79	226.57
1000.08	226.48
1000.37	226.44
1000.66	226.40
1000.95	226.49
1001.24	226.59
1001.53	226.63
1001.82	226.60
1002.11	226.46
1002.40	226.50
1002.68	226.68
1002.97	226.96
1003.26	227.01
1003.55	226.94
1003.84	226.96
1004.13	227.11
1004.42	227.09
1004.71	227.07
1004.99	226.99
1005.28	227.11
1005.57	227.15
1005.86	227.08
1006.15	227.00
1006.44	226.94
1006.72	227.01
1007.01	227.03
1007.30	226.92
1007.59	226.85
1007.88	226.79
1008.17	226.86
1008.45	226.73
1008.74	226.54
1009.03	226.37
1009.32	226.30
1009.60	226.34
1009.89	226.33
1010.18	226.14
1010.47	226.09
1010.76	226.02
1011.04	225.99
1011.33	225.91
1011.62	225.93
1011.91	226.08
1012.19	226.18
1012.48	226.14
1012.77	226.12
1013.05	226.27
1013.34	226.25
1013.63	226.24
1013.92	226.32
1014.20	226.28
1014.49	226.31
1014.78	226.25
1015.06	226.12
1015.35	226.13
1015.64	226.19
1015.92	226.32
1016.21	226.31
1016.50	226.34
1016.78	226.46
1017.07	226.50
1017.36	226.39
1017.64	226.27
1017.93	226.31
1018.22	226.24
1018.50	226.28
1018.79	226.26
1019.08	226.10
1019.36	226.15
1019.65	226.14
1019.93	226.21
1020.22	226.27
1020.51	226.52
1020.79	226.52
1021.08	226.00
1021.36	225.25
1021.65	225.95
1021.94	227.20
1022.22	226.50
1022.51	225.60
1022.79	228.10
1023.08	226.75
1023.36	232.10
1023.65	225.25
>>>>>End Processed Spectral Data<<<<<
