SpectraSuite Data File
++++++++++++++++++++++++++++++++++++
Date: Wed Sep 04 18:00:14 EDT 2013
User: lab3
Dark Spectrum Present: Yes
Reference Spectrum Present: No
Number of Sampled Component Spectra: 1
Spectrometers: USB2E7196
Integration Time (usec): 170000 (USB2E7196)
Spectra Averaged: 20 (USB2E7196)
Boxcar Smoothing: 10 (USB2E7196)
Correct for Electrical Dark: No (USB2E7196)
Strobe/Lamp Enabled: No (USB2E7196)
Correct for Detector Non-linearity: No (USB2E7196)
Correct for Stray Light: No (USB2E7196)
Number of Pixels in Processed Spectrum: 2048
>>>>>Begin Processed Spectral Data<<<<<
339.09	0.00
339.48	213.40
339.86	214.45
340.24	215.05
340.63	216.80
341.01	225.50
341.39	219.65
341.78	223.00
342.16	225.25
342.54	223.05
342.93	212.40
343.31	223.11
343.69	223.67
344.07	224.15
344.46	224.68
344.84	225.10
345.22	225.08
345.60	225.43
345.99	225.61
346.37	225.68
346.75	225.82
347.13	225.86
347.52	225.93
347.90	226.12
348.28	226.17
348.66	226.33
349.05	226.19
349.43	226.27
349.81	226.35
350.19	226.38
350.57	226.51
350.96	226.69
351.34	226.84
351.72	226.94
352.10	226.98
352.48	227.01
352.87	227.05
353.25	227.19
353.63	227.28
354.01	227.26
354.39	227.34
354.77	227.40
355.15	227.55
355.54	227.59
355.92	227.49
356.30	227.60
356.68	227.89
357.06	228.02
357.44	228.01
357.82	228.10
358.20	228.60
358.58	228.61
358.97	228.69
359.35	228.80
359.73	228.93
360.11	228.99
360.49	229.04
360.87	229.15
361.25	229.19
361.63	229.29
362.01	229.43
362.39	229.39
362.77	229.46
363.15	229.51
363.53	229.56
363.91	229.55
364.29	229.60
364.67	229.20
365.05	229.21
365.43	229.35
365.81	229.46
366.19	229.33
366.57	229.53
366.95	229.53
367.33	229.45
367.71	229.45
368.09	229.58
368.47	229.69
368.85	229.69
369.23	229.80
369.61	229.61
369.99	229.73
370.37	229.78
370.75	230.03
371.13	229.91
371.51	229.80
371.89	229.88
372.27	229.85
372.65	229.92
373.03	229.90
373.41	229.80
373.78	229.69
374.16	229.35
374.54	229.14
374.92	229.01
375.30	228.94
375.68	228.79
376.06	228.73
376.44	228.50
376.82	228.48
377.19	228.48
377.57	228.48
377.95	228.32
378.33	228.26
378.71	227.83
379.09	227.92
379.47	227.94
379.84	227.86
380.22	227.78
380.60	227.58
380.98	227.50
381.36	227.35
381.73	227.25
382.11	227.26
382.49	227.17
382.87	227.10
383.25	227.11
383.62	227.58
384.00	227.47
384.38	227.54
384.76	227.52
385.13	227.60
385.51	227.56
385.89	227.36
386.27	227.38
386.64	227.47
387.02	227.33
387.40	227.26
387.78	227.20
388.15	227.19
388.53	227.15
388.91	227.09
389.29	227.12
389.66	227.18
390.04	227.10
390.42	227.21
390.79	227.22
391.17	227.17
391.55	226.69
391.92	226.77
392.30	226.79
392.68	226.69
393.05	226.58
393.43	226.53
393.81	226.64
394.18	226.53
394.56	226.57
394.94	226.70
395.31	226.62
395.69	226.77
396.06	226.85
396.44	226.98
396.82	226.98
397.19	227.26
397.57	227.22
397.95	227.43
398.32	227.32
398.70	227.37
399.07	227.50
399.45	227.45
399.82	227.43
400.20	227.42
400.58	227.55
400.95	227.53
401.33	227.73
401.70	228.20
402.08	228.40
402.45	228.55
402.83	228.72
403.20	228.91
403.58	228.98
403.95	229.20
404.33	229.36
404.71	229.61
405.08	230.01
405.46	230.25
405.83	230.43
406.21	230.64
406.58	230.90
406.96	231.27
407.33	231.71
407.70	232.14
408.08	232.85
408.45	233.27
408.83	233.75
409.20	234.10
409.58	234.20
409.95	234.76
410.33	235.27
410.70	235.63
411.08	236.27
411.45	236.88
411.82	237.36
412.20	238.16
412.57	239.15
412.95	239.47
413.32	240.45
413.69	241.31
414.07	242.27
414.44	243.30
414.82	244.27
415.19	245.43
415.56	246.57
415.94	247.66
416.31	249.05
416.68	250.51
417.06	252.11
417.43	253.77
417.81	255.49
418.18	257.30
418.55	259.36
418.93	261.38
419.30	263.53
419.67	265.88
420.04	268.20
420.42	270.48
420.79	273.63
421.16	276.24
421.54	279.22
421.91	282.41
422.28	285.52
422.66	288.80
423.03	292.28
423.40	295.69
423.77	299.24
424.15	302.91
424.52	306.69
424.89	311.01
425.26	315.04
425.64	318.81
426.01	323.04
426.38	327.40
426.75	332.00
427.13	336.61
427.50	341.41
427.87	346.31
428.24	351.35
428.61	355.82
428.99	361.30
429.36	366.95
429.73	372.29
430.10	377.93
430.47	383.65
430.85	389.30
431.22	395.47
431.59	402.24
431.96	408.59
432.33	415.54
432.70	422.17
433.08	430.05
433.45	437.49
433.82	444.92
434.19	453.24
434.56	461.38
434.93	469.26
435.30	477.02
435.68	485.77
436.05	494.28
436.42	502.67
436.79	510.37
437.16	518.76
437.53	527.78
437.90	536.51
438.27	545.12
438.64	554.17
439.01	562.57
439.38	569.82
439.75	576.96
440.13	585.04
440.50	592.71
440.87	598.78
441.24	605.34
441.61	612.39
441.98	617.62
442.35	623.50
442.72	629.42
443.09	635.30
443.46	638.64
443.83	640.88
444.20	642.84
444.57	645.68
444.94	646.82
445.31	647.81
445.68	649.11
446.05	649.43
446.42	648.00
446.79	646.60
447.16	645.00
447.53	643.57
447.90	639.70
448.27	635.84
448.64	631.03
449.01	627.18
449.37	621.02
449.74	614.68
450.11	607.72
450.48	599.85
450.85	591.81
451.22	585.05
451.59	578.34
451.96	571.96
452.33	563.70
452.70	556.15
453.07	547.49
453.43	538.37
453.80	529.79
454.17	521.71
454.54	513.80
454.91	505.65
455.28	497.63
455.65	490.20
456.02	483.30
456.38	476.81
456.75	469.17
457.12	462.45
457.49	456.14
457.86	449.78
458.23	444.63
458.59	438.80
458.96	432.80
459.33	427.72
459.70	422.64
460.07	418.54
460.43	413.86
460.80	409.61
461.17	405.84
461.54	401.79
461.91	397.97
462.27	394.09
462.64	390.66
463.01	387.18
463.38	383.98
463.74	379.99
464.11	377.02
464.48	374.20
464.85	371.42
465.21	369.33
465.58	367.00
465.95	364.21
466.32	362.10
466.68	359.85
467.05	357.61
467.42	355.40
467.78	353.00
468.15	350.85
468.52	349.17
468.88	346.94
469.25	345.03
469.62	343.54
469.98	342.03
470.35	340.60
470.72	339.06
471.08	337.32
471.45	336.10
471.82	334.82
472.18	333.45
472.55	332.43
472.92	331.04
473.28	329.87
473.65	328.69
474.02	327.50
474.38	326.70
474.75	326.03
475.11	325.08
475.48	324.38
475.85	323.76
476.21	323.10
476.58	322.61
476.94	322.23
477.31	321.76
477.67	321.32
478.04	321.08
478.41	320.92
478.77	321.19
479.14	320.84
479.50	320.63
479.87	320.62
480.23	320.62
480.60	320.58
480.96	320.59
481.33	321.05
481.69	321.37
482.06	321.54
482.42	321.74
482.79	322.19
483.15	322.75
483.52	323.37
483.88	323.85
484.25	324.40
484.61	325.11
484.98	325.80
485.34	326.75
485.71	327.62
486.07	328.57
486.44	329.18
486.80	330.26
487.17	331.43
487.53	332.81
487.90	334.25
488.26	335.95
488.62	337.70
488.99	339.19
489.35	340.80
489.72	342.67
490.08	344.68
490.44	346.70
490.81	348.88
491.17	351.01
491.54	353.47
491.90	355.99
492.26	358.66
492.63	361.51
492.99	364.35
493.36	367.42
493.72	370.80
494.08	374.28
494.45	378.02
494.81	381.97
495.17	385.87
495.54	390.03
495.90	394.28
496.26	398.63
496.63	403.28
496.99	408.21
497.35	413.36
497.72	418.61
498.08	424.11
498.44	429.86
498.80	435.91
499.17	442.02
499.53	448.28
499.89	454.80
500.26	461.55
500.62	468.49
500.98	475.79
501.34	483.40
501.71	491.20
502.07	499.00
502.43	507.02
502.79	515.42
503.16	524.15
503.52	533.25
503.88	542.62
504.24	552.25
504.60	562.31
504.97	572.49
505.33	582.88
505.69	593.94
506.05	604.82
506.41	616.10
506.78	627.75
507.14	639.91
507.50	652.50
507.86	665.18
508.22	678.34
508.59	691.42
508.95	704.85
509.31	718.88
509.67	733.18
510.03	747.59
510.39	762.38
510.75	777.28
511.12	792.59
511.48	808.25
511.84	823.95
512.20	839.71
512.56	856.27
512.92	873.40
513.28	890.07
513.64	907.47
514.00	925.04
514.37	942.69
514.73	960.85
515.09	979.11
515.45	997.62
515.81	1015.91
516.17	1034.85
516.53	1053.60
516.89	1072.44
517.25	1091.93
517.61	1112.32
517.97	1132.68
518.33	1152.88
518.69	1173.31
519.05	1193.92
519.41	1214.85
519.77	1236.32
520.13	1257.05
520.49	1277.54
520.85	1300.19
521.21	1321.45
521.57	1342.74
521.93	1363.88
522.29	1385.18
522.65	1405.78
523.01	1426.60
523.37	1447.70
523.73	1468.64
524.09	1489.43
524.45	1510.30
524.81	1531.34
525.17	1552.06
525.53	1572.74
525.89	1593.97
526.25	1614.82
526.61	1635.41
526.97	1656.45
527.33	1677.61
527.68	1699.61
528.04	1720.82
528.40	1740.55
528.76	1761.90
529.12	1782.49
529.48	1803.35
529.84	1823.34
530.20	1844.49
530.56	1865.53
530.91	1886.64
531.27	1907.41
531.63	1928.12
531.99	1948.78
532.35	1968.88
532.71	1989.16
533.07	2009.79
533.42	2029.69
533.78	2049.63
534.14	2069.54
534.50	2088.91
534.86	2108.30
535.21	2125.87
535.57	2144.85
535.93	2162.65
536.29	2180.49
536.65	2198.67
537.00	2216.36
537.36	2234.42
537.72	2251.10
538.08	2268.55
538.44	2285.10
538.79	2301.52
539.15	2318.30
539.51	2334.69
539.87	2350.17
540.22	2364.35
540.58	2378.30
540.94	2391.55
541.29	2404.41
541.65	2417.09
542.01	2429.61
542.37	2440.21
542.72	2451.66
543.08	2462.40
543.44	2473.96
543.79	2483.97
544.15	2494.04
544.51	2504.28
544.87	2513.66
545.22	2522.73
545.58	2530.01
545.94	2537.54
546.29	2544.38
546.65	2550.67
547.01	2555.96
547.36	2561.55
547.72	2567.18
548.07	2571.65
548.43	2577.35
548.79	2581.86
549.14	2585.92
549.50	2589.93
549.86	2594.24
550.21	2597.94
550.57	2601.46
550.92	2603.47
551.28	2604.79
551.64	2607.10
551.99	2609.12
552.35	2611.05
552.70	2612.87
553.06	2615.08
553.41	2616.18
553.77	2617.74
554.13	2619.38
554.48	2620.98
554.84	2622.81
555.19	2623.96
555.55	2625.64
555.90	2624.75
556.26	2624.21
556.61	2622.65
556.97	2620.59
557.32	2620.11
557.68	2618.84
558.03	2617.26
558.39	2615.77
558.74	2615.12
559.10	2612.44
559.45	2608.91
559.81	2604.72
560.16	2600.21
560.52	2595.30
560.87	2590.82
561.23	2585.67
561.58	2579.69
561.94	2573.02
562.29	2565.06
562.64	2558.21
563.00	2550.04
563.35	2543.71
563.71	2536.91
564.06	2530.79
564.42	2524.17
564.77	2517.14
565.12	2509.49
565.48	2501.56
565.83	2493.55
566.19	2485.37
566.54	2476.97
566.89	2468.73
567.25	2460.63
567.60	2452.67
567.96	2445.26
568.31	2437.45
568.66	2428.52
569.02	2419.47
569.37	2411.57
569.72	2404.31
570.08	2394.83
570.43	2385.46
570.78	2376.40
571.14	2367.05
571.49	2356.84
571.84	2347.50
572.20	2336.14
572.55	2326.20
572.90	2315.33
573.26	2305.32
573.61	2294.35
573.96	2283.20
574.31	2271.60
574.67	2259.87
575.02	2247.39
575.37	2234.45
575.72	2221.22
576.08	2209.21
576.43	2196.68
576.78	2182.93
577.13	2168.67
577.49	2156.04
577.84	2144.04
578.19	2131.32
578.54	2118.64
578.90	2106.69
579.25	2093.77
579.60	2081.35
579.95	2068.19
580.30	2055.17
580.66	2041.15
581.01	2027.59
581.36	2013.64
581.71	2000.68
582.06	1987.59
582.42	1975.06
582.77	1962.39
583.12	1950.20
583.47	1937.90
583.82	1925.89
584.17	1914.12
584.53	1902.56
584.88	1889.30
585.23	1876.17
585.58	1862.12
585.93	1848.80
586.28	1835.38
586.63	1821.61
586.98	1807.38
587.34	1793.95
587.69	1780.25
588.04	1767.82
588.39	1755.51
588.74	1743.48
589.09	1731.35
589.44	1718.42
589.79	1706.29
590.14	1694.33
590.49	1682.22
590.84	1669.99
591.19	1657.72
591.54	1645.48
591.89	1633.07
592.25	1623.04
592.60	1611.52
592.95	1600.10
593.30	1588.06
593.65	1576.09
594.00	1564.14
594.35	1554.33
594.70	1542.59
595.05	1531.36
595.40	1519.19
595.75	1507.07
596.10	1495.75
596.45	1483.78
596.80	1472.88
597.15	1461.20
597.50	1449.23
597.85	1437.62
598.19	1425.82
598.54	1414.16
598.89	1402.79
599.24	1392.19
599.59	1380.31
599.94	1369.25
600.29	1358.80
600.64	1348.38
600.99	1337.48
601.34	1327.65
601.69	1316.20
602.04	1306.14
602.39	1296.39
602.74	1287.13
603.08	1277.88
603.43	1268.35
603.78	1258.84
604.13	1249.05
604.48	1239.50
604.83	1229.84
605.18	1220.00
605.53	1210.33
605.87	1201.12
606.22	1192.36
606.57	1183.03
606.92	1173.73
607.27	1164.90
607.62	1155.86
607.96	1147.21
608.31	1139.31
608.66	1130.95
609.01	1122.32
609.36	1113.80
609.70	1105.22
610.05	1096.50
610.40	1087.83
610.75	1079.06
611.10	1070.61
611.44	1062.22
611.79	1053.90
612.14	1045.90
612.49	1038.28
612.83	1030.90
613.18	1023.00
613.53	1015.02
613.88	1006.84
614.22	999.03
614.57	991.05
614.92	983.15
615.27	975.65
615.61	967.89
615.96	959.88
616.31	952.49
616.65	945.50
617.00	938.09
617.35	930.66
617.70	923.47
618.04	916.25
618.39	909.25
618.74	902.83
619.08	895.76
619.43	888.69
619.78	881.36
620.12	874.04
620.47	867.11
620.82	860.19
621.16	853.55
621.51	847.04
621.85	840.62
622.20	834.15
622.55	827.55
622.89	821.02
623.24	814.88
623.59	808.39
623.93	801.90
624.28	795.90
624.62	790.20
624.97	784.35
625.32	778.65
625.66	772.63
626.01	766.37
626.35	760.91
626.70	755.46
627.04	750.23
627.39	744.85
627.73	739.53
628.08	734.15
628.43	728.65
628.77	723.10
629.12	717.70
629.46	712.76
629.81	707.81
630.15	703.05
630.50	698.07
630.84	693.15
631.19	688.36
631.53	683.60
631.88	678.33
632.22	673.45
632.57	668.80
632.91	664.19
633.26	659.70
633.60	655.04
633.95	650.13
634.29	645.12
634.64	640.49
634.98	635.66
635.32	631.30
635.67	627.36
636.01	623.19
636.36	618.88
636.70	614.90
637.05	610.75
637.39	606.47
637.73	602.33
638.08	598.43
638.42	594.05
638.77	589.66
639.11	585.49
639.45	581.04
639.80	576.62
640.14	572.45
640.49	568.39
640.83	564.56
641.17	561.00
641.52	557.49
641.86	553.98
642.20	550.82
642.55	546.96
642.89	543.24
643.23	539.82
643.58	536.71
643.92	532.97
644.26	529.49
644.61	526.14
644.95	522.78
645.29	519.31
645.64	516.18
645.98	513.16
646.32	510.22
646.66	507.05
647.01	504.15
647.35	501.37
647.69	498.58
648.04	495.72
648.38	492.75
648.72	489.78
649.06	486.62
649.41	483.36
649.75	480.44
650.09	477.64
650.43	474.79
650.78	471.81
651.12	468.96
651.46	466.19
651.80	463.36
652.14	460.60
652.49	458.14
652.83	455.60
653.17	452.90
653.51	450.08
653.85	447.72
654.20	445.16
654.54	442.48
654.88	439.81
655.22	437.59
655.56	435.23
655.90	432.86
656.25	430.67
656.59	428.52
656.93	426.42
657.27	424.27
657.61	421.76
657.95	419.49
658.29	417.31
658.64	415.22
658.98	413.10
659.32	410.85
659.66	408.59
660.00	406.45
660.34	404.38
660.68	402.44
661.02	400.45
661.36	398.56
661.70	396.65
662.05	394.80
662.39	392.61
662.73	390.85
663.07	389.23
663.41	387.34
663.75	385.40
664.09	383.49
664.43	381.50
664.77	379.77
665.11	377.91
665.45	376.20
665.79	374.49
666.13	372.71
666.47	371.02
666.81	369.34
667.15	367.66
667.49	366.18
667.83	364.90
668.17	363.43
668.51	362.00
668.85	360.57
669.19	359.23
669.53	357.68
669.87	356.03
670.21	354.46
670.55	353.09
670.89	352.02
671.23	350.72
671.57	349.39
671.91	348.10
672.25	346.91
672.58	345.63
672.92	344.18
673.26	342.97
673.60	341.83
673.94	340.66
674.28	339.51
674.62	338.33
674.96	336.84
675.30	335.61
675.64	334.31
675.97	333.05
676.31	331.66
676.65	330.50
676.99	329.53
677.33	328.35
677.67	327.18
678.01	325.86
678.34	324.65
678.68	323.61
679.02	322.58
679.36	321.46
679.70	320.52
680.04	319.68
680.37	318.66
680.71	317.58
681.05	316.67
681.39	315.82
681.73	314.85
682.06	313.99
682.40	313.12
682.74	312.23
683.08	311.56
683.42	310.70
683.75	309.90
684.09	308.98
684.43	308.17
684.77	307.32
685.10	306.54
685.44	305.87
685.78	305.14
686.12	304.31
686.45	303.52
686.79	302.62
687.13	301.86
687.46	301.15
687.80	300.59
688.14	299.73
688.48	298.84
688.81	298.04
689.15	297.38
689.49	296.57
689.82	295.88
690.16	294.99
690.50	294.25
690.83	293.49
691.17	292.67
691.51	291.99
691.84	291.39
692.18	290.67
692.52	289.86
692.85	289.21
693.19	288.75
693.52	288.16
693.86	287.49
694.20	286.77
694.53	286.05
694.87	285.31
695.21	284.72
695.54	284.15
695.88	283.54
696.21	282.81
696.55	282.26
696.88	281.64
697.22	281.00
697.56	280.51
697.89	279.93
698.23	279.38
698.56	278.78
698.90	278.22
699.23	277.68
699.57	277.19
699.90	276.54
700.24	275.84
700.58	275.40
700.91	274.91
701.25	274.89
701.58	274.78
701.92	274.40
702.25	273.91
702.59	273.44
702.92	272.99
703.26	272.58
703.59	272.17
703.93	272.12
704.26	271.66
704.60	271.25
704.93	270.81
705.26	270.47
705.60	270.10
705.93	269.61
706.27	269.24
706.60	268.95
706.94	268.75
707.27	268.42
707.61	267.99
707.94	267.58
708.27	266.70
708.61	266.03
708.94	265.59
709.28	265.23
709.61	264.81
709.94	264.47
710.28	264.10
710.61	263.65
710.95	262.86
711.28	262.94
711.61	262.60
711.95	262.40
712.28	261.94
712.61	261.62
712.95	261.58
713.28	261.50
713.61	261.20
713.95	260.77
714.28	260.39
714.61	260.11
714.95	259.87
715.28	259.56
715.61	259.25
715.95	258.93
716.28	258.57
716.61	258.37
716.95	258.05
717.28	257.76
717.61	257.51
717.94	257.16
718.28	256.51
718.61	256.18
718.94	255.88
719.27	255.61
719.61	255.35
719.94	254.95
720.27	254.45
720.60	254.20
720.94	253.97
721.27	253.83
721.60	253.58
721.93	253.29
722.27	253.26
722.60	253.04
722.93	252.77
723.26	252.57
723.59	252.26
723.93	252.12
724.26	251.96
724.59	251.75
724.92	251.66
725.25	251.58
725.59	251.44
725.92	251.24
726.25	251.04
726.58	250.83
726.91	250.59
727.24	250.46
727.57	250.14
727.91	249.85
728.24	249.59
728.57	249.29
728.90	249.08
729.23	248.74
729.56	248.71
729.89	248.55
730.22	248.39
730.55	248.19
730.89	247.92
731.22	247.64
731.55	247.48
731.88	247.26
732.21	246.95
732.54	246.73
732.87	246.48
733.20	246.35
733.53	246.20
733.86	246.07
734.19	245.79
734.52	245.61
734.85	245.73
735.18	245.50
735.51	245.52
735.84	245.34
736.17	245.25
736.50	244.92
736.83	245.27
737.16	245.05
737.49	244.94
737.82	244.66
738.15	244.56
738.48	244.36
738.81	244.19
739.14	243.95
739.47	243.76
739.80	243.57
740.13	243.48
740.46	243.21
740.79	242.98
741.12	242.83
741.45	242.66
741.78	242.23
742.11	242.27
742.44	242.02
742.77	241.95
743.10	241.71
743.43	241.50
743.75	240.86
744.08	241.36
744.41	241.15
744.74	241.12
745.07	240.90
745.40	240.84
745.73	240.90
746.06	240.82
746.39	240.71
746.71	240.55
747.04	240.39
747.37	240.28
747.70	240.26
748.03	240.16
748.36	240.11
748.68	240.00
749.01	239.70
749.34	239.53
749.67	239.45
750.00	239.44
750.33	239.75
750.65	239.76
750.98	239.03
751.31	238.95
751.64	238.90
751.97	239.06
752.29	238.90
752.62	238.64
752.95	238.52
753.28	238.41
753.60	238.42
753.93	238.43
754.26	238.41
754.59	238.18
754.91	238.06
755.24	237.96
755.57	237.90
755.90	237.83
756.22	237.70
756.55	237.55
756.88	237.33
757.20	236.93
757.53	236.60
757.86	236.53
758.19	236.52
758.51	236.39
758.84	236.04
759.17	235.90
759.49	235.82
759.82	235.91
760.15	235.84
760.47	235.71
760.80	235.46
761.13	235.39
761.45	235.28
761.78	235.21
762.11	235.20
762.43	235.04
762.76	234.94
763.08	234.96
763.41	234.93
763.74	234.94
764.06	234.81
764.39	234.79
764.71	234.72
765.04	234.63
765.37	234.56
765.69	234.48
766.02	234.33
766.34	234.20
766.67	233.98
767.00	234.05
767.32	234.21
767.65	234.43
767.97	234.36
768.30	234.33
768.62	234.27
768.95	234.10
769.27	234.02
769.60	234.04
769.92	233.90
770.25	233.75
770.57	233.62
770.90	233.50
771.22	233.45
771.55	233.46
771.87	233.39
772.20	233.27
772.52	233.68
772.85	234.24
773.17	234.17
773.50	234.08
773.82	233.88
774.15	233.60
774.47	233.23
774.80	233.13
775.12	233.09
775.45	233.01
775.77	232.97
776.09	233.08
776.42	233.05
776.74	233.12
777.07	233.05
777.39	232.94
777.72	232.83
778.04	232.89
778.36	232.73
778.69	232.68
779.01	232.70
779.33	232.26
779.66	231.70
779.98	231.73
780.31	231.72
780.63	231.89
780.95	231.94
781.28	231.91
781.60	231.84
781.92	231.84
782.25	231.85
782.57	231.90
782.89	231.73
783.22	231.59
783.54	231.45
783.86	231.42
784.19	231.38
784.51	231.54
784.83	231.37
785.16	231.32
785.48	231.29
785.80	231.29
786.12	231.30
786.45	231.26
786.77	231.24
787.09	231.27
787.42	231.00
787.74	231.03
788.06	231.09
788.38	231.03
788.71	230.92
789.03	230.84
789.35	230.89
789.67	230.81
789.99	230.94
790.32	230.92
790.64	230.96
790.96	231.32
791.28	231.18
791.61	231.16
791.93	231.25
792.25	231.18
792.57	231.47
792.89	231.30
793.21	231.37
793.54	231.29
793.86	231.15
794.18	231.27
794.50	231.05
794.82	230.97
795.14	231.00
795.47	231.14
795.79	231.17
796.11	231.01
796.43	231.00
796.75	230.89
797.07	230.85
797.39	230.84
797.71	230.49
798.04	230.52
798.36	230.52
798.68	230.42
799.00	230.45
799.32	230.16
799.64	230.22
799.96	230.11
800.28	230.16
800.60	230.16
800.92	230.15
801.24	230.22
801.56	230.30
801.89	230.25
802.21	230.19
802.53	230.00
802.85	230.04
803.17	230.26
803.49	230.12
803.81	230.10
804.13	230.07
804.45	230.00
804.77	230.02
805.09	230.05
805.41	229.98
805.73	229.87
806.05	229.77
806.37	229.76
806.69	229.76
807.01	229.75
807.33	229.77
807.65	229.59
807.97	229.74
808.28	229.66
808.60	229.62
808.92	229.54
809.24	229.86
809.56	229.80
809.88	229.59
810.20	229.62
810.52	229.65
810.84	229.51
811.16	229.51
811.48	229.45
811.80	229.62
812.12	229.67
812.43	229.77
812.75	229.77
813.07	229.67
813.39	229.72
813.71	229.55
814.03	229.45
814.35	229.41
814.67	229.13
814.98	229.08
815.30	229.04
815.62	228.92
815.94	228.61
816.26	228.76
816.58	228.67
816.89	228.70
817.21	228.60
817.53	228.67
817.85	228.61
818.17	228.56
818.48	228.26
818.80	228.33
819.12	228.23
819.44	228.15
819.76	228.16
820.07	228.03
820.39	228.05
820.71	228.13
821.03	228.16
821.34	228.13
821.66	228.20
821.98	228.27
822.30	228.31
822.61	228.65
822.93	228.40
823.25	228.40
823.57	228.37
823.88	228.50
824.20	228.50
824.52	228.55
824.83	228.56
825.15	228.54
825.47	228.46
825.79	228.47
826.10	228.51
826.42	228.49
826.74	228.58
827.05	228.53
827.37	228.54
827.69	228.52
828.00	228.55
828.32	228.54
828.64	228.41
828.95	228.64
829.27	228.42
829.58	228.43
829.90	228.46
830.22	228.50
830.53	228.38
830.85	228.24
831.17	228.14
831.48	228.15
831.80	228.17
832.11	228.16
832.43	228.09
832.75	228.03
833.06	228.33
833.38	228.20
833.69	228.30
834.01	228.30
834.32	228.23
834.64	228.24
834.96	228.18
835.27	228.23
835.59	228.05
835.90	228.04
836.22	228.10
836.53	228.00
836.85	227.96
837.16	228.38
837.48	228.36
837.79	228.42
838.11	228.39
838.42	228.37
838.74	228.42
839.05	228.35
839.37	228.35
839.68	227.96
840.00	227.95
840.31	227.94
840.63	227.84
840.94	227.78
841.26	227.71
841.57	227.67
841.88	227.70
842.20	227.65
842.51	227.51
842.83	227.40
843.14	227.90
843.46	227.85
843.77	227.57
844.08	227.69
844.40	227.60
844.71	227.53
845.03	227.48
845.34	227.38
845.65	227.45
845.97	227.46
846.28	227.58
846.60	227.63
846.91	227.55
847.22	227.60
847.54	227.72
847.85	227.75
848.16	227.73
848.48	227.67
848.79	227.90
849.10	227.99
849.42	228.01
849.73	227.48
850.04	227.48
850.36	227.36
850.67	227.40
850.98	227.42
851.30	227.56
851.61	227.51
851.92	227.50
852.23	227.59
852.55	227.55
852.86	227.50
853.17	227.49
853.49	227.65
853.80	227.77
854.11	227.87
854.42	227.94
854.74	227.95
855.05	227.96
855.36	227.69
855.67	227.69
855.99	227.75
856.30	228.32
856.61	228.30
856.92	228.27
857.23	228.22
857.55	228.20
857.86	228.11
858.17	228.27
858.48	228.20
858.79	228.11
859.11	228.12
859.42	228.13
859.73	228.02
860.04	227.93
860.35	227.69
860.66	227.49
860.98	227.45
861.29	227.40
861.60	227.35
861.91	227.45
862.22	227.34
862.53	227.21
862.84	226.71
863.16	226.79
863.47	226.73
863.78	226.65
864.09	226.62
864.40	226.62
864.71	226.59
865.02	226.64
865.33	226.55
865.64	226.51
865.95	226.49
866.27	226.87
866.58	226.84
866.89	226.94
867.20	226.95
867.51	226.87
867.82	226.85
868.13	226.96
868.44	226.81
868.75	226.91
869.06	226.95
869.37	227.00
869.68	226.85
869.99	226.94
870.30	227.05
870.61	227.11
870.92	227.06
871.23	227.04
871.54	227.07
871.85	227.18
872.16	227.25
872.47	227.25
872.78	226.95
873.09	227.03
873.40	226.90
873.71	226.89
874.02	226.93
874.33	226.89
874.64	226.80
874.95	226.96
875.26	226.84
875.56	226.83
875.87	226.77
876.18	226.81
876.49	227.31
876.80	227.24
877.11	227.23
877.42	227.24
877.73	227.27
878.04	227.23
878.35	227.23
878.66	227.15
878.96	227.17
879.27	227.12
879.58	227.05
879.89	227.11
880.20	227.27
880.51	227.31
880.82	227.36
881.12	227.40
881.43	227.28
881.74	227.26
882.05	227.24
882.36	227.29
882.67	227.28
882.97	226.68
883.28	226.66
883.59	226.62
883.90	226.74
884.21	226.75
884.51	226.76
884.82	226.73
885.13	226.80
885.44	226.73
885.74	226.81
886.05	226.83
886.36	226.76
886.67	226.61
886.98	226.87
887.28	226.90
887.59	226.90
887.90	226.90
888.20	226.89
888.51	226.93
888.82	226.88
889.13	226.99
889.43	227.45
889.74	227.40
890.05	227.46
890.35	227.35
890.66	227.32
890.97	227.23
891.28	227.11
891.58	227.10
891.89	227.16
892.20	227.04
892.50	226.95
892.81	227.03
893.12	227.06
893.42	226.72
893.73	226.73
894.04	226.69
894.34	226.73
894.65	226.76
894.95	226.75
895.26	226.77
895.57	226.95
895.87	226.47
896.18	226.64
896.48	226.67
896.79	226.71
897.10	226.78
897.40	226.82
897.71	227.00
898.01	226.94
898.32	226.99
898.63	227.04
898.93	227.11
899.24	227.01
899.54	226.89
899.85	226.94
900.15	226.90
900.46	226.88
900.76	226.94
901.07	226.88
901.38	226.90
901.68	226.98
901.99	226.73
902.29	226.85
902.60	226.68
902.90	226.53
903.21	226.50
903.51	226.41
903.82	226.52
904.12	226.49
904.43	226.52
904.73	226.47
905.03	226.45
905.34	226.89
905.64	226.86
905.95	226.87
906.25	226.90
906.56	226.86
906.86	226.87
907.17	226.79
907.47	226.86
907.77	226.72
908.08	226.57
908.38	226.51
908.69	226.49
908.99	226.57
909.30	226.59
909.60	226.54
909.90	226.55
910.21	226.36
910.51	226.24
910.81	226.24
911.12	226.25
911.42	226.22
911.73	225.67
912.03	225.78
912.33	225.97
912.64	225.87
912.94	225.90
913.24	225.82
913.55	225.75
913.85	225.68
914.15	225.88
914.46	225.99
914.76	226.00
915.06	225.97
915.37	225.89
915.67	225.94
915.97	225.97
916.27	225.93
916.58	225.97
916.88	225.98
917.18	225.95
917.49	226.26
917.79	226.28
918.09	226.42
918.39	226.53
918.70	226.49
919.00	226.54
919.30	226.77
919.60	226.76
919.91	226.80
920.21	226.82
920.51	226.71
920.81	226.63
921.12	226.72
921.42	226.73
921.72	226.74
922.02	226.75
922.32	226.89
922.63	226.85
922.93	227.11
923.23	227.16
923.53	227.12
923.83	226.75
924.13	226.77
924.44	226.78
924.74	226.89
925.04	226.95
925.34	226.90
925.64	226.71
925.94	226.79
926.24	227.01
926.55	227.05
926.85	227.10
927.15	227.16
927.45	227.18
927.75	227.09
928.05	227.20
928.35	227.15
928.65	227.21
928.95	227.28
929.26	227.13
929.56	227.18
929.86	227.23
930.16	227.31
930.46	227.33
930.76	227.30
931.06	227.00
931.36	226.96
931.66	227.14
931.96	227.15
932.26	227.11
932.56	226.93
932.86	226.95
933.16	226.92
933.46	226.82
933.76	226.76
934.06	226.95
934.36	227.13
934.66	227.09
934.96	226.96
935.26	226.99
935.56	227.10
935.86	227.00
936.16	226.96
936.46	226.89
936.76	226.89
937.06	226.81
937.36	226.86
937.66	226.86
937.96	226.76
938.26	226.68
938.56	226.65
938.86	226.63
939.16	226.71
939.46	226.74
939.76	226.76
940.06	226.72
940.35	226.57
940.65	226.29
940.95	226.38
941.25	226.30
941.55	226.31
941.85	226.26
942.15	226.38
942.45	226.49
942.75	226.44
943.04	226.41
943.34	226.52
943.64	226.52
943.94	226.48
944.24	226.44
944.54	226.44
944.84	226.44
945.13	226.39
945.43	226.27
945.73	226.26
946.03	226.31
946.33	226.30
946.62	226.25
946.92	226.20
947.22	226.17
947.52	226.27
947.82	226.30
948.11	226.23
948.41	226.09
948.71	226.03
949.01	226.10
949.31	226.13
949.60	226.05
949.90	226.15
950.20	226.14
950.50	226.16
950.79	226.17
951.09	226.29
951.39	226.32
951.69	226.33
951.98	226.47
952.28	226.44
952.58	226.46
952.87	226.47
953.17	226.60
953.47	226.55
953.76	226.47
954.06	226.34
954.36	226.16
954.66	226.21
954.95	226.32
955.25	226.35
955.55	226.31
955.84	226.23
956.14	226.19
956.44	226.15
956.73	226.14
957.03	226.18
957.32	226.13
957.62	226.16
957.92	226.22
958.21	226.16
958.51	226.69
958.81	226.70
959.10	226.81
959.40	226.96
959.69	227.00
959.99	227.14
960.29	227.16
960.58	227.23
960.88	227.37
961.17	227.32
961.47	227.34
961.76	227.37
962.06	227.50
962.36	227.48
962.65	227.53
962.95	227.53
963.24	227.47
963.54	227.47
963.83	227.43
964.13	227.44
964.42	227.27
964.72	226.89
965.01	226.96
965.31	226.88
965.60	226.75
965.90	227.05
966.19	226.88
966.49	226.94
966.78	226.96
967.08	226.92
967.37	226.89
967.67	226.77
967.96	226.85
968.26	226.84
968.55	226.84
968.85	226.79
969.14	226.72
969.43	226.73
969.73	226.72
970.02	226.79
970.32	226.70
970.61	226.69
970.91	226.53
971.20	226.44
971.49	226.40
971.79	226.44
972.08	226.10
972.38	226.17
972.67	226.06
972.96	226.13
973.26	226.06
973.55	226.22
973.85	226.24
974.14	226.15
974.43	226.17
974.73	226.13
975.02	226.10
975.31	226.19
975.61	226.19
975.90	226.17
976.19	226.09
976.49	226.17
976.78	226.24
977.07	226.26
977.37	226.31
977.66	226.36
977.95	226.30
978.24	226.35
978.54	226.42
978.83	226.47
979.12	226.44
979.42	226.39
979.71	226.29
980.00	226.27
980.29	226.27
980.59	226.18
980.88	226.23
981.17	226.20
981.46	226.18
981.76	226.17
982.05	226.30
982.34	226.29
982.63	226.27
982.93	226.18
983.22	226.26
983.51	226.13
983.80	226.25
984.09	226.27
984.39	226.24
984.68	226.16
984.97	226.19
985.26	226.16
985.55	226.18
985.85	226.06
986.14	226.17
986.43	226.24
986.72	226.22
987.01	226.11
987.30	226.17
987.59	226.13
987.89	226.15
988.18	226.05
988.47	226.03
988.76	226.00
989.05	226.03
989.34	225.98
989.63	226.20
989.92	226.08
990.22	226.10
990.51	226.04
990.80	225.99
991.09	226.02
991.38	226.10
991.67	226.07
991.96	226.01
992.25	226.05
992.54	225.93
992.83	225.96
993.12	225.95
993.41	226.05
993.70	226.24
993.99	226.30
994.28	226.31
994.58	226.35
994.87	226.35
995.16	226.32
995.45	226.32
995.74	226.21
996.03	226.24
996.32	226.29
996.61	226.42
996.90	226.38
997.19	226.39
997.48	226.39
997.77	226.37
998.06	226.50
998.34	226.41
998.63	226.48
998.92	226.53
999.21	226.65
999.50	226.65
999.79	226.45
1000.08	226.45
1000.37	226.52
1000.66	226.47
1000.95	226.55
1001.24	226.65
1001.53	226.64
1001.82	226.57
1002.11	226.50
1002.40	226.45
1002.68	226.60
1002.97	226.97
1003.26	226.85
1003.55	226.78
1003.84	226.81
1004.13	227.01
1004.42	227.06
1004.71	227.06
1004.99	227.02
1005.28	227.10
1005.57	227.08
1005.86	227.15
1006.15	227.08
1006.44	226.97
1006.72	227.09
1007.01	226.98
1007.30	226.93
1007.59	226.95
1007.88	226.92
1008.17	226.98
1008.45	226.89
1008.74	226.68
1009.03	226.45
1009.32	226.42
1009.60	226.48
1009.89	226.46
1010.18	226.17
1010.47	226.04
1010.76	226.02
1011.04	225.95
1011.33	225.93
1011.62	225.89
1011.91	225.85
1012.19	225.89
1012.48	225.90
1012.77	225.87
1013.05	226.16
1013.34	226.10
1013.63	226.08
1013.92	226.16
1014.20	226.06
1014.49	226.09
1014.78	226.11
1015.06	226.00
1015.35	226.01
1015.64	226.02
1015.92	226.07
1016.21	226.10
1016.50	226.21
1016.78	226.22
1017.07	226.26
1017.36	226.14
1017.64	226.08
1017.93	226.13
1018.22	226.06
1018.50	226.08
1018.79	226.05
1019.08	225.77
1019.36	225.86
1019.65	225.79
1019.93	225.89
1020.22	226.00
1020.51	226.18
1020.79	226.12
1021.08	225.20
1021.36	226.15
1021.65	225.85
1021.94	225.50
1022.22	226.35
1022.51	224.95
1022.79	228.45
1023.08	226.40
1023.36	230.15
1023.65	224.80
>>>>>End Processed Spectral Data<<<<<
