SpectraSuite Data File
++++++++++++++++++++++++++++++++++++
Date: Wed Sep 04 17:40:55 EDT 2013
User: lab3
Dark Spectrum Present: Yes
Reference Spectrum Present: No
Number of Sampled Component Spectra: 1
Spectrometers: USB2E7196
Integration Time (usec): 170000 (USB2E7196)
Spectra Averaged: 20 (USB2E7196)
Boxcar Smoothing: 10 (USB2E7196)
Correct for Electrical Dark: No (USB2E7196)
Strobe/Lamp Enabled: No (USB2E7196)
Correct for Detector Non-linearity: No (USB2E7196)
Correct for Stray Light: No (USB2E7196)
Number of Pixels in Processed Spectrum: 2048
>>>>>Begin Processed Spectral Data<<<<<
339.09	0.00
339.48	212.95
339.86	213.05
340.24	214.65
340.63	216.50
341.01	224.25
341.39	219.85
341.78	222.05
342.16	224.25
342.54	223.20
342.93	211.91
343.31	222.58
343.69	223.12
344.07	223.59
344.46	224.13
344.84	224.57
345.22	224.56
345.60	224.72
345.99	224.88
346.37	224.97
346.75	225.00
347.13	225.02
347.52	225.21
347.90	225.41
348.28	225.34
348.66	225.49
349.05	225.30
349.43	225.35
349.81	225.34
350.19	225.31
350.57	225.36
350.96	225.46
351.34	225.51
351.72	225.65
352.10	225.76
352.48	225.75
352.87	225.78
353.25	225.89
353.63	226.02
354.01	226.08
354.39	226.08
354.77	226.17
355.15	226.37
355.54	226.34
355.92	226.20
356.30	226.37
356.68	226.67
357.06	226.71
357.44	226.76
357.82	226.84
358.20	227.36
358.58	227.35
358.97	227.42
359.35	227.58
359.73	227.63
360.11	227.69
360.49	227.77
360.87	227.83
361.25	227.87
361.63	228.06
362.01	228.09
362.39	228.10
362.77	228.20
363.15	228.19
363.53	228.24
363.91	228.31
364.29	228.24
364.67	227.89
365.05	228.01
365.43	228.07
365.81	228.17
366.19	228.04
366.57	228.28
366.95	228.28
367.33	228.26
367.71	228.28
368.09	228.43
368.47	228.44
368.85	228.40
369.23	228.50
369.61	228.31
369.99	228.44
370.37	228.56
370.75	228.80
371.13	228.60
371.51	228.50
371.89	228.56
372.27	228.59
372.65	228.56
373.03	228.55
373.41	228.45
373.78	228.38
374.16	228.06
374.54	227.82
374.92	227.71
375.30	227.65
375.68	227.50
376.06	227.35
376.44	227.25
376.82	227.21
377.19	227.14
377.57	227.10
377.95	226.90
378.33	226.73
378.71	226.33
379.09	226.42
379.47	226.49
379.84	226.36
380.22	226.29
380.60	226.16
380.98	226.03
381.36	225.94
381.73	225.81
382.11	225.80
382.49	225.82
382.87	225.70
383.25	225.59
383.62	226.09
384.00	225.95
384.38	225.89
384.76	225.97
385.13	226.07
385.51	226.02
385.89	225.92
386.27	225.96
386.64	226.00
387.02	225.81
387.40	225.67
387.78	225.65
388.15	225.58
388.53	225.48
388.91	225.44
389.29	225.37
389.66	225.40
390.04	225.29
390.42	225.26
390.79	225.19
391.17	225.19
391.55	224.64
391.92	224.66
392.30	224.70
392.68	224.58
393.05	224.53
393.43	224.54
393.81	224.57
394.18	224.44
394.56	224.45
394.94	224.69
395.31	224.64
395.69	224.78
396.06	224.90
396.44	225.00
396.82	224.92
397.19	225.17
397.57	225.11
397.95	225.35
398.32	225.28
398.70	225.46
399.07	225.61
399.45	225.65
399.82	225.68
400.20	225.77
400.58	225.80
400.95	225.71
401.33	225.89
401.70	226.36
402.08	226.61
402.45	226.68
402.83	226.86
403.20	227.03
403.58	227.05
403.95	227.29
404.33	227.52
404.71	227.78
405.08	228.20
405.46	228.47
405.83	228.59
406.21	228.84
406.58	229.08
406.96	229.31
407.33	229.65
407.70	230.08
408.08	230.71
408.45	231.18
408.83	231.63
409.20	231.96
409.58	232.07
409.95	232.51
410.33	232.99
410.70	233.33
411.08	233.91
411.45	234.50
411.82	234.95
412.20	235.65
412.57	236.61
412.95	236.83
413.32	237.62
413.69	238.30
414.07	239.15
414.44	240.04
414.82	240.96
415.19	242.03
415.56	242.91
415.94	243.79
416.31	244.92
416.68	246.11
417.06	247.49
417.43	248.88
417.81	250.25
418.18	251.84
418.55	253.50
418.93	255.18
419.30	256.96
419.67	258.91
420.04	260.79
420.42	262.61
420.79	265.28
421.16	267.56
421.54	270.12
421.91	272.56
422.28	275.12
422.66	277.78
423.03	280.63
423.40	283.49
423.77	286.36
424.15	289.39
424.52	292.55
424.89	296.01
425.26	299.25
425.64	302.50
426.01	305.85
426.38	309.44
426.75	313.20
427.13	316.99
427.50	320.90
427.87	324.88
428.24	328.90
428.61	332.64
428.99	337.14
429.36	341.60
429.73	346.22
430.10	350.76
430.47	355.47
430.85	360.06
431.22	365.27
431.59	370.89
431.96	376.03
432.33	381.81
432.70	387.42
433.08	393.85
433.45	399.96
433.82	406.13
434.19	412.88
434.56	419.69
434.93	426.02
435.30	432.36
435.68	439.51
436.05	446.55
436.42	453.39
436.79	459.72
437.16	466.71
437.53	474.02
437.90	481.17
438.27	488.30
438.64	495.73
439.01	502.52
439.38	508.51
439.75	514.54
440.13	521.18
440.50	527.42
440.87	532.56
441.24	537.95
441.61	543.91
441.98	548.20
442.35	552.87
442.72	557.81
443.09	562.75
443.46	565.57
443.83	567.57
444.20	569.22
444.57	571.43
444.94	572.50
445.31	573.43
445.68	574.79
446.05	574.94
446.42	573.96
446.79	572.97
447.16	571.67
447.53	570.67
447.90	567.68
448.27	564.63
448.64	560.63
449.01	557.47
449.37	552.40
449.74	547.44
450.11	542.10
450.48	535.78
450.85	529.16
451.22	523.70
451.59	518.23
451.96	513.11
452.33	506.49
452.70	500.33
453.07	493.13
453.43	485.63
453.80	478.85
454.17	472.24
454.54	465.82
454.91	459.04
455.28	452.35
455.65	446.12
456.02	440.61
456.38	435.41
456.75	429.14
457.12	423.63
457.49	418.38
457.86	412.95
458.23	408.81
458.59	404.16
458.96	399.33
459.33	395.08
459.70	390.94
460.07	387.58
460.43	383.71
460.80	380.28
461.17	377.19
461.54	373.84
461.91	370.64
462.27	367.44
462.64	364.77
463.01	361.90
463.38	359.36
463.74	355.93
464.11	353.38
464.48	351.20
464.85	348.85
465.21	347.23
465.58	345.34
465.95	342.96
466.32	341.20
466.68	339.19
467.05	337.48
467.42	335.57
467.78	333.65
468.15	331.85
468.52	330.47
468.88	328.61
469.25	326.99
469.62	325.81
469.98	324.43
470.35	323.27
470.72	322.12
471.08	320.57
471.45	319.48
471.82	318.52
472.18	317.37
472.55	316.57
472.92	315.44
473.28	314.50
473.65	313.57
474.02	312.60
474.38	312.11
474.75	311.51
475.11	310.81
475.48	310.28
475.85	309.83
476.21	309.40
476.58	309.03
476.94	308.79
477.31	308.51
477.67	308.18
478.04	307.90
478.41	307.67
478.77	308.05
479.14	307.89
479.50	307.83
479.87	307.82
480.23	307.90
480.60	307.90
480.96	308.00
481.33	308.35
481.69	308.57
482.06	308.80
482.42	309.10
482.79	309.47
483.15	309.92
483.52	310.50
483.88	310.86
484.25	311.45
484.61	312.02
484.98	312.57
485.34	313.65
485.71	314.59
486.07	315.46
486.44	315.96
486.80	317.08
487.17	318.12
487.53	319.45
487.90	320.81
488.26	322.41
488.62	324.05
488.99	325.50
489.35	327.25
489.72	329.00
490.08	330.74
490.44	332.51
490.81	334.65
491.17	336.63
491.54	338.94
491.90	341.21
492.26	343.62
492.63	346.31
492.99	348.71
493.36	351.53
493.72	354.66
494.08	357.83
494.45	361.11
494.81	364.61
495.17	368.10
495.54	371.82
495.90	375.48
496.26	379.46
496.63	383.64
496.99	387.92
497.35	392.40
497.72	397.30
498.08	402.40
498.44	407.36
498.80	412.85
499.17	418.37
499.53	424.02
499.89	430.00
500.26	436.05
500.62	442.37
500.98	448.87
501.34	455.46
501.71	462.34
502.07	469.27
502.43	476.61
502.79	484.17
503.16	491.80
503.52	499.88
503.88	507.87
504.24	516.46
504.60	525.24
504.97	534.27
505.33	543.36
505.69	553.00
506.05	562.72
506.41	572.48
506.78	582.65
507.14	593.12
507.50	603.89
507.86	614.73
508.22	625.95
508.59	637.18
508.95	648.85
509.31	660.91
509.67	673.13
510.03	685.32
510.39	697.69
510.75	710.57
511.12	723.42
511.48	736.89
511.84	750.19
512.20	763.51
512.56	777.09
512.92	791.19
513.28	805.23
513.64	819.59
514.00	834.28
514.37	848.95
514.73	863.88
515.09	878.82
515.45	893.91
515.81	909.00
516.17	924.48
516.53	939.82
516.89	955.06
517.25	970.82
517.61	987.10
517.97	1003.70
518.33	1019.91
518.69	1036.22
519.05	1052.49
519.41	1068.97
519.77	1085.90
520.13	1102.53
520.49	1118.84
520.85	1136.90
521.21	1153.43
521.57	1170.20
521.93	1186.56
522.29	1203.22
522.65	1219.33
523.01	1235.76
523.37	1251.85
523.73	1267.94
524.09	1283.97
524.45	1299.85
524.81	1315.98
525.17	1331.79
525.53	1347.43
525.89	1363.12
526.25	1379.07
526.61	1394.51
526.97	1410.27
527.33	1426.26
527.68	1442.95
528.04	1458.80
528.40	1472.83
528.76	1488.72
529.12	1503.74
529.48	1519.12
529.84	1534.11
530.20	1549.43
530.56	1564.43
530.91	1579.66
531.27	1594.55
531.63	1609.12
531.99	1624.04
532.35	1638.39
532.71	1652.85
533.07	1667.29
533.42	1681.51
533.78	1695.33
534.14	1709.05
534.50	1722.35
534.86	1735.44
535.21	1746.74
535.57	1759.57
535.93	1771.37
536.29	1783.10
536.65	1795.43
537.00	1807.27
537.36	1818.30
537.72	1829.06
538.08	1840.35
538.44	1851.08
538.79	1861.60
539.15	1872.30
539.51	1882.43
539.87	1891.61
540.22	1900.04
540.58	1908.95
540.94	1916.49
541.29	1923.83
541.65	1931.09
542.01	1938.20
542.37	1943.90
542.72	1950.33
543.08	1955.55
543.44	1962.28
543.79	1967.58
544.15	1972.34
544.51	1977.20
544.87	1982.01
545.22	1986.15
545.58	1989.57
545.94	1992.61
546.29	1994.80
546.65	1996.92
547.01	1998.55
547.36	2000.25
547.72	2001.84
548.07	2001.99
548.43	2003.83
548.79	2004.73
549.14	2005.53
549.50	2005.86
549.86	2006.16
550.21	2006.10
550.57	2006.45
550.92	2004.81
551.28	2003.06
551.64	2002.38
551.99	2001.44
552.35	2000.33
552.70	1999.39
553.06	1997.77
553.41	1996.35
553.77	1995.63
554.13	1994.37
554.48	1993.13
554.84	1991.97
555.19	1990.30
555.55	1989.46
555.90	1986.20
556.26	1983.53
556.61	1979.95
556.97	1976.19
557.32	1973.54
557.68	1970.71
558.03	1967.50
558.39	1964.39
558.74	1961.71
559.10	1957.10
559.45	1952.16
559.81	1946.90
560.16	1941.43
560.52	1936.34
560.87	1931.10
561.23	1925.03
561.58	1919.17
561.94	1912.39
562.29	1905.15
562.64	1898.55
563.00	1890.90
563.35	1884.81
563.71	1878.08
564.06	1872.08
564.42	1865.73
564.77	1859.24
565.12	1852.22
565.48	1845.20
565.83	1838.02
566.19	1830.98
566.54	1823.85
566.89	1816.85
567.25	1810.09
567.60	1803.62
567.96	1796.95
568.31	1789.88
568.66	1782.99
569.02	1774.95
569.37	1767.91
569.72	1761.46
570.08	1753.57
570.43	1745.66
570.78	1738.19
571.14	1730.45
571.49	1722.18
571.84	1714.48
572.20	1705.65
572.55	1697.64
572.90	1688.62
573.26	1680.42
573.61	1671.65
573.96	1663.11
574.31	1653.70
574.67	1644.48
575.02	1634.56
575.37	1624.72
575.72	1614.60
576.08	1605.04
576.43	1595.46
576.78	1585.42
577.13	1574.99
577.49	1565.66
577.84	1556.50
578.19	1547.20
578.54	1537.98
578.90	1529.01
579.25	1519.70
579.60	1510.65
579.95	1500.70
580.30	1491.07
580.66	1481.02
581.01	1471.08
581.36	1460.57
581.71	1451.45
582.06	1442.07
582.42	1432.82
582.77	1423.34
583.12	1414.70
583.47	1405.39
583.82	1396.82
584.17	1388.23
584.53	1379.76
584.88	1370.23
585.23	1360.91
585.58	1350.78
585.93	1340.99
586.28	1331.24
586.63	1321.17
586.98	1310.98
587.34	1301.68
587.69	1292.14
588.04	1283.40
588.39	1274.74
588.74	1266.41
589.09	1257.76
589.44	1248.39
589.79	1239.67
590.14	1231.29
590.49	1222.56
590.84	1214.22
591.19	1205.66
591.54	1197.04
591.89	1188.27
592.25	1181.19
592.60	1173.22
592.95	1165.22
593.30	1156.92
593.65	1148.59
594.00	1140.38
594.35	1133.77
594.70	1125.59
595.05	1117.76
595.40	1109.42
595.75	1101.17
596.10	1093.22
596.45	1085.16
596.80	1077.60
597.15	1069.87
597.50	1061.68
597.85	1053.90
598.19	1045.80
598.54	1037.92
598.89	1030.09
599.24	1022.80
599.59	1014.61
599.94	1007.19
600.29	999.96
600.64	992.97
600.99	985.81
601.34	979.26
601.69	971.40
602.04	964.74
602.39	958.18
602.74	951.85
603.08	945.27
603.43	938.83
603.78	932.21
604.13	925.89
604.48	919.34
604.83	912.96
605.18	906.46
605.53	899.95
605.87	893.70
606.22	888.10
606.57	881.81
606.92	875.51
607.27	869.26
607.62	863.47
607.96	858.06
608.31	852.71
608.66	847.09
609.01	841.32
609.36	835.58
609.70	829.84
610.05	824.05
610.40	818.50
610.75	812.80
611.10	807.21
611.44	801.53
611.79	795.98
612.14	790.50
612.49	785.06
612.83	780.12
613.18	774.95
613.53	769.56
613.88	764.34
614.22	759.35
614.57	753.96
614.92	748.55
615.27	743.27
615.61	737.98
615.96	732.62
616.31	727.38
616.65	722.62
617.00	717.78
617.35	712.79
617.70	707.92
618.04	703.08
618.39	698.22
618.74	693.93
619.08	689.31
619.43	684.64
619.78	679.93
620.12	675.20
620.47	670.51
620.82	665.68
621.16	661.13
621.51	656.87
621.85	652.69
622.20	648.21
622.55	643.67
622.89	639.32
623.24	635.11
623.59	630.99
623.93	626.74
624.28	622.54
624.62	619.00
624.97	615.18
625.32	611.20
625.66	607.44
626.01	603.15
626.35	599.37
626.70	595.62
627.04	592.05
627.39	588.13
627.73	584.46
628.08	580.90
628.43	577.08
628.77	573.19
629.12	569.52
629.46	566.29
629.81	563.00
630.15	559.77
630.50	556.42
630.84	553.04
631.19	549.57
631.53	546.42
631.88	542.62
632.22	539.19
632.57	536.16
632.91	532.91
633.26	530.01
633.60	526.94
633.95	523.80
634.29	520.52
634.64	517.57
634.98	514.44
635.32	511.53
635.67	508.89
636.01	506.14
636.36	503.21
636.70	500.49
637.05	497.54
637.39	494.70
637.73	491.95
638.08	489.29
638.42	486.51
638.77	483.58
639.11	480.67
639.45	477.68
639.80	474.80
640.14	472.08
640.49	469.22
640.83	466.53
641.17	464.09
641.52	461.43
641.86	458.95
642.20	456.83
642.55	454.24
642.89	451.81
643.23	449.23
643.58	447.19
643.92	444.55
644.26	442.26
644.61	440.06
644.95	437.71
645.29	435.32
645.64	433.11
645.98	430.89
646.32	428.88
646.66	426.78
647.01	424.62
647.35	422.61
647.69	420.60
648.04	418.75
648.38	416.72
648.72	414.94
649.06	412.82
649.41	410.63
649.75	408.62
650.09	406.53
650.43	404.61
650.78	402.43
651.12	400.46
651.46	398.56
651.80	396.61
652.14	394.76
652.49	393.11
652.83	391.44
653.17	389.78
653.51	387.81
653.85	386.24
654.20	384.69
654.54	382.96
654.88	381.27
655.22	379.71
655.56	378.09
655.90	376.39
656.25	374.81
656.59	373.27
656.93	371.76
657.27	370.43
657.61	368.80
657.95	367.36
658.29	365.91
658.64	364.55
658.98	363.03
659.32	361.50
659.66	359.96
660.00	358.47
660.34	357.09
660.68	355.78
661.02	354.26
661.36	352.90
661.70	351.38
662.05	350.03
662.39	348.58
662.73	347.33
663.07	346.27
663.41	345.02
663.75	343.67
664.09	342.41
664.43	340.96
664.77	339.85
665.11	338.54
665.45	337.36
665.79	336.21
666.13	334.99
666.47	333.82
666.81	332.62
667.15	331.33
667.49	330.22
667.83	329.29
668.17	328.31
668.51	327.15
668.85	326.30
669.19	325.55
669.53	324.48
669.87	323.39
670.21	322.19
670.55	321.17
670.89	320.34
671.23	319.37
671.57	318.43
671.91	317.46
672.25	316.53
672.58	315.78
672.92	314.70
673.26	313.83
673.60	313.02
673.94	312.25
674.28	311.61
674.62	310.83
674.96	309.91
675.30	309.09
675.64	308.33
675.97	307.45
676.31	306.40
676.65	305.48
676.99	304.82
677.33	303.95
677.67	303.21
678.01	302.31
678.34	301.55
678.68	300.91
679.02	300.14
679.36	299.45
679.70	298.64
680.04	297.99
680.37	297.39
680.71	296.60
681.05	295.96
681.39	295.24
681.73	294.41
682.06	293.75
682.40	293.08
682.74	292.42
683.08	291.98
683.42	291.33
683.75	290.86
684.09	290.15
684.43	289.66
684.77	289.07
685.10	288.52
685.44	287.88
685.78	287.23
686.12	286.69
686.45	286.05
686.79	285.33
687.13	284.84
687.46	284.14
687.80	283.75
688.14	283.09
688.48	282.53
688.81	282.05
689.15	281.54
689.49	280.96
689.82	280.52
690.16	279.80
690.50	279.31
690.83	278.74
691.17	278.21
691.51	277.74
691.84	277.31
692.18	276.75
692.52	276.27
692.85	275.88
693.19	275.63
693.52	275.24
693.86	274.90
694.20	274.42
694.53	274.02
694.87	273.49
695.21	272.96
695.54	272.52
695.88	272.00
696.21	271.43
696.55	271.04
696.88	270.60
697.22	270.13
697.56	269.77
697.89	269.34
698.23	268.99
698.56	268.52
698.90	268.20
699.23	267.81
699.57	267.48
699.90	267.08
700.24	266.44
700.58	266.05
700.91	265.77
701.25	265.77
701.58	265.77
701.92	265.55
702.25	265.24
702.59	264.89
702.92	264.66
703.26	264.42
703.59	264.07
703.93	264.09
704.26	263.78
704.60	263.43
704.93	263.11
705.26	262.71
705.60	262.51
705.93	262.00
706.27	261.83
706.60	261.62
706.94	261.53
707.27	261.27
707.61	261.05
707.94	260.68
708.27	259.99
708.61	259.39
708.94	259.02
709.28	258.80
709.61	258.48
709.94	258.10
710.28	257.83
710.61	257.55
710.95	256.83
711.28	256.84
711.61	256.57
711.95	256.35
712.28	256.01
712.61	255.62
712.95	255.69
713.28	255.59
713.61	255.19
713.95	254.70
714.28	254.50
714.61	254.15
714.95	253.89
715.28	253.53
715.61	253.16
715.95	252.95
716.28	252.60
716.61	252.40
716.95	252.12
717.28	251.85
717.61	251.53
717.94	251.30
718.28	250.73
718.61	250.48
718.94	250.16
719.27	249.90
719.61	249.69
719.94	249.24
720.27	248.74
720.60	248.53
720.94	248.34
721.27	248.09
721.60	247.99
721.93	247.82
722.27	247.81
722.60	247.76
722.93	247.55
723.26	247.40
723.59	247.13
723.93	247.07
724.26	246.91
724.59	246.79
724.92	246.65
725.25	246.66
725.59	246.41
725.92	246.33
726.25	246.22
726.58	246.07
726.91	245.96
727.24	245.94
727.57	245.76
727.91	245.52
728.24	245.44
728.57	245.29
728.90	245.12
729.23	244.84
729.56	244.92
729.89	244.77
730.22	244.61
730.55	244.53
730.89	244.34
731.22	244.12
731.55	244.00
731.88	243.76
732.21	243.48
732.54	243.40
732.87	243.18
733.20	243.02
733.53	242.89
733.86	242.75
734.19	242.50
734.52	242.47
734.85	242.69
735.18	242.55
735.51	242.46
735.84	242.29
736.17	242.30
736.50	241.88
736.83	242.34
737.16	242.21
737.49	242.08
737.82	241.83
738.15	241.83
738.48	241.63
738.81	241.63
739.14	241.55
739.47	241.44
739.80	241.44
740.13	241.42
740.46	241.29
740.79	241.17
741.12	241.01
741.45	240.79
741.78	240.39
742.11	240.35
742.44	240.17
742.77	240.21
743.10	240.09
743.43	239.95
743.75	239.31
744.08	239.87
744.41	239.76
744.74	239.73
745.07	239.49
745.40	239.49
745.73	239.52
746.06	239.42
746.39	239.32
746.71	239.12
747.04	238.87
747.37	238.71
747.70	238.62
748.03	238.50
748.36	238.48
748.68	238.31
749.01	238.08
749.34	237.89
749.67	237.75
750.00	237.62
750.33	237.87
750.65	237.73
750.98	237.01
751.31	236.89
751.64	236.79
751.97	236.93
752.29	236.86
752.62	236.51
752.95	236.38
753.28	236.20
753.60	236.03
753.93	236.11
754.26	236.06
754.59	235.84
754.91	235.75
755.24	235.56
755.57	235.52
755.90	235.33
756.22	235.21
756.55	235.04
756.88	234.85
757.20	234.40
757.53	234.11
757.86	233.96
758.19	233.85
758.51	233.75
758.84	233.40
759.17	233.16
759.49	233.17
759.82	233.29
760.15	233.25
760.47	233.25
760.80	233.01
761.13	233.03
761.45	232.90
761.78	232.81
762.11	232.77
762.43	232.59
762.76	232.54
763.08	232.58
763.41	232.61
763.74	232.57
764.06	232.46
764.39	232.44
764.71	232.37
765.04	232.30
765.37	232.19
765.69	232.12
766.02	232.10
766.34	231.97
766.67	231.72
767.00	231.73
767.32	231.92
767.65	232.17
767.97	232.05
768.30	232.07
768.62	232.04
768.95	231.96
769.27	232.00
769.60	232.03
769.92	231.92
770.25	231.72
770.57	231.65
770.90	231.59
771.22	231.51
771.55	231.45
771.87	231.43
772.20	231.38
772.52	231.77
772.85	232.26
773.17	232.24
773.50	232.13
773.82	232.03
774.15	231.72
774.47	231.38
774.80	231.27
775.12	231.14
775.45	231.06
775.77	230.97
776.09	230.86
776.42	230.76
776.74	230.84
777.07	230.77
777.39	230.70
777.72	230.71
778.04	230.75
778.36	230.70
778.69	230.81
779.01	230.94
779.33	230.42
779.66	229.89
779.98	229.83
780.31	229.88
780.63	230.03
780.95	230.11
781.28	230.04
781.60	230.08
781.92	230.12
782.25	230.11
782.57	230.13
782.89	230.11
783.22	230.12
783.54	229.98
783.86	230.00
784.19	229.96
784.51	230.05
784.83	229.93
785.16	229.80
785.48	229.63
785.80	229.49
786.12	229.55
786.45	229.55
786.77	229.53
787.09	229.45
787.42	229.26
787.74	229.22
788.06	229.21
788.38	229.04
788.71	228.98
789.03	228.98
789.35	228.97
789.67	228.85
789.99	228.74
790.32	228.70
790.64	228.71
790.96	229.04
791.28	228.80
791.61	228.83
791.93	228.94
792.25	228.91
792.57	229.20
792.89	229.09
793.21	229.07
793.54	229.04
793.86	228.95
794.18	228.92
794.50	228.71
794.82	228.67
795.14	228.81
795.47	228.88
795.79	228.84
796.11	228.71
796.43	228.71
796.75	228.76
797.07	228.73
797.39	228.66
797.71	228.35
798.04	228.43
798.36	228.36
798.68	228.28
799.00	228.38
799.32	228.15
799.64	228.17
799.96	228.15
800.28	228.23
800.60	228.24
800.92	228.33
801.24	228.37
801.56	228.44
801.89	228.33
802.21	228.25
802.53	228.12
802.85	228.18
803.17	228.43
803.49	228.34
803.81	228.28
804.13	228.24
804.45	228.13
804.77	228.12
805.09	228.14
805.41	228.10
805.73	227.96
806.05	227.79
806.37	227.86
806.69	227.80
807.01	227.77
807.33	227.72
807.65	227.46
807.97	227.70
808.28	227.68
808.60	227.72
808.92	227.67
809.24	227.95
809.56	227.95
809.88	227.73
810.20	227.73
810.52	227.84
810.84	227.79
811.16	227.76
811.48	227.73
811.80	227.92
812.12	227.92
812.43	227.95
812.75	227.99
813.07	227.92
813.39	227.98
813.71	227.92
814.03	227.91
814.35	227.96
814.67	227.74
814.98	227.65
815.30	227.56
815.62	227.51
815.94	227.22
816.26	227.40
816.58	227.33
816.89	227.36
817.21	227.23
817.53	227.24
817.85	227.29
818.17	227.28
818.48	227.11
818.80	227.14
819.12	227.08
819.44	227.02
819.76	226.98
820.07	226.90
820.39	226.85
820.71	226.98
821.03	227.02
821.34	227.03
821.66	227.14
821.98	227.24
822.30	227.26
822.61	227.55
822.93	227.24
823.25	227.22
823.57	227.21
823.88	227.27
824.20	227.23
824.52	227.31
824.83	227.28
825.15	227.20
825.47	227.18
825.79	227.26
826.10	227.30
826.42	227.24
826.74	227.24
827.05	227.20
827.37	227.15
827.69	227.04
828.00	227.05
828.32	227.03
828.64	227.01
828.95	227.27
829.27	227.15
829.58	227.23
829.90	227.32
830.22	227.29
830.53	227.22
830.85	227.27
831.17	227.07
831.48	227.05
831.80	227.02
832.11	227.01
832.43	226.86
832.75	226.77
833.06	227.13
833.38	226.96
833.69	226.94
834.01	226.99
834.32	227.02
834.64	226.96
834.96	226.89
835.27	226.75
835.59	226.57
835.90	226.46
836.22	226.44
836.53	226.29
836.85	226.26
837.16	226.72
837.48	226.71
837.79	226.94
838.11	226.93
838.42	226.98
838.74	227.02
839.05	227.07
839.37	227.07
839.68	226.73
840.00	226.80
840.31	226.93
840.63	226.83
840.94	226.74
841.26	226.69
841.57	226.74
841.88	226.87
842.20	226.86
842.51	226.80
842.83	226.78
843.14	227.30
843.46	227.29
843.77	227.00
844.08	227.01
844.40	226.79
844.71	226.79
845.03	226.78
845.34	226.70
845.65	226.62
845.97	226.67
846.28	226.75
846.60	226.74
846.91	226.62
847.22	226.66
847.54	226.80
847.85	226.82
848.16	226.74
848.48	226.57
848.79	226.72
849.10	226.80
849.42	226.85
849.73	226.32
850.04	226.28
850.36	226.13
850.67	226.15
850.98	226.17
851.30	226.21
851.61	226.13
851.92	226.18
852.23	226.38
852.55	226.37
852.86	226.35
853.17	226.40
853.49	226.51
853.80	226.56
854.11	226.59
854.42	226.67
854.74	226.64
855.05	226.71
855.36	226.41
855.67	226.44
855.99	226.46
856.30	227.06
856.61	227.10
856.92	227.06
857.23	227.10
857.55	227.03
857.86	227.00
858.17	227.06
858.48	226.95
858.79	226.79
859.11	226.81
859.42	226.69
859.73	226.57
860.04	226.55
860.35	226.37
860.66	226.22
860.98	226.06
861.29	226.15
861.60	226.10
861.91	226.21
862.22	226.09
862.53	225.99
862.84	225.36
863.16	225.50
863.47	225.48
863.78	225.44
864.09	225.55
864.40	225.52
864.71	225.56
865.02	225.66
865.33	225.62
865.64	225.48
865.95	225.52
866.27	225.90
866.58	225.81
866.89	225.99
867.20	225.94
867.51	225.96
867.82	225.89
868.13	225.97
868.44	225.86
868.75	225.94
869.06	225.98
869.37	226.07
869.68	225.88
869.99	225.93
870.30	225.96
870.61	225.94
870.92	225.94
871.23	225.90
871.54	225.92
871.85	226.04
872.16	226.16
872.47	226.10
872.78	225.82
873.09	225.86
873.40	225.72
873.71	225.82
874.02	225.83
874.33	225.80
874.64	225.70
874.95	225.79
875.26	225.74
875.56	225.74
875.87	225.67
876.18	225.65
876.49	226.14
876.80	226.14
877.11	226.18
877.42	226.15
877.73	226.10
878.04	226.08
878.35	226.12
878.66	226.14
878.96	226.11
879.27	226.15
879.58	226.08
879.89	226.14
880.20	226.25
880.51	226.30
880.82	226.32
881.12	226.43
881.43	226.30
881.74	226.24
882.05	226.20
882.36	226.30
882.67	226.38
882.97	225.83
883.28	225.79
883.59	225.67
883.90	225.80
884.21	225.98
884.51	225.99
884.82	225.86
885.13	225.85
885.44	225.95
885.74	225.99
886.05	225.94
886.36	225.85
886.67	225.65
886.98	225.81
887.28	225.85
887.59	225.85
887.90	225.96
888.20	225.95
888.51	226.03
888.82	225.97
889.13	226.02
889.43	226.43
889.74	226.38
890.05	226.46
890.35	226.38
890.66	226.32
890.97	226.28
891.28	226.31
891.58	226.30
891.89	226.25
892.20	226.11
892.50	226.12
892.81	226.15
893.12	226.25
893.42	226.10
893.73	226.15
894.04	226.11
894.34	226.14
894.65	226.15
894.95	226.05
895.26	226.05
895.57	226.24
895.87	225.85
896.18	225.97
896.48	225.93
896.79	225.94
897.10	225.94
897.40	225.93
897.71	225.98
898.01	226.00
898.32	226.11
898.63	226.07
898.93	226.15
899.24	226.21
899.54	226.18
899.85	226.11
900.15	226.08
900.46	226.10
900.76	226.04
901.07	226.00
901.38	226.06
901.68	226.13
901.99	225.88
902.29	225.83
902.60	225.78
902.90	225.76
903.21	225.73
903.51	225.65
903.82	225.80
904.12	225.81
904.43	225.82
904.73	225.77
905.03	225.81
905.34	226.28
905.64	226.14
905.95	226.10
906.25	226.14
906.56	226.13
906.86	226.05
907.17	226.02
907.47	226.04
907.77	225.97
908.08	225.84
908.38	225.83
908.69	225.91
908.99	225.91
909.30	226.03
909.60	226.05
909.90	226.10
910.21	225.86
910.51	225.75
910.81	225.70
911.12	225.73
911.42	225.79
911.73	225.31
912.03	225.43
912.33	225.47
912.64	225.44
912.94	225.38
913.24	225.31
913.55	225.37
913.85	225.34
914.15	225.45
914.46	225.55
914.76	225.54
915.06	225.46
915.37	225.38
915.67	225.28
915.97	225.29
916.27	225.21
916.58	225.27
916.88	225.25
917.18	225.23
917.49	225.52
917.79	225.54
918.09	225.57
918.39	225.70
918.70	225.68
919.00	225.67
919.30	225.90
919.60	225.95
919.91	225.85
920.21	225.90
920.51	225.80
920.81	225.74
921.12	225.82
921.42	225.82
921.72	225.87
922.02	225.94
922.32	225.96
922.63	226.00
922.93	226.28
923.23	226.40
923.53	226.37
923.83	226.03
924.13	226.00
924.44	226.04
924.74	226.08
925.04	226.18
925.34	226.22
925.64	226.00
925.94	226.02
926.24	226.36
926.55	226.33
926.85	226.40
927.15	226.38
927.45	226.44
927.75	226.50
928.05	226.52
928.35	226.41
928.65	226.48
928.95	226.55
929.26	226.29
929.56	226.30
929.86	226.44
930.16	226.42
930.46	226.46
930.76	226.49
931.06	226.28
931.36	226.16
931.66	226.24
931.96	226.32
932.26	226.33
932.56	226.15
932.86	226.11
933.16	226.16
933.46	226.19
933.76	226.04
934.06	226.25
934.36	226.41
934.66	226.51
934.96	226.51
935.26	226.52
935.56	226.65
935.86	226.56
936.16	226.45
936.46	226.47
936.76	226.36
937.06	226.23
937.36	226.30
937.66	226.35
937.96	226.28
938.26	226.17
938.56	226.11
938.86	226.13
939.16	226.32
939.46	226.28
939.76	226.31
940.06	226.30
940.35	226.14
940.65	225.91
940.95	225.90
941.25	225.72
941.55	225.67
941.85	225.60
942.15	225.68
942.45	225.87
942.75	225.88
943.04	225.97
943.34	226.10
943.64	226.02
943.94	226.01
944.24	226.08
944.54	226.18
944.84	226.18
945.13	226.00
945.43	225.88
945.73	225.84
946.03	225.79
946.33	225.80
946.62	225.72
946.92	225.69
947.22	225.68
947.52	225.72
947.82	225.73
948.11	225.75
948.41	225.61
948.71	225.42
949.01	225.39
949.31	225.35
949.60	225.23
949.90	225.37
950.20	225.26
950.50	225.23
950.79	225.13
951.09	225.23
951.39	225.26
951.69	225.22
951.98	225.34
952.28	225.32
952.58	225.25
952.87	225.20
953.17	225.26
953.47	225.21
953.76	225.22
954.06	225.08
954.36	224.98
954.66	224.97
954.95	225.09
955.25	225.05
955.55	225.04
955.84	224.95
956.14	224.87
956.44	224.92
956.73	224.84
957.03	224.93
957.32	224.88
957.62	224.84
957.92	224.97
958.21	224.90
958.51	225.39
958.81	225.45
959.10	225.55
959.40	225.66
959.69	225.72
959.99	225.78
960.29	225.86
960.58	225.91
960.88	226.05
961.17	226.00
961.47	226.10
961.76	226.04
962.06	226.18
962.36	226.16
962.65	226.20
962.95	226.19
963.24	226.04
963.54	226.10
963.83	226.16
964.13	226.13
964.42	226.05
964.72	225.67
965.01	225.75
965.31	225.61
965.60	225.59
965.90	225.87
966.19	225.77
966.49	225.84
966.78	225.78
967.08	225.78
967.37	225.79
967.67	225.65
967.96	225.81
968.26	225.81
968.55	225.90
968.85	225.90
969.14	225.86
969.43	225.86
969.73	225.86
970.02	225.85
970.32	225.82
970.61	225.87
970.91	225.78
971.20	225.67
971.49	225.72
971.79	225.75
972.08	225.46
972.38	225.51
972.67	225.44
972.96	225.54
973.26	225.44
973.55	225.59
973.85	225.64
974.14	225.61
974.43	225.60
974.73	225.54
975.02	225.46
975.31	225.60
975.61	225.61
975.90	225.59
976.19	225.57
976.49	225.57
976.78	225.63
977.07	225.69
977.37	225.78
977.66	225.80
977.95	225.69
978.24	225.64
978.54	225.80
978.83	225.75
979.12	225.66
979.42	225.70
979.71	225.64
980.00	225.60
980.29	225.65
980.59	225.57
980.88	225.60
981.17	225.60
981.46	225.60
981.76	225.72
982.05	225.84
982.34	225.82
982.63	225.88
982.93	225.83
983.22	225.91
983.51	225.89
983.80	226.02
984.09	226.11
984.39	226.10
984.68	225.98
984.97	226.00
985.26	226.01
985.55	226.05
985.85	225.89
986.14	225.95
986.43	225.94
986.72	225.92
987.01	225.83
987.30	225.92
987.59	225.71
987.89	225.68
988.18	225.54
988.47	225.52
988.76	225.45
989.05	225.39
989.34	225.33
989.63	225.39
989.92	225.32
990.22	225.22
990.51	225.24
990.80	225.13
991.09	225.20
991.38	225.19
991.67	225.12
991.96	225.04
992.25	225.07
992.54	225.00
992.83	225.04
993.12	224.97
993.41	224.91
993.70	225.23
993.99	225.29
994.28	225.41
994.58	225.51
994.87	225.45
995.16	225.43
995.45	225.40
995.74	225.29
996.03	225.30
996.32	225.36
996.61	225.48
996.90	225.55
997.19	225.48
997.48	225.44
997.77	225.41
998.06	225.48
998.34	225.48
998.63	225.52
998.92	225.52
999.21	225.62
999.50	225.65
999.79	225.47
1000.08	225.48
1000.37	225.39
1000.66	225.33
1000.95	225.39
1001.24	225.44
1001.53	225.40
1001.82	225.44
1002.11	225.34
1002.40	225.33
1002.68	225.42
1002.97	225.76
1003.26	225.73
1003.55	225.76
1003.84	225.83
1004.13	226.01
1004.42	225.93
1004.71	225.91
1004.99	225.81
1005.28	225.95
1005.57	225.97
1005.86	225.91
1006.15	225.80
1006.44	225.75
1006.72	225.78
1007.01	225.76
1007.30	225.77
1007.59	225.76
1007.88	225.72
1008.17	225.78
1008.45	225.76
1008.74	225.53
1009.03	225.30
1009.32	225.30
1009.60	225.30
1009.89	225.28
1010.18	225.17
1010.47	225.13
1010.76	225.11
1011.04	225.22
1011.33	225.15
1011.62	225.15
1011.91	225.24
1012.19	225.29
1012.48	225.32
1012.77	225.33
1013.05	225.60
1013.34	225.56
1013.63	225.58
1013.92	225.54
1014.20	225.52
1014.49	225.55
1014.78	225.61
1015.06	225.48
1015.35	225.49
1015.64	225.55
1015.92	225.60
1016.21	225.61
1016.50	225.68
1016.78	225.70
1017.07	225.71
1017.36	225.62
1017.64	225.59
1017.93	225.62
1018.22	225.55
1018.50	225.53
1018.79	225.51
1019.08	225.24
1019.36	225.33
1019.65	225.27
1019.93	225.44
1020.22	225.54
1020.51	225.79
1020.79	225.73
1021.08	224.45
1021.36	224.60
1021.65	225.35
1021.94	225.00
1022.22	226.15
1022.51	224.10
1022.79	227.45
1023.08	226.95
1023.36	232.15
1023.65	224.05
>>>>>End Processed Spectral Data<<<<<
