SpectraSuite Data File
++++++++++++++++++++++++++++++++++++
Date: Wed Sep 04 18:04:49 EDT 2013
User: lab3
Dark Spectrum Present: Yes
Reference Spectrum Present: No
Number of Sampled Component Spectra: 1
Spectrometers: USB2E7196
Integration Time (usec): 170000 (USB2E7196)
Spectra Averaged: 20 (USB2E7196)
Boxcar Smoothing: 10 (USB2E7196)
Correct for Electrical Dark: No (USB2E7196)
Strobe/Lamp Enabled: No (USB2E7196)
Correct for Detector Non-linearity: No (USB2E7196)
Correct for Stray Light: No (USB2E7196)
Number of Pixels in Processed Spectrum: 2048
>>>>>Begin Processed Spectral Data<<<<<
339.09	0.00
339.48	214.45
339.86	214.25
340.24	216.95
340.63	216.70
341.01	227.30
341.39	220.10
341.78	223.60
342.16	223.15
342.54	224.55
342.93	212.91
343.31	223.59
343.69	224.10
344.07	224.55
344.46	225.00
344.84	225.47
345.22	225.39
345.60	225.74
345.99	225.90
346.37	226.04
346.75	226.18
347.13	226.14
347.52	226.21
347.90	226.41
348.28	226.44
348.66	226.61
349.05	226.51
349.43	226.60
349.81	226.60
350.19	226.63
350.57	226.67
350.96	226.74
351.34	226.90
351.72	226.97
352.10	227.11
352.48	227.16
352.87	227.23
353.25	227.26
353.63	227.25
354.01	227.23
354.39	227.33
354.77	227.31
355.15	227.60
355.54	227.59
355.92	227.48
356.30	227.65
356.68	227.97
357.06	228.03
357.44	227.98
357.82	228.09
358.20	228.57
358.58	228.60
358.97	228.69
359.35	228.80
359.73	228.94
360.11	228.94
360.49	228.99
360.87	229.01
361.25	229.11
361.63	229.40
362.01	229.45
362.39	229.49
362.77	229.63
363.15	229.62
363.53	229.66
363.91	229.75
364.29	229.71
364.67	229.27
365.05	229.29
365.43	229.40
365.81	229.46
366.19	229.31
366.57	229.52
366.95	229.51
367.33	229.40
367.71	229.47
368.09	229.61
368.47	229.62
368.85	229.61
369.23	229.75
369.61	229.50
369.99	229.70
370.37	229.77
370.75	229.96
371.13	229.83
371.51	229.80
371.89	229.85
372.27	229.87
372.65	230.00
373.03	230.04
373.41	229.98
373.78	229.97
374.16	229.65
374.54	229.50
374.92	229.50
375.30	229.55
375.68	229.37
376.06	229.39
376.44	229.32
376.82	229.33
377.19	229.25
377.57	229.20
377.95	229.02
378.33	228.85
378.71	228.51
379.09	228.52
379.47	228.50
379.84	228.35
380.22	228.25
380.60	228.05
380.98	227.94
381.36	227.90
381.73	227.77
382.11	227.76
382.49	227.69
382.87	227.53
383.25	227.51
383.62	228.05
384.00	227.83
384.38	227.76
384.76	227.77
385.13	227.85
385.51	227.84
385.89	227.68
386.27	227.64
386.64	227.69
387.02	227.64
387.40	227.52
387.78	227.54
388.15	227.52
388.53	227.55
388.91	227.48
389.29	227.40
389.66	227.39
390.04	227.41
390.42	227.44
390.79	227.37
391.17	227.26
391.55	226.63
391.92	226.61
392.30	226.65
392.68	226.55
393.05	226.54
393.43	226.57
393.81	226.62
394.18	226.57
394.56	226.49
394.94	226.56
395.31	226.54
395.69	226.64
396.06	226.69
396.44	226.67
396.82	226.71
397.19	226.95
397.57	227.00
397.95	227.08
398.32	226.98
398.70	227.14
399.07	227.30
399.45	227.40
399.82	227.46
400.20	227.48
400.58	227.56
400.95	227.42
401.33	227.54
401.70	227.96
402.08	228.13
402.45	228.28
402.83	228.51
403.20	228.69
403.58	228.75
403.95	229.07
404.33	229.27
404.71	229.57
405.08	230.01
405.46	230.12
405.83	230.35
406.21	230.58
406.58	230.88
406.96	231.21
407.33	231.60
407.70	232.08
408.08	232.90
408.45	233.30
408.83	233.81
409.20	234.27
409.58	234.45
409.95	234.99
410.33	235.53
410.70	235.96
411.08	236.59
411.45	237.25
411.82	237.76
412.20	238.57
412.57	239.45
412.95	239.78
413.32	240.78
413.69	241.63
414.07	242.65
414.44	243.58
414.82	244.59
415.19	245.74
415.56	246.90
415.94	247.93
416.31	249.37
416.68	250.75
417.06	252.27
417.43	253.93
417.81	255.72
418.18	257.58
418.55	259.54
418.93	261.68
419.30	263.86
419.67	266.10
420.04	268.40
420.42	270.81
420.79	273.96
421.16	276.70
421.54	279.78
421.91	282.85
422.28	285.96
422.66	289.24
423.03	292.81
423.40	296.19
423.77	299.72
424.15	303.39
424.52	307.25
424.89	311.46
425.26	315.44
425.64	319.30
426.01	323.51
426.38	327.87
426.75	332.35
427.13	336.92
427.50	341.72
427.87	346.67
428.24	351.52
428.61	356.02
428.99	361.40
429.36	366.83
429.73	372.36
430.10	377.96
430.47	383.69
430.85	389.19
431.22	395.39
431.59	402.18
431.96	408.51
432.33	415.42
432.70	422.15
433.08	430.14
433.45	437.44
433.82	444.85
434.19	453.01
434.56	461.05
434.93	468.80
435.30	476.70
435.68	485.33
436.05	493.83
436.42	502.10
436.79	509.95
437.16	518.41
437.53	527.25
437.90	536.13
438.27	544.70
438.64	553.77
439.01	562.17
439.38	569.37
439.75	576.49
440.13	584.71
440.50	592.25
440.87	598.37
441.24	604.87
441.61	611.88
441.98	617.11
442.35	623.12
442.72	629.17
443.09	635.05
443.46	638.41
443.83	640.69
444.20	642.84
444.57	645.48
444.94	646.59
445.31	647.60
445.68	648.85
446.05	649.09
446.42	647.73
446.79	646.24
447.16	644.70
447.53	643.41
447.90	639.74
448.27	636.06
448.64	631.14
449.01	627.59
449.37	621.37
449.74	615.38
450.11	608.39
450.48	600.64
450.85	592.41
451.22	585.65
451.59	579.05
451.96	572.70
452.33	564.52
452.70	557.05
453.07	548.34
453.43	539.02
453.80	530.36
454.17	522.35
454.54	514.64
454.91	506.34
455.28	498.24
455.65	490.61
456.02	483.65
456.38	477.23
456.75	469.24
457.12	462.75
457.49	456.26
457.86	449.95
458.23	444.74
458.59	439.04
458.96	433.17
459.33	428.04
459.70	422.96
460.07	418.87
460.43	414.22
460.80	409.92
461.17	406.31
461.54	402.53
461.91	398.62
462.27	394.68
462.64	391.43
463.01	387.96
463.38	384.66
463.74	380.69
464.11	377.60
464.48	375.03
464.85	372.02
465.21	369.96
465.58	367.59
465.95	364.58
466.32	362.31
466.68	359.98
467.05	357.76
467.42	355.43
467.78	352.99
468.15	350.87
468.52	349.28
468.88	346.95
469.25	344.96
469.62	343.53
469.98	341.86
470.35	340.37
470.72	338.86
471.08	337.10
471.45	335.83
471.82	334.54
472.18	332.98
472.55	332.08
472.92	330.70
473.28	329.54
473.65	328.53
474.02	327.46
474.38	326.66
474.75	325.90
475.11	325.03
475.48	324.39
475.85	323.67
476.21	322.96
476.58	322.53
476.94	322.15
477.31	321.62
477.67	321.14
478.04	320.79
478.41	320.54
478.77	320.84
479.14	320.56
479.50	320.43
479.87	320.59
480.23	320.52
480.60	320.47
480.96	320.50
481.33	320.85
481.69	321.06
482.06	321.23
482.42	321.48
482.79	321.83
483.15	322.18
483.52	322.89
483.88	323.38
484.25	323.97
484.61	324.58
484.98	325.28
485.34	326.37
485.71	327.33
486.07	328.39
486.44	328.96
486.80	330.11
487.17	331.26
487.53	332.57
487.90	334.01
488.26	335.77
488.62	337.41
488.99	338.96
489.35	340.75
489.72	342.65
490.08	344.65
490.44	346.60
490.81	348.89
491.17	350.99
491.54	353.53
491.90	356.11
492.26	358.76
492.63	361.58
492.99	364.38
493.36	367.43
493.72	370.77
494.08	374.22
494.45	377.89
494.81	381.84
495.17	385.77
495.54	389.90
495.90	394.07
496.26	398.55
496.63	403.18
496.99	407.91
497.35	412.95
497.72	418.22
498.08	423.89
498.44	429.68
498.80	435.74
499.17	441.67
499.53	447.94
499.89	454.56
500.26	461.39
500.62	468.42
500.98	475.90
501.34	483.31
501.71	491.05
502.07	498.88
502.43	507.02
502.79	515.35
503.16	524.15
503.52	533.15
503.88	542.39
504.24	552.17
504.60	562.41
504.97	572.66
505.33	583.07
505.69	594.07
506.05	605.10
506.41	616.32
506.78	628.11
507.14	640.15
507.50	652.67
507.86	665.20
508.22	678.20
508.59	691.23
508.95	704.94
509.31	719.03
509.67	733.44
510.03	747.76
510.39	762.59
510.75	777.48
511.12	792.88
511.48	808.49
511.84	824.35
512.20	839.93
512.56	856.45
512.92	873.45
513.28	890.27
513.64	907.58
514.00	925.15
514.37	943.07
514.73	961.28
515.09	979.62
515.45	998.13
515.81	1016.63
516.17	1035.45
516.53	1054.00
516.89	1072.90
517.25	1092.10
517.61	1112.67
517.97	1133.17
518.33	1153.45
518.69	1173.61
519.05	1194.21
519.41	1214.94
519.77	1236.51
520.13	1257.37
520.49	1278.09
520.85	1300.59
521.21	1321.80
521.57	1343.25
521.93	1364.06
522.29	1385.43
522.65	1405.95
523.01	1427.07
523.37	1447.84
523.73	1469.12
524.09	1490.01
524.45	1510.82
524.81	1532.16
525.17	1552.57
525.53	1573.10
525.89	1594.22
526.25	1615.05
526.61	1635.53
526.97	1656.41
527.33	1677.46
527.68	1699.49
528.04	1720.86
528.40	1740.57
528.76	1762.01
529.12	1782.29
529.48	1803.12
529.84	1823.49
530.20	1845.13
530.56	1866.21
530.91	1887.30
531.27	1907.68
531.63	1928.33
531.99	1949.18
532.35	1969.01
532.71	1989.63
533.07	2010.38
533.42	2030.11
533.78	2050.35
534.14	2070.45
534.50	2089.64
534.86	2108.98
535.21	2126.59
535.57	2144.97
535.93	2162.92
536.29	2180.41
536.65	2198.70
537.00	2216.50
537.36	2234.00
537.72	2250.49
538.08	2267.52
538.44	2284.28
538.79	2301.00
539.15	2317.76
539.51	2333.80
539.87	2349.36
540.22	2363.42
540.58	2377.93
540.94	2391.68
541.29	2404.26
541.65	2416.86
542.01	2429.68
542.37	2440.51
542.72	2451.64
543.08	2462.60
543.44	2474.28
543.79	2484.61
544.15	2494.88
544.51	2504.82
544.87	2514.70
545.22	2523.73
545.58	2531.51
545.94	2539.16
546.29	2545.70
546.65	2552.04
547.01	2557.66
547.36	2563.37
547.72	2568.77
548.07	2572.76
548.43	2578.07
548.79	2583.28
549.14	2587.52
549.50	2591.50
549.86	2595.60
550.21	2599.28
550.57	2602.77
550.92	2604.14
551.28	2605.32
551.64	2607.77
551.99	2610.05
552.35	2611.70
552.70	2613.33
553.06	2615.08
553.41	2616.34
553.77	2617.99
554.13	2619.89
554.48	2621.65
554.84	2622.93
555.19	2624.57
555.55	2626.49
555.90	2625.83
556.26	2624.89
556.61	2623.49
556.97	2621.64
557.32	2621.33
557.68	2620.40
558.03	2619.30
558.39	2618.58
558.74	2618.30
559.10	2614.97
559.45	2611.47
559.81	2607.25
560.16	2602.72
560.52	2598.09
560.87	2593.51
561.23	2588.28
561.58	2582.41
561.94	2575.68
562.29	2568.53
562.64	2561.30
563.00	2552.74
563.35	2546.47
563.71	2540.08
564.06	2534.00
564.42	2527.26
564.77	2520.07
565.12	2512.51
565.48	2504.65
565.83	2496.69
566.19	2488.46
566.54	2481.13
566.89	2473.09
567.25	2465.28
567.60	2457.78
567.96	2450.30
568.31	2442.36
568.66	2433.78
569.02	2424.29
569.37	2415.94
569.72	2408.35
570.08	2399.22
570.43	2390.00
570.78	2380.80
571.14	2371.26
571.49	2361.11
571.84	2351.46
572.20	2340.46
572.55	2330.35
572.90	2319.26
573.26	2308.87
573.61	2297.63
573.96	2286.41
574.31	2274.26
574.67	2262.51
575.02	2249.88
575.37	2237.15
575.72	2223.80
576.08	2211.63
576.43	2199.32
576.78	2186.10
577.13	2172.37
577.49	2159.50
577.84	2147.71
578.19	2135.29
578.54	2122.54
578.90	2110.32
579.25	2098.27
579.60	2086.00
579.95	2072.89
580.30	2059.70
580.66	2045.94
581.01	2032.32
581.36	2017.95
581.71	2005.52
582.06	1992.22
582.42	1979.59
582.77	1966.61
583.12	1954.62
583.47	1942.23
583.82	1930.30
584.17	1918.47
584.53	1906.36
584.88	1893.36
585.23	1879.99
585.58	1865.74
585.93	1852.39
586.28	1838.87
586.63	1824.68
586.98	1810.23
587.34	1797.15
587.69	1783.74
588.04	1771.17
588.39	1758.80
588.74	1746.56
589.09	1734.13
589.44	1721.47
589.79	1709.35
590.14	1697.54
590.49	1685.42
590.84	1673.08
591.19	1660.94
591.54	1648.57
591.89	1636.51
592.25	1626.25
592.60	1614.81
592.95	1603.44
593.30	1591.33
593.65	1579.46
594.00	1567.39
594.35	1557.60
594.70	1545.51
595.05	1534.20
595.40	1521.90
595.75	1510.24
596.10	1498.84
596.45	1487.27
596.80	1476.27
597.15	1464.54
597.50	1452.63
597.85	1441.01
598.19	1429.28
598.54	1417.36
598.89	1405.80
599.24	1394.88
599.59	1382.98
599.94	1371.84
600.29	1361.20
600.64	1350.92
600.99	1340.17
601.34	1330.56
601.69	1319.09
602.04	1309.16
602.39	1299.48
602.74	1290.30
603.08	1280.85
603.43	1271.62
603.78	1261.88
604.13	1252.14
604.48	1242.46
604.83	1232.60
605.18	1222.97
605.53	1213.45
605.87	1204.12
606.22	1195.74
606.57	1186.47
606.92	1176.95
607.27	1167.97
607.62	1159.14
607.96	1150.40
608.31	1142.23
608.66	1133.75
609.01	1125.13
609.36	1116.39
609.70	1107.64
610.05	1098.90
610.40	1090.16
610.75	1081.32
611.10	1072.79
611.44	1064.03
611.79	1055.82
612.14	1048.09
612.49	1040.11
612.83	1032.60
613.18	1025.08
613.53	1017.09
613.88	1009.01
614.22	1001.40
614.57	993.36
614.92	985.28
615.27	977.81
615.61	970.00
615.96	962.15
616.31	954.65
616.65	947.51
617.00	940.05
617.35	932.59
617.70	925.46
618.04	918.22
618.39	911.27
618.74	904.77
619.08	897.65
619.43	890.26
619.78	883.07
620.12	875.96
620.47	868.96
620.82	861.71
621.16	854.88
621.51	848.54
621.85	842.25
622.20	835.76
622.55	828.95
622.89	822.56
623.24	815.95
623.59	809.55
623.93	803.15
624.28	796.83
624.62	791.20
624.97	785.30
625.32	779.54
625.66	773.42
626.01	767.30
626.35	761.96
626.70	756.44
627.04	751.12
627.39	745.46
627.73	740.00
628.08	734.72
628.43	729.18
628.77	723.58
629.12	718.23
629.46	713.20
629.81	708.34
630.15	703.50
630.50	698.71
630.84	693.77
631.19	688.99
631.53	684.54
631.88	679.17
632.22	674.02
632.57	669.48
632.91	664.76
633.26	660.23
633.60	655.35
633.95	650.68
634.29	645.85
634.64	641.20
634.98	636.35
635.32	631.89
635.67	628.12
636.01	623.81
636.36	619.33
636.70	615.39
637.05	611.21
637.39	607.10
637.73	602.98
638.08	599.12
638.42	594.89
638.77	590.52
639.11	586.28
639.45	582.08
639.80	577.59
640.14	573.62
640.49	569.63
640.83	565.85
641.17	562.11
641.52	558.30
641.86	554.68
642.20	551.58
642.55	547.96
642.89	544.02
643.23	540.48
643.58	537.42
643.92	533.54
644.26	530.04
644.61	526.69
644.95	523.28
645.29	519.69
645.64	516.49
645.98	513.39
646.32	510.35
646.66	507.22
647.01	504.37
647.35	501.52
647.69	498.49
648.04	495.70
648.38	492.91
648.72	490.05
649.06	487.17
649.41	483.95
649.75	480.80
650.09	477.90
650.43	475.07
650.78	472.02
651.12	469.32
651.46	466.57
651.80	463.77
652.14	460.97
652.49	458.47
652.83	455.88
653.17	453.15
653.51	450.50
653.85	448.20
654.20	445.51
654.54	442.91
654.88	440.39
655.22	438.05
655.56	435.44
655.90	433.00
656.25	430.67
656.59	428.51
656.93	426.42
657.27	424.42
657.61	422.02
657.95	419.84
658.29	417.72
658.64	415.58
658.98	413.22
659.32	411.01
659.66	408.75
660.00	406.44
660.34	404.42
660.68	402.35
661.02	400.20
661.36	398.20
661.70	396.18
662.05	394.22
662.39	392.16
662.73	390.47
663.07	388.95
663.41	386.94
663.75	384.93
664.09	383.00
664.43	380.98
664.77	379.35
665.11	377.60
665.45	375.83
665.79	374.23
666.13	372.59
666.47	370.97
666.81	369.30
667.15	367.69
667.49	366.14
667.83	364.76
668.17	363.21
668.51	361.84
668.85	360.47
669.19	359.39
669.53	357.82
669.87	356.23
670.21	354.63
670.55	353.36
670.89	352.24
671.23	350.92
671.57	349.49
671.91	348.14
672.25	346.84
672.58	345.70
672.92	344.19
673.26	342.90
673.60	341.71
673.94	340.60
674.28	339.57
674.62	338.43
674.96	337.17
675.30	336.00
675.64	334.78
675.97	333.44
676.31	332.05
676.65	330.82
676.99	329.86
677.33	328.68
677.67	327.55
678.01	326.24
678.34	325.15
678.68	324.21
679.02	323.05
679.36	321.99
679.70	320.85
680.04	319.91
680.37	319.02
680.71	317.92
681.05	316.93
681.39	315.94
681.73	315.00
682.06	314.06
682.40	313.17
682.74	312.36
683.08	311.71
683.42	310.78
683.75	310.04
684.09	309.04
684.43	308.17
684.77	307.35
685.10	306.55
685.44	305.78
685.78	304.95
686.12	304.23
686.45	303.34
686.79	302.49
687.13	301.77
687.46	300.95
687.80	300.22
688.14	299.46
688.48	298.70
688.81	297.89
689.15	297.27
689.49	296.57
689.82	295.81
690.16	294.93
690.50	294.18
690.83	293.39
691.17	292.65
691.51	292.00
691.84	291.34
692.18	290.65
692.52	289.97
692.85	289.41
693.19	288.92
693.52	288.40
693.86	287.72
694.20	287.07
694.53	286.49
694.87	285.87
695.21	285.22
695.54	284.65
695.88	284.01
696.21	283.21
696.55	282.59
696.88	282.00
697.22	281.42
697.56	280.96
697.89	280.40
698.23	279.88
698.56	279.29
698.90	278.82
699.23	278.31
699.57	277.83
699.90	277.14
700.24	276.48
700.58	275.97
700.91	275.63
701.25	275.58
701.58	275.39
701.92	275.15
702.25	274.65
702.59	274.12
702.92	273.73
703.26	273.46
703.59	273.12
703.93	273.04
704.26	272.66
704.60	272.20
704.93	271.81
705.26	271.34
705.60	271.05
705.93	270.50
706.27	270.15
706.60	269.88
706.94	269.78
707.27	269.37
707.61	268.99
707.94	268.60
708.27	267.88
708.61	267.11
708.94	266.60
709.28	266.25
709.61	265.86
709.94	265.45
710.28	265.02
710.61	264.59
710.95	263.78
711.28	263.75
711.61	263.39
711.95	263.14
712.28	262.80
712.61	262.43
712.95	262.44
713.28	262.33
713.61	261.85
713.95	261.33
714.28	261.07
714.61	260.72
714.95	260.40
715.28	259.90
715.61	259.58
715.95	259.30
716.28	258.93
716.61	258.67
716.95	258.36
717.28	258.02
717.61	257.73
717.94	257.44
718.28	256.70
718.61	256.43
718.94	256.09
719.27	255.86
719.61	255.55
719.94	255.06
720.27	254.57
720.60	254.31
720.94	254.14
721.27	253.89
721.60	253.71
721.93	253.32
722.27	253.25
722.60	253.11
722.93	252.80
723.26	252.69
723.59	252.40
723.93	252.30
724.26	252.13
724.59	251.88
724.92	251.71
725.25	251.71
725.59	251.50
725.92	251.33
726.25	251.09
726.58	250.99
726.91	250.79
727.24	250.64
727.57	250.47
727.91	250.16
728.24	250.07
728.57	249.76
728.90	249.72
729.23	249.45
729.56	249.50
729.89	249.35
730.22	249.05
730.55	248.89
730.89	248.62
731.22	248.41
731.55	248.20
731.88	248.13
732.21	247.86
732.54	247.59
732.87	247.37
733.20	247.36
733.53	247.19
733.86	247.01
734.19	246.77
734.52	246.63
734.85	246.80
735.18	246.51
735.51	246.50
735.84	246.38
736.17	246.34
736.50	245.91
736.83	246.31
737.16	246.26
737.49	246.15
737.82	246.00
738.15	245.94
738.48	245.83
738.81	245.53
739.14	245.36
739.47	245.25
739.80	245.13
740.13	244.89
740.46	244.54
740.79	244.39
741.12	244.16
741.45	243.93
741.78	243.49
742.11	243.45
742.44	243.20
742.77	243.11
743.10	242.82
743.43	242.67
743.75	242.01
744.08	242.43
744.41	242.26
744.74	242.07
745.07	241.86
745.40	241.81
745.73	241.96
746.06	241.82
746.39	241.80
746.71	241.55
747.04	241.37
747.37	241.42
747.70	241.33
748.03	241.35
748.36	241.34
748.68	241.30
749.01	241.03
749.34	240.92
749.67	240.77
750.00	240.78
750.33	241.01
750.65	240.93
750.98	240.24
751.31	240.07
751.64	240.00
751.97	240.07
752.29	239.95
752.62	239.63
752.95	239.47
753.28	239.21
753.60	239.11
753.93	239.14
754.26	239.07
754.59	238.83
754.91	238.69
755.24	238.52
755.57	238.37
755.90	238.29
756.22	238.07
756.55	237.90
756.88	237.63
757.20	237.22
757.53	236.94
757.86	236.84
758.19	236.77
758.51	236.69
758.84	236.40
759.17	236.23
759.49	236.17
759.82	236.27
760.15	236.20
760.47	236.11
760.80	235.81
761.13	235.72
761.45	235.64
761.78	235.48
762.11	235.35
762.43	235.18
762.76	235.05
763.08	235.06
763.41	234.99
763.74	234.93
764.06	234.82
764.39	234.73
764.71	234.68
765.04	234.57
765.37	234.40
765.69	234.34
766.02	234.22
766.34	234.08
766.67	233.89
767.00	233.87
767.32	234.09
767.65	234.35
767.97	234.21
768.30	234.19
768.62	234.15
768.95	234.15
769.27	234.12
769.60	234.12
769.92	234.01
770.25	233.89
770.57	233.81
770.90	233.73
771.22	233.67
771.55	233.56
771.87	233.61
772.20	233.59
772.52	233.88
772.85	234.44
773.17	234.37
773.50	234.18
773.82	234.13
774.15	233.85
774.47	233.46
774.80	233.38
775.12	233.30
775.45	233.21
775.77	233.16
776.09	233.10
776.42	233.03
776.74	233.10
777.07	233.01
777.39	232.97
777.72	232.91
778.04	232.93
778.36	232.89
778.69	232.79
779.01	232.72
779.33	232.25
779.66	231.65
779.98	231.61
780.31	231.63
780.63	231.83
780.95	231.80
781.28	231.78
781.60	231.62
781.92	231.61
782.25	231.56
782.57	231.55
782.89	231.46
783.22	231.39
783.54	231.25
783.86	231.30
784.19	231.23
784.51	231.36
784.83	231.28
785.16	231.19
785.48	231.15
785.80	231.10
786.12	231.06
786.45	231.02
786.77	231.06
787.09	231.07
787.42	230.83
787.74	230.88
788.06	230.92
788.38	231.01
788.71	230.95
789.03	231.01
789.35	230.96
789.67	230.93
789.99	230.97
790.32	230.90
790.64	230.90
790.96	231.30
791.28	231.09
791.61	231.09
791.93	231.12
792.25	231.10
792.57	231.51
792.89	231.45
793.21	231.51
793.54	231.36
793.86	231.26
794.18	231.23
794.50	231.06
794.82	231.07
795.14	231.02
795.47	231.09
795.79	231.02
796.11	230.94
796.43	230.91
796.75	230.87
797.07	230.94
797.39	230.90
797.71	230.50
798.04	230.58
798.36	230.55
798.68	230.53
799.00	230.55
799.32	230.25
799.64	230.32
799.96	230.26
800.28	230.36
800.60	230.39
800.92	230.42
801.24	230.42
801.56	230.33
801.89	230.37
802.21	230.36
802.53	230.24
802.85	230.35
803.17	230.56
803.49	230.51
803.81	230.43
804.13	230.41
804.45	230.40
804.77	230.40
805.09	230.39
805.41	230.34
805.73	230.29
806.05	230.15
806.37	230.07
806.69	230.02
807.01	229.93
807.33	229.91
807.65	229.69
807.97	229.89
808.28	229.91
808.60	229.80
808.92	229.66
809.24	230.00
809.56	229.83
809.88	229.59
810.20	229.58
810.52	229.66
810.84	229.49
811.16	229.35
811.48	229.31
811.80	229.45
812.12	229.40
812.43	229.38
812.75	229.37
813.07	229.32
813.39	229.26
813.71	229.23
814.03	229.23
814.35	229.25
814.67	228.97
814.98	228.90
815.30	228.88
815.62	228.83
815.94	228.51
816.26	228.75
816.58	228.68
816.89	228.63
817.21	228.52
817.53	228.59
817.85	228.73
818.17	228.63
818.48	228.44
818.80	228.51
819.12	228.47
819.44	228.35
819.76	228.34
820.07	228.36
820.39	228.32
820.71	228.28
821.03	228.25
821.34	228.32
821.66	228.36
821.98	228.45
822.30	228.44
822.61	228.65
822.93	228.40
823.25	228.43
823.57	228.38
823.88	228.45
824.20	228.40
824.52	228.40
824.83	228.42
825.15	228.40
825.47	228.41
825.79	228.41
826.10	228.39
826.42	228.41
826.74	228.46
827.05	228.42
827.37	228.45
827.69	228.47
828.00	228.41
828.32	228.40
828.64	228.23
828.95	228.47
829.27	228.34
829.58	228.30
829.90	228.35
830.22	228.46
830.53	228.36
830.85	228.32
831.17	228.20
831.48	228.20
831.80	228.27
832.11	228.27
832.43	228.28
832.75	228.30
833.06	228.60
833.38	228.43
833.69	228.45
834.01	228.46
834.32	228.42
834.64	228.34
834.96	228.33
835.27	228.44
835.59	228.26
835.90	228.19
836.22	228.22
836.53	228.12
836.85	228.00
837.16	228.46
837.48	228.53
837.79	228.73
838.11	228.73
838.42	228.74
838.74	228.74
839.05	228.70
839.37	228.70
839.68	228.42
840.00	228.47
840.31	228.61
840.63	228.47
840.94	228.49
841.26	228.47
841.57	228.45
841.88	228.40
842.20	228.37
842.51	228.30
842.83	228.28
843.14	228.75
843.46	228.78
843.77	228.49
844.08	228.38
844.40	228.21
844.71	228.14
845.03	227.99
845.34	227.90
845.65	227.83
845.97	227.82
846.28	227.77
846.60	227.78
846.91	227.65
847.22	227.73
847.54	227.82
847.85	227.89
848.16	227.81
848.48	227.75
848.79	227.85
849.10	227.87
849.42	227.92
849.73	227.46
850.04	227.41
850.36	227.21
850.67	227.35
850.98	227.39
851.30	227.48
851.61	227.47
851.92	227.47
852.23	227.64
852.55	227.68
852.86	227.72
853.17	227.74
853.49	227.79
853.80	227.77
854.11	227.80
854.42	227.83
854.74	227.81
855.05	227.87
855.36	227.59
855.67	227.63
855.99	227.62
856.30	228.09
856.61	228.13
856.92	228.17
857.23	228.09
857.55	228.01
857.86	227.91
858.17	228.00
858.48	227.95
858.79	227.80
859.11	227.82
859.42	227.76
859.73	227.66
860.04	227.70
860.35	227.61
860.66	227.40
860.98	227.39
861.29	227.44
861.60	227.36
861.91	227.58
862.22	227.52
862.53	227.38
862.84	226.84
863.16	226.91
863.47	226.82
863.78	226.81
864.09	226.83
864.40	226.94
864.71	226.98
865.02	226.99
865.33	226.99
865.64	226.94
865.95	227.01
866.27	227.39
866.58	227.27
866.89	227.31
867.20	227.38
867.51	227.35
867.82	227.33
868.13	227.49
868.44	227.39
868.75	227.41
869.06	227.47
869.37	227.52
869.68	227.42
869.99	227.54
870.30	227.62
870.61	227.65
870.92	227.56
871.23	227.38
871.54	227.47
871.85	227.61
872.16	227.61
872.47	227.52
872.78	227.26
873.09	227.33
873.40	227.36
873.71	227.40
874.02	227.44
874.33	227.45
874.64	227.38
874.95	227.44
875.26	227.40
875.56	227.45
875.87	227.49
876.18	227.49
876.49	227.95
876.80	227.88
877.11	227.84
877.42	227.84
877.73	228.04
878.04	227.98
878.35	228.00
878.66	228.04
878.96	228.02
879.27	227.96
879.58	227.90
879.89	227.86
880.20	228.04
880.51	227.98
880.82	227.92
881.12	227.95
881.43	227.88
881.74	227.88
882.05	227.87
882.36	227.90
882.67	227.90
882.97	227.34
883.28	227.33
883.59	227.35
883.90	227.40
884.21	227.38
884.51	227.33
884.82	227.24
885.13	227.26
885.44	227.30
885.74	227.30
886.05	227.36
886.36	227.38
886.67	227.22
886.98	227.42
887.28	227.49
887.59	227.42
887.90	227.44
888.20	227.36
888.51	227.41
888.82	227.33
889.13	227.36
889.43	227.75
889.74	227.68
890.05	227.58
890.35	227.58
890.66	227.47
890.97	227.45
891.28	227.35
891.58	227.35
891.89	227.31
892.20	227.24
892.50	227.18
892.81	227.15
893.12	227.07
893.42	226.88
893.73	226.90
894.04	226.91
894.34	226.93
894.65	226.90
894.95	226.84
895.26	226.87
895.57	227.00
895.87	226.58
896.18	226.71
896.48	226.76
896.79	226.68
897.10	226.72
897.40	226.74
897.71	226.80
898.01	226.76
898.32	226.78
898.63	226.79
898.93	226.81
899.24	226.77
899.54	226.70
899.85	226.67
900.15	226.63
900.46	226.60
900.76	226.63
901.07	226.65
901.38	226.57
901.68	226.63
901.99	226.41
902.29	226.42
902.60	226.31
902.90	226.24
903.21	226.22
903.51	226.21
903.82	226.24
904.12	226.20
904.43	226.16
904.73	226.17
905.03	226.18
905.34	226.68
905.64	226.62
905.95	226.66
906.25	226.65
906.56	226.67
906.86	226.70
907.17	226.63
907.47	226.63
907.77	226.69
908.08	226.55
908.38	226.61
908.69	226.65
908.99	226.79
909.30	226.88
909.60	226.87
909.90	226.88
910.21	226.85
910.51	226.86
910.81	226.92
911.12	226.96
911.42	226.95
911.73	226.41
912.03	226.52
912.33	226.66
912.64	226.61
912.94	226.51
913.24	226.38
913.55	226.39
913.85	226.45
914.15	226.54
914.46	226.61
914.76	226.55
915.06	226.51
915.37	226.41
915.67	226.38
915.97	226.41
916.27	226.30
916.58	226.31
916.88	226.27
917.18	226.21
917.49	226.48
917.79	226.50
918.09	226.54
918.39	226.70
918.70	226.66
919.00	226.71
919.30	227.00
919.60	227.00
919.91	226.95
920.21	226.95
920.51	226.83
920.81	226.85
921.12	227.03
921.42	227.03
921.72	227.08
922.02	227.10
922.32	227.17
922.63	227.27
922.93	227.48
923.23	227.51
923.53	227.45
923.83	227.19
924.13	227.28
924.44	227.33
924.74	227.35
925.04	227.44
925.34	227.48
925.64	227.28
925.94	227.36
926.24	227.67
926.55	227.67
926.85	227.75
927.15	227.72
927.45	227.71
927.75	227.71
928.05	227.61
928.35	227.61
928.65	227.67
928.95	227.65
929.26	227.49
929.56	227.60
929.86	227.72
930.16	227.73
930.46	227.66
930.76	227.66
931.06	227.43
931.36	227.26
931.66	227.32
931.96	227.39
932.26	227.41
932.56	227.17
932.86	227.23
933.16	227.23
933.46	227.21
933.76	227.12
934.06	227.31
934.36	227.57
934.66	227.55
934.96	227.52
935.26	227.55
935.56	227.58
935.86	227.51
936.16	227.41
936.46	227.30
936.76	227.25
937.06	227.25
937.36	227.30
937.66	227.35
937.96	227.28
938.26	227.09
938.56	227.06
938.86	227.03
939.16	227.07
939.46	227.08
939.76	227.04
940.06	226.99
940.35	226.80
940.65	226.55
940.95	226.65
941.25	226.50
941.55	226.42
941.85	226.41
942.15	226.46
942.45	226.63
942.75	226.69
943.04	226.73
943.34	226.73
943.64	226.70
943.94	226.60
944.24	226.70
944.54	226.69
944.84	226.66
945.13	226.66
945.43	226.57
945.73	226.55
946.03	226.52
946.33	226.47
946.62	226.46
946.92	226.47
947.22	226.47
947.52	226.48
947.82	226.57
948.11	226.53
948.41	226.42
948.71	226.28
949.01	226.26
949.31	226.19
949.60	226.17
949.90	226.14
950.20	226.14
950.50	226.06
950.79	226.11
951.09	226.21
951.39	226.18
951.69	226.13
951.98	226.26
952.28	226.32
952.58	226.35
952.87	226.42
953.17	226.47
953.47	226.39
953.76	226.48
954.06	226.38
954.36	226.33
954.66	226.37
954.95	226.52
955.25	226.58
955.55	226.66
955.84	226.66
956.14	226.86
956.44	226.94
956.73	226.87
957.03	226.90
957.32	226.85
957.62	226.86
957.92	226.97
958.21	226.83
958.51	227.36
958.81	227.40
959.10	227.40
959.40	227.48
959.69	227.58
959.99	227.60
960.29	227.70
960.58	227.66
960.88	227.79
961.17	227.79
961.47	227.79
961.76	227.72
962.06	227.78
962.36	227.63
962.65	227.63
962.95	227.65
963.24	227.58
963.54	227.61
963.83	227.63
964.13	227.57
964.42	227.56
964.72	227.15
965.01	227.16
965.31	227.11
965.60	226.96
965.90	227.15
966.19	227.05
966.49	226.99
966.78	226.97
967.08	226.92
967.37	226.83
967.67	226.74
967.96	226.87
968.26	226.74
968.55	226.76
968.85	226.70
969.14	226.69
969.43	226.67
969.73	226.61
970.02	226.62
970.32	226.59
970.61	226.57
970.91	226.45
971.20	226.33
971.49	226.28
971.79	226.36
972.08	226.08
972.38	226.15
972.67	226.05
972.96	226.16
973.26	226.06
973.55	226.23
973.85	226.22
974.14	226.09
974.43	226.25
974.73	226.23
975.02	226.24
975.31	226.28
975.61	226.26
975.90	226.20
976.19	226.12
976.49	226.12
976.78	226.12
977.07	226.11
977.37	226.16
977.66	226.22
977.95	226.22
978.24	226.16
978.54	226.20
978.83	226.28
979.12	226.18
979.42	226.16
979.71	226.08
980.00	226.14
980.29	226.18
980.59	226.01
980.88	226.10
981.17	226.08
981.46	226.05
981.76	226.12
982.05	226.30
982.34	226.38
982.63	226.37
982.93	226.32
983.22	226.55
983.51	226.56
983.80	226.65
984.09	226.69
984.39	226.72
984.68	226.65
984.97	226.71
985.26	226.72
985.55	226.77
985.85	226.66
986.14	226.68
986.43	226.78
986.72	226.79
987.01	226.67
987.30	226.72
987.59	226.71
987.89	226.74
988.18	226.63
988.47	226.62
988.76	226.60
989.05	226.67
989.34	226.52
989.63	226.63
989.92	226.54
990.22	226.49
990.51	226.51
990.80	226.58
991.09	226.60
991.38	226.69
991.67	226.63
991.96	226.60
992.25	226.61
992.54	226.53
992.83	226.62
993.12	226.63
993.41	226.76
993.70	226.97
993.99	227.07
994.28	227.12
994.58	227.21
994.87	227.21
995.16	227.15
995.45	227.14
995.74	226.99
996.03	227.05
996.32	227.10
996.61	227.17
996.90	227.13
997.19	227.04
997.48	227.00
997.77	227.01
998.06	227.05
998.34	227.03
998.63	227.02
998.92	226.98
999.21	227.04
999.50	226.95
999.79	226.79
1000.08	226.72
1000.37	226.73
1000.66	226.65
1000.95	226.77
1001.24	226.79
1001.53	226.81
1001.82	226.83
1002.11	226.67
1002.40	226.63
1002.68	226.77
1002.97	227.07
1003.26	227.10
1003.55	227.08
1003.84	227.08
1004.13	227.25
1004.42	227.25
1004.71	227.26
1004.99	227.23
1005.28	227.35
1005.57	227.34
1005.86	227.25
1006.15	227.17
1006.44	227.10
1006.72	227.15
1007.01	227.05
1007.30	227.00
1007.59	226.94
1007.88	226.94
1008.17	226.99
1008.45	227.02
1008.74	226.75
1009.03	226.61
1009.32	226.60
1009.60	226.59
1009.89	226.61
1010.18	226.37
1010.47	226.28
1010.76	226.31
1011.04	226.27
1011.33	226.24
1011.62	226.25
1011.91	226.26
1012.19	226.31
1012.48	226.30
1012.77	226.22
1013.05	226.45
1013.34	226.50
1013.63	226.45
1013.92	226.47
1014.20	226.45
1014.49	226.39
1014.78	226.45
1015.06	226.21
1015.35	226.23
1015.64	226.26
1015.92	226.33
1016.21	226.38
1016.50	226.36
1016.78	226.30
1017.07	226.37
1017.36	226.26
1017.64	226.24
1017.93	226.30
1018.22	226.25
1018.50	226.25
1018.79	226.27
1019.08	226.03
1019.36	226.08
1019.65	226.04
1019.93	226.14
1020.22	226.19
1020.51	226.41
1020.79	226.40
1021.08	225.25
1021.36	225.70
1021.65	226.10
1021.94	225.80
1022.22	226.65
1022.51	224.85
1022.79	227.80
1023.08	226.45
1023.36	231.35
1023.65	226.15
>>>>>End Processed Spectral Data<<<<<
