SpectraSuite Data File
++++++++++++++++++++++++++++++++++++
Date: Wed Sep 04 17:41:50 EDT 2013
User: lab3
Dark Spectrum Present: Yes
Reference Spectrum Present: No
Number of Sampled Component Spectra: 1
Spectrometers: USB2E7196
Integration Time (usec): 170000 (USB2E7196)
Spectra Averaged: 20 (USB2E7196)
Boxcar Smoothing: 10 (USB2E7196)
Correct for Electrical Dark: No (USB2E7196)
Strobe/Lamp Enabled: No (USB2E7196)
Correct for Detector Non-linearity: No (USB2E7196)
Correct for Stray Light: No (USB2E7196)
Number of Pixels in Processed Spectrum: 2048
>>>>>Begin Processed Spectral Data<<<<<
339.09	0.00
339.48	213.10
339.86	214.65
340.24	214.25
340.63	216.35
341.01	224.80
341.39	218.65
341.78	221.50
342.16	223.35
342.54	222.20
342.93	211.64
343.31	222.35
343.69	222.83
344.07	223.27
344.46	223.80
344.84	224.23
345.22	224.22
345.60	224.45
345.99	224.59
346.37	224.73
346.75	224.82
347.13	224.91
347.52	224.98
347.90	225.21
348.28	225.26
348.66	225.36
349.05	225.20
349.43	225.31
349.81	225.41
350.19	225.42
350.57	225.49
350.96	225.60
351.34	225.67
351.72	225.81
352.10	225.96
352.48	226.01
352.87	226.08
353.25	226.12
353.63	226.20
354.01	226.33
354.39	226.43
354.77	226.52
355.15	226.72
355.54	226.72
355.92	226.60
356.30	226.68
356.68	227.05
357.06	227.15
357.44	227.11
357.82	227.17
358.20	227.65
358.58	227.69
358.97	227.77
359.35	227.91
359.73	228.07
360.11	228.10
360.49	228.09
360.87	228.09
361.25	228.22
361.63	228.51
362.01	228.51
362.39	228.50
362.77	228.60
363.15	228.58
363.53	228.63
363.91	228.79
364.29	228.78
364.67	228.31
365.05	228.43
365.43	228.58
365.81	228.67
366.19	228.49
366.57	228.70
366.95	228.70
367.33	228.64
367.71	228.62
368.09	228.74
368.47	228.78
368.85	228.84
369.23	228.92
369.61	228.71
369.99	228.92
370.37	229.03
370.75	229.27
371.13	229.18
371.51	229.11
371.89	229.06
372.27	229.13
372.65	229.15
373.03	229.05
373.41	228.90
373.78	228.81
374.16	228.65
374.54	228.51
374.92	228.46
375.30	228.40
375.68	228.28
376.06	228.24
376.44	228.19
376.82	228.11
377.19	228.03
377.57	227.95
377.95	227.72
378.33	227.49
378.71	227.14
379.09	227.17
379.47	227.13
379.84	226.97
380.22	226.80
380.60	226.73
380.98	226.64
381.36	226.57
381.73	226.41
382.11	226.42
382.49	226.38
382.87	226.30
383.25	226.16
383.62	226.67
384.00	226.49
384.38	226.46
384.76	226.56
385.13	226.69
385.51	226.65
385.89	226.60
386.27	226.63
386.64	226.65
387.02	226.50
387.40	226.41
387.78	226.50
388.15	226.48
388.53	226.40
388.91	226.38
389.29	226.33
389.66	226.46
390.04	226.33
390.42	226.29
390.79	226.23
391.17	226.29
391.55	225.66
391.92	225.67
392.30	225.73
392.68	225.60
393.05	225.52
393.43	225.55
393.81	225.60
394.18	225.55
394.56	225.57
394.94	225.69
395.31	225.77
395.69	225.87
396.06	226.02
396.44	226.14
396.82	226.10
397.19	226.35
397.57	226.25
397.95	226.34
398.32	226.35
398.70	226.55
399.07	226.73
399.45	226.86
399.82	226.92
400.20	226.95
400.58	227.01
400.95	226.95
401.33	227.15
401.70	227.52
402.08	227.63
402.45	227.67
402.83	227.91
403.20	228.06
403.58	228.13
403.95	228.34
404.33	228.46
404.71	228.72
405.08	229.13
405.46	229.45
405.83	229.70
406.21	229.80
406.58	230.02
406.96	230.13
407.33	230.39
407.70	230.74
408.08	231.30
408.45	231.73
408.83	232.12
409.20	232.34
409.58	232.38
409.95	232.88
410.33	233.35
410.70	233.63
411.08	234.16
411.45	234.68
411.82	235.11
412.20	235.84
412.57	236.64
412.95	236.89
413.32	237.59
413.69	238.20
414.07	239.03
414.44	239.78
414.82	240.76
415.19	241.75
415.56	242.73
415.94	243.51
416.31	244.67
416.68	245.85
417.06	247.27
417.43	248.68
417.81	250.05
418.18	251.58
418.55	253.27
418.93	254.93
419.30	256.62
419.67	258.50
420.04	260.28
420.42	262.18
420.79	264.73
421.16	266.99
421.54	269.57
421.91	272.07
422.28	274.68
422.66	277.34
423.03	280.36
423.40	283.08
423.77	286.15
424.15	289.08
424.52	292.17
424.89	295.65
425.26	298.94
425.64	302.20
426.01	305.68
426.38	309.20
426.75	313.08
427.13	316.99
427.50	321.00
427.87	325.12
428.24	329.23
428.61	333.01
428.99	337.51
429.36	341.99
429.73	346.57
430.10	351.20
430.47	355.94
430.85	360.51
431.22	365.70
431.59	371.29
431.96	376.50
432.33	382.41
432.70	387.88
433.08	394.36
433.45	400.53
433.82	406.62
434.19	413.49
434.56	420.19
434.93	426.62
435.30	432.85
435.68	439.96
436.05	447.11
436.42	454.03
436.79	460.35
437.16	467.28
437.53	474.65
437.90	481.80
438.27	488.85
438.64	496.24
439.01	503.04
439.38	508.93
439.75	514.87
440.13	521.43
440.50	527.76
440.87	532.88
441.24	538.18
441.61	543.99
441.98	548.19
442.35	552.94
442.72	557.95
443.09	562.99
443.46	565.93
443.83	567.68
444.20	569.35
444.57	571.73
444.94	572.76
445.31	573.65
445.68	575.08
446.05	575.39
446.42	574.38
446.79	573.33
447.16	572.07
447.53	571.14
447.90	568.11
448.27	565.08
448.64	561.03
449.01	558.08
449.37	553.00
449.74	548.05
450.11	542.59
450.48	536.04
450.85	529.47
451.22	523.80
451.59	518.50
451.96	513.34
452.33	506.56
452.70	500.41
453.07	493.35
453.43	485.70
453.80	478.69
454.17	471.95
454.54	465.63
454.91	458.84
455.28	452.18
455.65	446.06
456.02	440.55
456.38	435.38
456.75	428.77
457.12	423.39
457.49	418.22
457.86	412.74
458.23	408.63
458.59	403.93
458.96	399.24
459.33	394.87
459.70	390.68
460.07	387.28
460.43	383.49
460.80	379.89
461.17	376.73
461.54	373.48
461.91	370.36
462.27	367.12
462.64	364.51
463.01	361.60
463.38	358.89
463.74	355.41
464.11	352.93
464.48	350.92
464.85	348.65
465.21	346.92
465.58	345.10
465.95	342.64
466.32	340.70
466.68	338.74
467.05	336.92
467.42	335.09
467.78	333.14
468.15	331.38
468.52	330.10
468.88	328.28
469.25	326.70
469.62	325.59
469.98	324.34
470.35	323.14
470.72	321.97
471.08	320.66
471.45	319.68
471.82	318.69
472.18	317.52
472.55	316.68
472.92	315.54
473.28	314.62
473.65	313.75
474.02	312.95
474.38	312.37
474.75	311.75
475.11	311.01
475.48	310.58
475.85	310.09
476.21	309.56
476.58	309.18
476.94	308.84
477.31	308.41
477.67	308.11
478.04	307.83
478.41	307.73
478.77	308.01
479.14	307.79
479.50	307.66
479.87	307.63
480.23	307.67
480.60	307.76
480.96	307.84
481.33	308.21
481.69	308.49
482.06	308.70
482.42	309.04
482.79	309.45
483.15	309.87
483.52	310.42
483.88	310.86
484.25	311.44
484.61	312.06
484.98	312.75
485.34	313.70
485.71	314.64
486.07	315.58
486.44	316.18
486.80	317.29
487.17	318.37
487.53	319.81
487.90	321.15
488.26	322.75
488.62	324.34
488.99	325.83
489.35	327.46
489.72	329.13
490.08	330.88
490.44	332.73
490.81	334.77
491.17	336.78
491.54	339.11
491.90	341.47
492.26	343.97
492.63	346.49
492.99	349.03
493.36	351.76
493.72	354.67
494.08	357.80
494.45	361.10
494.81	364.62
495.17	368.14
495.54	371.92
495.90	375.67
496.26	379.66
496.63	383.88
496.99	388.08
497.35	392.63
497.72	397.37
498.08	402.30
498.44	407.40
498.80	412.80
499.17	418.28
499.53	423.92
499.89	430.00
500.26	436.10
500.62	442.33
500.98	448.98
501.34	455.53
501.71	462.33
502.07	469.29
502.43	476.52
502.79	483.77
503.16	491.50
503.52	499.43
503.88	507.49
504.24	516.04
504.60	524.93
504.97	533.94
505.33	543.12
505.69	552.87
506.05	562.56
506.41	572.32
506.78	582.24
507.14	592.55
507.50	602.93
507.86	613.84
508.22	625.12
508.59	636.30
508.95	648.08
509.31	660.28
509.67	672.44
510.03	684.72
510.39	697.24
510.75	710.04
511.12	722.84
511.48	736.15
511.84	749.45
512.20	762.83
512.56	776.56
512.92	790.63
513.28	804.66
513.64	818.99
514.00	833.63
514.37	848.55
514.73	863.70
515.09	879.05
515.45	894.08
515.81	908.99
516.17	924.24
516.53	939.47
516.89	954.74
517.25	970.60
517.61	986.96
517.97	1003.39
518.33	1019.50
518.69	1035.90
519.05	1052.43
519.41	1068.79
519.77	1085.70
520.13	1102.39
520.49	1118.63
520.85	1136.40
521.21	1153.22
521.57	1169.85
521.93	1186.14
522.29	1202.91
522.65	1218.79
523.01	1235.15
523.37	1251.21
523.73	1267.74
524.09	1283.51
524.45	1299.54
524.81	1315.53
525.17	1331.12
525.53	1346.61
525.89	1362.48
526.25	1378.44
526.61	1393.54
526.97	1409.31
527.33	1424.95
527.68	1441.25
528.04	1457.36
528.40	1471.53
528.76	1487.05
529.12	1502.28
529.48	1517.63
529.84	1531.92
530.20	1547.63
530.56	1562.73
530.91	1578.01
531.27	1592.47
531.63	1607.25
531.99	1621.57
532.35	1635.63
532.71	1649.90
533.07	1664.80
533.42	1678.70
533.78	1692.38
534.14	1706.35
534.50	1719.59
534.86	1732.86
535.21	1744.32
535.57	1757.08
535.93	1769.14
536.29	1781.02
536.65	1793.27
537.00	1804.98
537.36	1816.71
537.72	1827.11
538.08	1838.39
538.44	1848.94
538.79	1859.78
539.15	1870.45
539.51	1881.02
539.87	1890.70
540.22	1899.35
540.58	1908.11
540.94	1916.01
541.29	1923.36
541.65	1930.61
542.01	1938.12
542.37	1943.87
542.72	1949.95
543.08	1955.50
543.44	1961.94
543.79	1967.22
544.15	1972.16
544.51	1977.18
544.87	1981.78
545.22	1986.19
545.58	1989.45
545.94	1992.76
546.29	1995.02
546.65	1997.56
547.01	1998.93
547.36	2000.28
547.72	2001.84
548.07	2001.99
548.43	2003.55
548.79	2004.43
549.14	2005.01
549.50	2005.19
549.86	2005.53
550.21	2006.05
550.57	2006.13
550.92	2004.65
551.28	2002.81
551.64	2001.90
551.99	2000.87
552.35	1999.54
552.70	1998.63
553.06	1997.58
553.41	1996.05
553.77	1995.35
554.13	1993.80
554.48	1992.76
554.84	1991.62
555.19	1990.14
555.55	1989.41
555.90	1986.41
556.26	1983.45
556.61	1980.30
556.97	1976.60
557.32	1974.20
557.68	1971.23
558.03	1967.64
558.39	1964.44
558.74	1961.65
559.10	1957.35
559.45	1952.70
559.81	1947.61
560.16	1941.61
560.52	1936.04
560.87	1931.12
561.23	1924.86
561.58	1918.74
561.94	1911.73
562.29	1904.38
562.64	1897.80
563.00	1889.87
563.35	1883.65
563.71	1877.73
564.06	1871.49
564.42	1865.41
564.77	1858.49
565.12	1851.59
565.48	1844.83
565.83	1837.89
566.19	1831.09
566.54	1823.73
566.89	1816.70
567.25	1809.97
567.60	1803.82
567.96	1797.33
568.31	1790.32
568.66	1783.06
569.02	1775.52
569.37	1768.97
569.72	1762.81
570.08	1754.95
570.43	1747.20
570.78	1739.47
571.14	1731.51
571.49	1723.29
571.84	1715.20
572.20	1706.85
572.55	1698.56
572.90	1689.87
573.26	1681.49
573.61	1672.38
573.96	1664.04
574.31	1654.56
574.67	1645.22
575.02	1635.24
575.37	1625.35
575.72	1615.01
576.08	1605.90
576.43	1596.32
576.78	1586.03
577.13	1575.67
577.49	1565.87
577.84	1556.80
578.19	1547.59
578.54	1538.22
578.90	1529.18
579.25	1519.92
579.60	1510.30
579.95	1500.68
580.30	1490.79
580.66	1480.94
581.01	1471.09
581.36	1460.66
581.71	1451.30
582.06	1441.88
582.42	1432.74
582.77	1423.32
583.12	1414.52
583.47	1405.45
583.82	1396.50
584.17	1387.77
584.53	1379.20
584.88	1370.04
585.23	1360.62
585.58	1350.54
585.93	1340.97
586.28	1331.09
586.63	1321.13
586.98	1311.04
587.34	1301.54
587.69	1292.25
588.04	1283.07
588.39	1274.63
588.74	1266.01
589.09	1257.35
589.44	1248.17
589.79	1239.45
590.14	1230.99
590.49	1222.43
590.84	1213.60
591.19	1205.41
591.54	1196.61
591.89	1187.94
592.25	1180.81
592.60	1172.57
592.95	1164.56
593.30	1156.19
593.65	1148.21
594.00	1139.75
594.35	1133.45
594.70	1125.20
595.05	1117.28
595.40	1108.91
595.75	1100.47
596.10	1092.83
596.45	1085.11
596.80	1077.75
597.15	1069.96
597.50	1061.73
597.85	1054.13
598.19	1046.29
598.54	1038.09
598.89	1030.52
599.24	1023.18
599.59	1015.13
599.94	1007.96
600.29	1001.07
600.64	994.16
600.99	986.71
601.34	980.18
601.69	972.27
602.04	965.50
602.39	958.70
602.74	952.72
603.08	946.24
603.43	939.91
603.78	933.13
604.13	926.64
604.48	919.97
604.83	913.61
605.18	906.88
605.53	900.42
605.87	894.31
606.22	888.62
606.57	882.49
606.92	876.03
607.27	869.93
607.62	863.78
607.96	858.04
608.31	852.83
608.66	847.19
609.01	841.37
609.36	835.73
609.70	830.21
610.05	824.37
610.40	818.92
610.75	813.02
611.10	807.37
611.44	801.55
611.79	796.15
612.14	790.95
612.49	785.47
612.83	780.42
613.18	775.23
613.53	769.97
613.88	764.55
614.22	759.44
614.57	753.99
614.92	748.64
615.27	743.39
615.61	737.98
615.96	732.68
616.31	727.52
616.65	722.81
617.00	717.94
617.35	713.09
617.70	708.13
618.04	703.23
618.39	698.65
618.74	694.37
619.08	689.82
619.43	684.85
619.78	680.03
620.12	674.94
620.47	670.15
620.82	665.16
621.16	660.40
621.51	656.04
621.85	651.73
622.20	647.32
622.55	642.82
622.89	638.59
623.24	634.51
623.59	630.20
623.93	625.95
624.28	621.71
624.62	617.96
624.97	614.24
625.32	610.22
625.66	606.10
626.01	601.87
626.35	598.00
626.70	594.41
627.04	590.93
627.39	587.27
627.73	583.79
628.08	580.47
628.43	576.90
628.77	573.25
629.12	569.84
629.46	566.64
629.81	563.47
630.15	560.04
630.50	556.60
630.84	553.33
631.19	549.99
631.53	546.86
631.88	543.09
632.22	539.46
632.57	536.55
632.91	533.33
633.26	530.35
633.60	527.20
633.95	523.96
634.29	520.60
634.64	517.68
634.98	514.40
635.32	511.42
635.67	508.83
636.01	506.04
636.36	502.98
636.70	500.24
637.05	497.25
637.39	494.52
637.73	491.86
638.08	489.15
638.42	486.34
638.77	483.27
639.11	480.25
639.45	477.39
639.80	474.26
640.14	471.61
640.49	468.85
640.83	466.23
641.17	463.72
641.52	461.37
641.86	458.89
642.20	456.72
642.55	454.09
642.89	451.54
643.23	449.00
643.58	446.89
643.92	444.34
644.26	441.94
644.61	439.73
644.95	437.26
645.29	434.98
645.64	432.86
645.98	430.83
646.32	428.94
646.66	426.84
647.01	424.80
647.35	422.87
647.69	420.90
648.04	419.05
648.38	416.97
648.72	414.93
649.06	412.87
649.41	410.63
649.75	408.71
650.09	406.68
650.43	404.85
650.78	402.79
651.12	400.84
651.46	398.95
651.80	396.85
652.14	395.05
652.49	393.25
652.83	391.28
653.17	389.45
653.51	387.59
653.85	386.00
654.20	384.30
654.54	382.50
654.88	380.73
655.22	379.14
655.56	377.59
655.90	375.98
656.25	374.34
656.59	372.96
656.93	371.29
657.27	369.83
657.61	368.03
657.95	366.49
658.29	364.97
658.64	363.55
658.98	362.08
659.32	360.54
659.66	358.98
660.00	357.50
660.34	356.08
660.68	354.65
661.02	353.21
661.36	351.86
661.70	350.47
662.05	349.09
662.39	347.71
662.73	346.48
663.07	345.44
663.41	344.21
663.75	342.80
664.09	341.57
664.43	340.18
664.77	339.01
665.11	337.78
665.45	336.53
665.79	335.43
666.13	334.19
666.47	333.05
666.81	331.91
667.15	330.67
667.49	329.56
667.83	328.72
668.17	327.63
668.51	326.62
668.85	325.64
669.19	324.95
669.53	323.84
669.87	322.67
670.21	321.53
670.55	320.65
670.89	319.97
671.23	319.04
671.57	318.17
671.91	317.29
672.25	316.39
672.58	315.69
672.92	314.57
673.26	313.83
673.60	312.91
673.94	312.17
674.28	311.47
674.62	310.81
674.96	309.85
675.30	309.09
675.64	308.30
675.97	307.48
676.31	306.44
676.65	305.62
676.99	305.04
677.33	304.18
677.67	303.35
678.01	302.23
678.34	301.50
678.68	300.79
679.02	300.02
679.36	299.22
679.70	298.39
680.04	297.77
680.37	297.10
680.71	296.48
681.05	295.84
681.39	295.19
681.73	294.37
682.06	293.70
682.40	293.04
682.74	292.40
683.08	291.96
683.42	291.35
683.75	290.75
684.09	290.05
684.43	289.52
684.77	288.93
685.10	288.54
685.44	288.00
685.78	287.40
686.12	286.88
686.45	286.37
686.79	285.73
687.13	285.28
687.46	284.75
687.80	284.36
688.14	283.74
688.48	283.32
688.81	282.78
689.15	282.32
689.49	281.80
689.82	281.39
690.16	280.65
690.50	280.05
690.83	279.53
691.17	278.92
691.51	278.41
691.84	277.93
692.18	277.39
692.52	276.81
692.85	276.42
693.19	276.16
693.52	275.70
693.86	275.28
694.20	274.75
694.53	274.25
694.87	273.72
695.21	273.24
695.54	272.78
695.88	272.30
696.21	271.65
696.55	271.17
696.88	270.63
697.22	270.22
697.56	269.91
697.89	269.41
698.23	269.12
698.56	268.70
698.90	268.34
699.23	267.87
699.57	267.50
699.90	267.01
700.24	266.43
700.58	266.06
700.91	265.80
701.25	265.78
701.58	265.74
701.92	265.41
702.25	265.06
702.59	264.54
702.92	264.30
703.26	264.11
703.59	263.78
703.93	263.88
704.26	263.58
704.60	263.29
704.93	263.04
705.26	262.61
705.60	262.28
705.93	261.82
706.27	261.58
706.60	261.41
706.94	261.30
707.27	260.93
707.61	260.64
707.94	260.30
708.27	259.66
708.61	259.03
708.94	258.69
709.28	258.36
709.61	258.08
709.94	257.77
710.28	257.50
710.61	257.27
710.95	256.49
711.28	256.50
711.61	256.10
711.95	255.83
712.28	255.58
712.61	255.33
712.95	255.40
713.28	255.37
713.61	254.98
713.95	254.58
714.28	254.36
714.61	253.98
714.95	253.69
715.28	253.38
715.61	253.07
715.95	252.80
716.28	252.50
716.61	252.38
716.95	252.01
717.28	251.71
717.61	251.43
717.94	251.19
718.28	250.65
718.61	250.48
718.94	250.25
719.27	249.97
719.61	249.79
719.94	249.35
720.27	248.88
720.60	248.70
720.94	248.51
721.27	248.39
721.60	248.33
721.93	248.13
722.27	248.13
722.60	248.02
722.93	247.83
723.26	247.77
723.59	247.48
723.93	247.43
724.26	247.24
724.59	247.12
724.92	247.00
725.25	246.92
725.59	246.78
725.92	246.59
726.25	246.47
726.58	246.23
726.91	246.08
727.24	245.90
727.57	245.70
727.91	245.41
728.24	245.33
728.57	245.12
728.90	245.00
729.23	244.64
729.56	244.71
729.89	244.58
730.22	244.36
730.55	244.23
730.89	244.08
731.22	243.95
731.55	243.74
731.88	243.62
732.21	243.46
732.54	243.18
732.87	243.06
733.20	242.93
733.53	242.89
733.86	242.75
734.19	242.63
734.52	242.61
734.85	242.82
735.18	242.45
735.51	242.40
735.84	242.26
736.17	242.28
736.50	241.92
736.83	242.38
737.16	242.25
737.49	242.12
737.82	241.88
738.15	241.84
738.48	241.68
738.81	241.54
739.14	241.32
739.47	241.20
739.80	241.05
740.13	240.95
740.46	240.73
740.79	240.53
741.12	240.36
741.45	240.04
741.78	239.67
742.11	239.74
742.44	239.46
742.77	239.43
743.10	239.29
743.43	239.17
743.75	238.51
744.08	238.95
744.41	238.86
744.74	238.79
745.07	238.53
745.40	238.54
745.73	238.63
746.06	238.50
746.39	238.49
746.71	238.38
747.04	238.29
747.37	238.09
747.70	238.10
748.03	238.07
748.36	238.11
748.68	238.02
749.01	237.83
749.34	237.86
749.67	237.71
750.00	237.59
750.33	237.80
750.65	237.76
750.98	237.12
751.31	237.01
751.64	236.90
751.97	237.13
752.29	236.95
752.62	236.66
752.95	236.55
753.28	236.31
753.60	236.23
753.93	236.26
754.26	236.30
754.59	236.03
754.91	235.85
755.24	235.76
755.57	235.67
755.90	235.57
756.22	235.33
756.55	235.18
756.88	235.03
757.20	234.66
757.53	234.36
757.86	234.25
758.19	234.14
758.51	234.13
758.84	233.82
759.17	233.69
759.49	233.60
759.82	233.78
760.15	233.82
760.47	233.78
760.80	233.47
761.13	233.44
761.45	233.44
761.78	233.44
762.11	233.37
762.43	233.24
762.76	233.20
763.08	233.20
763.41	233.21
763.74	233.15
764.06	233.07
764.39	233.11
764.71	233.07
765.04	233.00
765.37	232.79
765.69	232.69
766.02	232.63
766.34	232.49
766.67	232.26
767.00	232.23
767.32	232.37
767.65	232.57
767.97	232.51
768.30	232.45
768.62	232.43
768.95	232.26
769.27	232.15
769.60	232.10
769.92	231.98
770.25	231.87
770.57	231.78
770.90	231.65
771.22	231.55
771.55	231.50
771.87	231.50
772.20	231.47
772.52	231.85
772.85	232.39
773.17	232.44
773.50	232.36
773.82	232.30
774.15	231.99
774.47	231.74
774.80	231.66
775.12	231.60
775.45	231.45
775.77	231.47
776.09	231.51
776.42	231.53
776.74	231.67
777.07	231.59
777.39	231.59
777.72	231.55
778.04	231.54
778.36	231.48
778.69	231.42
779.01	231.44
779.33	231.02
779.66	230.45
779.98	230.40
780.31	230.44
780.63	230.54
780.95	230.65
781.28	230.51
781.60	230.47
781.92	230.49
782.25	230.52
782.57	230.50
782.89	230.44
783.22	230.27
783.54	230.17
783.86	230.21
784.19	230.09
784.51	230.26
784.83	230.21
785.16	230.19
785.48	230.19
785.80	230.17
786.12	230.12
786.45	230.05
786.77	230.00
787.09	229.93
787.42	229.81
787.74	229.82
788.06	229.91
788.38	229.86
788.71	229.72
789.03	229.67
789.35	229.63
789.67	229.59
789.99	229.68
790.32	229.58
790.64	229.54
790.96	229.96
791.28	229.79
791.61	229.75
791.93	229.70
792.25	229.60
792.57	229.95
792.89	229.85
793.21	229.80
793.54	229.71
793.86	229.64
794.18	229.56
794.50	229.42
794.82	229.39
795.14	229.37
795.47	229.50
795.79	229.49
796.11	229.40
796.43	229.40
796.75	229.35
797.07	229.36
797.39	229.30
797.71	228.94
798.04	228.90
798.36	228.89
798.68	228.85
799.00	228.92
799.32	228.65
799.64	228.73
799.96	228.85
800.28	228.91
800.60	228.83
800.92	228.90
801.24	228.83
801.56	228.83
801.89	228.80
802.21	228.77
802.53	228.72
802.85	228.81
803.17	228.93
803.49	228.89
803.81	228.90
804.13	228.88
804.45	228.76
804.77	228.78
805.09	228.77
805.41	228.73
805.73	228.63
806.05	228.45
806.37	228.40
806.69	228.24
807.01	228.26
807.33	228.31
807.65	228.12
807.97	228.37
808.28	228.29
808.60	228.22
808.92	228.17
809.24	228.44
809.56	228.30
809.88	228.20
810.20	228.17
810.52	228.17
810.84	228.12
811.16	228.08
811.48	228.01
811.80	228.08
812.12	228.06
812.43	228.11
812.75	228.18
813.07	228.10
813.39	228.08
813.71	227.90
814.03	227.82
814.35	227.77
814.67	227.55
814.98	227.45
815.30	227.43
815.62	227.29
815.94	226.99
816.26	227.28
816.58	227.11
816.89	227.20
817.21	227.06
817.53	227.06
817.85	227.08
818.17	227.07
818.48	226.93
818.80	227.10
819.12	227.00
819.44	226.93
819.76	226.84
820.07	226.88
820.39	226.90
820.71	226.94
821.03	226.97
821.34	226.89
821.66	226.97
821.98	227.03
822.30	227.10
822.61	227.37
822.93	226.99
823.25	227.05
823.57	226.91
823.88	227.03
824.20	227.03
824.52	227.09
824.83	227.08
825.15	227.02
825.47	226.92
825.79	226.97
826.10	226.95
826.42	227.00
826.74	227.06
827.05	227.11
827.37	227.09
827.69	227.03
828.00	227.04
828.32	227.05
828.64	227.02
828.95	227.18
829.27	226.98
829.58	227.11
829.90	227.20
830.22	227.21
830.53	227.06
830.85	227.01
831.17	226.92
831.48	226.95
831.80	226.99
832.11	226.94
832.43	226.88
832.75	226.85
833.06	227.14
833.38	227.06
833.69	226.98
834.01	227.04
834.32	227.06
834.64	227.02
834.96	227.07
835.27	227.02
835.59	226.85
835.90	226.83
836.22	226.75
836.53	226.59
836.85	226.53
837.16	227.04
837.48	227.06
837.79	227.18
838.11	227.14
838.42	227.14
838.74	227.23
839.05	227.16
839.37	227.18
839.68	226.84
840.00	226.81
840.31	226.93
840.63	226.88
840.94	226.84
841.26	226.79
841.57	226.75
841.88	226.78
842.20	226.67
842.51	226.57
842.83	226.62
843.14	227.03
843.46	227.01
843.77	226.73
844.08	226.69
844.40	226.43
844.71	226.48
845.03	226.41
845.34	226.34
845.65	226.30
845.97	226.25
846.28	226.30
846.60	226.22
846.91	226.07
847.22	226.02
847.54	226.15
847.85	226.15
848.16	226.06
848.48	225.97
848.79	226.20
849.10	226.34
849.42	226.31
849.73	225.89
850.04	225.89
850.36	225.68
850.67	225.77
850.98	225.83
851.30	225.81
851.61	225.83
851.92	225.80
852.23	225.97
852.55	225.96
852.86	225.89
853.17	225.98
853.49	226.06
853.80	226.15
854.11	226.17
854.42	226.20
854.74	226.12
855.05	226.14
855.36	225.84
855.67	225.75
855.99	225.70
856.30	226.27
856.61	226.24
856.92	226.26
857.23	226.25
857.55	226.24
857.86	226.22
858.17	226.25
858.48	226.12
858.79	226.07
859.11	226.13
859.42	226.15
859.73	226.05
860.04	226.04
860.35	225.97
860.66	225.81
860.98	225.88
861.29	226.04
861.60	226.02
861.91	226.19
862.22	226.17
862.53	226.13
862.84	225.51
863.16	225.72
863.47	225.67
863.78	225.59
864.09	225.64
864.40	225.65
864.71	225.68
865.02	225.81
865.33	225.74
865.64	225.62
865.95	225.68
866.27	226.02
866.58	226.02
866.89	226.11
867.20	226.11
867.51	226.03
867.82	226.00
868.13	226.18
868.44	226.06
868.75	226.16
869.06	226.22
869.37	226.33
869.68	226.13
869.99	226.20
870.30	226.30
870.61	226.36
870.92	226.33
871.23	226.30
871.54	226.36
871.85	226.50
872.16	226.65
872.47	226.64
872.78	226.43
873.09	226.47
873.40	226.35
873.71	226.41
874.02	226.44
874.33	226.43
874.64	226.32
874.95	226.47
875.26	226.41
875.56	226.43
875.87	226.39
876.18	226.39
876.49	226.86
876.80	226.81
877.11	226.75
877.42	226.81
877.73	226.86
878.04	226.81
878.35	226.82
878.66	226.76
878.96	226.71
879.27	226.66
879.58	226.68
879.89	226.69
880.20	226.86
880.51	226.88
880.82	226.85
881.12	226.82
881.43	226.70
881.74	226.63
882.05	226.57
882.36	226.61
882.67	226.65
882.97	226.12
883.28	226.03
883.59	226.00
883.90	225.97
884.21	226.06
884.51	226.01
884.82	225.88
885.13	225.92
885.44	225.95
885.74	225.97
886.05	225.94
886.36	225.92
886.67	225.73
886.98	225.95
887.28	226.02
887.59	225.99
887.90	226.04
888.20	226.02
888.51	226.15
888.82	226.09
889.13	226.19
889.43	226.66
889.74	226.62
890.05	226.61
890.35	226.53
890.66	226.43
890.97	226.37
891.28	226.37
891.58	226.44
891.89	226.38
892.20	226.30
892.50	226.23
892.81	226.26
893.12	226.26
893.42	225.98
893.73	225.90
894.04	225.92
894.34	225.92
894.65	225.97
894.95	225.94
895.26	225.91
895.57	226.13
895.87	225.63
896.18	225.74
896.48	225.81
896.79	225.77
897.10	225.79
897.40	225.84
897.71	225.91
898.01	225.80
898.32	225.89
898.63	225.86
898.93	225.94
899.24	225.97
899.54	225.94
899.85	225.96
900.15	226.00
900.46	226.03
900.76	226.12
901.07	226.11
901.38	226.09
901.68	226.21
901.99	225.90
902.29	225.94
902.60	225.94
902.90	225.91
903.21	225.97
903.51	226.00
903.82	226.12
904.12	226.10
904.43	226.20
904.73	226.15
905.03	226.28
905.34	226.73
905.64	226.69
905.95	226.64
906.25	226.67
906.56	226.68
906.86	226.69
907.17	226.57
907.47	226.57
907.77	226.53
908.08	226.38
908.38	226.40
908.69	226.51
908.99	226.59
909.30	226.65
909.60	226.67
909.90	226.62
910.21	226.44
910.51	226.36
910.81	226.31
911.12	226.36
911.42	226.28
911.73	225.81
912.03	225.79
912.33	226.01
912.64	226.02
912.94	225.96
913.24	225.96
913.55	225.95
913.85	225.87
914.15	225.97
914.46	226.12
914.76	226.16
915.06	226.15
915.37	226.00
915.67	225.90
915.97	225.84
916.27	225.79
916.58	225.87
916.88	225.93
917.18	225.83
917.49	226.16
917.79	226.19
918.09	226.26
918.39	226.42
918.70	226.34
919.00	226.28
919.30	226.47
919.60	226.39
919.91	226.39
920.21	226.49
920.51	226.36
920.81	226.34
921.12	226.38
921.42	226.34
921.72	226.41
922.02	226.48
922.32	226.60
922.63	226.57
922.93	226.75
923.23	226.69
923.53	226.69
923.83	226.31
924.13	226.34
924.44	226.29
924.74	226.31
925.04	226.46
925.34	226.48
925.64	226.32
925.94	226.32
926.24	226.61
926.55	226.48
926.85	226.56
927.15	226.56
927.45	226.55
927.75	226.53
928.05	226.55
928.35	226.48
928.65	226.55
928.95	226.58
929.26	226.44
929.56	226.56
929.86	226.58
930.16	226.56
930.46	226.50
930.76	226.47
931.06	226.26
931.36	226.02
931.66	226.05
931.96	226.09
932.26	226.11
932.56	225.88
932.86	225.98
933.16	225.93
933.46	225.85
933.76	225.77
934.06	225.86
934.36	226.02
934.66	225.99
934.96	225.86
935.26	225.89
935.56	225.95
935.86	225.83
936.16	225.78
936.46	225.81
936.76	225.74
937.06	225.74
937.36	225.81
937.66	225.92
937.96	225.89
938.26	225.80
938.56	225.72
938.86	225.72
939.16	225.81
939.46	225.81
939.76	225.82
940.06	225.78
940.35	225.71
940.65	225.44
940.95	225.51
941.25	225.45
941.55	225.45
941.85	225.40
942.15	225.54
942.45	225.76
942.75	225.66
943.04	225.82
943.34	225.87
943.64	225.71
943.94	225.55
944.24	225.57
944.54	225.63
944.84	225.66
945.13	225.57
945.43	225.50
945.73	225.56
946.03	225.53
946.33	225.50
946.62	225.43
946.92	225.47
947.22	225.44
947.52	225.50
947.82	225.53
948.11	225.54
948.41	225.35
948.71	225.21
949.01	225.31
949.31	225.22
949.60	225.25
949.90	225.39
950.20	225.48
950.50	225.50
950.79	225.47
951.09	225.59
951.39	225.62
951.69	225.58
951.98	225.64
952.28	225.68
952.58	225.66
952.87	225.70
953.17	225.82
953.47	225.86
953.76	225.85
954.06	225.80
954.36	225.68
954.66	225.76
954.95	225.88
955.25	225.90
955.55	225.94
955.84	225.85
956.14	225.92
956.44	225.88
956.73	225.84
957.03	225.85
957.32	225.79
957.62	225.83
957.92	225.90
958.21	225.90
958.51	226.40
958.81	226.52
959.10	226.55
959.40	226.60
959.69	226.69
959.99	226.80
960.29	226.80
960.58	226.83
960.88	227.04
961.17	226.93
961.47	226.97
961.76	226.96
962.06	227.03
962.36	226.99
962.65	227.02
962.95	226.97
963.24	226.89
963.54	226.96
963.83	226.94
964.13	226.85
964.42	226.75
964.72	226.37
965.01	226.33
965.31	226.29
965.60	226.14
965.90	226.38
966.19	226.24
966.49	226.31
966.78	226.20
967.08	226.08
967.37	226.10
967.67	225.99
967.96	226.05
968.26	226.01
968.55	226.04
968.85	226.10
969.14	226.14
969.43	226.22
969.73	226.12
970.02	226.13
970.32	226.15
970.61	226.08
970.91	225.96
971.20	225.92
971.49	225.83
971.79	225.89
972.08	225.50
972.38	225.53
972.67	225.48
972.96	225.61
973.26	225.56
973.55	225.73
973.85	225.72
974.14	225.60
974.43	225.64
974.73	225.52
975.02	225.47
975.31	225.45
975.61	225.38
975.90	225.29
976.19	225.24
976.49	225.26
976.78	225.27
977.07	225.31
977.37	225.37
977.66	225.47
977.95	225.40
978.24	225.44
978.54	225.50
978.83	225.52
979.12	225.56
979.42	225.55
979.71	225.41
980.00	225.37
980.29	225.46
980.59	225.31
980.88	225.49
981.17	225.40
981.46	225.40
981.76	225.48
982.05	225.73
982.34	225.80
982.63	225.82
982.93	225.81
983.22	225.92
983.51	225.84
983.80	225.95
984.09	225.99
984.39	225.97
984.68	225.96
984.97	225.91
985.26	225.79
985.55	225.78
985.85	225.70
986.14	225.85
986.43	225.89
986.72	225.98
987.01	225.84
987.30	225.88
987.59	225.84
987.89	225.81
988.18	225.60
988.47	225.51
988.76	225.45
989.05	225.46
989.34	225.30
989.63	225.50
989.92	225.42
990.22	225.38
990.51	225.37
990.80	225.30
991.09	225.30
991.38	225.42
991.67	225.41
991.96	225.40
992.25	225.38
992.54	225.30
992.83	225.33
993.12	225.26
993.41	225.34
993.70	225.55
993.99	225.68
994.28	225.77
994.58	225.86
994.87	225.90
995.16	225.89
995.45	225.93
995.74	225.75
996.03	225.86
996.32	225.92
996.61	226.05
996.90	226.01
997.19	225.98
997.48	225.94
997.77	225.88
998.06	225.88
998.34	225.81
998.63	225.84
998.92	225.82
999.21	225.98
999.50	226.01
999.79	225.84
1000.08	225.76
1000.37	225.76
1000.66	225.71
1000.95	225.72
1001.24	225.75
1001.53	225.79
1001.82	225.82
1002.11	225.63
1002.40	225.70
1002.68	225.72
1002.97	226.12
1003.26	226.09
1003.55	226.05
1003.84	226.06
1004.13	226.25
1004.42	226.28
1004.71	226.22
1004.99	226.21
1005.28	226.21
1005.57	226.18
1005.86	226.18
1006.15	226.14
1006.44	226.04
1006.72	226.10
1007.01	226.08
1007.30	226.07
1007.59	226.04
1007.88	225.99
1008.17	226.04
1008.45	225.94
1008.74	225.83
1009.03	225.59
1009.32	225.62
1009.60	225.66
1009.89	225.66
1010.18	225.44
1010.47	225.35
1010.76	225.38
1011.04	225.36
1011.33	225.38
1011.62	225.45
1011.91	225.45
1012.19	225.48
1012.48	225.61
1012.77	225.58
1013.05	225.84
1013.34	225.78
1013.63	225.75
1013.92	225.83
1014.20	225.81
1014.49	225.81
1014.78	225.78
1015.06	225.63
1015.35	225.67
1015.64	225.65
1015.92	225.67
1016.21	225.66
1016.50	225.76
1016.78	225.82
1017.07	225.85
1017.36	225.73
1017.64	225.60
1017.93	225.65
1018.22	225.61
1018.50	225.59
1018.79	225.53
1019.08	225.26
1019.36	225.36
1019.65	225.34
1019.93	225.45
1020.22	225.55
1020.51	225.80
1020.79	225.81
1021.08	225.05
1021.36	225.85
1021.65	224.80
1021.94	225.15
1022.22	225.70
1022.51	225.05
1022.79	228.45
1023.08	226.80
1023.36	231.35
1023.65	224.80
>>>>>End Processed Spectral Data<<<<<
