SpectraSuite Data File
++++++++++++++++++++++++++++++++++++
Date: Wed Sep 04 17:42:15 EDT 2013
User: lab3
Dark Spectrum Present: Yes
Reference Spectrum Present: No
Number of Sampled Component Spectra: 1
Spectrometers: USB2E7196
Integration Time (usec): 170000 (USB2E7196)
Spectra Averaged: 20 (USB2E7196)
Boxcar Smoothing: 10 (USB2E7196)
Correct for Electrical Dark: No (USB2E7196)
Strobe/Lamp Enabled: No (USB2E7196)
Correct for Detector Non-linearity: No (USB2E7196)
Correct for Stray Light: No (USB2E7196)
Number of Pixels in Processed Spectrum: 2048
>>>>>Begin Processed Spectral Data<<<<<
339.09	0.00
339.48	212.75
339.86	215.45
340.24	214.85
340.63	216.95
341.01	225.40
341.39	219.35
341.78	221.00
342.16	225.25
342.54	222.70
342.93	212.03
343.31	222.72
343.69	223.28
344.07	223.68
344.46	224.23
344.84	224.64
345.22	224.64
345.60	224.92
345.99	225.12
346.37	225.18
346.75	225.21
347.13	225.27
347.52	225.30
347.90	225.56
348.28	225.60
348.66	225.75
349.05	225.54
349.43	225.71
349.81	225.83
350.19	225.88
350.57	225.88
350.96	225.93
351.34	226.01
351.72	226.08
352.10	226.21
352.48	226.23
352.87	226.25
353.25	226.32
353.63	226.32
354.01	226.42
354.39	226.48
354.77	226.61
355.15	226.82
355.54	226.84
355.92	226.66
356.30	226.76
356.68	227.06
357.06	227.21
357.44	227.12
357.82	227.07
358.20	227.50
358.58	227.59
358.97	227.69
359.35	227.81
359.73	227.95
360.11	228.02
360.49	228.02
360.87	228.06
361.25	228.11
361.63	228.36
362.01	228.40
362.39	228.33
362.77	228.39
363.15	228.36
363.53	228.38
363.91	228.41
364.29	228.44
364.67	228.06
365.05	228.09
365.43	228.15
365.81	228.23
366.19	228.13
366.57	228.29
366.95	228.24
367.33	228.17
367.71	228.13
368.09	228.21
368.47	228.29
368.85	228.31
369.23	228.38
369.61	228.20
369.99	228.35
370.37	228.51
370.75	228.74
371.13	228.64
371.51	228.61
371.89	228.74
372.27	228.74
372.65	228.73
373.03	228.78
373.41	228.79
373.78	228.79
374.16	228.47
374.54	228.36
374.92	228.30
375.30	228.30
375.68	228.25
376.06	228.21
376.44	228.14
376.82	228.10
377.19	228.11
377.57	228.08
377.95	227.84
378.33	227.72
378.71	227.35
379.09	227.36
379.47	227.39
379.84	227.20
380.22	227.11
380.60	226.97
380.98	226.80
381.36	226.69
381.73	226.55
382.11	226.54
382.49	226.39
382.87	226.26
383.25	226.12
383.62	226.60
384.00	226.37
384.38	226.30
384.76	226.34
385.13	226.41
385.51	226.34
385.89	226.29
386.27	226.18
386.64	226.21
387.02	226.07
387.40	225.99
387.78	225.97
388.15	225.97
388.53	225.92
388.91	225.94
389.29	225.90
389.66	225.91
390.04	225.88
390.42	225.93
390.79	225.98
391.17	226.04
391.55	225.51
391.92	225.60
392.30	225.63
392.68	225.50
393.05	225.45
393.43	225.50
393.81	225.46
394.18	225.46
394.56	225.52
394.94	225.68
395.31	225.63
395.69	225.88
396.06	225.95
396.44	226.01
396.82	225.96
397.19	226.21
397.57	226.28
397.95	226.37
398.32	226.33
398.70	226.45
399.07	226.55
399.45	226.56
399.82	226.55
400.20	226.63
400.58	226.78
400.95	226.65
401.33	226.76
401.70	227.14
402.08	227.28
402.45	227.45
402.83	227.65
403.20	227.90
403.58	227.94
403.95	228.11
404.33	228.33
404.71	228.54
405.08	228.94
405.46	229.13
405.83	229.38
406.21	229.58
406.58	229.74
406.96	230.00
407.33	230.28
407.70	230.70
408.08	231.31
408.45	231.65
408.83	232.09
409.20	232.41
409.58	232.57
409.95	233.03
410.33	233.46
410.70	233.73
411.08	234.18
411.45	234.65
411.82	235.12
412.20	235.79
412.57	236.69
412.95	236.97
413.32	237.72
413.69	238.42
414.07	239.24
414.44	240.12
414.82	240.92
415.19	241.98
415.56	242.94
415.94	243.74
416.31	244.89
416.68	246.06
417.06	247.38
417.43	248.82
417.81	250.28
418.18	251.78
418.55	253.43
418.93	255.13
419.30	256.83
419.67	258.68
420.04	260.58
420.42	262.47
420.79	265.10
421.16	267.36
421.54	269.81
421.91	272.33
422.28	274.87
422.66	277.56
423.03	280.44
423.40	283.15
423.77	286.06
424.15	288.97
424.52	292.09
424.89	295.56
425.26	298.79
425.64	301.92
426.01	305.31
426.38	308.89
426.75	312.70
427.13	316.65
427.50	320.65
427.87	324.66
428.24	328.65
428.61	332.25
428.99	336.68
429.36	341.22
429.73	345.70
430.10	350.25
430.47	355.07
430.85	359.66
431.22	364.82
431.59	370.52
431.96	375.80
432.33	381.65
432.70	387.19
433.08	393.64
433.45	399.77
433.82	405.87
434.19	412.66
434.56	419.30
434.93	425.60
435.30	431.95
435.68	439.03
436.05	446.09
436.42	452.99
436.79	459.45
437.16	466.29
437.53	473.67
437.90	481.09
438.27	488.04
438.64	495.44
439.01	502.40
439.38	508.36
439.75	514.17
440.13	520.69
440.50	527.01
440.87	532.04
441.24	537.43
441.61	543.40
441.98	547.62
442.35	552.40
442.72	557.32
443.09	562.33
443.46	565.36
443.83	567.30
444.20	569.07
444.57	571.43
444.94	572.47
445.31	573.23
445.68	574.40
446.05	574.72
446.42	573.74
446.79	572.58
447.16	571.22
447.53	570.43
447.90	567.46
448.27	564.35
448.64	560.54
449.01	557.54
449.37	552.36
449.74	547.60
450.11	542.18
450.48	536.03
450.85	529.48
451.22	523.77
451.59	518.32
451.96	513.01
452.33	506.26
452.70	500.25
453.07	493.27
453.43	485.60
453.80	478.68
454.17	472.00
454.54	465.74
454.91	459.13
455.28	452.42
455.65	446.30
456.02	440.89
456.38	435.59
456.75	429.15
457.12	423.83
457.49	418.52
457.86	413.12
458.23	408.86
458.59	404.11
458.96	399.37
459.33	395.20
459.70	391.13
460.07	387.64
460.43	383.75
460.80	380.38
461.17	377.43
461.54	374.14
461.91	371.03
462.27	367.76
462.64	365.00
463.01	362.18
463.38	359.64
463.74	356.19
464.11	353.63
464.48	351.50
464.85	349.10
465.21	347.39
465.58	345.59
465.95	343.11
466.32	341.21
466.68	339.33
467.05	337.54
467.42	335.71
467.78	333.79
468.15	332.05
468.52	330.60
468.88	328.68
469.25	327.22
469.62	326.09
469.98	324.76
470.35	323.51
470.72	322.26
471.08	320.79
471.45	319.72
471.82	318.79
472.18	317.56
472.55	316.77
472.92	315.69
473.28	314.69
473.65	313.84
474.02	313.00
474.38	312.36
474.75	311.66
475.11	310.93
475.48	310.49
475.85	310.00
476.21	309.45
476.58	309.14
476.94	308.79
477.31	308.35
477.67	307.98
478.04	307.68
478.41	307.50
478.77	307.83
479.14	307.66
479.50	307.57
479.87	307.65
480.23	307.72
480.60	307.79
480.96	307.93
481.33	308.33
481.69	308.60
482.06	308.84
482.42	309.21
482.79	309.50
483.15	309.93
483.52	310.53
483.88	311.03
484.25	311.57
484.61	312.16
484.98	312.83
485.34	313.76
485.71	314.78
486.07	315.79
486.44	316.27
486.80	317.31
487.17	318.38
487.53	319.72
487.90	320.95
488.26	322.49
488.62	324.06
488.99	325.45
489.35	327.07
489.72	328.81
490.08	330.51
490.44	332.50
490.81	334.53
491.17	336.50
491.54	338.78
491.90	341.14
492.26	343.60
492.63	346.26
492.99	348.93
493.36	351.67
493.72	354.65
494.08	357.80
494.45	361.25
494.81	364.83
495.17	368.35
495.54	372.17
495.90	375.80
496.26	379.80
496.63	383.97
496.99	388.26
497.35	392.68
497.72	397.62
498.08	402.52
498.44	407.61
498.80	413.11
499.17	418.58
499.53	424.06
499.89	430.01
500.26	435.93
500.62	442.16
500.98	448.83
501.34	455.50
501.71	462.42
502.07	469.34
502.43	476.45
502.79	483.71
503.16	491.54
503.52	499.58
503.88	507.72
504.24	516.24
504.60	525.11
504.97	534.32
505.33	543.39
505.69	553.07
506.05	562.72
506.41	572.43
506.78	582.53
507.14	593.00
507.50	603.67
507.86	614.76
508.22	625.95
508.59	636.86
508.95	648.48
509.31	660.52
509.67	672.67
510.03	684.87
510.39	697.30
510.75	709.77
511.12	722.71
511.48	735.85
511.84	749.20
512.20	762.40
512.56	775.99
512.92	790.06
513.28	804.00
513.64	818.51
514.00	833.23
514.37	847.83
514.73	862.87
515.09	878.04
515.45	893.08
515.81	907.96
516.17	923.46
516.53	938.60
516.89	953.84
517.25	969.76
517.61	986.23
517.97	1002.72
518.33	1018.83
518.69	1035.45
519.05	1051.73
519.41	1068.28
519.77	1085.25
520.13	1101.86
520.49	1118.19
520.85	1136.15
521.21	1152.57
521.57	1169.49
521.93	1185.80
522.29	1202.43
522.65	1218.25
523.01	1234.64
523.37	1250.84
523.73	1267.17
524.09	1283.08
524.45	1299.05
524.81	1314.90
525.17	1330.58
525.53	1346.28
525.89	1362.43
526.25	1377.86
526.61	1393.45
526.97	1408.91
527.33	1424.80
527.68	1440.80
528.04	1456.43
528.40	1470.53
528.76	1486.14
529.12	1500.97
529.48	1516.48
529.84	1530.90
530.20	1546.56
530.56	1561.54
530.91	1576.91
531.27	1591.46
531.63	1606.63
531.99	1621.22
532.35	1635.06
532.71	1649.34
533.07	1663.98
533.42	1677.89
533.78	1691.76
534.14	1705.63
534.50	1718.77
534.86	1731.88
535.21	1743.70
535.57	1756.37
535.93	1768.57
536.29	1780.35
536.65	1792.41
537.00	1804.20
537.36	1816.12
537.72	1826.60
538.08	1837.92
538.44	1848.45
538.79	1859.04
539.15	1869.60
539.51	1879.90
539.87	1890.13
540.22	1898.53
540.58	1907.29
540.94	1915.19
541.29	1922.75
541.65	1929.87
542.01	1937.14
542.37	1942.94
542.72	1949.20
543.08	1954.85
543.44	1961.07
543.79	1966.40
544.15	1971.38
544.51	1976.09
544.87	1980.81
545.22	1984.89
545.58	1988.12
545.94	1990.98
546.29	1993.55
546.65	1995.40
547.01	1997.10
547.36	1998.50
547.72	2000.49
548.07	2000.75
548.43	2001.96
548.79	2002.69
549.14	2003.37
549.50	2003.61
549.86	2003.92
550.21	2004.20
550.57	2004.40
550.92	2003.04
551.28	2001.67
551.64	2000.64
551.99	1999.75
552.35	1998.44
552.70	1997.53
553.06	1996.24
553.41	1994.81
553.77	1993.87
554.13	1992.78
554.48	1991.69
554.84	1990.21
555.19	1988.84
555.55	1987.94
555.90	1985.46
556.26	1983.01
556.61	1979.48
556.97	1976.02
557.32	1973.39
557.68	1970.67
558.03	1967.33
558.39	1964.31
558.74	1961.47
559.10	1957.18
559.45	1952.57
559.81	1947.37
560.16	1941.93
560.52	1936.59
560.87	1931.55
561.23	1925.59
561.58	1919.61
561.94	1912.72
562.29	1905.64
562.64	1898.32
563.00	1890.55
563.35	1883.89
563.71	1877.32
564.06	1871.37
564.42	1864.86
564.77	1858.49
565.12	1851.38
565.48	1844.58
565.83	1837.30
566.19	1830.13
566.54	1823.17
566.89	1815.95
567.25	1809.19
567.60	1802.62
567.96	1796.00
568.31	1789.10
568.66	1782.03
569.02	1774.45
569.37	1767.44
569.72	1760.91
570.08	1753.45
570.43	1745.65
570.78	1738.15
571.14	1730.32
571.49	1721.85
571.84	1714.66
572.20	1705.85
572.55	1697.56
572.90	1688.72
573.26	1680.46
573.61	1671.78
573.96	1663.17
574.31	1654.02
574.67	1644.58
575.02	1634.83
575.37	1624.84
575.72	1614.80
576.08	1605.28
576.43	1595.61
576.78	1585.58
577.13	1575.48
577.49	1565.87
577.84	1556.92
578.19	1547.72
578.54	1538.41
578.90	1529.77
579.25	1520.17
579.60	1510.93
579.95	1501.34
580.30	1491.70
580.66	1481.97
581.01	1472.09
581.36	1461.79
581.71	1452.59
582.06	1443.36
582.42	1434.31
582.77	1425.13
583.12	1416.37
583.47	1407.26
583.82	1398.47
584.17	1390.04
584.53	1381.08
584.88	1371.58
585.23	1362.05
585.58	1351.91
585.93	1342.07
586.28	1332.47
586.63	1322.58
586.98	1312.38
587.34	1302.87
587.69	1293.50
588.04	1284.39
588.39	1275.67
588.74	1266.89
589.09	1258.23
589.44	1248.99
589.79	1240.43
590.14	1231.93
590.49	1223.08
590.84	1214.52
591.19	1205.83
591.54	1196.91
591.89	1188.45
592.25	1181.49
592.60	1173.33
592.95	1165.66
593.30	1157.31
593.65	1148.92
594.00	1140.33
594.35	1134.00
594.70	1125.76
595.05	1117.80
595.40	1109.52
595.75	1101.20
596.10	1093.50
596.45	1085.47
596.80	1078.20
597.15	1070.12
597.50	1062.11
597.85	1054.58
598.19	1046.66
598.54	1038.64
598.89	1030.97
599.24	1023.82
599.59	1015.82
599.94	1008.52
600.29	1001.22
600.64	994.43
600.99	987.10
601.34	980.78
601.69	972.62
602.04	965.98
602.39	959.35
602.74	953.05
603.08	946.70
603.43	940.42
603.78	933.70
604.13	926.96
604.48	920.43
604.83	913.89
605.18	907.10
605.53	900.54
605.87	894.63
606.22	888.97
606.57	882.44
606.92	875.94
607.27	869.90
607.62	863.91
607.96	858.19
608.31	852.77
608.66	846.94
609.01	841.02
609.36	835.24
609.70	829.47
610.05	823.62
610.40	817.88
610.75	812.03
611.10	806.44
611.44	800.57
611.79	795.09
612.14	789.69
612.49	784.40
612.83	779.38
613.18	773.99
613.53	768.36
613.88	763.19
614.22	758.03
614.57	752.69
614.92	747.35
615.27	742.12
615.61	736.78
615.96	731.60
616.31	726.63
616.65	721.97
617.00	716.85
617.35	711.91
617.70	707.09
618.04	702.21
618.39	697.34
618.74	693.21
619.08	688.65
619.43	683.85
619.78	678.92
620.12	674.10
620.47	669.42
620.82	664.78
621.16	660.08
621.51	655.80
621.85	651.44
622.20	647.13
622.55	642.53
622.89	638.25
623.24	633.99
623.59	629.55
623.93	625.23
624.28	621.23
624.62	617.86
624.97	613.98
625.32	610.20
625.66	606.36
626.01	602.19
626.35	598.38
626.70	594.73
627.04	591.35
627.39	587.58
627.73	584.17
628.08	580.64
628.43	576.90
628.77	573.30
629.12	569.83
629.46	566.44
629.81	563.33
630.15	560.11
630.50	556.76
630.84	553.70
631.19	550.39
631.53	547.24
631.88	543.26
632.22	539.80
632.57	536.75
632.91	533.47
633.26	530.49
633.60	527.32
633.95	524.08
634.29	520.87
634.64	518.01
634.98	514.64
635.32	511.72
635.67	509.13
636.01	506.17
636.36	503.20
636.70	500.45
637.05	497.62
637.39	494.81
637.73	492.04
638.08	489.30
638.42	486.26
638.77	483.32
639.11	480.38
639.45	477.49
639.80	474.47
640.14	471.84
640.49	469.11
640.83	466.48
641.17	464.09
641.52	461.46
641.86	458.82
642.20	456.79
642.55	454.04
642.89	451.48
643.23	448.99
643.58	446.84
643.92	444.18
644.26	441.68
644.61	439.47
644.95	437.29
645.29	434.85
645.64	432.91
645.98	430.71
646.32	428.78
646.66	426.66
647.01	424.60
647.35	422.56
647.69	420.53
648.04	418.50
648.38	416.42
648.72	414.43
649.06	412.46
649.41	410.11
649.75	408.25
650.09	406.31
650.43	404.47
650.78	402.38
651.12	400.61
651.46	398.75
651.80	396.73
652.14	394.81
652.49	393.18
652.83	391.30
653.17	389.55
653.51	387.58
653.85	385.90
654.20	384.22
654.54	382.49
654.88	380.65
655.22	379.21
655.56	377.49
655.90	375.98
656.25	374.34
656.59	372.80
656.93	371.29
657.27	369.90
657.61	368.16
657.95	366.73
658.29	365.19
658.64	363.78
658.98	362.40
659.32	360.85
659.66	359.29
660.00	357.92
660.34	356.54
660.68	355.25
661.02	353.83
661.36	352.41
661.70	350.97
662.05	349.71
662.39	348.34
662.73	347.22
663.07	346.15
663.41	344.89
663.75	343.59
664.09	342.31
664.43	340.85
664.77	339.73
665.11	338.40
665.45	337.29
665.79	336.21
666.13	334.95
666.47	333.74
666.81	332.59
667.15	331.30
667.49	330.26
667.83	329.30
668.17	328.26
668.51	327.18
668.85	326.28
669.19	325.44
669.53	324.25
669.87	323.19
670.21	322.03
670.55	321.15
670.89	320.49
671.23	319.59
671.57	318.74
671.91	317.85
672.25	316.92
672.58	316.06
672.92	315.01
673.26	314.20
673.60	313.44
673.94	312.64
674.28	311.91
674.62	311.16
674.96	310.21
675.30	309.47
675.64	308.70
675.97	307.87
676.31	306.90
676.65	306.18
676.99	305.51
677.33	304.61
677.67	303.82
678.01	302.88
678.34	302.16
678.68	301.50
679.02	300.70
679.36	300.04
679.70	299.30
680.04	298.58
680.37	297.86
680.71	297.18
681.05	296.64
681.39	295.94
681.73	295.21
682.06	294.57
682.40	293.93
682.74	293.36
683.08	292.92
683.42	292.28
683.75	291.65
684.09	290.86
684.43	290.34
684.77	289.72
685.10	289.08
685.44	288.51
685.78	287.92
686.12	287.41
686.45	286.84
686.79	286.12
687.13	285.64
687.46	284.96
687.80	284.49
688.14	283.73
688.48	283.24
688.81	282.58
689.15	282.21
689.49	281.64
689.82	281.11
690.16	280.36
690.50	279.87
690.83	279.37
691.17	278.85
691.51	278.30
691.84	277.71
692.18	277.20
692.52	276.65
692.85	276.23
693.19	275.84
693.52	275.27
693.86	274.85
694.20	274.32
694.53	273.91
694.87	273.29
695.21	272.88
695.54	272.44
695.88	272.03
696.21	271.44
696.55	270.95
696.88	270.47
697.22	270.01
697.56	269.60
697.89	269.04
698.23	268.66
698.56	268.26
698.90	267.96
699.23	267.56
699.57	267.16
699.90	266.53
700.24	266.09
700.58	265.79
700.91	265.49
701.25	265.58
701.58	265.66
701.92	265.49
702.25	265.14
702.59	264.71
702.92	264.43
703.26	264.03
703.59	263.80
703.93	263.91
704.26	263.62
704.60	263.37
704.93	263.10
705.26	262.76
705.60	262.48
705.93	262.08
706.27	261.89
706.60	261.64
706.94	261.65
707.27	261.27
707.61	261.02
707.94	260.75
708.27	259.98
708.61	259.26
708.94	258.90
709.28	258.65
709.61	258.35
709.94	258.02
710.28	257.84
710.61	257.54
710.95	256.75
711.28	256.83
711.61	256.44
711.95	256.24
712.28	255.88
712.61	255.55
712.95	255.50
713.28	255.37
713.61	255.07
713.95	254.68
714.28	254.47
714.61	254.14
714.95	253.79
715.28	253.51
715.61	253.31
715.95	253.09
716.28	252.81
716.61	252.70
716.95	252.35
717.28	252.10
717.61	251.83
717.94	251.64
718.28	251.04
718.61	250.87
718.94	250.62
719.27	250.49
719.61	250.37
719.94	250.05
720.27	249.59
720.60	249.36
720.94	249.17
721.27	248.95
721.60	248.92
721.93	248.81
722.27	248.87
722.60	248.71
722.93	248.42
723.26	248.27
723.59	247.99
723.93	247.93
724.26	247.70
724.59	247.47
724.92	247.33
725.25	247.32
725.59	247.08
725.92	246.93
726.25	246.72
726.58	246.55
726.91	246.39
727.24	246.32
727.57	246.15
727.91	245.81
728.24	245.71
728.57	245.43
728.90	245.23
729.23	244.86
729.56	244.92
729.89	244.86
730.22	244.64
730.55	244.45
730.89	244.36
731.22	244.19
731.55	244.00
731.88	243.91
732.21	243.63
732.54	243.49
732.87	243.37
733.20	243.18
733.53	243.01
733.86	242.87
734.19	242.76
734.52	242.69
734.85	242.99
735.18	242.74
735.51	242.74
735.84	242.56
736.17	242.54
736.50	242.19
736.83	242.57
737.16	242.44
737.49	242.36
737.82	242.10
738.15	242.07
738.48	242.00
738.81	241.75
739.14	241.56
739.47	241.42
739.80	241.19
740.13	241.21
740.46	241.08
740.79	240.92
741.12	240.73
741.45	240.52
741.78	240.09
742.11	240.08
742.44	239.77
742.77	239.78
743.10	239.57
743.43	239.34
743.75	238.69
744.08	239.20
744.41	239.01
744.74	238.96
745.07	238.75
745.40	238.68
745.73	238.79
746.06	238.70
746.39	238.68
746.71	238.55
747.04	238.29
747.37	238.12
747.70	238.06
748.03	237.91
748.36	237.88
748.68	237.75
749.01	237.51
749.34	237.48
749.67	237.30
750.00	237.32
750.33	237.57
750.65	237.50
750.98	236.75
751.31	236.69
751.64	236.52
751.97	236.73
752.29	236.61
752.62	236.24
752.95	236.10
753.28	235.82
753.60	235.67
753.93	235.73
754.26	235.71
754.59	235.46
754.91	235.32
755.24	235.16
755.57	235.06
755.90	234.98
756.22	234.89
756.55	234.80
756.88	234.53
757.20	234.14
757.53	233.86
757.86	233.79
758.19	233.79
758.51	233.74
758.84	233.44
759.17	233.32
759.49	233.35
759.82	233.57
760.15	233.54
760.47	233.59
760.80	233.40
761.13	233.34
761.45	233.29
761.78	233.25
762.11	233.22
762.43	233.18
762.76	233.11
763.08	233.08
763.41	233.11
763.74	233.06
764.06	233.11
764.39	233.15
764.71	233.15
765.04	232.95
765.37	232.87
765.69	232.80
766.02	232.80
766.34	232.67
766.67	232.42
767.00	232.53
767.32	232.67
767.65	232.88
767.97	232.78
768.30	232.72
768.62	232.68
768.95	232.58
769.27	232.48
769.60	232.46
769.92	232.25
770.25	232.14
770.57	232.04
770.90	231.87
771.22	231.75
771.55	231.69
771.87	231.67
772.20	231.61
772.52	231.93
772.85	232.41
773.17	232.43
773.50	232.26
773.82	232.10
774.15	231.84
774.47	231.48
774.80	231.43
775.12	231.43
775.45	231.34
775.77	231.31
776.09	231.34
776.42	231.39
776.74	231.56
777.07	231.39
777.39	231.44
777.72	231.37
778.04	231.38
778.36	231.25
778.69	231.25
779.01	231.23
779.33	230.78
779.66	230.19
779.98	230.12
780.31	230.23
780.63	230.40
780.95	230.43
781.28	230.48
781.60	230.41
781.92	230.31
782.25	230.32
782.57	230.28
782.89	230.16
783.22	230.05
783.54	229.93
783.86	230.01
784.19	229.88
784.51	230.09
784.83	229.94
785.16	229.94
785.48	229.92
785.80	229.93
786.12	229.88
786.45	229.86
786.77	229.80
787.09	229.73
787.42	229.46
787.74	229.46
788.06	229.42
788.38	229.35
788.71	229.35
789.03	229.35
789.35	229.34
789.67	229.31
789.99	229.27
790.32	229.11
790.64	229.09
790.96	229.47
791.28	229.17
791.61	229.17
791.93	229.16
792.25	229.08
792.57	229.34
792.89	229.26
793.21	229.27
793.54	229.23
793.86	229.15
794.18	229.19
794.50	229.11
794.82	229.15
795.14	229.18
795.47	229.22
795.79	229.16
796.11	229.10
796.43	229.07
796.75	229.11
797.07	229.17
797.39	229.11
797.71	228.71
798.04	228.75
798.36	228.78
798.68	228.75
799.00	228.80
799.32	228.55
799.64	228.63
799.96	228.60
800.28	228.58
800.60	228.55
800.92	228.51
801.24	228.38
801.56	228.34
801.89	228.30
802.21	228.30
802.53	228.26
802.85	228.32
803.17	228.42
803.49	228.27
803.81	228.21
804.13	228.19
804.45	228.14
804.77	228.20
805.09	228.17
805.41	228.09
805.73	227.92
806.05	227.79
806.37	227.74
806.69	227.66
807.01	227.69
807.33	227.66
807.65	227.51
807.97	227.74
808.28	227.64
808.60	227.65
808.92	227.59
809.24	227.81
809.56	227.69
809.88	227.51
810.20	227.55
810.52	227.64
810.84	227.52
811.16	227.50
811.48	227.44
811.80	227.64
812.12	227.66
812.43	227.73
812.75	227.77
813.07	227.73
813.39	227.74
813.71	227.67
814.03	227.68
814.35	227.73
814.67	227.52
814.98	227.43
815.30	227.38
815.62	227.31
815.94	227.03
816.26	227.27
816.58	227.21
816.89	227.27
817.21	227.10
817.53	227.19
817.85	227.26
818.17	227.20
818.48	226.98
818.80	227.09
819.12	227.03
819.44	226.94
819.76	226.89
820.07	226.93
820.39	226.97
820.71	227.00
821.03	227.03
821.34	227.00
821.66	227.15
821.98	227.25
822.30	227.19
822.61	227.42
822.93	227.11
823.25	227.11
823.57	227.05
823.88	227.18
824.20	227.10
824.52	227.12
824.83	227.11
825.15	227.01
825.47	226.97
825.79	227.01
826.10	226.99
826.42	226.97
826.74	226.92
827.05	226.88
827.37	226.90
827.69	226.85
828.00	226.86
828.32	226.83
828.64	226.72
828.95	226.96
829.27	226.89
829.58	226.95
829.90	227.04
830.22	227.05
830.53	226.88
830.85	226.92
831.17	226.85
831.48	226.92
831.80	227.03
832.11	226.94
832.43	226.94
832.75	226.96
833.06	227.26
833.38	227.11
833.69	226.97
834.01	227.02
834.32	226.99
834.64	226.95
834.96	226.97
835.27	226.95
835.59	226.83
835.90	226.74
836.22	226.75
836.53	226.65
836.85	226.58
837.16	227.06
837.48	227.04
837.79	227.18
838.11	227.15
838.42	227.08
838.74	227.17
839.05	227.15
839.37	227.11
839.68	226.76
840.00	226.85
840.31	227.07
840.63	226.89
840.94	226.83
841.26	226.77
841.57	226.74
841.88	226.75
842.20	226.68
842.51	226.60
842.83	226.61
843.14	227.04
843.46	227.09
843.77	226.84
844.08	226.79
844.40	226.65
844.71	226.61
845.03	226.56
845.34	226.52
845.65	226.45
845.97	226.49
846.28	226.53
846.60	226.52
846.91	226.40
847.22	226.50
847.54	226.64
847.85	226.73
848.16	226.72
848.48	226.74
848.79	226.97
849.10	227.02
849.42	227.01
849.73	226.58
850.04	226.60
850.36	226.43
850.67	226.53
850.98	226.57
851.30	226.57
851.61	226.65
851.92	226.65
852.23	226.85
852.55	226.86
852.86	226.91
853.17	227.00
853.49	227.08
853.80	227.11
854.11	227.16
854.42	227.15
854.74	227.09
855.05	227.12
855.36	226.86
855.67	226.97
855.99	226.92
856.30	227.51
856.61	227.47
856.92	227.52
857.23	227.57
857.55	227.54
857.86	227.65
858.17	227.65
858.48	227.57
858.79	227.45
859.11	227.44
859.42	227.44
859.73	227.36
860.04	227.36
860.35	227.23
860.66	227.08
860.98	227.09
861.29	227.19
861.60	227.09
861.91	227.21
862.22	227.05
862.53	227.06
862.84	226.49
863.16	226.60
863.47	226.49
863.78	226.38
864.09	226.42
864.40	226.39
864.71	226.48
865.02	226.48
865.33	226.47
865.64	226.43
865.95	226.47
866.27	226.72
866.58	226.68
866.89	226.72
867.20	226.75
867.51	226.70
867.82	226.63
868.13	226.77
868.44	226.61
868.75	226.77
869.06	226.77
869.37	226.82
869.68	226.63
869.99	226.69
870.30	226.70
870.61	226.76
870.92	226.69
871.23	226.61
871.54	226.71
871.85	226.71
872.16	226.69
872.47	226.55
872.78	226.26
873.09	226.31
873.40	226.27
873.71	226.31
874.02	226.27
874.33	226.24
874.64	226.18
874.95	226.34
875.26	226.21
875.56	226.24
875.87	226.14
876.18	226.19
876.49	226.73
876.80	226.75
877.11	226.58
877.42	226.60
877.73	226.59
878.04	226.50
878.35	226.53
878.66	226.61
878.96	226.65
879.27	226.67
879.58	226.61
879.89	226.65
880.20	226.79
880.51	226.83
880.82	226.87
881.12	226.87
881.43	226.74
881.74	226.66
882.05	226.58
882.36	226.64
882.67	226.64
882.97	226.11
883.28	226.06
883.59	226.02
883.90	226.09
884.21	226.16
884.51	226.12
884.82	226.11
885.13	226.11
885.44	226.06
885.74	226.00
886.05	226.03
886.36	226.03
886.67	225.84
886.98	226.08
887.28	226.06
887.59	226.03
887.90	226.00
888.20	226.02
888.51	226.20
888.82	226.11
889.13	226.21
889.43	226.60
889.74	226.58
890.05	226.56
890.35	226.40
890.66	226.27
890.97	226.26
891.28	226.08
891.58	226.06
891.89	226.11
892.20	226.11
892.50	226.09
892.81	226.04
893.12	225.96
893.42	225.74
893.73	225.82
894.04	225.80
894.34	225.89
894.65	225.89
894.95	225.76
895.26	225.82
895.57	225.93
895.87	225.45
896.18	225.53
896.48	225.58
896.79	225.59
897.10	225.70
897.40	225.75
897.71	225.90
898.01	225.87
898.32	225.85
898.63	225.82
898.93	225.75
899.24	225.70
899.54	225.67
899.85	225.65
900.15	225.63
900.46	225.62
900.76	225.67
901.07	225.65
901.38	225.61
901.68	225.65
901.99	225.42
902.29	225.42
902.60	225.38
902.90	225.39
903.21	225.43
903.51	225.39
903.82	225.45
904.12	225.43
904.43	225.46
904.73	225.53
905.03	225.61
905.34	226.05
905.64	226.14
905.95	226.20
906.25	226.18
906.56	226.13
906.86	226.09
907.17	226.00
907.47	226.02
907.77	226.04
908.08	225.98
908.38	226.04
908.69	226.13
908.99	226.25
909.30	226.27
909.60	226.31
909.90	226.31
910.21	226.18
910.51	226.10
910.81	226.10
911.12	226.08
911.42	226.15
911.73	225.70
912.03	225.76
912.33	225.90
912.64	225.88
912.94	225.83
913.24	225.76
913.55	225.79
913.85	225.75
914.15	225.84
914.46	225.90
914.76	225.88
915.06	225.81
915.37	225.70
915.67	225.65
915.97	225.67
916.27	225.57
916.58	225.60
916.88	225.67
917.18	225.65
917.49	225.97
917.79	225.90
918.09	226.03
918.39	226.08
918.70	225.98
919.00	226.02
919.30	226.27
919.60	226.34
919.91	226.20
920.21	226.27
920.51	226.14
920.81	226.10
921.12	226.18
921.42	226.18
921.72	226.21
922.02	226.18
922.32	226.24
922.63	226.32
922.93	226.57
923.23	226.55
923.53	226.55
923.83	226.21
924.13	226.24
924.44	226.19
924.74	226.26
925.04	226.41
925.34	226.37
925.64	226.17
925.94	226.16
926.24	226.45
926.55	226.36
926.85	226.48
927.15	226.47
927.45	226.44
927.75	226.47
928.05	226.43
928.35	226.43
928.65	226.42
928.95	226.50
929.26	226.26
929.56	226.33
929.86	226.33
930.16	226.33
930.46	226.24
930.76	226.24
931.06	226.02
931.36	225.83
931.66	225.93
931.96	226.00
932.26	226.01
932.56	225.78
932.86	225.93
933.16	225.92
933.46	225.92
933.76	225.81
934.06	225.92
934.36	226.03
934.66	226.12
934.96	226.03
935.26	225.96
935.56	226.10
935.86	226.01
936.16	225.95
936.46	225.87
936.76	225.88
937.06	225.94
937.36	225.99
937.66	226.07
937.96	226.04
938.26	225.92
938.56	225.85
938.86	225.94
939.16	225.99
939.46	226.02
939.76	226.02
940.06	226.05
940.35	225.92
940.65	225.73
940.95	225.67
941.25	225.65
941.55	225.62
941.85	225.61
942.15	225.72
942.45	225.82
942.75	225.88
943.04	225.90
943.34	225.98
943.64	225.94
943.94	225.90
944.24	225.87
944.54	225.85
944.84	225.95
945.13	225.83
945.43	225.75
945.73	225.75
946.03	225.70
946.33	225.61
946.62	225.60
946.92	225.65
947.22	225.70
947.52	225.77
947.82	225.80
948.11	225.74
948.41	225.63
948.71	225.56
949.01	225.59
949.31	225.54
949.60	225.47
949.90	225.46
950.20	225.39
950.50	225.43
950.79	225.44
951.09	225.41
951.39	225.46
951.69	225.41
951.98	225.47
952.28	225.56
952.58	225.62
952.87	225.65
953.17	225.70
953.47	225.61
953.76	225.50
954.06	225.43
954.36	225.35
954.66	225.38
954.95	225.46
955.25	225.49
955.55	225.59
955.84	225.42
956.14	225.51
956.44	225.60
956.73	225.48
957.03	225.49
957.32	225.53
957.62	225.42
957.92	225.45
958.21	225.39
958.51	225.89
958.81	225.92
959.10	225.97
959.40	226.02
959.69	226.12
959.99	226.28
960.29	226.30
960.58	226.26
960.88	226.36
961.17	226.34
961.47	226.36
961.76	226.30
962.06	226.45
962.36	226.40
962.65	226.44
962.95	226.48
963.24	226.42
963.54	226.38
963.83	226.54
964.13	226.54
964.42	226.34
964.72	225.93
965.01	225.93
965.31	225.89
965.60	225.78
965.90	226.01
966.19	225.80
966.49	225.77
966.78	225.76
967.08	225.74
967.37	225.74
967.67	225.60
967.96	225.65
968.26	225.63
968.55	225.68
968.85	225.60
969.14	225.51
969.43	225.51
969.73	225.46
970.02	225.45
970.32	225.37
970.61	225.41
970.91	225.30
971.20	225.22
971.49	225.16
971.79	225.24
972.08	224.95
972.38	224.98
972.67	224.95
972.96	225.04
973.26	224.95
973.55	225.07
973.85	225.19
974.14	225.16
974.43	225.19
974.73	225.06
975.02	225.04
975.31	225.14
975.61	225.19
975.90	225.17
976.19	225.11
976.49	225.26
976.78	225.31
977.07	225.30
977.37	225.34
977.66	225.42
977.95	225.32
978.24	225.37
978.54	225.52
978.83	225.52
979.12	225.45
979.42	225.47
979.71	225.36
980.00	225.26
980.29	225.30
980.59	225.20
980.88	225.36
981.17	225.39
981.46	225.40
981.76	225.37
982.05	225.46
982.34	225.48
982.63	225.40
982.93	225.45
983.22	225.59
983.51	225.58
983.80	225.67
984.09	225.76
984.39	225.74
984.68	225.69
984.97	225.71
985.26	225.75
985.55	225.75
985.85	225.67
986.14	225.79
986.43	225.87
986.72	225.83
987.01	225.68
987.30	225.66
987.59	225.62
987.89	225.66
988.18	225.60
988.47	225.52
988.76	225.45
989.05	225.38
989.34	225.30
989.63	225.46
989.92	225.38
990.22	225.31
990.51	225.25
990.80	225.25
991.09	225.33
991.38	225.45
991.67	225.35
991.96	225.39
992.25	225.36
992.54	225.20
992.83	225.24
993.12	225.22
993.41	225.29
993.70	225.56
993.99	225.69
994.28	225.75
994.58	225.86
994.87	225.85
995.16	225.98
995.45	225.90
995.74	225.77
996.03	225.85
996.32	225.93
996.61	226.08
996.90	226.03
997.19	226.00
997.48	225.88
997.77	225.90
998.06	225.85
998.34	225.87
998.63	225.94
998.92	225.95
999.21	226.13
999.50	226.08
999.79	225.85
1000.08	225.76
1000.37	225.84
1000.66	225.74
1000.95	225.88
1001.24	225.81
1001.53	225.92
1001.82	225.87
1002.11	225.69
1002.40	225.80
1002.68	225.94
1002.97	226.23
1003.26	226.13
1003.55	226.07
1003.84	226.17
1004.13	226.46
1004.42	226.40
1004.71	226.33
1004.99	226.36
1005.28	226.39
1005.57	226.39
1005.86	226.36
1006.15	226.36
1006.44	226.25
1006.72	226.31
1007.01	226.31
1007.30	226.33
1007.59	226.29
1007.88	226.32
1008.17	226.39
1008.45	226.22
1008.74	225.91
1009.03	225.74
1009.32	225.79
1009.60	225.87
1009.89	225.81
1010.18	225.47
1010.47	225.40
1010.76	225.37
1011.04	225.31
1011.33	225.38
1011.62	225.48
1011.91	225.57
1012.19	225.56
1012.48	225.56
1012.77	225.54
1013.05	225.62
1013.34	225.64
1013.63	225.55
1013.92	225.58
1014.20	225.59
1014.49	225.70
1014.78	225.83
1015.06	225.70
1015.35	225.72
1015.64	225.76
1015.92	225.79
1016.21	225.83
1016.50	225.88
1016.78	225.99
1017.07	226.03
1017.36	225.81
1017.64	225.69
1017.93	225.67
1018.22	225.66
1018.50	225.66
1018.79	225.68
1019.08	225.54
1019.36	225.50
1019.65	225.55
1019.93	225.63
1020.22	225.66
1020.51	225.82
1020.79	225.73
1021.08	225.50
1021.36	225.25
1021.65	225.20
1021.94	225.95
1022.22	225.25
1022.51	225.65
1022.79	227.60
1023.08	226.05
1023.36	231.10
1023.65	224.30
>>>>>End Processed Spectral Data<<<<<
