SpectraSuite Data File
++++++++++++++++++++++++++++++++++++
Date: Wed Sep 04 18:02:26 EDT 2013
User: lab3
Dark Spectrum Present: Yes
Reference Spectrum Present: No
Number of Sampled Component Spectra: 1
Spectrometers: USB2E7196
Integration Time (usec): 170000 (USB2E7196)
Spectra Averaged: 20 (USB2E7196)
Boxcar Smoothing: 10 (USB2E7196)
Correct for Electrical Dark: No (USB2E7196)
Strobe/Lamp Enabled: No (USB2E7196)
Correct for Detector Non-linearity: No (USB2E7196)
Correct for Stray Light: No (USB2E7196)
Number of Pixels in Processed Spectrum: 2048
>>>>>Begin Processed Spectral Data<<<<<
339.09	0.00
339.48	213.10
339.86	215.95
340.24	216.00
340.63	217.75
341.01	224.80
341.39	220.65
341.78	222.40
342.16	225.90
342.54	223.15
342.93	212.66
343.31	223.40
343.69	223.92
344.07	224.38
344.46	224.85
344.84	225.32
345.22	225.34
345.60	225.59
345.99	225.80
346.37	225.78
346.75	225.90
347.13	226.02
347.52	226.06
347.90	226.32
348.28	226.40
348.66	226.55
349.05	226.36
349.43	226.42
349.81	226.51
350.19	226.55
350.57	226.60
350.96	226.72
351.34	226.81
351.72	226.92
352.10	227.02
352.48	227.05
352.87	226.97
353.25	227.04
353.63	227.08
354.01	227.07
354.39	227.21
354.77	227.25
355.15	227.46
355.54	227.44
355.92	227.38
356.30	227.45
356.68	227.78
357.06	227.90
357.44	227.89
357.82	227.86
358.20	228.28
358.58	228.38
358.97	228.44
359.35	228.54
359.73	228.68
360.11	228.70
360.49	228.80
360.87	228.85
361.25	228.97
361.63	229.20
362.01	229.32
362.39	229.30
362.77	229.42
363.15	229.44
363.53	229.50
363.91	229.52
364.29	229.57
364.67	229.19
365.05	229.27
365.43	229.36
365.81	229.51
366.19	229.34
366.57	229.50
366.95	229.55
367.33	229.47
367.71	229.52
368.09	229.55
368.47	229.56
368.85	229.62
369.23	229.71
369.61	229.45
369.99	229.63
370.37	229.72
370.75	229.89
371.13	229.77
371.51	229.68
371.89	229.75
372.27	229.77
372.65	229.77
373.03	229.73
373.41	229.72
373.78	229.59
374.16	229.31
374.54	229.16
374.92	229.08
375.30	229.02
375.68	228.90
376.06	228.90
376.44	228.83
376.82	228.76
377.19	228.73
377.57	228.71
377.95	228.53
378.33	228.43
378.71	228.15
379.09	228.20
379.47	228.24
379.84	228.03
380.22	227.85
380.60	227.69
380.98	227.53
381.36	227.43
381.73	227.42
382.11	227.47
382.49	227.54
382.87	227.51
383.25	227.50
383.62	228.04
384.00	227.91
384.38	227.89
384.76	227.97
385.13	228.06
385.51	228.04
385.89	227.90
386.27	227.88
386.64	227.91
387.02	227.78
387.40	227.70
387.78	227.70
388.15	227.76
388.53	227.76
388.91	227.83
389.29	227.78
389.66	227.74
390.04	227.64
390.42	227.59
390.79	227.42
391.17	227.39
391.55	226.79
391.92	226.79
392.30	226.84
392.68	226.74
393.05	226.73
393.43	226.78
393.81	226.80
394.18	226.73
394.56	226.75
394.94	226.87
395.31	226.85
395.69	227.04
396.06	227.09
396.44	227.12
396.82	227.11
397.19	227.37
397.57	227.35
397.95	227.49
398.32	227.37
398.70	227.58
399.07	227.71
399.45	227.77
399.82	227.83
400.20	227.79
400.58	227.90
400.95	227.70
401.33	227.89
401.70	228.27
402.08	228.39
402.45	228.40
402.83	228.58
403.20	228.72
403.58	228.80
403.95	228.98
404.33	229.24
404.71	229.40
405.08	229.82
405.46	230.11
405.83	230.31
406.21	230.61
406.58	230.90
406.96	231.16
407.33	231.48
407.70	231.86
408.08	232.58
408.45	233.02
408.83	233.59
409.20	233.94
409.58	234.13
409.95	234.72
410.33	235.41
410.70	235.78
411.08	236.42
411.45	237.03
411.82	237.58
412.20	238.33
412.57	239.36
412.95	239.64
413.32	240.44
413.69	241.33
414.07	242.28
414.44	243.31
414.82	244.41
415.19	245.67
415.56	246.84
415.94	247.93
416.31	249.33
416.68	250.68
417.06	252.28
417.43	253.88
417.81	255.59
418.18	257.36
418.55	259.30
418.93	261.32
419.30	263.45
419.67	265.77
420.04	268.10
420.42	270.45
420.79	273.59
421.16	276.46
421.54	279.52
421.91	282.51
422.28	285.51
422.66	288.71
423.03	292.09
423.40	295.48
423.77	299.04
424.15	302.69
424.52	306.59
424.89	310.84
425.26	314.82
425.64	318.70
426.01	322.91
426.38	327.38
426.75	331.93
427.13	336.50
427.50	341.21
427.87	346.11
428.24	351.09
428.61	355.60
428.99	360.89
429.36	366.38
429.73	371.85
430.10	377.58
430.47	383.40
430.85	389.20
431.22	395.41
431.59	402.30
431.96	408.59
432.33	415.60
432.70	422.30
433.08	430.28
433.45	437.75
433.82	445.21
434.19	453.64
434.56	461.74
434.93	469.58
435.30	477.55
435.68	486.23
436.05	494.56
436.42	503.00
436.79	510.73
437.16	519.20
437.53	528.22
437.90	536.90
438.27	545.45
438.64	554.33
439.01	562.78
439.38	569.96
439.75	577.13
440.13	585.17
440.50	592.75
440.87	598.81
441.24	605.16
441.61	612.30
441.98	617.24
442.35	623.06
442.72	628.95
443.09	634.72
443.46	638.07
443.83	640.40
444.20	642.26
444.57	644.95
444.94	646.06
445.31	647.09
445.68	648.53
446.05	648.66
446.42	647.31
446.79	645.93
447.16	644.35
447.53	642.99
447.90	639.19
448.27	635.50
448.64	630.74
449.01	627.08
449.37	620.74
449.74	614.65
450.11	607.84
450.48	600.05
450.85	591.97
451.22	585.05
451.59	578.40
451.96	572.16
452.33	564.08
452.70	556.48
453.07	547.77
453.43	538.57
453.80	530.05
454.17	521.95
454.54	513.94
454.91	505.65
455.28	497.69
455.65	490.26
456.02	483.39
456.38	476.97
456.75	469.20
457.12	462.59
457.49	456.10
457.86	449.64
458.23	444.54
458.59	438.81
458.96	433.12
459.33	428.04
459.70	422.89
460.07	418.77
460.43	414.15
460.80	409.90
461.17	406.07
461.54	402.10
461.91	398.28
462.27	394.50
462.64	391.17
463.01	387.50
463.38	384.18
463.74	380.09
464.11	377.00
464.48	374.32
464.85	371.51
465.21	369.49
465.58	367.18
465.95	364.23
466.32	362.02
466.68	359.68
467.05	357.35
467.42	355.17
467.78	352.79
468.15	350.65
468.52	348.93
468.88	346.62
469.25	344.74
469.62	343.31
469.98	341.61
470.35	340.03
470.72	338.63
471.08	336.79
471.45	335.55
471.82	334.26
472.18	332.68
472.55	331.65
472.92	330.33
473.28	329.20
473.65	328.10
474.02	327.00
474.38	326.14
474.75	325.42
475.11	324.55
475.48	323.94
475.85	323.33
476.21	322.70
476.58	322.28
476.94	321.80
477.31	321.30
477.67	320.92
478.04	320.60
478.41	320.38
478.77	320.65
479.14	320.33
479.50	320.15
479.87	320.24
480.23	320.16
480.60	320.18
480.96	320.19
481.33	320.64
481.69	320.84
482.06	321.02
482.42	321.34
482.79	321.65
483.15	322.02
483.52	322.63
483.88	323.16
484.25	323.72
484.61	324.54
484.98	325.13
485.34	326.05
485.71	327.01
486.07	328.07
486.44	328.74
486.80	329.79
487.17	330.93
487.53	332.31
487.90	333.66
488.26	335.34
488.62	336.98
488.99	338.40
489.35	340.18
489.72	342.17
490.08	344.10
490.44	346.17
490.81	348.46
491.17	350.60
491.54	353.00
491.90	355.51
492.26	358.10
492.63	361.10
492.99	364.06
493.36	367.24
493.72	370.54
494.08	374.00
494.45	377.74
494.81	381.77
495.17	385.68
495.54	389.91
495.90	394.05
496.26	398.52
496.63	403.24
496.99	407.97
497.35	412.93
497.72	418.22
498.08	423.73
498.44	429.37
498.80	435.60
499.17	441.78
499.53	448.20
499.89	454.87
500.26	461.68
500.62	468.56
500.98	475.91
501.34	483.48
501.71	491.28
502.07	499.15
502.43	507.20
502.79	515.67
503.16	524.24
503.52	533.34
503.88	542.57
504.24	552.33
504.60	562.38
504.97	572.75
505.33	583.27
505.69	594.46
506.05	605.42
506.41	616.46
506.78	628.03
507.14	640.03
507.50	652.40
507.86	664.88
508.22	678.01
508.59	691.03
508.95	704.61
509.31	718.74
509.67	733.06
510.03	747.39
510.39	761.94
510.75	777.16
511.12	792.28
511.48	808.04
511.84	823.73
512.20	839.82
512.56	856.24
512.92	873.06
513.28	889.66
513.64	907.12
514.00	924.73
514.37	942.45
514.73	960.63
515.09	978.84
515.45	997.40
515.81	1015.89
516.17	1034.91
516.53	1053.58
516.89	1072.48
517.25	1091.92
517.61	1112.44
517.97	1132.97
518.33	1153.20
518.69	1173.66
519.05	1194.19
519.41	1215.01
519.77	1236.33
520.13	1257.09
520.49	1277.80
520.85	1300.35
521.21	1321.57
521.57	1343.05
521.93	1363.90
522.29	1385.23
522.65	1406.06
523.01	1426.98
523.37	1447.82
523.73	1468.96
524.09	1489.80
524.45	1510.36
524.81	1531.50
525.17	1551.86
525.53	1572.60
525.89	1593.71
526.25	1614.83
526.61	1635.33
526.97	1656.57
527.33	1677.69
527.68	1699.43
528.04	1720.92
528.40	1740.62
528.76	1761.86
529.12	1782.15
529.48	1803.20
529.84	1823.27
530.20	1844.84
530.56	1865.96
530.91	1887.00
531.27	1907.54
531.63	1928.02
531.99	1948.95
532.35	1968.99
532.71	1989.63
533.07	2010.31
533.42	2029.90
533.78	2049.74
534.14	2069.91
534.50	2088.95
534.86	2108.11
535.21	2126.09
535.57	2144.67
535.93	2162.75
536.29	2180.43
536.65	2198.97
537.00	2216.75
537.36	2234.38
537.72	2250.85
538.08	2268.35
538.44	2285.14
538.79	2301.59
539.15	2318.50
539.51	2334.35
539.87	2349.73
540.22	2363.98
540.58	2378.58
540.94	2391.94
541.29	2404.68
541.65	2417.55
542.01	2430.06
542.37	2441.38
542.72	2452.56
543.08	2463.05
543.44	2474.59
543.79	2484.98
544.15	2494.67
544.51	2504.80
544.87	2514.69
545.22	2523.32
545.58	2530.59
545.94	2537.83
546.29	2544.49
546.65	2550.78
547.01	2556.59
547.36	2562.28
547.72	2567.54
548.07	2571.16
548.43	2576.68
548.79	2581.50
549.14	2585.45
549.50	2589.80
549.86	2593.30
550.21	2597.21
550.57	2600.93
550.92	2602.45
551.28	2603.95
551.64	2606.41
551.99	2608.36
552.35	2609.96
552.70	2612.33
553.06	2614.23
553.41	2615.64
553.77	2617.40
554.13	2619.09
554.48	2620.69
554.84	2622.42
555.19	2623.79
555.55	2625.88
555.90	2625.25
556.26	2624.38
556.61	2623.08
556.97	2620.63
557.32	2620.25
557.68	2618.98
558.03	2617.51
558.39	2616.52
558.74	2615.40
559.10	2612.06
559.45	2608.74
559.81	2604.60
560.16	2599.49
560.52	2594.83
560.87	2590.41
561.23	2585.12
561.58	2578.76
561.94	2571.85
562.29	2564.12
562.64	2557.17
563.00	2548.67
563.35	2542.32
563.71	2535.81
564.06	2529.62
564.42	2523.41
564.77	2516.75
565.12	2509.26
565.48	2501.48
565.83	2493.32
566.19	2485.50
566.54	2478.25
566.89	2470.01
567.25	2462.25
567.60	2454.96
567.96	2447.40
568.31	2439.12
568.66	2430.20
569.02	2421.82
569.37	2413.87
569.72	2406.31
570.08	2397.30
570.43	2387.91
570.78	2378.74
571.14	2369.86
571.49	2359.70
571.84	2349.88
572.20	2338.62
572.55	2328.49
572.90	2317.66
573.26	2307.56
573.61	2296.31
573.96	2284.65
574.31	2272.81
574.67	2260.98
575.02	2248.19
575.37	2235.28
575.72	2222.35
576.08	2210.26
576.43	2197.47
576.78	2184.30
577.13	2170.65
577.49	2157.56
577.84	2145.61
578.19	2133.36
578.54	2120.16
578.90	2107.95
579.25	2095.71
579.60	2083.19
579.95	2070.00
580.30	2056.84
580.66	2043.18
581.01	2029.53
581.36	2015.74
581.71	2003.14
582.06	1989.70
582.42	1977.14
582.77	1964.63
583.12	1952.60
583.47	1940.43
583.82	1928.65
584.17	1916.77
584.53	1904.93
584.88	1891.88
585.23	1878.85
585.58	1864.88
585.93	1851.51
586.28	1838.19
586.63	1823.70
586.98	1809.21
587.34	1795.96
587.69	1782.61
588.04	1769.86
588.39	1757.83
588.74	1745.52
589.09	1733.08
589.44	1720.55
589.79	1708.44
590.14	1696.47
590.49	1684.29
590.84	1671.85
591.19	1659.54
591.54	1646.73
591.89	1634.14
592.25	1624.05
592.60	1612.50
592.95	1600.86
593.30	1589.02
593.65	1577.06
594.00	1565.30
594.35	1555.73
594.70	1543.82
595.05	1532.42
595.40	1520.15
595.75	1508.11
596.10	1496.79
596.45	1485.28
596.80	1474.28
597.15	1462.53
597.50	1450.26
597.85	1438.73
598.19	1427.24
598.54	1415.09
598.89	1404.02
599.24	1393.43
599.59	1381.67
599.94	1370.77
600.29	1360.09
600.64	1349.64
600.99	1338.71
601.34	1329.07
601.69	1317.83
602.04	1307.80
602.39	1298.02
602.74	1288.81
603.08	1279.19
603.43	1269.97
603.78	1260.09
604.13	1250.40
604.48	1240.95
604.83	1231.41
605.18	1221.59
605.53	1211.81
605.87	1202.96
606.22	1194.12
606.57	1184.75
606.92	1175.14
607.27	1165.90
607.62	1157.21
607.96	1148.51
608.31	1140.44
608.66	1131.92
609.01	1123.14
609.36	1114.53
609.70	1105.97
610.05	1097.24
610.40	1088.80
610.75	1079.77
611.10	1071.40
611.44	1062.61
611.79	1054.13
612.14	1046.23
612.49	1038.12
612.83	1030.73
613.18	1022.85
613.53	1015.31
613.88	1007.50
614.22	999.89
614.57	992.07
614.92	984.35
615.27	976.74
615.61	969.00
615.96	961.40
616.31	953.83
616.65	946.80
617.00	939.19
617.35	931.91
617.70	924.73
618.04	917.64
618.39	910.71
618.74	904.40
619.08	897.52
619.43	890.44
619.78	883.50
620.12	876.20
620.47	869.28
620.82	862.14
621.16	855.08
621.51	848.50
621.85	841.93
622.20	834.96
622.55	828.22
622.89	821.73
623.24	815.17
623.59	808.81
623.93	802.34
624.28	796.29
624.62	790.69
624.97	784.87
625.32	779.17
625.66	773.14
626.01	766.78
626.35	761.03
626.70	755.56
627.04	750.31
627.39	744.76
627.73	739.35
628.08	733.89
628.43	728.36
628.77	722.99
629.12	717.76
629.46	712.90
629.81	708.08
630.15	703.08
630.50	698.10
630.84	693.19
631.19	688.36
631.53	683.73
631.88	678.29
632.22	673.26
632.57	668.65
632.91	663.95
633.26	659.70
633.60	655.22
633.95	650.37
634.29	645.41
634.64	640.95
634.98	636.13
635.32	631.59
635.67	627.61
636.01	623.24
636.36	618.99
636.70	614.98
637.05	610.66
637.39	606.49
637.73	602.34
638.08	598.25
638.42	594.08
638.77	589.66
639.11	585.30
639.45	581.00
639.80	576.62
640.14	572.41
640.49	568.27
640.83	564.31
641.17	560.55
641.52	556.83
641.86	553.06
642.20	549.70
642.55	546.20
642.89	542.52
643.23	538.97
643.58	535.65
643.92	532.01
644.26	528.81
644.61	525.62
644.95	522.30
645.29	518.86
645.64	515.64
645.98	512.32
646.32	509.48
646.66	506.26
647.01	503.25
647.35	500.63
647.69	497.77
648.04	495.03
648.38	492.24
648.72	489.21
649.06	486.27
649.41	483.28
649.75	480.26
650.09	477.47
650.43	474.67
650.78	471.76
651.12	468.82
651.46	465.81
651.80	463.02
652.14	460.31
652.49	457.74
652.83	455.14
653.17	452.75
653.51	449.96
653.85	447.62
654.20	445.08
654.54	442.34
654.88	439.60
655.22	437.31
655.56	434.82
655.90	432.61
656.25	430.39
656.59	428.13
656.93	425.98
657.27	423.76
657.61	421.35
657.95	419.03
658.29	416.89
658.64	414.78
658.98	412.48
659.32	410.13
659.66	407.99
660.00	405.86
660.34	403.77
660.68	401.74
661.02	399.67
661.36	397.66
661.70	395.62
662.05	393.90
662.39	391.86
662.73	390.05
663.07	388.26
663.41	386.40
663.75	384.53
664.09	382.63
664.43	380.66
664.77	378.97
665.11	377.21
665.45	375.56
665.79	373.90
666.13	372.20
666.47	370.64
666.81	369.01
667.15	367.30
667.49	365.81
667.83	364.56
668.17	363.06
668.51	361.67
668.85	360.32
669.19	359.05
669.53	357.48
669.87	355.87
670.21	354.40
670.55	352.94
670.89	351.74
671.23	350.32
671.57	348.92
671.91	347.55
672.25	346.29
672.58	345.08
672.92	343.70
673.26	342.48
673.60	341.35
673.94	340.24
674.28	339.16
674.62	337.97
674.96	336.49
675.30	335.34
675.64	334.00
675.97	332.80
676.31	331.44
676.65	330.21
676.99	329.24
677.33	328.15
677.67	327.10
678.01	325.81
678.34	324.77
678.68	323.88
679.02	322.83
679.36	321.80
679.70	320.77
680.04	319.84
680.37	318.77
680.71	317.71
681.05	316.72
681.39	315.80
681.73	314.86
682.06	314.02
682.40	313.10
682.74	312.39
683.08	311.57
683.42	310.67
683.75	309.89
684.09	308.97
684.43	308.17
684.77	307.28
685.10	306.44
685.44	305.70
685.78	304.83
686.12	304.02
686.45	303.12
686.79	302.22
687.13	301.48
687.46	300.84
687.80	300.19
688.14	299.27
688.48	298.50
688.81	297.67
689.15	297.06
689.49	296.30
689.82	295.57
690.16	294.73
690.50	294.04
690.83	293.39
691.17	292.58
691.51	291.77
691.84	291.29
692.18	290.63
692.52	289.89
692.85	289.33
693.19	288.96
693.52	288.41
693.86	287.79
694.20	287.14
694.53	286.55
694.87	285.85
695.21	285.28
695.54	284.62
695.88	284.04
696.21	283.28
696.55	282.73
696.88	282.07
697.22	281.50
697.56	281.00
697.89	280.32
698.23	279.86
698.56	279.44
698.90	278.83
699.23	278.33
699.57	277.79
699.90	277.21
700.24	276.51
700.58	276.02
700.91	275.66
701.25	275.57
701.58	275.35
701.92	275.03
702.25	274.58
702.59	274.16
702.92	273.79
703.26	273.43
703.59	272.95
703.93	272.92
704.26	272.53
704.60	272.09
704.93	271.62
705.26	271.19
705.60	270.83
705.93	270.32
706.27	270.00
706.60	269.77
706.94	269.54
707.27	269.08
707.61	268.78
707.94	268.33
708.27	267.55
708.61	266.80
708.94	266.34
709.28	265.97
709.61	265.57
709.94	265.08
710.28	264.66
710.61	264.30
710.95	263.53
711.28	263.48
711.61	263.07
711.95	262.85
712.28	262.43
712.61	262.05
712.95	261.90
713.28	261.75
713.61	261.24
713.95	260.74
714.28	260.45
714.61	260.01
714.95	259.63
715.28	259.22
715.61	258.93
715.95	258.63
716.28	258.18
716.61	257.95
716.95	257.56
717.28	257.27
717.61	256.96
717.94	256.63
718.28	255.99
718.61	255.73
718.94	255.42
719.27	255.24
719.61	254.91
719.94	254.63
720.27	254.07
720.60	253.86
720.94	253.60
721.27	253.35
721.60	253.15
721.93	252.84
722.27	252.79
722.60	252.65
722.93	252.33
723.26	252.23
723.59	251.95
723.93	251.92
724.26	251.73
724.59	251.47
724.92	251.36
725.25	251.25
725.59	251.04
725.92	250.86
726.25	250.61
726.58	250.46
726.91	250.19
727.24	250.11
727.57	249.86
727.91	249.61
728.24	249.49
728.57	249.25
728.90	249.15
729.23	248.83
729.56	248.86
729.89	248.70
730.22	248.44
730.55	248.20
730.89	247.94
731.22	247.75
731.55	247.63
731.88	247.48
732.21	247.21
732.54	246.97
732.87	246.80
733.20	246.60
733.53	246.51
733.86	246.40
734.19	246.15
734.52	246.13
734.85	246.33
735.18	246.04
735.51	246.06
735.84	245.94
736.17	245.91
736.50	245.45
736.83	245.89
737.16	245.82
737.49	245.81
737.82	245.64
738.15	245.55
738.48	245.44
738.81	245.24
739.14	245.14
739.47	245.09
739.80	244.90
740.13	244.85
740.46	244.56
740.79	244.29
741.12	244.19
741.45	244.00
741.78	243.63
742.11	243.70
742.44	243.50
742.77	243.50
743.10	243.30
743.43	243.20
743.75	242.55
744.08	243.03
744.41	242.81
744.74	242.62
745.07	242.31
745.40	242.24
745.73	242.31
746.06	242.17
746.39	241.96
746.71	241.86
747.04	241.65
747.37	241.54
747.70	241.51
748.03	241.41
748.36	241.31
748.68	241.18
749.01	240.88
749.34	240.71
749.67	240.48
750.00	240.41
750.33	240.67
750.65	240.65
750.98	239.96
751.31	239.84
751.64	239.91
751.97	240.11
752.29	239.91
752.62	239.55
752.95	239.42
753.28	239.30
753.60	239.18
753.93	239.19
754.26	239.10
754.59	238.82
754.91	238.60
755.24	238.48
755.57	238.31
755.90	238.18
756.22	238.08
756.55	237.97
756.88	237.77
757.20	237.28
757.53	237.05
757.86	236.92
758.19	236.86
758.51	236.64
758.84	236.30
759.17	236.15
759.49	236.07
759.82	236.15
760.15	236.09
760.47	235.86
760.80	235.68
761.13	235.65
761.45	235.62
761.78	235.53
762.11	235.41
762.43	235.32
762.76	235.20
763.08	235.15
763.41	235.08
763.74	235.06
764.06	234.93
764.39	234.83
764.71	234.70
765.04	234.54
765.37	234.50
765.69	234.39
766.02	234.35
766.34	234.26
766.67	234.02
767.00	234.02
767.32	234.37
767.65	234.57
767.97	234.46
768.30	234.38
768.62	234.40
768.95	234.27
769.27	234.18
769.60	234.20
769.92	234.13
770.25	233.95
770.57	233.78
770.90	233.79
771.22	233.63
771.55	233.64
771.87	233.61
772.20	233.51
772.52	233.94
772.85	234.46
773.17	234.40
773.50	234.35
773.82	234.26
774.15	233.92
774.47	233.52
774.80	233.44
775.12	233.47
775.45	233.34
775.77	233.32
776.09	233.35
776.42	233.34
776.74	233.40
777.07	233.43
777.39	233.40
777.72	233.24
778.04	233.29
778.36	233.19
778.69	233.18
779.01	233.21
779.33	232.74
779.66	232.14
779.98	232.09
780.31	232.05
780.63	232.14
780.95	232.19
781.28	232.22
781.60	232.20
781.92	232.11
782.25	232.08
782.57	232.04
782.89	231.94
783.22	231.82
783.54	231.67
783.86	231.66
784.19	231.63
784.51	231.79
784.83	231.66
785.16	231.63
785.48	231.57
785.80	231.47
786.12	231.42
786.45	231.37
786.77	231.45
787.09	231.39
787.42	231.19
787.74	231.10
788.06	231.05
788.38	230.89
788.71	230.79
789.03	230.74
789.35	230.77
789.67	230.64
789.99	230.65
790.32	230.60
790.64	230.65
790.96	231.07
791.28	230.90
791.61	230.90
791.93	230.87
792.25	230.86
792.57	231.10
792.89	231.07
793.21	231.10
793.54	231.02
793.86	230.87
794.18	230.94
794.50	230.85
794.82	230.82
795.14	230.90
795.47	231.04
795.79	231.04
796.11	230.91
796.43	230.92
796.75	230.91
797.07	230.85
797.39	230.73
797.71	230.27
798.04	230.25
798.36	230.24
798.68	230.27
799.00	230.25
799.32	230.04
799.64	230.05
799.96	230.00
800.28	229.98
800.60	229.99
800.92	229.96
801.24	229.90
801.56	229.90
801.89	229.85
802.21	229.83
802.53	229.75
802.85	229.82
803.17	230.01
803.49	229.85
803.81	229.76
804.13	229.70
804.45	229.63
804.77	229.69
805.09	229.65
805.41	229.48
805.73	229.38
806.05	229.22
806.37	229.25
806.69	229.19
807.01	229.13
807.33	229.13
807.65	228.95
807.97	229.18
808.28	229.20
808.60	229.21
808.92	229.12
809.24	229.44
809.56	229.39
809.88	229.18
810.20	229.18
810.52	229.33
810.84	229.24
811.16	229.21
811.48	229.10
811.80	229.27
812.12	229.33
812.43	229.38
812.75	229.46
813.07	229.35
813.39	229.38
813.71	229.27
814.03	229.19
814.35	229.21
814.67	228.96
814.98	228.81
815.30	228.75
815.62	228.60
815.94	228.17
816.26	228.37
816.58	228.31
816.89	228.35
817.21	228.15
817.53	228.19
817.85	228.17
818.17	228.14
818.48	227.90
818.80	227.95
819.12	227.91
819.44	227.80
819.76	227.75
820.07	227.76
820.39	227.81
820.71	227.88
821.03	227.90
821.34	227.84
821.66	227.90
821.98	227.89
822.30	227.92
822.61	228.24
822.93	227.93
823.25	227.92
823.57	227.88
823.88	228.00
824.20	227.99
824.52	228.06
824.83	228.09
825.15	228.12
825.47	228.11
825.79	228.12
826.10	228.10
826.42	228.08
826.74	228.02
827.05	228.00
827.37	228.01
827.69	227.94
828.00	228.01
828.32	228.04
828.64	228.05
828.95	228.35
829.27	228.26
829.58	228.33
829.90	228.40
830.22	228.41
830.53	228.30
830.85	228.23
831.17	228.12
831.48	228.11
831.80	228.12
832.11	227.98
832.43	227.96
832.75	227.93
833.06	228.17
833.38	228.14
833.69	228.15
834.01	228.16
834.32	228.16
834.64	228.11
834.96	228.06
835.27	228.02
835.59	227.83
835.90	227.75
836.22	227.74
836.53	227.67
836.85	227.61
837.16	228.12
837.48	228.11
837.79	228.28
838.11	228.30
838.42	228.28
838.74	228.36
839.05	228.29
839.37	228.34
839.68	228.05
840.00	228.02
840.31	228.09
840.63	228.02
840.94	227.93
841.26	227.90
841.57	227.88
841.88	227.94
842.20	227.81
842.51	227.62
842.83	227.61
843.14	228.02
843.46	228.08
843.77	227.79
844.08	227.80
844.40	227.67
844.71	227.54
845.03	227.42
845.34	227.43
845.65	227.39
845.97	227.30
846.28	227.34
846.60	227.33
846.91	227.16
847.22	227.15
847.54	227.26
847.85	227.22
848.16	227.20
848.48	227.09
848.79	227.38
849.10	227.52
849.42	227.54
849.73	227.10
850.04	227.01
850.36	226.79
850.67	226.86
850.98	226.84
851.30	226.92
851.61	226.96
851.92	226.90
852.23	227.11
852.55	227.19
852.86	227.22
853.17	227.26
853.49	227.42
853.80	227.58
854.11	227.69
854.42	227.79
854.74	227.80
855.05	227.80
855.36	227.51
855.67	227.53
855.99	227.50
856.30	228.04
856.61	228.04
856.92	228.11
857.23	228.15
857.55	228.08
857.86	227.99
858.17	228.10
858.48	228.06
858.79	227.89
859.11	227.94
859.42	227.91
859.73	227.89
860.04	227.92
860.35	227.74
860.66	227.52
860.98	227.53
861.29	227.57
861.60	227.55
861.91	227.65
862.22	227.55
862.53	227.48
862.84	226.93
863.16	227.04
863.47	226.96
863.78	226.85
864.09	226.96
864.40	227.06
864.71	227.05
865.02	227.17
865.33	227.18
865.64	227.10
865.95	227.07
866.27	227.33
866.58	227.27
866.89	227.40
867.20	227.45
867.51	227.35
867.82	227.39
868.13	227.56
868.44	227.46
868.75	227.57
869.06	227.63
869.37	227.70
869.68	227.56
869.99	227.72
870.30	227.75
870.61	227.77
870.92	227.77
871.23	227.76
871.54	227.68
871.85	227.81
872.16	227.85
872.47	227.91
872.78	227.71
873.09	227.74
873.40	227.64
873.71	227.71
874.02	227.76
874.33	227.61
874.64	227.48
874.95	227.55
875.26	227.42
875.56	227.37
875.87	227.35
876.18	227.41
876.49	227.82
876.80	227.80
877.11	227.70
877.42	227.67
877.73	227.63
878.04	227.66
878.35	227.57
878.66	227.61
878.96	227.54
879.27	227.47
879.58	227.35
879.89	227.29
880.20	227.39
880.51	227.39
880.82	227.44
881.12	227.45
881.43	227.39
881.74	227.42
882.05	227.37
882.36	227.40
882.67	227.36
882.97	226.80
883.28	226.76
883.59	226.72
883.90	226.74
884.21	226.85
884.51	226.72
884.82	226.67
885.13	226.60
885.44	226.65
885.74	226.66
886.05	226.69
886.36	226.82
886.67	226.64
886.98	226.86
887.28	226.88
887.59	226.92
887.90	226.90
888.20	226.82
888.51	226.95
888.82	226.88
889.13	226.91
889.43	227.33
889.74	227.36
890.05	227.42
890.35	227.40
890.66	227.32
890.97	227.35
891.28	227.34
891.58	227.35
891.89	227.28
892.20	227.23
892.50	227.21
892.81	227.10
893.12	227.09
893.42	226.84
893.73	226.87
894.04	226.87
894.34	226.98
894.65	226.96
894.95	226.89
895.26	226.89
895.57	227.09
895.87	226.62
896.18	226.62
896.48	226.58
896.79	226.56
897.10	226.59
897.40	226.59
897.71	226.63
898.01	226.64
898.32	226.61
898.63	226.61
898.93	226.62
899.24	226.60
899.54	226.65
899.85	226.61
900.15	226.57
900.46	226.51
900.76	226.51
901.07	226.57
901.38	226.59
901.68	226.68
901.99	226.43
902.29	226.47
902.60	226.50
902.90	226.48
903.21	226.47
903.51	226.44
903.82	226.55
904.12	226.56
904.43	226.58
904.73	226.68
905.03	226.76
905.34	227.24
905.64	227.26
905.95	227.30
906.25	227.30
906.56	227.25
906.86	227.30
907.17	227.27
907.47	227.26
907.77	227.18
908.08	227.11
908.38	227.16
908.69	227.24
908.99	227.32
909.30	227.34
909.60	227.35
909.90	227.42
910.21	227.23
910.51	227.16
910.81	227.18
911.12	227.08
911.42	227.01
911.73	226.45
912.03	226.54
912.33	226.60
912.64	226.59
912.94	226.56
913.24	226.44
913.55	226.42
913.85	226.40
914.15	226.53
914.46	226.55
914.76	226.48
915.06	226.42
915.37	226.31
915.67	226.34
915.97	226.34
916.27	226.12
916.58	226.20
916.88	226.24
917.18	226.19
917.49	226.61
917.79	226.60
918.09	226.72
918.39	226.70
918.70	226.62
919.00	226.61
919.30	226.86
919.60	226.85
919.91	226.74
920.21	226.75
920.51	226.61
920.81	226.58
921.12	226.63
921.42	226.61
921.72	226.60
922.02	226.64
922.32	226.67
922.63	226.80
922.93	227.02
923.23	227.07
923.53	226.95
923.83	226.67
924.13	226.72
924.44	226.70
924.74	226.84
925.04	226.90
925.34	226.92
925.64	226.71
925.94	226.71
926.24	227.00
926.55	226.94
926.85	227.00
927.15	226.97
927.45	227.02
927.75	227.02
928.05	227.02
928.35	226.92
928.65	227.02
928.95	227.10
929.26	226.89
929.56	226.87
929.86	226.97
930.16	226.86
930.46	226.83
930.76	226.80
931.06	226.54
931.36	226.44
931.66	226.46
931.96	226.48
932.26	226.54
932.56	226.34
932.86	226.40
933.16	226.42
933.46	226.41
933.76	226.31
934.06	226.45
934.36	226.63
934.66	226.63
934.96	226.53
935.26	226.47
935.56	226.55
935.86	226.49
936.16	226.50
936.46	226.47
936.76	226.45
937.06	226.37
937.36	226.46
937.66	226.46
937.96	226.50
938.26	226.47
938.56	226.44
938.86	226.50
939.16	226.61
939.46	226.69
939.76	226.73
940.06	226.72
940.35	226.59
940.65	226.38
940.95	226.41
941.25	226.27
941.55	226.19
941.85	226.21
942.15	226.34
942.45	226.39
942.75	226.41
943.04	226.47
943.34	226.65
943.64	226.54
943.94	226.55
944.24	226.52
944.54	226.55
944.84	226.49
945.13	226.37
945.43	226.24
945.73	226.19
946.03	226.18
946.33	226.14
946.62	226.08
946.92	226.05
947.22	226.07
947.52	226.15
947.82	226.29
948.11	226.17
948.41	226.03
948.71	225.96
949.01	226.00
949.31	225.88
949.60	225.77
949.90	225.90
950.20	225.88
950.50	225.85
950.79	225.78
951.09	225.88
951.39	225.90
951.69	225.98
951.98	226.10
952.28	226.10
952.58	226.14
952.87	226.22
953.17	226.32
953.47	226.25
953.76	226.26
954.06	226.20
954.36	226.21
954.66	226.22
954.95	226.35
955.25	226.39
955.55	226.45
955.84	226.53
956.14	226.52
956.44	226.57
956.73	226.55
957.03	226.55
957.32	226.61
957.62	226.60
957.92	226.62
958.21	226.53
958.51	227.06
958.81	227.15
959.10	227.11
959.40	227.23
959.69	227.35
959.99	227.43
960.29	227.50
960.58	227.52
960.88	227.72
961.17	227.64
961.47	227.72
961.76	227.73
962.06	227.75
962.36	227.70
962.65	227.73
962.95	227.76
963.24	227.80
963.54	227.83
963.83	227.86
964.13	227.93
964.42	227.81
964.72	227.46
965.01	227.45
965.31	227.43
965.60	227.26
965.90	227.50
966.19	227.34
966.49	227.27
966.78	227.18
967.08	227.09
967.37	227.07
967.67	226.93
967.96	226.99
968.26	226.95
968.55	227.02
968.85	227.02
969.14	226.99
969.43	226.95
969.73	226.90
970.02	226.90
970.32	226.73
970.61	226.67
970.91	226.50
971.20	226.44
971.49	226.38
971.79	226.47
972.08	226.09
972.38	226.17
972.67	226.20
972.96	226.26
973.26	226.21
973.55	226.35
973.85	226.25
974.14	226.21
974.43	226.21
974.73	226.15
975.02	226.09
975.31	226.10
975.61	226.09
975.90	226.04
976.19	225.99
976.49	226.15
976.78	226.25
977.07	226.25
977.37	226.37
977.66	226.44
977.95	226.40
978.24	226.46
978.54	226.53
978.83	226.41
979.12	226.35
979.42	226.29
979.71	226.15
980.00	226.30
980.29	226.29
980.59	226.20
980.88	226.26
981.17	226.24
981.46	226.29
981.76	226.24
982.05	226.35
982.34	226.43
982.63	226.33
982.93	226.34
983.22	226.50
983.51	226.42
983.80	226.45
984.09	226.45
984.39	226.45
984.68	226.38
984.97	226.50
985.26	226.48
985.55	226.55
985.85	226.52
986.14	226.54
986.43	226.62
986.72	226.55
987.01	226.42
987.30	226.42
987.59	226.41
987.89	226.47
988.18	226.28
988.47	226.20
988.76	226.15
989.05	226.12
989.34	225.99
989.63	226.10
989.92	226.04
990.22	226.01
990.51	226.00
990.80	226.01
991.09	225.99
991.38	226.07
991.67	226.08
991.96	226.12
992.25	226.13
992.54	226.01
992.83	226.13
993.12	226.19
993.41	226.27
993.70	226.37
993.99	226.44
994.28	226.60
994.58	226.75
994.87	226.73
995.16	226.68
995.45	226.66
995.74	226.51
996.03	226.63
996.32	226.73
996.61	226.82
996.90	226.82
997.19	226.77
997.48	226.76
997.77	226.69
998.06	226.61
998.34	226.59
998.63	226.58
998.92	226.55
999.21	226.65
999.50	226.64
999.79	226.52
1000.08	226.50
1000.37	226.42
1000.66	226.28
1000.95	226.40
1001.24	226.48
1001.53	226.53
1001.82	226.59
1002.11	226.45
1002.40	226.39
1002.68	226.47
1002.97	226.77
1003.26	226.76
1003.55	226.72
1003.84	226.77
1004.13	226.92
1004.42	226.84
1004.71	226.90
1004.99	226.93
1005.28	227.05
1005.57	227.03
1005.86	226.95
1006.15	226.96
1006.44	226.88
1006.72	226.94
1007.01	226.83
1007.30	226.85
1007.59	226.83
1007.88	226.70
1008.17	226.68
1008.45	226.66
1008.74	226.55
1009.03	226.39
1009.32	226.46
1009.60	226.41
1009.89	226.31
1010.18	226.06
1010.47	226.08
1010.76	226.10
1011.04	226.03
1011.33	225.95
1011.62	225.95
1011.91	226.01
1012.19	226.01
1012.48	226.12
1012.77	226.15
1013.05	226.40
1013.34	226.37
1013.63	226.34
1013.92	226.45
1014.20	226.55
1014.49	226.56
1014.78	226.55
1015.06	226.33
1015.35	226.24
1015.64	226.37
1015.92	226.51
1016.21	226.55
1016.50	226.58
1016.78	226.60
1017.07	226.71
1017.36	226.62
1017.64	226.56
1017.93	226.63
1018.22	226.59
1018.50	226.55
1018.79	226.54
1019.08	226.32
1019.36	226.31
1019.65	226.26
1019.93	226.37
1020.22	226.44
1020.51	226.66
1020.79	226.54
1021.08	225.60
1021.36	226.15
1021.65	226.70
1021.94	226.55
1022.22	225.95
1022.51	225.00
1022.79	228.45
1023.08	227.95
1023.36	231.80
1023.65	224.05
>>>>>End Processed Spectral Data<<<<<
