SpectraSuite Data File
++++++++++++++++++++++++++++++++++++
Date: Wed Sep 04 17:54:19 EDT 2013
User: lab3
Dark Spectrum Present: Yes
Reference Spectrum Present: No
Number of Sampled Component Spectra: 1
Spectrometers: USB2E7196
Integration Time (usec): 170000 (USB2E7196)
Spectra Averaged: 20 (USB2E7196)
Boxcar Smoothing: 10 (USB2E7196)
Correct for Electrical Dark: No (USB2E7196)
Strobe/Lamp Enabled: No (USB2E7196)
Correct for Detector Non-linearity: No (USB2E7196)
Correct for Stray Light: No (USB2E7196)
Number of Pixels in Processed Spectrum: 2048
>>>>>Begin Processed Spectral Data<<<<<
339.09	0.00
339.48	213.20
339.86	214.10
340.24	215.60
340.63	217.35
341.01	225.70
341.39	219.65
341.78	222.55
342.16	223.10
342.54	223.20
342.93	212.19
343.31	222.86
343.69	223.44
344.07	223.90
344.46	224.36
344.84	224.74
345.22	224.68
345.60	225.05
345.99	225.21
346.37	225.38
346.75	225.47
347.13	225.60
347.52	225.74
347.90	225.89
348.28	225.92
348.66	226.09
349.05	225.96
349.43	226.09
349.81	226.13
350.19	226.15
350.57	226.20
350.96	226.33
351.34	226.49
351.72	226.49
352.10	226.65
352.48	226.72
352.87	226.80
353.25	226.89
353.63	226.86
354.01	226.90
354.39	226.94
354.77	227.09
355.15	227.21
355.54	227.18
355.92	227.13
356.30	227.17
356.68	227.47
357.06	227.52
357.44	227.48
357.82	227.49
358.20	227.98
358.58	228.04
358.97	228.10
359.35	228.17
359.73	228.42
360.11	228.50
360.49	228.59
360.87	228.66
361.25	228.81
361.63	229.00
362.01	229.08
362.39	229.13
362.77	229.11
363.15	229.10
363.53	229.18
363.91	229.30
364.29	229.37
364.67	228.98
365.05	229.02
365.43	229.10
365.81	229.23
366.19	229.13
366.57	229.29
366.95	229.29
367.33	229.25
367.71	229.31
368.09	229.37
368.47	229.40
368.85	229.30
369.23	229.43
369.61	229.31
369.99	229.49
370.37	229.58
370.75	229.88
371.13	229.85
371.51	229.81
371.89	229.84
372.27	229.83
372.65	229.88
373.03	229.96
373.41	229.90
373.78	229.79
374.16	229.52
374.54	229.39
374.92	229.28
375.30	229.24
375.68	228.98
376.06	228.96
376.44	228.90
376.82	228.95
377.19	228.84
377.57	228.71
377.95	228.54
378.33	228.46
378.71	228.04
379.09	228.00
379.47	228.05
379.84	227.90
380.22	227.78
380.60	227.60
380.98	227.51
381.36	227.45
381.73	227.36
382.11	227.39
382.49	227.33
382.87	227.21
383.25	227.18
383.62	227.73
384.00	227.55
384.38	227.42
384.76	227.46
385.13	227.54
385.51	227.51
385.89	227.34
386.27	227.20
386.64	227.20
387.02	227.18
387.40	227.00
387.78	226.99
388.15	227.03
388.53	226.98
388.91	226.83
389.29	226.76
389.66	226.75
390.04	226.60
390.42	226.68
390.79	226.71
391.17	226.61
391.55	226.01
391.92	225.99
392.30	226.05
392.68	225.90
393.05	225.89
393.43	225.92
393.81	225.96
394.18	225.94
394.56	226.04
394.94	226.05
395.31	226.09
395.69	226.25
396.06	226.35
396.44	226.48
396.82	226.49
397.19	226.81
397.57	226.86
397.95	226.97
398.32	226.89
398.70	226.99
399.07	227.22
399.45	227.30
399.82	227.39
400.20	227.40
400.58	227.54
400.95	227.42
401.33	227.62
401.70	228.05
402.08	228.23
402.45	228.40
402.83	228.73
403.20	228.97
403.58	228.99
403.95	229.23
404.33	229.42
404.71	229.76
405.08	230.20
405.46	230.44
405.83	230.72
406.21	230.96
406.58	231.27
406.96	231.48
407.33	231.87
407.70	232.26
408.08	233.05
408.45	233.51
408.83	234.04
409.20	234.42
409.58	234.60
409.95	235.05
410.33	235.55
410.70	235.86
411.08	236.41
411.45	237.04
411.82	237.50
412.20	238.28
412.57	239.22
412.95	239.56
413.32	240.51
413.69	241.32
414.07	242.27
414.44	243.28
414.82	244.29
415.19	245.46
415.56	246.64
415.94	247.59
416.31	248.98
416.68	250.34
417.06	251.94
417.43	253.59
417.81	255.38
418.18	257.20
418.55	259.24
418.93	261.19
419.30	263.31
419.67	265.56
420.04	267.83
420.42	270.10
420.79	273.08
421.16	275.80
421.54	278.92
421.91	281.88
422.28	284.85
422.66	288.20
423.03	291.61
423.40	294.95
423.77	298.53
424.15	302.10
424.52	305.88
424.89	310.08
425.26	314.02
425.64	317.77
426.01	321.92
426.38	326.24
426.75	330.81
427.13	335.32
427.50	340.19
427.87	344.97
428.24	349.90
428.61	354.48
428.99	359.72
429.36	365.15
429.73	370.50
430.10	376.20
430.47	381.84
430.85	387.56
431.22	393.70
431.59	400.53
431.96	406.74
432.33	413.68
432.70	420.25
433.08	428.20
433.45	435.61
433.82	442.89
434.19	451.03
434.56	459.05
434.93	466.80
435.30	474.40
435.68	482.98
436.05	491.44
436.42	499.82
436.79	507.55
437.16	515.82
437.53	524.63
437.90	533.13
438.27	541.62
438.64	550.32
439.01	558.65
439.38	565.68
439.75	572.91
440.13	581.01
440.50	588.55
440.87	594.64
441.24	600.96
441.61	607.95
441.98	612.98
442.35	618.77
442.72	624.71
443.09	630.63
443.46	634.19
443.83	636.47
444.20	638.28
444.57	640.87
444.94	641.92
445.31	643.05
445.68	644.45
446.05	644.66
446.42	643.37
446.79	641.96
447.16	640.37
447.53	638.99
447.90	635.17
448.27	631.47
448.64	626.46
449.01	622.83
449.37	616.74
449.74	610.76
450.11	603.88
450.48	596.16
450.85	588.04
451.22	581.11
451.59	574.53
451.96	568.23
452.33	560.09
452.70	552.84
453.07	544.25
453.43	535.18
453.80	526.83
454.17	518.86
454.54	511.22
454.91	503.03
455.28	495.15
455.65	487.85
456.02	481.06
456.38	474.77
456.75	466.99
457.12	460.48
457.49	454.16
457.86	447.90
458.23	442.73
458.59	437.09
458.96	431.35
459.33	426.22
459.70	421.17
460.07	417.26
460.43	412.48
460.80	408.21
461.17	404.50
461.54	400.51
461.91	396.69
462.27	392.70
462.64	389.55
463.01	386.05
463.38	382.64
463.74	378.65
464.11	375.67
464.48	373.13
464.85	370.26
465.21	368.17
465.58	365.86
465.95	363.07
466.32	360.92
466.68	358.69
467.05	356.38
467.42	354.23
467.78	351.88
468.15	349.84
468.52	348.24
468.88	345.98
469.25	344.10
469.62	342.66
469.98	341.12
470.35	339.58
470.72	338.07
471.08	336.42
471.45	335.07
471.82	333.78
472.18	332.33
472.55	331.38
472.92	329.98
473.28	328.82
473.65	327.75
474.02	326.59
474.38	325.78
474.75	325.13
475.11	324.26
475.48	323.59
475.85	322.94
476.21	322.27
476.58	321.83
476.94	321.43
477.31	321.08
477.67	320.69
478.04	320.39
478.41	320.25
478.77	320.47
479.14	320.28
479.50	320.17
479.87	320.23
480.23	320.25
480.60	320.37
480.96	320.47
481.33	320.90
481.69	321.19
482.06	321.45
482.42	321.65
482.79	321.99
483.15	322.43
483.52	323.08
483.88	323.57
484.25	324.15
484.61	324.86
484.98	325.43
485.34	326.28
485.71	327.15
486.07	328.08
486.44	328.82
486.80	329.85
487.17	330.88
487.53	332.26
487.90	333.60
488.26	335.23
488.62	336.94
488.99	338.37
489.35	340.14
489.72	341.85
490.08	343.79
490.44	345.81
490.81	348.15
491.17	350.40
491.54	352.98
491.90	355.63
492.26	358.17
492.63	360.97
492.99	363.88
493.36	366.98
493.72	370.29
494.08	373.66
494.45	377.46
494.81	381.45
495.17	385.32
495.54	389.56
495.90	393.72
496.26	398.09
496.63	402.81
496.99	407.45
497.35	412.50
497.72	417.83
498.08	423.28
498.44	428.84
498.80	434.87
499.17	440.78
499.53	447.00
499.89	453.71
500.26	460.55
500.62	467.32
500.98	474.62
501.34	481.97
501.71	489.59
502.07	497.30
502.43	505.40
502.79	513.65
503.16	522.30
503.52	531.28
503.88	540.64
504.24	550.28
504.60	560.48
504.97	570.78
505.33	581.21
505.69	592.28
506.05	603.36
506.41	614.57
506.78	626.39
507.14	638.53
507.50	650.83
507.86	663.45
508.22	676.61
508.59	689.86
508.95	703.58
509.31	717.80
509.67	732.29
510.03	746.46
510.39	761.12
510.75	776.08
511.12	791.29
511.48	806.60
511.84	822.18
512.20	837.90
512.56	854.17
512.92	871.05
513.28	887.81
513.64	904.94
514.00	922.44
514.37	940.07
514.73	958.02
515.09	976.13
515.45	994.52
515.81	1012.79
516.17	1031.38
516.53	1050.03
516.89	1068.70
517.25	1087.96
517.61	1108.27
517.97	1128.77
518.33	1148.87
518.69	1169.21
519.05	1189.86
519.41	1210.86
519.77	1231.98
520.13	1252.79
520.49	1273.28
520.85	1295.37
521.21	1316.59
521.57	1337.73
521.93	1358.51
522.29	1379.77
522.65	1400.33
523.01	1421.20
523.37	1441.95
523.73	1462.83
524.09	1483.20
524.45	1503.85
524.81	1524.78
525.17	1545.41
525.53	1565.70
525.89	1586.52
526.25	1607.18
526.61	1627.46
526.97	1648.25
527.33	1669.56
527.68	1691.20
528.04	1712.37
528.40	1732.26
528.76	1753.39
529.12	1773.84
529.48	1794.69
529.84	1814.62
530.20	1835.96
530.56	1856.77
530.91	1877.54
531.27	1898.24
531.63	1919.02
531.99	1939.45
532.35	1959.33
532.71	1979.33
533.07	2000.03
533.42	2019.66
533.78	2039.84
534.14	2059.82
534.50	2078.76
534.86	2097.68
535.21	2115.29
535.57	2133.90
535.93	2151.40
536.29	2168.80
536.65	2187.09
537.00	2204.54
537.36	2221.89
537.72	2238.37
538.08	2255.34
538.44	2272.20
538.79	2288.48
539.15	2305.00
539.51	2320.92
539.87	2335.76
540.22	2349.60
540.58	2363.60
540.94	2377.16
541.29	2389.39
541.65	2401.75
542.01	2414.17
542.37	2424.76
542.72	2435.59
543.08	2445.89
543.44	2457.50
543.79	2467.83
544.15	2477.42
544.51	2487.42
544.87	2497.15
545.22	2505.87
545.58	2513.70
545.94	2520.81
546.29	2526.99
546.65	2532.90
547.01	2538.31
547.36	2544.00
547.72	2549.63
548.07	2553.75
548.43	2558.96
548.79	2563.53
549.14	2567.50
549.50	2571.43
549.86	2575.51
550.21	2579.31
550.57	2582.81
550.92	2584.24
551.28	2585.24
551.64	2587.50
551.99	2589.25
552.35	2590.65
552.70	2592.67
553.06	2594.24
553.41	2595.23
553.77	2597.18
554.13	2599.03
554.48	2600.84
554.84	2602.39
555.19	2603.38
555.55	2605.24
555.90	2604.39
556.26	2603.97
556.61	2602.37
556.97	2600.40
557.32	2599.34
557.68	2598.17
558.03	2596.60
558.39	2595.03
558.74	2594.24
559.10	2590.80
559.45	2587.47
559.81	2583.35
560.16	2577.91
560.52	2573.04
560.87	2568.82
561.23	2563.38
561.58	2557.21
561.94	2550.09
562.29	2542.57
562.64	2535.99
563.00	2527.22
563.35	2520.78
563.71	2513.90
564.06	2507.92
564.42	2500.95
564.77	2494.33
565.12	2486.94
565.48	2479.01
565.83	2471.50
566.19	2463.60
566.54	2455.96
566.89	2447.64
567.25	2439.79
567.60	2432.62
567.96	2424.91
568.31	2416.78
568.66	2408.27
569.02	2399.39
569.37	2391.32
569.72	2383.48
570.08	2373.94
570.43	2364.75
570.78	2355.64
571.14	2346.35
571.49	2335.95
571.84	2326.61
572.20	2315.67
572.55	2305.28
572.90	2294.45
573.26	2284.19
573.61	2272.95
573.96	2261.80
574.31	2250.11
574.67	2238.19
575.02	2225.65
575.37	2213.10
575.72	2200.06
576.08	2187.76
576.43	2175.16
576.78	2161.89
577.13	2148.55
577.49	2136.03
577.84	2124.33
578.19	2112.06
578.54	2099.20
578.90	2087.58
579.25	2075.13
579.60	2062.97
579.95	2050.13
580.30	2037.33
580.66	2023.65
581.01	2010.29
581.36	1996.48
581.71	1983.88
582.06	1970.97
582.42	1958.43
582.77	1945.55
583.12	1933.65
583.47	1921.70
583.82	1909.89
584.17	1898.26
584.53	1886.24
584.88	1873.09
585.23	1859.85
585.58	1845.74
585.93	1832.45
586.28	1818.91
586.63	1805.00
586.98	1790.58
587.34	1777.37
587.69	1764.40
588.04	1751.91
588.39	1739.75
588.74	1727.67
589.09	1715.39
589.44	1702.88
589.79	1690.84
590.14	1679.39
590.49	1667.28
590.84	1654.70
591.19	1642.44
591.54	1630.02
591.89	1617.94
592.25	1607.83
592.60	1596.54
592.95	1585.13
593.30	1573.38
593.65	1561.65
594.00	1549.73
594.35	1539.92
594.70	1528.02
595.05	1516.42
595.40	1504.34
595.75	1492.48
596.10	1480.97
596.45	1469.50
596.80	1458.60
597.15	1446.86
597.50	1434.85
597.85	1423.49
598.19	1411.97
598.54	1400.33
598.89	1389.19
599.24	1378.71
599.59	1367.25
599.94	1356.28
600.29	1346.00
600.64	1335.74
600.99	1324.83
601.34	1315.30
601.69	1304.06
602.04	1294.18
602.39	1284.41
602.74	1275.39
603.08	1265.98
603.43	1256.90
603.78	1247.09
604.13	1237.46
604.48	1228.04
604.83	1218.20
605.18	1208.37
605.53	1199.00
605.87	1190.07
606.22	1181.54
606.57	1172.25
606.92	1162.84
607.27	1153.91
607.62	1145.01
607.96	1136.64
608.31	1128.78
608.66	1120.31
609.01	1112.06
609.36	1103.65
609.70	1095.35
610.05	1086.79
610.40	1078.41
610.75	1069.63
611.10	1061.40
611.44	1052.75
611.79	1044.64
612.14	1036.95
612.49	1029.11
612.83	1021.55
613.18	1013.82
613.53	1006.06
613.88	998.09
614.22	990.49
614.57	982.70
614.92	974.96
615.27	967.39
615.61	959.68
615.96	952.03
616.31	944.35
616.65	937.47
617.00	930.09
617.35	922.47
617.70	915.37
618.04	908.37
618.39	901.57
618.74	895.17
619.08	888.35
619.43	881.43
619.78	874.45
620.12	867.49
620.47	860.54
620.82	853.42
621.16	846.80
621.51	840.42
621.85	834.01
622.20	827.50
622.55	820.89
622.89	814.50
623.24	808.15
623.59	801.94
623.93	795.67
624.28	789.57
624.62	784.20
624.97	778.29
625.32	772.35
625.66	766.27
626.01	760.20
626.35	754.66
626.70	749.20
627.04	743.90
627.39	738.33
627.73	733.09
628.08	728.01
628.43	722.42
628.77	716.86
629.12	711.67
629.46	706.85
629.81	702.21
630.15	697.48
630.50	692.83
630.84	688.05
631.19	683.27
631.53	678.63
631.88	673.44
632.22	668.46
632.57	664.12
632.91	659.71
633.26	655.43
633.60	650.90
633.95	646.14
634.29	641.44
634.64	636.99
634.98	632.27
635.32	627.83
635.67	624.08
636.01	619.90
636.36	615.51
636.70	611.42
637.05	607.15
637.39	603.11
637.73	599.00
638.08	594.94
638.42	590.84
638.77	586.57
639.11	582.26
639.45	578.06
639.80	573.75
640.14	569.64
640.49	565.59
640.83	561.70
641.17	558.22
641.52	554.54
641.86	550.97
642.20	547.75
642.55	544.00
642.89	540.23
643.23	536.84
643.58	533.81
643.92	530.26
644.26	526.80
644.61	523.42
644.95	519.91
645.29	516.58
645.64	513.33
645.98	510.27
646.32	507.37
646.66	504.31
647.01	501.25
647.35	498.50
647.69	495.55
648.04	492.65
648.38	489.65
648.72	486.75
649.06	483.79
649.41	480.77
649.75	477.99
650.09	475.15
650.43	472.34
650.78	469.37
651.12	466.44
651.46	463.66
651.80	460.93
652.14	458.44
652.49	455.92
652.83	453.23
653.17	450.64
653.51	447.91
653.85	445.65
654.20	443.18
654.54	440.48
654.88	438.02
655.22	435.91
655.56	433.51
655.90	431.27
656.25	429.04
656.59	426.79
656.93	424.48
657.27	422.41
657.61	420.01
657.95	417.70
658.29	415.60
658.64	413.59
658.98	411.30
659.32	408.94
659.66	406.65
660.00	404.56
660.34	402.52
660.68	400.55
661.02	398.46
661.36	396.57
661.70	394.53
662.05	392.61
662.39	390.56
662.73	388.82
663.07	387.17
663.41	385.25
663.75	383.38
664.09	381.65
664.43	379.73
664.77	378.05
665.11	376.28
665.45	374.58
665.79	372.82
666.13	371.26
666.47	369.70
666.81	368.05
667.15	366.40
667.49	364.86
667.83	363.52
668.17	361.89
668.51	360.38
668.85	359.09
669.19	357.99
669.53	356.41
669.87	354.84
670.21	353.27
670.55	351.90
670.89	350.79
671.23	349.34
671.57	347.94
671.91	346.57
672.25	345.28
672.58	344.00
672.92	342.59
673.26	341.20
673.60	340.00
673.94	338.82
674.28	337.62
674.62	336.48
674.96	335.14
675.30	334.08
675.64	332.98
675.97	331.72
676.31	330.20
676.65	328.99
676.99	327.96
677.33	326.71
677.67	325.75
678.01	324.38
678.34	323.40
678.68	322.51
679.02	321.54
679.36	320.65
679.70	319.65
680.04	318.76
680.37	317.91
680.71	316.85
681.05	315.93
681.39	315.04
681.73	314.04
682.06	313.14
682.40	312.24
682.74	311.38
683.08	310.67
683.42	309.79
683.75	308.97
684.09	308.07
684.43	307.27
684.77	306.35
685.10	305.60
685.44	304.79
685.78	303.90
686.12	303.08
686.45	302.15
686.79	301.37
687.13	300.70
687.46	299.90
687.80	299.29
688.14	298.46
688.48	297.64
688.81	296.95
689.15	296.27
689.49	295.50
689.82	294.75
690.16	293.90
690.50	293.20
690.83	292.51
691.17	291.80
691.51	291.06
691.84	290.40
692.18	289.69
692.52	288.95
692.85	288.37
693.19	287.86
693.52	287.26
693.86	286.52
694.20	285.85
694.53	285.27
694.87	284.55
695.21	284.00
695.54	283.46
695.88	282.72
696.21	281.98
696.55	281.39
696.88	280.74
697.22	280.09
697.56	279.62
697.89	278.99
698.23	278.52
698.56	278.03
698.90	277.59
699.23	277.01
699.57	276.54
699.90	275.93
700.24	275.29
700.58	274.95
700.91	274.56
701.25	274.46
701.58	274.30
701.92	273.99
702.25	273.56
702.59	273.08
702.92	272.66
703.26	272.27
703.59	271.85
703.93	271.80
704.26	271.39
704.60	270.96
704.93	270.49
705.26	269.88
705.60	269.60
705.93	269.05
706.27	268.81
706.60	268.60
706.94	268.42
707.27	268.01
707.61	267.57
707.94	267.23
708.27	266.43
708.61	265.70
708.94	265.23
709.28	264.84
709.61	264.45
709.94	264.19
710.28	263.87
710.61	263.50
710.95	262.77
711.28	262.84
711.61	262.42
711.95	262.24
712.28	261.97
712.61	261.58
712.95	261.53
713.28	261.37
713.61	260.85
713.95	260.37
714.28	260.06
714.61	259.70
714.95	259.36
715.28	258.90
715.61	258.51
715.95	258.21
716.28	257.83
716.61	257.65
716.95	257.26
717.28	256.90
717.61	256.59
717.94	256.27
718.28	255.59
718.61	255.39
718.94	255.04
719.27	254.78
719.61	254.55
719.94	254.20
720.27	253.67
720.60	253.36
720.94	253.06
721.27	252.92
721.60	252.76
721.93	252.48
722.27	252.53
722.60	252.47
722.93	252.24
723.26	252.07
723.59	251.67
723.93	251.52
724.26	251.34
724.59	251.12
724.92	251.05
725.25	250.89
725.59	250.58
725.92	250.44
726.25	250.23
726.58	250.07
726.91	249.72
727.24	249.66
727.57	249.57
727.91	249.37
728.24	249.15
728.57	248.83
728.90	248.72
729.23	248.31
729.56	248.33
729.89	248.15
730.22	247.92
730.55	247.78
730.89	247.52
731.22	247.34
731.55	247.18
731.88	246.99
732.21	246.87
732.54	246.72
732.87	246.45
733.20	246.31
733.53	246.19
733.86	246.13
734.19	245.94
734.52	245.85
734.85	245.97
735.18	245.71
735.51	245.76
735.84	245.56
736.17	245.60
736.50	245.20
736.83	245.65
737.16	245.50
737.49	245.43
737.82	245.30
738.15	245.25
738.48	245.07
738.81	244.81
739.14	244.58
739.47	244.42
739.80	244.33
740.13	244.25
740.46	243.93
740.79	243.66
741.12	243.45
741.45	243.17
741.78	242.79
742.11	242.80
742.44	242.48
742.77	242.40
743.10	242.20
743.43	242.03
743.75	241.37
744.08	241.87
744.41	241.73
744.74	241.56
745.07	241.28
745.40	241.34
745.73	241.42
746.06	241.26
746.39	241.21
746.71	241.10
747.04	240.84
747.37	240.70
747.70	240.80
748.03	240.72
748.36	240.70
748.68	240.52
749.01	240.33
749.34	240.20
749.67	240.14
750.00	240.05
750.33	240.34
750.65	240.24
750.98	239.48
751.31	239.30
751.64	239.23
751.97	239.36
752.29	239.10
752.62	238.80
752.95	238.64
753.28	238.45
753.60	238.24
753.93	238.30
754.26	238.25
754.59	237.89
754.91	237.72
755.24	237.54
755.57	237.54
755.90	237.38
756.22	237.30
756.55	237.10
756.88	236.85
757.20	236.37
757.53	236.10
757.86	236.09
758.19	236.10
758.51	236.02
758.84	235.71
759.17	235.62
759.49	235.62
759.82	235.77
760.15	235.74
760.47	235.67
760.80	235.40
761.13	235.34
761.45	235.30
761.78	235.20
762.11	235.14
762.43	235.00
762.76	234.96
763.08	234.93
763.41	234.92
763.74	234.86
764.06	234.84
764.39	234.79
764.71	234.70
765.04	234.51
765.37	234.47
765.69	234.43
766.02	234.29
766.34	234.08
766.67	233.78
767.00	233.78
767.32	233.95
767.65	234.24
767.97	234.16
768.30	234.16
768.62	234.04
768.95	233.97
769.27	233.94
769.60	233.84
769.92	233.73
770.25	233.51
770.57	233.48
770.90	233.33
771.22	233.20
771.55	233.13
771.87	233.10
772.20	232.94
772.52	233.35
772.85	233.91
773.17	233.87
773.50	233.88
773.82	233.69
774.15	233.36
774.47	232.97
774.80	232.79
775.12	232.71
775.45	232.76
775.77	232.62
776.09	232.52
776.42	232.47
776.74	232.65
777.07	232.59
777.39	232.50
777.72	232.44
778.04	232.41
778.36	232.38
778.69	232.38
779.01	232.37
779.33	231.81
779.66	231.27
779.98	231.23
780.31	231.15
780.63	231.39
780.95	231.50
781.28	231.45
781.60	231.38
781.92	231.30
782.25	231.25
782.57	231.31
782.89	231.27
783.22	231.17
783.54	230.92
783.86	231.03
784.19	230.95
784.51	231.09
784.83	231.02
785.16	230.93
785.48	230.88
785.80	230.82
786.12	230.86
786.45	230.79
786.77	230.79
787.09	230.73
787.42	230.50
787.74	230.45
788.06	230.49
788.38	230.53
788.71	230.46
789.03	230.42
789.35	230.48
789.67	230.38
789.99	230.47
790.32	230.43
790.64	230.38
790.96	230.80
791.28	230.57
791.61	230.58
791.93	230.61
792.25	230.55
792.57	230.83
792.89	230.63
793.21	230.71
793.54	230.66
793.86	230.60
794.18	230.62
794.50	230.52
794.82	230.49
795.14	230.58
795.47	230.62
795.79	230.60
796.11	230.45
796.43	230.40
796.75	230.32
797.07	230.25
797.39	230.22
797.71	229.90
798.04	229.90
798.36	229.95
798.68	229.91
799.00	229.97
799.32	229.77
799.64	229.90
799.96	229.86
800.28	229.91
800.60	229.87
800.92	229.87
801.24	229.88
801.56	229.85
801.89	229.71
802.21	229.82
802.53	229.70
802.85	229.79
803.17	230.10
803.49	230.06
803.81	230.06
804.13	229.92
804.45	229.81
804.77	229.82
805.09	229.77
805.41	229.68
805.73	229.53
806.05	229.35
806.37	229.32
806.69	229.29
807.01	229.26
807.33	229.28
807.65	229.10
807.97	229.35
808.28	229.28
808.60	229.28
808.92	229.09
809.24	229.36
809.56	229.25
809.88	228.99
810.20	228.91
810.52	228.92
810.84	228.90
811.16	228.84
811.48	228.77
811.80	228.95
812.12	228.98
812.43	229.01
812.75	229.08
813.07	229.02
813.39	229.05
813.71	228.91
814.03	228.88
814.35	228.88
814.67	228.55
814.98	228.55
815.30	228.53
815.62	228.41
815.94	228.13
816.26	228.35
816.58	228.20
816.89	228.31
817.21	228.22
817.53	228.23
817.85	228.24
818.17	228.22
818.48	227.95
818.80	227.93
819.12	227.89
819.44	227.73
819.76	227.68
820.07	227.58
820.39	227.57
820.71	227.65
821.03	227.58
821.34	227.57
821.66	227.61
821.98	227.64
822.30	227.70
822.61	227.98
822.93	227.77
823.25	227.80
823.57	227.69
823.88	227.76
824.20	227.76
824.52	227.82
824.83	227.77
825.15	227.72
825.47	227.73
825.79	227.77
826.10	227.80
826.42	227.74
826.74	227.75
827.05	227.79
827.37	227.69
827.69	227.74
828.00	227.87
828.32	227.81
828.64	227.77
828.95	227.97
829.27	227.82
829.58	227.74
829.90	227.85
830.22	227.96
830.53	227.85
830.85	227.82
831.17	227.72
831.48	227.75
831.80	227.80
832.11	227.78
832.43	227.69
832.75	227.71
833.06	228.01
833.38	227.91
833.69	227.85
834.01	227.88
834.32	227.93
834.64	227.79
834.96	227.82
835.27	227.84
835.59	227.77
835.90	227.68
836.22	227.73
836.53	227.58
836.85	227.46
837.16	228.00
837.48	228.03
837.79	228.26
838.11	228.31
838.42	228.31
838.74	228.32
839.05	228.33
839.37	228.35
839.68	228.10
840.00	228.09
840.31	228.25
840.63	228.19
840.94	228.07
841.26	228.03
841.57	227.99
841.88	228.03
842.20	227.91
842.51	227.81
842.83	227.81
843.14	228.30
843.46	228.36
843.77	228.01
844.08	227.97
844.40	227.76
844.71	227.69
845.03	227.67
845.34	227.71
845.65	227.68
845.97	227.68
846.28	227.66
846.60	227.66
846.91	227.49
847.22	227.55
847.54	227.65
847.85	227.70
848.16	227.68
848.48	227.50
848.79	227.74
849.10	227.82
849.42	227.80
849.73	227.30
850.04	227.15
850.36	226.98
850.67	227.04
850.98	227.08
851.30	227.19
851.61	227.14
851.92	227.08
852.23	227.18
852.55	227.14
852.86	227.12
853.17	227.17
853.49	227.30
853.80	227.30
854.11	227.32
854.42	227.35
854.74	227.30
855.05	227.39
855.36	227.09
855.67	227.13
855.99	227.15
856.30	227.75
856.61	227.79
856.92	227.81
857.23	227.72
857.55	227.60
857.86	227.50
858.17	227.61
858.48	227.46
858.79	227.36
859.11	227.40
859.42	227.35
859.73	227.29
860.04	227.26
860.35	227.18
860.66	227.04
860.98	227.03
861.29	227.18
861.60	227.08
861.91	227.18
862.22	227.03
862.53	226.97
862.84	226.35
863.16	226.55
863.47	226.47
863.78	226.51
864.09	226.57
864.40	226.56
864.71	226.52
865.02	226.60
865.33	226.51
865.64	226.47
865.95	226.54
866.27	226.90
866.58	226.77
866.89	226.81
867.20	226.82
867.51	226.72
867.82	226.60
868.13	226.75
868.44	226.68
868.75	226.86
869.06	226.85
869.37	227.00
869.68	226.80
869.99	226.96
870.30	226.96
870.61	226.97
870.92	226.96
871.23	226.97
871.54	227.15
871.85	227.30
872.16	227.33
872.47	227.30
872.78	226.95
873.09	227.07
873.40	227.06
873.71	227.14
874.02	227.20
874.33	227.17
874.64	227.08
874.95	227.17
875.26	227.02
875.56	227.00
875.87	226.95
876.18	226.94
876.49	227.37
876.80	227.38
877.11	227.25
877.42	227.27
877.73	227.25
878.04	227.11
878.35	227.11
878.66	227.13
878.96	227.14
879.27	227.11
879.58	227.01
879.89	226.97
880.20	227.01
880.51	227.02
880.82	227.08
881.12	227.08
881.43	226.87
881.74	226.89
882.05	226.91
882.36	226.87
882.67	226.94
882.97	226.40
883.28	226.38
883.59	226.43
883.90	226.45
884.21	226.53
884.51	226.52
884.82	226.52
885.13	226.52
885.44	226.48
885.74	226.55
886.05	226.56
886.36	226.63
886.67	226.50
886.98	226.71
887.28	226.70
887.59	226.72
887.90	226.85
888.20	226.77
888.51	226.85
888.82	226.88
889.13	226.87
889.43	227.27
889.74	227.29
890.05	227.27
890.35	227.28
890.66	227.14
890.97	227.08
891.28	226.99
891.58	226.97
891.89	226.95
892.20	226.93
892.50	226.88
892.81	226.82
893.12	226.75
893.42	226.59
893.73	226.61
894.04	226.61
894.34	226.62
894.65	226.68
894.95	226.58
895.26	226.46
895.57	226.64
895.87	226.18
896.18	226.19
896.48	226.14
896.79	226.14
897.10	226.22
897.40	226.25
897.71	226.33
898.01	226.33
898.32	226.40
898.63	226.41
898.93	226.47
899.24	226.48
899.54	226.57
899.85	226.51
900.15	226.51
900.46	226.50
900.76	226.51
901.07	226.50
901.38	226.41
901.68	226.50
901.99	226.29
902.29	226.33
902.60	226.28
902.90	226.35
903.21	226.29
903.51	226.34
903.82	226.46
904.12	226.39
904.43	226.40
904.73	226.42
905.03	226.40
905.34	226.85
905.64	226.80
905.95	226.73
906.25	226.71
906.56	226.67
906.86	226.71
907.17	226.65
907.47	226.63
907.77	226.69
908.08	226.61
908.38	226.65
908.69	226.67
908.99	226.75
909.30	226.77
909.60	226.81
909.90	226.72
910.21	226.59
910.51	226.57
910.81	226.62
911.12	226.61
911.42	226.60
911.73	226.14
912.03	226.21
912.33	226.38
912.64	226.32
912.94	226.33
913.24	226.21
913.55	226.19
913.85	226.25
914.15	226.34
914.46	226.45
914.76	226.39
915.06	226.37
915.37	226.35
915.67	226.32
915.97	226.25
916.27	226.20
916.58	226.24
916.88	226.25
917.18	226.14
917.49	226.43
917.79	226.44
918.09	226.48
918.39	226.58
918.70	226.48
919.00	226.47
919.30	226.71
919.60	226.68
919.91	226.65
920.21	226.69
920.51	226.57
920.81	226.50
921.12	226.61
921.42	226.62
921.72	226.61
922.02	226.62
922.32	226.74
922.63	226.76
922.93	227.01
923.23	226.98
923.53	227.01
923.83	226.73
924.13	226.79
924.44	226.80
924.74	226.87
925.04	226.99
925.34	227.04
925.64	226.82
925.94	226.84
926.24	227.08
926.55	226.96
926.85	227.08
927.15	227.08
927.45	227.11
927.75	227.15
928.05	227.16
928.35	227.15
928.65	227.25
928.95	227.34
929.26	227.10
929.56	227.26
929.86	227.25
930.16	227.24
930.46	227.18
930.76	227.17
931.06	226.96
931.36	226.83
931.66	226.85
931.96	226.87
932.26	226.88
932.56	226.67
932.86	226.70
933.16	226.67
933.46	226.60
933.76	226.41
934.06	226.42
934.36	226.59
934.66	226.51
934.96	226.40
935.26	226.37
935.56	226.44
935.86	226.27
936.16	226.20
936.46	226.11
936.76	226.07
937.06	226.00
937.36	225.99
937.66	225.99
937.96	226.03
938.26	225.94
938.56	225.94
938.86	225.96
939.16	226.06
939.46	226.07
939.76	226.15
940.06	226.16
940.35	226.08
940.65	225.82
940.95	225.87
941.25	225.78
941.55	225.67
941.85	225.64
942.15	225.70
942.45	225.82
942.75	225.87
943.04	225.92
943.34	226.01
943.64	225.97
943.94	225.89
944.24	225.85
944.54	225.92
944.84	225.89
945.13	225.89
945.43	225.71
945.73	225.65
946.03	225.60
946.33	225.54
946.62	225.47
946.92	225.45
947.22	225.54
947.52	225.54
947.82	225.60
948.11	225.54
948.41	225.54
948.71	225.47
949.01	225.51
949.31	225.46
949.60	225.39
949.90	225.46
950.20	225.49
950.50	225.51
950.79	225.47
951.09	225.61
951.39	225.62
951.69	225.70
951.98	225.83
952.28	225.84
952.58	225.90
952.87	225.90
953.17	225.99
953.47	225.92
953.76	225.98
954.06	225.92
954.36	225.85
954.66	225.78
954.95	225.85
955.25	225.79
955.55	225.80
955.84	225.78
956.14	225.87
956.44	225.91
956.73	225.82
957.03	225.80
957.32	225.70
957.62	225.68
957.92	225.78
958.21	225.70
958.51	226.26
958.81	226.28
959.10	226.36
959.40	226.45
959.69	226.51
959.99	226.54
960.29	226.60
960.58	226.63
960.88	226.85
961.17	226.85
961.47	226.90
961.76	226.86
962.06	226.89
962.36	226.80
962.65	226.80
962.95	226.87
963.24	226.85
963.54	226.85
963.83	226.88
964.13	226.86
964.42	226.79
964.72	226.41
965.01	226.43
965.31	226.40
965.60	226.28
965.90	226.45
966.19	226.33
966.49	226.29
966.78	226.23
967.08	226.19
967.37	226.14
967.67	226.05
967.96	226.12
968.26	226.15
968.55	226.17
968.85	226.16
969.14	226.12
969.43	226.17
969.73	226.20
970.02	226.21
970.32	226.19
970.61	226.19
970.91	226.05
971.20	226.05
971.49	226.05
971.79	226.11
972.08	225.86
972.38	225.88
972.67	225.94
972.96	225.98
973.26	225.85
973.55	225.94
973.85	225.94
974.14	225.93
974.43	225.98
974.73	225.93
975.02	225.88
975.31	225.90
975.61	225.91
975.90	225.83
976.19	225.82
976.49	225.87
976.78	225.91
977.07	225.87
977.37	225.83
977.66	225.82
977.95	225.78
978.24	225.79
978.54	225.95
978.83	225.87
979.12	225.88
979.42	225.92
979.71	225.89
980.00	225.94
980.29	225.97
980.59	225.81
980.88	225.92
981.17	225.89
981.46	225.87
981.76	225.87
982.05	226.07
982.34	225.97
982.63	225.91
982.93	225.90
983.22	226.07
983.51	226.15
983.80	226.27
984.09	226.35
984.39	226.29
984.68	226.22
984.97	226.28
985.26	226.28
985.55	226.30
985.85	226.20
986.14	226.26
986.43	226.31
986.72	226.35
987.01	226.24
987.30	226.27
987.59	226.30
987.89	226.30
988.18	226.20
988.47	226.30
988.76	226.25
989.05	226.22
989.34	226.15
989.63	226.27
989.92	226.17
990.22	226.10
990.51	226.09
990.80	226.07
991.09	226.09
991.38	226.13
991.67	226.04
991.96	225.99
992.25	226.04
992.54	225.93
992.83	225.99
993.12	225.91
993.41	225.92
993.70	226.10
993.99	226.18
994.28	226.18
994.58	226.19
994.87	226.20
995.16	226.24
995.45	226.22
995.74	226.03
996.03	226.07
996.32	226.14
996.61	226.22
996.90	226.19
997.19	226.23
997.48	226.29
997.77	226.25
998.06	226.31
998.34	226.23
998.63	226.23
998.92	226.26
999.21	226.36
999.50	226.43
999.79	226.24
1000.08	226.13
1000.37	226.10
1000.66	226.02
1000.95	226.11
1001.24	226.10
1001.53	226.16
1001.82	226.18
1002.11	226.09
1002.40	226.17
1002.68	226.38
1002.97	226.73
1003.26	226.61
1003.55	226.47
1003.84	226.56
1004.13	226.66
1004.42	226.58
1004.71	226.60
1004.99	226.57
1005.28	226.66
1005.57	226.61
1005.86	226.53
1006.15	226.59
1006.44	226.55
1006.72	226.68
1007.01	226.57
1007.30	226.48
1007.59	226.41
1007.88	226.37
1008.17	226.46
1008.45	226.31
1008.74	226.06
1009.03	225.86
1009.32	225.91
1009.60	225.98
1009.89	225.93
1010.18	225.79
1010.47	225.80
1010.76	225.82
1011.04	225.81
1011.33	225.85
1011.62	225.88
1011.91	225.99
1012.19	226.02
1012.48	226.02
1012.77	225.95
1013.05	226.20
1013.34	226.27
1013.63	226.30
1013.92	226.34
1014.20	226.25
1014.49	226.30
1014.78	226.30
1015.06	226.10
1015.35	226.02
1015.64	226.04
1015.92	226.11
1016.21	226.20
1016.50	226.22
1016.78	226.18
1017.07	226.17
1017.36	226.07
1017.64	225.98
1017.93	225.99
1018.22	225.96
1018.50	226.03
1018.79	225.97
1019.08	225.74
1019.36	225.75
1019.65	225.70
1019.93	225.84
1020.22	225.99
1020.51	226.20
1020.79	226.19
1021.08	226.25
1021.36	226.50
1021.65	225.10
1021.94	225.75
1022.22	225.60
1022.51	225.65
1022.79	228.55
1023.08	227.65
1023.36	231.65
1023.65	225.20
>>>>>End Processed Spectral Data<<<<<
