SpectraSuite Data File
++++++++++++++++++++++++++++++++++++
Date: Wed Sep 04 17:53:09 EDT 2013
User: lab3
Dark Spectrum Present: Yes
Reference Spectrum Present: No
Number of Sampled Component Spectra: 1
Spectrometers: USB2E7196
Integration Time (usec): 170000 (USB2E7196)
Spectra Averaged: 20 (USB2E7196)
Boxcar Smoothing: 10 (USB2E7196)
Correct for Electrical Dark: No (USB2E7196)
Strobe/Lamp Enabled: No (USB2E7196)
Correct for Detector Non-linearity: No (USB2E7196)
Correct for Stray Light: No (USB2E7196)
Number of Pixels in Processed Spectrum: 2048
>>>>>Begin Processed Spectral Data<<<<<
339.09	0.00
339.48	212.30
339.86	215.15
340.24	217.05
340.63	217.40
341.01	225.00
341.39	221.05
341.78	222.65
342.16	223.65
342.54	223.85
342.93	212.50
343.31	223.17
343.69	223.77
344.07	224.20
344.46	224.64
344.84	225.07
345.22	225.12
345.60	225.45
345.99	225.60
346.37	225.69
346.75	225.74
347.13	225.74
347.52	225.77
347.90	225.96
348.28	225.95
348.66	226.06
349.05	225.98
349.43	226.10
349.81	226.18
350.19	226.20
350.57	226.28
350.96	226.37
351.34	226.48
351.72	226.54
352.10	226.63
352.48	226.61
352.87	226.64
353.25	226.69
353.63	226.62
354.01	226.68
354.39	226.83
354.77	226.94
355.15	227.16
355.54	227.15
355.92	227.11
356.30	227.13
356.68	227.43
357.06	227.47
357.44	227.37
357.82	227.48
358.20	227.92
358.58	227.96
358.97	228.04
359.35	228.20
359.73	228.38
360.11	228.41
360.49	228.59
360.87	228.64
361.25	228.68
361.63	228.95
362.01	229.09
362.39	229.05
362.77	229.12
363.15	229.12
363.53	229.14
363.91	229.18
364.29	229.31
364.67	228.94
365.05	229.04
365.43	229.19
365.81	229.26
366.19	229.14
366.57	229.30
366.95	229.38
367.33	229.33
367.71	229.26
368.09	229.34
368.47	229.31
368.85	229.30
369.23	229.43
369.61	229.19
369.99	229.30
370.37	229.36
370.75	229.56
371.13	229.45
371.51	229.36
371.89	229.37
372.27	229.38
372.65	229.41
373.03	229.40
373.41	229.33
373.78	229.30
374.16	229.01
374.54	228.85
374.92	228.74
375.30	228.66
375.68	228.58
376.06	228.54
376.44	228.44
376.82	228.42
377.19	228.36
377.57	228.29
377.95	228.05
378.33	227.92
378.71	227.58
379.09	227.59
379.47	227.68
379.84	227.61
380.22	227.45
380.60	227.36
380.98	227.22
381.36	227.12
381.73	226.92
382.11	226.97
382.49	226.99
382.87	226.96
383.25	226.90
383.62	227.39
384.00	227.30
384.38	227.25
384.76	227.32
385.13	227.30
385.51	227.34
385.89	227.21
386.27	227.18
386.64	227.29
387.02	227.27
387.40	227.17
387.78	227.21
388.15	227.20
388.53	227.07
388.91	227.06
389.29	227.08
389.66	227.10
390.04	227.05
390.42	227.00
390.79	226.93
391.17	226.93
391.55	226.38
391.92	226.39
392.30	226.41
392.68	226.29
393.05	226.31
393.43	226.26
393.81	226.32
394.18	226.33
394.56	226.27
394.94	226.28
395.31	226.25
395.69	226.37
396.06	226.46
396.44	226.62
396.82	226.58
397.19	226.81
397.57	226.84
397.95	226.87
398.32	226.77
398.70	226.92
399.07	227.08
399.45	227.14
399.82	227.19
400.20	227.23
400.58	227.34
400.95	227.34
401.33	227.57
401.70	228.01
402.08	228.12
402.45	228.25
402.83	228.51
403.20	228.73
403.58	228.80
403.95	229.02
404.33	229.15
404.71	229.36
405.08	229.84
405.46	230.09
405.83	230.44
406.21	230.72
406.58	230.95
406.96	231.20
407.33	231.58
407.70	232.00
408.08	232.76
408.45	233.20
408.83	233.70
409.20	234.11
409.58	234.34
409.95	234.89
410.33	235.35
410.70	235.78
411.08	236.40
411.45	236.95
411.82	237.49
412.20	238.34
412.57	239.36
412.95	239.74
413.32	240.64
413.69	241.43
414.07	242.29
414.44	243.29
414.82	244.34
415.19	245.53
415.56	246.70
415.94	247.61
416.31	249.02
416.68	250.42
417.06	251.93
417.43	253.45
417.81	255.16
418.18	257.04
418.55	258.90
418.93	260.87
419.30	262.94
419.67	265.22
420.04	267.40
420.42	269.68
420.79	272.71
421.16	275.37
421.54	278.38
421.91	281.50
422.28	284.59
422.66	287.75
423.03	291.25
423.40	294.64
423.77	298.23
424.15	301.70
424.52	305.31
424.89	309.46
425.26	313.43
425.64	317.24
426.01	321.43
426.38	325.76
426.75	330.27
427.13	334.92
427.50	339.66
427.87	344.59
428.24	349.51
428.61	353.95
428.99	359.29
429.36	364.71
429.73	370.06
430.10	375.55
430.47	381.23
430.85	386.78
431.22	392.97
431.59	399.76
431.96	406.13
432.33	412.96
432.70	419.71
433.08	427.56
433.45	434.97
433.82	442.36
434.19	450.58
434.56	458.58
434.93	466.04
435.30	473.70
435.68	482.19
436.05	490.56
436.42	499.01
436.79	506.60
437.16	514.99
437.53	523.79
437.90	532.50
438.27	541.06
438.64	550.06
439.01	558.21
439.38	565.43
439.75	572.44
440.13	580.50
440.50	587.81
440.87	593.88
441.24	600.04
441.61	606.95
441.98	612.01
442.35	617.81
442.72	623.93
443.09	629.78
443.46	633.30
443.83	635.54
444.20	637.39
444.57	640.19
444.94	641.18
445.31	642.43
445.68	643.67
446.05	643.91
446.42	642.29
446.79	640.80
447.16	639.09
447.53	637.86
447.90	634.28
448.27	630.75
448.64	625.87
449.01	622.42
449.37	616.26
449.74	610.33
450.11	603.63
450.48	596.00
450.85	587.98
451.22	580.95
451.59	574.43
451.96	568.17
452.33	560.09
452.70	552.73
453.07	544.08
453.43	535.14
453.80	526.70
454.17	518.82
454.54	511.21
454.91	503.11
455.28	495.19
455.65	487.78
456.02	480.94
456.38	474.64
456.75	466.83
457.12	460.27
457.49	454.00
457.86	447.61
458.23	442.47
458.59	436.85
458.96	431.22
459.33	426.05
459.70	420.94
460.07	416.88
460.43	412.32
460.80	408.14
461.17	404.33
461.54	400.35
461.91	396.55
462.27	392.74
462.64	389.45
463.01	385.95
463.38	382.63
463.74	378.73
464.11	375.69
464.48	373.07
464.85	370.27
465.21	368.19
465.58	365.87
465.95	362.96
466.32	360.65
466.68	358.45
467.05	356.24
467.42	354.07
467.78	351.76
468.15	349.59
468.52	347.94
468.88	345.77
469.25	343.79
469.62	342.39
469.98	340.76
470.35	339.22
470.72	337.63
471.08	335.95
471.45	334.56
471.82	333.34
472.18	331.85
472.55	330.86
472.92	329.40
473.28	328.28
473.65	327.25
474.02	326.25
474.38	325.31
474.75	324.70
475.11	323.79
475.48	323.15
475.85	322.54
476.21	321.72
476.58	321.30
476.94	321.04
477.31	320.57
477.67	320.18
478.04	319.96
478.41	319.90
478.77	320.22
479.14	319.98
479.50	319.89
479.87	320.06
480.23	320.15
480.60	320.11
480.96	320.19
481.33	320.55
481.69	320.75
482.06	321.06
482.42	321.25
482.79	321.65
483.15	322.08
483.52	322.80
483.88	323.40
484.25	323.76
484.61	324.48
484.98	325.07
485.34	326.10
485.71	327.01
486.07	327.92
486.44	328.52
486.80	329.66
487.17	330.76
487.53	332.10
487.90	333.47
488.26	335.22
488.62	336.87
488.99	338.39
489.35	340.12
489.72	341.97
490.08	343.94
490.44	346.03
490.81	348.23
491.17	350.38
491.54	352.82
491.90	355.49
492.26	358.06
492.63	360.96
492.99	363.68
493.36	366.70
493.72	369.92
494.08	373.37
494.45	377.06
494.81	380.97
495.17	384.79
495.54	388.83
495.90	392.90
496.26	397.34
496.63	402.01
496.99	406.77
497.35	411.82
497.72	417.08
498.08	422.46
498.44	428.12
498.80	434.17
499.17	440.13
499.53	446.40
499.89	452.97
500.26	459.78
500.62	466.68
500.98	474.06
501.34	481.48
501.71	489.08
502.07	496.82
502.43	504.83
502.79	513.16
503.16	522.01
503.52	531.05
503.88	540.24
504.24	549.80
504.60	559.88
504.97	570.15
505.33	580.66
505.69	591.82
506.05	602.84
506.41	614.01
506.78	625.84
507.14	637.82
507.50	650.18
507.86	662.66
508.22	675.73
508.59	688.72
508.95	702.56
509.31	716.69
509.67	731.03
510.03	745.42
510.39	760.22
510.75	775.15
511.12	790.20
511.48	805.75
511.84	821.47
512.20	837.25
512.56	853.35
512.92	870.16
513.28	886.92
513.64	904.07
514.00	921.43
514.37	938.81
514.73	956.93
515.09	975.10
515.45	993.41
515.81	1011.90
516.17	1030.58
516.53	1049.05
516.89	1067.54
517.25	1086.77
517.61	1106.85
517.97	1126.82
518.33	1146.97
518.69	1167.45
519.05	1188.03
519.41	1208.67
519.77	1229.79
520.13	1250.63
520.49	1271.06
520.85	1293.18
521.21	1314.13
521.57	1335.40
521.93	1356.27
522.29	1377.44
522.65	1398.03
523.01	1419.06
523.37	1439.68
523.73	1460.83
524.09	1481.19
524.45	1502.19
524.81	1522.89
525.17	1543.27
525.53	1563.98
525.89	1584.53
526.25	1605.13
526.61	1625.37
526.97	1646.40
527.33	1667.50
527.68	1689.17
528.04	1710.64
528.40	1730.10
528.76	1751.30
529.12	1771.79
529.48	1792.43
529.84	1812.39
530.20	1833.50
530.56	1854.18
530.91	1875.12
531.27	1895.24
531.63	1915.79
531.99	1935.90
532.35	1956.00
532.71	1976.50
533.07	1997.05
533.42	2016.71
533.78	2036.73
534.14	2056.53
534.50	2075.22
534.86	2094.16
535.21	2111.62
535.57	2129.65
535.93	2147.32
536.29	2164.97
536.65	2182.72
537.00	2200.36
537.36	2217.64
537.72	2233.99
538.08	2251.16
538.44	2267.50
538.79	2284.05
539.15	2300.86
539.51	2316.83
539.87	2331.93
540.22	2345.98
540.58	2360.31
540.94	2373.60
541.29	2386.22
541.65	2398.66
542.01	2411.40
542.37	2422.00
542.72	2432.76
543.08	2443.40
543.44	2454.85
543.79	2464.56
544.15	2474.55
544.51	2484.79
544.87	2494.37
545.22	2503.12
545.58	2510.65
545.94	2517.88
546.29	2524.24
546.65	2529.86
547.01	2535.60
547.36	2541.05
547.72	2546.42
548.07	2549.95
548.43	2555.19
548.79	2559.34
549.14	2563.31
549.50	2566.93
549.86	2570.77
550.21	2574.59
550.57	2577.69
550.92	2579.23
551.28	2580.65
551.64	2582.83
551.99	2584.15
552.35	2585.68
552.70	2587.63
553.06	2589.07
553.41	2590.29
553.77	2591.93
554.13	2593.99
554.48	2595.85
554.84	2596.85
555.19	2597.40
555.55	2599.12
555.90	2598.42
556.26	2597.76
556.61	2596.15
556.97	2594.10
557.32	2593.74
557.68	2592.44
558.03	2590.93
558.39	2589.47
558.74	2588.50
559.10	2585.06
559.45	2581.73
559.81	2577.35
560.16	2572.02
560.52	2567.35
560.87	2562.90
561.23	2557.60
561.58	2551.29
561.94	2543.90
562.29	2536.89
562.64	2530.46
563.00	2522.25
563.35	2515.74
563.71	2509.15
564.06	2503.03
564.42	2496.42
564.77	2489.20
565.12	2481.89
565.48	2474.35
565.83	2466.35
566.19	2458.30
566.54	2450.93
566.89	2443.04
567.25	2435.18
567.60	2428.46
567.96	2420.66
568.31	2412.55
568.66	2403.83
569.02	2394.97
569.37	2386.89
569.72	2379.32
570.08	2369.94
570.43	2360.54
570.78	2351.42
571.14	2342.08
571.49	2331.98
571.84	2322.48
572.20	2311.67
572.55	2301.37
572.90	2290.35
573.26	2280.57
573.61	2269.86
573.96	2258.24
574.31	2246.12
574.67	2234.47
575.02	2221.36
575.37	2208.69
575.72	2195.55
576.08	2183.60
576.43	2171.36
576.78	2158.20
577.13	2144.53
577.49	2131.73
577.84	2120.00
578.19	2107.97
578.54	2095.64
578.90	2083.68
579.25	2071.21
579.60	2059.02
579.95	2046.35
580.30	2033.55
580.66	2019.98
581.01	2006.45
581.36	1992.75
581.71	1980.01
582.06	1967.08
582.42	1954.82
582.77	1942.41
583.12	1930.54
583.47	1917.77
583.82	1905.69
584.17	1893.86
584.53	1882.31
584.88	1869.35
585.23	1856.21
585.58	1841.84
585.93	1828.41
586.28	1814.89
586.63	1801.20
586.98	1786.52
587.34	1773.10
587.69	1759.99
588.04	1747.35
588.39	1734.97
588.74	1723.06
589.09	1710.85
589.44	1698.16
589.79	1686.00
590.14	1673.95
590.49	1661.93
590.84	1650.24
591.19	1638.11
591.54	1625.84
591.89	1613.67
592.25	1603.59
592.60	1592.00
592.95	1580.99
593.30	1568.93
593.65	1557.44
594.00	1545.61
594.35	1536.32
594.70	1524.72
595.05	1513.30
595.40	1501.28
595.75	1489.53
596.10	1478.18
596.45	1467.16
596.80	1456.39
597.15	1445.21
597.50	1433.50
597.85	1422.12
598.19	1410.44
598.54	1399.03
598.89	1388.00
599.24	1377.26
599.59	1365.78
599.94	1355.26
600.29	1344.82
600.64	1334.72
600.99	1323.97
601.34	1314.40
601.69	1303.05
602.04	1293.30
602.39	1283.57
602.74	1274.38
603.08	1265.04
603.43	1255.87
603.78	1246.10
604.13	1236.80
604.48	1227.04
604.83	1217.52
605.18	1207.74
605.53	1198.19
605.87	1188.84
606.22	1180.20
606.57	1170.89
606.92	1161.55
607.27	1152.49
607.62	1143.82
607.96	1135.24
608.31	1127.29
608.66	1118.90
609.01	1110.42
609.36	1101.99
609.70	1093.73
610.05	1085.02
610.40	1076.61
610.75	1067.76
611.10	1059.42
611.44	1050.80
611.79	1042.66
612.14	1034.85
612.49	1027.11
612.83	1019.94
613.18	1012.35
613.53	1004.64
613.88	996.84
614.22	989.32
614.57	981.51
614.92	973.66
615.27	966.21
615.61	958.61
615.96	950.83
616.31	943.50
616.65	936.26
617.00	928.74
617.35	921.69
617.70	914.69
618.04	907.78
618.39	900.77
618.74	894.38
619.08	887.42
619.43	880.60
619.78	873.62
620.12	866.31
620.47	859.34
620.82	852.29
621.16	845.48
621.51	839.06
621.85	832.78
622.20	826.14
622.55	819.57
622.89	813.02
623.24	806.61
623.59	800.33
623.93	794.20
624.28	788.24
624.62	782.51
624.97	776.55
625.32	770.72
625.66	764.90
626.01	758.60
626.35	753.18
626.70	747.41
627.04	742.08
627.39	736.70
627.73	731.60
628.08	726.33
628.43	721.04
628.77	715.45
629.12	710.37
629.46	705.53
629.81	700.69
630.15	695.97
630.50	691.40
630.84	686.53
631.19	681.69
631.53	677.03
631.88	671.93
632.22	667.32
632.57	663.05
632.91	658.38
633.26	654.28
633.60	649.74
633.95	645.26
634.29	640.53
634.64	636.12
634.98	631.31
635.32	626.95
635.67	622.94
636.01	618.98
636.36	614.49
636.70	610.53
637.05	606.47
637.39	602.42
637.73	598.25
638.08	594.16
638.42	590.04
638.77	585.64
639.11	581.43
639.45	577.04
639.80	572.62
640.14	568.62
640.49	564.48
640.83	560.65
641.17	557.04
641.52	553.42
641.86	549.78
642.20	546.58
642.55	542.99
642.89	539.34
643.23	535.67
643.58	532.48
643.92	528.74
644.26	525.30
644.61	521.99
644.95	518.57
645.29	515.33
645.64	512.19
645.98	509.17
646.32	506.28
646.66	503.22
647.01	500.20
647.35	497.42
647.69	494.49
648.04	491.66
648.38	488.79
648.72	485.83
649.06	482.82
649.41	479.80
649.75	476.77
650.09	473.93
650.43	471.10
650.78	468.17
651.12	465.46
651.46	462.75
651.80	460.01
652.14	457.37
652.49	454.87
652.83	452.22
653.17	449.77
653.51	446.99
653.85	444.56
654.20	442.10
654.54	439.55
654.88	437.06
655.22	434.80
655.56	432.36
655.90	430.08
656.25	427.91
656.59	425.74
656.93	423.72
657.27	421.61
657.61	419.25
657.95	417.06
658.29	414.94
658.64	412.91
658.98	410.64
659.32	408.37
659.66	406.05
660.00	403.94
660.34	401.82
660.68	399.87
661.02	397.89
661.36	395.85
661.70	393.80
662.05	391.87
662.39	389.84
662.73	388.09
663.07	386.55
663.41	384.71
663.75	382.74
664.09	380.87
664.43	378.98
664.77	377.41
665.11	375.62
665.45	373.89
665.79	372.16
666.13	370.55
666.47	368.98
666.81	367.36
667.15	365.70
667.49	364.21
667.83	362.91
668.17	361.36
668.51	359.90
668.85	358.66
669.19	357.55
669.53	356.05
669.87	354.47
670.21	352.86
670.55	351.50
670.89	350.41
671.23	349.07
671.57	347.64
671.91	346.25
672.25	345.03
672.58	343.83
672.92	342.40
673.26	341.08
673.60	339.89
673.94	338.84
674.28	337.68
674.62	336.46
674.96	335.10
675.30	333.96
675.64	332.81
675.97	331.51
676.31	330.06
676.65	328.92
676.99	327.89
677.33	326.68
677.67	325.57
678.01	324.25
678.34	323.15
678.68	322.21
679.02	321.16
679.36	320.15
679.70	319.12
680.04	318.16
680.37	317.25
680.71	316.15
681.05	315.21
681.39	314.31
681.73	313.43
682.06	312.52
682.40	311.59
682.74	310.79
683.08	310.08
683.42	309.23
683.75	308.42
684.09	307.49
684.43	306.73
684.77	305.85
685.10	305.07
685.44	304.31
685.78	303.49
686.12	302.74
686.45	301.90
686.79	300.97
687.13	300.29
687.46	299.52
687.80	299.01
688.14	298.16
688.48	297.48
688.81	296.70
689.15	295.99
689.49	295.26
689.82	294.52
690.16	293.65
690.50	293.00
690.83	292.29
691.17	291.55
691.51	290.97
691.84	290.37
692.18	289.67
692.52	289.02
692.85	288.36
693.19	287.97
693.52	287.33
693.86	286.83
694.20	286.17
694.53	285.60
694.87	284.81
695.21	284.13
695.54	283.46
695.88	282.82
696.21	282.16
696.55	281.60
696.88	280.97
697.22	280.37
697.56	279.74
697.89	279.07
698.23	278.63
698.56	277.92
698.90	277.38
699.23	276.83
699.57	276.36
699.90	275.76
700.24	274.98
700.58	274.52
700.91	274.13
701.25	274.00
701.58	273.85
701.92	273.55
702.25	273.18
702.59	272.68
702.92	272.29
703.26	271.96
703.59	271.55
703.93	271.56
704.26	271.26
704.60	270.96
704.93	270.63
705.26	270.12
705.60	269.82
705.93	269.36
706.27	269.05
706.60	268.77
706.94	268.66
707.27	268.30
707.61	268.04
707.94	267.61
708.27	266.94
708.61	266.23
708.94	265.86
709.28	265.53
709.61	265.21
709.94	264.84
710.28	264.49
710.61	264.04
710.95	263.32
711.28	263.30
711.61	262.85
711.95	262.60
712.28	262.24
712.61	261.95
712.95	261.87
713.28	261.75
713.61	261.20
713.95	260.74
714.28	260.39
714.61	259.86
714.95	259.52
715.28	259.08
715.61	258.72
715.95	258.33
716.28	257.93
716.61	257.63
716.95	257.23
717.28	256.81
717.61	256.56
717.94	256.17
718.28	255.49
718.61	255.22
718.94	254.81
719.27	254.52
719.61	254.20
719.94	253.82
720.27	253.33
720.60	253.10
720.94	252.75
721.27	252.59
721.60	252.42
721.93	252.14
722.27	252.11
722.60	251.90
722.93	251.65
723.26	251.55
723.59	251.29
723.93	251.10
724.26	250.91
724.59	250.68
724.92	250.57
725.25	250.44
725.59	250.14
725.92	250.02
726.25	249.81
726.58	249.68
726.91	249.39
727.24	249.30
727.57	249.03
727.91	248.82
728.24	248.56
728.57	248.33
728.90	248.19
729.23	247.82
729.56	247.88
729.89	247.74
730.22	247.45
730.55	247.28
730.89	247.12
731.22	246.99
731.55	246.79
731.88	246.60
732.21	246.37
732.54	246.21
732.87	246.01
733.20	245.90
733.53	245.73
733.86	245.67
734.19	245.38
734.52	245.35
734.85	245.53
735.18	245.40
735.51	245.41
735.84	245.24
736.17	245.27
736.50	244.81
736.83	245.18
737.16	245.07
737.49	244.94
737.82	244.85
738.15	244.74
738.48	244.60
738.81	244.39
739.14	244.24
739.47	244.15
739.80	243.97
740.13	243.81
740.46	243.55
740.79	243.30
741.12	243.17
741.45	242.99
741.78	242.59
742.11	242.55
742.44	242.31
742.77	242.29
743.10	241.98
743.43	241.86
743.75	241.20
744.08	241.68
744.41	241.57
744.74	241.41
745.07	241.14
745.40	241.07
745.73	241.20
746.06	241.08
746.39	241.00
746.71	240.88
747.04	240.75
747.37	240.64
747.70	240.59
748.03	240.58
748.36	240.52
748.68	240.40
749.01	240.13
749.34	240.02
749.67	239.85
750.00	239.89
750.33	240.20
750.65	240.12
750.98	239.33
751.31	239.25
751.64	239.15
751.97	239.31
752.29	239.19
752.62	238.83
752.95	238.68
753.28	238.49
753.60	238.32
753.93	238.39
754.26	238.31
754.59	238.13
754.91	237.93
755.24	237.81
755.57	237.79
755.90	237.63
756.22	237.48
756.55	237.31
756.88	237.01
757.20	236.58
757.53	236.39
757.86	236.34
758.19	236.20
758.51	236.05
758.84	235.75
759.17	235.61
759.49	235.53
759.82	235.64
760.15	235.55
760.47	235.48
760.80	235.19
761.13	235.16
761.45	234.97
761.78	234.89
762.11	234.76
762.43	234.53
762.76	234.54
763.08	234.48
763.41	234.47
763.74	234.45
764.06	234.35
764.39	234.31
764.71	234.24
765.04	234.14
765.37	234.06
765.69	233.98
766.02	233.92
766.34	233.85
766.67	233.65
767.00	233.67
767.32	233.90
767.65	234.10
767.97	234.00
768.30	234.03
768.62	233.91
768.95	233.79
769.27	233.74
769.60	233.78
769.92	233.65
770.25	233.48
770.57	233.31
770.90	233.23
771.22	233.13
771.55	233.03
771.87	232.97
772.20	232.85
772.52	233.20
772.85	233.72
773.17	233.66
773.50	233.58
773.82	233.48
774.15	233.11
774.47	232.77
774.80	232.70
775.12	232.66
775.45	232.63
775.77	232.56
776.09	232.53
776.42	232.39
776.74	232.55
777.07	232.46
777.39	232.50
777.72	232.42
778.04	232.37
778.36	232.25
778.69	232.23
779.01	232.20
779.33	231.72
779.66	231.11
779.98	230.99
780.31	230.90
780.63	231.00
780.95	231.06
781.28	231.05
781.60	230.97
781.92	230.95
782.25	230.85
782.57	230.95
782.89	230.88
783.22	230.82
783.54	230.64
783.86	230.71
784.19	230.65
784.51	230.73
784.83	230.64
785.16	230.66
785.48	230.68
785.80	230.72
786.12	230.75
786.45	230.70
786.77	230.77
787.09	230.70
787.42	230.53
787.74	230.53
788.06	230.45
788.38	230.37
788.71	230.26
789.03	230.29
789.35	230.28
789.67	230.22
789.99	230.17
790.32	230.12
790.64	230.14
790.96	230.50
791.28	230.33
791.61	230.28
791.93	230.36
792.25	230.26
792.57	230.52
792.89	230.44
793.21	230.44
793.54	230.34
793.86	230.39
794.18	230.36
794.50	230.29
794.82	230.28
795.14	230.36
795.47	230.48
795.79	230.47
796.11	230.38
796.43	230.35
796.75	230.36
797.07	230.35
797.39	230.23
797.71	229.91
798.04	229.95
798.36	230.00
798.68	229.85
799.00	229.88
799.32	229.58
799.64	229.64
799.96	229.71
800.28	229.78
800.60	229.71
800.92	229.75
801.24	229.72
801.56	229.73
801.89	229.65
802.21	229.59
802.53	229.45
802.85	229.54
803.17	229.76
803.49	229.69
803.81	229.69
804.13	229.64
804.45	229.50
804.77	229.52
805.09	229.54
805.41	229.56
805.73	229.48
806.05	229.43
806.37	229.37
806.69	229.25
807.01	229.23
807.33	229.29
807.65	229.13
807.97	229.34
808.28	229.29
808.60	229.30
808.92	229.22
809.24	229.55
809.56	229.45
809.88	229.29
810.20	229.29
810.52	229.44
810.84	229.36
811.16	229.35
811.48	229.27
811.80	229.44
812.12	229.35
812.43	229.41
812.75	229.40
813.07	229.29
813.39	229.34
813.71	229.28
814.03	229.21
814.35	229.19
814.67	228.91
814.98	228.88
815.30	228.85
815.62	228.76
815.94	228.42
816.26	228.56
816.58	228.44
816.89	228.49
817.21	228.23
817.53	228.29
817.85	228.37
818.17	228.39
818.48	228.09
818.80	228.18
819.12	228.12
819.44	228.04
819.76	228.00
820.07	227.91
820.39	227.89
820.71	227.90
821.03	227.87
821.34	227.84
821.66	227.89
821.98	227.94
822.30	227.88
822.61	228.19
822.93	227.97
823.25	227.94
823.57	227.85
823.88	228.01
824.20	227.97
824.52	227.90
824.83	227.84
825.15	227.83
825.47	227.77
825.79	227.84
826.10	227.76
826.42	227.77
826.74	227.85
827.05	227.81
827.37	227.76
827.69	227.79
828.00	227.79
828.32	227.72
828.64	227.72
828.95	228.09
829.27	227.97
829.58	227.90
829.90	227.89
830.22	227.98
830.53	227.83
830.85	227.78
831.17	227.80
831.48	227.79
831.80	227.80
832.11	227.74
832.43	227.63
832.75	227.68
833.06	227.93
833.38	227.70
833.69	227.70
834.01	227.67
834.32	227.60
834.64	227.51
834.96	227.49
835.27	227.43
835.59	227.14
835.90	227.03
836.22	227.05
836.53	227.02
836.85	226.94
837.16	227.39
837.48	227.38
837.79	227.43
838.11	227.42
838.42	227.43
838.74	227.52
839.05	227.45
839.37	227.43
839.68	227.12
840.00	227.17
840.31	227.20
840.63	227.21
840.94	227.20
841.26	227.23
841.57	227.23
841.88	227.21
842.20	227.19
842.51	227.09
842.83	227.05
843.14	227.44
843.46	227.37
843.77	227.04
844.08	226.97
844.40	226.85
844.71	226.87
845.03	226.80
845.34	226.75
845.65	226.75
845.97	226.78
846.28	226.81
846.60	226.84
846.91	226.76
847.22	226.75
847.54	226.87
847.85	226.80
848.16	226.77
848.48	226.70
848.79	226.89
849.10	226.96
849.42	227.03
849.73	226.57
850.04	226.60
850.36	226.49
850.67	226.68
850.98	226.65
851.30	226.64
851.61	226.68
851.92	226.65
852.23	226.76
852.55	226.79
852.86	226.82
853.17	226.86
853.49	227.03
853.80	227.10
854.11	227.15
854.42	227.28
854.74	227.29
855.05	227.31
855.36	227.05
855.67	227.06
855.99	227.11
856.30	227.76
856.61	227.72
856.92	227.76
857.23	227.72
857.55	227.69
857.86	227.63
858.17	227.69
858.48	227.71
858.79	227.68
859.11	227.70
859.42	227.68
859.73	227.56
860.04	227.46
860.35	227.33
860.66	227.08
860.98	227.09
861.29	227.15
861.60	227.17
861.91	227.34
862.22	227.26
862.53	227.11
862.84	226.52
863.16	226.67
863.47	226.60
863.78	226.57
864.09	226.59
864.40	226.67
864.71	226.60
865.02	226.64
865.33	226.58
865.64	226.55
865.95	226.56
866.27	226.93
866.58	226.85
866.89	227.00
867.20	227.08
867.51	227.04
867.82	227.01
868.13	227.13
868.44	226.98
868.75	227.09
869.06	227.20
869.37	227.27
869.68	227.17
869.99	227.15
870.30	227.16
870.61	227.26
870.92	227.15
871.23	227.18
871.54	227.25
871.85	227.30
872.16	227.37
872.47	227.29
872.78	227.02
873.09	227.07
873.40	226.90
873.71	226.89
874.02	226.83
874.33	226.74
874.64	226.62
874.95	226.70
875.26	226.63
875.56	226.54
875.87	226.53
876.18	226.49
876.49	227.02
876.80	226.95
877.11	226.85
877.42	226.91
877.73	226.87
878.04	226.71
878.35	226.74
878.66	226.70
878.96	226.67
879.27	226.64
879.58	226.65
879.89	226.62
880.20	226.83
880.51	226.87
880.82	226.83
881.12	226.90
881.43	226.82
881.74	226.74
882.05	226.74
882.36	226.78
882.67	226.85
882.97	226.34
883.28	226.36
883.59	226.33
883.90	226.34
884.21	226.45
884.51	226.45
884.82	226.30
885.13	226.29
885.44	226.34
885.74	226.32
886.05	226.35
886.36	226.42
886.67	226.25
886.98	226.40
887.28	226.51
887.59	226.49
887.90	226.54
888.20	226.51
888.51	226.66
888.82	226.58
889.13	226.56
889.43	226.95
889.74	226.91
890.05	226.98
890.35	226.96
890.66	226.93
890.97	226.81
891.28	226.83
891.58	226.89
891.89	226.86
892.20	226.85
892.50	226.77
892.81	226.72
893.12	226.74
893.42	226.53
893.73	226.59
894.04	226.55
894.34	226.58
894.65	226.59
894.95	226.46
895.26	226.50
895.57	226.72
895.87	226.30
896.18	226.39
896.48	226.43
896.79	226.40
897.10	226.42
897.40	226.61
897.71	226.76
898.01	226.73
898.32	226.79
898.63	226.81
898.93	226.89
899.24	226.88
899.54	226.80
899.85	226.89
900.15	226.85
900.46	226.89
900.76	226.85
901.07	226.85
901.38	226.86
901.68	226.85
901.99	226.64
902.29	226.68
902.60	226.71
902.90	226.61
903.21	226.65
903.51	226.61
903.82	226.63
904.12	226.57
904.43	226.52
904.73	226.52
905.03	226.52
905.34	226.96
905.64	226.99
905.95	226.99
906.25	226.94
906.56	226.92
906.86	226.85
907.17	226.79
907.47	226.85
907.77	226.79
908.08	226.73
908.38	226.75
908.69	226.78
908.99	226.79
909.30	226.83
909.60	226.81
909.90	226.82
910.21	226.74
910.51	226.65
910.81	226.70
911.12	226.75
911.42	226.76
911.73	226.22
912.03	226.28
912.33	226.40
912.64	226.35
912.94	226.35
913.24	226.35
913.55	226.38
913.85	226.32
914.15	226.49
914.46	226.55
914.76	226.43
915.06	226.40
915.37	226.32
915.67	226.32
915.97	226.36
916.27	226.25
916.58	226.25
916.88	226.24
917.18	226.21
917.49	226.43
917.79	226.41
918.09	226.46
918.39	226.54
918.70	226.45
919.00	226.51
919.30	226.68
919.60	226.66
919.91	226.62
920.21	226.65
920.51	226.51
920.81	226.54
921.12	226.69
921.42	226.65
921.72	226.65
922.02	226.67
922.32	226.76
922.63	226.79
922.93	227.05
923.23	227.06
923.53	226.99
923.83	226.73
924.13	226.89
924.44	226.93
924.74	226.99
925.04	227.18
925.34	227.17
925.64	226.98
925.94	227.01
926.24	227.20
926.55	227.20
926.85	227.32
927.15	227.34
927.45	227.32
927.75	227.33
928.05	227.34
928.35	227.26
928.65	227.31
928.95	227.32
929.26	227.11
929.56	227.28
929.86	227.40
930.16	227.33
930.46	227.24
930.76	227.26
931.06	227.06
931.36	226.93
931.66	227.02
931.96	227.14
932.26	227.16
932.56	227.06
932.86	227.10
933.16	227.11
933.46	226.89
933.76	226.72
934.06	226.87
934.36	227.08
934.66	227.06
934.96	226.96
935.26	226.99
935.56	227.09
935.86	226.96
936.16	226.88
936.46	226.87
936.76	226.86
937.06	226.82
937.36	226.82
937.66	226.77
937.96	226.75
938.26	226.59
938.56	226.50
938.86	226.48
939.16	226.58
939.46	226.57
939.76	226.70
940.06	226.82
940.35	226.66
940.65	226.42
940.95	226.45
941.25	226.33
941.55	226.25
941.85	226.20
942.15	226.30
942.45	226.40
942.75	226.40
943.04	226.36
943.34	226.46
943.64	226.40
943.94	226.40
944.24	226.40
944.54	226.46
944.84	226.52
945.13	226.48
945.43	226.38
945.73	226.29
946.03	226.27
946.33	226.13
946.62	226.12
946.92	226.12
947.22	226.23
947.52	226.29
947.82	226.36
948.11	226.29
948.41	226.17
948.71	226.04
949.01	226.11
949.31	226.08
949.60	226.01
949.90	226.13
950.20	226.15
950.50	226.10
950.79	226.06
951.09	226.06
951.39	226.03
951.69	225.98
951.98	226.12
952.28	226.13
952.58	226.24
952.87	226.17
953.17	226.20
953.47	226.07
953.76	226.11
954.06	226.02
954.36	225.93
954.66	225.89
954.95	226.05
955.25	226.07
955.55	226.17
955.84	226.08
956.14	226.09
956.44	226.06
956.73	226.04
957.03	226.05
957.32	226.08
957.62	226.07
957.92	226.14
958.21	226.10
958.51	226.64
958.81	226.66
959.10	226.77
959.40	226.87
959.69	226.90
959.99	226.86
960.29	226.92
960.58	226.90
960.88	227.08
961.17	226.94
961.47	226.98
961.76	226.88
962.06	226.99
962.36	226.92
962.65	226.97
962.95	226.97
963.24	226.93
963.54	226.91
963.83	227.00
964.13	226.99
964.42	226.89
964.72	226.49
965.01	226.50
965.31	226.42
965.60	226.30
965.90	226.64
966.19	226.59
966.49	226.61
966.78	226.64
967.08	226.60
967.37	226.64
967.67	226.53
967.96	226.62
968.26	226.57
968.55	226.63
968.85	226.62
969.14	226.62
969.43	226.69
969.73	226.63
970.02	226.60
970.32	226.54
970.61	226.55
970.91	226.48
971.20	226.45
971.49	226.42
971.79	226.54
972.08	226.18
972.38	226.26
972.67	226.23
972.96	226.27
973.26	226.16
973.55	226.30
973.85	226.27
974.14	226.17
974.43	226.20
974.73	226.13
975.02	226.08
975.31	226.07
975.61	226.01
975.90	226.01
976.19	225.92
976.49	225.93
976.78	225.94
977.07	225.90
977.37	225.88
977.66	225.95
977.95	225.78
978.24	225.80
978.54	225.88
978.83	225.83
979.12	225.78
979.42	225.77
979.71	225.67
980.00	225.64
980.29	225.68
980.59	225.62
980.88	225.70
981.17	225.65
981.46	225.63
981.76	225.63
982.05	225.87
982.34	225.93
982.63	225.92
982.93	225.89
983.22	226.00
983.51	226.00
983.80	226.10
984.09	226.25
984.39	226.17
984.68	226.10
984.97	226.07
985.26	226.03
985.55	226.10
985.85	226.08
986.14	226.13
986.43	226.24
986.72	226.20
987.01	226.12
987.30	226.14
987.59	226.18
987.89	226.20
988.18	225.99
988.47	225.93
988.76	225.95
989.05	225.93
989.34	225.86
989.63	225.96
989.92	225.82
990.22	225.80
990.51	225.81
990.80	225.84
991.09	225.97
991.38	226.07
991.67	225.97
991.96	225.85
992.25	225.91
992.54	225.77
992.83	225.78
993.12	225.77
993.41	225.87
993.70	225.96
993.99	226.03
994.28	226.08
994.58	226.16
994.87	226.07
995.16	226.05
995.45	226.00
995.74	225.80
996.03	225.85
996.32	225.85
996.61	225.96
996.90	225.88
997.19	225.88
997.48	225.87
997.77	225.88
998.06	226.00
998.34	225.90
998.63	225.93
998.92	225.98
999.21	226.01
999.50	225.98
999.79	225.90
1000.08	225.84
1000.37	225.81
1000.66	225.78
1000.95	225.94
1001.24	226.01
1001.53	226.05
1001.82	226.21
1002.11	226.16
1002.40	226.27
1002.68	226.44
1002.97	226.82
1003.26	226.70
1003.55	226.65
1003.84	226.64
1004.13	226.72
1004.42	226.71
1004.71	226.76
1004.99	226.73
1005.28	226.93
1005.57	226.89
1005.86	226.88
1006.15	226.86
1006.44	226.81
1006.72	226.90
1007.01	226.80
1007.30	226.79
1007.59	226.82
1007.88	226.80
1008.17	226.84
1008.45	226.75
1008.74	226.44
1009.03	226.16
1009.32	226.20
1009.60	226.22
1009.89	226.21
1010.18	226.03
1010.47	226.10
1010.76	226.06
1011.04	226.03
1011.33	225.97
1011.62	226.00
1011.91	225.97
1012.19	226.04
1012.48	226.04
1012.77	225.96
1013.05	226.18
1013.34	226.17
1013.63	226.09
1013.92	226.04
1014.20	226.02
1014.49	225.98
1014.78	226.10
1015.06	225.97
1015.35	225.94
1015.64	226.03
1015.92	226.13
1016.21	226.13
1016.50	226.12
1016.78	226.17
1017.07	226.20
1017.36	226.08
1017.64	226.02
1017.93	226.10
1018.22	226.05
1018.50	226.13
1018.79	226.08
1019.08	225.86
1019.36	225.90
1019.65	225.85
1019.93	226.00
1020.22	226.08
1020.51	226.31
1020.79	226.25
1021.08	225.80
1021.36	226.40
1021.65	224.90
1021.94	225.50
1022.22	226.60
1022.51	224.90
1022.79	228.30
1023.08	227.25
1023.36	231.40
1023.65	225.00
>>>>>End Processed Spectral Data<<<<<
