SpectraSuite Data File
++++++++++++++++++++++++++++++++++++
Date: Wed Sep 04 17:39:49 EDT 2013
User: lab3
Dark Spectrum Present: Yes
Reference Spectrum Present: No
Number of Sampled Component Spectra: 1
Spectrometers: USB2E7196
Integration Time (usec): 170000 (USB2E7196)
Spectra Averaged: 20 (USB2E7196)
Boxcar Smoothing: 10 (USB2E7196)
Correct for Electrical Dark: No (USB2E7196)
Strobe/Lamp Enabled: No (USB2E7196)
Correct for Detector Non-linearity: No (USB2E7196)
Correct for Stray Light: No (USB2E7196)
Number of Pixels in Processed Spectrum: 2048
>>>>>Begin Processed Spectral Data<<<<<
339.09	0.00
339.48	212.05
339.86	212.90
340.24	214.65
340.63	217.15
341.01	225.60
341.39	219.85
341.78	221.35
342.16	225.15
342.54	222.95
342.93	212.01
343.31	222.69
343.69	223.23
344.07	223.76
344.46	224.30
344.84	224.67
345.22	224.67
345.60	224.98
345.99	225.18
346.37	225.20
346.75	225.32
347.13	225.37
347.52	225.38
347.90	225.50
348.28	225.49
348.66	225.54
349.05	225.45
349.43	225.63
349.81	225.67
350.19	225.69
350.57	225.72
350.96	225.81
351.34	225.95
351.72	226.08
352.10	226.17
352.48	226.12
352.87	226.16
353.25	226.20
353.63	226.18
354.01	226.17
354.39	226.22
354.77	226.22
355.15	226.41
355.54	226.44
355.92	226.44
356.30	226.60
356.68	227.01
357.06	227.05
357.44	226.93
357.82	226.95
358.20	227.44
358.58	227.54
358.97	227.60
359.35	227.74
359.73	227.82
360.11	227.85
360.49	227.93
360.87	227.97
361.25	228.09
361.63	228.32
362.01	228.45
362.39	228.53
362.77	228.58
363.15	228.59
363.53	228.65
363.91	228.70
364.29	228.60
364.67	228.19
365.05	228.24
365.43	228.33
365.81	228.40
366.19	228.17
366.57	228.33
366.95	228.29
367.33	228.11
367.71	228.16
368.09	228.29
368.47	228.33
368.85	228.35
369.23	228.37
369.61	228.23
369.99	228.40
370.37	228.40
370.75	228.66
371.13	228.52
371.51	228.48
371.89	228.43
372.27	228.46
372.65	228.47
373.03	228.41
373.41	228.29
373.78	228.28
374.16	228.06
374.54	227.91
374.92	227.91
375.30	227.95
375.68	227.83
376.06	227.78
376.44	227.70
376.82	227.69
377.19	227.65
377.57	227.55
377.95	227.32
378.33	227.20
378.71	226.94
379.09	226.97
379.47	226.94
379.84	226.83
380.22	226.69
380.60	226.53
380.98	226.53
381.36	226.49
381.73	226.35
382.11	226.34
382.49	226.27
382.87	226.19
383.25	226.07
383.62	226.50
384.00	226.35
384.38	226.30
384.76	226.34
385.13	226.38
385.51	226.34
385.89	226.17
386.27	226.15
386.64	226.16
387.02	226.08
387.40	225.99
387.78	225.96
388.15	225.98
388.53	225.95
388.91	225.84
389.29	225.80
389.66	225.80
390.04	225.73
390.42	225.72
390.79	225.70
391.17	225.69
391.55	225.20
391.92	225.23
392.30	225.25
392.68	225.06
393.05	225.09
393.43	225.10
393.81	225.22
394.18	225.18
394.56	225.13
394.94	225.23
395.31	225.19
395.69	225.41
396.06	225.53
396.44	225.58
396.82	225.65
397.19	225.91
397.57	225.93
397.95	226.08
398.32	226.08
398.70	226.10
399.07	226.27
399.45	226.35
399.82	226.35
400.20	226.35
400.58	226.53
400.95	226.45
401.33	226.61
401.70	227.01
402.08	227.14
402.45	227.25
402.83	227.50
403.20	227.71
403.58	227.74
403.95	227.95
404.33	228.22
404.71	228.43
405.08	228.86
405.46	229.09
405.83	229.29
406.21	229.50
406.58	229.84
406.96	230.01
407.33	230.24
407.70	230.59
408.08	231.35
408.45	231.71
408.83	232.17
409.20	232.49
409.58	232.58
409.95	233.08
410.33	233.60
410.70	233.84
411.08	234.39
411.45	234.92
411.82	235.31
412.20	235.88
412.57	236.73
412.95	236.92
413.32	237.70
413.69	238.44
414.07	239.21
414.44	239.98
414.82	240.91
415.19	241.91
415.56	242.92
415.94	243.71
416.31	244.90
416.68	246.02
417.06	247.36
417.43	248.71
417.81	250.18
418.18	251.70
418.55	253.33
418.93	255.00
419.30	256.81
419.67	258.75
420.04	260.65
420.42	262.53
420.79	265.24
421.16	267.43
421.54	269.98
421.91	272.44
422.28	275.01
422.66	277.68
423.03	280.61
423.40	283.34
423.77	286.20
424.15	289.15
424.52	292.29
424.89	295.76
425.26	299.05
425.64	302.14
426.01	305.48
426.38	309.05
426.75	312.85
427.13	316.61
427.50	320.59
427.87	324.67
428.24	328.74
428.61	332.38
428.99	336.89
429.36	341.35
429.73	345.92
430.10	350.56
430.47	355.31
430.85	359.91
431.22	365.05
431.59	370.81
431.96	376.05
432.33	381.82
432.70	387.33
433.08	393.90
433.45	400.13
433.82	406.30
434.19	413.23
434.56	419.94
434.93	426.20
435.30	432.54
435.68	439.66
436.05	446.61
436.42	453.39
436.79	459.77
437.16	466.68
437.53	473.84
437.90	481.06
438.27	488.07
438.64	495.50
439.01	502.46
439.38	508.23
439.75	513.91
440.13	520.47
440.50	526.81
440.87	531.79
441.24	537.05
441.61	542.97
441.98	547.24
442.35	551.94
442.72	557.01
443.09	562.00
443.46	564.78
443.83	566.80
444.20	568.65
444.57	570.81
444.94	571.69
445.31	572.81
445.68	574.09
446.05	574.28
446.42	573.10
446.79	571.85
447.16	570.75
447.53	570.01
447.90	567.19
448.27	564.11
448.64	560.09
449.01	557.18
449.37	552.08
449.74	547.00
450.11	541.56
450.48	535.26
450.85	528.67
451.22	523.15
451.59	517.73
451.96	512.53
452.33	506.04
452.70	500.03
453.07	492.72
453.43	485.08
453.80	478.25
454.17	471.80
454.54	465.48
454.91	458.65
455.28	451.90
455.65	445.74
456.02	440.29
456.38	435.12
456.75	428.60
457.12	423.19
457.49	417.99
457.86	412.67
458.23	408.37
458.59	403.57
458.96	398.84
459.33	394.57
459.70	390.37
460.07	386.85
460.43	383.00
460.80	379.60
461.17	376.53
461.54	373.24
461.91	370.07
462.27	367.00
462.64	364.28
463.01	361.42
463.38	358.65
463.74	355.20
464.11	352.70
464.48	350.51
464.85	348.25
465.21	346.65
465.58	344.74
465.95	342.48
466.32	340.64
466.68	338.68
467.05	336.85
467.42	334.97
467.78	333.09
468.15	331.32
468.52	330.14
468.88	328.16
469.25	326.60
469.62	325.49
469.98	324.18
470.35	323.01
470.72	321.92
471.08	320.48
471.45	319.50
471.82	318.58
472.18	317.41
472.55	316.48
472.92	315.35
473.28	314.44
473.65	313.48
474.02	312.66
474.38	312.11
474.75	311.51
475.11	310.89
475.48	310.45
475.85	310.05
476.21	309.42
476.58	309.34
476.94	309.07
477.31	308.61
477.67	308.27
478.04	308.12
478.41	307.93
478.77	308.30
479.14	308.04
479.50	308.04
479.87	308.24
480.23	308.39
480.60	308.43
480.96	308.64
481.33	309.04
481.69	309.24
482.06	309.42
482.42	309.75
482.79	310.15
483.15	310.53
483.52	311.14
483.88	311.66
484.25	312.12
484.61	312.72
484.98	313.46
485.34	314.31
485.71	315.20
486.07	316.12
486.44	316.72
486.80	317.74
487.17	318.74
487.53	320.01
487.90	321.33
488.26	322.85
488.62	324.38
488.99	325.79
489.35	327.53
489.72	329.20
490.08	331.00
490.44	332.87
490.81	334.98
491.17	336.89
491.54	339.14
491.90	341.56
492.26	344.02
492.63	346.51
492.99	349.15
493.36	351.85
493.72	354.92
494.08	358.08
494.45	361.40
494.81	364.93
495.17	368.29
495.54	371.98
495.90	375.75
496.26	379.74
496.63	383.99
496.99	388.20
497.35	392.85
497.72	397.55
498.08	402.37
498.44	407.58
498.80	413.15
499.17	418.69
499.53	424.14
499.89	430.17
500.26	436.22
500.62	442.43
500.98	449.03
501.34	455.49
501.71	462.24
502.07	469.22
502.43	476.38
502.79	483.91
503.16	491.71
503.52	499.70
503.88	507.70
504.24	516.23
504.60	525.07
504.97	533.99
505.33	543.16
505.69	552.92
506.05	562.40
506.41	572.08
506.78	582.18
507.14	592.65
507.50	603.28
507.86	614.22
508.22	625.47
508.59	636.64
508.95	648.50
509.31	660.68
509.67	672.87
510.03	685.09
510.39	697.72
510.75	710.34
511.12	723.19
511.48	736.38
511.84	749.52
512.20	762.68
512.56	776.33
512.92	790.56
513.28	804.56
513.64	818.91
514.00	833.47
514.37	848.18
514.73	863.28
515.09	878.44
515.45	893.45
515.81	908.59
516.17	924.20
516.53	939.32
516.89	954.65
517.25	970.43
517.61	987.01
517.97	1003.22
518.33	1019.57
518.69	1036.06
519.05	1052.83
519.41	1069.42
519.77	1086.54
520.13	1103.02
520.49	1119.34
520.85	1137.13
521.21	1154.01
521.57	1170.77
521.93	1186.91
522.29	1203.65
522.65	1219.47
523.01	1235.87
523.37	1251.89
523.73	1268.00
524.09	1283.94
524.45	1299.75
524.81	1315.55
525.17	1330.90
525.53	1346.60
525.89	1362.25
526.25	1377.79
526.61	1392.90
526.97	1408.60
527.33	1424.65
527.68	1441.17
528.04	1456.90
528.40	1471.04
528.76	1486.60
529.12	1501.63
529.48	1516.90
529.84	1531.17
530.20	1546.77
530.56	1562.15
530.91	1577.22
531.27	1592.05
531.63	1606.85
531.99	1621.55
532.35	1635.82
532.71	1650.28
533.07	1664.88
533.42	1678.92
533.78	1692.78
534.14	1706.76
534.50	1719.94
534.86	1732.66
535.21	1744.45
535.57	1757.05
535.93	1768.99
536.29	1780.81
536.65	1793.12
537.00	1804.93
537.36	1816.81
537.72	1827.47
538.08	1838.57
538.44	1849.31
538.79	1859.62
539.15	1870.24
539.51	1880.65
539.87	1890.54
540.22	1899.05
540.58	1908.11
540.94	1915.97
541.29	1923.45
541.65	1930.61
542.01	1937.90
542.37	1943.76
542.72	1949.51
543.08	1955.23
543.44	1961.84
543.79	1966.87
544.15	1971.57
544.51	1976.71
544.87	1981.10
545.22	1985.14
545.58	1988.10
545.94	1991.09
546.29	1993.55
546.65	1995.81
547.01	1997.33
547.36	1998.64
547.72	2000.43
548.07	2000.35
548.43	2001.76
548.79	2002.46
549.14	2002.94
549.50	2003.35
549.86	2003.57
550.21	2003.99
550.57	2004.01
550.92	2002.50
551.28	2001.08
551.64	2000.30
551.99	1999.10
552.35	1998.07
552.70	1997.18
553.06	1996.52
553.41	1994.78
553.77	1993.80
554.13	1992.34
554.48	1991.05
554.84	1989.66
555.19	1988.02
555.55	1987.02
555.90	1984.38
556.26	1981.76
556.61	1978.39
556.97	1974.50
557.32	1972.14
557.68	1969.01
558.03	1965.73
558.39	1962.46
558.74	1959.63
559.10	1955.27
559.45	1950.96
559.81	1945.52
560.16	1939.69
560.52	1933.72
560.87	1928.92
561.23	1922.89
561.58	1916.90
561.94	1909.94
562.29	1902.81
562.64	1896.03
563.00	1888.12
563.35	1881.56
563.71	1875.15
564.06	1869.24
564.42	1862.90
564.77	1856.07
565.12	1849.41
565.48	1842.66
565.83	1835.65
566.19	1828.51
566.54	1821.45
566.89	1814.24
567.25	1807.57
567.60	1801.30
567.96	1794.83
568.31	1787.55
568.66	1780.24
569.02	1772.67
569.37	1765.79
569.72	1759.36
570.08	1751.68
570.43	1743.91
570.78	1736.37
571.14	1728.99
571.49	1720.47
571.84	1712.44
572.20	1704.15
572.55	1695.80
572.90	1686.78
573.26	1678.38
573.61	1669.41
573.96	1660.70
574.31	1651.28
574.67	1642.04
575.02	1631.99
575.37	1622.04
575.72	1612.03
576.08	1602.81
576.43	1593.14
576.78	1583.21
577.13	1572.79
577.49	1563.21
577.84	1554.51
578.19	1545.35
578.54	1535.61
578.90	1526.62
579.25	1517.65
579.60	1508.07
579.95	1498.47
580.30	1488.58
580.66	1478.69
581.01	1468.85
581.36	1458.58
581.71	1449.19
582.06	1439.82
582.42	1431.08
582.77	1422.05
583.12	1413.59
583.47	1404.36
583.82	1395.70
584.17	1386.78
584.53	1378.47
584.88	1369.07
585.23	1359.43
585.58	1349.19
585.93	1339.44
586.28	1329.95
586.63	1319.89
586.98	1309.90
587.34	1300.28
587.69	1291.14
588.04	1282.46
588.39	1273.96
588.74	1265.50
589.09	1257.00
589.44	1247.96
589.79	1239.14
590.14	1230.59
590.49	1221.80
590.84	1213.40
591.19	1204.70
591.54	1196.22
591.89	1187.32
592.25	1180.15
592.60	1172.11
592.95	1164.04
593.30	1155.84
593.65	1147.52
594.00	1139.20
594.35	1132.57
594.70	1124.66
595.05	1116.70
595.40	1108.30
595.75	1099.90
596.10	1092.07
596.45	1084.12
596.80	1076.38
597.15	1068.42
597.50	1060.29
597.85	1052.74
598.19	1045.05
598.54	1037.14
598.89	1029.41
599.24	1022.19
599.59	1014.09
599.94	1006.70
600.29	999.82
600.64	993.02
600.99	985.80
601.34	979.39
601.69	971.67
602.04	964.94
602.39	958.21
602.74	951.87
603.08	945.71
603.43	939.55
603.78	933.02
604.13	926.67
604.48	920.27
604.83	913.78
605.18	907.01
605.53	900.41
605.87	894.26
606.22	888.47
606.57	882.17
606.92	875.84
607.27	869.76
607.62	863.69
607.96	857.75
608.31	852.34
608.66	846.54
609.01	840.62
609.36	835.03
609.70	829.43
610.05	823.61
610.40	817.78
610.75	811.83
611.10	806.13
611.44	800.41
611.79	795.09
612.14	789.72
612.49	784.35
612.83	779.29
613.18	773.96
613.53	768.77
613.88	763.58
614.22	758.43
614.57	753.15
614.92	747.91
615.27	742.78
615.61	737.51
615.96	732.44
616.31	727.37
616.65	722.51
617.00	717.60
617.35	712.59
617.70	707.69
618.04	702.87
618.39	698.26
618.74	693.99
619.08	689.12
619.43	684.40
619.78	679.64
620.12	674.76
620.47	670.23
620.82	665.19
621.16	660.65
621.51	656.39
621.85	651.96
622.20	647.63
622.55	643.12
622.89	638.70
623.24	634.51
623.59	630.20
623.93	625.69
624.28	621.50
624.62	618.05
624.97	614.16
625.32	610.15
625.66	605.97
626.01	601.75
626.35	598.09
626.70	594.35
627.04	590.82
627.39	587.12
627.73	583.55
628.08	580.30
628.43	576.55
628.77	572.80
629.12	569.44
629.46	566.09
629.81	562.94
630.15	559.80
630.50	556.40
630.84	553.13
631.19	549.97
631.53	546.82
631.88	542.97
632.22	539.80
632.57	536.84
632.91	533.73
633.26	530.67
633.60	527.36
633.95	524.18
634.29	520.88
634.64	517.86
634.98	514.61
635.32	511.63
635.67	508.99
636.01	506.21
636.36	503.20
636.70	500.41
637.05	497.47
637.39	494.75
637.73	491.99
638.08	489.25
638.42	486.39
638.77	483.57
639.11	480.71
639.45	477.65
639.80	474.41
640.14	471.58
640.49	468.89
640.83	466.33
641.17	463.84
641.52	461.39
641.86	458.85
642.20	456.77
642.55	454.16
642.89	451.58
643.23	449.10
643.58	446.93
643.92	444.35
644.26	441.89
644.61	439.57
644.95	437.15
645.29	434.80
645.64	432.57
645.98	430.27
646.32	428.29
646.66	426.21
647.01	424.26
647.35	422.42
647.69	420.40
648.04	418.46
648.38	416.47
648.72	414.44
649.06	412.38
649.41	410.10
649.75	408.06
650.09	406.10
650.43	404.16
650.78	402.17
651.12	400.37
651.46	398.60
651.80	396.68
652.14	394.94
652.49	393.27
652.83	391.69
653.17	390.00
653.51	388.07
653.85	386.50
654.20	384.82
654.54	383.03
654.88	381.27
655.22	379.79
655.56	378.25
655.90	376.70
656.25	375.10
656.59	373.54
656.93	372.10
657.27	370.64
657.61	369.01
657.95	367.39
658.29	365.84
658.64	364.39
658.98	362.80
659.32	361.32
659.66	359.77
660.00	358.30
660.34	356.86
660.68	355.50
661.02	354.10
661.36	352.71
661.70	351.30
662.05	350.00
662.39	348.55
662.73	347.20
663.07	346.05
663.41	344.80
663.75	343.52
664.09	342.26
664.43	340.82
664.77	339.71
665.11	338.52
665.45	337.43
665.79	336.33
666.13	335.21
666.47	333.98
666.81	332.78
667.15	331.45
667.49	330.38
667.83	329.50
668.17	328.38
668.51	327.39
668.85	326.48
669.19	325.72
669.53	324.59
669.87	323.53
670.21	322.49
670.55	321.54
670.89	320.79
671.23	319.81
671.57	318.98
671.91	318.03
672.25	317.11
672.58	316.30
672.92	315.15
673.26	314.27
673.60	313.50
673.94	312.57
674.28	311.93
674.62	311.14
674.96	310.22
675.30	309.41
675.64	308.70
675.97	307.85
676.31	306.74
676.65	305.94
676.99	305.27
677.33	304.39
677.67	303.69
678.01	302.71
678.34	301.97
678.68	301.25
679.02	300.44
679.36	299.76
679.70	298.88
680.04	298.29
680.37	297.58
680.71	296.86
681.05	296.42
681.39	295.80
681.73	295.07
682.06	294.42
682.40	293.80
682.74	293.09
683.08	292.56
683.42	291.93
683.75	291.36
684.09	290.66
684.43	289.98
684.77	289.24
685.10	288.68
685.44	288.06
685.78	287.45
686.12	286.93
686.45	286.38
686.79	285.73
687.13	285.32
687.46	284.77
687.80	284.22
688.14	283.61
688.48	282.91
688.81	282.33
689.15	281.82
689.49	281.21
689.82	280.68
690.16	280.01
690.50	279.51
690.83	278.99
691.17	278.40
691.51	277.88
691.84	277.42
692.18	276.91
692.52	276.35
692.85	275.91
693.19	275.61
693.52	275.11
693.86	274.65
694.20	274.07
694.53	273.71
694.87	273.21
695.21	272.63
695.54	272.28
695.88	271.83
696.21	271.28
696.55	270.88
696.88	270.37
697.22	269.89
697.56	269.57
697.89	269.04
698.23	268.71
698.56	268.38
698.90	268.05
699.23	267.62
699.57	267.29
699.90	266.85
700.24	266.26
700.58	265.93
700.91	265.66
701.25	265.64
701.58	265.51
701.92	265.27
702.25	264.99
702.59	264.61
702.92	264.40
703.26	264.11
703.59	263.74
703.93	263.91
704.26	263.64
704.60	263.25
704.93	262.96
705.26	262.54
705.60	262.23
705.93	261.84
706.27	261.69
706.60	261.52
706.94	261.46
707.27	261.14
707.61	260.79
707.94	260.46
708.27	259.79
708.61	259.14
708.94	258.83
709.28	258.51
709.61	258.10
709.94	257.75
710.28	257.46
710.61	257.24
710.95	256.48
711.28	256.51
711.61	256.24
711.95	256.06
712.28	255.80
712.61	255.51
712.95	255.48
713.28	255.37
713.61	255.00
713.95	254.55
714.28	254.31
714.61	253.97
714.95	253.66
715.28	253.42
715.61	253.15
715.95	252.85
716.28	252.55
716.61	252.42
716.95	252.02
717.28	251.74
717.61	251.40
717.94	251.18
718.28	250.60
718.61	250.31
718.94	249.98
719.27	249.72
719.61	249.57
719.94	249.26
720.27	248.79
720.60	248.66
720.94	248.42
721.27	248.25
721.60	248.18
721.93	247.99
722.27	247.92
722.60	247.82
722.93	247.60
723.26	247.52
723.59	247.24
723.93	247.22
724.26	247.12
724.59	246.96
724.92	246.80
725.25	246.78
725.59	246.61
725.92	246.53
726.25	246.31
726.58	246.12
726.91	245.92
727.24	245.78
727.57	245.59
727.91	245.38
728.24	245.22
728.57	244.98
728.90	244.90
729.23	244.59
729.56	244.65
729.89	244.55
730.22	244.31
730.55	244.20
730.89	243.98
731.22	243.72
731.55	243.60
731.88	243.45
732.21	243.17
732.54	243.04
732.87	242.87
733.20	242.81
733.53	242.63
733.86	242.57
734.19	242.36
734.52	242.25
734.85	242.49
735.18	242.34
735.51	242.41
735.84	242.27
736.17	242.22
736.50	241.75
736.83	242.21
737.16	242.10
737.49	241.91
737.82	241.79
738.15	241.81
738.48	241.64
738.81	241.50
739.14	241.33
739.47	241.18
739.80	240.98
740.13	240.95
740.46	240.77
740.79	240.57
741.12	240.51
741.45	240.33
741.78	239.95
742.11	239.99
742.44	239.76
742.77	239.75
743.10	239.56
743.43	239.43
743.75	238.68
744.08	239.18
744.41	239.03
744.74	238.94
745.07	238.63
745.40	238.61
745.73	238.66
746.06	238.64
746.39	238.67
746.71	238.59
747.04	238.39
747.37	238.28
747.70	238.24
748.03	238.11
748.36	238.09
748.68	237.91
749.01	237.60
749.34	237.43
749.67	237.22
750.00	237.18
750.33	237.50
750.65	237.50
750.98	236.79
751.31	236.75
751.64	236.62
751.97	236.80
752.29	236.61
752.62	236.32
752.95	236.16
753.28	235.90
753.60	235.80
753.93	235.83
754.26	235.87
754.59	235.59
754.91	235.47
755.24	235.30
755.57	235.21
755.90	235.20
756.22	235.04
756.55	234.91
756.88	234.79
757.20	234.39
757.53	234.06
757.86	234.03
758.19	233.98
758.51	233.89
758.84	233.54
759.17	233.49
759.49	233.40
759.82	233.56
760.15	233.55
760.47	233.49
760.80	233.21
761.13	233.12
761.45	233.06
761.78	232.98
762.11	232.91
762.43	232.74
762.76	232.60
763.08	232.68
763.41	232.71
763.74	232.60
764.06	232.43
764.39	232.52
764.71	232.45
765.04	232.34
765.37	232.24
765.69	232.18
766.02	232.08
766.34	232.01
766.67	231.75
767.00	231.83
767.32	232.05
767.65	232.35
767.97	232.27
768.30	232.25
768.62	232.20
768.95	232.11
769.27	232.14
769.60	232.16
769.92	231.97
770.25	231.79
770.57	231.72
770.90	231.71
771.22	231.54
771.55	231.49
771.87	231.48
772.20	231.43
772.52	231.83
772.85	232.43
773.17	232.41
773.50	232.32
773.82	232.18
774.15	231.89
774.47	231.51
774.80	231.39
775.12	231.36
775.45	231.35
775.77	231.33
776.09	231.30
776.42	231.30
776.74	231.46
777.07	231.52
777.39	231.47
777.72	231.41
778.04	231.45
778.36	231.36
778.69	231.37
779.01	231.42
779.33	231.06
779.66	230.42
779.98	230.30
780.31	230.32
780.63	230.44
780.95	230.41
781.28	230.36
781.60	230.35
781.92	230.32
782.25	230.27
782.57	230.28
782.89	230.08
783.22	230.01
783.54	229.80
783.86	229.76
784.19	229.73
784.51	229.87
784.83	229.77
785.16	229.72
785.48	229.60
785.80	229.56
786.12	229.45
786.45	229.47
786.77	229.45
787.09	229.41
787.42	229.24
787.74	229.26
788.06	229.28
788.38	229.20
788.71	229.07
789.03	229.05
789.35	229.07
789.67	229.06
789.99	229.01
790.32	228.92
790.64	228.87
790.96	229.17
791.28	228.93
791.61	228.89
791.93	228.90
792.25	228.93
792.57	229.24
792.89	229.14
793.21	229.13
793.54	229.10
793.86	228.96
794.18	228.90
794.50	228.84
794.82	228.82
795.14	228.85
795.47	228.99
795.79	228.97
796.11	228.74
796.43	228.72
796.75	228.73
797.07	228.76
797.39	228.76
797.71	228.41
798.04	228.44
798.36	228.47
798.68	228.46
799.00	228.45
799.32	228.15
799.64	228.25
799.96	228.22
800.28	228.31
800.60	228.33
800.92	228.43
801.24	228.39
801.56	228.39
801.89	228.35
802.21	228.43
802.53	228.44
802.85	228.66
803.17	228.88
803.49	228.78
803.81	228.74
804.13	228.66
804.45	228.66
804.77	228.78
805.09	228.84
805.41	228.80
805.73	228.68
806.05	228.56
806.37	228.49
806.69	228.40
807.01	228.36
807.33	228.34
807.65	228.12
807.97	228.30
808.28	228.34
808.60	228.36
808.92	228.22
809.24	228.43
809.56	228.33
809.88	228.14
810.20	228.19
810.52	228.29
810.84	228.24
811.16	228.15
811.48	228.05
811.80	228.25
812.12	228.28
812.43	228.40
812.75	228.47
813.07	228.52
813.39	228.59
813.71	228.49
814.03	228.47
814.35	228.49
814.67	228.25
814.98	228.17
815.30	228.10
815.62	228.05
815.94	227.69
816.26	227.89
816.58	227.86
816.89	227.90
817.21	227.80
817.53	227.90
817.85	227.94
818.17	227.95
818.48	227.69
818.80	227.70
819.12	227.57
819.44	227.50
819.76	227.43
820.07	227.40
820.39	227.45
820.71	227.44
821.03	227.47
821.34	227.40
821.66	227.44
821.98	227.52
822.30	227.50
822.61	227.85
822.93	227.53
823.25	227.50
823.57	227.41
823.88	227.47
824.20	227.40
824.52	227.49
824.83	227.46
825.15	227.39
825.47	227.39
825.79	227.44
826.10	227.37
826.42	227.29
826.74	227.30
827.05	227.22
827.37	227.27
827.69	227.22
828.00	227.31
828.32	227.26
828.64	227.16
828.95	227.41
829.27	227.19
829.58	227.25
829.90	227.30
830.22	227.31
830.53	227.15
830.85	227.09
831.17	226.95
831.48	226.97
831.80	226.95
832.11	226.89
832.43	226.78
832.75	226.77
833.06	227.04
833.38	226.94
833.69	226.99
834.01	227.01
834.32	227.05
834.64	226.98
834.96	227.04
835.27	227.07
835.59	226.89
835.90	226.87
836.22	226.85
836.53	226.77
836.85	226.71
837.16	227.25
837.48	227.25
837.79	227.35
838.11	227.38
838.42	227.44
838.74	227.55
839.05	227.58
839.37	227.57
839.68	227.36
840.00	227.39
840.31	227.49
840.63	227.46
840.94	227.35
841.26	227.37
841.57	227.39
841.88	227.42
842.20	227.31
842.51	227.27
842.83	227.24
843.14	227.70
843.46	227.75
843.77	227.45
844.08	227.45
844.40	227.33
844.71	227.26
845.03	227.22
845.34	227.16
845.65	227.11
845.97	227.10
846.28	227.12
846.60	227.11
846.91	227.01
847.22	226.98
847.54	227.15
847.85	227.17
848.16	227.10
848.48	227.03
848.79	227.28
849.10	227.32
849.42	227.41
849.73	226.96
850.04	226.96
850.36	226.80
850.67	226.90
850.98	226.96
851.30	227.01
851.61	227.00
851.92	226.98
852.23	227.15
852.55	227.14
852.86	227.11
853.17	227.23
853.49	227.30
853.80	227.37
854.11	227.41
854.42	227.46
854.74	227.39
855.05	227.37
855.36	227.12
855.67	227.09
855.99	227.08
856.30	227.67
856.61	227.60
856.92	227.63
857.23	227.61
857.55	227.53
857.86	227.45
858.17	227.59
858.48	227.50
858.79	227.37
859.11	227.49
859.42	227.38
859.73	227.28
860.04	227.23
860.35	227.07
860.66	226.93
860.98	226.88
861.29	226.91
861.60	226.93
861.91	226.98
862.22	226.89
862.53	226.75
862.84	226.13
863.16	226.29
863.47	226.20
863.78	226.13
864.09	226.16
864.40	226.23
864.71	226.06
865.02	226.08
865.33	226.06
865.64	225.95
865.95	225.98
866.27	226.22
866.58	226.20
866.89	226.27
867.20	226.23
867.51	226.14
867.82	226.15
868.13	226.22
868.44	226.15
868.75	226.28
869.06	226.31
869.37	226.36
869.68	226.20
869.99	226.20
870.30	226.20
870.61	226.25
870.92	226.15
871.23	226.18
871.54	226.27
871.85	226.37
872.16	226.46
872.47	226.41
872.78	226.12
873.09	226.11
873.40	226.06
873.71	226.11
874.02	226.20
874.33	226.11
874.64	226.05
874.95	226.14
875.26	226.01
875.56	226.03
875.87	226.01
876.18	225.94
876.49	226.44
876.80	226.43
877.11	226.33
877.42	226.39
877.73	226.32
878.04	226.27
878.35	226.25
878.66	226.22
878.96	226.20
879.27	226.26
879.58	226.30
879.89	226.32
880.20	226.36
880.51	226.26
880.82	226.33
881.12	226.35
881.43	226.29
881.74	226.28
882.05	226.23
882.36	226.25
882.67	226.36
882.97	225.90
883.28	225.91
883.59	225.91
883.90	225.88
884.21	225.99
884.51	225.94
884.82	225.91
885.13	225.92
885.44	226.01
885.74	225.97
886.05	225.87
886.36	225.83
886.67	225.71
886.98	225.99
887.28	225.93
887.59	225.94
887.90	225.91
888.20	225.90
888.51	225.99
888.82	225.98
889.13	225.97
889.43	226.36
889.74	226.34
890.05	226.35
890.35	226.35
890.66	226.29
890.97	226.24
891.28	226.16
891.58	226.17
891.89	226.10
892.20	226.08
892.50	226.08
892.81	226.13
893.12	226.17
893.42	225.92
893.73	225.99
894.04	225.96
894.34	226.09
894.65	226.10
894.95	226.12
895.26	226.15
895.57	226.36
895.87	225.95
896.18	226.00
896.48	226.05
896.79	226.06
897.10	226.13
897.40	226.22
897.71	226.30
898.01	226.28
898.32	226.36
898.63	226.36
898.93	226.46
899.24	226.42
899.54	226.35
899.85	226.35
900.15	226.33
900.46	226.31
900.76	226.27
901.07	226.21
901.38	226.16
901.68	226.20
901.99	225.96
902.29	225.91
902.60	225.84
902.90	225.79
903.21	225.75
903.51	225.68
903.82	225.75
904.12	225.74
904.43	225.76
904.73	225.74
905.03	225.75
905.34	226.22
905.64	226.19
905.95	226.25
906.25	226.25
906.56	226.25
906.86	226.25
907.17	226.19
907.47	226.26
907.77	226.21
908.08	226.07
908.38	226.10
908.69	226.26
908.99	226.35
909.30	226.39
909.60	226.40
909.90	226.48
910.21	226.30
910.51	226.24
910.81	226.16
911.12	226.18
911.42	226.16
911.73	225.61
912.03	225.61
912.33	225.75
912.64	225.67
912.94	225.58
913.24	225.53
913.55	225.51
913.85	225.44
914.15	225.50
914.46	225.66
914.76	225.64
915.06	225.54
915.37	225.49
915.67	225.41
915.97	225.41
916.27	225.34
916.58	225.47
916.88	225.41
917.18	225.51
917.49	225.81
917.79	225.84
918.09	225.90
918.39	226.04
918.70	225.93
919.00	225.99
919.30	226.23
919.60	226.29
919.91	226.27
920.21	226.32
920.51	226.27
920.81	226.22
921.12	226.29
921.42	226.30
921.72	226.34
922.02	226.42
922.32	226.46
922.63	226.43
922.93	226.67
923.23	226.66
923.53	226.60
923.83	226.35
924.13	226.40
924.44	226.44
924.74	226.49
925.04	226.60
925.34	226.58
925.64	226.42
925.94	226.36
926.24	226.64
926.55	226.59
926.85	226.69
927.15	226.59
927.45	226.59
927.75	226.55
928.05	226.60
928.35	226.53
928.65	226.62
928.95	226.65
929.26	226.44
929.56	226.59
929.86	226.57
930.16	226.50
930.46	226.39
930.76	226.37
931.06	226.16
931.36	226.04
931.66	226.20
931.96	226.25
932.26	226.24
932.56	226.01
932.86	226.09
933.16	226.06
933.46	226.07
933.76	225.94
934.06	226.02
934.36	226.18
934.66	226.18
934.96	226.07
935.26	226.03
935.56	226.07
935.86	225.84
936.16	225.80
936.46	225.69
936.76	225.71
937.06	225.63
937.36	225.69
937.66	225.72
937.96	225.54
938.26	225.40
938.56	225.44
938.86	225.48
939.16	225.50
939.46	225.47
939.76	225.50
940.06	225.44
940.35	225.36
940.65	225.02
940.95	225.00
941.25	224.89
941.55	224.90
941.85	224.85
942.15	225.00
942.45	225.17
942.75	225.22
943.04	225.23
943.34	225.36
943.64	225.31
943.94	225.26
944.24	225.32
944.54	225.39
944.84	225.34
945.13	225.27
945.43	225.19
945.73	225.18
946.03	225.14
946.33	225.16
946.62	225.10
946.92	225.13
947.22	225.23
947.52	225.29
947.82	225.31
948.11	225.29
948.41	225.18
948.71	224.98
949.01	225.04
949.31	225.02
949.60	224.91
949.90	225.01
950.20	225.00
950.50	225.04
950.79	224.89
951.09	224.97
951.39	224.91
951.69	224.91
951.98	225.03
952.28	225.06
952.58	225.14
952.87	225.15
953.17	225.23
953.47	225.19
953.76	225.17
954.06	225.08
954.36	225.11
954.66	225.15
954.95	225.30
955.25	225.31
955.55	225.36
955.84	225.36
956.14	225.40
956.44	225.38
956.73	225.32
957.03	225.49
957.32	225.50
957.62	225.56
957.92	225.67
958.21	225.65
958.51	226.20
958.81	226.21
959.10	226.33
959.40	226.46
959.69	226.53
959.99	226.67
960.29	226.71
960.58	226.64
960.88	226.76
961.17	226.71
961.47	226.78
961.76	226.78
962.06	226.87
962.36	226.79
962.65	226.87
962.95	226.88
963.24	226.78
963.54	226.77
963.83	226.80
964.13	226.72
964.42	226.60
964.72	226.20
965.01	226.28
965.31	226.26
965.60	226.10
965.90	226.38
966.19	226.21
966.49	226.24
966.78	226.21
967.08	226.21
967.37	226.13
967.67	226.04
967.96	226.07
968.26	226.04
968.55	226.10
968.85	226.02
969.14	225.99
969.43	226.05
969.73	225.97
970.02	225.94
970.32	225.91
970.61	225.89
970.91	225.67
971.20	225.51
971.49	225.40
971.79	225.43
972.08	225.09
972.38	225.08
972.67	225.00
972.96	225.01
973.26	224.90
973.55	225.14
973.85	225.04
974.14	225.03
974.43	225.07
974.73	224.95
975.02	224.98
975.31	224.96
975.61	225.01
975.90	225.00
976.19	224.99
976.49	225.08
976.78	225.16
977.07	225.23
977.37	225.27
977.66	225.37
977.95	225.33
978.24	225.38
978.54	225.59
978.83	225.59
979.12	225.62
979.42	225.64
979.71	225.61
980.00	225.66
980.29	225.67
980.59	225.54
980.88	225.69
981.17	225.63
981.46	225.70
981.76	225.67
982.05	225.88
982.34	225.89
982.63	225.89
982.93	225.83
983.22	225.99
983.51	226.07
983.80	226.10
984.09	226.11
984.39	226.05
984.68	225.99
984.97	226.08
985.26	226.04
985.55	226.10
985.85	225.98
986.14	226.07
986.43	226.09
986.72	226.08
987.01	225.94
987.30	225.95
987.59	225.89
987.89	225.88
988.18	225.68
988.47	225.60
988.76	225.54
989.05	225.55
989.34	225.42
989.63	225.51
989.92	225.45
990.22	225.43
990.51	225.42
990.80	225.30
991.09	225.33
991.38	225.42
991.67	225.33
991.96	225.28
992.25	225.31
992.54	225.25
992.83	225.27
993.12	225.25
993.41	225.31
993.70	225.54
993.99	225.63
994.28	225.76
994.58	225.87
994.87	225.80
995.16	225.77
995.45	225.74
995.74	225.51
996.03	225.59
996.32	225.71
996.61	225.84
996.90	225.85
997.19	225.80
997.48	225.78
997.77	225.74
998.06	225.73
998.34	225.65
998.63	225.59
998.92	225.60
999.21	225.77
999.50	225.81
999.79	225.65
1000.08	225.61
1000.37	225.54
1000.66	225.47
1000.95	225.61
1001.24	225.68
1001.53	225.73
1001.82	225.77
1002.11	225.66
1002.40	225.66
1002.68	225.74
1002.97	226.09
1003.26	226.10
1003.55	226.06
1003.84	226.10
1004.13	226.23
1004.42	226.22
1004.71	226.24
1004.99	226.20
1005.28	226.23
1005.57	226.18
1005.86	226.11
1006.15	226.08
1006.44	226.06
1006.72	226.10
1007.01	226.10
1007.30	226.05
1007.59	226.02
1007.88	226.00
1008.17	226.05
1008.45	225.91
1008.74	225.69
1009.03	225.46
1009.32	225.38
1009.60	225.37
1009.89	225.32
1010.18	225.22
1010.47	225.17
1010.76	225.18
1011.04	225.19
1011.33	225.26
1011.62	225.29
1011.91	225.34
1012.19	225.31
1012.48	225.26
1012.77	225.30
1013.05	225.47
1013.34	225.48
1013.63	225.44
1013.92	225.49
1014.20	225.42
1014.49	225.44
1014.78	225.54
1015.06	225.33
1015.35	225.34
1015.64	225.40
1015.92	225.49
1016.21	225.46
1016.50	225.49
1016.78	225.58
1017.07	225.64
1017.36	225.41
1017.64	225.36
1017.93	225.36
1018.22	225.30
1018.50	225.38
1018.79	225.34
1019.08	225.05
1019.36	225.03
1019.65	224.96
1019.93	225.09
1020.22	225.14
1020.51	225.40
1020.79	225.36
1021.08	223.65
1021.36	225.85
1021.65	225.65
1021.94	224.20
1022.22	224.95
1022.51	223.60
1022.79	227.45
1023.08	225.20
1023.36	230.85
1023.65	225.40
>>>>>End Processed Spectral Data<<<<<
