SpectraSuite Data File
++++++++++++++++++++++++++++++++++++
Date: Wed Sep 04 18:04:07 EDT 2013
User: lab3
Dark Spectrum Present: Yes
Reference Spectrum Present: No
Number of Sampled Component Spectra: 1
Spectrometers: USB2E7196
Integration Time (usec): 170000 (USB2E7196)
Spectra Averaged: 20 (USB2E7196)
Boxcar Smoothing: 10 (USB2E7196)
Correct for Electrical Dark: No (USB2E7196)
Strobe/Lamp Enabled: No (USB2E7196)
Correct for Detector Non-linearity: No (USB2E7196)
Correct for Stray Light: No (USB2E7196)
Number of Pixels in Processed Spectrum: 2048
>>>>>Begin Processed Spectral Data<<<<<
339.09	0.00
339.48	214.10
339.86	215.15
340.24	216.80
340.63	218.20
341.01	225.40
341.39	221.45
341.78	222.05
342.16	224.45
342.54	223.65
342.93	212.72
343.31	223.38
343.69	223.89
344.07	224.33
344.46	224.84
344.84	225.25
345.22	225.27
345.60	225.53
345.99	225.70
346.37	225.82
346.75	225.94
347.13	225.99
347.52	226.06
347.90	226.25
348.28	226.26
348.66	226.37
349.05	226.31
349.43	226.37
349.81	226.42
350.19	226.48
350.57	226.52
350.96	226.63
351.34	226.78
351.72	226.87
352.10	226.99
352.48	226.90
352.87	226.92
353.25	226.99
353.63	227.04
354.01	227.13
354.39	227.12
354.77	227.15
355.15	227.39
355.54	227.42
355.92	227.26
356.30	227.41
356.68	227.78
357.06	227.81
357.44	227.84
357.82	227.82
358.20	228.25
358.58	228.29
358.97	228.32
359.35	228.47
359.73	228.62
360.11	228.64
360.49	228.82
360.87	228.95
361.25	229.00
361.63	229.15
362.01	229.23
362.39	229.31
362.77	229.51
363.15	229.51
363.53	229.53
363.91	229.69
364.29	229.62
364.67	229.20
365.05	229.25
365.43	229.34
365.81	229.46
366.19	229.40
366.57	229.62
366.95	229.68
367.33	229.67
367.71	229.71
368.09	229.86
368.47	229.84
368.85	229.76
369.23	229.88
369.61	229.75
369.99	229.85
370.37	229.94
370.75	230.05
371.13	229.94
371.51	229.91
371.89	229.85
372.27	229.84
372.65	229.87
373.03	229.89
373.41	229.82
373.78	229.74
374.16	229.40
374.54	229.22
374.92	229.21
375.30	229.08
375.68	228.94
376.06	228.90
376.44	228.80
376.82	228.76
377.19	228.69
377.57	228.59
377.95	228.35
378.33	228.25
378.71	227.88
379.09	227.90
379.47	227.89
379.84	227.78
380.22	227.73
380.60	227.63
380.98	227.49
381.36	227.40
381.73	227.32
382.11	227.34
382.49	227.32
382.87	227.18
383.25	227.19
383.62	227.65
384.00	227.46
384.38	227.48
384.76	227.47
385.13	227.62
385.51	227.61
385.89	227.52
386.27	227.45
386.64	227.49
387.02	227.33
387.40	227.21
387.78	227.18
388.15	227.17
388.53	227.05
388.91	227.05
389.29	226.96
389.66	227.01
390.04	227.01
390.42	227.09
390.79	227.08
391.17	226.94
391.55	226.37
391.92	226.44
392.30	226.39
392.68	226.37
393.05	226.27
393.43	226.26
393.81	226.35
394.18	226.30
394.56	226.34
394.94	226.52
395.31	226.57
395.69	226.83
396.06	226.94
396.44	227.10
396.82	227.07
397.19	227.43
397.57	227.40
397.95	227.45
398.32	227.34
398.70	227.40
399.07	227.72
399.45	227.89
399.82	227.92
400.20	228.07
400.58	228.13
400.95	227.99
401.33	228.22
401.70	228.71
402.08	228.87
402.45	229.05
402.83	229.33
403.20	229.44
403.58	229.50
403.95	229.68
404.33	229.87
404.71	230.13
405.08	230.52
405.46	230.74
405.83	231.03
406.21	231.34
406.58	231.70
406.96	231.92
407.33	232.22
407.70	232.63
408.08	233.30
408.45	233.80
408.83	234.38
409.20	234.77
409.58	234.93
409.95	235.45
410.33	235.97
410.70	236.33
411.08	237.03
411.45	237.67
411.82	238.31
412.20	239.16
412.57	240.20
412.95	240.56
413.32	241.53
413.69	242.36
414.07	243.25
414.44	244.25
414.82	245.30
415.19	246.46
415.56	247.61
415.94	248.70
416.31	250.11
416.68	251.55
417.06	253.26
417.43	254.87
417.81	256.64
418.18	258.44
418.55	260.44
418.93	262.47
419.30	264.56
419.67	266.75
420.04	269.01
420.42	271.40
420.79	274.61
421.16	277.31
421.54	280.38
421.91	283.43
422.28	286.51
422.66	289.84
423.03	293.37
423.40	296.77
423.77	300.32
424.15	303.94
424.52	307.72
424.89	311.88
425.26	315.81
425.64	319.66
426.01	323.90
426.38	328.29
426.75	332.96
427.13	337.64
427.50	342.40
427.87	347.33
428.24	352.19
428.61	356.59
428.99	361.98
429.36	367.39
429.73	372.83
430.10	378.31
430.47	383.87
430.85	389.47
431.22	395.75
431.59	402.48
431.96	408.65
432.33	415.59
432.70	422.20
433.08	430.14
433.45	437.55
433.82	444.88
434.19	453.10
434.56	461.20
434.93	468.85
435.30	476.75
435.68	485.29
436.05	493.73
436.42	502.08
436.79	509.74
437.16	518.21
437.53	527.12
437.90	535.82
438.27	544.50
438.64	553.47
439.01	561.78
439.38	569.06
439.75	576.35
440.13	584.45
440.50	592.15
440.87	598.25
441.24	604.66
441.61	611.72
441.98	616.91
442.35	622.57
442.72	628.60
443.09	634.41
443.46	637.92
443.83	640.21
444.20	642.19
444.57	644.94
444.94	645.88
445.31	646.92
445.68	648.42
446.05	648.66
446.42	647.48
446.79	646.03
447.16	644.35
447.53	643.03
447.90	639.15
448.27	635.26
448.64	630.36
449.01	626.61
449.37	620.35
449.74	614.10
450.11	607.34
450.48	599.50
450.85	591.36
451.22	584.43
451.59	577.86
451.96	571.67
452.33	563.57
452.70	556.24
453.07	547.59
453.43	538.42
453.80	530.06
454.17	521.86
454.54	514.05
454.91	505.85
455.28	497.86
455.65	490.44
456.02	483.65
456.38	477.29
456.75	469.58
457.12	463.09
457.49	456.86
457.86	450.43
458.23	445.30
458.59	439.60
458.96	433.82
459.33	428.64
459.70	423.35
460.07	419.14
460.43	414.39
460.80	410.11
461.17	406.31
461.54	402.20
461.91	398.38
462.27	394.54
462.64	391.18
463.01	387.55
463.38	384.34
463.74	380.32
464.11	377.21
464.48	374.61
464.85	371.79
465.21	369.66
465.58	367.24
465.95	364.35
466.32	362.13
466.68	359.88
467.05	357.68
467.42	355.50
467.78	353.19
468.15	351.12
468.52	349.53
468.88	347.33
469.25	345.44
469.62	343.97
469.98	342.36
470.35	340.87
470.72	339.45
471.08	337.66
471.45	336.45
471.82	335.32
472.18	333.74
472.55	332.63
472.92	331.23
473.28	330.11
473.65	329.06
474.02	327.96
474.38	327.06
474.75	326.27
475.11	325.33
475.48	324.71
475.85	324.14
476.21	323.44
476.58	322.89
476.94	322.40
477.31	321.83
477.67	321.35
478.04	321.07
478.41	320.87
478.77	321.19
479.14	320.76
479.50	320.60
479.87	320.62
480.23	320.69
480.60	320.61
480.96	320.73
481.33	321.11
481.69	321.36
482.06	321.61
482.42	321.91
482.79	322.32
483.15	322.79
483.52	323.41
483.88	323.88
484.25	324.41
484.61	325.05
484.98	325.75
485.34	326.79
485.71	327.70
486.07	328.60
486.44	329.18
486.80	330.40
487.17	331.47
487.53	332.83
487.90	334.18
488.26	335.91
488.62	337.63
488.99	339.03
489.35	340.71
489.72	342.61
490.08	344.62
490.44	346.63
490.81	348.82
491.17	350.92
491.54	353.39
491.90	356.05
492.26	358.81
492.63	361.67
492.99	364.40
493.36	367.51
493.72	370.89
494.08	374.40
494.45	378.10
494.81	382.07
495.17	386.09
495.54	390.31
495.90	394.51
496.26	398.86
496.63	403.67
496.99	408.59
497.35	413.75
497.72	418.94
498.08	424.47
498.44	430.21
498.80	436.39
499.17	442.55
499.53	448.82
499.89	455.38
500.26	462.19
500.62	469.28
500.98	476.77
501.34	484.25
501.71	491.88
502.07	499.60
502.43	507.70
502.79	516.05
503.16	524.82
503.52	533.75
503.88	543.11
504.24	552.78
504.60	562.78
504.97	572.99
505.33	583.45
505.69	594.55
506.05	605.54
506.41	616.65
506.78	628.33
507.14	640.29
507.50	652.67
507.86	665.44
508.22	678.48
508.59	691.49
508.95	705.23
509.31	719.56
509.67	733.92
510.03	748.19
510.39	762.99
510.75	777.95
511.12	793.31
511.48	809.13
511.84	824.84
512.20	840.74
512.56	857.07
512.92	874.13
513.28	890.93
513.64	908.40
514.00	926.10
514.37	943.77
514.73	962.23
515.09	980.62
515.45	999.03
515.81	1017.64
516.17	1036.29
516.53	1054.84
516.89	1073.66
517.25	1093.25
517.61	1113.74
517.97	1134.05
518.33	1154.20
518.69	1174.59
519.05	1194.85
519.41	1215.71
519.77	1237.02
520.13	1257.81
520.49	1278.41
520.85	1300.77
521.21	1321.89
521.57	1343.34
521.93	1364.46
522.29	1385.51
522.65	1406.32
523.01	1427.42
523.37	1448.09
523.73	1469.47
524.09	1490.33
524.45	1510.91
524.81	1531.68
525.17	1552.13
525.53	1572.75
525.89	1593.68
526.25	1614.56
526.61	1635.08
526.97	1656.28
527.33	1677.65
527.68	1699.59
528.04	1720.70
528.40	1740.45
528.76	1761.33
529.12	1781.69
529.48	1802.53
529.84	1822.32
530.20	1843.63
530.56	1864.45
530.91	1885.62
531.27	1906.24
531.63	1927.02
531.99	1947.90
532.35	1968.39
532.71	1988.69
533.07	2009.48
533.42	2029.64
533.78	2049.83
534.14	2070.01
534.50	2089.04
534.86	2108.02
535.21	2125.86
535.57	2144.80
535.93	2162.92
536.29	2180.96
536.65	2199.16
537.00	2216.80
537.36	2234.97
537.72	2251.70
538.08	2269.26
538.44	2285.89
538.79	2302.36
539.15	2319.09
539.51	2334.93
539.87	2349.84
540.22	2364.03
540.58	2378.35
540.94	2392.20
541.29	2404.81
541.65	2417.43
542.01	2430.09
542.37	2440.78
542.72	2451.91
543.08	2462.69
543.44	2474.32
543.79	2484.42
544.15	2494.41
544.51	2504.62
544.87	2514.39
545.22	2522.92
545.58	2530.32
545.94	2537.76
546.29	2544.79
546.65	2550.93
547.01	2556.74
547.36	2562.87
547.72	2568.68
548.07	2572.94
548.43	2578.14
548.79	2583.05
549.14	2587.23
549.50	2591.32
549.86	2595.90
550.21	2599.69
550.57	2603.10
550.92	2604.82
551.28	2606.37
551.64	2608.41
551.99	2610.60
552.35	2612.51
552.70	2614.59
553.06	2616.37
553.41	2617.75
553.77	2619.39
554.13	2621.27
554.48	2623.18
554.84	2624.60
555.19	2625.81
555.55	2627.34
555.90	2626.16
556.26	2625.68
556.61	2624.38
556.97	2622.25
557.32	2621.51
557.68	2620.07
558.03	2618.70
558.39	2617.39
558.74	2616.80
559.10	2614.13
559.45	2610.60
559.81	2606.15
560.16	2601.49
560.52	2596.94
560.87	2592.63
561.23	2586.71
561.58	2580.48
561.94	2573.55
562.29	2565.95
562.64	2558.84
563.00	2550.75
563.35	2544.76
563.71	2537.98
564.06	2531.78
564.42	2525.20
564.77	2518.24
565.12	2510.85
565.48	2502.98
565.83	2495.38
566.19	2487.09
566.54	2479.50
566.89	2471.17
567.25	2463.64
567.60	2456.18
567.96	2448.54
568.31	2440.19
568.66	2431.88
569.02	2423.09
569.37	2414.89
569.72	2407.49
570.08	2398.47
570.43	2388.92
570.78	2379.65
571.14	2369.88
571.49	2359.98
571.84	2350.53
572.20	2339.20
572.55	2329.20
572.90	2318.35
573.26	2307.62
573.61	2296.48
573.96	2285.11
574.31	2273.15
574.67	2261.17
575.02	2248.76
575.37	2236.11
575.72	2222.89
576.08	2210.67
576.43	2198.21
576.78	2185.07
577.13	2170.99
577.49	2158.15
577.84	2146.25
578.19	2133.85
578.54	2121.79
578.90	2109.28
579.25	2096.80
579.60	2084.75
579.95	2071.63
580.30	2058.43
580.66	2044.62
581.01	2031.13
581.36	2017.11
581.71	2004.50
582.06	1991.37
582.42	1978.45
582.77	1965.64
583.12	1953.90
583.47	1941.51
583.82	1929.24
584.17	1917.29
584.53	1905.72
584.88	1892.96
585.23	1879.75
585.58	1865.51
585.93	1851.82
586.28	1838.51
586.63	1824.20
586.98	1810.06
587.34	1796.74
587.69	1783.46
588.04	1771.15
588.39	1758.96
588.74	1746.67
589.09	1734.39
589.44	1721.40
589.79	1709.38
590.14	1697.25
590.49	1684.95
590.84	1672.62
591.19	1660.61
591.54	1648.09
591.89	1635.67
592.25	1625.15
592.60	1613.73
592.95	1602.51
593.30	1590.52
593.65	1578.80
594.00	1567.00
594.35	1556.94
594.70	1545.26
595.05	1533.85
595.40	1521.48
595.75	1509.32
596.10	1498.23
596.45	1486.72
596.80	1475.98
597.15	1464.51
597.50	1452.60
597.85	1441.04
598.19	1429.42
598.54	1417.53
598.89	1406.36
599.24	1395.83
599.59	1383.95
599.94	1372.91
600.29	1362.06
600.64	1351.63
600.99	1340.53
601.34	1330.96
601.69	1319.61
602.04	1309.64
602.39	1299.82
602.74	1290.63
603.08	1281.43
603.43	1271.80
603.78	1262.09
604.13	1252.52
604.48	1242.62
604.83	1232.98
605.18	1223.38
605.53	1213.76
605.87	1204.55
606.22	1195.83
606.57	1186.34
606.92	1176.91
607.27	1168.07
607.62	1159.27
607.96	1150.50
608.31	1142.61
608.66	1134.18
609.01	1125.58
609.36	1116.84
609.70	1108.22
610.05	1099.54
610.40	1090.81
610.75	1082.02
611.10	1073.29
611.44	1064.23
611.79	1056.09
612.14	1048.07
612.49	1039.94
612.83	1032.65
613.18	1024.83
613.53	1016.89
613.88	1008.87
614.22	1001.35
614.57	993.23
614.92	985.38
615.27	977.91
615.61	969.96
615.96	962.09
616.31	954.51
616.65	947.36
617.00	939.88
617.35	932.44
617.70	925.42
618.04	918.30
618.39	911.52
618.74	905.32
619.08	898.28
619.43	891.11
619.78	884.11
620.12	876.69
620.47	869.82
620.82	862.59
621.16	855.81
621.51	849.26
621.85	842.91
622.20	836.27
622.55	829.53
622.89	823.21
623.24	816.77
623.59	810.30
623.93	803.92
624.28	797.72
624.62	792.05
624.97	785.91
625.32	780.14
625.66	774.06
626.01	767.68
626.35	762.10
626.70	756.62
627.04	751.32
627.39	745.55
627.73	740.22
628.08	735.12
628.43	729.56
628.77	723.97
629.12	718.56
629.46	713.58
629.81	708.77
630.15	703.64
630.50	698.81
630.84	694.01
631.19	689.15
631.53	684.60
631.88	679.31
632.22	674.47
632.57	669.78
632.91	665.06
633.26	660.65
633.60	655.78
633.95	650.99
634.29	646.00
634.64	641.69
634.98	636.93
635.32	632.32
635.67	628.22
636.01	623.96
636.36	619.65
636.70	615.75
637.05	611.43
637.39	607.38
637.73	603.07
638.08	598.99
638.42	594.78
638.77	590.45
639.11	586.01
639.45	581.66
639.80	577.30
640.14	573.25
640.49	569.20
640.83	565.40
641.17	561.69
641.52	557.91
641.86	554.30
642.20	551.04
642.55	547.35
642.89	543.73
643.23	540.17
643.58	537.03
643.92	533.22
644.26	530.01
644.61	526.69
644.95	523.11
645.29	519.60
645.64	516.39
645.98	513.29
646.32	510.43
646.66	507.35
647.01	504.48
647.35	501.65
647.69	498.77
648.04	495.89
648.38	492.98
648.72	490.18
649.06	486.96
649.41	483.76
649.75	480.72
650.09	477.83
650.43	474.90
650.78	471.80
651.12	468.93
651.46	465.95
651.80	462.99
652.14	460.56
652.49	458.09
652.83	455.50
653.17	452.83
653.51	450.12
653.85	447.70
654.20	445.07
654.54	442.48
654.88	439.77
655.22	437.46
655.56	435.04
655.90	432.65
656.25	430.51
656.59	428.17
656.93	425.99
657.27	423.83
657.61	421.45
657.95	419.24
658.29	417.03
658.64	414.92
658.98	412.77
659.32	410.39
659.66	408.14
660.00	405.91
660.34	403.90
660.68	401.85
661.02	399.82
661.36	397.83
661.70	395.78
662.05	393.88
662.39	391.88
662.73	390.03
663.07	388.36
663.41	386.51
663.75	384.65
664.09	382.81
664.43	380.82
664.77	379.08
665.11	377.23
665.45	375.67
665.79	374.05
666.13	372.41
666.47	370.89
666.81	369.25
667.15	367.53
667.49	365.99
667.83	364.76
668.17	363.24
668.51	361.75
668.85	360.38
669.19	359.21
669.53	357.65
669.87	356.19
670.21	354.60
670.55	353.26
670.89	352.11
671.23	350.66
671.57	349.32
671.91	348.05
672.25	346.76
672.58	345.52
672.92	344.07
673.26	342.66
673.60	341.38
673.94	340.07
674.28	339.09
674.62	337.81
674.96	336.39
675.30	335.18
675.64	333.91
675.97	332.57
676.31	331.09
676.65	329.87
676.99	328.89
677.33	327.65
677.67	326.52
678.01	325.19
678.34	324.24
678.68	323.22
679.02	322.19
679.36	321.26
679.70	320.16
680.04	319.19
680.37	318.23
680.71	317.22
681.05	316.38
681.39	315.33
681.73	314.40
682.06	313.44
682.40	312.52
682.74	311.75
683.08	311.12
683.42	310.33
683.75	309.56
684.09	308.63
684.43	307.85
684.77	307.02
685.10	306.34
685.44	305.55
685.78	304.82
686.12	304.03
686.45	303.15
686.79	302.29
687.13	301.60
687.46	300.91
687.80	300.23
688.14	299.38
688.48	298.64
688.81	297.93
689.15	297.36
689.49	296.60
689.82	295.86
690.16	294.99
690.50	294.27
690.83	293.55
691.17	292.70
691.51	292.00
691.84	291.38
692.18	290.62
692.52	289.90
692.85	289.31
693.19	288.82
693.52	288.22
693.86	287.57
694.20	286.83
694.53	286.29
694.87	285.70
695.21	285.11
695.54	284.54
695.88	283.81
696.21	282.96
696.55	282.34
696.88	281.67
697.22	281.06
697.56	280.61
697.89	280.04
698.23	279.51
698.56	278.99
698.90	278.50
699.23	277.99
699.57	277.51
699.90	276.74
700.24	276.11
700.58	275.67
700.91	275.30
701.25	275.25
701.58	275.09
701.92	274.65
702.25	274.16
702.59	273.72
702.92	273.37
703.26	273.03
703.59	272.76
703.93	272.79
704.26	272.40
704.60	271.90
704.93	271.41
705.26	271.01
705.60	270.62
705.93	270.04
706.27	269.70
706.60	269.42
706.94	269.35
707.27	268.96
707.61	268.60
707.94	268.18
708.27	267.37
708.61	266.57
708.94	266.21
709.28	265.90
709.61	265.41
709.94	264.98
710.28	264.69
710.61	264.26
710.95	263.52
711.28	263.47
711.61	263.10
711.95	262.95
712.28	262.53
712.61	262.15
712.95	262.10
713.28	261.91
713.61	261.44
713.95	261.00
714.28	260.69
714.61	260.26
714.95	259.91
715.28	259.53
715.61	259.25
715.95	258.80
716.28	258.42
716.61	258.28
716.95	257.98
717.28	257.61
717.61	257.26
717.94	256.86
718.28	256.23
718.61	255.92
718.94	255.53
719.27	255.35
719.61	255.15
719.94	254.76
720.27	254.30
720.60	254.06
720.94	253.82
721.27	253.58
721.60	253.38
721.93	253.07
722.27	253.09
722.60	252.92
722.93	252.77
723.26	252.62
723.59	252.29
723.93	252.17
724.26	252.02
724.59	251.86
724.92	251.72
725.25	251.73
725.59	251.58
725.92	251.47
726.25	251.25
726.58	250.99
726.91	250.79
727.24	250.73
727.57	250.55
727.91	250.17
728.24	250.01
728.57	249.84
728.90	249.78
729.23	249.46
729.56	249.51
729.89	249.29
730.22	249.06
730.55	248.88
730.89	248.62
731.22	248.41
731.55	248.14
731.88	248.05
732.21	247.69
732.54	247.39
732.87	247.15
733.20	246.94
733.53	246.85
733.86	246.67
734.19	246.31
734.52	246.21
734.85	246.46
735.18	246.27
735.51	246.23
735.84	246.11
736.17	246.02
736.50	245.58
736.83	246.00
737.16	245.78
737.49	245.67
737.82	245.53
738.15	245.40
738.48	245.28
738.81	245.06
739.14	244.84
739.47	244.69
739.80	244.51
740.13	244.44
740.46	244.12
740.79	243.96
741.12	243.90
741.45	243.59
741.78	243.12
742.11	243.07
742.44	242.84
742.77	242.80
743.10	242.58
743.43	242.42
743.75	241.72
744.08	242.28
744.41	242.01
744.74	241.86
745.07	241.67
745.40	241.63
745.73	241.68
746.06	241.58
746.39	241.62
746.71	241.44
747.04	241.29
747.37	241.13
747.70	241.05
748.03	240.98
748.36	240.96
748.68	240.89
749.01	240.62
749.34	240.42
749.67	240.17
750.00	240.11
750.33	240.31
750.65	240.22
750.98	239.50
751.31	239.46
751.64	239.38
751.97	239.54
752.29	239.42
752.62	239.04
752.95	238.97
753.28	238.74
753.60	238.64
753.93	238.61
754.26	238.64
754.59	238.42
754.91	238.25
755.24	238.11
755.57	238.03
755.90	237.95
756.22	237.87
756.55	237.75
756.88	237.57
757.20	237.19
757.53	237.03
757.86	236.95
758.19	236.90
758.51	236.77
758.84	236.38
759.17	236.26
759.49	236.24
759.82	236.37
760.15	236.32
760.47	236.29
760.80	236.07
761.13	236.09
761.45	235.99
761.78	235.92
762.11	235.85
762.43	235.70
762.76	235.54
763.08	235.55
763.41	235.50
763.74	235.44
764.06	235.37
764.39	235.31
764.71	235.21
765.04	235.15
765.37	235.12
765.69	235.09
766.02	235.00
766.34	234.85
766.67	234.56
767.00	234.61
767.32	234.77
767.65	235.05
767.97	234.85
768.30	234.88
768.62	234.86
768.95	234.80
769.27	234.74
769.60	234.83
769.92	234.70
770.25	234.58
770.57	234.45
770.90	234.39
771.22	234.31
771.55	234.25
771.87	234.25
772.20	234.11
772.52	234.47
772.85	234.91
773.17	234.90
773.50	234.87
773.82	234.72
774.15	234.41
774.47	234.05
774.80	234.00
775.12	233.89
775.45	233.72
775.77	233.69
776.09	233.63
776.42	233.57
776.74	233.64
777.07	233.55
777.39	233.52
777.72	233.44
778.04	233.44
778.36	233.35
778.69	233.22
779.01	233.24
779.33	232.78
779.66	232.25
779.98	232.15
780.31	232.08
780.63	232.27
780.95	232.29
781.28	232.21
781.60	232.06
781.92	232.01
782.25	232.02
782.57	231.93
782.89	231.88
783.22	231.72
783.54	231.51
783.86	231.50
784.19	231.49
784.51	231.60
784.83	231.44
785.16	231.38
785.48	231.30
785.80	231.24
786.12	231.16
786.45	231.16
786.77	231.19
787.09	231.10
787.42	230.82
787.74	230.74
788.06	230.71
788.38	230.65
788.71	230.55
789.03	230.45
789.35	230.43
789.67	230.30
789.99	230.38
790.32	230.35
790.64	230.35
790.96	230.59
791.28	230.36
791.61	230.30
791.93	230.32
792.25	230.23
792.57	230.51
792.89	230.43
793.21	230.29
793.54	230.21
793.86	230.11
794.18	230.14
794.50	230.10
794.82	230.10
795.14	230.20
795.47	230.26
795.79	230.25
796.11	230.18
796.43	230.22
796.75	230.10
797.07	230.09
797.39	230.03
797.71	229.72
798.04	229.72
798.36	229.82
798.68	229.79
799.00	229.86
799.32	229.58
799.64	229.66
799.96	229.65
800.28	229.72
800.60	229.67
800.92	229.66
801.24	229.62
801.56	229.65
801.89	229.56
802.21	229.54
802.53	229.48
802.85	229.56
803.17	229.71
803.49	229.61
803.81	229.52
804.13	229.45
804.45	229.45
804.77	229.46
805.09	229.47
805.41	229.39
805.73	229.34
806.05	229.16
806.37	229.10
806.69	229.12
807.01	229.12
807.33	229.24
807.65	229.04
807.97	229.21
808.28	229.10
808.60	229.14
808.92	229.05
809.24	229.35
809.56	229.25
809.88	229.12
810.20	229.16
810.52	229.31
810.84	229.33
811.16	229.24
811.48	229.13
811.80	229.29
812.12	229.30
812.43	229.37
812.75	229.45
813.07	229.39
813.39	229.43
813.71	229.33
814.03	229.26
814.35	229.34
814.67	229.19
814.98	229.19
815.30	229.15
815.62	229.12
815.94	228.79
816.26	228.97
816.58	228.94
816.89	228.95
817.21	228.80
817.53	228.76
817.85	228.80
818.17	228.88
818.48	228.64
818.80	228.68
819.12	228.55
819.44	228.50
819.76	228.52
820.07	228.47
820.39	228.53
820.71	228.55
821.03	228.61
821.34	228.53
821.66	228.61
821.98	228.59
822.30	228.56
822.61	228.78
822.93	228.54
823.25	228.46
823.57	228.48
823.88	228.51
824.20	228.53
824.52	228.57
824.83	228.52
825.15	228.43
825.47	228.38
825.79	228.47
826.10	228.38
826.42	228.34
826.74	228.35
827.05	228.25
827.37	228.20
827.69	228.10
828.00	228.09
828.32	228.02
828.64	227.98
828.95	228.23
829.27	228.10
829.58	228.16
829.90	228.22
830.22	228.23
830.53	228.15
830.85	228.14
831.17	228.02
831.48	228.00
831.80	228.05
832.11	228.03
832.43	227.91
832.75	227.95
833.06	228.20
833.38	228.03
833.69	227.96
834.01	227.96
834.32	227.90
834.64	227.89
834.96	227.92
835.27	227.85
835.59	227.65
835.90	227.65
836.22	227.62
836.53	227.50
836.85	227.37
837.16	227.86
837.48	227.87
837.79	228.00
838.11	228.05
838.42	228.06
838.74	228.08
839.05	228.04
839.37	228.01
839.68	227.68
840.00	227.75
840.31	227.88
840.63	227.92
840.94	227.92
841.26	227.88
841.57	227.89
841.88	227.97
842.20	227.93
842.51	227.80
842.83	227.79
843.14	228.19
843.46	228.26
843.77	227.97
844.08	227.83
844.40	227.69
844.71	227.62
845.03	227.59
845.34	227.55
845.65	227.56
845.97	227.54
846.28	227.62
846.60	227.64
846.91	227.57
847.22	227.52
847.54	227.53
847.85	227.59
848.16	227.60
848.48	227.50
848.79	227.74
849.10	227.85
849.42	227.91
849.73	227.49
850.04	227.45
850.36	227.30
850.67	227.44
850.98	227.44
851.30	227.51
851.61	227.47
851.92	227.52
852.23	227.68
852.55	227.74
852.86	227.71
853.17	227.75
853.49	227.85
853.80	227.96
854.11	228.09
854.42	228.15
854.74	228.07
855.05	228.18
855.36	227.90
855.67	227.87
855.99	227.85
856.30	228.40
856.61	228.41
856.92	228.44
857.23	228.43
857.55	228.39
857.86	228.36
858.17	228.44
858.48	228.35
858.79	228.25
859.11	228.35
859.42	228.44
859.73	228.31
860.04	228.23
860.35	228.12
860.66	227.96
860.98	227.92
861.29	227.97
861.60	227.88
861.91	227.99
862.22	227.95
862.53	227.88
862.84	227.38
863.16	227.59
863.47	227.51
863.78	227.47
864.09	227.52
864.40	227.54
864.71	227.52
865.02	227.59
865.33	227.51
865.64	227.43
865.95	227.40
866.27	227.76
866.58	227.75
866.89	227.75
867.20	227.72
867.51	227.64
867.82	227.58
868.13	227.74
868.44	227.65
868.75	227.74
869.06	227.74
869.37	227.79
869.68	227.57
869.99	227.61
870.30	227.62
870.61	227.65
870.92	227.61
871.23	227.55
871.54	227.58
871.85	227.72
872.16	227.71
872.47	227.65
872.78	227.32
873.09	227.41
873.40	227.31
873.71	227.39
874.02	227.35
874.33	227.29
874.64	227.12
874.95	227.22
875.26	227.09
875.56	227.06
875.87	226.96
876.18	226.95
876.49	227.39
876.80	227.35
877.11	227.29
877.42	227.29
877.73	227.27
878.04	227.17
878.35	227.12
878.66	227.12
878.96	227.03
879.27	227.04
879.58	226.95
879.89	226.95
880.20	227.03
880.51	227.08
880.82	227.07
881.12	227.15
881.43	227.01
881.74	226.93
882.05	226.89
882.36	226.96
882.67	226.95
882.97	226.44
883.28	226.47
883.59	226.45
883.90	226.49
884.21	226.60
884.51	226.52
884.82	226.49
885.13	226.45
885.44	226.47
885.74	226.41
886.05	226.41
886.36	226.40
886.67	226.22
886.98	226.50
887.28	226.58
887.59	226.60
887.90	226.55
888.20	226.58
888.51	226.70
888.82	226.60
889.13	226.70
889.43	227.06
889.74	226.96
890.05	226.86
890.35	226.85
890.66	226.80
890.97	226.80
891.28	226.72
891.58	226.82
891.89	226.80
892.20	226.81
892.50	226.73
892.81	226.73
893.12	226.81
893.42	226.51
893.73	226.48
894.04	226.49
894.34	226.66
894.65	226.63
894.95	226.62
895.26	226.68
895.57	226.84
895.87	226.43
896.18	226.49
896.48	226.61
896.79	226.61
897.10	226.69
897.40	226.78
897.71	226.87
898.01	226.77
898.32	226.87
898.63	226.88
898.93	226.92
899.24	226.98
899.54	226.92
899.85	226.96
900.15	226.95
900.46	226.95
900.76	226.90
901.07	226.89
901.38	226.85
901.68	226.94
901.99	226.70
902.29	226.70
902.60	226.68
902.90	226.65
903.21	226.59
903.51	226.51
903.82	226.61
904.12	226.64
904.43	226.68
904.73	226.65
905.03	226.65
905.34	227.19
905.64	227.18
905.95	227.19
906.25	227.15
906.56	227.21
906.86	227.23
907.17	227.22
907.47	227.32
907.77	227.27
908.08	227.12
908.38	227.17
908.69	227.26
908.99	227.38
909.30	227.43
909.60	227.47
909.90	227.49
910.21	227.31
910.51	227.16
910.81	227.18
911.12	227.26
911.42	227.26
911.73	226.74
912.03	226.73
912.33	226.79
912.64	226.79
912.94	226.69
913.24	226.59
913.55	226.55
913.85	226.52
914.15	226.64
914.46	226.71
914.76	226.69
915.06	226.67
915.37	226.54
915.67	226.41
915.97	226.38
916.27	226.36
916.58	226.39
916.88	226.44
917.18	226.39
917.49	226.72
917.79	226.68
918.09	226.76
918.39	226.93
918.70	226.94
919.00	227.00
919.30	227.25
919.60	227.23
919.91	227.18
920.21	227.24
920.51	227.19
920.81	227.14
921.12	227.25
921.42	227.30
921.72	227.36
922.02	227.46
922.32	227.57
922.63	227.54
922.93	227.81
923.23	227.85
923.53	227.84
923.83	227.56
924.13	227.60
924.44	227.59
924.74	227.65
925.04	227.78
925.34	227.77
925.64	227.54
925.94	227.52
926.24	227.73
926.55	227.67
926.85	227.76
927.15	227.82
927.45	227.75
927.75	227.80
928.05	227.80
928.35	227.82
928.65	227.87
928.95	227.90
929.26	227.67
929.56	227.77
929.86	227.83
930.16	227.70
930.46	227.69
930.76	227.66
931.06	227.44
931.36	227.31
931.66	227.36
931.96	227.43
932.26	227.55
932.56	227.46
932.86	227.47
933.16	227.37
933.46	227.34
933.76	227.28
934.06	227.31
934.36	227.47
934.66	227.42
934.96	227.25
935.26	227.22
935.56	227.29
935.86	227.16
936.16	227.09
936.46	227.09
936.76	227.08
937.06	227.05
937.36	227.02
937.66	227.05
937.96	226.99
938.26	226.90
938.56	226.82
938.86	226.86
939.16	226.94
939.46	227.05
939.76	227.04
940.06	227.02
940.35	226.85
940.65	226.67
940.95	226.73
941.25	226.67
941.55	226.72
941.85	226.71
942.15	226.87
942.45	227.02
942.75	227.02
943.04	227.04
943.34	227.15
943.64	227.14
943.94	226.99
944.24	227.02
944.54	227.04
944.84	227.01
945.13	226.90
945.43	226.88
945.73	226.76
946.03	226.78
946.33	226.71
946.62	226.73
946.92	226.73
947.22	226.77
947.52	226.79
947.82	226.80
948.11	226.77
948.41	226.60
948.71	226.41
949.01	226.43
949.31	226.49
949.60	226.44
949.90	226.54
950.20	226.59
950.50	226.54
950.79	226.54
951.09	226.61
951.39	226.66
951.69	226.55
951.98	226.74
952.28	226.73
952.58	226.84
952.87	226.89
953.17	226.88
953.47	226.82
953.76	226.85
954.06	226.82
954.36	226.71
954.66	226.75
954.95	226.91
955.25	226.96
955.55	226.92
955.84	226.84
956.14	226.84
956.44	226.87
956.73	226.76
957.03	226.81
957.32	226.84
957.62	226.76
957.92	226.81
958.21	226.65
958.51	227.21
958.81	227.18
959.10	227.19
959.40	227.29
959.69	227.27
959.99	227.38
960.29	227.35
960.58	227.39
960.88	227.54
961.17	227.46
961.47	227.45
961.76	227.51
962.06	227.61
962.36	227.60
962.65	227.56
962.95	227.68
963.24	227.56
963.54	227.48
963.83	227.50
964.13	227.58
964.42	227.49
964.72	227.06
965.01	227.06
965.31	227.03
965.60	226.99
965.90	227.33
966.19	227.19
966.49	227.22
966.78	227.25
967.08	227.23
967.37	227.19
967.67	227.14
967.96	227.19
968.26	227.24
968.55	227.17
968.85	227.25
969.14	227.22
969.43	227.30
969.73	227.30
970.02	227.31
970.32	227.25
970.61	227.26
970.91	227.15
971.20	227.14
971.49	227.07
971.79	227.10
972.08	226.74
972.38	226.75
972.67	226.69
972.96	226.72
973.26	226.60
973.55	226.82
973.85	226.77
974.14	226.63
974.43	226.57
974.73	226.59
975.02	226.48
975.31	226.47
975.61	226.44
975.90	226.45
976.19	226.41
976.49	226.45
976.78	226.46
977.07	226.49
977.37	226.53
977.66	226.62
977.95	226.48
978.24	226.56
978.54	226.67
978.83	226.71
979.12	226.69
979.42	226.72
979.71	226.64
980.00	226.60
980.29	226.65
980.59	226.63
980.88	226.74
981.17	226.75
981.46	226.79
981.76	226.71
982.05	226.80
982.34	226.84
982.63	226.81
982.93	226.85
983.22	226.89
983.51	226.88
983.80	226.90
984.09	227.01
984.39	226.91
984.68	226.80
984.97	226.79
985.26	226.70
985.55	226.68
985.85	226.57
986.14	226.64
986.43	226.72
986.72	226.60
987.01	226.46
987.30	226.40
987.59	226.34
987.89	226.46
988.18	226.36
988.47	226.30
988.76	226.31
989.05	226.24
989.34	226.23
989.63	226.30
989.92	226.18
990.22	226.09
990.51	226.05
990.80	226.06
991.09	226.13
991.38	226.22
991.67	226.14
991.96	226.01
992.25	226.05
992.54	225.90
992.83	225.89
993.12	225.86
993.41	225.98
993.70	226.18
993.99	226.22
994.28	226.27
994.58	226.28
994.87	226.21
995.16	226.18
995.45	226.05
995.74	225.90
996.03	225.98
996.32	226.08
996.61	226.25
996.90	226.19
997.19	226.10
997.48	226.10
997.77	226.05
998.06	226.07
998.34	226.03
998.63	226.06
998.92	226.16
999.21	226.16
999.50	226.16
999.79	225.96
1000.08	225.88
1000.37	225.88
1000.66	225.86
1000.95	225.94
1001.24	225.96
1001.53	226.03
1001.82	226.08
1002.11	225.95
1002.40	225.99
1002.68	226.04
1002.97	226.40
1003.26	226.32
1003.55	226.25
1003.84	226.38
1004.13	226.55
1004.42	226.55
1004.71	226.50
1004.99	226.46
1005.28	226.60
1005.57	226.56
1005.86	226.59
1006.15	226.59
1006.44	226.47
1006.72	226.49
1007.01	226.49
1007.30	226.49
1007.59	226.44
1007.88	226.44
1008.17	226.47
1008.45	226.35
1008.74	226.14
1009.03	225.92
1009.32	226.00
1009.60	226.01
1009.89	225.91
1010.18	225.78
1010.47	225.78
1010.76	225.79
1011.04	225.76
1011.33	225.79
1011.62	225.90
1011.91	225.92
1012.19	225.95
1012.48	226.00
1012.77	226.10
1013.05	226.26
1013.34	226.28
1013.63	226.20
1013.92	226.20
1014.20	226.25
1014.49	226.27
1014.78	226.36
1015.06	226.20
1015.35	226.20
1015.64	226.30
1015.92	226.40
1016.21	226.53
1016.50	226.48
1016.78	226.61
1017.07	226.67
1017.36	226.55
1017.64	226.41
1017.93	226.43
1018.22	226.40
1018.50	226.39
1018.79	226.31
1019.08	226.08
1019.36	226.13
1019.65	226.14
1019.93	226.29
1020.22	226.37
1020.51	226.65
1020.79	226.59
1021.08	225.40
1021.36	225.10
1021.65	225.95
1021.94	225.45
1022.22	227.10
1022.51	224.60
1022.79	228.70
1023.08	228.15
1023.36	232.05
1023.65	225.60
>>>>>End Processed Spectral Data<<<<<
