SpectraSuite Data File
++++++++++++++++++++++++++++++++++++
Date: Wed Sep 04 17:59:49 EDT 2013
User: lab3
Dark Spectrum Present: Yes
Reference Spectrum Present: No
Number of Sampled Component Spectra: 1
Spectrometers: USB2E7196
Integration Time (usec): 170000 (USB2E7196)
Spectra Averaged: 20 (USB2E7196)
Boxcar Smoothing: 10 (USB2E7196)
Correct for Electrical Dark: No (USB2E7196)
Strobe/Lamp Enabled: No (USB2E7196)
Correct for Detector Non-linearity: No (USB2E7196)
Correct for Stray Light: No (USB2E7196)
Number of Pixels in Processed Spectrum: 2048
>>>>>Begin Processed Spectral Data<<<<<
339.09	0.00
339.48	212.45
339.86	214.85
340.24	216.60
340.63	217.95
341.01	226.75
341.39	219.65
341.78	221.55
342.16	225.30
342.54	223.50
342.93	212.66
343.31	223.39
343.69	223.95
344.07	224.45
344.46	224.95
344.84	225.33
345.22	225.32
345.60	225.64
345.99	225.90
346.37	225.94
346.75	226.03
347.13	226.05
347.52	226.08
347.90	226.25
348.28	226.34
348.66	226.49
349.05	226.30
349.43	226.42
349.81	226.52
350.19	226.50
350.57	226.58
350.96	226.67
351.34	226.77
351.72	226.92
352.10	227.01
352.48	227.01
352.87	227.04
353.25	227.10
353.63	227.15
354.01	227.15
354.39	227.28
354.77	227.40
355.15	227.72
355.54	227.79
355.92	227.64
356.30	227.67
356.68	228.01
357.06	228.11
357.44	228.10
357.82	228.17
358.20	228.62
358.58	228.64
358.97	228.68
359.35	228.83
359.73	229.00
360.11	229.08
360.49	229.16
360.87	229.19
361.25	229.26
361.63	229.43
362.01	229.51
362.39	229.50
362.77	229.55
363.15	229.48
363.53	229.48
363.91	229.56
364.29	229.58
364.67	229.13
365.05	229.21
365.43	229.31
365.81	229.38
366.19	229.30
366.57	229.47
366.95	229.48
367.33	229.45
367.71	229.40
368.09	229.45
368.47	229.46
368.85	229.53
369.23	229.64
369.61	229.49
369.99	229.66
370.37	229.66
370.75	229.92
371.13	229.79
371.51	229.75
371.89	229.75
372.27	229.77
372.65	229.88
373.03	229.82
373.41	229.69
373.78	229.63
374.16	229.37
374.54	229.22
374.92	229.12
375.30	229.07
375.68	228.89
376.06	228.84
376.44	228.71
376.82	228.68
377.19	228.53
377.57	228.37
377.95	228.12
378.33	228.04
378.71	227.64
379.09	227.70
379.47	227.64
379.84	227.57
380.22	227.45
380.60	227.21
380.98	227.09
381.36	227.04
381.73	226.91
382.11	226.88
382.49	226.79
382.87	226.67
383.25	226.51
383.62	227.04
384.00	226.92
384.38	226.92
384.76	226.86
385.13	227.00
385.51	227.04
385.89	226.97
386.27	226.88
386.64	226.93
387.02	226.74
387.40	226.74
387.78	226.75
388.15	226.80
388.53	226.73
388.91	226.76
389.29	226.69
389.66	226.79
390.04	226.73
390.42	226.80
390.79	226.81
391.17	226.87
391.55	226.35
391.92	226.28
392.30	226.29
392.68	226.22
393.05	226.21
393.43	226.27
393.81	226.34
394.18	226.33
394.56	226.38
394.94	226.59
395.31	226.56
395.69	226.71
396.06	226.73
396.44	226.86
396.82	226.83
397.19	227.14
397.57	227.10
397.95	227.20
398.32	227.16
398.70	227.36
399.07	227.50
399.45	227.54
399.82	227.71
400.20	227.74
400.58	227.89
400.95	227.79
401.33	227.98
401.70	228.42
402.08	228.58
402.45	228.69
402.83	228.91
403.20	229.07
403.58	229.13
403.95	229.44
404.33	229.62
404.71	229.80
405.08	230.27
405.46	230.55
405.83	230.88
406.21	231.12
406.58	231.36
406.96	231.63
407.33	232.07
407.70	232.42
408.08	233.17
408.45	233.62
408.83	234.14
409.20	234.51
409.58	234.60
409.95	235.24
410.33	235.81
410.70	236.20
411.08	236.86
411.45	237.45
411.82	237.98
412.20	238.85
412.57	239.90
412.95	240.22
413.32	241.05
413.69	241.82
414.07	242.76
414.44	243.76
414.82	244.80
415.19	245.86
415.56	247.08
415.94	248.10
416.31	249.54
416.68	250.95
417.06	252.63
417.43	254.29
417.81	256.00
418.18	257.78
418.55	259.77
418.93	261.78
419.30	263.84
419.67	266.07
420.04	268.33
420.42	270.65
420.79	273.74
421.16	276.52
421.54	279.61
421.91	282.67
422.28	285.69
422.66	288.93
423.03	292.55
423.40	295.99
423.77	299.55
424.15	303.14
424.52	306.91
424.89	311.02
425.26	315.01
425.64	318.86
426.01	323.04
426.38	327.43
426.75	331.95
427.13	336.61
427.50	341.33
427.87	346.17
428.24	351.16
428.61	355.66
428.99	361.06
429.36	366.56
429.73	372.09
430.10	377.64
430.47	383.41
430.85	389.00
431.22	395.16
431.59	402.02
431.96	408.39
432.33	415.52
432.70	422.35
433.08	430.33
433.45	437.79
433.82	445.23
434.19	453.62
434.56	461.83
434.93	469.51
435.30	477.42
435.68	486.23
436.05	494.59
436.42	503.05
436.79	510.72
437.16	519.17
437.53	528.14
437.90	536.99
438.27	545.70
438.64	554.66
439.01	562.97
439.38	570.14
439.75	577.35
440.13	585.38
440.50	592.69
440.87	598.72
441.24	605.11
441.61	612.17
441.98	617.15
442.35	622.97
442.72	629.06
443.09	634.80
443.46	638.10
443.83	640.61
444.20	642.47
444.57	645.14
444.94	646.15
445.31	647.23
445.68	648.56
446.05	648.72
446.42	647.38
446.79	645.89
447.16	644.22
447.53	642.79
447.90	639.05
448.27	635.45
448.64	630.60
449.01	626.76
449.37	620.53
449.74	614.45
450.11	607.40
450.48	599.68
450.85	591.65
451.22	584.77
451.59	578.01
451.96	571.77
452.33	563.64
452.70	556.25
453.07	547.40
453.43	538.25
453.80	529.71
454.17	521.50
454.54	513.68
454.91	505.42
455.28	497.44
455.65	489.90
456.02	483.03
456.38	476.66
456.75	468.92
457.12	462.40
457.49	455.98
457.86	449.58
458.23	444.34
458.59	438.61
458.96	432.84
459.33	427.72
459.70	422.65
460.07	418.56
460.43	413.74
460.80	409.47
461.17	405.68
461.54	401.70
461.91	398.01
462.27	394.27
462.64	391.08
463.01	387.47
463.38	384.15
463.74	380.13
464.11	377.05
464.48	374.42
464.85	371.52
465.21	369.39
465.58	367.16
465.95	364.30
466.32	362.04
466.68	359.75
467.05	357.47
467.42	355.21
467.78	352.89
468.15	350.80
468.52	349.12
468.88	346.93
469.25	344.92
469.62	343.40
469.98	341.72
470.35	340.19
470.72	338.75
471.08	336.97
471.45	335.62
471.82	334.34
472.18	332.83
472.55	331.76
472.92	330.37
473.28	329.19
473.65	328.04
474.02	326.95
474.38	326.10
474.75	325.44
475.11	324.51
475.48	323.82
475.85	323.24
476.21	322.60
476.58	322.04
476.94	321.69
477.31	321.19
477.67	320.71
478.04	320.30
478.41	320.10
478.77	320.47
479.14	320.26
479.50	320.19
479.87	320.33
480.23	320.50
480.60	320.62
480.96	320.73
481.33	321.10
481.69	321.42
482.06	321.63
482.42	321.86
482.79	322.29
483.15	322.70
483.52	323.34
483.88	323.89
484.25	324.50
484.61	325.10
484.98	325.70
485.34	326.79
485.71	327.86
486.07	328.75
486.44	329.36
486.80	330.48
487.17	331.58
487.53	332.95
487.90	334.28
488.26	335.90
488.62	337.64
488.99	339.24
489.35	341.05
489.72	343.07
490.08	345.01
490.44	347.04
490.81	349.38
491.17	351.59
491.54	354.05
491.90	356.60
492.26	359.42
492.63	362.38
492.99	365.26
493.36	368.35
493.72	371.79
494.08	375.21
494.45	378.95
494.81	382.88
495.17	386.71
495.54	390.80
495.90	395.03
496.26	399.40
496.63	404.04
496.99	408.77
497.35	413.73
497.72	419.05
498.08	424.58
498.44	430.22
498.80	436.27
499.17	442.40
499.53	448.73
499.89	455.38
500.26	462.15
500.62	469.08
500.98	476.39
501.34	483.80
501.71	491.58
502.07	499.27
502.43	507.39
502.79	515.92
503.16	524.66
503.52	533.64
503.88	542.90
504.24	552.66
504.60	562.73
504.97	573.14
505.33	583.58
505.69	594.65
506.05	605.64
506.41	617.02
506.78	628.65
507.14	640.75
507.50	653.14
507.86	665.86
508.22	678.95
508.59	692.08
508.95	705.87
509.31	720.07
509.67	734.55
510.03	749.05
510.39	763.99
510.75	779.08
511.12	794.47
511.48	810.09
511.84	825.97
512.20	841.77
512.56	857.91
512.92	874.73
513.28	891.46
513.64	908.76
514.00	926.20
514.37	943.92
514.73	962.11
515.09	980.36
515.45	998.88
515.81	1017.24
516.17	1036.20
516.53	1054.83
516.89	1073.38
517.25	1092.74
517.61	1112.97
517.97	1133.15
518.33	1153.14
518.69	1173.69
519.05	1194.34
519.41	1215.02
519.77	1236.51
520.13	1257.45
520.49	1278.18
520.85	1300.55
521.21	1322.21
521.57	1343.57
521.93	1364.52
522.29	1385.81
522.65	1406.52
523.01	1427.58
523.37	1448.63
523.73	1469.67
524.09	1490.30
524.45	1511.40
524.81	1532.32
525.17	1553.13
525.53	1573.61
525.89	1594.99
526.25	1615.47
526.61	1635.90
526.97	1657.05
527.33	1678.27
527.68	1700.23
528.04	1721.64
528.40	1741.71
528.76	1762.62
529.12	1783.22
529.48	1804.40
529.84	1824.56
530.20	1845.95
530.56	1866.67
530.91	1887.69
531.27	1908.23
531.63	1928.94
531.99	1949.66
532.35	1969.94
532.71	1990.01
533.07	2010.99
533.42	2030.73
533.78	2050.89
534.14	2071.05
534.50	2090.16
534.86	2109.43
535.21	2127.14
535.57	2145.58
535.93	2163.19
536.29	2180.93
536.65	2199.26
537.00	2216.87
537.36	2234.80
537.72	2251.70
538.08	2269.20
538.44	2286.01
538.79	2302.67
539.15	2319.36
539.51	2335.36
539.87	2350.73
540.22	2365.09
540.58	2379.28
540.94	2392.76
541.29	2405.56
541.65	2418.36
542.01	2431.08
542.37	2441.84
542.72	2452.76
543.08	2463.64
543.44	2475.33
543.79	2485.11
544.15	2495.01
544.51	2505.13
544.87	2514.62
545.22	2523.12
545.58	2530.64
545.94	2537.84
546.29	2544.41
546.65	2550.78
547.01	2556.48
547.36	2562.15
547.72	2567.75
548.07	2571.65
548.43	2577.03
548.79	2581.81
549.14	2585.95
549.50	2589.85
549.86	2593.98
550.21	2597.93
550.57	2601.38
550.92	2602.70
551.28	2604.56
551.64	2606.88
551.99	2608.84
552.35	2610.45
552.70	2612.31
553.06	2613.78
553.41	2614.71
553.77	2616.22
554.13	2617.88
554.48	2619.16
554.84	2620.59
555.19	2621.71
555.55	2623.64
555.90	2622.83
556.26	2622.39
556.61	2620.88
556.97	2618.79
557.32	2617.80
557.68	2616.45
558.03	2614.94
558.39	2614.09
558.74	2613.32
559.10	2610.17
559.45	2606.48
559.81	2602.07
560.16	2597.45
560.52	2593.08
560.87	2588.92
561.23	2583.84
561.58	2577.86
561.94	2571.45
562.29	2563.95
562.64	2557.11
563.00	2548.86
563.35	2542.35
563.71	2535.32
564.06	2528.97
564.42	2522.23
564.77	2515.49
565.12	2508.20
565.48	2500.61
565.83	2492.43
566.19	2484.19
566.54	2476.20
566.89	2468.05
567.25	2460.35
567.60	2452.89
567.96	2445.22
568.31	2437.28
568.66	2428.63
569.02	2419.55
569.37	2411.41
569.72	2404.07
570.08	2394.48
570.43	2384.99
570.78	2376.01
571.14	2366.71
571.49	2356.52
571.84	2347.06
572.20	2336.06
572.55	2325.89
572.90	2314.71
573.26	2304.45
573.61	2293.35
573.96	2282.28
574.31	2270.55
574.67	2258.57
575.02	2245.65
575.37	2232.91
575.72	2219.38
576.08	2207.16
576.43	2194.51
576.78	2181.01
577.13	2166.99
577.49	2154.26
577.84	2142.11
578.19	2129.71
578.54	2116.74
578.90	2104.66
579.25	2092.49
579.60	2080.17
579.95	2067.08
580.30	2054.30
580.66	2040.91
581.01	2027.41
581.36	2013.20
581.71	2000.38
582.06	1987.65
582.42	1975.22
582.77	1962.75
583.12	1951.04
583.47	1938.57
583.82	1926.68
584.17	1914.71
584.53	1902.97
584.88	1890.22
585.23	1877.07
585.58	1862.92
585.93	1850.15
586.28	1836.81
586.63	1822.65
586.98	1808.32
587.34	1795.16
587.69	1781.95
588.04	1769.16
588.39	1756.94
588.74	1744.93
589.09	1732.71
589.44	1719.84
589.79	1707.70
590.14	1695.46
590.49	1683.12
590.84	1670.97
591.19	1658.88
591.54	1646.56
591.89	1634.37
592.25	1624.03
592.60	1612.77
592.95	1601.18
593.30	1588.74
593.65	1576.79
594.00	1564.70
594.35	1554.78
594.70	1542.71
595.05	1530.93
595.40	1518.66
595.75	1506.71
596.10	1495.35
596.45	1483.55
596.80	1472.66
597.15	1461.10
597.50	1449.10
597.85	1437.78
598.19	1425.90
598.54	1414.09
598.89	1402.72
599.24	1391.75
599.59	1379.95
599.94	1368.89
600.29	1358.51
600.64	1348.24
600.99	1337.14
601.34	1327.22
601.69	1315.85
602.04	1306.11
602.39	1296.60
602.74	1287.37
603.08	1277.76
603.43	1268.44
603.78	1258.76
604.13	1248.95
604.48	1239.17
604.83	1229.55
605.18	1219.71
605.53	1210.39
605.87	1201.07
606.22	1192.24
606.57	1182.88
606.92	1173.49
607.27	1164.44
607.62	1155.67
607.96	1146.93
608.31	1139.17
608.66	1130.84
609.01	1122.27
609.36	1113.75
609.70	1104.88
610.05	1096.07
610.40	1087.63
610.75	1078.72
611.10	1070.62
611.44	1061.94
611.79	1053.63
612.14	1045.71
612.49	1037.75
612.83	1030.20
613.18	1022.65
613.53	1015.10
613.88	1007.08
614.22	999.17
614.57	991.28
614.92	983.29
615.27	975.98
615.61	968.18
615.96	960.48
616.31	952.79
616.65	945.60
617.00	938.24
617.35	931.06
617.70	923.96
618.04	917.05
618.39	909.91
618.74	903.36
619.08	896.53
619.43	889.55
619.78	882.50
620.12	875.16
620.47	868.05
620.82	860.84
621.16	854.10
621.51	847.92
621.85	841.61
622.20	834.84
622.55	827.99
622.89	821.30
623.24	814.95
623.59	808.63
623.93	802.22
624.28	796.07
624.62	790.41
624.97	784.42
625.32	778.27
625.66	772.13
626.01	765.99
626.35	760.45
626.70	754.63
627.04	749.43
627.39	743.96
627.73	738.55
628.08	733.25
628.43	727.77
628.77	722.07
629.12	716.63
629.46	711.99
629.81	707.21
630.15	702.50
630.50	697.55
630.84	692.75
631.19	687.85
631.53	683.28
631.88	678.01
632.22	673.17
632.57	668.74
632.91	664.11
633.26	659.78
633.60	655.08
633.95	650.51
634.29	645.64
634.64	641.15
634.98	636.47
635.32	632.10
635.67	628.03
636.01	623.88
636.36	619.43
636.70	615.33
637.05	611.05
637.39	607.00
637.73	602.88
638.08	598.87
638.42	594.66
638.77	590.18
639.11	585.90
639.45	581.34
639.80	576.92
640.14	572.91
640.49	568.69
640.83	564.66
641.17	560.94
641.52	557.05
641.86	553.44
642.20	550.32
642.55	546.65
642.89	543.03
643.23	539.43
643.58	536.46
643.92	532.73
644.26	529.33
644.61	526.00
644.95	522.58
645.29	519.10
645.64	515.96
645.98	512.98
646.32	509.96
646.66	507.12
647.01	504.15
647.35	501.37
647.69	498.43
648.04	495.61
648.38	492.78
648.72	489.95
649.06	486.80
649.41	483.41
649.75	480.33
650.09	477.43
650.43	474.51
650.78	471.49
651.12	468.67
651.46	465.95
651.80	463.01
652.14	460.35
652.49	457.84
652.83	455.17
653.17	452.32
653.51	449.63
653.85	447.18
654.20	444.66
654.54	442.02
654.88	439.59
655.22	437.31
655.56	434.90
655.90	432.49
656.25	430.21
656.59	428.16
656.93	426.05
657.27	423.93
657.61	421.58
657.95	419.26
658.29	417.13
658.64	414.88
658.98	412.67
659.32	410.37
659.66	408.07
660.00	405.93
660.34	404.00
660.68	402.03
661.02	399.89
661.36	398.01
661.70	396.00
662.05	394.07
662.39	392.13
662.73	390.29
663.07	388.59
663.41	386.77
663.75	384.78
664.09	382.92
664.43	380.96
664.77	379.32
665.11	377.55
665.45	375.75
665.79	374.11
666.13	372.45
666.47	370.81
666.81	369.16
667.15	367.43
667.49	365.86
667.83	364.39
668.17	362.89
668.51	361.37
668.85	359.96
669.19	358.71
669.53	357.20
669.87	355.67
670.21	354.14
670.55	352.76
670.89	351.70
671.23	350.26
671.57	348.83
671.91	347.41
672.25	346.10
672.58	344.91
672.92	343.52
673.26	342.19
673.60	340.93
673.94	339.76
674.28	338.65
674.62	337.62
674.96	336.31
675.30	335.15
675.64	333.84
675.97	332.50
676.31	331.17
676.65	329.87
676.99	328.85
677.33	327.69
677.67	326.60
678.01	325.18
678.34	324.13
678.68	323.17
679.02	322.06
679.36	321.12
679.70	320.10
680.04	319.17
680.37	318.19
680.71	317.26
681.05	316.39
681.39	315.48
681.73	314.45
682.06	313.57
682.40	312.77
682.74	311.93
683.08	311.23
683.42	310.38
683.75	309.62
684.09	308.68
684.43	307.90
684.77	307.00
685.10	306.35
685.44	305.64
685.78	304.83
686.12	304.15
686.45	303.28
686.79	302.41
687.13	301.74
687.46	301.04
687.80	300.43
688.14	299.61
688.48	298.73
688.81	297.94
689.15	297.29
689.49	296.42
689.82	295.75
690.16	294.88
690.50	294.11
690.83	293.31
691.17	292.51
691.51	291.83
691.84	291.21
692.18	290.35
692.52	289.54
692.85	288.87
693.19	288.41
693.52	287.79
693.86	287.08
694.20	286.39
694.53	285.77
694.87	285.05
695.21	284.36
695.54	283.81
695.88	283.11
696.21	282.41
696.55	281.77
696.88	281.10
697.22	280.63
697.56	280.11
697.89	279.57
698.23	279.11
698.56	278.45
698.90	277.93
699.23	277.40
699.57	277.04
699.90	276.45
700.24	275.67
700.58	275.20
700.91	274.74
701.25	274.53
701.58	274.47
701.92	274.12
702.25	273.68
702.59	273.23
702.92	272.92
703.26	272.58
703.59	272.23
703.93	272.25
704.26	271.76
704.60	271.32
704.93	270.85
705.26	270.37
705.60	270.15
705.93	269.66
706.27	269.44
706.60	269.09
706.94	268.96
707.27	268.66
707.61	268.34
707.94	268.02
708.27	267.25
708.61	266.41
708.94	265.94
709.28	265.58
709.61	265.12
709.94	264.74
710.28	264.25
710.61	263.84
710.95	263.03
711.28	263.03
711.61	262.62
711.95	262.39
712.28	261.96
712.61	261.60
712.95	261.59
713.28	261.42
713.61	261.03
713.95	260.58
714.28	260.25
714.61	259.85
714.95	259.44
715.28	259.04
715.61	258.69
715.95	258.38
716.28	257.98
716.61	257.84
716.95	257.40
717.28	257.10
717.61	256.79
717.94	256.58
718.28	255.86
718.61	255.65
718.94	255.30
719.27	255.10
719.61	254.78
719.94	254.34
720.27	253.80
720.60	253.46
720.94	253.06
721.27	252.86
721.60	252.74
721.93	252.50
722.27	252.50
722.60	252.38
722.93	252.18
723.26	252.05
723.59	251.73
723.93	251.66
724.26	251.40
724.59	251.15
724.92	250.99
725.25	250.97
725.59	250.69
725.92	250.49
726.25	250.25
726.58	250.04
726.91	249.80
727.24	249.76
727.57	249.53
727.91	249.36
728.24	249.18
728.57	248.86
728.90	248.76
729.23	248.36
729.56	248.40
729.89	248.16
730.22	247.93
730.55	247.73
730.89	247.49
731.22	247.30
731.55	247.12
731.88	246.91
732.21	246.62
732.54	246.44
732.87	246.32
733.20	246.15
733.53	246.05
733.86	245.89
734.19	245.63
734.52	245.52
734.85	245.69
735.18	245.43
735.51	245.35
735.84	245.21
736.17	245.20
736.50	244.72
736.83	245.14
737.16	244.98
737.49	244.89
737.82	244.69
738.15	244.64
738.48	244.57
738.81	244.34
739.14	244.09
739.47	243.90
739.80	243.76
740.13	243.67
740.46	243.41
740.79	243.19
741.12	242.99
741.45	242.83
741.78	242.38
742.11	242.35
742.44	242.20
742.77	242.08
743.10	241.89
743.43	241.78
743.75	241.09
744.08	241.62
744.41	241.50
744.74	241.37
745.07	241.19
745.40	241.06
745.73	241.12
746.06	241.07
746.39	241.08
746.71	240.93
747.04	240.78
747.37	240.68
747.70	240.70
748.03	240.62
748.36	240.55
748.68	240.47
749.01	240.22
749.34	240.06
749.67	239.99
750.00	240.01
750.33	240.20
750.65	240.11
750.98	239.44
751.31	239.31
751.64	239.24
751.97	239.38
752.29	239.27
752.62	238.97
752.95	238.86
753.28	238.70
753.60	238.53
753.93	238.55
754.26	238.47
754.59	238.22
754.91	238.05
755.24	237.95
755.57	237.93
755.90	237.79
756.22	237.67
756.55	237.48
756.88	237.31
757.20	236.93
757.53	236.78
757.86	236.60
758.19	236.53
758.51	236.41
758.84	236.06
759.17	235.85
759.49	235.86
759.82	236.00
760.15	235.89
760.47	235.91
760.80	235.70
761.13	235.71
761.45	235.63
761.78	235.64
762.11	235.63
762.43	235.47
762.76	235.44
763.08	235.50
763.41	235.47
763.74	235.41
764.06	235.34
764.39	235.26
764.71	235.23
765.04	235.13
765.37	235.08
765.69	235.05
766.02	235.09
766.34	234.94
766.67	234.74
767.00	234.75
767.32	234.83
767.65	235.06
767.97	234.89
768.30	234.86
768.62	234.80
768.95	234.64
769.27	234.56
769.60	234.60
769.92	234.39
770.25	234.20
770.57	234.08
770.90	234.05
771.22	234.00
771.55	233.90
771.87	233.83
772.20	233.71
772.52	234.00
772.85	234.50
773.17	234.43
773.50	234.31
773.82	234.16
774.15	233.95
774.47	233.52
774.80	233.47
775.12	233.38
775.45	233.22
775.77	233.15
776.09	233.13
776.42	233.05
776.74	233.14
777.07	233.15
777.39	233.06
777.72	232.99
778.04	232.99
778.36	232.94
778.69	232.91
779.01	232.92
779.33	232.45
779.66	231.80
779.98	231.77
780.31	231.70
780.63	231.91
780.95	231.91
781.28	231.97
781.60	231.91
781.92	231.90
782.25	231.85
782.57	231.85
782.89	231.75
783.22	231.66
783.54	231.52
783.86	231.50
784.19	231.45
784.51	231.59
784.83	231.41
785.16	231.34
785.48	231.27
785.80	231.18
786.12	231.16
786.45	231.13
786.77	231.14
787.09	231.10
787.42	230.78
787.74	230.78
788.06	230.70
788.38	230.67
788.71	230.59
789.03	230.62
789.35	230.58
789.67	230.53
789.99	230.56
790.32	230.60
790.64	230.55
790.96	230.88
791.28	230.63
791.61	230.63
791.93	230.66
792.25	230.64
792.57	231.03
792.89	230.91
793.21	230.95
793.54	230.88
793.86	230.83
794.18	230.91
794.50	230.75
794.82	230.75
795.14	230.75
795.47	230.78
795.79	230.76
796.11	230.72
796.43	230.68
796.75	230.65
797.07	230.59
797.39	230.57
797.71	230.20
798.04	230.26
798.36	230.23
798.68	230.19
799.00	230.24
799.32	229.89
799.64	230.04
799.96	230.00
800.28	230.08
800.60	230.08
800.92	230.08
801.24	230.01
801.56	230.05
801.89	230.04
802.21	230.10
802.53	229.98
802.85	230.09
803.17	230.38
803.49	230.23
803.81	230.21
804.13	230.18
804.45	230.15
804.77	230.12
805.09	230.19
805.41	230.11
805.73	229.96
806.05	229.88
806.37	229.86
806.69	229.83
807.01	229.81
807.33	229.75
807.65	229.55
807.97	229.89
808.28	229.79
808.60	229.78
808.92	229.65
809.24	229.91
809.56	229.84
809.88	229.58
810.20	229.61
810.52	229.64
810.84	229.54
811.16	229.52
811.48	229.49
811.80	229.55
812.12	229.52
812.43	229.64
812.75	229.70
813.07	229.54
813.39	229.57
813.71	229.45
814.03	229.46
814.35	229.50
814.67	229.18
814.98	229.15
815.30	229.10
815.62	229.08
815.94	228.75
816.26	228.87
816.58	228.73
816.89	228.72
817.21	228.54
817.53	228.60
817.85	228.51
818.17	228.43
818.48	228.26
818.80	228.37
819.12	228.26
819.44	228.07
819.76	228.13
820.07	228.05
820.39	228.04
820.71	228.05
821.03	228.05
821.34	228.04
821.66	228.08
821.98	228.07
822.30	227.98
822.61	228.27
822.93	228.01
823.25	227.99
823.57	227.96
823.88	228.05
824.20	228.02
824.52	228.12
824.83	228.09
825.15	227.97
825.47	227.88
825.79	227.90
826.10	227.89
826.42	227.78
826.74	227.72
827.05	227.70
827.37	227.66
827.69	227.57
828.00	227.60
828.32	227.57
828.64	227.57
828.95	227.84
829.27	227.73
829.58	227.79
829.90	227.89
830.22	227.99
830.53	227.88
830.85	227.83
831.17	227.70
831.48	227.80
831.80	227.84
832.11	227.89
832.43	227.82
832.75	227.83
833.06	228.18
833.38	228.06
833.69	228.05
834.01	228.08
834.32	228.10
834.64	228.03
834.96	228.04
835.27	228.02
835.59	227.83
835.90	227.74
836.22	227.65
836.53	227.53
836.85	227.44
837.16	227.89
837.48	227.91
837.79	228.07
838.11	228.05
838.42	228.08
838.74	228.12
839.05	228.12
839.37	228.13
839.68	227.80
840.00	227.94
840.31	228.00
840.63	228.00
840.94	227.96
841.26	227.94
841.57	227.91
841.88	227.93
842.20	227.89
842.51	227.84
842.83	227.86
843.14	228.33
843.46	228.39
843.77	228.20
844.08	228.18
844.40	228.00
844.71	228.07
845.03	228.03
845.34	227.94
845.65	227.90
845.97	227.88
846.28	227.95
846.60	227.97
846.91	227.90
847.22	227.83
847.54	227.85
847.85	227.86
848.16	227.85
848.48	227.73
848.79	227.92
849.10	227.98
849.42	228.00
849.73	227.52
850.04	227.39
850.36	227.17
850.67	227.26
850.98	227.28
851.30	227.20
851.61	227.17
851.92	227.13
852.23	227.30
852.55	227.37
852.86	227.34
853.17	227.28
853.49	227.24
853.80	227.40
854.11	227.49
854.42	227.56
854.74	227.53
855.05	227.50
855.36	227.22
855.67	227.21
855.99	227.24
856.30	227.81
856.61	227.76
856.92	227.75
857.23	227.71
857.55	227.68
857.86	227.59
858.17	227.66
858.48	227.57
858.79	227.45
859.11	227.41
859.42	227.35
859.73	227.29
860.04	227.29
860.35	227.12
860.66	226.99
860.98	226.86
861.29	226.90
861.60	226.98
861.91	227.05
862.22	226.95
862.53	226.77
862.84	226.22
863.16	226.39
863.47	226.30
863.78	226.23
864.09	226.24
864.40	226.34
864.71	226.32
865.02	226.40
865.33	226.33
865.64	226.29
865.95	226.30
866.27	226.58
866.58	226.65
866.89	226.75
867.20	226.64
867.51	226.65
867.82	226.57
868.13	226.63
868.44	226.56
868.75	226.67
869.06	226.77
869.37	226.81
869.68	226.62
869.99	226.73
870.30	226.79
870.61	226.80
870.92	226.69
871.23	226.66
871.54	226.78
871.85	226.90
872.16	227.01
872.47	226.99
872.78	226.76
873.09	226.79
873.40	226.70
873.71	226.82
874.02	226.85
874.33	226.88
874.64	226.80
874.95	226.95
875.26	226.81
875.56	226.80
875.87	226.81
876.18	226.83
876.49	227.34
876.80	227.35
877.11	227.37
877.42	227.47
877.73	227.57
878.04	227.52
878.35	227.53
878.66	227.49
878.96	227.55
879.27	227.55
879.58	227.57
879.89	227.54
880.20	227.70
880.51	227.65
880.82	227.71
881.12	227.74
881.43	227.67
881.74	227.62
882.05	227.65
882.36	227.69
882.67	227.74
882.97	227.19
883.28	227.13
883.59	227.09
883.90	227.10
884.21	227.10
884.51	227.02
884.82	226.89
885.13	226.94
885.44	226.90
885.74	226.89
886.05	226.76
886.36	226.82
886.67	226.73
886.98	226.94
887.28	226.93
887.59	226.95
887.90	226.90
888.20	226.98
888.51	227.07
888.82	226.95
889.13	227.00
889.43	227.40
889.74	227.33
890.05	227.29
890.35	227.21
890.66	227.15
890.97	227.15
891.28	227.18
891.58	227.18
891.89	227.19
892.20	227.12
892.50	227.12
892.81	227.07
893.12	226.95
893.42	226.73
893.73	226.73
894.04	226.75
894.34	226.83
894.65	226.81
894.95	226.77
895.26	226.83
895.57	227.01
895.87	226.57
896.18	226.65
896.48	226.71
896.79	226.66
897.10	226.68
897.40	226.63
897.71	226.63
898.01	226.53
898.32	226.58
898.63	226.56
898.93	226.61
899.24	226.63
899.54	226.64
899.85	226.66
900.15	226.60
900.46	226.55
900.76	226.55
901.07	226.53
901.38	226.43
901.68	226.41
901.99	226.12
902.29	226.16
902.60	226.11
902.90	226.04
903.21	226.10
903.51	226.00
903.82	226.13
904.12	226.12
904.43	226.18
904.73	226.15
905.03	226.20
905.34	226.67
905.64	226.67
905.95	226.67
906.25	226.68
906.56	226.66
906.86	226.62
907.17	226.59
907.47	226.62
907.77	226.65
908.08	226.62
908.38	226.71
908.69	226.74
908.99	226.85
909.30	226.88
909.60	226.92
909.90	227.07
910.21	226.97
910.51	226.97
910.81	227.00
911.12	227.04
911.42	227.02
911.73	226.53
912.03	226.58
912.33	226.65
912.64	226.67
912.94	226.63
913.24	226.63
913.55	226.64
913.85	226.61
914.15	226.71
914.46	226.75
914.76	226.75
915.06	226.76
915.37	226.75
915.67	226.69
915.97	226.60
916.27	226.45
916.58	226.40
916.88	226.37
917.18	226.30
917.49	226.63
917.79	226.64
918.09	226.68
918.39	226.78
918.70	226.80
919.00	226.81
919.30	227.06
919.60	227.02
919.91	227.00
920.21	226.99
920.51	226.83
920.81	226.84
921.12	226.93
921.42	226.87
921.72	226.92
922.02	227.06
922.32	227.19
922.63	227.31
922.93	227.55
923.23	227.60
923.53	227.51
923.83	227.19
924.13	227.30
924.44	227.33
924.74	227.36
925.04	227.43
925.34	227.42
925.64	227.23
925.94	227.24
926.24	227.46
926.55	227.48
926.85	227.53
927.15	227.54
927.45	227.50
927.75	227.54
928.05	227.44
928.35	227.34
928.65	227.41
928.95	227.42
929.26	227.24
929.56	227.31
929.86	227.40
930.16	227.37
930.46	227.31
930.76	227.22
931.06	227.06
931.36	226.97
931.66	226.99
931.96	227.06
932.26	227.06
932.56	226.89
932.86	226.95
933.16	226.96
933.46	226.93
933.76	226.84
934.06	226.90
934.36	227.07
934.66	227.12
934.96	227.07
935.26	227.04
935.56	227.15
935.86	227.04
936.16	226.95
936.46	226.87
936.76	226.85
937.06	226.87
937.36	226.84
937.66	226.90
937.96	226.86
938.26	226.76
938.56	226.70
938.86	226.72
939.16	226.74
939.46	226.84
939.76	226.83
940.06	226.82
940.35	226.73
940.65	226.52
940.95	226.51
941.25	226.33
941.55	226.31
941.85	226.25
942.15	226.30
942.45	226.43
942.75	226.38
943.04	226.39
943.34	226.48
943.64	226.44
943.94	226.33
944.24	226.29
944.54	226.27
944.84	226.25
945.13	226.15
945.43	226.11
945.73	226.02
946.03	225.96
946.33	225.96
946.62	225.91
946.92	225.87
947.22	225.92
947.52	225.97
947.82	225.99
948.11	225.93
948.41	225.85
948.71	225.72
949.01	225.77
949.31	225.75
949.60	225.67
949.90	225.75
950.20	225.70
950.50	225.79
950.79	225.82
951.09	225.95
951.39	225.92
951.69	225.86
951.98	225.96
952.28	226.10
952.58	226.09
952.87	226.14
953.17	226.21
953.47	226.21
953.76	226.22
954.06	226.15
954.36	226.11
954.66	226.15
954.95	226.29
955.25	226.34
955.55	226.34
955.84	226.29
956.14	226.33
956.44	226.42
956.73	226.29
957.03	226.30
957.32	226.27
957.62	226.32
957.92	226.46
958.21	226.35
958.51	226.81
958.81	226.87
959.10	226.89
959.40	227.01
959.69	226.97
959.99	227.01
960.29	227.00
960.58	226.95
960.88	227.13
961.17	227.08
961.47	227.18
961.76	227.17
962.06	227.23
962.36	227.10
962.65	227.14
962.95	227.19
963.24	227.17
963.54	227.27
963.83	227.31
964.13	227.30
964.42	227.27
964.72	226.82
965.01	226.78
965.31	226.75
965.60	226.65
965.90	226.95
966.19	226.91
966.49	227.03
966.78	227.07
967.08	227.04
967.37	227.08
967.67	226.95
967.96	227.03
968.26	227.03
968.55	227.16
968.85	227.10
969.14	227.15
969.43	227.12
969.73	227.00
970.02	226.96
970.32	226.92
970.61	226.90
970.91	226.85
971.20	226.72
971.49	226.69
971.79	226.73
972.08	226.35
972.38	226.41
972.67	226.29
972.96	226.43
973.26	226.34
973.55	226.46
973.85	226.40
974.14	226.28
974.43	226.35
974.73	226.25
975.02	226.21
975.31	226.21
975.61	226.23
975.90	226.17
976.19	226.11
976.49	226.02
976.78	226.02
977.07	225.97
977.37	226.08
977.66	226.11
977.95	226.01
978.24	226.08
978.54	226.11
978.83	226.01
979.12	225.87
979.42	225.82
979.71	225.74
980.00	225.80
980.29	225.85
980.59	225.77
980.88	225.83
981.17	225.84
981.46	225.81
981.76	225.82
982.05	225.99
982.34	226.04
982.63	226.18
982.93	226.21
983.22	226.32
983.51	226.40
983.80	226.52
984.09	226.56
984.39	226.57
984.68	226.50
984.97	226.59
985.26	226.55
985.55	226.58
985.85	226.39
986.14	226.43
986.43	226.50
986.72	226.42
987.01	226.34
987.30	226.27
987.59	226.24
987.89	226.23
988.18	226.05
988.47	225.98
988.76	225.92
989.05	225.81
989.34	225.75
989.63	225.83
989.92	225.74
990.22	225.72
990.51	225.67
990.80	225.67
991.09	225.69
991.38	225.82
991.67	225.77
991.96	225.80
992.25	225.78
992.54	225.61
992.83	225.60
993.12	225.62
993.41	225.80
993.70	226.01
993.99	226.14
994.28	226.25
994.58	226.33
994.87	226.29
995.16	226.37
995.45	226.30
995.74	226.09
996.03	226.15
996.32	226.16
996.61	226.31
996.90	226.31
997.19	226.35
997.48	226.31
997.77	226.31
998.06	226.36
998.34	226.35
998.63	226.45
998.92	226.50
999.21	226.58
999.50	226.53
999.79	226.37
1000.08	226.31
1000.37	226.30
1000.66	226.15
1000.95	226.25
1001.24	226.27
1001.53	226.36
1001.82	226.39
1002.11	226.25
1002.40	226.35
1002.68	226.43
1002.97	226.78
1003.26	226.70
1003.55	226.62
1003.84	226.58
1004.13	226.77
1004.42	226.71
1004.71	226.68
1004.99	226.64
1005.28	226.73
1005.57	226.72
1005.86	226.67
1006.15	226.56
1006.44	226.47
1006.72	226.57
1007.01	226.53
1007.30	226.52
1007.59	226.49
1007.88	226.47
1008.17	226.50
1008.45	226.36
1008.74	226.15
1009.03	225.80
1009.32	225.80
1009.60	225.79
1009.89	225.80
1010.18	225.58
1010.47	225.61
1010.76	225.54
1011.04	225.56
1011.33	225.55
1011.62	225.49
1011.91	225.53
1012.19	225.67
1012.48	225.72
1012.77	225.76
1013.05	225.93
1013.34	225.93
1013.63	225.87
1013.92	225.94
1014.20	225.90
1014.49	225.93
1014.78	225.93
1015.06	225.81
1015.35	225.81
1015.64	225.95
1015.92	225.97
1016.21	226.05
1016.50	226.02
1016.78	226.12
1017.07	226.21
1017.36	226.09
1017.64	226.07
1017.93	226.08
1018.22	225.96
1018.50	225.94
1018.79	225.85
1019.08	225.63
1019.36	225.64
1019.65	225.60
1019.93	225.73
1020.22	225.76
1020.51	226.04
1020.79	226.02
1021.08	225.10
1021.36	225.30
1021.65	225.00
1021.94	225.30
1022.22	226.05
1022.51	224.70
1022.79	228.70
1023.08	224.90
1023.36	232.30
1023.65	224.75
>>>>>End Processed Spectral Data<<<<<
