SpectraSuite Data File
++++++++++++++++++++++++++++++++++++
Date: Wed Sep 04 17:49:09 EDT 2013
User: lab3
Dark Spectrum Present: Yes
Reference Spectrum Present: No
Number of Sampled Component Spectra: 1
Spectrometers: USB2E7196
Integration Time (usec): 170000 (USB2E7196)
Spectra Averaged: 20 (USB2E7196)
Boxcar Smoothing: 10 (USB2E7196)
Correct for Electrical Dark: No (USB2E7196)
Strobe/Lamp Enabled: No (USB2E7196)
Correct for Detector Non-linearity: No (USB2E7196)
Correct for Stray Light: No (USB2E7196)
Number of Pixels in Processed Spectrum: 2048
>>>>>Begin Processed Spectral Data<<<<<
339.09	0.00
339.48	213.80
339.86	213.75
340.24	215.85
340.63	217.45
341.01	226.20
341.39	219.70
341.78	221.85
342.16	223.50
342.54	224.50
342.93	212.19
343.31	222.86
343.69	223.40
344.07	223.93
344.46	224.38
344.84	224.89
345.22	224.83
345.60	225.09
345.99	225.23
346.37	225.35
346.75	225.40
347.13	225.41
347.52	225.55
347.90	225.80
348.28	225.77
348.66	225.84
349.05	225.75
349.43	225.87
349.81	225.92
350.19	225.94
350.57	226.06
350.96	226.13
351.34	226.26
351.72	226.32
352.10	226.35
352.48	226.40
352.87	226.37
353.25	226.41
353.63	226.47
354.01	226.57
354.39	226.62
354.77	226.70
355.15	226.90
355.54	226.90
355.92	226.77
356.30	226.92
356.68	227.30
357.06	227.40
357.44	227.38
357.82	227.44
358.20	227.93
358.58	227.97
358.97	228.12
359.35	228.34
359.73	228.44
360.11	228.52
360.49	228.56
360.87	228.61
361.25	228.71
361.63	228.96
362.01	229.05
362.39	229.02
362.77	229.07
363.15	229.13
363.53	229.19
363.91	229.29
364.29	229.28
364.67	228.81
365.05	228.81
365.43	228.93
365.81	229.00
366.19	228.83
366.57	229.04
366.95	228.95
367.33	228.73
367.71	228.74
368.09	228.89
368.47	228.97
368.85	228.93
369.23	229.09
369.61	228.89
369.99	229.08
370.37	229.16
370.75	229.37
371.13	229.20
371.51	229.06
371.89	229.07
372.27	229.12
372.65	229.15
373.03	229.06
373.41	228.98
373.78	228.86
374.16	228.64
374.54	228.47
374.92	228.46
375.30	228.51
375.68	228.46
376.06	228.42
376.44	228.33
376.82	228.26
377.19	228.10
377.57	228.09
377.95	227.79
378.33	227.78
378.71	227.44
379.09	227.49
379.47	227.55
379.84	227.41
380.22	227.24
380.60	227.16
380.98	227.15
381.36	227.18
381.73	227.14
382.11	227.15
382.49	227.11
382.87	226.99
383.25	226.86
383.62	227.31
384.00	227.14
384.38	227.05
384.76	227.04
385.13	227.20
385.51	227.08
385.89	227.04
386.27	226.98
386.64	227.05
387.02	226.95
387.40	226.86
387.78	226.91
388.15	226.96
388.53	226.82
388.91	226.82
389.29	226.67
389.66	226.75
390.04	226.70
390.42	226.64
390.79	226.69
391.17	226.67
391.55	226.12
391.92	226.13
392.30	226.17
392.68	226.13
393.05	226.12
393.43	226.16
393.81	226.17
394.18	226.04
394.56	226.07
394.94	226.15
395.31	226.16
395.69	226.28
396.06	226.39
396.44	226.48
396.82	226.38
397.19	226.66
397.57	226.59
397.95	226.73
398.32	226.75
398.70	226.78
399.07	226.94
399.45	226.96
399.82	227.08
400.20	227.02
400.58	227.12
400.95	226.97
401.33	227.19
401.70	227.58
402.08	227.75
402.45	227.83
402.83	228.06
403.20	228.18
403.58	228.26
403.95	228.41
404.33	228.68
404.71	228.95
405.08	229.39
405.46	229.59
405.83	229.78
406.21	230.08
406.58	230.40
406.96	230.67
407.33	231.06
407.70	231.30
408.08	232.21
408.45	232.71
408.83	233.27
409.20	233.60
409.58	233.86
409.95	234.43
410.33	234.95
410.70	235.39
411.08	236.10
411.45	236.74
411.82	237.28
412.20	238.02
412.57	239.04
412.95	239.33
413.32	240.21
413.69	241.05
414.07	241.90
414.44	242.85
414.82	243.90
415.19	245.07
415.56	246.31
415.94	247.17
416.31	248.52
416.68	249.87
417.06	251.55
417.43	253.17
417.81	254.79
418.18	256.59
418.55	258.56
418.93	260.48
419.30	262.50
419.67	264.75
420.04	266.99
420.42	269.25
420.79	272.30
421.16	275.06
421.54	278.11
421.91	281.18
422.28	284.19
422.66	287.36
423.03	290.76
423.40	294.09
423.77	297.65
424.15	301.29
424.52	305.05
424.89	309.06
425.26	312.92
425.64	316.80
426.01	320.93
426.38	325.11
426.75	329.55
427.13	334.11
427.50	338.81
427.87	343.64
428.24	348.48
428.61	352.96
428.99	358.22
429.36	363.67
429.73	369.09
430.10	374.54
430.47	380.19
430.85	385.73
431.22	391.85
431.59	398.60
431.96	404.67
432.33	411.64
432.70	418.27
433.08	426.05
433.45	433.36
433.82	440.71
434.19	448.95
434.56	457.03
434.93	464.71
435.30	472.38
435.68	481.02
436.05	489.30
436.42	497.42
436.79	505.03
437.16	513.22
437.53	521.86
437.90	530.52
438.27	538.98
438.64	547.93
439.01	556.24
439.38	563.43
439.75	570.60
440.13	578.54
440.50	585.94
440.87	592.09
441.24	598.47
441.61	605.38
441.98	610.40
442.35	616.29
442.72	622.28
443.09	628.07
443.46	631.40
443.83	633.80
444.20	635.84
444.57	638.53
444.94	639.53
445.31	640.72
445.68	642.12
446.05	642.42
446.42	641.08
446.79	639.68
447.16	637.93
447.53	636.59
447.90	632.93
448.27	629.37
448.64	624.36
449.01	620.49
449.37	614.40
449.74	608.41
450.11	601.54
450.48	593.77
450.85	585.83
451.22	579.01
451.59	572.52
451.96	566.42
452.33	558.36
452.70	551.21
453.07	542.41
453.43	533.30
453.80	524.97
454.17	516.90
454.54	509.20
454.91	501.13
455.28	493.21
455.65	485.70
456.02	478.99
456.38	472.75
456.75	465.29
457.12	458.88
457.49	452.64
457.86	446.30
458.23	441.22
458.59	435.58
458.96	429.83
459.33	424.66
459.70	419.50
460.07	415.46
460.43	410.77
460.80	406.64
461.17	402.96
461.54	399.00
461.91	395.29
462.27	391.44
462.64	388.22
463.01	384.74
463.38	381.50
463.74	377.47
464.11	374.51
464.48	371.87
464.85	368.96
465.21	366.90
465.58	364.66
465.95	361.82
466.32	359.64
466.68	357.51
467.05	355.34
467.42	353.07
467.78	350.78
468.15	348.69
468.52	347.10
468.88	344.87
469.25	342.92
469.62	341.50
469.98	339.88
470.35	338.41
470.72	336.96
471.08	335.36
471.45	334.17
471.82	332.92
472.18	331.52
472.55	330.54
472.92	329.21
473.28	328.06
473.65	326.99
474.02	325.94
474.38	325.08
474.75	324.39
475.11	323.73
475.48	323.10
475.85	322.45
476.21	321.79
476.58	321.39
476.94	321.05
477.31	320.58
477.67	320.12
478.04	319.84
478.41	319.67
478.77	319.89
479.14	319.46
479.50	319.35
479.87	319.34
480.23	319.33
480.60	319.25
480.96	319.22
481.33	319.62
481.69	319.83
482.06	319.98
482.42	320.20
482.79	320.46
483.15	320.87
483.52	321.53
483.88	322.06
484.25	322.58
484.61	323.23
484.98	323.87
485.34	324.85
485.71	325.67
486.07	326.58
486.44	327.15
486.80	328.21
487.17	329.32
487.53	330.66
487.90	332.08
488.26	333.77
488.62	335.41
488.99	336.96
489.35	338.76
489.72	340.65
490.08	342.64
490.44	344.69
490.81	346.98
491.17	349.13
491.54	351.63
491.90	354.20
492.26	356.86
492.63	359.74
492.99	362.69
493.36	365.86
493.72	369.25
494.08	372.70
494.45	376.47
494.81	380.41
495.17	384.36
495.54	388.53
495.90	392.67
496.26	397.11
496.63	401.70
496.99	406.33
497.35	411.36
497.72	416.55
498.08	421.99
498.44	427.69
498.80	433.76
499.17	439.74
499.53	446.02
499.89	452.61
500.26	459.30
500.62	466.16
500.98	473.45
501.34	480.77
501.71	488.49
502.07	496.19
502.43	504.16
502.79	512.53
503.16	521.08
503.52	529.99
503.88	539.27
504.24	548.86
504.60	558.94
504.97	569.25
505.33	579.57
505.69	590.79
506.05	601.60
506.41	612.61
506.78	624.21
507.14	636.14
507.50	648.29
507.86	660.70
508.22	673.48
508.59	686.36
508.95	700.09
509.31	714.10
509.67	728.27
510.03	742.49
510.39	757.14
510.75	772.25
511.12	787.40
511.48	802.92
511.84	818.74
512.20	834.42
512.56	850.31
512.92	867.06
513.28	883.37
513.64	900.74
514.00	918.35
514.37	935.99
514.73	953.98
515.09	972.20
515.45	990.63
515.81	1008.98
516.17	1027.69
516.53	1045.94
516.89	1064.58
517.25	1083.83
517.61	1104.00
517.97	1124.02
518.33	1143.91
518.69	1164.11
519.05	1184.30
519.41	1204.53
519.77	1225.74
520.13	1246.53
520.49	1267.15
520.85	1289.42
521.21	1310.32
521.57	1331.22
521.93	1351.86
522.29	1372.86
522.65	1393.38
523.01	1414.19
523.37	1434.73
523.73	1455.91
524.09	1476.44
524.45	1496.89
524.81	1517.73
525.17	1538.18
525.53	1558.64
525.89	1579.17
526.25	1599.95
526.61	1620.38
526.97	1641.34
527.33	1662.42
527.68	1683.89
528.04	1704.98
528.40	1724.31
528.76	1745.05
529.12	1765.05
529.48	1785.86
529.84	1805.93
530.20	1826.81
530.56	1847.17
530.91	1867.79
531.27	1887.72
531.63	1908.19
531.99	1928.76
532.35	1948.38
532.71	1968.38
533.07	1988.46
533.42	2008.19
533.78	2027.46
534.14	2046.87
534.50	2065.76
534.86	2084.59
535.21	2101.95
535.57	2119.81
535.93	2137.24
536.29	2154.67
536.65	2172.65
537.00	2189.83
537.36	2206.89
537.72	2223.12
538.08	2239.78
538.44	2255.77
538.79	2271.90
539.15	2288.02
539.51	2303.40
539.87	2318.49
540.22	2331.86
540.58	2346.31
540.94	2359.07
541.29	2371.53
541.65	2383.73
542.01	2395.73
542.37	2405.92
542.72	2416.70
543.08	2427.27
543.44	2438.77
543.79	2448.64
544.15	2458.50
544.51	2468.48
544.87	2477.99
545.22	2486.44
545.58	2494.18
545.94	2501.50
546.29	2507.72
546.65	2513.81
547.01	2519.44
547.36	2524.82
547.72	2530.25
548.07	2533.64
548.43	2538.66
548.79	2543.13
549.14	2546.86
549.50	2550.52
549.86	2554.13
550.21	2557.68
550.57	2560.70
550.92	2561.93
551.28	2562.95
551.64	2564.83
551.99	2566.24
552.35	2567.37
552.70	2569.40
553.06	2570.76
553.41	2571.80
553.77	2573.57
554.13	2574.94
554.48	2576.15
554.84	2577.16
555.19	2578.30
555.55	2580.08
555.90	2579.57
556.26	2578.75
556.61	2577.22
556.97	2574.95
557.32	2574.25
557.68	2573.20
558.03	2572.00
558.39	2570.73
558.74	2569.63
559.10	2566.31
559.45	2562.71
559.81	2558.55
560.16	2553.08
560.52	2548.34
560.87	2544.22
561.23	2538.36
561.58	2532.37
561.94	2525.23
562.29	2517.84
562.64	2510.75
563.00	2502.38
563.35	2495.63
563.71	2488.82
564.06	2482.72
564.42	2476.27
564.77	2469.09
565.12	2461.10
565.48	2452.91
565.83	2444.99
566.19	2437.35
566.54	2429.88
566.89	2421.84
567.25	2413.87
567.60	2406.93
567.96	2399.18
568.31	2391.05
568.66	2382.64
569.02	2373.46
569.37	2365.34
569.72	2357.81
570.08	2348.27
570.43	2338.62
570.78	2329.70
571.14	2320.40
571.49	2310.34
571.84	2300.71
572.20	2290.13
572.55	2280.15
572.90	2269.69
573.26	2259.28
573.61	2248.12
573.96	2236.86
574.31	2224.85
574.67	2213.35
575.02	2200.60
575.37	2188.06
575.72	2175.12
576.08	2163.12
576.43	2150.90
576.78	2138.25
577.13	2124.90
577.49	2112.45
577.84	2101.02
578.19	2088.95
578.54	2076.59
578.90	2064.71
579.25	2052.50
579.60	2040.02
579.95	2027.05
580.30	2013.93
580.66	2000.43
581.01	1986.97
581.36	1973.24
581.71	1960.83
582.06	1947.95
582.42	1935.53
582.77	1923.02
583.12	1911.04
583.47	1899.04
583.82	1887.08
584.17	1875.09
584.53	1863.49
584.88	1851.04
585.23	1837.80
585.58	1823.73
585.93	1810.72
586.28	1797.40
586.63	1783.54
586.98	1769.57
587.34	1756.83
587.69	1743.70
588.04	1731.56
588.39	1719.59
588.74	1707.50
589.09	1695.52
589.44	1682.90
589.79	1670.84
590.14	1659.12
590.49	1647.04
590.84	1634.87
591.19	1623.08
591.54	1610.81
591.89	1598.62
592.25	1588.52
592.60	1577.23
592.95	1566.34
593.30	1554.51
593.65	1542.87
594.00	1531.47
594.35	1521.94
594.70	1510.10
595.05	1498.71
595.40	1486.73
595.75	1475.02
596.10	1463.81
596.45	1452.36
596.80	1441.81
597.15	1430.58
597.50	1419.01
597.85	1407.92
598.19	1396.28
598.54	1384.84
598.89	1373.99
599.24	1363.62
599.59	1351.98
599.94	1341.33
600.29	1330.56
600.64	1320.25
600.99	1309.66
601.34	1300.15
601.69	1289.17
602.04	1279.59
602.39	1270.24
602.74	1261.26
603.08	1252.10
603.43	1242.97
603.78	1233.54
604.13	1224.07
604.48	1214.71
604.83	1205.13
605.18	1195.60
605.53	1186.53
605.87	1177.49
606.22	1168.84
606.57	1159.47
606.92	1150.24
607.27	1141.59
607.62	1133.18
607.96	1124.73
608.31	1117.05
608.66	1108.70
609.01	1100.23
609.36	1091.87
609.70	1083.62
610.05	1075.04
610.40	1066.66
610.75	1058.21
611.10	1049.95
611.44	1041.41
611.79	1033.28
612.14	1025.55
612.49	1017.53
612.83	1010.05
613.18	1002.45
613.53	995.05
613.88	987.32
614.22	979.94
614.57	972.31
614.92	964.69
615.27	957.49
615.61	949.77
615.96	942.04
616.31	934.69
616.65	927.91
617.00	920.59
617.35	913.63
617.70	906.63
618.04	899.64
618.39	892.89
618.74	886.59
619.08	879.91
619.43	873.23
619.78	866.47
620.12	859.45
620.47	852.61
620.82	845.54
621.16	838.93
621.51	832.69
621.85	826.20
622.20	819.68
622.55	813.15
622.89	806.79
623.24	800.61
623.59	794.28
623.93	787.93
624.28	781.98
624.62	776.36
624.97	770.69
625.32	765.10
625.66	759.17
626.01	753.28
626.35	747.95
626.70	742.45
627.04	737.23
627.39	731.79
627.73	726.76
628.08	721.61
628.43	716.24
628.77	710.68
629.12	705.56
629.46	700.82
629.81	696.10
630.15	691.42
630.50	686.71
630.84	681.97
631.19	677.26
631.53	672.85
631.88	667.72
632.22	662.76
632.57	658.24
632.91	653.71
633.26	649.26
633.60	644.53
633.95	639.96
634.29	635.35
634.64	631.09
634.98	626.33
635.32	622.01
635.67	618.06
636.01	613.93
636.36	609.54
636.70	605.55
637.05	601.61
637.39	597.63
637.73	593.51
638.08	589.60
638.42	585.36
638.77	581.00
639.11	576.71
639.45	572.69
639.80	568.35
640.14	564.22
640.49	560.18
640.83	556.51
641.17	552.97
641.52	549.33
641.86	545.74
642.20	542.62
642.55	539.08
642.89	535.40
643.23	532.02
643.58	529.04
643.92	525.35
644.26	521.88
644.61	518.70
644.95	515.56
645.29	512.23
645.64	509.17
645.98	506.09
646.32	503.31
646.66	500.08
647.01	497.21
647.35	494.74
647.69	491.98
648.04	489.20
648.38	486.29
648.72	483.42
649.06	480.50
649.41	477.58
649.75	474.64
650.09	471.95
650.43	469.17
650.78	466.21
651.12	463.46
651.46	460.74
651.80	457.88
652.14	455.10
652.49	452.70
652.83	450.22
653.17	447.64
653.51	444.86
653.85	442.55
654.20	440.03
654.54	437.26
654.88	434.70
655.22	432.55
655.56	430.11
655.90	427.80
656.25	425.51
656.59	423.21
656.93	421.09
657.27	419.04
657.61	416.65
657.95	414.53
658.29	412.47
658.64	410.37
658.98	408.23
659.32	406.17
659.66	403.92
660.00	401.77
660.34	399.79
660.68	397.84
661.02	395.91
661.36	394.12
661.70	392.18
662.05	390.24
662.39	388.15
662.73	386.26
663.07	384.67
663.41	382.92
663.75	380.96
664.09	379.18
664.43	377.28
664.77	375.73
665.11	374.03
665.45	372.33
665.79	370.72
666.13	369.07
666.47	367.30
666.81	365.67
667.15	363.95
667.49	362.39
667.83	361.12
668.17	359.61
668.51	358.16
668.85	356.92
669.19	355.80
669.53	354.28
669.87	352.93
670.21	351.38
670.55	350.01
670.89	348.92
671.23	347.61
671.57	346.27
671.91	344.97
672.25	343.60
672.58	342.42
672.92	340.92
673.26	339.72
673.60	338.64
673.94	337.47
674.28	336.49
674.62	335.36
674.96	334.02
675.30	332.81
675.64	331.59
675.97	330.33
676.31	329.01
676.65	327.90
676.99	326.95
677.33	325.82
677.67	324.76
678.01	323.46
678.34	322.37
678.68	321.39
679.02	320.26
679.36	319.30
679.70	318.25
680.04	317.35
680.37	316.37
680.71	315.33
681.05	314.40
681.39	313.48
681.73	312.59
682.06	311.70
682.40	310.92
682.74	310.10
683.08	309.35
683.42	308.41
683.75	307.67
684.09	306.69
684.43	305.90
684.77	305.11
685.10	304.31
685.44	303.59
685.78	302.75
686.12	302.08
686.45	301.33
686.79	300.50
687.13	299.90
687.46	299.20
687.80	298.63
688.14	297.90
688.48	297.18
688.81	296.44
689.15	295.85
689.49	295.04
689.82	294.33
690.16	293.58
690.50	293.02
690.83	292.25
691.17	291.46
691.51	290.84
691.84	290.17
692.18	289.58
692.52	288.80
692.85	288.24
693.19	287.82
693.52	287.17
693.86	286.59
694.20	285.82
694.53	285.16
694.87	284.52
695.21	283.83
695.54	283.19
695.88	282.52
696.21	281.74
696.55	281.16
696.88	280.46
697.22	279.81
697.56	279.26
697.89	278.62
698.23	278.23
698.56	277.66
698.90	277.20
699.23	276.54
699.57	276.15
699.90	275.60
700.24	274.86
700.58	274.40
700.91	273.98
701.25	273.95
701.58	273.88
701.92	273.52
702.25	273.15
702.59	272.68
702.92	272.30
703.26	271.97
703.59	271.60
703.93	271.63
704.26	271.23
704.60	270.83
704.93	270.44
705.26	269.90
705.60	269.49
705.93	268.96
706.27	268.78
706.60	268.42
706.94	268.27
707.27	267.86
707.61	267.50
707.94	267.05
708.27	266.23
708.61	265.42
708.94	264.90
709.28	264.53
709.61	264.08
709.94	263.66
710.28	263.21
710.61	262.81
710.95	262.09
711.28	262.10
711.61	261.66
711.95	261.40
712.28	261.08
712.61	260.73
712.95	260.65
713.28	260.54
713.61	260.18
713.95	259.65
714.28	259.37
714.61	258.98
714.95	258.68
715.28	258.32
715.61	257.98
715.95	257.78
716.28	257.47
716.61	257.28
716.95	256.98
717.28	256.73
717.61	256.48
717.94	256.12
718.28	255.44
718.61	255.17
718.94	254.93
719.27	254.66
719.61	254.51
719.94	254.15
720.27	253.60
720.60	253.27
720.94	253.02
721.27	252.79
721.60	252.65
721.93	252.36
722.27	252.39
722.60	252.37
722.93	252.10
723.26	251.93
723.59	251.63
723.93	251.51
724.26	251.27
724.59	251.02
724.92	250.85
725.25	250.76
725.59	250.56
725.92	250.36
726.25	250.21
726.58	250.00
726.91	249.78
727.24	249.67
727.57	249.46
727.91	249.19
728.24	249.06
728.57	248.73
728.90	248.63
729.23	248.20
729.56	248.17
729.89	247.98
730.22	247.76
730.55	247.61
730.89	247.38
731.22	247.18
731.55	246.92
731.88	246.84
732.21	246.68
732.54	246.48
732.87	246.21
733.20	246.06
733.53	245.91
733.86	245.80
734.19	245.56
734.52	245.50
734.85	245.68
735.18	245.43
735.51	245.51
735.84	245.44
736.17	245.43
736.50	244.99
736.83	245.36
737.16	245.19
737.49	245.07
737.82	244.85
738.15	244.81
738.48	244.77
738.81	244.58
739.14	244.31
739.47	244.11
739.80	244.06
740.13	243.95
740.46	243.68
740.79	243.43
741.12	243.25
741.45	243.01
741.78	242.57
742.11	242.56
742.44	242.30
742.77	242.12
743.10	241.93
743.43	241.74
743.75	241.05
744.08	241.53
744.41	241.37
744.74	241.25
745.07	241.06
745.40	240.94
745.73	240.99
746.06	240.92
746.39	240.79
746.71	240.55
747.04	240.35
747.37	240.17
747.70	240.11
748.03	240.08
748.36	240.07
748.68	239.97
749.01	239.69
749.34	239.55
749.67	239.36
750.00	239.24
750.33	239.56
750.65	239.56
750.98	238.89
751.31	238.80
751.64	238.71
751.97	238.80
752.29	238.67
752.62	238.35
752.95	238.17
753.28	238.04
753.60	237.92
753.93	237.93
754.26	237.92
754.59	237.67
754.91	237.40
755.24	237.24
755.57	237.20
755.90	237.04
756.22	236.96
756.55	236.80
756.88	236.59
757.20	236.04
757.53	235.78
757.86	235.64
758.19	235.59
758.51	235.46
758.84	235.13
759.17	235.04
759.49	234.95
759.82	235.11
760.15	235.08
760.47	235.00
760.80	234.70
761.13	234.64
761.45	234.54
761.78	234.50
762.11	234.43
762.43	234.22
762.76	234.17
763.08	234.03
763.41	234.07
763.74	234.11
764.06	234.15
764.39	234.16
764.71	234.05
765.04	233.85
765.37	233.79
765.69	233.68
766.02	233.58
766.34	233.50
766.67	233.25
767.00	233.26
767.32	233.44
767.65	233.79
767.97	233.69
768.30	233.71
768.62	233.60
768.95	233.43
769.27	233.35
769.60	233.36
769.92	233.27
770.25	233.07
770.57	232.97
770.90	232.85
771.22	232.74
771.55	232.66
771.87	232.69
772.20	232.57
772.52	232.92
772.85	233.36
773.17	233.31
773.50	233.22
773.82	233.20
774.15	232.86
774.47	232.50
774.80	232.41
775.12	232.28
775.45	232.28
775.77	232.31
776.09	232.30
776.42	232.25
776.74	232.39
777.07	232.29
777.39	232.21
777.72	232.14
778.04	232.16
778.36	232.06
778.69	232.01
779.01	232.06
779.33	231.59
779.66	231.06
779.98	231.03
780.31	230.98
780.63	230.99
780.95	231.10
781.28	231.04
781.60	230.87
781.92	230.90
782.25	230.84
782.57	230.84
782.89	230.80
783.22	230.76
783.54	230.55
783.86	230.59
784.19	230.51
784.51	230.55
784.83	230.36
785.16	230.34
785.48	230.31
785.80	230.20
786.12	230.29
786.45	230.31
786.77	230.27
787.09	230.24
787.42	230.04
787.74	229.94
788.06	229.85
788.38	229.87
788.71	229.79
789.03	229.78
789.35	229.73
789.67	229.64
789.99	229.62
790.32	229.52
790.64	229.57
790.96	229.94
791.28	229.77
791.61	229.76
791.93	229.76
792.25	229.69
792.57	230.00
792.89	229.84
793.21	229.76
793.54	229.65
793.86	229.58
794.18	229.64
794.50	229.60
794.82	229.61
795.14	229.64
795.47	229.66
795.79	229.68
796.11	229.53
796.43	229.49
796.75	229.44
797.07	229.47
797.39	229.39
797.71	229.04
798.04	229.02
798.36	229.03
798.68	228.95
799.00	229.05
799.32	228.76
799.64	228.89
799.96	228.94
800.28	229.08
800.60	229.03
800.92	229.06
801.24	229.02
801.56	229.07
801.89	229.06
802.21	229.10
802.53	228.99
802.85	229.11
803.17	229.34
803.49	229.26
803.81	229.27
804.13	229.23
804.45	229.20
804.77	229.31
805.09	229.40
805.41	229.41
805.73	229.26
806.05	229.22
806.37	229.11
806.69	229.05
807.01	228.92
807.33	228.99
807.65	228.77
807.97	229.04
808.28	228.98
808.60	228.94
808.92	228.92
809.24	229.24
809.56	229.17
809.88	228.98
810.20	228.98
810.52	229.05
810.84	228.98
811.16	228.94
811.48	228.85
811.80	228.95
812.12	228.93
812.43	229.06
812.75	229.06
813.07	229.05
813.39	228.98
813.71	228.97
814.03	228.88
814.35	228.96
814.67	228.68
814.98	228.66
815.30	228.69
815.62	228.60
815.94	228.25
816.26	228.53
816.58	228.46
816.89	228.57
817.21	228.45
817.53	228.54
817.85	228.46
818.17	228.53
818.48	228.31
818.80	228.40
819.12	228.34
819.44	228.26
819.76	228.17
820.07	228.22
820.39	228.19
820.71	228.19
821.03	228.12
821.34	228.07
821.66	228.11
821.98	228.13
822.30	228.07
822.61	228.33
822.93	227.97
823.25	228.01
823.57	227.80
823.88	227.84
824.20	227.78
824.52	227.87
824.83	227.83
825.15	227.72
825.47	227.68
825.79	227.63
826.10	227.58
826.42	227.55
826.74	227.52
827.05	227.49
827.37	227.53
827.69	227.47
828.00	227.49
828.32	227.44
828.64	227.35
828.95	227.60
829.27	227.52
829.58	227.57
829.90	227.62
830.22	227.73
830.53	227.69
830.85	227.67
831.17	227.59
831.48	227.55
831.80	227.60
832.11	227.56
832.43	227.55
832.75	227.58
833.06	227.89
833.38	227.80
833.69	227.79
834.01	227.79
834.32	227.83
834.64	227.80
834.96	227.80
835.27	227.80
835.59	227.62
835.90	227.53
836.22	227.44
836.53	227.24
836.85	227.18
837.16	227.60
837.48	227.53
837.79	227.68
838.11	227.67
838.42	227.74
838.74	227.77
839.05	227.72
839.37	227.67
839.68	227.35
840.00	227.35
840.31	227.41
840.63	227.35
840.94	227.32
841.26	227.25
841.57	227.23
841.88	227.33
842.20	227.24
842.51	227.16
842.83	227.23
843.14	227.68
843.46	227.66
843.77	227.50
844.08	227.57
844.40	227.41
844.71	227.38
845.03	227.29
845.34	227.28
845.65	227.32
845.97	227.37
846.28	227.36
846.60	227.35
846.91	227.29
847.22	227.23
847.54	227.34
847.85	227.40
848.16	227.38
848.48	227.19
848.79	227.43
849.10	227.46
849.42	227.45
849.73	227.10
850.04	227.08
850.36	226.83
850.67	226.85
850.98	226.84
851.30	226.87
851.61	226.85
851.92	226.80
852.23	226.86
852.55	226.95
852.86	226.99
853.17	227.08
853.49	227.12
853.80	227.29
854.11	227.30
854.42	227.40
854.74	227.31
855.05	227.37
855.36	227.14
855.67	227.13
855.99	227.20
856.30	227.69
856.61	227.73
856.92	227.70
857.23	227.73
857.55	227.68
857.86	227.60
858.17	227.69
858.48	227.59
858.79	227.46
859.11	227.51
859.42	227.49
859.73	227.38
860.04	227.36
860.35	227.19
860.66	227.03
860.98	226.92
861.29	227.01
861.60	226.92
861.91	227.00
862.22	226.95
862.53	226.81
862.84	226.31
863.16	226.43
863.47	226.36
863.78	226.30
864.09	226.36
864.40	226.38
864.71	226.35
865.02	226.46
865.33	226.40
865.64	226.21
865.95	226.12
866.27	226.46
866.58	226.47
866.89	226.55
867.20	226.61
867.51	226.56
867.82	226.54
868.13	226.75
868.44	226.59
868.75	226.63
869.06	226.67
869.37	226.68
869.68	226.40
869.99	226.45
870.30	226.49
870.61	226.51
870.92	226.47
871.23	226.43
871.54	226.44
871.85	226.60
872.16	226.69
872.47	226.79
872.78	226.48
873.09	226.39
873.40	226.33
873.71	226.30
874.02	226.35
874.33	226.27
874.64	226.14
874.95	226.29
875.26	226.19
875.56	226.20
875.87	226.13
876.18	226.25
876.49	226.75
876.80	226.67
877.11	226.58
877.42	226.65
877.73	226.73
878.04	226.70
878.35	226.67
878.66	226.68
878.96	226.62
879.27	226.67
879.58	226.69
879.89	226.74
880.20	226.88
880.51	226.87
880.82	226.91
881.12	226.88
881.43	226.77
881.74	226.75
882.05	226.67
882.36	226.79
882.67	226.81
882.97	226.31
883.28	226.32
883.59	226.35
883.90	226.38
884.21	226.37
884.51	226.37
884.82	226.30
885.13	226.25
885.44	226.25
885.74	226.22
886.05	226.25
886.36	226.21
886.67	226.07
886.98	226.29
887.28	226.39
887.59	226.43
887.90	226.50
888.20	226.55
888.51	226.67
888.82	226.63
889.13	226.64
889.43	227.03
889.74	227.00
890.05	226.95
890.35	226.89
890.66	226.85
890.97	226.84
891.28	226.85
891.58	226.95
891.89	226.97
892.20	226.94
892.50	226.92
892.81	226.94
893.12	226.84
893.42	226.61
893.73	226.53
894.04	226.55
894.34	226.54
894.65	226.54
894.95	226.51
895.26	226.48
895.57	226.72
895.87	226.30
896.18	226.38
896.48	226.36
896.79	226.33
897.10	226.40
897.40	226.40
897.71	226.39
898.01	226.27
898.32	226.35
898.63	226.33
898.93	226.39
899.24	226.44
899.54	226.50
899.85	226.55
900.15	226.61
900.46	226.58
900.76	226.65
901.07	226.61
901.38	226.56
901.68	226.59
901.99	226.27
902.29	226.25
902.60	226.23
902.90	226.21
903.21	226.28
903.51	226.25
903.82	226.33
904.12	226.34
904.43	226.36
904.73	226.36
905.03	226.40
905.34	226.83
905.64	226.76
905.95	226.75
906.25	226.63
906.56	226.59
906.86	226.58
907.17	226.48
907.47	226.48
907.77	226.47
908.08	226.31
908.38	226.36
908.69	226.37
908.99	226.44
909.30	226.55
909.60	226.47
909.90	226.45
910.21	226.26
910.51	226.20
910.81	226.20
911.12	226.14
911.42	226.16
911.73	225.59
912.03	225.65
912.33	225.75
912.64	225.76
912.94	225.70
913.24	225.63
913.55	225.56
913.85	225.60
914.15	225.68
914.46	225.79
914.76	225.75
915.06	225.77
915.37	225.67
915.67	225.65
915.97	225.70
916.27	225.59
916.58	225.69
916.88	225.61
917.18	225.53
917.49	225.86
917.79	225.80
918.09	225.90
918.39	226.01
918.70	226.00
919.00	226.03
919.30	226.24
919.60	226.28
919.91	226.25
920.21	226.20
920.51	226.07
920.81	226.06
921.12	226.14
921.42	226.09
921.72	226.14
922.02	226.11
922.32	226.16
922.63	226.20
922.93	226.40
923.23	226.53
923.53	226.56
923.83	226.27
924.13	226.38
924.44	226.38
924.74	226.41
925.04	226.52
925.34	226.48
925.64	226.36
925.94	226.36
926.24	226.73
926.55	226.73
926.85	226.79
927.15	226.80
927.45	226.81
927.75	226.86
928.05	226.85
928.35	226.85
928.65	226.97
928.95	227.02
929.26	226.84
929.56	226.89
929.86	226.95
930.16	226.84
930.46	226.75
930.76	226.82
931.06	226.60
931.36	226.43
931.66	226.44
931.96	226.50
932.26	226.52
932.56	226.26
932.86	226.30
933.16	226.29
933.46	226.26
933.76	226.21
934.06	226.33
934.36	226.46
934.66	226.44
934.96	226.30
935.26	226.36
935.56	226.43
935.86	226.30
936.16	226.22
936.46	226.24
936.76	226.23
937.06	226.15
937.36	226.22
937.66	226.22
937.96	226.24
938.26	226.11
938.56	226.07
938.86	226.06
939.16	226.13
939.46	226.20
939.76	226.23
940.06	226.12
940.35	225.95
940.65	225.69
940.95	225.69
941.25	225.59
941.55	225.45
941.85	225.37
942.15	225.48
942.45	225.62
942.75	225.63
943.04	225.70
943.34	225.84
943.64	225.75
943.94	225.73
944.24	225.75
944.54	225.80
944.84	225.75
945.13	225.76
945.43	225.70
945.73	225.67
946.03	225.66
946.33	225.71
946.62	225.71
946.92	225.75
947.22	225.82
947.52	225.87
947.82	225.94
948.11	225.91
948.41	225.79
948.71	225.68
949.01	225.66
949.31	225.60
949.60	225.50
949.90	225.53
950.20	225.49
950.50	225.47
950.79	225.33
951.09	225.45
951.39	225.40
951.69	225.44
951.98	225.48
952.28	225.49
952.58	225.49
952.87	225.53
953.17	225.58
953.47	225.50
953.76	225.40
954.06	225.32
954.36	225.30
954.66	225.35
954.95	225.48
955.25	225.54
955.55	225.61
955.84	225.53
956.14	225.63
956.44	225.67
956.73	225.68
957.03	225.79
957.32	225.76
957.62	225.77
957.92	225.75
958.21	225.77
958.51	226.29
958.81	226.28
959.10	226.28
959.40	226.40
959.69	226.50
959.99	226.61
960.29	226.63
960.58	226.61
960.88	226.78
961.17	226.70
961.47	226.78
961.76	226.66
962.06	226.72
962.36	226.60
962.65	226.62
962.95	226.60
963.24	226.50
963.54	226.51
963.83	226.55
964.13	226.53
964.42	226.33
964.72	225.90
965.01	225.93
965.31	225.86
965.60	225.65
965.90	225.91
966.19	225.86
966.49	225.90
966.78	225.93
967.08	225.95
967.37	225.93
967.67	225.82
967.96	225.97
968.26	226.02
968.55	226.20
968.85	226.21
969.14	226.26
969.43	226.28
969.73	226.30
970.02	226.31
970.32	226.25
970.61	226.36
970.91	226.27
971.20	226.19
971.49	226.15
971.79	226.29
972.08	225.97
972.38	226.00
972.67	225.94
972.96	225.91
973.26	225.72
973.55	225.83
973.85	225.73
974.14	225.64
974.43	225.60
974.73	225.42
975.02	225.35
975.31	225.32
975.61	225.28
975.90	225.18
976.19	225.05
976.49	225.15
976.78	225.19
977.07	225.22
977.37	225.30
977.66	225.37
977.95	225.35
978.24	225.35
978.54	225.43
978.83	225.39
979.12	225.36
979.42	225.41
979.71	225.38
980.00	225.41
980.29	225.45
980.59	225.32
980.88	225.43
981.17	225.46
981.46	225.44
981.76	225.50
982.05	225.69
982.34	225.81
982.63	225.76
982.93	225.75
983.22	225.87
983.51	225.84
983.80	225.93
984.09	225.93
984.39	225.86
984.68	225.78
984.97	225.86
985.26	225.86
985.55	225.86
985.85	225.70
986.14	225.80
986.43	225.82
986.72	225.80
987.01	225.72
987.30	225.69
987.59	225.64
987.89	225.68
988.18	225.51
988.47	225.45
988.76	225.47
989.05	225.34
989.34	225.27
989.63	225.43
989.92	225.41
990.22	225.36
990.51	225.39
990.80	225.35
991.09	225.36
991.38	225.43
991.67	225.39
991.96	225.46
992.25	225.39
992.54	225.29
992.83	225.40
993.12	225.35
993.41	225.40
993.70	225.65
993.99	225.81
994.28	225.90
994.58	226.02
994.87	225.99
995.16	226.07
995.45	226.00
995.74	225.84
996.03	225.87
996.32	225.97
996.61	226.12
996.90	226.19
997.19	226.19
997.48	226.23
997.77	226.21
998.06	226.22
998.34	226.25
998.63	226.31
998.92	226.27
999.21	226.36
999.50	226.41
999.79	226.24
1000.08	226.16
1000.37	226.13
1000.66	226.02
1000.95	226.14
1001.24	226.14
1001.53	226.28
1001.82	226.27
1002.11	226.20
1002.40	226.25
1002.68	226.36
1002.97	226.67
1003.26	226.65
1003.55	226.54
1003.84	226.57
1004.13	226.71
1004.42	226.66
1004.71	226.62
1004.99	226.66
1005.28	226.80
1005.57	226.76
1005.86	226.71
1006.15	226.68
1006.44	226.58
1006.72	226.68
1007.01	226.67
1007.30	226.62
1007.59	226.50
1007.88	226.54
1008.17	226.53
1008.45	226.39
1008.74	226.18
1009.03	226.00
1009.32	225.93
1009.60	226.00
1009.89	225.97
1010.18	225.76
1010.47	225.79
1010.76	225.83
1011.04	225.81
1011.33	225.81
1011.62	225.83
1011.91	225.88
1012.19	225.89
1012.48	225.93
1012.77	225.86
1013.05	226.04
1013.34	226.12
1013.63	226.14
1013.92	226.12
1014.20	226.08
1014.49	226.17
1014.78	226.14
1015.06	225.97
1015.35	226.01
1015.64	226.06
1015.92	226.12
1016.21	226.07
1016.50	226.04
1016.78	226.13
1017.07	226.12
1017.36	225.96
1017.64	225.86
1017.93	225.89
1018.22	225.80
1018.50	225.77
1018.79	225.73
1019.08	225.40
1019.36	225.36
1019.65	225.23
1019.93	225.31
1020.22	225.38
1020.51	225.57
1020.79	225.51
1021.08	224.90
1021.36	224.20
1021.65	225.15
1021.94	224.40
1022.22	225.70
1022.51	223.45
1022.79	226.80
1023.08	226.25
1023.36	231.20
1023.65	223.95
>>>>>End Processed Spectral Data<<<<<
