SpectraSuite Data File
++++++++++++++++++++++++++++++++++++
Date: Wed Sep 04 17:57:48 EDT 2013
User: lab3
Dark Spectrum Present: Yes
Reference Spectrum Present: No
Number of Sampled Component Spectra: 1
Spectrometers: USB2E7196
Integration Time (usec): 170000 (USB2E7196)
Spectra Averaged: 20 (USB2E7196)
Boxcar Smoothing: 10 (USB2E7196)
Correct for Electrical Dark: No (USB2E7196)
Strobe/Lamp Enabled: No (USB2E7196)
Correct for Detector Non-linearity: No (USB2E7196)
Correct for Stray Light: No (USB2E7196)
Number of Pixels in Processed Spectrum: 2048
>>>>>Begin Processed Spectral Data<<<<<
339.09	0.00
339.48	213.55
339.86	214.00
340.24	214.75
340.63	216.55
341.01	226.70
341.39	219.85
341.78	222.40
342.16	223.55
342.54	223.80
342.93	212.21
343.31	222.90
343.69	223.46
344.07	224.02
344.46	224.55
344.84	225.01
345.22	225.00
345.60	225.31
345.99	225.50
346.37	225.61
346.75	225.70
347.13	225.76
347.52	225.73
347.90	226.01
348.28	226.08
348.66	226.16
349.05	226.12
349.43	226.14
349.81	226.28
350.19	226.33
350.57	226.49
350.96	226.57
351.34	226.70
351.72	226.76
352.10	226.82
352.48	226.95
352.87	226.96
353.25	226.92
353.63	226.90
354.01	226.93
354.39	227.03
354.77	227.07
355.15	227.22
355.54	227.31
355.92	227.20
356.30	227.24
356.68	227.60
357.06	227.72
357.44	227.74
357.82	227.73
358.20	228.21
358.58	228.22
358.97	228.31
359.35	228.45
359.73	228.56
360.11	228.57
360.49	228.61
360.87	228.68
361.25	228.86
361.63	229.12
362.01	229.24
362.39	229.23
362.77	229.28
363.15	229.32
363.53	229.39
363.91	229.52
364.29	229.52
364.67	229.11
365.05	229.10
365.43	229.20
365.81	229.31
366.19	229.13
366.57	229.32
366.95	229.24
367.33	229.20
367.71	229.24
368.09	229.40
368.47	229.35
368.85	229.33
369.23	229.40
369.61	229.31
369.99	229.39
370.37	229.42
370.75	229.69
371.13	229.54
371.51	229.42
371.89	229.42
372.27	229.45
372.65	229.49
373.03	229.52
373.41	229.35
373.78	229.35
374.16	229.10
374.54	228.89
374.92	228.84
375.30	228.75
375.68	228.59
376.06	228.52
376.44	228.45
376.82	228.45
377.19	228.35
377.57	228.24
377.95	228.02
378.33	227.96
378.71	227.62
379.09	227.60
379.47	227.65
379.84	227.50
380.22	227.35
380.60	227.14
380.98	227.00
381.36	226.99
381.73	226.82
382.11	226.75
382.49	226.71
382.87	226.58
383.25	226.48
383.62	226.95
384.00	226.73
384.38	226.68
384.76	226.66
385.13	226.79
385.51	226.68
385.89	226.60
386.27	226.52
386.64	226.52
387.02	226.38
387.40	226.22
387.78	226.17
388.15	226.16
388.53	226.11
388.91	226.10
389.29	226.05
389.66	226.14
390.04	226.17
390.42	226.24
390.79	226.24
391.17	226.24
391.55	225.74
391.92	225.76
392.30	225.74
392.68	225.57
393.05	225.54
393.43	225.60
393.81	225.65
394.18	225.62
394.56	225.57
394.94	225.76
395.31	225.74
395.69	225.96
396.06	226.06
396.44	226.24
396.82	226.26
397.19	226.60
397.57	226.50
397.95	226.59
398.32	226.50
398.70	226.71
399.07	226.91
399.45	226.97
399.82	227.10
400.20	227.20
400.58	227.45
400.95	227.31
401.33	227.46
401.70	227.90
402.08	228.05
402.45	228.27
402.83	228.50
403.20	228.75
403.58	228.83
403.95	229.11
404.33	229.31
404.71	229.50
405.08	229.90
405.46	230.19
405.83	230.44
406.21	230.76
406.58	231.00
406.96	231.27
407.33	231.66
407.70	232.03
408.08	232.79
408.45	233.24
408.83	233.81
409.20	234.21
409.58	234.39
409.95	234.98
410.33	235.55
410.70	235.95
411.08	236.52
411.45	237.12
411.82	237.65
412.20	238.43
412.57	239.50
412.95	239.84
413.32	240.73
413.69	241.60
414.07	242.52
414.44	243.58
414.82	244.61
415.19	245.81
415.56	247.04
415.94	248.00
416.31	249.35
416.68	250.71
417.06	252.38
417.43	254.01
417.81	255.74
418.18	257.50
418.55	259.50
418.93	261.59
419.30	263.78
419.67	266.05
420.04	268.34
420.42	270.67
420.79	273.79
421.16	276.55
421.54	279.62
421.91	282.61
422.28	285.55
422.66	288.88
423.03	292.22
423.40	295.44
423.77	299.00
424.15	302.63
424.52	306.50
424.89	310.67
425.26	314.70
425.64	318.53
426.01	322.73
426.38	327.10
426.75	331.57
427.13	336.04
427.50	340.81
427.87	345.73
428.24	350.59
428.61	354.99
428.99	360.42
429.36	365.93
429.73	371.45
430.10	377.06
430.47	382.82
430.85	388.53
431.22	394.79
431.59	401.67
431.96	407.92
432.33	414.79
432.70	421.44
433.08	429.33
433.45	436.73
433.82	444.18
434.19	452.33
434.56	460.38
434.93	468.09
435.30	475.85
435.68	484.39
436.05	492.83
436.42	501.11
436.79	508.56
437.16	516.97
437.53	525.83
437.90	534.50
438.27	543.05
438.64	552.00
439.01	560.50
439.38	567.74
439.75	574.92
440.13	583.15
440.50	590.75
440.87	596.82
441.24	603.39
441.61	610.40
441.98	615.65
442.35	621.61
442.72	627.82
443.09	633.70
443.46	637.21
443.83	639.60
444.20	641.67
444.57	644.59
444.94	645.61
445.31	646.68
445.68	648.16
446.05	648.18
446.42	646.93
446.79	645.47
447.16	643.63
447.53	642.34
447.90	638.31
448.27	634.63
448.64	629.73
449.01	625.78
449.37	619.44
449.74	613.24
450.11	606.40
450.48	598.60
450.85	590.48
451.22	583.51
451.59	576.93
451.96	570.69
452.33	562.52
452.70	555.05
453.07	546.37
453.43	537.21
453.80	528.90
454.17	520.81
454.54	513.04
454.91	505.01
455.28	497.09
455.65	489.80
456.02	482.88
456.38	476.52
456.75	468.80
457.12	462.47
457.49	456.20
457.86	449.81
458.23	444.54
458.59	438.85
458.96	433.15
459.33	427.92
459.70	422.80
460.07	418.69
460.43	414.11
460.80	409.84
461.17	406.02
461.54	401.99
461.91	398.19
462.27	394.22
462.64	390.92
463.01	387.28
463.38	384.02
463.74	379.98
464.11	376.94
464.48	374.30
464.85	371.31
465.21	369.18
465.58	366.82
465.95	363.94
466.32	361.64
466.68	359.31
467.05	357.17
467.42	355.00
467.78	352.64
468.15	350.38
468.52	348.74
468.88	346.49
469.25	344.59
469.62	343.12
469.98	341.52
470.35	339.92
470.72	338.43
471.08	336.66
471.45	335.43
471.82	334.10
472.18	332.69
472.55	331.64
472.92	330.24
473.28	329.19
473.65	328.18
474.02	327.12
474.38	326.33
474.75	325.55
475.11	324.65
475.48	324.05
475.85	323.44
476.21	322.81
476.58	322.34
476.94	321.96
477.31	321.40
477.67	320.92
478.04	320.58
478.41	320.43
478.77	320.73
479.14	320.46
479.50	320.47
479.87	320.43
480.23	320.48
480.60	320.46
480.96	320.36
481.33	320.69
481.69	320.96
482.06	321.10
482.42	321.34
482.79	321.66
483.15	322.01
483.52	322.71
483.88	323.20
484.25	323.71
484.61	324.26
484.98	324.95
485.34	326.10
485.71	327.10
486.07	327.99
486.44	328.58
486.80	329.64
487.17	330.75
487.53	332.20
487.90	333.60
488.26	335.31
488.62	337.03
488.99	338.57
489.35	340.35
489.72	342.23
490.08	344.25
490.44	346.37
490.81	348.66
491.17	350.80
491.54	353.28
491.90	355.87
492.26	358.56
492.63	361.42
492.99	364.03
493.36	367.11
493.72	370.46
494.08	373.92
494.45	377.75
494.81	381.70
495.17	385.58
495.54	389.71
495.90	393.92
496.26	398.42
496.63	403.04
496.99	407.85
497.35	413.07
497.72	418.29
498.08	423.70
498.44	429.36
498.80	435.37
499.17	441.43
499.53	447.65
499.89	454.34
500.26	461.12
500.62	468.33
500.98	475.71
501.34	483.20
501.71	490.86
502.07	498.53
502.43	506.51
502.79	514.93
503.16	523.67
503.52	532.78
503.88	541.86
504.24	551.62
504.60	561.78
504.97	571.95
505.33	582.55
505.69	593.74
506.05	604.92
506.41	616.13
506.78	627.78
507.14	639.91
507.50	652.38
507.86	665.11
508.22	678.17
508.59	691.31
508.95	704.98
509.31	719.33
509.67	733.77
510.03	748.23
510.39	762.90
510.75	777.94
511.12	793.16
511.48	809.03
511.84	824.92
512.20	840.57
512.56	857.01
512.92	873.89
513.28	890.56
513.64	907.71
514.00	925.37
514.37	943.40
514.73	961.62
515.09	979.88
515.45	998.25
515.81	1016.36
516.17	1035.27
516.53	1053.91
516.89	1072.67
517.25	1092.09
517.61	1112.36
517.97	1132.70
518.33	1152.81
518.69	1173.08
519.05	1193.55
519.41	1214.17
519.77	1235.51
520.13	1256.29
520.49	1276.80
520.85	1299.26
521.21	1320.51
521.57	1341.82
521.93	1362.48
522.29	1383.80
522.65	1404.81
523.01	1425.86
523.37	1446.91
523.73	1467.78
524.09	1488.42
524.45	1509.11
524.81	1529.96
525.17	1550.45
525.53	1571.34
525.89	1592.18
526.25	1613.17
526.61	1633.57
526.97	1654.80
527.33	1675.85
527.68	1697.81
528.04	1719.24
528.40	1738.75
528.76	1760.19
529.12	1780.48
529.48	1801.61
529.84	1821.72
530.20	1842.64
530.56	1863.33
530.91	1884.44
531.27	1905.11
531.63	1925.88
531.99	1946.61
532.35	1966.68
532.71	1987.17
533.07	2007.61
533.42	2027.75
533.78	2047.78
534.14	2067.63
534.50	2086.55
534.86	2105.90
535.21	2123.55
535.57	2142.07
535.93	2160.22
536.29	2177.76
536.65	2196.33
537.00	2213.76
537.36	2231.52
537.72	2248.30
538.08	2265.42
538.44	2282.08
538.79	2298.49
539.15	2315.15
539.51	2331.05
539.87	2346.43
540.22	2360.42
540.58	2375.11
540.94	2388.53
541.29	2401.15
541.65	2413.84
542.01	2426.37
542.37	2437.03
542.72	2447.99
543.08	2458.80
543.44	2470.12
543.79	2480.13
544.15	2489.94
544.51	2500.21
544.87	2509.70
545.22	2518.18
545.58	2526.20
545.94	2532.97
546.29	2539.67
546.65	2545.90
547.01	2551.70
547.36	2557.60
547.72	2563.10
548.07	2566.75
548.43	2571.89
548.79	2576.41
549.14	2580.91
549.50	2584.87
549.86	2588.88
550.21	2592.82
550.57	2596.13
550.92	2597.85
551.28	2599.16
551.64	2601.11
551.99	2602.90
552.35	2604.84
552.70	2607.06
553.06	2608.67
553.41	2610.22
553.77	2611.92
554.13	2613.56
554.48	2615.18
554.84	2616.07
555.19	2617.28
555.55	2619.12
555.90	2618.74
556.26	2618.51
556.61	2616.85
556.97	2614.90
557.32	2614.68
557.68	2613.42
558.03	2612.00
558.39	2610.60
558.74	2609.73
559.10	2606.85
559.45	2603.38
559.81	2598.30
560.16	2592.95
560.52	2588.03
560.87	2583.72
561.23	2578.15
561.58	2571.91
561.94	2565.27
562.29	2557.73
562.64	2550.78
563.00	2542.56
563.35	2535.57
563.71	2528.63
564.06	2522.67
564.42	2515.95
564.77	2508.83
565.12	2501.02
565.48	2493.23
565.83	2485.47
566.19	2477.39
566.54	2469.52
566.89	2461.30
567.25	2454.13
567.60	2447.14
567.96	2439.77
568.31	2431.76
568.66	2423.27
569.02	2414.61
569.37	2406.08
569.72	2399.18
570.08	2389.98
570.43	2380.54
570.78	2371.53
571.14	2362.24
571.49	2351.77
571.84	2341.95
572.20	2330.99
572.55	2321.04
572.90	2310.02
573.26	2299.64
573.61	2288.72
573.96	2277.59
574.31	2265.55
574.67	2253.66
575.02	2240.66
575.37	2227.91
575.72	2214.50
576.08	2202.35
576.43	2189.96
576.78	2176.93
577.13	2162.77
577.49	2150.20
577.84	2137.95
578.19	2125.93
578.54	2113.09
578.90	2100.83
579.25	2088.51
579.60	2076.14
579.95	2063.04
580.30	2050.03
580.66	2036.56
581.01	2023.09
581.36	2009.10
581.71	1996.34
582.06	1983.18
582.42	1970.56
582.77	1957.62
583.12	1946.04
583.47	1933.64
583.82	1921.55
584.17	1909.37
584.53	1897.36
584.88	1884.31
585.23	1871.41
585.58	1857.00
585.93	1843.75
586.28	1830.64
586.63	1816.96
586.98	1802.43
587.34	1789.32
587.69	1776.00
588.04	1763.45
588.39	1750.96
588.74	1738.85
589.09	1726.96
589.44	1714.34
589.79	1702.34
590.14	1690.61
590.49	1678.38
590.84	1666.37
591.19	1654.07
591.54	1641.68
591.89	1629.62
592.25	1619.28
592.60	1607.67
592.95	1596.37
593.30	1584.27
593.65	1572.26
594.00	1560.00
594.35	1550.24
594.70	1538.45
595.05	1527.02
595.40	1514.69
595.75	1502.93
596.10	1491.53
596.45	1479.69
596.80	1468.95
597.15	1457.54
597.50	1445.58
597.85	1434.05
598.19	1422.11
598.54	1410.36
598.89	1399.05
599.24	1388.58
599.59	1376.98
599.94	1366.03
600.29	1355.60
600.64	1345.27
600.99	1334.35
601.34	1324.75
601.69	1313.47
602.04	1303.41
602.39	1293.43
602.74	1284.30
603.08	1274.91
603.43	1265.66
603.78	1256.08
604.13	1246.23
604.48	1236.40
604.83	1226.72
605.18	1216.78
605.53	1207.46
605.87	1198.43
606.22	1189.75
606.57	1180.28
606.92	1170.60
607.27	1161.87
607.62	1153.12
607.96	1144.65
608.31	1136.62
608.66	1128.12
609.01	1119.49
609.36	1110.96
609.70	1102.61
610.05	1093.78
610.40	1085.19
610.75	1076.30
611.10	1067.84
611.44	1059.10
611.79	1051.08
612.14	1043.15
612.49	1035.25
612.83	1027.52
613.18	1019.51
613.53	1011.89
613.88	1003.85
614.22	996.20
614.57	988.12
614.92	980.14
615.27	972.37
615.61	964.73
615.96	957.09
616.31	949.61
616.65	942.52
617.00	935.17
617.35	927.89
617.70	920.74
618.04	913.57
618.39	906.67
618.74	900.09
619.08	893.00
619.43	885.84
619.78	878.78
620.12	871.73
620.47	865.16
620.82	857.89
621.16	851.09
621.51	844.80
621.85	838.37
622.20	831.79
622.55	825.15
622.89	818.81
623.24	812.57
623.59	806.32
623.93	799.95
624.28	793.83
624.62	788.25
624.97	782.45
625.32	776.69
625.66	770.56
626.01	764.70
626.35	759.19
626.70	753.70
627.04	748.23
627.39	742.62
627.73	737.06
628.08	731.91
628.43	726.60
628.77	721.10
629.12	715.82
629.46	710.88
629.81	706.22
630.15	701.39
630.50	696.45
630.84	691.52
631.19	686.69
631.53	682.02
631.88	676.72
632.22	671.75
632.57	667.26
632.91	662.69
633.26	658.11
633.60	653.49
633.95	648.74
634.29	644.10
634.64	639.80
634.98	635.04
635.32	630.59
635.67	626.48
636.01	622.21
636.36	617.96
636.70	614.01
637.05	609.73
637.39	605.40
637.73	601.23
638.08	597.15
638.42	592.93
638.77	588.70
639.11	584.43
639.45	580.02
639.80	575.53
640.14	571.37
640.49	567.31
640.83	563.42
641.17	559.80
641.52	556.09
641.86	552.36
642.20	549.01
642.55	545.21
642.89	541.64
643.23	538.11
643.58	534.87
643.92	531.12
644.26	527.75
644.61	524.45
644.95	521.26
645.29	517.77
645.64	514.60
645.98	511.42
646.32	508.48
646.66	505.47
647.01	502.59
647.35	499.82
647.69	496.93
648.04	494.05
648.38	491.22
648.72	488.45
649.06	485.32
649.41	482.34
649.75	479.50
650.09	476.54
650.43	473.53
650.78	470.49
651.12	467.72
651.46	464.71
651.80	461.93
652.14	459.11
652.49	456.71
652.83	454.05
653.17	451.46
653.51	448.71
653.85	446.45
654.20	443.98
654.54	441.42
654.88	438.91
655.22	436.77
655.56	434.30
655.90	431.89
656.25	429.76
656.59	427.52
656.93	425.34
657.27	423.31
657.61	420.99
657.95	418.79
658.29	416.49
658.64	414.50
658.98	412.33
659.32	410.12
659.66	407.81
660.00	405.74
660.34	403.58
660.68	401.56
661.02	399.46
661.36	397.49
661.70	395.56
662.05	393.63
662.39	391.64
662.73	389.93
663.07	388.28
663.41	386.40
663.75	384.54
664.09	382.74
664.43	380.80
664.77	379.22
665.11	377.46
665.45	375.85
665.79	374.23
666.13	372.48
666.47	370.74
666.81	369.14
667.15	367.42
667.49	365.95
667.83	364.69
668.17	363.11
668.51	361.60
668.85	360.16
669.19	358.92
669.53	357.36
669.87	355.82
670.21	354.21
670.55	352.83
670.89	351.63
671.23	350.22
671.57	348.81
671.91	347.40
672.25	346.10
672.58	344.84
672.92	343.41
673.26	342.23
673.60	341.03
673.94	339.86
674.28	338.78
674.62	337.65
674.96	336.20
675.30	335.11
675.64	333.95
675.97	332.71
676.31	331.34
676.65	330.06
676.99	329.03
677.33	327.89
677.67	326.79
678.01	325.53
678.34	324.47
678.68	323.44
679.02	322.35
679.36	321.35
679.70	320.28
680.04	319.33
680.37	318.31
680.71	317.34
681.05	316.45
681.39	315.48
681.73	314.41
682.06	313.54
682.40	312.61
682.74	311.70
683.08	311.03
683.42	310.18
683.75	309.36
684.09	308.43
684.43	307.70
684.77	306.76
685.10	305.91
685.44	305.10
685.78	304.30
686.12	303.58
686.45	302.67
686.79	301.82
687.13	301.12
687.46	300.40
687.80	299.70
688.14	298.80
688.48	298.02
688.81	297.36
689.15	296.79
689.49	295.98
689.82	295.28
690.16	294.40
690.50	293.71
690.83	292.99
691.17	292.15
691.51	291.36
691.84	290.76
692.18	290.11
692.52	289.50
692.85	288.92
693.19	288.49
693.52	288.01
693.86	287.48
694.20	286.79
694.53	286.19
694.87	285.49
695.21	284.82
695.54	284.27
695.88	283.62
696.21	282.87
696.55	282.32
696.88	281.72
697.22	281.08
697.56	280.48
697.89	279.87
698.23	279.44
698.56	278.93
698.90	278.49
699.23	277.86
699.57	277.26
699.90	276.67
700.24	275.90
700.58	275.35
700.91	274.87
701.25	274.73
701.58	274.53
701.92	274.25
702.25	273.83
702.59	273.41
702.92	272.97
703.26	272.58
703.59	272.13
703.93	272.15
704.26	271.81
704.60	271.47
704.93	271.06
705.26	270.59
705.60	270.21
705.93	269.71
706.27	269.50
706.60	269.27
706.94	269.03
707.27	268.74
707.61	268.47
707.94	268.08
708.27	267.39
708.61	266.65
708.94	266.22
709.28	265.90
709.61	265.41
709.94	264.99
710.28	264.56
710.61	264.26
710.95	263.45
711.28	263.35
711.61	262.99
711.95	262.71
712.28	262.27
712.61	261.88
712.95	261.80
713.28	261.66
713.61	261.24
713.95	260.73
714.28	260.42
714.61	259.98
714.95	259.66
715.28	259.21
715.61	258.89
715.95	258.57
716.28	258.22
716.61	258.04
716.95	257.65
717.28	257.34
717.61	256.97
717.94	256.68
718.28	256.03
718.61	255.70
718.94	255.38
719.27	255.14
719.61	254.99
719.94	254.63
720.27	254.15
720.60	253.90
720.94	253.72
721.27	253.46
721.60	253.35
721.93	253.09
722.27	253.09
722.60	253.01
722.93	252.65
723.26	252.60
723.59	252.26
723.93	252.24
724.26	252.13
724.59	251.91
724.92	251.76
725.25	251.73
725.59	251.57
725.92	251.47
726.25	251.32
726.58	251.07
726.91	250.74
727.24	250.50
727.57	250.25
727.91	249.93
728.24	249.81
728.57	249.48
728.90	249.36
729.23	248.98
729.56	248.92
729.89	248.80
730.22	248.45
730.55	248.33
730.89	248.09
731.22	247.83
731.55	247.70
731.88	247.51
732.21	247.26
732.54	246.97
732.87	246.78
733.20	246.66
733.53	246.51
733.86	246.45
734.19	246.27
734.52	246.18
734.85	246.39
735.18	246.14
735.51	246.18
735.84	245.98
736.17	246.02
736.50	245.65
736.83	246.04
737.16	245.98
737.49	245.82
737.82	245.61
738.15	245.58
738.48	245.41
738.81	245.29
739.14	245.03
739.47	244.88
739.80	244.70
740.13	244.57
740.46	244.35
740.79	244.09
741.12	243.92
741.45	243.73
741.78	243.28
742.11	243.28
742.44	243.01
742.77	242.92
743.10	242.68
743.43	242.52
743.75	241.89
744.08	242.35
744.41	242.20
744.74	242.05
745.07	241.80
745.40	241.74
745.73	241.76
746.06	241.63
746.39	241.53
746.71	241.34
747.04	241.15
747.37	240.92
747.70	240.94
748.03	240.87
748.36	240.76
748.68	240.64
749.01	240.29
749.34	240.04
749.67	239.95
750.00	239.90
750.33	240.15
750.65	240.05
750.98	239.29
751.31	239.22
751.64	239.14
751.97	239.27
752.29	239.02
752.62	238.65
752.95	238.55
753.28	238.44
753.60	238.36
753.93	238.30
754.26	238.41
754.59	238.12
754.91	238.01
755.24	237.92
755.57	237.82
755.90	237.72
756.22	237.67
756.55	237.43
756.88	237.24
757.20	236.83
757.53	236.59
757.86	236.48
758.19	236.35
758.51	236.32
758.84	235.96
759.17	235.90
759.49	235.91
759.82	236.03
760.15	235.97
760.47	235.86
760.80	235.68
761.13	235.55
761.45	235.44
761.78	235.30
762.11	235.21
762.43	235.10
762.76	235.11
763.08	235.11
763.41	235.05
763.74	234.97
764.06	234.84
764.39	234.82
764.71	234.81
765.04	234.63
765.37	234.49
765.69	234.53
766.02	234.46
766.34	234.35
766.67	234.11
767.00	234.12
767.32	234.40
767.65	234.60
767.97	234.53
768.30	234.56
768.62	234.46
768.95	234.38
769.27	234.32
769.60	234.26
769.92	234.12
770.25	234.04
770.57	233.94
770.90	233.89
771.22	233.78
771.55	233.68
771.87	233.71
772.20	233.61
772.52	233.79
772.85	234.33
773.17	234.25
773.50	234.15
773.82	234.03
774.15	233.70
774.47	233.41
774.80	233.25
775.12	233.16
775.45	233.15
775.77	233.15
776.09	233.12
776.42	233.04
776.74	233.16
777.07	233.11
777.39	233.04
777.72	232.93
778.04	232.94
778.36	232.83
778.69	232.76
779.01	232.74
779.33	232.35
779.66	231.83
779.98	231.75
780.31	231.74
780.63	231.93
780.95	231.97
781.28	231.91
781.60	231.90
781.92	231.84
782.25	231.77
782.57	231.72
782.89	231.66
783.22	231.59
783.54	231.40
783.86	231.40
784.19	231.30
784.51	231.43
784.83	231.29
785.16	231.25
785.48	231.21
785.80	231.19
786.12	231.21
786.45	231.11
786.77	231.09
787.09	231.00
787.42	230.74
787.74	230.65
788.06	230.65
788.38	230.59
788.71	230.49
789.03	230.54
789.35	230.49
789.67	230.32
789.99	230.36
790.32	230.28
790.64	230.24
790.96	230.68
791.28	230.48
791.61	230.42
791.93	230.42
792.25	230.34
792.57	230.63
792.89	230.50
793.21	230.46
793.54	230.40
793.86	230.36
794.18	230.35
794.50	230.29
794.82	230.19
795.14	230.26
795.47	230.28
795.79	230.26
796.11	230.18
796.43	230.17
796.75	230.10
797.07	230.13
797.39	230.13
797.71	229.74
798.04	229.72
798.36	229.78
798.68	229.75
799.00	229.84
799.32	229.61
799.64	229.64
799.96	229.62
800.28	229.79
800.60	229.71
800.92	229.73
801.24	229.59
801.56	229.60
801.89	229.54
802.21	229.59
802.53	229.49
802.85	229.55
803.17	229.78
803.49	229.65
803.81	229.60
804.13	229.48
804.45	229.41
804.77	229.44
805.09	229.40
805.41	229.40
805.73	229.27
806.05	229.17
806.37	229.13
806.69	229.08
807.01	228.94
807.33	228.99
807.65	228.87
807.97	229.21
808.28	229.21
808.60	229.12
808.92	229.09
809.24	229.29
809.56	229.19
809.88	229.01
810.20	229.12
810.52	229.22
810.84	229.17
811.16	229.14
811.48	229.07
811.80	229.23
812.12	229.20
812.43	229.22
812.75	229.21
813.07	229.18
813.39	229.19
813.71	229.13
814.03	229.10
814.35	229.10
814.67	228.85
814.98	228.78
815.30	228.76
815.62	228.65
815.94	228.39
816.26	228.59
816.58	228.51
816.89	228.45
817.21	228.29
817.53	228.36
817.85	228.42
818.17	228.45
818.48	228.29
818.80	228.39
819.12	228.40
819.44	228.32
819.76	228.25
820.07	228.25
820.39	228.22
820.71	228.16
821.03	228.14
821.34	228.05
821.66	228.12
821.98	228.16
822.30	228.09
822.61	228.43
822.93	228.14
823.25	228.13
823.57	228.11
823.88	228.14
824.20	228.09
824.52	228.10
824.83	228.08
825.15	228.03
825.47	227.95
825.79	227.91
826.10	227.84
826.42	227.82
826.74	227.81
827.05	227.81
827.37	227.81
827.69	227.76
828.00	227.84
828.32	227.75
828.64	227.65
828.95	227.95
829.27	227.76
829.58	227.85
829.90	227.95
830.22	227.97
830.53	227.97
830.85	227.88
831.17	227.72
831.48	227.75
831.80	227.72
832.11	227.61
832.43	227.56
832.75	227.57
833.06	227.87
833.38	227.73
833.69	227.68
834.01	227.76
834.32	227.80
834.64	227.78
834.96	227.82
835.27	227.83
835.59	227.70
835.90	227.61
836.22	227.50
836.53	227.36
836.85	227.34
837.16	227.82
837.48	227.88
837.79	228.09
838.11	228.02
838.42	228.06
838.74	228.14
839.05	228.13
839.37	228.09
839.68	227.73
840.00	227.76
840.31	227.89
840.63	227.86
840.94	227.78
841.26	227.70
841.57	227.79
841.88	227.88
842.20	227.77
842.51	227.74
842.83	227.81
843.14	228.26
843.46	228.24
843.77	227.90
844.08	227.90
844.40	227.73
844.71	227.79
845.03	227.70
845.34	227.69
845.65	227.67
845.97	227.66
846.28	227.76
846.60	227.77
846.91	227.63
847.22	227.60
847.54	227.75
847.85	227.78
848.16	227.70
848.48	227.58
848.79	227.85
849.10	227.85
849.42	227.92
849.73	227.48
850.04	227.51
850.36	227.44
850.67	227.56
850.98	227.56
851.30	227.47
851.61	227.44
851.92	227.44
852.23	227.67
852.55	227.76
852.86	227.76
853.17	227.82
853.49	227.97
853.80	228.04
854.11	227.98
854.42	228.04
854.74	228.01
855.05	228.03
855.36	227.71
855.67	227.75
855.99	227.67
856.30	228.23
856.61	228.18
856.92	228.12
857.23	228.02
857.55	228.00
857.86	228.06
858.17	228.19
858.48	228.10
858.79	227.94
859.11	227.97
859.42	227.92
859.73	227.85
860.04	227.85
860.35	227.69
860.66	227.60
860.98	227.54
861.29	227.58
861.60	227.56
861.91	227.71
862.22	227.60
862.53	227.51
862.84	226.94
863.16	227.10
863.47	227.05
863.78	227.00
864.09	227.08
864.40	227.07
864.71	227.04
865.02	227.11
865.33	227.06
865.64	226.89
865.95	226.95
866.27	227.15
866.58	227.09
866.89	227.17
867.20	227.19
867.51	227.13
867.82	227.04
868.13	227.10
868.44	226.98
868.75	227.05
869.06	227.10
869.37	227.25
869.68	227.07
869.99	227.12
870.30	227.11
870.61	227.07
870.92	226.99
871.23	226.97
871.54	227.00
871.85	227.10
872.16	227.21
872.47	227.13
872.78	226.93
873.09	226.95
873.40	226.88
873.71	226.97
874.02	226.99
874.33	226.98
874.64	226.92
874.95	226.98
875.26	226.92
875.56	226.88
875.87	226.77
876.18	226.73
876.49	227.22
876.80	227.20
877.11	227.12
877.42	227.16
877.73	227.17
878.04	227.08
878.35	226.99
878.66	227.02
878.96	227.04
879.27	227.03
879.58	226.93
879.89	226.95
880.20	226.98
880.51	226.96
880.82	226.98
881.12	227.06
881.43	226.93
881.74	226.82
882.05	226.79
882.36	226.84
882.67	226.88
882.97	226.38
883.28	226.36
883.59	226.39
883.90	226.37
884.21	226.38
884.51	226.36
884.82	226.35
885.13	226.29
885.44	226.31
885.74	226.28
886.05	226.25
886.36	226.26
886.67	226.08
886.98	226.33
887.28	226.30
887.59	226.25
887.90	226.23
888.20	226.25
888.51	226.35
888.82	226.23
889.13	226.24
889.43	226.60
889.74	226.55
890.05	226.50
890.35	226.46
890.66	226.45
890.97	226.40
891.28	226.38
891.58	226.41
891.89	226.46
892.20	226.40
892.50	226.41
892.81	226.35
893.12	226.28
893.42	226.07
893.73	226.13
894.04	226.17
894.34	226.24
894.65	226.15
894.95	226.10
895.26	226.16
895.57	226.39
895.87	225.95
896.18	226.13
896.48	226.19
896.79	226.21
897.10	226.19
897.40	226.27
897.71	226.36
898.01	226.30
898.32	226.28
898.63	226.33
898.93	226.45
899.24	226.44
899.54	226.47
899.85	226.44
900.15	226.39
900.46	226.35
900.76	226.37
901.07	226.45
901.38	226.48
901.68	226.55
901.99	226.30
902.29	226.27
902.60	226.18
902.90	226.14
903.21	226.17
903.51	226.16
903.82	226.23
904.12	226.15
904.43	226.21
904.73	226.10
905.03	226.12
905.34	226.48
905.64	226.46
905.95	226.45
906.25	226.46
906.56	226.46
906.86	226.47
907.17	226.47
907.47	226.48
907.77	226.42
908.08	226.27
908.38	226.32
908.69	226.40
908.99	226.48
909.30	226.51
909.60	226.41
909.90	226.43
910.21	226.33
910.51	226.21
910.81	226.19
911.12	226.25
911.42	226.24
911.73	225.79
912.03	225.90
912.33	226.00
912.64	226.02
912.94	225.98
913.24	225.92
913.55	225.86
913.85	225.90
914.15	226.03
914.46	226.16
914.76	226.08
915.06	226.06
915.37	225.95
915.67	225.91
915.97	226.00
916.27	225.94
916.58	225.92
916.88	225.97
917.18	225.93
917.49	226.27
917.79	226.30
918.09	226.37
918.39	226.46
918.70	226.48
919.00	226.45
919.30	226.71
919.60	226.66
919.91	226.64
920.21	226.64
920.51	226.42
920.81	226.38
921.12	226.48
921.42	226.49
921.72	226.61
922.02	226.66
922.32	226.71
922.63	226.73
922.93	227.06
923.23	227.08
923.53	227.05
923.83	226.75
924.13	226.73
924.44	226.71
924.74	226.76
925.04	226.85
925.34	226.82
925.64	226.65
925.94	226.73
926.24	227.06
926.55	227.02
926.85	227.17
927.15	227.15
927.45	227.15
927.75	227.18
928.05	227.18
928.35	227.17
928.65	227.21
928.95	227.29
929.26	227.10
929.56	227.21
929.86	227.32
930.16	227.25
930.46	227.22
930.76	227.22
931.06	227.02
931.36	226.96
931.66	227.07
931.96	227.15
932.26	227.19
932.56	226.91
932.86	226.99
933.16	227.02
933.46	227.00
933.76	227.00
934.06	227.11
934.36	227.19
934.66	227.16
934.96	227.17
935.26	227.18
935.56	227.20
935.86	227.06
936.16	226.98
936.46	227.06
936.76	227.04
937.06	226.95
937.36	226.99
937.66	226.94
937.96	226.90
938.26	226.70
938.56	226.60
938.86	226.64
939.16	226.68
939.46	226.69
939.76	226.67
940.06	226.58
940.35	226.36
940.65	226.15
940.95	226.21
941.25	226.10
941.55	226.00
941.85	225.96
942.15	226.14
942.45	226.20
942.75	226.09
943.04	226.12
943.34	226.26
943.64	226.24
943.94	226.16
944.24	226.12
944.54	226.21
944.84	226.23
945.13	226.17
945.43	226.11
945.73	226.08
946.03	226.02
946.33	226.02
946.62	226.08
946.92	226.03
947.22	226.01
947.52	226.00
947.82	226.10
948.11	226.00
948.41	225.85
948.71	225.65
949.01	225.65
949.31	225.64
949.60	225.58
949.90	225.63
950.20	225.67
950.50	225.68
950.79	225.59
951.09	225.64
951.39	225.60
951.69	225.56
951.98	225.60
952.28	225.64
952.58	225.53
952.87	225.49
953.17	225.59
953.47	225.56
953.76	225.55
954.06	225.44
954.36	225.40
954.66	225.36
954.95	225.63
955.25	225.72
955.55	225.75
955.84	225.73
956.14	225.75
956.44	225.80
956.73	225.77
957.03	225.80
957.32	225.80
957.62	225.89
957.92	225.96
958.21	225.94
958.51	226.47
958.81	226.65
959.10	226.75
959.40	226.82
959.69	226.85
959.99	226.95
960.29	226.96
960.58	226.99
960.88	227.20
961.17	227.12
961.47	227.20
961.76	227.20
962.06	227.29
962.36	227.26
962.65	227.27
962.95	227.29
963.24	227.31
963.54	227.36
963.83	227.38
964.13	227.37
964.42	227.25
964.72	226.88
965.01	226.81
965.31	226.81
965.60	226.75
965.90	227.05
966.19	226.93
966.49	226.98
966.78	226.99
967.08	226.92
967.37	226.94
967.67	226.83
967.96	226.95
968.26	226.82
968.55	226.83
968.85	226.78
969.14	226.77
969.43	226.70
969.73	226.61
970.02	226.52
970.32	226.52
970.61	226.62
970.91	226.50
971.20	226.47
971.49	226.44
971.79	226.53
972.08	226.20
972.38	226.22
972.67	226.25
972.96	226.32
973.26	226.27
973.55	226.32
973.85	226.26
974.14	226.16
974.43	226.29
974.73	226.22
975.02	226.22
975.31	226.27
975.61	226.32
975.90	226.31
976.19	226.35
976.49	226.34
976.78	226.32
977.07	226.32
977.37	226.37
977.66	226.41
977.95	226.30
978.24	226.32
978.54	226.46
978.83	226.32
979.12	226.28
979.42	226.23
979.71	226.20
980.00	226.14
980.29	226.14
980.59	226.00
980.88	226.09
981.17	226.03
981.46	225.98
981.76	226.00
982.05	226.11
982.34	226.09
982.63	226.05
982.93	226.02
983.22	226.13
983.51	226.15
983.80	226.14
984.09	226.11
984.39	226.08
984.68	225.92
984.97	225.99
985.26	225.93
985.55	225.95
985.85	225.89
986.14	226.01
986.43	226.05
986.72	226.00
987.01	225.92
987.30	225.96
987.59	225.92
987.89	225.87
988.18	225.75
988.47	225.72
988.76	225.73
989.05	225.62
989.34	225.55
989.63	225.62
989.92	225.62
990.22	225.57
990.51	225.52
990.80	225.56
991.09	225.57
991.38	225.66
991.67	225.61
991.96	225.49
992.25	225.57
992.54	225.60
992.83	225.59
993.12	225.56
993.41	225.60
993.70	225.81
993.99	225.90
994.28	226.00
994.58	226.09
994.87	226.04
995.16	226.13
995.45	226.08
995.74	225.91
996.03	225.92
996.32	226.06
996.61	226.22
996.90	226.20
997.19	226.21
997.48	226.21
997.77	226.26
998.06	226.34
998.34	226.25
998.63	226.14
998.92	226.20
999.21	226.26
999.50	226.33
999.79	226.15
1000.08	226.19
1000.37	226.14
1000.66	226.08
1000.95	226.21
1001.24	226.21
1001.53	226.27
1001.82	226.33
1002.11	226.26
1002.40	226.25
1002.68	226.39
1002.97	226.71
1003.26	226.68
1003.55	226.57
1003.84	226.60
1004.13	226.79
1004.42	226.78
1004.71	226.86
1004.99	226.85
1005.28	226.99
1005.57	226.93
1005.86	226.94
1006.15	226.81
1006.44	226.76
1006.72	226.85
1007.01	226.81
1007.30	226.85
1007.59	226.89
1007.88	226.85
1008.17	226.87
1008.45	226.77
1008.74	226.52
1009.03	226.35
1009.32	226.37
1009.60	226.40
1009.89	226.37
1010.18	226.15
1010.47	226.10
1010.76	226.04
1011.04	226.01
1011.33	226.01
1011.62	226.06
1011.91	226.08
1012.19	226.16
1012.48	226.14
1012.77	226.14
1013.05	226.27
1013.34	226.27
1013.63	226.17
1013.92	226.24
1014.20	226.24
1014.49	226.34
1014.78	226.44
1015.06	226.26
1015.35	226.21
1015.64	226.31
1015.92	226.35
1016.21	226.41
1016.50	226.50
1016.78	226.60
1017.07	226.69
1017.36	226.62
1017.64	226.57
1017.93	226.65
1018.22	226.65
1018.50	226.67
1018.79	226.53
1019.08	226.40
1019.36	226.42
1019.65	226.34
1019.93	226.43
1020.22	226.47
1020.51	226.70
1020.79	226.63
1021.08	226.40
1021.36	225.50
1021.65	224.15
1021.94	227.15
1022.22	226.55
1022.51	224.20
1022.79	228.15
1023.08	226.75
1023.36	232.55
1023.65	225.40
>>>>>End Processed Spectral Data<<<<<
