SpectraSuite Data File
++++++++++++++++++++++++++++++++++++
Date: Wed Sep 04 17:49:16 EDT 2013
User: lab3
Dark Spectrum Present: Yes
Reference Spectrum Present: No
Number of Sampled Component Spectra: 1
Spectrometers: USB2E7196
Integration Time (usec): 170000 (USB2E7196)
Spectra Averaged: 20 (USB2E7196)
Boxcar Smoothing: 10 (USB2E7196)
Correct for Electrical Dark: No (USB2E7196)
Strobe/Lamp Enabled: No (USB2E7196)
Correct for Detector Non-linearity: No (USB2E7196)
Correct for Stray Light: No (USB2E7196)
Number of Pixels in Processed Spectrum: 2048
>>>>>Begin Processed Spectral Data<<<<<
339.09	0.00
339.48	213.00
339.86	213.40
340.24	215.05
340.63	217.70
341.01	226.15
341.39	218.70
341.78	222.50
342.16	223.80
342.54	222.70
342.93	212.05
343.31	222.71
343.69	223.20
344.07	223.69
344.46	224.25
344.84	224.70
345.22	224.67
345.60	225.05
345.99	225.19
346.37	225.33
346.75	225.41
347.13	225.48
347.52	225.56
347.90	225.75
348.28	225.77
348.66	225.86
349.05	225.82
349.43	225.95
349.81	226.00
350.19	226.18
350.57	226.26
350.96	226.32
351.34	226.43
351.72	226.63
352.10	226.74
352.48	226.73
352.87	226.75
353.25	226.76
353.63	226.70
354.01	226.78
354.39	226.84
354.77	226.95
355.15	227.12
355.54	227.16
355.92	227.02
356.30	227.04
356.68	227.39
357.06	227.38
357.44	227.27
357.82	227.34
358.20	227.73
358.58	227.77
358.97	227.84
359.35	228.05
359.73	228.15
360.11	228.21
360.49	228.33
360.87	228.34
361.25	228.44
361.63	228.67
362.01	228.74
362.39	228.67
362.77	228.78
363.15	228.81
363.53	228.82
363.91	228.93
364.29	228.99
364.67	228.53
365.05	228.57
365.43	228.68
365.81	228.74
366.19	228.63
366.57	228.87
366.95	228.88
367.33	228.76
367.71	228.70
368.09	228.82
368.47	228.80
368.85	228.82
369.23	228.92
369.61	228.74
369.99	228.89
370.37	229.05
370.75	229.24
371.13	229.20
371.51	229.20
371.89	229.29
372.27	229.32
372.65	229.40
373.03	229.43
373.41	229.43
373.78	229.37
374.16	229.11
374.54	228.93
374.92	228.90
375.30	228.83
375.68	228.71
376.06	228.60
376.44	228.49
376.82	228.47
377.19	228.46
377.57	228.43
377.95	228.16
378.33	228.04
378.71	227.68
379.09	227.57
379.47	227.58
379.84	227.42
380.22	227.30
380.60	227.14
380.98	227.05
381.36	226.96
381.73	226.90
382.11	226.88
382.49	226.86
382.87	226.66
383.25	226.58
383.62	227.10
384.00	227.01
384.38	227.03
384.76	227.01
385.13	227.05
385.51	227.00
385.89	226.93
386.27	226.88
386.64	226.93
387.02	226.92
387.40	226.76
387.78	226.69
388.15	226.60
388.53	226.55
388.91	226.50
389.29	226.48
389.66	226.47
390.04	226.42
390.42	226.38
390.79	226.40
391.17	226.46
391.55	225.93
391.92	225.92
392.30	225.89
392.68	225.79
393.05	225.78
393.43	225.87
393.81	225.97
394.18	225.90
394.56	225.90
394.94	225.95
395.31	225.95
395.69	226.14
396.06	226.29
396.44	226.39
396.82	226.47
397.19	226.70
397.57	226.73
397.95	226.82
398.32	226.76
398.70	226.90
399.07	227.07
399.45	227.11
399.82	227.13
400.20	227.16
400.58	227.27
400.95	227.15
401.33	227.22
401.70	227.65
402.08	227.79
402.45	227.86
402.83	228.16
403.20	228.39
403.58	228.47
403.95	228.66
404.33	228.90
404.71	229.07
405.08	229.50
405.46	229.67
405.83	229.94
406.21	230.24
406.58	230.50
406.96	230.67
407.33	231.02
407.70	231.33
408.08	232.01
408.45	232.45
408.83	232.96
409.20	233.34
409.58	233.45
409.95	233.94
410.33	234.53
410.70	234.90
411.08	235.47
411.45	236.10
411.82	236.69
412.20	237.51
412.57	238.49
412.95	238.79
413.32	239.76
413.69	240.54
414.07	241.42
414.44	242.39
414.82	243.46
415.19	244.67
415.56	246.09
415.94	247.12
416.31	248.56
416.68	249.94
417.06	251.62
417.43	253.22
417.81	254.99
418.18	256.85
418.55	258.71
418.93	260.75
419.30	262.78
419.67	264.99
420.04	267.16
420.42	269.45
420.79	272.60
421.16	275.25
421.54	278.32
421.91	281.30
422.28	284.37
422.66	287.60
423.03	291.06
423.40	294.25
423.77	297.84
424.15	301.32
424.52	305.14
424.89	309.30
425.26	313.22
425.64	317.02
426.01	321.10
426.38	325.46
426.75	329.90
427.13	334.33
427.50	339.07
427.87	343.91
428.24	348.75
428.61	353.29
428.99	358.61
429.36	364.02
429.73	369.53
430.10	374.99
430.47	380.70
430.85	386.20
431.22	392.29
431.59	399.04
431.96	405.35
432.33	412.16
432.70	418.71
433.08	426.56
433.45	433.98
433.82	441.34
434.19	449.48
434.56	457.58
434.93	465.36
435.30	473.12
435.68	481.52
436.05	489.79
436.42	497.97
436.79	505.43
437.16	513.70
437.53	522.48
437.90	531.23
438.27	539.60
438.64	548.38
439.01	556.80
439.38	563.87
439.75	570.83
440.13	578.83
440.50	586.17
440.87	592.30
441.24	598.69
441.61	605.45
441.98	610.52
442.35	616.23
442.72	622.38
443.09	628.11
443.46	631.62
443.83	634.04
444.20	635.96
444.57	638.80
444.94	639.98
445.31	641.04
445.68	642.36
446.05	642.67
446.42	641.32
446.79	639.77
447.16	638.17
447.53	636.95
447.90	633.15
448.27	629.68
448.64	624.82
449.01	621.07
449.37	615.02
449.74	609.01
450.11	602.20
450.48	594.31
450.85	586.27
451.22	579.55
451.59	573.07
451.96	566.80
452.33	558.70
452.70	551.33
453.07	542.57
453.43	533.46
453.80	525.08
454.17	517.21
454.54	509.60
454.91	501.52
455.28	493.56
455.65	486.25
456.02	479.42
456.38	473.03
456.75	465.25
457.12	458.79
457.49	452.47
457.86	446.09
458.23	440.95
458.59	435.34
458.96	429.55
459.33	424.43
459.70	419.35
460.07	415.28
460.43	410.56
460.80	406.35
461.17	402.73
461.54	398.74
461.91	395.00
462.27	391.18
462.64	387.88
463.01	384.42
463.38	381.15
463.74	377.22
464.11	374.19
464.48	371.63
464.85	368.83
465.21	366.71
465.58	364.53
465.95	361.71
466.32	359.47
466.68	357.21
467.05	354.96
467.42	352.72
467.78	350.51
468.15	348.37
468.52	346.88
468.88	344.59
469.25	342.65
469.62	341.25
469.98	339.55
470.35	338.10
470.72	336.67
471.08	335.03
471.45	333.77
471.82	332.69
472.18	331.20
472.55	330.33
472.92	329.08
473.28	327.98
473.65	326.91
474.02	325.94
474.38	325.12
474.75	324.41
475.11	323.58
475.48	322.93
475.85	322.39
476.21	321.66
476.58	321.24
476.94	320.82
477.31	320.29
477.67	319.92
478.04	319.58
478.41	319.32
478.77	319.62
479.14	319.27
479.50	319.04
479.87	319.12
480.23	319.04
480.60	319.09
480.96	319.08
481.33	319.46
481.69	319.68
482.06	319.98
482.42	320.23
482.79	320.66
483.15	321.09
483.52	321.68
483.88	322.21
484.25	322.73
484.61	323.44
484.98	324.12
485.34	325.04
485.71	325.95
486.07	326.90
486.44	327.51
486.80	328.60
487.17	329.69
487.53	331.10
487.90	332.57
488.26	334.18
488.62	335.92
488.99	337.34
489.35	339.09
489.72	340.87
490.08	342.83
490.44	344.94
490.81	347.15
491.17	349.33
491.54	351.83
491.90	354.42
492.26	357.05
492.63	359.90
492.99	362.74
493.36	365.84
493.72	369.14
494.08	372.45
494.45	376.21
494.81	380.09
495.17	383.91
495.54	388.04
495.90	392.18
496.26	396.50
496.63	401.16
496.99	405.88
497.35	410.84
497.72	416.19
498.08	421.64
498.44	427.29
498.80	433.41
499.17	439.31
499.53	445.47
499.89	452.02
500.26	458.69
500.62	465.60
500.98	473.03
501.34	480.40
501.71	488.23
502.07	495.91
502.43	503.90
502.79	512.29
503.16	520.92
503.52	529.86
503.88	539.08
504.24	548.87
504.60	558.63
504.97	568.95
505.33	579.17
505.69	590.12
506.05	601.18
506.41	612.30
506.78	623.95
507.14	635.80
507.50	648.12
507.86	660.85
508.22	673.81
508.59	686.72
508.95	700.46
509.31	714.42
509.67	728.74
510.03	743.17
510.39	757.67
510.75	772.53
511.12	787.61
511.48	803.00
511.84	818.60
512.20	834.48
512.56	850.72
512.92	867.60
513.28	884.24
513.64	901.10
514.00	918.53
514.37	936.16
514.73	954.49
515.09	972.57
515.45	990.62
515.81	1008.95
516.17	1027.40
516.53	1045.81
516.89	1064.46
517.25	1083.78
517.61	1103.62
517.97	1123.93
518.33	1144.00
518.69	1164.36
519.05	1184.91
519.41	1205.38
519.77	1226.41
520.13	1246.89
520.49	1267.43
520.85	1289.59
521.21	1310.65
521.57	1331.75
521.93	1352.40
522.29	1373.21
522.65	1393.74
523.01	1414.64
523.37	1435.11
523.73	1456.11
524.09	1476.39
524.45	1496.86
524.81	1517.45
525.17	1537.91
525.53	1558.02
525.89	1578.40
526.25	1598.90
526.61	1619.02
526.97	1639.97
527.33	1661.03
527.68	1682.58
528.04	1703.60
528.40	1722.87
528.76	1743.79
529.12	1763.91
529.48	1784.36
529.84	1804.03
530.20	1825.12
530.56	1845.72
530.91	1866.50
531.27	1886.56
531.63	1907.23
531.99	1927.48
532.35	1947.40
532.71	1967.29
533.07	1987.83
533.42	2007.25
533.78	2026.69
534.14	2046.35
534.50	2064.94
534.86	2083.71
535.21	2101.30
535.57	2119.12
535.93	2136.78
536.29	2154.10
536.65	2172.06
537.00	2189.80
537.36	2207.30
537.72	2223.22
538.08	2239.83
538.44	2256.16
538.79	2272.59
539.15	2288.88
539.51	2304.56
539.87	2319.22
540.22	2333.29
540.58	2347.21
540.94	2360.69
541.29	2373.28
541.65	2385.71
542.01	2398.00
542.37	2408.58
542.72	2419.21
543.08	2429.77
543.44	2441.24
543.79	2450.99
544.15	2460.65
544.51	2470.07
544.87	2479.46
545.22	2487.90
545.58	2495.28
545.94	2502.25
546.29	2508.28
546.65	2514.42
547.01	2519.85
547.36	2525.43
547.72	2530.66
548.07	2534.48
548.43	2539.45
548.79	2543.69
549.14	2547.09
549.50	2550.86
549.86	2554.21
550.21	2557.70
550.57	2560.76
550.92	2561.73
551.28	2562.69
551.64	2564.40
551.99	2566.22
552.35	2567.55
552.70	2569.38
553.06	2571.07
553.41	2571.69
553.77	2573.30
554.13	2574.67
554.48	2576.22
554.84	2577.40
555.19	2578.32
555.55	2579.58
555.90	2578.55
556.26	2577.82
556.61	2576.33
556.97	2574.29
557.32	2573.70
557.68	2572.51
558.03	2570.96
558.39	2569.63
558.74	2569.03
559.10	2566.00
559.45	2562.46
559.81	2558.04
560.16	2553.30
560.52	2548.45
560.87	2544.45
561.23	2538.71
561.58	2532.32
561.94	2525.32
562.29	2517.83
562.64	2510.85
563.00	2502.94
563.35	2496.60
563.71	2489.85
564.06	2483.68
564.42	2476.81
564.77	2469.87
565.12	2462.04
565.48	2454.35
565.83	2446.44
566.19	2438.63
566.54	2430.84
566.89	2422.60
567.25	2414.72
567.60	2407.24
567.96	2399.53
568.31	2391.44
568.66	2382.93
569.02	2374.05
569.37	2365.98
569.72	2358.32
570.08	2349.16
570.43	2339.63
570.78	2330.43
571.14	2320.97
571.49	2310.84
571.84	2301.03
572.20	2289.95
572.55	2280.02
572.90	2269.07
573.26	2258.72
573.61	2247.43
573.96	2236.61
574.31	2224.71
574.67	2212.75
575.02	2200.22
575.37	2187.74
575.72	2174.62
576.08	2162.86
576.43	2150.44
576.78	2137.36
577.13	2123.87
577.49	2111.15
577.84	2099.21
578.19	2087.25
578.54	2075.13
578.90	2063.70
579.25	2051.93
579.60	2039.51
579.95	2026.60
580.30	2013.75
580.66	2000.40
581.01	1987.12
581.36	1972.84
581.71	1960.29
582.06	1947.81
582.42	1935.43
582.77	1922.84
583.12	1910.99
583.47	1898.70
583.82	1887.00
584.17	1875.18
584.53	1863.65
584.88	1850.86
585.23	1837.99
585.58	1823.81
585.93	1810.57
586.28	1796.68
586.63	1782.58
586.98	1768.94
587.34	1756.00
587.69	1742.83
588.04	1730.55
588.39	1718.58
588.74	1706.92
589.09	1694.99
589.44	1682.70
589.79	1670.74
590.14	1659.12
590.49	1647.21
590.84	1635.37
591.19	1623.39
591.54	1611.31
591.89	1599.16
592.25	1589.22
592.60	1578.03
592.95	1567.04
593.30	1555.36
593.65	1543.95
594.00	1532.25
594.35	1522.48
594.70	1510.80
595.05	1499.85
595.40	1487.94
595.75	1476.10
596.10	1464.91
596.45	1453.49
596.80	1442.78
597.15	1431.48
597.50	1419.76
597.85	1408.78
598.19	1397.15
598.54	1385.79
598.89	1374.52
599.24	1363.90
599.59	1352.49
599.94	1341.63
600.29	1331.16
600.64	1320.97
600.99	1310.59
601.34	1301.24
601.69	1290.26
602.04	1280.62
602.39	1270.83
602.74	1261.76
603.08	1252.79
603.43	1243.62
603.78	1234.37
604.13	1224.71
604.48	1215.14
604.83	1205.66
605.18	1195.90
605.53	1186.56
605.87	1177.46
606.22	1169.10
606.57	1160.01
606.92	1150.55
607.27	1141.75
607.62	1133.31
607.96	1124.70
608.31	1116.77
608.66	1108.64
609.01	1100.28
609.36	1091.98
609.70	1083.81
610.05	1075.25
610.40	1066.79
610.75	1058.16
611.10	1049.63
611.44	1041.12
611.79	1033.18
612.14	1025.60
612.49	1017.91
612.83	1010.49
613.18	1002.82
613.53	995.21
613.88	987.27
614.22	979.90
614.57	972.26
614.92	964.47
615.27	957.29
615.61	949.70
615.96	941.87
616.31	934.59
616.65	927.44
617.00	920.14
617.35	913.08
617.70	905.97
618.04	899.10
618.39	892.45
618.74	886.19
619.08	879.37
619.43	872.24
619.78	865.25
620.12	858.30
620.47	851.67
620.82	844.71
621.16	838.30
621.51	832.07
621.85	825.92
622.20	819.40
622.55	812.70
622.89	806.24
623.24	800.11
623.59	793.90
623.93	787.71
624.28	781.67
624.62	776.16
624.97	770.52
625.32	764.71
625.66	758.71
626.01	752.78
626.35	747.48
626.70	742.02
627.04	736.81
627.39	731.52
627.73	726.22
628.08	721.08
628.43	715.72
628.77	710.28
629.12	704.96
629.46	700.29
629.81	695.51
630.15	690.81
630.50	686.10
630.84	681.38
631.19	676.87
631.53	672.50
631.88	667.26
632.22	662.44
632.57	658.17
632.91	653.88
633.26	649.52
633.60	644.85
633.95	640.24
634.29	635.65
634.64	631.20
634.98	626.53
635.32	622.21
635.67	618.30
636.01	614.17
636.36	609.95
636.70	605.97
637.05	602.02
637.39	598.11
637.73	593.98
638.08	590.03
638.42	585.76
638.77	581.45
639.11	577.39
639.45	573.17
639.80	568.78
640.14	564.60
640.49	560.56
640.83	556.89
641.17	553.45
641.52	549.92
641.86	546.50
642.20	543.50
642.55	539.97
642.89	536.43
643.23	533.00
643.58	529.93
643.92	526.40
644.26	523.03
644.61	519.77
644.95	516.46
645.29	512.94
645.64	509.91
645.98	506.88
646.32	504.00
646.66	501.01
647.01	498.17
647.35	495.57
647.69	492.84
648.04	490.01
648.38	487.17
648.72	484.19
649.06	481.12
649.41	477.99
649.75	475.08
650.09	472.11
650.43	469.16
650.78	466.28
651.12	463.56
651.46	460.71
651.80	458.00
652.14	455.50
652.49	453.18
652.83	450.55
653.17	447.98
653.51	445.34
653.85	443.00
654.20	440.50
654.54	437.90
654.88	435.35
655.22	433.17
655.56	430.82
655.90	428.43
656.25	426.35
656.59	424.05
656.93	421.85
657.27	419.95
657.61	417.76
657.95	415.53
658.29	413.29
658.64	411.38
658.98	409.13
659.32	406.73
659.66	404.44
660.00	402.30
660.34	400.32
660.68	398.25
661.02	396.15
661.36	394.23
661.70	392.26
662.05	390.36
662.39	388.41
662.73	386.66
663.07	385.23
663.41	383.36
663.75	381.60
664.09	379.79
664.43	377.81
664.77	376.13
665.11	374.47
665.45	372.93
665.79	371.35
666.13	369.67
666.47	368.06
666.81	366.55
667.15	364.85
667.49	363.34
667.83	362.05
668.17	360.65
668.51	359.19
668.85	357.94
669.19	356.76
669.53	355.19
669.87	353.65
670.21	352.01
670.55	350.56
670.89	349.41
671.23	348.15
671.57	346.78
671.91	345.44
672.25	344.14
672.58	342.92
672.92	341.49
673.26	340.36
673.60	339.23
673.94	338.01
674.28	337.01
674.62	335.81
674.96	334.50
675.30	333.34
675.64	332.27
675.97	331.04
676.31	329.72
676.65	328.45
676.99	327.44
677.33	326.27
677.67	325.27
678.01	323.94
678.34	322.80
678.68	321.92
679.02	320.88
679.36	319.76
679.70	318.68
680.04	317.71
680.37	316.68
680.71	315.77
681.05	314.95
681.39	314.03
681.73	313.17
682.06	312.26
682.40	311.34
682.74	310.43
683.08	309.72
683.42	308.87
683.75	308.16
684.09	307.27
684.43	306.56
684.77	305.77
685.10	305.06
685.44	304.30
685.78	303.35
686.12	302.55
686.45	301.78
686.79	300.96
687.13	300.37
687.46	299.64
687.80	298.95
688.14	298.14
688.48	297.41
688.81	296.53
689.15	296.00
689.49	295.25
689.82	294.56
690.16	293.53
690.50	292.85
690.83	292.07
691.17	291.38
691.51	290.60
691.84	289.92
692.18	289.16
692.52	288.49
692.85	287.92
693.19	287.58
693.52	287.10
693.86	286.42
694.20	285.68
694.53	285.15
694.87	284.52
695.21	283.87
695.54	283.28
695.88	282.69
696.21	281.89
696.55	281.29
696.88	280.60
697.22	280.10
697.56	279.59
697.89	279.05
698.23	278.56
698.56	278.09
698.90	277.64
699.23	277.17
699.57	276.74
699.90	276.17
700.24	275.45
700.58	274.92
700.91	274.46
701.25	274.42
701.58	274.30
701.92	273.92
702.25	273.46
702.59	272.95
702.92	272.58
703.26	272.25
703.59	271.82
703.93	271.83
704.26	271.47
704.60	271.02
704.93	270.56
705.26	270.08
705.60	269.65
705.93	269.04
706.27	268.80
706.60	268.49
706.94	268.35
707.27	267.92
707.61	267.62
707.94	267.30
708.27	266.47
708.61	265.64
708.94	265.19
709.28	264.74
709.61	264.37
709.94	263.91
710.28	263.50
710.61	263.24
710.95	262.49
711.28	262.41
711.61	261.96
711.95	261.79
712.28	261.30
712.61	261.01
712.95	260.97
713.28	260.73
713.61	260.24
713.95	259.72
714.28	259.43
714.61	258.91
714.95	258.61
715.28	258.20
715.61	257.94
715.95	257.65
716.28	257.31
716.61	257.01
716.95	256.66
717.28	256.28
717.61	255.92
717.94	255.66
718.28	255.04
718.61	254.82
718.94	254.47
719.27	254.33
719.61	253.99
719.94	253.67
720.27	253.12
720.60	252.85
720.94	252.60
721.27	252.41
721.60	252.34
721.93	251.97
722.27	251.99
722.60	251.71
722.93	251.45
723.26	251.36
723.59	251.13
723.93	251.10
724.26	251.01
724.59	250.69
724.92	250.42
725.25	250.37
725.59	250.09
725.92	249.93
726.25	249.70
726.58	249.54
726.91	249.24
727.24	249.18
727.57	248.94
727.91	248.67
728.24	248.50
728.57	248.18
728.90	248.12
729.23	247.74
729.56	247.79
729.89	247.61
730.22	247.38
730.55	247.17
730.89	246.94
731.22	246.67
731.55	246.56
731.88	246.42
732.21	246.10
732.54	245.98
732.87	245.77
733.20	245.60
733.53	245.48
733.86	245.36
734.19	245.13
734.52	245.07
734.85	245.28
735.18	245.04
735.51	245.08
735.84	244.87
736.17	244.83
736.50	244.45
736.83	244.83
737.16	244.68
737.49	244.61
737.82	244.40
738.15	244.38
738.48	244.19
738.81	244.03
739.14	243.86
739.47	243.65
739.80	243.47
740.13	243.46
740.46	243.17
740.79	242.97
741.12	242.81
741.45	242.61
741.78	242.19
742.11	242.15
742.44	241.91
742.77	241.90
743.10	241.69
743.43	241.51
743.75	240.86
744.08	241.31
744.41	241.10
744.74	240.95
745.07	240.66
745.40	240.60
745.73	240.68
746.06	240.54
746.39	240.43
746.71	240.30
747.04	239.96
747.37	239.85
747.70	239.81
748.03	239.70
748.36	239.63
748.68	239.52
749.01	239.29
749.34	239.14
749.67	238.98
750.00	239.02
750.33	239.29
750.65	239.22
750.98	238.50
751.31	238.37
751.64	238.35
751.97	238.54
752.29	238.50
752.62	238.15
752.95	238.09
753.28	237.91
753.60	237.77
753.93	237.89
754.26	237.86
754.59	237.59
754.91	237.44
755.24	237.31
755.57	237.19
755.90	237.05
756.22	236.95
756.55	236.80
756.88	236.53
757.20	236.06
757.53	235.85
757.86	235.74
758.19	235.79
758.51	235.64
758.84	235.30
759.17	235.10
759.49	235.09
759.82	235.21
760.15	235.27
760.47	235.24
760.80	234.98
761.13	234.97
761.45	234.88
761.78	234.76
762.11	234.66
762.43	234.52
762.76	234.40
763.08	234.33
763.41	234.33
763.74	234.22
764.06	234.19
764.39	234.08
764.71	234.01
765.04	233.78
765.37	233.70
765.69	233.70
766.02	233.59
766.34	233.43
766.67	233.14
767.00	233.09
767.32	233.22
767.65	233.47
767.97	233.35
768.30	233.36
768.62	233.31
768.95	233.21
769.27	233.14
769.60	233.20
769.92	233.09
770.25	232.87
770.57	232.86
770.90	232.80
771.22	232.69
771.55	232.66
771.87	232.69
772.20	232.55
772.52	232.82
772.85	233.36
773.17	233.33
773.50	233.26
773.82	233.15
774.15	232.88
774.47	232.53
774.80	232.42
775.12	232.36
775.45	232.29
775.77	232.28
776.09	232.23
776.42	232.21
776.74	232.30
777.07	232.22
777.39	232.09
777.72	231.98
778.04	232.08
778.36	231.98
778.69	231.95
779.01	232.02
779.33	231.52
779.66	230.95
779.98	230.90
780.31	230.90
780.63	231.08
780.95	231.16
781.28	231.10
781.60	231.06
781.92	231.05
782.25	231.05
782.57	231.00
782.89	231.00
783.22	230.85
783.54	230.73
783.86	230.82
784.19	230.74
784.51	230.88
784.83	230.74
785.16	230.70
785.48	230.65
785.80	230.56
786.12	230.68
786.45	230.66
786.77	230.71
787.09	230.68
787.42	230.45
787.74	230.41
788.06	230.42
788.38	230.32
788.71	230.21
789.03	230.14
789.35	230.14
789.67	230.05
789.99	230.14
790.32	230.09
790.64	230.08
790.96	230.45
791.28	230.20
791.61	230.19
791.93	230.21
792.25	230.14
792.57	230.48
792.89	230.24
793.21	230.20
793.54	230.13
793.86	230.03
794.18	230.02
794.50	229.93
794.82	229.82
795.14	229.98
795.47	230.02
795.79	230.09
796.11	230.04
796.43	230.02
796.75	229.94
797.07	229.93
797.39	229.91
797.71	229.57
798.04	229.60
798.36	229.62
798.68	229.56
799.00	229.62
799.32	229.37
799.64	229.52
799.96	229.60
800.28	229.62
800.60	229.55
800.92	229.61
801.24	229.54
801.56	229.60
801.89	229.42
802.21	229.48
802.53	229.42
802.85	229.48
803.17	229.64
803.49	229.51
803.81	229.45
804.13	229.39
804.45	229.38
804.77	229.44
805.09	229.36
805.41	229.33
805.73	229.22
806.05	229.01
806.37	228.93
806.69	228.78
807.01	228.71
807.33	228.70
807.65	228.46
807.97	228.67
808.28	228.56
808.60	228.58
808.92	228.41
809.24	228.65
809.56	228.55
809.88	228.33
810.20	228.44
810.52	228.56
810.84	228.40
811.16	228.30
811.48	228.28
811.80	228.49
812.12	228.47
812.43	228.50
812.75	228.55
813.07	228.45
813.39	228.47
813.71	228.40
814.03	228.41
814.35	228.39
814.67	228.15
814.98	228.15
815.30	228.12
815.62	228.09
815.94	227.78
816.26	227.93
816.58	227.85
816.89	227.79
817.21	227.56
817.53	227.64
817.85	227.68
818.17	227.58
818.48	227.36
818.80	227.44
819.12	227.35
819.44	227.18
819.76	227.18
820.07	227.14
820.39	227.11
820.71	227.16
821.03	227.28
821.34	227.20
821.66	227.23
821.98	227.27
822.30	227.29
822.61	227.52
822.93	227.30
823.25	227.32
823.57	227.30
823.88	227.38
824.20	227.35
824.52	227.44
824.83	227.41
825.15	227.35
825.47	227.23
825.79	227.36
826.10	227.45
826.42	227.43
826.74	227.53
827.05	227.45
827.37	227.38
827.69	227.25
828.00	227.38
828.32	227.40
828.64	227.31
828.95	227.55
829.27	227.42
829.58	227.49
829.90	227.51
830.22	227.55
830.53	227.46
830.85	227.40
831.17	227.20
831.48	227.23
831.80	227.31
832.11	227.33
832.43	227.25
832.75	227.25
833.06	227.53
833.38	227.41
833.69	227.49
834.01	227.54
834.32	227.58
834.64	227.50
834.96	227.50
835.27	227.53
835.59	227.40
835.90	227.37
836.22	227.31
836.53	227.25
836.85	227.13
837.16	227.70
837.48	227.74
837.79	227.96
838.11	227.99
838.42	227.92
838.74	227.99
839.05	227.92
839.37	227.90
839.68	227.57
840.00	227.53
840.31	227.57
840.63	227.54
840.94	227.55
841.26	227.48
841.57	227.45
841.88	227.49
842.20	227.36
842.51	227.27
842.83	227.25
843.14	227.76
843.46	227.79
843.77	227.49
844.08	227.45
844.40	227.31
844.71	227.23
845.03	227.25
845.34	227.24
845.65	227.20
845.97	227.19
846.28	227.23
846.60	227.24
846.91	227.22
847.22	227.21
847.54	227.29
847.85	227.30
848.16	227.31
848.48	227.26
848.79	227.52
849.10	227.53
849.42	227.57
849.73	227.07
850.04	227.02
850.36	226.83
850.67	226.88
850.98	226.90
851.30	226.95
851.61	226.85
851.92	226.86
852.23	227.05
852.55	227.12
852.86	227.12
853.17	227.19
853.49	227.20
853.80	227.27
854.11	227.27
854.42	227.32
854.74	227.26
855.05	227.25
855.36	226.96
855.67	227.04
855.99	227.01
856.30	227.62
856.61	227.66
856.92	227.68
857.23	227.70
857.55	227.64
857.86	227.65
858.17	227.83
858.48	227.73
858.79	227.67
859.11	227.69
859.42	227.66
859.73	227.60
860.04	227.61
860.35	227.42
860.66	227.25
860.98	227.26
861.29	227.37
861.60	227.30
861.91	227.35
862.22	227.16
862.53	227.18
862.84	226.56
863.16	226.73
863.47	226.66
863.78	226.65
864.09	226.70
864.40	226.72
864.71	226.61
865.02	226.69
865.33	226.51
865.64	226.44
865.95	226.46
866.27	226.72
866.58	226.66
866.89	226.79
867.20	226.72
867.51	226.68
867.82	226.64
868.13	226.82
868.44	226.77
868.75	226.98
869.06	226.95
869.37	226.98
869.68	226.76
869.99	226.84
870.30	226.83
870.61	226.86
870.92	226.84
871.23	226.85
871.54	226.87
871.85	227.01
872.16	227.03
872.47	227.07
872.78	226.85
873.09	226.92
873.40	226.86
873.71	226.96
874.02	226.91
874.33	226.83
874.64	226.75
874.95	226.86
875.26	226.73
875.56	226.69
875.87	226.64
876.18	226.71
876.49	227.19
876.80	227.11
877.11	226.92
877.42	226.92
877.73	226.88
878.04	226.88
878.35	226.95
878.66	227.01
878.96	226.94
879.27	226.88
879.58	226.85
879.89	226.80
880.20	226.97
880.51	227.00
880.82	227.01
881.12	226.95
881.43	226.81
881.74	226.76
882.05	226.77
882.36	226.91
882.67	226.87
882.97	226.33
883.28	226.35
883.59	226.40
883.90	226.40
884.21	226.49
884.51	226.41
884.82	226.31
885.13	226.25
885.44	226.30
885.74	226.32
886.05	226.32
886.36	226.40
886.67	226.18
886.98	226.43
887.28	226.50
887.59	226.56
887.90	226.61
888.20	226.60
888.51	226.69
888.82	226.58
889.13	226.62
889.43	227.07
889.74	227.02
890.05	227.10
890.35	227.08
890.66	226.95
890.97	226.88
891.28	226.86
891.58	226.91
891.89	226.86
892.20	226.76
892.50	226.67
892.81	226.59
893.12	226.65
893.42	226.38
893.73	226.35
894.04	226.34
894.34	226.35
894.65	226.28
894.95	226.21
895.26	226.23
895.57	226.42
895.87	225.99
896.18	226.07
896.48	226.05
896.79	226.03
897.10	226.17
897.40	226.22
897.71	226.27
898.01	226.28
898.32	226.35
898.63	226.42
898.93	226.50
899.24	226.58
899.54	226.55
899.85	226.55
900.15	226.50
900.46	226.50
900.76	226.52
901.07	226.55
901.38	226.57
901.68	226.58
901.99	226.36
902.29	226.36
902.60	226.32
902.90	226.27
903.21	226.32
903.51	226.32
903.82	226.40
904.12	226.42
904.43	226.41
904.73	226.35
905.03	226.31
905.34	226.73
905.64	226.69
905.95	226.69
906.25	226.67
906.56	226.65
906.86	226.64
907.17	226.56
907.47	226.61
907.77	226.56
908.08	226.53
908.38	226.53
908.69	226.55
908.99	226.56
909.30	226.63
909.60	226.55
909.90	226.48
910.21	226.34
910.51	226.23
910.81	226.19
911.12	226.24
911.42	226.22
911.73	225.75
912.03	225.72
912.33	225.90
912.64	225.86
912.94	225.85
913.24	225.75
913.55	225.74
913.85	225.68
914.15	225.75
914.46	225.70
914.76	225.71
915.06	225.64
915.37	225.59
915.67	225.50
915.97	225.51
916.27	225.41
916.58	225.44
916.88	225.42
917.18	225.38
917.49	225.75
917.79	225.71
918.09	225.77
918.39	225.87
918.70	225.77
919.00	225.82
919.30	226.03
919.60	226.07
919.91	226.04
920.21	226.14
920.51	226.05
920.81	226.10
921.12	226.14
921.42	226.16
921.72	226.17
922.02	226.27
922.32	226.37
922.63	226.41
922.93	226.70
923.23	226.74
923.53	226.63
923.83	226.31
924.13	226.36
924.44	226.38
924.74	226.51
925.04	226.61
925.34	226.55
925.64	226.38
925.94	226.35
926.24	226.62
926.55	226.50
926.85	226.53
927.15	226.53
927.45	226.50
927.75	226.46
928.05	226.52
928.35	226.35
928.65	226.35
928.95	226.41
929.26	226.15
929.56	226.22
929.86	226.35
930.16	226.29
930.46	226.25
930.76	226.30
931.06	225.97
931.36	225.77
931.66	225.85
931.96	225.88
932.26	225.94
932.56	225.77
932.86	225.88
933.16	225.84
933.46	225.75
933.76	225.71
934.06	225.88
934.36	226.07
934.66	226.10
934.96	226.15
935.26	226.15
935.56	226.25
935.86	226.14
936.16	226.11
936.46	226.06
936.76	226.05
937.06	225.96
937.36	226.07
937.66	226.07
937.96	226.12
938.26	225.99
938.56	225.93
938.86	226.00
939.16	226.06
939.46	226.11
939.76	226.21
940.06	226.21
940.35	226.15
940.65	225.88
940.95	225.96
941.25	225.84
941.55	225.73
941.85	225.71
942.15	225.87
942.45	226.00
942.75	226.05
943.04	226.14
943.34	226.29
943.64	226.24
943.94	226.26
944.24	226.24
944.54	226.37
944.84	226.35
945.13	226.25
945.43	226.20
945.73	226.27
946.03	226.25
946.33	226.20
946.62	226.02
946.92	226.04
947.22	226.06
947.52	226.03
947.82	226.09
948.11	226.01
948.41	225.88
948.71	225.74
949.01	225.69
949.31	225.59
949.60	225.52
949.90	225.61
950.20	225.58
950.50	225.49
950.79	225.43
951.09	225.58
951.39	225.55
951.69	225.49
951.98	225.56
952.28	225.54
952.58	225.52
952.87	225.66
953.17	225.70
953.47	225.71
953.76	225.76
954.06	225.74
954.36	225.63
954.66	225.57
954.95	225.72
955.25	225.78
955.55	225.89
955.84	225.77
956.14	225.85
956.44	225.89
956.73	225.87
957.03	225.89
957.32	225.83
957.62	225.80
957.92	225.85
958.21	225.79
958.51	226.39
958.81	226.45
959.10	226.46
959.40	226.51
959.69	226.43
959.99	226.49
960.29	226.44
960.58	226.50
960.88	226.66
961.17	226.60
961.47	226.66
961.76	226.59
962.06	226.69
962.36	226.62
962.65	226.61
962.95	226.62
963.24	226.63
963.54	226.60
963.83	226.67
964.13	226.63
964.42	226.51
964.72	226.12
965.01	226.14
965.31	226.10
965.60	226.07
965.90	226.40
966.19	226.26
966.49	226.35
966.78	226.31
967.08	226.33
967.37	226.32
967.67	226.17
967.96	226.26
968.26	226.24
968.55	226.26
968.85	226.32
969.14	226.36
969.43	226.30
969.73	226.30
970.02	226.25
970.32	226.25
970.61	226.26
970.91	226.02
971.20	225.97
971.49	225.95
971.79	225.95
972.08	225.66
972.38	225.73
972.67	225.65
972.96	225.73
973.26	225.67
973.55	225.83
973.85	225.87
974.14	225.75
974.43	225.70
974.73	225.64
975.02	225.46
975.31	225.52
975.61	225.52
975.90	225.47
976.19	225.44
976.49	225.55
976.78	225.51
977.07	225.59
977.37	225.58
977.66	225.62
977.95	225.55
978.24	225.53
978.54	225.65
978.83	225.64
979.12	225.60
979.42	225.60
979.71	225.47
980.00	225.40
980.29	225.48
980.59	225.42
980.88	225.56
981.17	225.60
981.46	225.55
981.76	225.52
982.05	225.72
982.34	225.80
982.63	225.78
982.93	225.85
983.22	225.97
983.51	226.00
983.80	226.14
984.09	226.23
984.39	226.27
984.68	226.17
984.97	226.28
985.26	226.25
985.55	226.23
985.85	226.20
986.14	226.30
986.43	226.35
986.72	226.34
987.01	226.14
987.30	226.24
987.59	226.26
987.89	226.35
988.18	226.08
988.47	226.06
988.76	225.94
989.05	225.85
989.34	225.82
989.63	225.91
989.92	225.83
990.22	225.77
990.51	225.72
990.80	225.71
991.09	225.63
991.38	225.75
991.67	225.66
991.96	225.58
992.25	225.60
992.54	225.52
992.83	225.58
993.12	225.65
993.41	225.68
993.70	225.81
993.99	225.91
994.28	226.05
994.58	226.09
994.87	226.07
995.16	226.12
995.45	226.06
995.74	225.95
996.03	225.95
996.32	226.06
996.61	226.20
996.90	226.17
997.19	226.19
997.48	226.16
997.77	226.20
998.06	226.25
998.34	226.24
998.63	226.25
998.92	226.26
999.21	226.34
999.50	226.35
999.79	226.17
1000.08	226.14
1000.37	226.15
1000.66	226.11
1000.95	226.28
1001.24	226.33
1001.53	226.35
1001.82	226.34
1002.11	226.25
1002.40	226.28
1002.68	226.36
1002.97	226.70
1003.26	226.65
1003.55	226.61
1003.84	226.67
1004.13	226.81
1004.42	226.80
1004.71	226.77
1004.99	226.81
1005.28	226.84
1005.57	226.74
1005.86	226.68
1006.15	226.61
1006.44	226.52
1006.72	226.55
1007.01	226.43
1007.30	226.44
1007.59	226.40
1007.88	226.35
1008.17	226.42
1008.45	226.29
1008.74	226.09
1009.03	225.86
1009.32	225.86
1009.60	225.83
1009.89	225.73
1010.18	225.55
1010.47	225.46
1010.76	225.44
1011.04	225.38
1011.33	225.41
1011.62	225.50
1011.91	225.59
1012.19	225.67
1012.48	225.73
1012.77	225.70
1013.05	225.95
1013.34	225.95
1013.63	225.86
1013.92	225.91
1014.20	225.87
1014.49	225.84
1014.78	225.84
1015.06	225.69
1015.35	225.67
1015.64	225.80
1015.92	225.86
1016.21	225.87
1016.50	225.93
1016.78	226.01
1017.07	226.05
1017.36	225.88
1017.64	225.79
1017.93	225.80
1018.22	225.66
1018.50	225.57
1018.79	225.55
1019.08	225.35
1019.36	225.31
1019.65	225.33
1019.93	225.48
1020.22	225.52
1020.51	225.87
1020.79	225.77
1021.08	223.80
1021.36	223.75
1021.65	225.25
1021.94	226.50
1022.22	225.40
1022.51	225.05
1022.79	228.15
1023.08	226.35
1023.36	232.70
1023.65	223.35
>>>>>End Processed Spectral Data<<<<<
