SpectraSuite Data File
++++++++++++++++++++++++++++++++++++
Date: Wed Sep 04 17:50:22 EDT 2013
User: lab3
Dark Spectrum Present: Yes
Reference Spectrum Present: No
Number of Sampled Component Spectra: 1
Spectrometers: USB2E7196
Integration Time (usec): 170000 (USB2E7196)
Spectra Averaged: 20 (USB2E7196)
Boxcar Smoothing: 10 (USB2E7196)
Correct for Electrical Dark: No (USB2E7196)
Strobe/Lamp Enabled: No (USB2E7196)
Correct for Detector Non-linearity: No (USB2E7196)
Correct for Stray Light: No (USB2E7196)
Number of Pixels in Processed Spectrum: 2048
>>>>>Begin Processed Spectral Data<<<<<
339.09	0.00
339.48	211.85
339.86	213.00
340.24	215.05
340.63	216.45
341.01	224.70
341.39	219.55
341.78	221.40
342.16	224.55
342.54	223.00
342.93	211.72
343.31	222.39
343.69	222.98
344.07	223.49
344.46	223.96
344.84	224.40
345.22	224.42
345.60	224.68
345.99	224.94
346.37	225.00
346.75	225.07
347.13	225.14
347.52	225.15
347.90	225.40
348.28	225.46
348.66	225.53
349.05	225.37
349.43	225.48
349.81	225.59
350.19	225.63
350.57	225.68
350.96	225.78
351.34	225.93
351.72	226.05
352.10	226.10
352.48	226.20
352.87	226.25
353.25	226.30
353.63	226.35
354.01	226.32
354.39	226.38
354.77	226.51
355.15	226.72
355.54	226.76
355.92	226.63
356.30	226.77
356.68	227.27
357.06	227.34
357.44	227.38
357.82	227.46
358.20	227.98
358.58	228.01
358.97	228.11
359.35	228.24
359.73	228.36
360.11	228.50
360.49	228.53
360.87	228.57
361.25	228.66
361.63	228.88
362.01	229.00
362.39	228.99
362.77	229.05
363.15	229.00
363.53	229.10
363.91	229.16
364.29	229.12
364.67	228.66
365.05	228.82
365.43	228.86
365.81	228.92
366.19	228.79
366.57	229.03
366.95	229.06
367.33	228.91
367.71	228.95
368.09	229.01
368.47	229.05
368.85	229.04
369.23	229.15
369.61	229.01
369.99	229.20
370.37	229.26
370.75	229.43
371.13	229.37
371.51	229.20
371.89	229.28
372.27	229.31
372.65	229.26
373.03	229.18
373.41	229.14
373.78	229.05
374.16	228.77
374.54	228.52
374.92	228.38
375.30	228.39
375.68	228.18
376.06	228.17
376.44	228.09
376.82	228.04
377.19	227.97
377.57	227.86
377.95	227.60
378.33	227.52
378.71	227.19
379.09	227.18
379.47	227.25
379.84	227.17
380.22	227.03
380.60	226.90
380.98	226.79
381.36	226.69
381.73	226.55
382.11	226.55
382.49	226.51
382.87	226.36
383.25	226.27
383.62	226.82
384.00	226.61
384.38	226.60
384.76	226.69
385.13	226.72
385.51	226.69
385.89	226.47
386.27	226.39
386.64	226.39
387.02	226.26
387.40	226.07
387.78	225.94
388.15	225.92
388.53	225.84
388.91	225.84
389.29	225.77
389.66	225.82
390.04	225.68
390.42	225.73
390.79	225.79
391.17	225.83
391.55	225.25
391.92	225.28
392.30	225.22
392.68	225.12
393.05	225.09
393.43	225.11
393.81	225.24
394.18	225.25
394.56	225.27
394.94	225.46
395.31	225.52
395.69	225.79
396.06	225.84
396.44	225.95
396.82	225.92
397.19	226.21
397.57	226.26
397.95	226.42
398.32	226.33
398.70	226.48
399.07	226.55
399.45	226.57
399.82	226.57
400.20	226.65
400.58	226.70
400.95	226.66
401.33	226.86
401.70	227.26
402.08	227.42
402.45	227.51
402.83	227.72
403.20	227.92
403.58	227.95
403.95	228.29
404.33	228.53
404.71	228.77
405.08	229.22
405.46	229.42
405.83	229.66
406.21	230.01
406.58	230.21
406.96	230.54
407.33	230.94
407.70	231.42
408.08	232.15
408.45	232.63
408.83	233.17
409.20	233.49
409.58	233.71
409.95	234.25
410.33	234.88
410.70	235.26
411.08	235.85
411.45	236.44
411.82	236.97
412.20	237.70
412.57	238.70
412.95	239.09
413.32	239.94
413.69	240.81
414.07	241.68
414.44	242.66
414.82	243.65
415.19	244.94
415.56	246.11
415.94	247.09
416.31	248.52
416.68	249.92
417.06	251.62
417.43	253.26
417.81	255.05
418.18	256.93
418.55	258.91
418.93	260.95
419.30	263.09
419.67	265.28
420.04	267.54
420.42	269.79
420.79	272.80
421.16	275.53
421.54	278.53
421.91	281.49
422.28	284.55
422.66	287.75
423.03	291.07
423.40	294.38
423.77	297.94
424.15	301.52
424.52	305.32
424.89	309.41
425.26	313.29
425.64	317.02
426.01	321.01
426.38	325.28
426.75	329.73
427.13	334.17
427.50	338.78
427.87	343.60
428.24	348.54
428.61	352.92
428.99	358.25
429.36	363.68
429.73	369.14
430.10	374.50
430.47	380.31
430.85	385.78
431.22	391.88
431.59	398.60
431.96	404.77
432.33	411.48
432.70	418.02
433.08	425.80
433.45	433.06
433.82	440.37
434.19	448.53
434.56	456.55
434.93	464.21
435.30	472.00
435.68	480.60
436.05	488.95
436.42	497.35
436.79	505.00
437.16	513.27
437.53	522.12
437.90	530.86
438.27	539.29
438.64	548.34
439.01	556.59
439.38	563.69
439.75	570.65
440.13	578.79
440.50	586.33
440.87	592.31
441.24	598.73
441.61	605.69
441.98	610.69
442.35	616.57
442.72	622.63
443.09	628.39
443.46	631.88
443.83	634.18
444.20	636.09
444.57	638.83
444.94	639.94
445.31	641.02
445.68	642.45
446.05	642.67
446.42	641.29
446.79	639.83
447.16	638.30
447.53	637.23
447.90	633.39
448.27	629.73
448.64	624.95
449.01	621.25
449.37	615.20
449.74	609.29
450.11	602.44
450.48	594.65
450.85	586.82
451.22	579.91
451.59	573.42
451.96	567.15
452.33	558.99
452.70	551.74
453.07	543.14
453.43	534.05
453.80	525.71
454.17	517.79
454.54	510.16
454.91	502.10
455.28	494.00
455.65	486.68
456.02	479.95
456.38	473.66
456.75	465.99
457.12	459.42
457.49	453.20
457.86	446.89
458.23	441.98
458.59	436.33
458.96	430.69
459.33	425.72
459.70	420.80
460.07	416.78
460.43	412.14
460.80	407.85
461.17	404.25
461.54	400.18
461.91	396.42
462.27	392.61
462.64	389.28
463.01	385.89
463.38	382.64
463.74	378.64
464.11	375.70
464.48	373.13
464.85	370.37
465.21	368.24
465.58	365.88
465.95	362.93
466.32	360.66
466.68	358.36
467.05	355.97
467.42	353.75
467.78	351.45
468.15	349.34
468.52	347.83
468.88	345.54
469.25	343.66
469.62	342.15
469.98	340.55
470.35	339.10
470.72	337.55
471.08	335.84
471.45	334.61
471.82	333.33
472.18	331.90
472.55	330.92
472.92	329.49
473.28	328.41
473.65	327.37
474.02	326.29
474.38	325.46
474.75	324.69
475.11	323.75
475.48	323.15
475.85	322.48
476.21	321.75
476.58	321.30
476.94	320.96
477.31	320.51
477.67	320.16
478.04	319.83
478.41	319.72
478.77	320.03
479.14	319.72
479.50	319.60
479.87	319.65
480.23	319.69
480.60	319.78
480.96	319.85
481.33	320.21
481.69	320.42
482.06	320.59
482.42	320.95
482.79	321.35
483.15	321.74
483.52	322.39
483.88	322.83
484.25	323.34
484.61	324.01
484.98	324.66
485.34	325.61
485.71	326.51
486.07	327.48
486.44	328.06
486.80	329.08
487.17	330.27
487.53	331.61
487.90	333.01
488.26	334.63
488.62	336.27
488.99	337.67
489.35	339.42
489.72	341.27
490.08	343.11
490.44	345.08
490.81	347.21
491.17	349.37
491.54	351.85
491.90	354.40
492.26	357.09
492.63	359.91
492.99	362.72
493.36	365.81
493.72	369.10
494.08	372.42
494.45	376.25
494.81	380.18
495.17	383.93
495.54	388.02
495.90	392.17
496.26	396.62
496.63	401.17
496.99	405.85
497.35	411.03
497.72	416.50
498.08	421.89
498.44	427.58
498.80	433.56
499.17	439.69
499.53	445.98
499.89	452.65
500.26	459.36
500.62	466.25
500.98	473.60
501.34	481.09
501.71	489.00
502.07	496.80
502.43	504.73
502.79	513.19
503.16	521.91
503.52	530.92
503.88	540.14
504.24	549.87
504.60	559.97
504.97	570.23
505.33	580.42
505.69	591.59
506.05	602.55
506.41	613.79
506.78	625.44
507.14	637.44
507.50	649.65
507.86	662.27
508.22	675.25
508.59	688.20
508.95	701.57
509.31	715.50
509.67	729.68
510.03	744.06
510.39	758.84
510.75	773.81
511.12	788.95
511.48	804.49
511.84	820.29
512.20	836.13
512.56	852.20
512.92	869.01
513.28	885.81
513.64	903.10
514.00	920.55
514.37	938.15
514.73	956.21
515.09	974.40
515.45	992.81
515.81	1011.09
516.17	1029.86
516.53	1048.54
516.89	1067.18
517.25	1086.44
517.61	1106.45
517.97	1126.37
518.33	1146.25
518.69	1166.58
519.05	1186.85
519.41	1207.18
519.77	1228.08
520.13	1248.89
520.49	1269.02
520.85	1291.08
521.21	1311.80
521.57	1333.00
521.93	1353.59
522.29	1374.57
522.65	1394.94
523.01	1415.55
523.37	1436.24
523.73	1456.90
524.09	1477.54
524.45	1498.00
524.81	1518.52
525.17	1539.00
525.53	1559.48
525.89	1580.00
526.25	1600.41
526.61	1620.48
526.97	1641.47
527.33	1662.50
527.68	1683.80
528.04	1705.64
528.40	1725.15
528.76	1746.35
529.12	1766.70
529.48	1787.43
529.84	1807.51
530.20	1828.59
530.56	1849.18
530.91	1870.04
531.27	1890.55
531.63	1910.95
531.99	1931.43
532.35	1951.23
532.71	1971.22
533.07	1991.65
533.42	2011.65
533.78	2031.22
534.14	2051.23
534.50	2070.00
534.86	2089.05
535.21	2106.59
535.57	2124.23
535.93	2141.90
536.29	2159.30
536.65	2177.16
537.00	2194.62
537.36	2211.52
537.72	2227.70
538.08	2244.80
538.44	2261.15
538.79	2277.34
539.15	2293.55
539.51	2309.45
539.87	2324.58
540.22	2338.40
540.58	2352.79
540.94	2365.69
541.29	2378.53
541.65	2390.85
542.01	2402.90
542.37	2413.20
542.72	2423.99
543.08	2434.55
543.44	2445.85
543.79	2455.82
544.15	2465.36
544.51	2475.21
544.87	2484.95
545.22	2493.34
545.58	2500.93
545.94	2507.59
546.29	2513.75
546.65	2519.60
547.01	2525.22
547.36	2530.76
547.72	2536.30
548.07	2539.71
548.43	2544.51
548.79	2548.87
549.14	2552.94
549.50	2557.07
549.86	2560.91
550.21	2564.60
550.57	2567.63
550.92	2568.56
551.28	2569.64
551.64	2571.70
551.99	2573.19
552.35	2574.74
552.70	2576.65
553.06	2578.23
553.41	2579.75
553.77	2581.36
554.13	2583.07
554.48	2584.01
554.84	2585.02
555.19	2585.80
555.55	2587.35
555.90	2587.10
556.26	2586.25
556.61	2584.60
556.97	2581.99
557.32	2581.35
557.68	2580.06
558.03	2578.73
558.39	2577.46
558.74	2576.26
559.10	2573.08
559.45	2569.47
559.81	2564.78
560.16	2559.59
560.52	2554.52
560.87	2549.95
561.23	2544.36
561.58	2538.34
561.94	2531.45
562.29	2524.20
562.64	2517.30
563.00	2508.96
563.35	2502.14
563.71	2495.30
564.06	2488.95
564.42	2482.69
564.77	2475.31
565.12	2467.46
565.48	2459.95
565.83	2451.97
566.19	2444.26
566.54	2436.57
566.89	2428.64
567.25	2421.15
567.60	2414.48
567.96	2406.96
568.31	2399.01
568.66	2390.42
569.02	2381.30
569.37	2373.30
569.72	2365.79
570.08	2356.30
570.43	2347.11
570.78	2337.89
571.14	2328.57
571.49	2318.40
571.84	2308.89
572.20	2298.16
572.55	2288.26
572.90	2277.19
573.26	2266.97
573.61	2255.79
573.96	2244.34
574.31	2232.20
574.67	2220.18
575.02	2207.22
575.37	2194.71
575.72	2181.66
576.08	2170.07
576.43	2157.70
576.78	2144.54
577.13	2131.04
577.49	2118.62
577.84	2107.02
578.19	2094.97
578.54	2082.37
578.90	2070.64
579.25	2058.41
579.60	2046.23
579.95	2033.51
580.30	2020.56
580.66	2007.12
581.01	1993.59
581.36	1979.90
581.71	1967.50
582.06	1954.70
582.42	1942.37
582.77	1929.69
583.12	1917.81
583.47	1905.21
583.82	1893.41
584.17	1881.59
584.53	1869.67
584.88	1856.87
585.23	1843.43
585.58	1829.54
585.93	1816.64
586.28	1803.27
586.63	1789.34
586.98	1775.43
587.34	1762.26
587.69	1749.27
588.04	1737.00
588.39	1725.24
588.74	1713.16
589.09	1701.42
589.44	1688.71
589.79	1676.41
590.14	1664.32
590.49	1652.10
590.84	1640.15
591.19	1628.13
591.54	1616.00
591.89	1603.80
592.25	1593.78
592.60	1582.23
592.95	1571.05
593.30	1559.27
593.65	1547.31
594.00	1535.55
594.35	1525.80
594.70	1513.96
595.05	1502.57
595.40	1490.50
595.75	1478.61
596.10	1467.44
596.45	1455.62
596.80	1445.20
597.15	1434.20
597.50	1422.77
597.85	1411.67
598.19	1400.35
598.54	1388.80
598.89	1377.54
599.24	1367.15
599.59	1355.62
599.94	1345.07
600.29	1334.89
600.64	1324.62
600.99	1314.22
601.34	1304.80
601.69	1293.79
602.04	1284.22
602.39	1274.83
602.74	1265.90
603.08	1256.55
603.43	1247.56
603.78	1238.07
604.13	1228.38
604.48	1218.71
604.83	1209.20
605.18	1199.41
605.53	1189.74
605.87	1180.86
606.22	1172.43
606.57	1163.30
606.92	1153.85
607.27	1145.19
607.62	1136.49
607.96	1128.12
608.31	1120.29
608.66	1111.76
609.01	1103.32
609.36	1094.85
609.70	1086.35
610.05	1077.81
610.40	1069.78
610.75	1061.11
611.10	1052.95
611.44	1044.48
611.79	1036.45
612.14	1028.49
612.49	1020.78
612.83	1013.52
613.18	1005.69
613.53	998.27
613.88	990.55
614.22	983.12
614.57	975.31
614.92	967.55
615.27	959.89
615.61	952.35
615.96	944.86
616.31	937.37
616.65	930.48
617.00	923.14
617.35	915.93
617.70	908.60
618.04	901.56
618.39	894.76
618.74	888.45
619.08	881.81
619.43	875.10
619.78	868.23
620.12	861.20
620.47	854.39
620.82	847.15
621.16	840.32
621.51	834.19
621.85	827.87
622.20	821.28
622.55	814.78
622.89	808.32
623.24	802.14
623.59	795.81
623.93	789.47
624.28	783.55
624.62	778.10
624.97	772.48
625.32	766.86
625.66	761.00
626.01	755.15
626.35	749.70
626.70	744.13
627.04	739.00
627.39	733.58
627.73	728.48
628.08	723.61
628.43	718.38
628.77	712.86
629.12	707.81
629.46	703.11
629.81	698.61
630.15	693.90
630.50	689.15
630.84	684.48
631.19	679.77
631.53	675.21
631.88	669.95
632.22	665.17
632.57	660.64
632.91	656.07
633.26	651.70
633.60	646.95
633.95	642.52
634.29	637.66
634.64	633.35
634.98	628.56
635.32	624.12
635.67	620.30
636.01	616.23
636.36	611.85
636.70	607.62
637.05	603.30
637.39	599.16
637.73	595.02
638.08	591.04
638.42	586.84
638.77	582.55
639.11	578.39
639.45	574.06
639.80	569.73
640.14	565.59
640.49	561.42
640.83	557.55
641.17	553.85
641.52	550.18
641.86	546.56
642.20	543.43
642.55	539.73
642.89	536.06
643.23	532.55
643.58	529.61
643.92	526.14
644.26	522.76
644.61	519.55
644.95	516.17
645.29	512.86
645.64	509.80
645.98	506.81
646.32	503.89
646.66	500.90
647.01	498.03
647.35	495.41
647.69	492.65
648.04	489.99
648.38	487.24
648.72	484.55
649.06	481.54
649.41	478.56
649.75	475.67
650.09	472.75
650.43	469.94
650.78	466.94
651.12	464.16
651.46	461.45
651.80	458.72
652.14	456.13
652.49	453.61
652.83	451.02
653.17	448.39
653.51	445.78
653.85	443.43
654.20	440.94
654.54	438.27
654.88	435.78
655.22	433.49
655.56	431.04
655.90	428.76
656.25	426.65
656.59	424.38
656.93	422.42
657.27	420.37
657.61	417.96
657.95	415.89
658.29	413.78
658.64	411.75
658.98	409.50
659.32	407.36
659.66	405.27
660.00	403.27
660.34	401.28
660.68	399.33
661.02	397.27
661.36	395.36
661.70	393.42
662.05	391.50
662.39	389.55
662.73	387.77
663.07	386.11
663.41	384.21
663.75	382.38
664.09	380.48
664.43	378.47
664.77	376.84
665.11	374.95
665.45	373.25
665.79	371.55
666.13	369.91
666.47	368.21
666.81	366.54
667.15	364.82
667.49	363.21
667.83	361.75
668.17	360.32
668.51	359.00
668.85	357.75
669.19	356.64
669.53	355.10
669.87	353.51
670.21	351.95
670.55	350.65
670.89	349.48
671.23	348.19
671.57	346.88
671.91	345.59
672.25	344.31
672.58	343.17
672.92	341.76
673.26	340.55
673.60	339.42
673.94	338.26
674.28	337.21
674.62	336.15
674.96	334.94
675.30	333.87
675.64	332.53
675.97	331.24
676.31	329.81
676.65	328.65
676.99	327.77
677.33	326.62
677.67	325.46
678.01	324.19
678.34	323.02
678.68	322.23
679.02	321.17
679.36	320.16
679.70	319.08
680.04	318.18
680.37	317.17
680.71	316.19
681.05	315.28
681.39	314.36
681.73	313.34
682.06	312.42
682.40	311.42
682.74	310.59
683.08	309.90
683.42	309.00
683.75	308.25
684.09	307.18
684.43	306.27
684.77	305.56
685.10	304.73
685.44	304.05
685.78	303.05
686.12	302.34
686.45	301.57
686.79	300.78
687.13	300.10
687.46	299.37
687.80	298.72
688.14	297.94
688.48	297.15
688.81	296.46
689.15	295.86
689.49	295.17
689.82	294.48
690.16	293.58
690.50	292.88
690.83	292.16
691.17	291.45
691.51	290.87
691.84	290.12
692.18	289.46
692.52	288.69
692.85	288.12
693.19	287.64
693.52	286.98
693.86	286.30
694.20	285.62
694.53	285.05
694.87	284.35
695.21	283.69
695.54	283.10
695.88	282.45
696.21	281.70
696.55	281.09
696.88	280.54
697.22	280.04
697.56	279.62
697.89	278.99
698.23	278.52
698.56	277.97
698.90	277.54
699.23	276.94
699.57	276.53
699.90	276.00
700.24	275.27
700.58	274.83
700.91	274.42
701.25	274.35
701.58	274.16
701.92	273.81
702.25	273.41
702.59	272.86
702.92	272.45
703.26	272.10
703.59	271.62
703.93	271.59
704.26	271.16
704.60	270.75
704.93	270.30
705.26	269.87
705.60	269.46
705.93	268.91
706.27	268.74
706.60	268.41
706.94	268.19
707.27	267.77
707.61	267.47
707.94	267.07
708.27	266.32
708.61	265.58
708.94	265.12
709.28	264.71
709.61	264.30
709.94	264.01
710.28	263.62
710.61	263.26
710.95	262.46
711.28	262.47
711.61	261.97
711.95	261.72
712.28	261.25
712.61	260.94
712.95	260.81
713.28	260.68
713.61	260.26
713.95	259.74
714.28	259.50
714.61	259.07
714.95	258.69
715.28	258.29
715.61	257.99
715.95	257.71
716.28	257.36
716.61	257.23
716.95	256.77
717.28	256.41
717.61	256.12
717.94	255.78
718.28	255.14
718.61	254.84
718.94	254.52
719.27	254.34
719.61	254.13
719.94	253.78
720.27	253.26
720.60	252.93
720.94	252.72
721.27	252.48
721.60	252.36
721.93	252.15
722.27	252.07
722.60	251.90
722.93	251.70
723.26	251.52
723.59	251.18
723.93	251.05
724.26	250.92
724.59	250.67
724.92	250.55
725.25	250.49
725.59	250.37
725.92	250.24
726.25	249.98
726.58	249.75
726.91	249.50
727.24	249.30
727.57	249.15
727.91	248.80
728.24	248.63
728.57	248.35
728.90	248.22
729.23	247.85
729.56	247.87
729.89	247.64
730.22	247.41
730.55	247.25
730.89	247.06
731.22	246.85
731.55	246.63
731.88	246.50
732.21	246.15
732.54	245.89
732.87	245.71
733.20	245.61
733.53	245.43
733.86	245.31
734.19	245.10
734.52	244.95
734.85	245.21
735.18	244.98
735.51	244.97
735.84	244.76
736.17	244.74
736.50	244.35
736.83	244.78
737.16	244.63
737.49	244.55
737.82	244.35
738.15	244.30
738.48	244.20
738.81	243.95
739.14	243.76
739.47	243.57
739.80	243.40
740.13	243.32
740.46	243.13
740.79	242.91
741.12	242.80
741.45	242.59
741.78	242.17
742.11	242.18
742.44	241.90
742.77	241.88
743.10	241.65
743.43	241.42
743.75	240.65
744.08	241.11
744.41	240.86
744.74	240.72
745.07	240.44
745.40	240.37
745.73	240.53
746.06	240.46
746.39	240.50
746.71	240.32
747.04	240.14
747.37	240.00
747.70	240.06
748.03	239.90
748.36	239.84
748.68	239.77
749.01	239.56
749.34	239.48
749.67	239.33
750.00	239.35
750.33	239.71
750.65	239.74
750.98	239.10
751.31	239.08
751.64	239.02
751.97	239.19
752.29	239.09
752.62	238.69
752.95	238.51
753.28	238.30
753.60	238.27
753.93	238.34
754.26	238.32
754.59	238.06
754.91	237.98
755.24	237.80
755.57	237.72
755.90	237.58
756.22	237.43
756.55	237.29
756.88	237.05
757.20	236.64
757.53	236.38
757.86	236.23
758.19	236.14
758.51	236.08
758.84	235.74
759.17	235.56
759.49	235.55
759.82	235.80
760.15	235.72
760.47	235.65
760.80	235.35
761.13	235.31
761.45	235.22
761.78	235.15
762.11	235.16
762.43	234.96
762.76	234.88
763.08	234.89
763.41	234.83
763.74	234.75
764.06	234.61
764.39	234.58
764.71	234.52
765.04	234.36
765.37	234.24
765.69	234.13
766.02	234.07
766.34	233.95
766.67	233.61
767.00	233.66
767.32	233.79
767.65	234.00
767.97	233.86
768.30	233.83
768.62	233.73
768.95	233.61
769.27	233.57
769.60	233.58
769.92	233.44
770.25	233.25
770.57	233.18
770.90	233.17
771.22	233.11
771.55	232.99
771.87	232.98
772.20	232.87
772.52	233.22
772.85	233.74
773.17	233.65
773.50	233.56
773.82	233.35
774.15	233.06
774.47	232.65
774.80	232.59
775.12	232.46
775.45	232.40
775.77	232.34
776.09	232.34
776.42	232.27
776.74	232.37
777.07	232.33
777.39	232.32
777.72	232.20
778.04	232.16
778.36	232.15
778.69	232.09
779.01	232.16
779.33	231.76
779.66	231.19
779.98	231.18
780.31	231.14
780.63	231.38
780.95	231.47
781.28	231.54
781.60	231.45
781.92	231.40
782.25	231.38
782.57	231.40
782.89	231.34
783.22	231.28
783.54	231.14
783.86	231.19
784.19	231.03
784.51	231.17
784.83	231.04
785.16	230.99
785.48	231.00
785.80	230.87
786.12	230.90
786.45	230.82
786.77	230.80
787.09	230.75
787.42	230.56
787.74	230.48
788.06	230.40
788.38	230.36
788.71	230.28
789.03	230.30
789.35	230.24
789.67	230.13
789.99	230.10
790.32	230.00
790.64	229.96
790.96	230.38
791.28	230.14
791.61	230.14
791.93	230.07
792.25	229.99
792.57	230.36
792.89	230.17
793.21	230.16
793.54	230.05
793.86	229.99
794.18	229.90
794.50	229.77
794.82	229.70
795.14	229.67
795.47	229.81
795.79	229.76
796.11	229.66
796.43	229.63
796.75	229.50
797.07	229.45
797.39	229.40
797.71	229.02
798.04	229.02
798.36	229.01
798.68	229.01
799.00	228.99
799.32	228.66
799.64	228.74
799.96	228.72
800.28	228.75
800.60	228.70
800.92	228.76
801.24	228.67
801.56	228.70
801.89	228.75
802.21	228.67
802.53	228.50
802.85	228.63
803.17	228.80
803.49	228.79
803.81	228.71
804.13	228.66
804.45	228.58
804.77	228.62
805.09	228.64
805.41	228.53
805.73	228.40
806.05	228.22
806.37	228.23
806.69	228.16
807.01	228.17
807.33	228.20
807.65	228.00
807.97	228.28
808.28	228.26
808.60	228.14
808.92	228.08
809.24	228.46
809.56	228.32
809.88	228.19
810.20	228.25
810.52	228.46
810.84	228.39
811.16	228.34
811.48	228.30
811.80	228.39
812.12	228.37
812.43	228.56
812.75	228.61
813.07	228.55
813.39	228.67
813.71	228.47
814.03	228.42
814.35	228.44
814.67	228.28
814.98	228.29
815.30	228.36
815.62	228.26
815.94	227.89
816.26	228.06
816.58	227.95
816.89	227.88
817.21	227.74
817.53	227.84
817.85	227.86
818.17	227.81
818.48	227.66
818.80	227.79
819.12	227.74
819.44	227.74
819.76	227.69
820.07	227.63
820.39	227.75
820.71	227.80
821.03	227.88
821.34	227.75
821.66	227.73
821.98	227.65
822.30	227.62
822.61	227.93
822.93	227.70
823.25	227.68
823.57	227.69
823.88	227.70
824.20	227.65
824.52	227.71
824.83	227.70
825.15	227.59
825.47	227.56
825.79	227.56
826.10	227.54
826.42	227.52
826.74	227.52
827.05	227.50
827.37	227.55
827.69	227.48
828.00	227.52
828.32	227.53
828.64	227.52
828.95	227.83
829.27	227.66
829.58	227.67
829.90	227.78
830.22	227.82
830.53	227.74
830.85	227.65
831.17	227.59
831.48	227.55
831.80	227.66
832.11	227.58
832.43	227.44
832.75	227.41
833.06	227.64
833.38	227.50
833.69	227.38
834.01	227.32
834.32	227.30
834.64	227.24
834.96	227.20
835.27	227.24
835.59	226.99
835.90	226.87
836.22	226.85
836.53	226.76
836.85	226.63
837.16	227.06
837.48	227.09
837.79	227.17
838.11	227.21
838.42	227.13
838.74	227.24
839.05	227.19
839.37	227.18
839.68	226.89
840.00	226.86
840.31	227.03
840.63	226.99
840.94	226.90
841.26	226.81
841.57	226.79
841.88	226.81
842.20	226.75
842.51	226.64
842.83	226.61
843.14	227.00
843.46	227.15
843.77	226.80
844.08	226.75
844.40	226.59
844.71	226.59
845.03	226.58
845.34	226.45
845.65	226.45
845.97	226.44
846.28	226.54
846.60	226.58
846.91	226.52
847.22	226.46
847.54	226.57
847.85	226.63
848.16	226.63
848.48	226.45
848.79	226.65
849.10	226.75
849.42	226.78
849.73	226.32
850.04	226.15
850.36	226.08
850.67	226.16
850.98	226.18
851.30	226.13
851.61	226.06
851.92	226.09
852.23	226.22
852.55	226.24
852.86	226.20
853.17	226.21
853.49	226.25
853.80	226.44
854.11	226.47
854.42	226.52
854.74	226.44
855.05	226.47
855.36	226.24
855.67	226.20
855.99	226.17
856.30	226.80
856.61	226.83
856.92	226.81
857.23	226.82
857.55	226.80
857.86	226.80
858.17	226.84
858.48	226.74
858.79	226.63
859.11	226.67
859.42	226.62
859.73	226.53
860.04	226.49
860.35	226.24
860.66	226.07
860.98	226.10
861.29	226.18
861.60	226.20
861.91	226.31
862.22	226.30
862.53	226.25
862.84	225.59
863.16	225.75
863.47	225.72
863.78	225.68
864.09	225.72
864.40	225.72
864.71	225.76
865.02	225.93
865.33	225.94
865.64	225.88
865.95	225.95
866.27	226.36
866.58	226.32
866.89	226.45
867.20	226.51
867.51	226.41
867.82	226.36
868.13	226.45
868.44	226.37
868.75	226.46
869.06	226.49
869.37	226.61
869.68	226.40
869.99	226.44
870.30	226.49
870.61	226.47
870.92	226.41
871.23	226.37
871.54	226.43
871.85	226.52
872.16	226.54
872.47	226.46
872.78	226.09
873.09	226.19
873.40	226.10
873.71	226.09
874.02	226.18
874.33	226.10
874.64	226.01
874.95	226.14
875.26	226.04
875.56	226.05
875.87	226.01
876.18	226.03
876.49	226.55
876.80	226.45
877.11	226.41
877.42	226.46
877.73	226.56
878.04	226.40
878.35	226.37
878.66	226.40
878.96	226.32
879.27	226.33
879.58	226.28
879.89	226.29
880.20	226.42
880.51	226.35
880.82	226.34
881.12	226.29
881.43	226.16
881.74	226.09
882.05	226.00
882.36	226.02
882.67	226.04
882.97	225.46
883.28	225.47
883.59	225.54
883.90	225.60
884.21	225.63
884.51	225.62
884.82	225.56
885.13	225.58
885.44	225.61
885.74	225.65
886.05	225.62
886.36	225.62
886.67	225.47
886.98	225.67
887.28	225.75
887.59	225.85
887.90	225.87
888.20	225.95
888.51	226.12
888.82	226.04
889.13	226.10
889.43	226.52
889.74	226.50
890.05	226.42
890.35	226.36
890.66	226.27
890.97	226.19
891.28	226.18
891.58	226.16
891.89	226.21
892.20	226.22
892.50	226.20
892.81	226.22
893.12	226.28
893.42	226.09
893.73	226.18
894.04	226.13
894.34	226.18
894.65	226.17
894.95	226.12
895.26	226.15
895.57	226.37
895.87	225.93
896.18	225.98
896.48	226.05
896.79	226.05
897.10	226.13
897.40	226.19
897.71	226.24
898.01	226.23
898.32	226.30
898.63	226.24
898.93	226.29
899.24	226.32
899.54	226.28
899.85	226.32
900.15	226.25
900.46	226.30
900.76	226.34
901.07	226.32
901.38	226.30
901.68	226.34
901.99	226.12
902.29	226.20
902.60	226.20
902.90	226.19
903.21	226.19
903.51	226.16
903.82	226.25
904.12	226.28
904.43	226.29
904.73	226.27
905.03	226.35
905.34	226.79
905.64	226.75
905.95	226.75
906.25	226.70
906.56	226.70
906.86	226.76
907.17	226.70
907.47	226.72
907.77	226.66
908.08	226.61
908.38	226.59
908.69	226.61
908.99	226.65
909.30	226.65
909.60	226.62
909.90	226.62
910.21	226.50
910.51	226.40
910.81	226.39
911.12	226.32
911.42	226.27
911.73	225.79
912.03	225.80
912.33	225.94
912.64	225.90
912.94	225.87
913.24	225.77
913.55	225.70
913.85	225.65
914.15	225.81
914.46	225.95
914.76	225.89
915.06	225.84
915.37	225.80
915.67	225.76
915.97	225.74
916.27	225.67
916.58	225.74
916.88	225.77
917.18	225.79
917.49	226.11
917.79	226.09
918.09	226.10
918.39	226.24
918.70	226.08
919.00	226.20
919.30	226.46
919.60	226.45
919.91	226.41
920.21	226.48
920.51	226.35
920.81	226.24
921.12	226.33
921.42	226.31
921.72	226.35
922.02	226.40
922.32	226.44
922.63	226.43
922.93	226.64
923.23	226.67
923.53	226.55
923.83	226.26
924.13	226.35
924.44	226.37
924.74	226.41
925.04	226.62
925.34	226.59
925.64	226.34
925.94	226.34
926.24	226.68
926.55	226.64
926.85	226.69
927.15	226.71
927.45	226.74
927.75	226.80
928.05	226.82
928.35	226.76
928.65	226.91
928.95	226.97
929.26	226.77
929.56	226.85
929.86	226.93
930.16	226.90
930.46	226.86
930.76	226.91
931.06	226.67
931.36	226.54
931.66	226.55
931.96	226.60
932.26	226.58
932.56	226.37
932.86	226.34
933.16	226.31
933.46	226.30
933.76	226.23
934.06	226.33
934.36	226.48
934.66	226.47
934.96	226.51
935.26	226.52
935.56	226.58
935.86	226.41
936.16	226.44
936.46	226.40
936.76	226.42
937.06	226.33
937.36	226.41
937.66	226.38
937.96	226.35
938.26	226.30
938.56	226.31
938.86	226.40
939.16	226.53
939.46	226.65
939.76	226.64
940.06	226.67
940.35	226.58
940.65	226.35
940.95	226.44
941.25	226.21
941.55	226.17
941.85	226.12
942.15	226.25
942.45	226.33
942.75	226.35
943.04	226.35
943.34	226.45
943.64	226.44
943.94	226.39
944.24	226.43
944.54	226.44
944.84	226.45
945.13	226.30
945.43	226.24
945.73	226.17
946.03	226.23
946.33	226.15
946.62	226.05
946.92	226.05
947.22	226.07
947.52	226.17
947.82	226.27
948.11	226.26
948.41	226.14
948.71	225.95
949.01	225.96
949.31	225.85
949.60	225.83
949.90	225.87
950.20	225.89
950.50	225.83
950.79	225.79
951.09	225.81
951.39	225.81
951.69	225.75
951.98	225.89
952.28	225.84
952.58	225.87
952.87	225.85
953.17	225.94
953.47	225.86
953.76	225.85
954.06	225.77
954.36	225.75
954.66	225.75
954.95	225.95
955.25	225.98
955.55	226.16
955.84	226.06
956.14	226.15
956.44	226.16
956.73	226.11
957.03	226.16
957.32	226.17
957.62	226.15
957.92	226.31
958.21	226.15
958.51	226.70
958.81	226.71
959.10	226.83
959.40	226.91
959.69	226.97
959.99	227.01
960.29	226.99
960.58	227.01
960.88	227.25
961.17	227.16
961.47	227.26
961.76	227.22
962.06	227.29
962.36	227.17
962.65	227.25
962.95	227.34
963.24	227.25
963.54	227.25
963.83	227.24
964.13	227.17
964.42	227.11
964.72	226.75
965.01	226.79
965.31	226.77
965.60	226.67
965.90	226.91
966.19	226.81
966.49	226.85
966.78	226.76
967.08	226.73
967.37	226.72
967.67	226.57
967.96	226.62
968.26	226.59
968.55	226.60
968.85	226.58
969.14	226.51
969.43	226.55
969.73	226.52
970.02	226.52
970.32	226.49
970.61	226.47
970.91	226.25
971.20	226.13
971.49	226.03
971.79	226.08
972.08	225.78
972.38	225.81
972.67	225.76
972.96	225.86
973.26	225.67
973.55	225.82
973.85	225.83
974.14	225.76
974.43	225.79
974.73	225.75
975.02	225.67
975.31	225.68
975.61	225.70
975.90	225.65
976.19	225.56
976.49	225.59
976.78	225.59
977.07	225.56
977.37	225.65
977.66	225.75
977.95	225.67
978.24	225.74
978.54	225.83
978.83	225.74
979.12	225.71
979.42	225.76
979.71	225.64
980.00	225.61
980.29	225.57
980.59	225.50
980.88	225.61
981.17	225.62
981.46	225.65
981.76	225.62
982.05	225.75
982.34	225.79
982.63	225.73
982.93	225.72
983.22	225.92
983.51	225.91
983.80	225.96
984.09	226.05
984.39	225.95
984.68	225.91
984.97	226.06
985.26	225.98
985.55	226.01
985.85	225.92
986.14	225.96
986.43	226.07
986.72	226.04
987.01	225.93
987.30	225.92
987.59	225.84
987.89	225.89
988.18	225.74
988.47	225.75
988.76	225.72
989.05	225.69
989.34	225.55
989.63	225.68
989.92	225.58
990.22	225.47
990.51	225.43
990.80	225.34
991.09	225.32
991.38	225.38
991.67	225.35
991.96	225.36
992.25	225.41
992.54	225.28
992.83	225.35
993.12	225.32
993.41	225.46
993.70	225.68
993.99	225.80
994.28	225.93
994.58	226.01
994.87	226.00
995.16	226.02
995.45	226.00
995.74	225.82
996.03	225.93
996.32	225.97
996.61	226.10
996.90	226.02
997.19	225.95
997.48	226.01
997.77	226.06
998.06	226.06
998.34	226.00
998.63	226.03
998.92	225.99
999.21	226.05
999.50	226.02
999.79	225.87
1000.08	225.83
1000.37	225.82
1000.66	225.78
1000.95	225.90
1001.24	225.98
1001.53	226.02
1001.82	225.99
1002.11	225.82
1002.40	225.89
1002.68	225.97
1002.97	226.41
1003.26	226.44
1003.55	226.36
1003.84	226.25
1004.13	226.43
1004.42	226.41
1004.71	226.45
1004.99	226.53
1005.28	226.65
1005.57	226.61
1005.86	226.55
1006.15	226.47
1006.44	226.39
1006.72	226.43
1007.01	226.35
1007.30	226.34
1007.59	226.33
1007.88	226.40
1008.17	226.49
1008.45	226.41
1008.74	226.26
1009.03	226.04
1009.32	226.05
1009.60	225.96
1009.89	225.98
1010.18	225.80
1010.47	225.76
1010.76	225.75
1011.04	225.66
1011.33	225.67
1011.62	225.73
1011.91	225.79
1012.19	225.86
1012.48	225.90
1012.77	225.89
1013.05	226.11
1013.34	226.08
1013.63	226.09
1013.92	226.08
1014.20	226.03
1014.49	226.05
1014.78	226.09
1015.06	225.89
1015.35	225.90
1015.64	225.99
1015.92	226.03
1016.21	226.07
1016.50	226.09
1016.78	226.08
1017.07	226.10
1017.36	225.95
1017.64	225.84
1017.93	225.89
1018.22	225.82
1018.50	225.76
1018.79	225.73
1019.08	225.50
1019.36	225.60
1019.65	225.59
1019.93	225.79
1020.22	225.91
1020.51	226.15
1020.79	226.11
1021.08	225.40
1021.36	224.40
1021.65	225.45
1021.94	225.20
1022.22	227.50
1022.51	226.05
1022.79	229.40
1023.08	227.60
1023.36	231.30
1023.65	224.95
>>>>>End Processed Spectral Data<<<<<
