SpectraSuite Data File
++++++++++++++++++++++++++++++++++++
Date: Wed Sep 04 17:58:02 EDT 2013
User: lab3
Dark Spectrum Present: Yes
Reference Spectrum Present: No
Number of Sampled Component Spectra: 1
Spectrometers: USB2E7196
Integration Time (usec): 170000 (USB2E7196)
Spectra Averaged: 20 (USB2E7196)
Boxcar Smoothing: 10 (USB2E7196)
Correct for Electrical Dark: No (USB2E7196)
Strobe/Lamp Enabled: No (USB2E7196)
Correct for Detector Non-linearity: No (USB2E7196)
Correct for Stray Light: No (USB2E7196)
Number of Pixels in Processed Spectrum: 2048
>>>>>Begin Processed Spectral Data<<<<<
339.09	0.00
339.48	213.30
339.86	214.20
340.24	216.25
340.63	217.60
341.01	224.55
341.39	219.80
341.78	222.95
342.16	224.20
342.54	222.35
342.93	212.44
343.31	223.13
343.69	223.65
344.07	224.16
344.46	224.67
344.84	225.10
345.22	225.20
345.60	225.56
345.99	225.71
346.37	225.79
346.75	225.94
347.13	225.98
347.52	226.07
347.90	226.26
348.28	226.32
348.66	226.54
349.05	226.36
349.43	226.48
349.81	226.66
350.19	226.68
350.57	226.74
350.96	226.81
351.34	226.97
351.72	227.02
352.10	227.14
352.48	227.10
352.87	227.15
353.25	227.16
353.63	227.11
354.01	227.09
354.39	227.21
354.77	227.29
355.15	227.54
355.54	227.49
355.92	227.43
356.30	227.48
356.68	227.70
357.06	227.77
357.44	227.76
357.82	227.75
358.20	228.26
358.58	228.30
358.97	228.38
359.35	228.51
359.73	228.78
360.11	228.81
360.49	228.94
360.87	228.90
361.25	229.04
361.63	229.25
362.01	229.38
362.39	229.37
362.77	229.46
363.15	229.39
363.53	229.49
363.91	229.45
364.29	229.53
364.67	229.21
365.05	229.29
365.43	229.29
365.81	229.32
366.19	229.17
366.57	229.36
366.95	229.41
367.33	229.32
367.71	229.23
368.09	229.30
368.47	229.29
368.85	229.36
369.23	229.44
369.61	229.33
369.99	229.48
370.37	229.47
370.75	229.68
371.13	229.52
371.51	229.45
371.89	229.52
372.27	229.45
372.65	229.46
373.03	229.48
373.41	229.41
373.78	229.41
374.16	229.17
374.54	229.00
374.92	228.80
375.30	228.74
375.68	228.62
376.06	228.59
376.44	228.45
376.82	228.43
377.19	228.27
377.57	228.16
377.95	227.94
378.33	227.95
378.71	227.58
379.09	227.74
379.47	227.77
379.84	227.61
380.22	227.47
380.60	227.36
380.98	227.22
381.36	227.14
381.73	227.00
382.11	226.97
382.49	226.90
382.87	226.87
383.25	226.82
383.62	227.36
384.00	227.20
384.38	227.17
384.76	227.25
385.13	227.46
385.51	227.43
385.89	227.35
386.27	227.27
386.64	227.29
387.02	227.09
387.40	227.00
387.78	227.05
388.15	227.03
388.53	226.89
388.91	226.88
389.29	226.81
389.66	226.92
390.04	226.80
390.42	226.86
390.79	226.83
391.17	226.74
391.55	226.19
391.92	226.21
392.30	226.26
392.68	226.10
393.05	226.06
393.43	226.09
393.81	226.07
394.18	226.04
394.56	226.09
394.94	226.27
395.31	226.29
395.69	226.42
396.06	226.60
396.44	226.72
396.82	226.74
397.19	227.08
397.57	227.05
397.95	227.23
398.32	227.19
398.70	227.34
399.07	227.58
399.45	227.58
399.82	227.65
400.20	227.68
400.58	227.75
400.95	227.63
401.33	227.75
401.70	228.18
402.08	228.33
402.45	228.46
402.83	228.70
403.20	228.81
403.58	228.91
403.95	229.14
404.33	229.38
404.71	229.57
405.08	229.98
405.46	230.16
405.83	230.38
406.21	230.58
406.58	230.82
406.96	231.04
407.33	231.42
407.70	231.76
408.08	232.53
408.45	233.02
408.83	233.45
409.20	233.86
409.58	234.10
409.95	234.66
410.33	235.13
410.70	235.47
411.08	236.18
411.45	236.80
411.82	237.28
412.20	238.07
412.57	239.10
412.95	239.44
413.32	240.36
413.69	241.21
414.07	242.15
414.44	243.17
414.82	244.24
415.19	245.46
415.56	246.71
415.94	247.73
416.31	249.14
416.68	250.63
417.06	252.26
417.43	253.91
417.81	255.65
418.18	257.47
418.55	259.45
418.93	261.51
419.30	263.60
419.67	265.89
420.04	268.11
420.42	270.42
420.79	273.54
421.16	276.29
421.54	279.33
421.91	282.31
422.28	285.40
422.66	288.72
423.03	292.18
423.40	295.47
423.77	298.91
424.15	302.53
424.52	306.30
424.89	310.44
425.26	314.38
425.64	318.21
426.01	322.45
426.38	326.76
426.75	331.21
427.13	335.72
427.50	340.47
427.87	345.42
428.24	350.36
428.61	354.76
428.99	360.16
429.36	365.66
429.73	371.29
430.10	376.79
430.47	382.43
430.85	388.06
431.22	394.38
431.59	401.32
431.96	407.66
432.33	414.67
432.70	421.38
433.08	429.28
433.45	436.71
433.82	444.15
434.19	452.61
434.56	460.66
434.93	468.60
435.30	476.42
435.68	485.06
436.05	493.59
436.42	502.15
436.79	509.90
437.16	518.36
437.53	527.26
437.90	536.06
438.27	544.73
438.64	553.75
439.01	562.07
439.38	569.23
439.75	576.33
440.13	584.53
440.50	591.98
440.87	598.11
441.24	604.69
441.61	611.72
441.98	616.79
442.35	622.81
442.72	628.68
443.09	634.57
443.46	638.04
443.83	640.26
444.20	642.13
444.57	644.73
444.94	645.87
445.31	646.88
445.68	648.30
446.05	648.41
446.42	647.18
446.79	645.72
447.16	644.13
447.53	642.90
447.90	638.97
448.27	635.48
448.64	630.59
449.01	626.63
449.37	620.48
449.74	614.34
450.11	607.27
450.48	599.42
450.85	591.36
451.22	584.35
451.59	577.71
451.96	571.33
452.33	563.13
452.70	555.60
453.07	546.85
453.43	537.52
453.80	528.99
454.17	520.79
454.54	512.99
454.91	504.72
455.28	496.55
455.65	489.15
456.02	482.25
456.38	475.76
456.75	468.08
457.12	461.33
457.49	454.92
457.86	448.59
458.23	443.38
458.59	437.65
458.96	431.95
459.33	426.90
459.70	421.75
460.07	417.73
460.43	413.08
460.80	408.84
461.17	405.20
461.54	401.37
461.91	397.56
462.27	393.72
462.64	390.51
463.01	387.03
463.38	383.68
463.74	379.64
464.11	376.66
464.48	374.04
464.85	371.34
465.21	369.16
465.58	366.91
465.95	364.18
466.32	361.88
466.68	359.65
467.05	357.34
467.42	355.26
467.78	352.90
468.15	350.71
468.52	349.10
468.88	346.95
469.25	344.95
469.62	343.50
469.98	341.90
470.35	340.30
470.72	338.80
471.08	337.05
471.45	335.76
471.82	334.50
472.18	332.99
472.55	332.00
472.92	330.68
473.28	329.56
473.65	328.46
474.02	327.42
474.38	326.54
474.75	325.79
475.11	324.92
475.48	324.32
475.85	323.69
476.21	322.94
476.58	322.35
476.94	322.00
477.31	321.47
477.67	321.08
478.04	320.79
478.41	320.59
478.77	320.87
479.14	320.60
479.50	320.48
479.87	320.52
480.23	320.46
480.60	320.45
480.96	320.40
481.33	320.82
481.69	321.08
482.06	321.31
482.42	321.62
482.79	322.01
483.15	322.44
483.52	323.11
483.88	323.65
484.25	324.25
484.61	324.90
484.98	325.51
485.34	326.42
485.71	327.30
486.07	328.31
486.44	328.96
486.80	330.03
487.17	331.08
487.53	332.42
487.90	333.83
488.26	335.53
488.62	337.28
488.99	338.79
489.35	340.53
489.72	342.32
490.08	344.28
490.44	346.26
490.81	348.59
491.17	350.70
491.54	353.15
491.90	355.74
492.26	358.35
492.63	361.28
492.99	364.12
493.36	367.28
493.72	370.58
494.08	373.91
494.45	377.53
494.81	381.59
495.17	385.44
495.54	389.57
495.90	393.72
496.26	398.19
496.63	402.75
496.99	407.55
497.35	412.64
497.72	417.97
498.08	423.41
498.44	428.92
498.80	435.00
499.17	441.17
499.53	447.35
499.89	454.03
500.26	460.75
500.62	467.77
500.98	475.14
501.34	482.63
501.71	490.36
502.07	498.25
502.43	506.27
502.79	514.72
503.16	523.43
503.52	532.47
503.88	541.60
504.24	551.37
504.60	561.40
504.97	571.55
505.33	582.00
505.69	593.19
506.05	604.23
506.41	615.50
506.78	627.26
507.14	639.45
507.50	651.84
507.86	664.54
508.22	677.52
508.59	690.43
508.95	704.05
509.31	718.27
509.67	732.61
510.03	747.02
510.39	761.71
510.75	776.78
511.12	791.98
511.48	807.70
511.84	823.55
512.20	839.45
512.56	855.79
512.92	872.48
513.28	889.15
513.64	906.55
514.00	923.90
514.37	941.49
514.73	959.68
515.09	977.98
515.45	996.41
515.81	1014.99
516.17	1033.96
516.53	1052.55
516.89	1071.35
517.25	1090.71
517.61	1110.75
517.97	1131.32
518.33	1151.40
518.69	1171.83
519.05	1192.46
519.41	1213.19
519.77	1234.39
520.13	1255.54
520.49	1276.25
520.85	1298.75
521.21	1319.81
521.57	1341.63
521.93	1362.67
522.29	1384.00
522.65	1404.80
523.01	1425.77
523.37	1446.64
523.73	1467.90
524.09	1488.75
524.45	1509.64
524.81	1530.61
525.17	1551.41
525.53	1571.93
525.89	1592.86
526.25	1613.93
526.61	1634.55
526.97	1655.90
527.33	1677.29
527.68	1699.09
528.04	1720.69
528.40	1740.37
528.76	1761.61
529.12	1781.93
529.48	1802.68
529.84	1822.62
530.20	1843.77
530.56	1864.72
530.91	1885.70
531.27	1906.00
531.63	1926.68
531.99	1947.15
532.35	1967.46
532.71	1987.76
533.07	2008.41
533.42	2028.72
533.78	2048.72
534.14	2068.51
534.50	2087.26
534.86	2106.40
535.21	2123.93
535.57	2142.22
535.93	2159.98
536.29	2177.93
536.65	2196.00
537.00	2213.65
537.36	2231.47
537.72	2248.36
538.08	2265.68
538.44	2282.32
538.79	2299.06
539.15	2315.78
539.51	2331.84
539.87	2346.87
540.22	2361.20
540.58	2375.58
540.94	2388.65
541.29	2401.18
541.65	2413.70
542.01	2426.66
542.37	2437.35
542.72	2448.35
543.08	2459.21
543.44	2470.88
543.79	2480.63
544.15	2490.69
544.51	2501.07
544.87	2510.67
545.22	2519.28
545.58	2526.73
545.94	2533.83
546.29	2540.25
546.65	2546.31
547.01	2552.21
547.36	2557.90
547.72	2563.37
548.07	2567.41
548.43	2573.10
548.79	2578.05
549.14	2582.60
549.50	2586.20
549.86	2590.19
550.21	2594.58
550.57	2598.20
550.92	2599.45
551.28	2601.11
551.64	2603.31
551.99	2605.27
552.35	2606.84
552.70	2608.91
553.06	2610.53
553.41	2611.66
553.77	2613.39
554.13	2615.03
554.48	2616.52
554.84	2618.00
555.19	2619.14
555.55	2620.97
555.90	2620.04
556.26	2619.04
556.61	2617.05
556.97	2614.90
557.32	2614.34
557.68	2612.69
558.03	2610.91
558.39	2609.97
558.74	2609.10
559.10	2605.95
559.45	2602.18
559.81	2597.82
560.16	2592.60
560.52	2587.78
560.87	2583.67
561.23	2578.38
561.58	2572.37
561.94	2565.31
562.29	2557.84
562.64	2550.91
563.00	2542.62
563.35	2535.85
563.71	2529.25
564.06	2523.37
564.42	2516.60
564.77	2509.66
565.12	2502.19
565.48	2494.85
565.83	2486.90
566.19	2478.89
566.54	2471.17
566.89	2463.10
567.25	2455.30
567.60	2448.18
567.96	2440.73
568.31	2432.85
568.66	2424.03
569.02	2415.05
569.37	2407.20
569.72	2399.62
570.08	2390.26
570.43	2380.60
570.78	2371.54
571.14	2362.09
571.49	2351.78
571.84	2342.51
572.20	2331.49
572.55	2321.38
572.90	2310.00
573.26	2299.64
573.61	2288.28
573.96	2276.97
574.31	2264.80
574.67	2253.17
575.02	2240.33
575.37	2227.93
575.72	2214.65
576.08	2202.84
576.43	2190.50
576.78	2177.27
577.13	2163.75
577.49	2150.82
577.84	2138.84
578.19	2126.80
578.54	2113.95
578.90	2101.86
579.25	2089.25
579.60	2076.87
579.95	2063.98
580.30	2050.95
580.66	2037.43
581.01	2024.07
581.36	2010.06
581.71	1997.64
582.06	1984.39
582.42	1971.85
582.77	1959.20
583.12	1947.06
583.47	1934.46
583.82	1922.36
584.17	1909.94
584.53	1898.04
584.88	1885.37
585.23	1872.20
585.58	1857.68
585.93	1844.67
586.28	1831.28
586.63	1817.25
586.98	1803.04
587.34	1789.61
587.69	1776.49
588.04	1763.95
588.39	1751.70
588.74	1739.49
589.09	1727.43
589.44	1714.63
589.79	1702.38
590.14	1690.11
590.49	1677.91
590.84	1665.69
591.19	1653.75
591.54	1641.56
591.89	1629.27
592.25	1619.09
592.60	1607.59
592.95	1596.50
593.30	1584.25
593.65	1572.29
594.00	1560.33
594.35	1550.25
594.70	1538.09
595.05	1526.60
595.40	1514.34
595.75	1502.49
596.10	1491.22
596.45	1479.36
596.80	1468.69
597.15	1457.15
597.50	1445.02
597.85	1433.69
598.19	1422.11
598.54	1410.38
598.89	1399.10
599.24	1388.55
599.59	1376.51
599.94	1365.59
600.29	1355.07
600.64	1344.99
600.99	1334.08
601.34	1324.70
601.69	1313.51
602.04	1303.85
602.39	1293.94
602.74	1284.73
603.08	1275.09
603.43	1265.85
603.78	1256.21
604.13	1246.28
604.48	1236.64
604.83	1227.22
605.18	1217.38
605.53	1207.90
605.87	1198.73
606.22	1190.32
606.57	1180.94
606.92	1171.58
607.27	1162.76
607.62	1153.81
607.96	1145.18
608.31	1137.26
608.66	1128.81
609.01	1120.46
609.36	1111.85
609.70	1103.43
610.05	1094.91
610.40	1086.60
610.75	1077.76
611.10	1069.41
611.44	1060.95
611.79	1052.70
612.14	1044.92
612.49	1036.88
612.83	1029.14
613.18	1021.22
613.53	1013.24
613.88	1005.15
614.22	997.70
614.57	989.71
614.92	981.78
615.27	974.04
615.61	966.47
615.96	958.57
616.31	950.85
616.65	943.90
617.00	936.55
617.35	929.25
617.70	921.94
618.04	914.79
618.39	907.79
618.74	901.43
619.08	894.53
619.43	887.28
619.78	880.27
620.12	873.25
620.47	866.31
620.82	859.23
621.16	852.44
621.51	845.81
621.85	839.45
622.20	832.94
622.55	826.37
622.89	819.59
623.24	813.20
623.59	806.69
623.93	800.20
624.28	793.91
624.62	788.19
624.97	782.45
625.32	776.79
625.66	770.72
626.01	764.56
626.35	759.02
626.70	753.47
627.04	748.33
627.39	742.54
627.73	737.12
628.08	731.74
628.43	726.28
628.77	720.85
629.12	715.60
629.46	710.85
629.81	706.10
630.15	701.43
630.50	696.50
630.84	691.83
631.19	687.06
631.53	682.50
631.88	677.11
632.22	672.14
632.57	667.50
632.91	662.94
633.26	658.33
633.60	653.64
633.95	649.04
634.29	644.15
634.64	639.84
634.98	635.04
635.32	630.75
635.67	626.86
636.01	622.55
636.36	618.12
636.70	613.95
637.05	609.78
637.39	605.45
637.73	601.40
638.08	597.33
638.42	593.02
638.77	588.77
639.11	584.51
639.45	580.05
639.80	575.63
640.14	571.55
640.49	567.50
640.83	563.55
641.17	559.88
641.52	556.07
641.86	552.53
642.20	549.55
642.55	545.89
642.89	542.07
643.23	538.65
643.58	535.37
643.92	531.75
644.26	528.18
644.61	525.00
644.95	521.51
645.29	518.13
645.64	514.94
645.98	511.81
646.32	508.96
646.66	505.97
647.01	503.05
647.35	500.21
647.69	497.30
648.04	494.54
648.38	491.67
648.72	488.87
649.06	485.65
649.41	482.50
649.75	479.41
650.09	476.65
650.43	473.73
650.78	470.91
651.12	468.09
651.46	465.33
651.80	462.56
652.14	459.99
652.49	457.40
652.83	454.95
653.17	452.25
653.51	449.49
653.85	447.15
654.20	444.58
654.54	441.90
654.88	439.50
655.22	437.18
655.56	434.76
655.90	432.43
656.25	430.31
656.59	427.98
656.93	425.89
657.27	423.77
657.61	421.33
657.95	419.09
658.29	416.83
658.64	414.66
658.98	412.44
659.32	410.10
659.66	407.92
660.00	405.66
660.34	403.63
660.68	401.56
661.02	399.41
661.36	397.50
661.70	395.49
662.05	393.53
662.39	391.58
662.73	389.74
663.07	388.03
663.41	386.24
663.75	384.30
664.09	382.36
664.43	380.29
664.77	378.70
665.11	376.92
665.45	375.30
665.79	373.64
666.13	371.98
666.47	370.37
666.81	368.73
667.15	367.05
667.49	365.55
667.83	364.28
668.17	362.84
668.51	361.31
668.85	359.99
669.19	358.81
669.53	357.14
669.87	355.59
670.21	354.09
670.55	352.53
670.89	351.48
671.23	350.21
671.57	348.86
671.91	347.43
672.25	346.12
672.58	344.85
672.92	343.41
673.26	342.19
673.60	341.10
673.94	339.96
674.28	338.88
674.62	337.72
674.96	336.25
675.30	335.03
675.64	333.81
675.97	332.60
676.31	331.17
676.65	330.02
676.99	329.00
677.33	327.78
677.67	326.70
678.01	325.32
678.34	324.21
678.68	323.26
679.02	322.08
679.36	321.02
679.70	319.94
680.04	319.05
680.37	317.91
680.71	316.79
681.05	315.78
681.39	314.80
681.73	313.74
682.06	312.86
682.40	311.95
682.74	311.09
683.08	310.28
683.42	309.36
683.75	308.62
684.09	307.65
684.43	306.83
684.77	305.96
685.10	305.17
685.44	304.42
685.78	303.58
686.12	302.89
686.45	302.12
686.79	301.21
687.13	300.56
687.46	299.95
687.80	299.30
688.14	298.35
688.48	297.54
688.81	296.79
689.15	296.16
689.49	295.45
689.82	294.80
690.16	294.04
690.50	293.38
690.83	292.64
691.17	291.87
691.51	291.21
691.84	290.61
692.18	289.87
692.52	289.14
692.85	288.50
693.19	288.11
693.52	287.52
693.86	286.97
694.20	286.26
694.53	285.55
694.87	284.89
695.21	284.39
695.54	283.83
695.88	283.23
696.21	282.50
696.55	281.89
696.88	281.25
697.22	280.55
697.56	280.00
697.89	279.38
698.23	278.95
698.56	278.36
698.90	277.95
699.23	277.46
699.57	277.07
699.90	276.53
700.24	275.83
700.58	275.32
700.91	274.94
701.25	274.80
701.58	274.78
701.92	274.44
702.25	274.00
702.59	273.57
702.92	273.17
703.26	272.79
703.59	272.41
703.93	272.28
704.26	271.99
704.60	271.58
704.93	271.21
705.26	270.71
705.60	270.36
705.93	269.84
706.27	269.53
706.60	269.11
706.94	268.93
707.27	268.57
707.61	268.25
707.94	267.87
708.27	267.16
708.61	266.39
708.94	265.91
709.28	265.56
709.61	265.14
709.94	264.77
710.28	264.39
710.61	264.11
710.95	263.45
711.28	263.36
711.61	262.99
711.95	262.71
712.28	262.33
712.61	262.05
712.95	262.02
713.28	261.90
713.61	261.53
713.95	260.95
714.28	260.63
714.61	260.26
714.95	259.83
715.28	259.47
715.61	259.12
715.95	258.82
716.28	258.44
716.61	258.19
716.95	257.83
717.28	257.51
717.61	257.14
717.94	256.81
718.28	256.19
718.61	255.84
718.94	255.48
719.27	255.28
719.61	254.97
719.94	254.46
720.27	253.93
720.60	253.67
720.94	253.51
721.27	253.34
721.60	253.16
721.93	252.96
722.27	252.83
722.60	252.70
722.93	252.42
723.26	252.26
723.59	251.98
723.93	251.86
724.26	251.77
724.59	251.50
724.92	251.29
725.25	251.23
725.59	251.04
725.92	250.85
726.25	250.58
726.58	250.41
726.91	250.21
727.24	250.08
727.57	249.88
727.91	249.61
728.24	249.39
728.57	249.13
728.90	248.96
729.23	248.59
729.56	248.60
729.89	248.48
730.22	248.25
730.55	248.07
730.89	247.80
731.22	247.54
731.55	247.37
731.88	247.23
732.21	247.00
732.54	246.78
732.87	246.66
733.20	246.57
733.53	246.38
733.86	246.23
734.19	245.97
734.52	245.85
734.85	246.00
735.18	245.85
735.51	245.89
735.84	245.77
736.17	245.81
736.50	245.36
736.83	245.74
737.16	245.55
737.49	245.45
737.82	245.31
738.15	245.21
738.48	245.00
738.81	244.87
739.14	244.67
739.47	244.50
739.80	244.29
740.13	244.15
740.46	243.98
740.79	243.79
741.12	243.72
741.45	243.51
741.78	243.09
742.11	243.02
742.44	242.73
742.77	242.65
743.10	242.40
743.43	242.26
743.75	241.62
744.08	242.23
744.41	242.04
744.74	241.87
745.07	241.66
745.40	241.70
745.73	241.66
746.06	241.52
746.39	241.56
746.71	241.37
747.04	241.21
747.37	241.02
747.70	240.95
748.03	240.85
748.36	240.84
748.68	240.72
749.01	240.42
749.34	240.25
749.67	240.12
750.00	240.13
750.33	240.42
750.65	240.34
750.98	239.48
751.31	239.40
751.64	239.32
751.97	239.54
752.29	239.37
752.62	239.10
752.95	238.98
753.28	238.79
753.60	238.69
753.93	238.65
754.26	238.60
754.59	238.28
754.91	238.07
755.24	237.87
755.57	237.84
755.90	237.85
756.22	237.75
756.55	237.61
756.88	237.40
757.20	237.00
757.53	236.79
757.86	236.74
758.19	236.61
758.51	236.52
758.84	236.12
759.17	235.89
759.49	235.82
759.82	235.86
760.15	235.80
760.47	235.75
760.80	235.56
761.13	235.58
761.45	235.56
761.78	235.52
762.11	235.45
762.43	235.21
762.76	235.08
763.08	235.00
763.41	234.89
763.74	234.78
764.06	234.64
764.39	234.57
764.71	234.47
765.04	234.33
765.37	234.22
765.69	234.14
766.02	234.12
766.34	233.96
766.67	233.75
767.00	233.69
767.32	233.85
767.65	234.08
767.97	233.97
768.30	233.93
768.62	233.82
768.95	233.68
769.27	233.69
769.60	233.63
769.92	233.55
770.25	233.35
770.57	233.15
770.90	233.08
771.22	232.95
771.55	232.86
771.87	232.82
772.20	232.78
772.52	233.06
772.85	233.61
773.17	233.65
773.50	233.66
773.82	233.57
774.15	233.33
774.47	232.97
774.80	232.80
775.12	232.68
775.45	232.68
775.77	232.61
776.09	232.49
776.42	232.51
776.74	232.55
777.07	232.53
777.39	232.63
777.72	232.54
778.04	232.59
778.36	232.56
778.69	232.61
779.01	232.70
779.33	232.27
779.66	231.70
779.98	231.64
780.31	231.57
780.63	231.69
780.95	231.75
781.28	231.70
781.60	231.64
781.92	231.62
782.25	231.53
782.57	231.52
782.89	231.53
783.22	231.44
783.54	231.26
783.86	231.29
784.19	231.21
784.51	231.43
784.83	231.30
785.16	231.23
785.48	231.17
785.80	231.10
786.12	231.12
786.45	231.13
786.77	231.11
787.09	231.02
787.42	230.77
787.74	230.68
788.06	230.70
788.38	230.62
788.71	230.62
789.03	230.63
789.35	230.73
789.67	230.70
789.99	230.72
790.32	230.64
790.64	230.65
790.96	230.96
791.28	230.66
791.61	230.65
791.93	230.70
792.25	230.64
792.57	230.85
792.89	230.68
793.21	230.58
793.54	230.51
793.86	230.45
794.18	230.45
794.50	230.36
794.82	230.31
795.14	230.45
795.47	230.48
795.79	230.50
796.11	230.24
796.43	230.16
796.75	230.04
797.07	230.10
797.39	230.04
797.71	229.69
798.04	229.73
798.36	229.72
798.68	229.69
799.00	229.68
799.32	229.47
799.64	229.59
799.96	229.52
800.28	229.54
800.60	229.51
800.92	229.56
801.24	229.51
801.56	229.51
801.89	229.39
802.21	229.38
802.53	229.26
802.85	229.45
803.17	229.62
803.49	229.56
803.81	229.45
804.13	229.42
804.45	229.37
804.77	229.33
805.09	229.31
805.41	229.26
805.73	229.21
806.05	229.00
806.37	228.97
806.69	228.94
807.01	228.89
807.33	228.90
807.65	228.71
807.97	228.94
808.28	228.89
808.60	228.83
808.92	228.79
809.24	229.11
809.56	228.93
809.88	228.79
810.20	228.76
810.52	228.86
810.84	228.79
811.16	228.71
811.48	228.66
811.80	228.82
812.12	228.76
812.43	228.79
812.75	228.90
813.07	228.80
813.39	228.78
813.71	228.72
814.03	228.69
814.35	228.75
814.67	228.50
814.98	228.49
815.30	228.50
815.62	228.39
815.94	228.11
816.26	228.42
816.58	228.33
816.89	228.46
817.21	228.37
817.53	228.37
817.85	228.42
818.17	228.46
818.48	228.27
818.80	228.34
819.12	228.25
819.44	228.15
819.76	228.13
820.07	228.22
820.39	228.20
820.71	228.21
821.03	228.17
821.34	228.13
821.66	228.15
821.98	228.21
822.30	228.20
822.61	228.33
822.93	227.98
823.25	227.93
823.57	227.82
823.88	227.92
824.20	227.95
824.52	228.01
824.83	227.97
825.15	227.93
825.47	227.88
825.79	227.89
826.10	227.88
826.42	227.86
826.74	227.81
827.05	227.79
827.37	227.75
827.69	227.74
828.00	227.78
828.32	227.81
828.64	227.75
828.95	228.02
829.27	227.93
829.58	228.02
829.90	228.11
830.22	228.10
830.53	227.90
830.85	227.84
831.17	227.70
831.48	227.72
831.80	227.75
832.11	227.80
832.43	227.70
832.75	227.63
833.06	227.92
833.38	227.79
833.69	227.78
834.01	227.86
834.32	227.82
834.64	227.79
834.96	227.68
835.27	227.68
835.59	227.47
835.90	227.39
836.22	227.32
836.53	227.18
836.85	227.20
837.16	227.69
837.48	227.64
837.79	227.78
838.11	227.76
838.42	227.74
838.74	227.72
839.05	227.73
839.37	227.69
839.68	227.52
840.00	227.54
840.31	227.65
840.63	227.58
840.94	227.54
841.26	227.46
841.57	227.49
841.88	227.52
842.20	227.41
842.51	227.36
842.83	227.26
843.14	227.74
843.46	227.75
843.77	227.47
844.08	227.51
844.40	227.40
844.71	227.44
845.03	227.40
845.34	227.38
845.65	227.37
845.97	227.45
846.28	227.33
846.60	227.37
846.91	227.25
847.22	227.16
847.54	227.30
847.85	227.36
848.16	227.38
848.48	227.22
848.79	227.45
849.10	227.45
849.42	227.58
849.73	227.10
850.04	227.12
850.36	227.00
850.67	227.07
850.98	227.09
851.30	227.06
851.61	227.04
851.92	227.02
852.23	227.21
852.55	227.21
852.86	227.26
853.17	227.30
853.49	227.40
853.80	227.53
854.11	227.50
854.42	227.55
854.74	227.48
855.05	227.56
855.36	227.35
855.67	227.37
855.99	227.35
856.30	228.00
856.61	227.93
856.92	227.97
857.23	227.91
857.55	227.83
857.86	227.78
858.17	227.83
858.48	227.76
858.79	227.65
859.11	227.61
859.42	227.57
859.73	227.50
860.04	227.49
860.35	227.39
860.66	227.29
860.98	227.20
861.29	227.28
861.60	227.26
861.91	227.31
862.22	227.27
862.53	227.20
862.84	226.61
863.16	226.71
863.47	226.56
863.78	226.59
864.09	226.59
864.40	226.67
864.71	226.75
865.02	226.82
865.33	226.74
865.64	226.71
865.95	226.71
866.27	226.97
866.58	226.97
866.89	227.02
867.20	227.02
867.51	227.02
867.82	226.90
868.13	227.01
868.44	226.91
868.75	226.98
869.06	227.04
869.37	227.08
869.68	226.93
869.99	227.01
870.30	226.97
870.61	227.08
870.92	226.91
871.23	226.79
871.54	226.88
871.85	226.98
872.16	227.10
872.47	227.09
872.78	226.85
873.09	226.85
873.40	226.82
873.71	226.86
874.02	226.85
874.33	226.81
874.64	226.77
874.95	227.01
875.26	226.98
875.56	226.91
875.87	226.91
876.18	226.91
876.49	227.46
876.80	227.49
877.11	227.30
877.42	227.37
877.73	227.46
878.04	227.32
878.35	227.28
878.66	227.26
878.96	227.21
879.27	227.23
879.58	227.12
879.89	227.09
880.20	227.29
880.51	227.32
880.82	227.42
881.12	227.39
881.43	227.15
881.74	227.12
882.05	227.11
882.36	227.18
882.67	227.24
882.97	226.66
883.28	226.56
883.59	226.59
883.90	226.68
884.21	226.64
884.51	226.68
884.82	226.66
885.13	226.71
885.44	226.78
885.74	226.78
886.05	226.82
886.36	226.78
886.67	226.62
886.98	226.80
887.28	226.78
887.59	226.81
887.90	226.83
888.20	226.78
888.51	226.86
888.82	226.72
889.13	226.75
889.43	227.13
889.74	227.09
890.05	227.22
890.35	227.19
890.66	227.11
890.97	227.07
891.28	227.07
891.58	227.05
891.89	226.99
892.20	226.95
892.50	226.96
892.81	227.00
893.12	226.88
893.42	226.66
893.73	226.67
894.04	226.58
894.34	226.65
894.65	226.64
894.95	226.55
895.26	226.63
895.57	226.84
895.87	226.39
896.18	226.53
896.48	226.50
896.79	226.50
897.10	226.55
897.40	226.54
897.71	226.53
898.01	226.46
898.32	226.56
898.63	226.53
898.93	226.52
899.24	226.55
899.54	226.59
899.85	226.58
900.15	226.62
900.46	226.65
900.76	226.68
901.07	226.64
901.38	226.67
901.68	226.68
901.99	226.42
902.29	226.52
902.60	226.51
902.90	226.46
903.21	226.41
903.51	226.44
903.82	226.50
904.12	226.52
904.43	226.58
904.73	226.47
905.03	226.46
905.34	226.93
905.64	226.88
905.95	226.89
906.25	226.89
906.56	226.81
906.86	226.84
907.17	226.77
907.47	226.88
907.77	226.85
908.08	226.74
908.38	226.69
908.69	226.68
908.99	226.66
909.30	226.68
909.60	226.71
909.90	226.79
910.21	226.68
910.51	226.62
910.81	226.55
911.12	226.64
911.42	226.68
911.73	226.21
912.03	226.25
912.33	226.32
912.64	226.31
912.94	226.36
913.24	226.30
913.55	226.29
913.85	226.22
914.15	226.33
914.46	226.42
914.76	226.47
915.06	226.40
915.37	226.41
915.67	226.37
915.97	226.31
916.27	226.14
916.58	226.17
916.88	226.23
917.18	226.19
917.49	226.51
917.79	226.50
918.09	226.62
918.39	226.74
918.70	226.68
919.00	226.71
919.30	226.84
919.60	226.79
919.91	226.78
920.21	226.84
920.51	226.69
920.81	226.65
921.12	226.65
921.42	226.71
921.72	226.74
922.02	226.78
922.32	226.91
922.63	226.94
922.93	227.22
923.23	227.17
923.53	227.17
923.83	226.83
924.13	226.86
924.44	226.80
924.74	226.84
925.04	227.02
925.34	227.02
925.64	226.86
925.94	226.90
926.24	227.12
926.55	227.03
926.85	227.14
927.15	227.18
927.45	227.16
927.75	227.17
928.05	227.19
928.35	227.08
928.65	227.13
928.95	227.20
929.26	226.95
929.56	227.11
929.86	227.17
930.16	227.13
930.46	227.11
930.76	227.09
931.06	226.86
931.36	226.76
931.66	226.79
931.96	226.87
932.26	226.88
932.56	226.70
932.86	226.74
933.16	226.70
933.46	226.66
933.76	226.64
934.06	226.78
934.36	226.89
934.66	226.91
934.96	226.82
935.26	226.85
935.56	226.93
935.86	226.71
936.16	226.74
936.46	226.71
936.76	226.70
937.06	226.69
937.36	226.73
937.66	226.72
937.96	226.70
938.26	226.59
938.56	226.55
938.86	226.63
939.16	226.78
939.46	226.82
939.76	226.74
940.06	226.69
940.35	226.58
940.65	226.32
940.95	226.34
941.25	226.28
941.55	226.19
941.85	226.22
942.15	226.33
942.45	226.36
942.75	226.33
943.04	226.36
943.34	226.42
943.64	226.38
943.94	226.27
944.24	226.29
944.54	226.36
944.84	226.33
945.13	226.23
945.43	226.11
945.73	226.11
946.03	226.12
946.33	226.15
946.62	226.12
946.92	226.20
947.22	226.29
947.52	226.36
947.82	226.37
948.11	226.29
948.41	226.24
948.71	226.15
949.01	226.15
949.31	226.06
949.60	226.04
949.90	226.04
950.20	226.08
950.50	226.02
950.79	225.90
951.09	226.01
951.39	225.99
951.69	225.95
951.98	226.05
952.28	226.08
952.58	226.02
952.87	225.98
953.17	225.97
953.47	225.91
953.76	225.85
954.06	225.79
954.36	225.73
954.66	225.71
954.95	225.74
955.25	225.84
955.55	225.90
955.84	225.80
956.14	225.91
956.44	225.95
956.73	225.90
957.03	225.96
957.32	225.90
957.62	225.90
957.92	225.96
958.21	225.82
958.51	226.37
958.81	226.40
959.10	226.45
959.40	226.52
959.69	226.48
959.99	226.60
960.29	226.63
960.58	226.63
960.88	226.76
961.17	226.75
961.47	226.73
961.76	226.67
962.06	226.74
962.36	226.69
962.65	226.69
962.95	226.74
963.24	226.73
963.54	226.80
963.83	226.84
964.13	226.84
964.42	226.78
964.72	226.45
965.01	226.46
965.31	226.50
965.60	226.46
965.90	226.82
966.19	226.68
966.49	226.72
966.78	226.70
967.08	226.79
967.37	226.71
967.67	226.61
967.96	226.76
968.26	226.72
968.55	226.73
968.85	226.71
969.14	226.75
969.43	226.66
969.73	226.65
970.02	226.55
970.32	226.54
970.61	226.55
970.91	226.37
971.20	226.29
971.49	226.21
971.79	226.29
972.08	225.93
972.38	225.99
972.67	225.95
972.96	226.02
973.26	225.83
973.55	226.05
973.85	226.09
974.14	225.96
974.43	226.04
974.73	225.98
975.02	225.95
975.31	225.89
975.61	225.95
975.90	225.88
976.19	225.93
976.49	225.96
976.78	226.03
977.07	226.02
977.37	226.07
977.66	226.15
977.95	226.01
978.24	226.06
978.54	226.16
978.83	226.07
979.12	226.05
979.42	226.05
979.71	226.03
980.00	225.98
980.29	226.08
980.59	226.01
980.88	226.15
981.17	226.18
981.46	226.21
981.76	226.23
982.05	226.42
982.34	226.45
982.63	226.39
982.93	226.39
983.22	226.56
983.51	226.60
983.80	226.62
984.09	226.70
984.39	226.72
984.68	226.61
984.97	226.68
985.26	226.65
985.55	226.72
985.85	226.61
986.14	226.70
986.43	226.71
986.72	226.58
987.01	226.49
987.30	226.43
987.59	226.37
987.89	226.38
988.18	226.20
988.47	226.12
988.76	226.13
989.05	226.11
989.34	225.95
989.63	226.12
989.92	226.05
990.22	225.97
990.51	225.93
990.80	225.88
991.09	225.90
991.38	226.00
991.67	225.93
991.96	225.85
992.25	225.89
992.54	225.77
992.83	225.90
993.12	225.86
993.41	225.96
993.70	226.11
993.99	226.17
994.28	226.23
994.58	226.33
994.87	226.31
995.16	226.23
995.45	226.25
995.74	226.06
996.03	226.09
996.32	226.19
996.61	226.26
996.90	226.27
997.19	226.34
997.48	226.31
997.77	226.28
998.06	226.33
998.34	226.26
998.63	226.29
998.92	226.25
999.21	226.32
999.50	226.37
999.79	226.28
1000.08	226.27
1000.37	226.24
1000.66	226.17
1000.95	226.30
1001.24	226.36
1001.53	226.46
1001.82	226.40
1002.11	226.34
1002.40	226.38
1002.68	226.43
1002.97	226.81
1003.26	226.73
1003.55	226.60
1003.84	226.60
1004.13	226.80
1004.42	226.73
1004.71	226.71
1004.99	226.71
1005.28	226.82
1005.57	226.75
1005.86	226.73
1006.15	226.68
1006.44	226.65
1006.72	226.67
1007.01	226.57
1007.30	226.60
1007.59	226.48
1007.88	226.54
1008.17	226.57
1008.45	226.50
1008.74	226.37
1009.03	226.12
1009.32	226.10
1009.60	226.14
1009.89	226.18
1010.18	226.00
1010.47	226.10
1010.76	226.12
1011.04	226.13
1011.33	226.15
1011.62	226.19
1011.91	226.18
1012.19	226.23
1012.48	226.21
1012.77	226.19
1013.05	226.40
1013.34	226.39
1013.63	226.42
1013.92	226.46
1014.20	226.42
1014.49	226.46
1014.78	226.54
1015.06	226.44
1015.35	226.43
1015.64	226.49
1015.92	226.47
1016.21	226.45
1016.50	226.43
1016.78	226.44
1017.07	226.44
1017.36	226.34
1017.64	226.27
1017.93	226.29
1018.22	226.31
1018.50	226.32
1018.79	226.38
1019.08	226.20
1019.36	226.21
1019.65	226.14
1019.93	226.18
1020.22	226.31
1020.51	226.53
1020.79	226.44
1021.08	226.55
1021.36	225.45
1021.65	226.70
1021.94	226.45
1022.22	226.20
1022.51	225.05
1022.79	227.45
1023.08	227.80
1023.36	231.90
1023.65	225.00
>>>>>End Processed Spectral Data<<<<<
