SpectraSuite Data File
++++++++++++++++++++++++++++++++++++
Date: Wed Sep 04 17:42:04 EDT 2013
User: lab3
Dark Spectrum Present: Yes
Reference Spectrum Present: No
Number of Sampled Component Spectra: 1
Spectrometers: USB2E7196
Integration Time (usec): 170000 (USB2E7196)
Spectra Averaged: 20 (USB2E7196)
Boxcar Smoothing: 10 (USB2E7196)
Correct for Electrical Dark: No (USB2E7196)
Strobe/Lamp Enabled: No (USB2E7196)
Correct for Detector Non-linearity: No (USB2E7196)
Correct for Stray Light: No (USB2E7196)
Number of Pixels in Processed Spectrum: 2048
>>>>>Begin Processed Spectral Data<<<<<
339.09	0.00
339.48	212.50
339.86	215.55
340.24	215.65
340.63	215.50
341.01	225.25
341.39	219.80
341.78	222.20
342.16	223.35
342.54	222.55
342.93	212.06
343.31	222.72
343.69	223.28
344.07	223.73
344.46	224.19
344.84	224.62
345.22	224.56
345.60	224.80
345.99	224.94
346.37	225.05
346.75	225.17
347.13	225.25
347.52	225.29
347.90	225.43
348.28	225.46
348.66	225.58
349.05	225.48
349.43	225.56
349.81	225.63
350.19	225.58
350.57	225.59
350.96	225.63
351.34	225.69
351.72	225.76
352.10	225.80
352.48	225.82
352.87	225.91
353.25	225.99
353.63	226.11
354.01	226.12
354.39	226.14
354.77	226.23
355.15	226.39
355.54	226.44
355.92	226.36
356.30	226.41
356.68	226.84
357.06	226.92
357.44	226.93
357.82	226.95
358.20	227.41
358.58	227.44
358.97	227.59
359.35	227.77
359.73	227.97
360.11	228.02
360.49	228.18
360.87	228.19
361.25	228.34
361.63	228.50
362.01	228.66
362.39	228.70
362.77	228.75
363.15	228.81
363.53	228.86
363.91	228.92
364.29	228.99
364.67	228.54
365.05	228.63
365.43	228.69
365.81	228.77
366.19	228.61
366.57	228.83
366.95	228.66
367.33	228.59
367.71	228.54
368.09	228.65
368.47	228.60
368.85	228.49
369.23	228.50
369.61	228.31
369.99	228.42
370.37	228.51
370.75	228.74
371.13	228.62
371.51	228.57
371.89	228.60
372.27	228.63
372.65	228.67
373.03	228.58
373.41	228.49
373.78	228.49
374.16	228.20
374.54	228.00
374.92	227.98
375.30	227.95
375.68	227.76
376.06	227.70
376.44	227.63
376.82	227.73
377.19	227.66
377.57	227.60
377.95	227.40
378.33	227.34
378.71	226.95
379.09	226.98
379.47	226.95
379.84	226.82
380.22	226.65
380.60	226.41
380.98	226.36
381.36	226.29
381.73	226.13
382.11	226.21
382.49	226.12
382.87	226.04
383.25	225.92
383.62	226.44
384.00	226.26
384.38	226.24
384.76	226.23
385.13	226.36
385.51	226.36
385.89	226.25
386.27	226.17
386.64	226.19
387.02	226.06
387.40	225.99
387.78	225.99
388.15	225.97
388.53	226.03
388.91	225.96
389.29	225.97
389.66	225.94
390.04	225.83
390.42	225.87
390.79	225.81
391.17	225.88
391.55	225.39
391.92	225.41
392.30	225.44
392.68	225.45
393.05	225.36
393.43	225.36
393.81	225.42
394.18	225.31
394.56	225.33
394.94	225.47
395.31	225.43
395.69	225.61
396.06	225.75
396.44	225.78
396.82	225.83
397.19	226.14
397.57	226.21
397.95	226.30
398.32	226.25
398.70	226.37
399.07	226.51
399.45	226.57
399.82	226.66
400.20	226.71
400.58	226.70
400.95	226.64
401.33	226.85
401.70	227.29
402.08	227.45
402.45	227.63
402.83	227.78
403.20	228.00
403.58	228.06
403.95	228.24
404.33	228.46
404.71	228.64
405.08	228.98
405.46	229.12
405.83	229.34
406.21	229.68
406.58	229.91
406.96	230.09
407.33	230.33
407.70	230.69
408.08	231.25
408.45	231.69
408.83	232.10
409.20	232.27
409.58	232.28
409.95	232.76
410.33	233.16
410.70	233.46
411.08	234.04
411.45	234.55
411.82	234.97
412.20	235.57
412.57	236.38
412.95	236.63
413.32	237.37
413.69	238.01
414.07	238.68
414.44	239.54
414.82	240.41
415.19	241.44
415.56	242.31
415.94	243.16
416.31	244.29
416.68	245.49
417.06	246.91
417.43	248.30
417.81	249.68
418.18	251.19
418.55	252.81
418.93	254.40
419.30	256.06
419.67	257.86
420.04	259.73
420.42	261.66
420.79	264.22
421.16	266.60
421.54	269.23
421.91	271.83
422.28	274.33
422.66	277.01
423.03	279.92
423.40	282.76
423.77	285.74
424.15	288.67
424.52	291.77
424.89	295.32
425.26	298.67
425.64	301.83
426.01	305.22
426.38	308.88
426.75	312.64
427.13	316.48
427.50	320.42
427.87	324.51
428.24	328.57
428.61	332.14
428.99	336.52
429.36	340.94
429.73	345.40
430.10	350.07
430.47	354.86
430.85	359.54
431.22	364.64
431.59	370.32
431.96	375.49
432.33	381.37
432.70	386.73
433.08	393.21
433.45	399.43
433.82	405.58
434.19	412.33
434.56	419.06
434.93	425.42
435.30	431.98
435.68	439.25
436.05	446.25
436.42	453.27
436.79	459.59
437.16	466.63
437.53	473.90
437.90	481.13
438.27	488.23
438.64	495.65
439.01	502.58
439.38	508.58
439.75	514.57
440.13	521.11
440.50	527.44
440.87	532.45
441.24	537.80
441.61	543.58
441.98	547.92
442.35	552.87
442.72	557.89
443.09	562.78
443.46	565.51
443.83	567.48
444.20	569.18
444.57	571.62
444.94	572.64
445.31	573.79
445.68	575.09
446.05	575.29
446.42	574.19
446.79	572.99
447.16	571.77
447.53	570.76
447.90	567.82
448.27	564.79
448.64	560.96
449.01	557.97
449.37	553.15
449.74	548.17
450.11	542.54
450.48	536.16
450.85	529.51
451.22	523.95
451.59	518.55
451.96	513.34
452.33	506.55
452.70	500.48
453.07	493.20
453.43	485.58
453.80	478.73
454.17	472.16
454.54	465.88
454.91	458.96
455.28	452.51
455.65	446.26
456.02	440.84
456.38	435.59
456.75	429.09
457.12	423.58
457.49	418.32
457.86	413.03
458.23	408.93
458.59	404.17
458.96	399.43
459.33	395.20
459.70	391.04
460.07	387.54
460.43	383.67
460.80	380.20
461.17	377.15
461.54	373.84
461.91	370.67
462.27	367.46
462.64	364.76
463.01	361.71
463.38	359.08
463.74	355.67
464.11	353.15
464.48	351.03
464.85	348.69
465.21	347.00
465.58	345.03
465.95	342.53
466.32	340.76
466.68	338.78
467.05	336.92
467.42	335.16
467.78	333.41
468.15	331.63
468.52	330.29
468.88	328.37
469.25	326.76
469.62	325.61
469.98	324.33
470.35	323.18
470.72	321.97
471.08	320.60
471.45	319.65
471.82	318.60
472.18	317.43
472.55	316.57
472.92	315.52
473.28	314.62
473.65	313.82
474.02	312.99
474.38	312.47
474.75	311.83
475.11	311.10
475.48	310.59
475.85	310.09
476.21	309.56
476.58	309.31
476.94	309.05
477.31	308.60
477.67	308.21
478.04	307.93
478.41	307.87
478.77	308.27
479.14	307.99
479.50	307.93
479.87	308.03
480.23	308.11
480.60	308.12
480.96	308.15
481.33	308.58
481.69	308.79
482.06	308.98
482.42	309.39
482.79	309.80
483.15	310.27
483.52	310.85
483.88	311.30
484.25	311.85
484.61	312.54
484.98	313.27
485.34	314.21
485.71	315.07
486.07	315.91
486.44	316.38
486.80	317.44
487.17	318.50
487.53	319.80
487.90	321.17
488.26	322.82
488.62	324.52
488.99	325.90
489.35	327.67
489.72	329.48
490.08	331.23
490.44	333.05
490.81	335.11
491.17	337.09
491.54	339.47
491.90	341.78
492.26	344.17
492.63	346.76
492.99	349.34
493.36	352.15
493.72	355.38
494.08	358.50
494.45	361.82
494.81	365.45
495.17	368.98
495.54	372.73
495.90	376.42
496.26	380.50
496.63	384.70
496.99	388.90
497.35	393.33
497.72	398.10
498.08	403.09
498.44	408.16
498.80	413.60
499.17	418.89
499.53	424.44
499.89	430.37
500.26	436.45
500.62	442.72
500.98	449.37
501.34	455.75
501.71	462.60
502.07	469.49
502.43	476.52
502.79	483.73
503.16	491.39
503.52	499.30
503.88	507.25
504.24	515.72
504.60	524.60
504.97	533.67
505.33	542.72
505.69	552.60
506.05	562.13
506.41	571.76
506.78	581.94
507.14	592.47
507.50	603.11
507.86	613.98
508.22	625.25
508.59	636.32
508.95	648.06
509.31	660.17
509.67	672.38
510.03	684.69
510.39	697.40
510.75	710.12
511.12	722.99
511.48	736.09
511.84	749.30
512.20	762.55
512.56	776.20
512.92	790.39
513.28	804.11
513.64	818.50
514.00	833.13
514.37	847.82
514.73	862.74
515.09	877.60
515.45	892.77
515.81	907.82
516.17	923.25
516.53	938.62
516.89	953.82
517.25	969.59
517.61	986.07
517.97	1002.46
518.33	1018.70
518.69	1035.06
519.05	1051.73
519.41	1068.35
519.77	1085.38
520.13	1101.85
520.49	1118.28
520.85	1136.29
521.21	1153.08
521.57	1169.83
521.93	1186.11
522.29	1202.81
522.65	1219.03
523.01	1235.02
523.37	1250.94
523.73	1267.26
524.09	1283.10
524.45	1299.07
524.81	1314.82
525.17	1330.60
525.53	1346.11
525.89	1362.10
526.25	1377.70
526.61	1392.82
526.97	1408.56
527.33	1424.27
527.68	1440.70
528.04	1456.55
528.40	1470.73
528.76	1486.20
529.12	1501.22
529.48	1516.54
529.84	1531.06
530.20	1546.59
530.56	1561.78
530.91	1576.88
531.27	1591.60
531.63	1606.28
531.99	1620.77
532.35	1634.93
532.71	1649.07
533.07	1663.68
533.42	1677.40
533.78	1691.75
534.14	1706.03
534.50	1719.05
534.86	1732.25
535.21	1743.75
535.57	1756.14
535.93	1768.05
536.29	1779.88
536.65	1792.29
537.00	1803.95
537.36	1815.81
537.72	1826.42
538.08	1837.80
538.44	1848.78
538.79	1859.25
539.15	1870.00
539.51	1880.60
539.87	1890.53
540.22	1899.09
540.58	1908.01
540.94	1915.98
541.29	1923.27
541.65	1930.38
542.01	1937.62
542.37	1943.04
542.72	1949.73
543.08	1955.52
543.44	1962.18
543.79	1967.13
544.15	1971.65
544.51	1977.23
544.87	1981.79
545.22	1985.97
545.58	1988.95
545.94	1992.00
546.29	1994.26
546.65	1996.27
547.01	1997.71
547.36	1999.35
547.72	2001.05
548.07	2001.54
548.43	2002.55
548.79	2003.19
549.14	2003.55
549.50	2003.69
549.86	2004.53
550.21	2004.42
550.57	2004.30
550.92	2002.47
551.28	2001.55
551.64	2001.22
551.99	1999.63
552.35	1997.95
552.70	1997.23
553.06	1996.42
553.41	1994.86
553.77	1994.18
554.13	1993.19
554.48	1992.40
554.84	1991.05
555.19	1989.55
555.55	1988.37
555.90	1986.11
556.26	1983.37
556.61	1980.17
556.97	1976.75
557.32	1974.01
557.68	1971.11
558.03	1967.86
558.39	1964.67
558.74	1961.75
559.10	1957.21
559.45	1952.72
559.81	1948.01
560.16	1942.01
560.52	1936.20
560.87	1931.26
561.23	1925.14
561.58	1919.01
561.94	1911.74
562.29	1904.55
562.64	1897.80
563.00	1890.12
563.35	1883.47
563.71	1876.96
564.06	1870.82
564.42	1864.53
564.77	1858.08
565.12	1851.23
565.48	1844.66
565.83	1838.06
566.19	1830.85
566.54	1824.22
566.89	1817.25
567.25	1810.43
567.60	1804.31
567.96	1798.20
568.31	1791.24
568.66	1784.32
569.02	1776.63
569.37	1769.57
569.72	1763.11
570.08	1755.32
570.43	1747.35
570.78	1739.94
571.14	1732.37
571.49	1724.14
571.84	1716.15
572.20	1707.13
572.55	1698.95
572.90	1689.87
573.26	1681.20
573.61	1672.58
573.96	1663.43
574.31	1654.01
574.67	1644.85
575.02	1634.78
575.37	1624.62
575.72	1614.41
576.08	1604.87
576.43	1595.33
576.78	1585.54
577.13	1575.11
577.49	1565.56
577.84	1556.93
578.19	1547.59
578.54	1538.15
578.90	1529.08
579.25	1520.17
579.60	1511.12
579.95	1501.31
580.30	1491.53
580.66	1481.72
581.01	1471.53
581.36	1461.19
581.71	1451.84
582.06	1442.36
582.42	1433.29
582.77	1424.16
583.12	1415.25
583.47	1406.10
583.82	1397.39
584.17	1388.58
584.53	1380.15
584.88	1370.51
585.23	1360.84
585.58	1350.90
585.93	1341.08
586.28	1331.57
586.63	1321.59
586.98	1311.40
587.34	1301.96
587.69	1292.43
588.04	1283.52
588.39	1274.75
588.74	1266.20
589.09	1257.64
589.44	1248.47
589.79	1239.76
590.14	1231.21
590.49	1222.68
590.84	1214.20
591.19	1205.58
591.54	1197.08
591.89	1188.45
592.25	1181.64
592.60	1173.43
592.95	1165.35
593.30	1157.23
593.65	1148.93
594.00	1140.40
594.35	1134.05
594.70	1126.04
595.05	1118.33
595.40	1109.98
595.75	1101.90
596.10	1093.91
596.45	1086.02
596.80	1078.34
597.15	1070.56
597.50	1062.33
597.85	1054.60
598.19	1046.59
598.54	1038.58
598.89	1030.63
599.24	1023.12
599.59	1015.02
599.94	1007.67
600.29	1000.52
600.64	993.44
600.99	986.14
601.34	979.84
601.69	971.77
602.04	964.94
602.39	958.39
602.74	952.22
603.08	946.03
603.43	939.94
603.78	933.22
604.13	926.80
604.48	920.24
604.83	913.89
605.18	907.17
605.53	900.92
605.87	894.80
606.22	888.99
606.57	882.87
606.92	876.51
607.27	870.41
607.62	864.60
607.96	858.82
608.31	853.62
608.66	847.62
609.01	841.89
609.36	836.20
609.70	830.46
610.05	824.62
610.40	818.87
610.75	813.04
611.10	807.44
611.44	801.72
611.79	796.12
612.14	790.74
612.49	785.35
612.83	780.12
613.18	774.80
613.53	769.68
613.88	764.37
614.22	759.05
614.57	753.84
614.92	748.37
615.27	743.40
615.61	737.88
615.96	732.81
616.31	727.51
616.65	722.65
617.00	717.72
617.35	712.50
617.70	707.51
618.04	702.62
618.39	697.76
618.74	693.38
619.08	688.79
619.43	684.05
619.78	679.20
620.12	674.34
620.47	669.74
620.82	664.95
621.16	660.21
621.51	656.28
621.85	651.85
622.20	647.32
622.55	642.73
622.89	638.45
623.24	634.24
623.59	630.10
623.93	625.76
624.28	621.55
624.62	617.92
624.97	613.94
625.32	609.96
625.66	605.94
626.01	601.65
626.35	597.93
626.70	594.03
627.04	590.62
627.39	586.89
627.73	583.21
628.08	579.63
628.43	576.01
628.77	572.01
629.12	568.42
629.46	565.24
629.81	562.22
630.15	558.93
630.50	555.43
630.84	552.09
631.19	548.72
631.53	545.59
631.88	541.94
632.22	538.60
632.57	535.68
632.91	532.63
633.26	529.74
633.60	526.45
633.95	523.33
634.29	519.99
634.64	516.93
634.98	513.74
635.32	510.87
635.67	508.25
636.01	505.27
636.36	502.35
636.70	499.60
637.05	496.55
637.39	493.72
637.73	491.01
638.08	488.29
638.42	485.59
638.77	482.62
639.11	479.75
639.45	476.94
639.80	473.92
640.14	471.12
640.49	468.38
640.83	465.85
641.17	463.41
641.52	461.01
641.86	458.55
642.20	456.47
642.55	453.85
642.89	451.29
643.23	448.98
643.58	446.86
643.92	444.24
644.26	442.03
644.61	439.87
644.95	437.60
645.29	435.15
645.64	433.04
645.98	430.91
646.32	428.96
646.66	426.87
647.01	424.83
647.35	423.02
647.69	420.96
648.04	419.14
648.38	417.11
648.72	415.12
649.06	413.03
649.41	410.79
649.75	408.81
650.09	406.86
650.43	405.00
650.78	402.89
651.12	401.02
651.46	398.94
651.80	397.09
652.14	395.16
652.49	393.71
652.83	391.84
653.17	390.06
653.51	388.19
653.85	386.52
654.20	384.80
654.54	382.95
654.88	381.27
655.22	379.68
655.56	378.07
655.90	376.38
656.25	374.90
656.59	373.28
656.93	371.75
657.27	370.40
657.61	368.59
657.95	367.20
658.29	365.78
658.64	364.42
658.98	362.84
659.32	361.38
659.66	359.73
660.00	358.29
660.34	356.88
660.68	355.46
661.02	353.97
661.36	352.57
661.70	351.13
662.05	349.84
662.39	348.36
662.73	347.12
663.07	346.08
663.41	344.74
663.75	343.43
664.09	342.04
664.43	340.54
664.77	339.53
665.11	338.21
665.45	336.99
665.79	335.80
666.13	334.51
666.47	333.30
666.81	332.06
667.15	330.78
667.49	329.69
667.83	328.77
668.17	327.76
668.51	326.77
668.85	325.87
669.19	325.05
669.53	323.91
669.87	322.82
670.21	321.70
670.55	320.71
670.89	320.04
671.23	319.21
671.57	318.22
671.91	317.21
672.25	316.28
672.58	315.48
672.92	314.38
673.26	313.56
673.60	312.70
673.94	311.93
674.28	311.13
674.62	310.27
674.96	309.38
675.30	308.52
675.64	307.56
675.97	306.72
676.31	305.70
676.65	304.84
676.99	304.16
677.33	303.27
677.67	302.53
678.01	301.58
678.34	300.86
678.68	300.31
679.02	299.43
679.36	298.68
679.70	297.87
680.04	297.28
680.37	296.62
680.71	295.97
681.05	295.32
681.39	294.74
681.73	294.10
682.06	293.45
682.40	292.83
682.74	292.31
683.08	291.85
683.42	291.19
683.75	290.75
684.09	290.07
684.43	289.56
684.77	288.92
685.10	288.27
685.44	287.60
685.78	286.97
686.12	286.48
686.45	285.91
686.79	285.33
687.13	284.88
687.46	284.31
687.80	283.91
688.14	283.32
688.48	282.77
688.81	282.26
689.15	281.82
689.49	281.32
689.82	280.82
690.16	280.06
690.50	279.61
690.83	279.08
691.17	278.45
691.51	277.95
691.84	277.56
692.18	276.98
692.52	276.48
692.85	276.06
693.19	275.83
693.52	275.40
693.86	274.91
694.20	274.36
694.53	273.98
694.87	273.47
695.21	272.95
695.54	272.55
695.88	272.02
696.21	271.40
696.55	270.95
696.88	270.46
697.22	270.06
697.56	269.73
697.89	269.24
698.23	268.95
698.56	268.50
698.90	268.09
699.23	267.79
699.57	267.44
699.90	267.01
700.24	266.47
700.58	266.12
700.91	265.88
701.25	265.91
701.58	265.86
701.92	265.50
702.25	265.16
702.59	264.72
702.92	264.48
703.26	264.20
703.59	263.95
703.93	264.08
704.26	263.88
704.60	263.48
704.93	263.11
705.26	262.81
705.60	262.55
705.93	262.20
706.27	262.02
706.60	261.86
706.94	261.73
707.27	261.44
707.61	261.18
707.94	260.84
708.27	260.11
708.61	259.43
708.94	259.12
709.28	258.94
709.61	258.64
709.94	258.33
710.28	258.11
710.61	257.71
710.95	256.97
711.28	256.88
711.61	256.56
711.95	256.52
712.28	256.19
712.61	255.92
712.95	255.90
713.28	255.79
713.61	255.47
713.95	255.00
714.28	254.72
714.61	254.43
714.95	254.12
715.28	253.84
715.61	253.60
715.95	253.43
716.28	253.02
716.61	252.91
716.95	252.54
717.28	252.21
717.61	251.98
717.94	251.74
718.28	251.15
718.61	250.97
718.94	250.55
719.27	250.29
719.61	250.08
719.94	249.70
720.27	249.20
720.60	248.91
720.94	248.75
721.27	248.65
721.60	248.52
721.93	248.28
722.27	248.30
722.60	248.11
722.93	247.79
723.26	247.76
723.59	247.52
723.93	247.43
724.26	247.32
724.59	247.12
724.92	246.92
725.25	246.94
725.59	246.70
725.92	246.65
726.25	246.41
726.58	246.24
726.91	245.99
727.24	245.94
727.57	245.80
727.91	245.54
728.24	245.38
728.57	245.09
728.90	245.09
729.23	244.75
729.56	244.86
729.89	244.69
730.22	244.42
730.55	244.24
730.89	244.06
731.22	243.82
731.55	243.63
731.88	243.54
732.21	243.24
732.54	243.07
732.87	242.85
733.20	242.77
733.53	242.65
733.86	242.61
734.19	242.41
734.52	242.30
734.85	242.49
735.18	242.15
735.51	242.27
735.84	242.13
736.17	242.13
736.50	241.72
736.83	242.19
737.16	242.11
737.49	242.00
737.82	241.92
738.15	241.90
738.48	241.86
738.81	241.65
739.14	241.49
739.47	241.35
739.80	241.22
740.13	241.22
740.46	241.01
740.79	240.71
741.12	240.53
741.45	240.35
741.78	239.92
742.11	240.06
742.44	239.70
742.77	239.57
743.10	239.37
743.43	239.24
743.75	238.57
744.08	239.10
744.41	238.97
744.74	238.73
745.07	238.46
745.40	238.40
745.73	238.58
746.06	238.55
746.39	238.51
746.71	238.46
747.04	238.31
747.37	238.19
747.70	238.26
748.03	238.30
748.36	238.23
748.68	238.22
749.01	237.95
749.34	237.88
749.67	237.81
750.00	237.82
750.33	238.05
750.65	238.07
750.98	237.35
751.31	237.28
751.64	237.36
751.97	237.64
752.29	237.52
752.62	237.18
752.95	237.01
753.28	236.82
753.60	236.66
753.93	236.65
754.26	236.62
754.59	236.43
754.91	236.25
755.24	236.18
755.57	236.11
755.90	236.01
756.22	235.87
756.55	235.65
756.88	235.42
757.20	235.06
757.53	234.77
757.86	234.68
758.19	234.57
758.51	234.39
758.84	234.00
759.17	233.84
759.49	233.80
759.82	233.95
760.15	234.10
760.47	234.01
760.80	233.80
761.13	233.83
761.45	233.71
761.78	233.66
762.11	233.57
762.43	233.47
762.76	233.39
763.08	233.40
763.41	233.44
763.74	233.36
764.06	233.24
764.39	233.24
764.71	233.13
765.04	233.10
765.37	233.03
765.69	233.00
766.02	232.94
766.34	232.82
766.67	232.54
767.00	232.51
767.32	232.71
767.65	232.96
767.97	232.80
768.30	232.86
768.62	232.76
768.95	232.62
769.27	232.51
769.60	232.52
769.92	232.34
770.25	232.08
770.57	232.05
770.90	231.90
771.22	231.77
771.55	231.70
771.87	231.54
772.20	231.46
772.52	231.75
772.85	232.26
773.17	232.23
773.50	232.19
773.82	231.95
774.15	231.71
774.47	231.26
774.80	231.18
775.12	231.05
775.45	231.01
775.77	230.98
776.09	230.97
776.42	230.95
776.74	231.08
777.07	231.14
777.39	231.09
777.72	231.03
778.04	231.09
778.36	231.06
778.69	231.07
779.01	231.04
779.33	230.58
779.66	230.01
779.98	229.91
780.31	229.91
780.63	230.11
780.95	230.11
781.28	230.20
781.60	230.12
781.92	230.09
782.25	229.96
782.57	229.94
782.89	229.83
783.22	229.77
783.54	229.63
783.86	229.63
784.19	229.57
784.51	229.75
784.83	229.65
785.16	229.56
785.48	229.57
785.80	229.57
786.12	229.63
786.45	229.65
786.77	229.72
787.09	229.64
787.42	229.40
787.74	229.39
788.06	229.33
788.38	229.32
788.71	229.27
789.03	229.34
789.35	229.41
789.67	229.28
789.99	229.26
790.32	229.20
790.64	229.25
790.96	229.59
791.28	229.40
791.61	229.36
791.93	229.39
792.25	229.33
792.57	229.61
792.89	229.46
793.21	229.43
793.54	229.32
793.86	229.27
794.18	229.31
794.50	229.19
794.82	229.25
795.14	229.28
795.47	229.38
795.79	229.35
796.11	229.19
796.43	229.21
796.75	229.19
797.07	229.26
797.39	229.20
797.71	228.85
798.04	228.93
798.36	229.00
798.68	229.05
799.00	229.08
799.32	228.84
799.64	228.99
799.96	228.96
800.28	229.07
800.60	229.09
800.92	229.08
801.24	229.05
801.56	228.97
801.89	228.91
802.21	228.88
802.53	228.78
802.85	228.98
803.17	229.22
803.49	229.10
803.81	228.98
804.13	228.96
804.45	228.96
804.77	228.92
805.09	228.82
805.41	228.78
805.73	228.67
806.05	228.59
806.37	228.53
806.69	228.47
807.01	228.49
807.33	228.50
807.65	228.30
807.97	228.59
808.28	228.57
808.60	228.55
808.92	228.50
809.24	228.86
809.56	228.73
809.88	228.60
810.20	228.68
810.52	228.78
810.84	228.66
811.16	228.55
811.48	228.53
811.80	228.63
812.12	228.59
812.43	228.69
812.75	228.69
813.07	228.62
813.39	228.63
813.71	228.43
814.03	228.37
814.35	228.36
814.67	228.12
814.98	228.02
815.30	228.01
815.62	227.96
815.94	227.56
816.26	227.68
816.58	227.57
816.89	227.52
817.21	227.42
817.53	227.48
817.85	227.49
818.17	227.44
818.48	227.27
818.80	227.32
819.12	227.28
819.44	227.23
819.76	227.15
820.07	227.17
820.39	227.20
820.71	227.24
821.03	227.28
821.34	227.16
821.66	227.25
821.98	227.24
822.30	227.25
822.61	227.50
822.93	227.26
823.25	227.22
823.57	227.11
823.88	227.19
824.20	227.09
824.52	227.17
824.83	227.16
825.15	227.07
825.47	227.00
825.79	226.94
826.10	226.80
826.42	226.83
826.74	226.85
827.05	226.86
827.37	226.79
827.69	226.75
828.00	226.85
828.32	226.73
828.64	226.73
828.95	226.89
829.27	226.85
829.58	226.85
829.90	226.92
830.22	227.02
830.53	226.92
830.85	226.94
831.17	226.81
831.48	226.83
831.80	226.95
832.11	226.91
832.43	226.89
832.75	226.90
833.06	227.14
833.38	227.02
833.69	226.96
834.01	227.03
834.32	226.99
834.64	226.91
834.96	226.97
835.27	226.87
835.59	226.74
835.90	226.67
836.22	226.70
836.53	226.59
836.85	226.51
837.16	227.01
837.48	227.09
837.79	227.24
838.11	227.34
838.42	227.36
838.74	227.45
839.05	227.43
839.37	227.46
839.68	227.20
840.00	227.21
840.31	227.35
840.63	227.30
840.94	227.29
841.26	227.31
841.57	227.31
841.88	227.46
842.20	227.41
842.51	227.28
842.83	227.30
843.14	227.80
843.46	227.85
843.77	227.55
844.08	227.43
844.40	227.26
844.71	227.14
845.03	227.08
845.34	227.06
845.65	227.01
845.97	227.04
846.28	227.04
846.60	227.05
846.91	226.97
847.22	226.91
847.54	227.00
847.85	227.05
848.16	227.03
848.48	226.86
848.79	227.01
849.10	227.05
849.42	227.10
849.73	226.64
850.04	226.56
850.36	226.40
850.67	226.54
850.98	226.59
851.30	226.64
851.61	226.62
851.92	226.57
852.23	226.78
852.55	226.85
852.86	226.84
853.17	226.88
853.49	226.91
853.80	227.03
854.11	227.11
854.42	227.15
854.74	227.06
855.05	227.19
855.36	226.92
855.67	226.95
855.99	226.92
856.30	227.39
856.61	227.43
856.92	227.35
857.23	227.39
857.55	227.35
857.86	227.31
858.17	227.35
858.48	227.29
858.79	227.14
859.11	227.09
859.42	227.04
859.73	226.95
860.04	226.96
860.35	226.82
860.66	226.60
860.98	226.54
861.29	226.61
861.60	226.51
861.91	226.65
862.22	226.58
862.53	226.54
862.84	226.07
863.16	226.13
863.47	226.06
863.78	225.98
864.09	225.94
864.40	225.94
864.71	225.93
865.02	225.95
865.33	225.95
865.64	225.86
865.95	225.89
866.27	226.15
866.58	226.03
866.89	226.06
867.20	226.11
867.51	226.04
867.82	225.98
868.13	226.18
868.44	226.08
868.75	226.09
869.06	226.08
869.37	226.12
869.68	225.99
869.99	226.17
870.30	226.12
870.61	226.25
870.92	226.13
871.23	226.11
871.54	226.16
871.85	226.20
872.16	226.21
872.47	226.13
872.78	225.90
873.09	226.01
873.40	226.01
873.71	226.02
874.02	226.03
874.33	226.00
874.64	225.82
874.95	225.86
875.26	225.75
875.56	225.77
875.87	225.72
876.18	225.79
876.49	226.18
876.80	226.16
877.11	226.02
877.42	226.10
877.73	226.11
878.04	226.07
878.35	226.13
878.66	226.19
878.96	226.22
879.27	226.18
879.58	226.10
879.89	226.07
880.20	226.20
880.51	226.19
880.82	226.26
881.12	226.37
881.43	226.30
881.74	226.33
882.05	226.29
882.36	226.29
882.67	226.30
882.97	225.79
883.28	225.76
883.59	225.78
883.90	225.84
884.21	225.89
884.51	225.83
884.82	225.68
885.13	225.73
885.44	225.76
885.74	225.79
886.05	225.77
886.36	225.79
886.67	225.62
886.98	225.85
887.28	225.89
887.59	225.80
887.90	225.82
888.20	225.75
888.51	225.83
888.82	225.82
889.13	225.80
889.43	226.25
889.74	226.28
890.05	226.30
890.35	226.31
890.66	226.22
890.97	226.23
891.28	226.21
891.58	226.16
891.89	226.17
892.20	226.15
892.50	226.12
892.81	226.09
893.12	226.10
893.42	225.89
893.73	225.88
894.04	225.92
894.34	225.97
894.65	226.00
894.95	225.89
895.26	225.88
895.57	226.12
895.87	225.62
896.18	225.66
896.48	225.63
896.79	225.61
897.10	225.68
897.40	225.69
897.71	225.78
898.01	225.77
898.32	225.86
898.63	225.93
898.93	225.96
899.24	225.99
899.54	225.97
899.85	226.00
900.15	225.99
900.46	226.05
900.76	226.11
901.07	226.17
901.38	226.27
901.68	226.33
901.99	226.08
902.29	226.15
902.60	226.12
902.90	226.19
903.21	226.17
903.51	226.18
903.82	226.27
904.12	226.30
904.43	226.31
904.73	226.20
905.03	226.17
905.34	226.60
905.64	226.57
905.95	226.55
906.25	226.48
906.56	226.42
906.86	226.38
907.17	226.30
907.47	226.24
907.77	226.21
908.08	226.12
908.38	226.15
908.69	226.16
908.99	226.31
909.30	226.28
909.60	226.21
909.90	226.21
910.21	226.11
910.51	226.02
910.81	226.03
911.12	226.07
911.42	226.06
911.73	225.57
912.03	225.56
912.33	225.70
912.64	225.72
912.94	225.70
913.24	225.59
913.55	225.62
913.85	225.62
914.15	225.68
914.46	225.73
914.76	225.72
915.06	225.76
915.37	225.54
915.67	225.55
915.97	225.60
916.27	225.48
916.58	225.54
916.88	225.60
917.18	225.51
917.49	225.85
917.79	225.78
918.09	225.89
918.39	226.02
918.70	225.99
919.00	225.98
919.30	226.17
919.60	226.19
919.91	226.04
920.21	226.08
920.51	225.98
920.81	225.94
921.12	226.05
921.42	225.96
921.72	226.02
922.02	225.98
922.32	226.07
922.63	226.10
922.93	226.32
923.23	226.23
923.53	226.28
923.83	225.95
924.13	226.00
924.44	225.95
924.74	226.04
925.04	226.13
925.34	226.19
925.64	225.97
925.94	225.97
926.24	226.30
926.55	226.26
926.85	226.32
927.15	226.36
927.45	226.34
927.75	226.38
928.05	226.43
928.35	226.38
928.65	226.34
928.95	226.45
929.26	226.23
929.56	226.37
929.86	226.36
930.16	226.34
930.46	226.32
930.76	226.34
931.06	226.19
931.36	226.08
931.66	226.16
931.96	226.27
932.26	226.29
932.56	226.06
932.86	226.14
933.16	226.06
933.46	226.00
933.76	225.90
934.06	226.01
934.36	226.16
934.66	226.12
934.96	226.15
935.26	226.10
935.56	226.18
935.86	226.11
936.16	226.04
936.46	226.02
936.76	225.96
937.06	225.89
937.36	225.88
937.66	225.93
937.96	225.83
938.26	225.67
938.56	225.61
938.86	225.65
939.16	225.67
939.46	225.74
939.76	225.72
940.06	225.75
940.35	225.66
940.65	225.43
940.95	225.56
941.25	225.45
941.55	225.34
941.85	225.23
942.15	225.21
942.45	225.43
942.75	225.33
943.04	225.39
943.34	225.60
943.64	225.51
943.94	225.40
944.24	225.41
944.54	225.50
944.84	225.50
945.13	225.50
945.43	225.43
945.73	225.39
946.03	225.42
946.33	225.39
946.62	225.35
946.92	225.33
947.22	225.41
947.52	225.44
947.82	225.60
948.11	225.66
948.41	225.68
948.71	225.48
949.01	225.56
949.31	225.51
949.60	225.41
949.90	225.52
950.20	225.52
950.50	225.52
950.79	225.54
951.09	225.66
951.39	225.58
951.69	225.54
951.98	225.59
952.28	225.61
952.58	225.61
952.87	225.60
953.17	225.75
953.47	225.61
953.76	225.60
954.06	225.49
954.36	225.35
954.66	225.30
954.95	225.51
955.25	225.59
955.55	225.69
955.84	225.56
956.14	225.55
956.44	225.65
956.73	225.59
957.03	225.58
957.32	225.55
957.62	225.54
957.92	225.67
958.21	225.72
958.51	226.18
958.81	226.26
959.10	226.31
959.40	226.36
959.69	226.41
959.99	226.46
960.29	226.52
960.58	226.51
960.88	226.73
961.17	226.65
961.47	226.69
961.76	226.58
962.06	226.71
962.36	226.64
962.65	226.61
962.95	226.69
963.24	226.66
963.54	226.62
963.83	226.66
964.13	226.63
964.42	226.49
964.72	226.08
965.01	226.05
965.31	226.04
965.60	225.92
965.90	226.22
966.19	226.16
966.49	226.12
966.78	226.13
967.08	226.07
967.37	226.05
967.67	225.94
967.96	226.00
968.26	226.00
968.55	226.11
968.85	226.10
969.14	226.04
969.43	226.03
969.73	226.10
970.02	226.05
970.32	226.00
970.61	226.08
970.91	225.95
971.20	225.90
971.49	225.85
971.79	225.89
972.08	225.55
972.38	225.55
972.67	225.50
972.96	225.57
973.26	225.44
973.55	225.59
973.85	225.56
974.14	225.51
974.43	225.49
974.73	225.37
975.02	225.27
975.31	225.23
975.61	225.18
975.90	225.04
976.19	224.97
976.49	224.99
976.78	224.97
977.07	225.04
977.37	224.99
977.66	225.01
977.95	224.98
978.24	224.97
978.54	225.06
978.83	225.04
979.12	225.04
979.42	225.04
979.71	224.89
980.00	224.88
980.29	224.86
980.59	224.77
980.88	224.93
981.17	224.96
981.46	225.01
981.76	224.99
982.05	225.18
982.34	225.22
982.63	225.21
982.93	225.14
983.22	225.17
983.51	225.24
983.80	225.35
984.09	225.34
984.39	225.43
984.68	225.35
984.97	225.41
985.26	225.34
985.55	225.38
985.85	225.33
986.14	225.42
986.43	225.55
986.72	225.55
987.01	225.38
987.30	225.38
987.59	225.33
987.89	225.41
988.18	225.27
988.47	225.28
988.76	225.30
989.05	225.32
989.34	225.32
989.63	225.46
989.92	225.30
990.22	225.28
990.51	225.20
990.80	225.25
991.09	225.33
991.38	225.42
991.67	225.40
991.96	225.36
992.25	225.40
992.54	225.36
992.83	225.45
993.12	225.50
993.41	225.64
993.70	225.87
993.99	226.00
994.28	226.08
994.58	226.06
994.87	225.97
995.16	226.01
995.45	226.00
995.74	225.84
996.03	226.00
996.32	226.10
996.61	226.19
996.90	226.16
997.19	226.11
997.48	226.12
997.77	226.14
998.06	226.16
998.34	226.06
998.63	226.04
998.92	225.99
999.21	226.04
999.50	225.95
999.79	225.74
1000.08	225.68
1000.37	225.72
1000.66	225.74
1000.95	225.95
1001.24	225.91
1001.53	225.97
1001.82	226.00
1002.11	225.78
1002.40	225.71
1002.68	225.91
1002.97	226.22
1003.26	226.13
1003.55	226.05
1003.84	226.01
1004.13	226.22
1004.42	226.20
1004.71	226.21
1004.99	226.23
1005.28	226.32
1005.57	226.26
1005.86	226.26
1006.15	226.18
1006.44	226.10
1006.72	226.15
1007.01	225.99
1007.30	226.03
1007.59	225.95
1007.88	225.90
1008.17	225.95
1008.45	225.90
1008.74	225.62
1009.03	225.36
1009.32	225.35
1009.60	225.34
1009.89	225.33
1010.18	225.12
1010.47	225.11
1010.76	225.04
1011.04	224.99
1011.33	225.02
1011.62	225.10
1011.91	225.10
1012.19	225.18
1012.48	225.20
1012.77	225.20
1013.05	225.42
1013.34	225.39
1013.63	225.31
1013.92	225.38
1014.20	225.43
1014.49	225.40
1014.78	225.48
1015.06	225.35
1015.35	225.34
1015.64	225.39
1015.92	225.46
1016.21	225.47
1016.50	225.50
1016.78	225.61
1017.07	225.69
1017.36	225.59
1017.64	225.48
1017.93	225.55
1018.22	225.47
1018.50	225.33
1018.79	225.29
1019.08	225.09
1019.36	225.09
1019.65	225.06
1019.93	225.16
1020.22	225.21
1020.51	225.53
1020.79	225.41
1021.08	224.50
1021.36	222.75
1021.65	225.05
1021.94	225.30
1022.22	225.10
1022.51	223.45
1022.79	227.80
1023.08	226.10
1023.36	231.55
1023.65	223.90
>>>>>End Processed Spectral Data<<<<<
