SpectraSuite Data File
++++++++++++++++++++++++++++++++++++
Date: Wed Sep 04 17:50:53 EDT 2013
User: lab3
Dark Spectrum Present: Yes
Reference Spectrum Present: No
Number of Sampled Component Spectra: 1
Spectrometers: USB2E7196
Integration Time (usec): 170000 (USB2E7196)
Spectra Averaged: 20 (USB2E7196)
Boxcar Smoothing: 10 (USB2E7196)
Correct for Electrical Dark: No (USB2E7196)
Strobe/Lamp Enabled: No (USB2E7196)
Correct for Detector Non-linearity: No (USB2E7196)
Correct for Stray Light: No (USB2E7196)
Number of Pixels in Processed Spectrum: 2048
>>>>>Begin Processed Spectral Data<<<<<
339.09	0.00
339.48	212.95
339.86	213.70
340.24	216.20
340.63	218.25
341.01	224.40
341.39	219.80
341.78	221.55
342.16	223.50
342.54	224.00
342.93	212.13
343.31	222.81
343.69	223.34
344.07	223.86
344.46	224.24
344.84	224.59
345.22	224.61
345.60	224.90
345.99	225.06
346.37	225.22
346.75	225.32
347.13	225.47
347.52	225.58
347.90	225.75
348.28	225.78
348.66	225.84
349.05	225.73
349.43	225.79
349.81	225.83
350.19	225.86
350.57	225.90
350.96	225.97
351.34	226.08
351.72	226.16
352.10	226.25
352.48	226.40
352.87	226.40
353.25	226.49
353.63	226.49
354.01	226.54
354.39	226.59
354.77	226.67
355.15	226.78
355.54	226.75
355.92	226.67
356.30	226.73
356.68	227.20
357.06	227.29
357.44	227.25
357.82	227.30
358.20	227.75
358.58	227.78
358.97	227.86
359.35	227.99
359.73	228.16
360.11	228.22
360.49	228.23
360.87	228.33
361.25	228.41
361.63	228.65
362.01	228.74
362.39	228.73
362.77	228.73
363.15	228.76
363.53	228.80
363.91	228.92
364.29	228.98
364.67	228.51
365.05	228.60
365.43	228.76
365.81	228.92
366.19	228.78
366.57	229.05
366.95	229.06
367.33	228.99
367.71	228.98
368.09	229.06
368.47	229.04
368.85	228.98
369.23	229.09
369.61	228.89
369.99	229.10
370.37	229.13
370.75	229.41
371.13	229.30
371.51	229.26
371.89	229.29
372.27	229.31
372.65	229.33
373.03	229.24
373.41	229.19
373.78	229.04
374.16	228.73
374.54	228.50
374.92	228.41
375.30	228.40
375.68	228.24
376.06	228.24
376.44	228.19
376.82	228.15
377.19	228.07
377.57	228.08
377.95	227.81
378.33	227.78
378.71	227.37
379.09	227.33
379.47	227.35
379.84	227.20
380.22	227.05
380.60	226.90
380.98	226.81
381.36	226.71
381.73	226.65
382.11	226.67
382.49	226.58
382.87	226.44
383.25	226.31
383.62	226.88
384.00	226.63
384.38	226.63
384.76	226.72
385.13	226.75
385.51	226.64
385.89	226.47
386.27	226.35
386.64	226.34
387.02	226.26
387.40	226.11
387.78	226.05
388.15	225.99
388.53	225.94
388.91	225.93
389.29	225.80
389.66	225.80
390.04	225.71
390.42	225.80
390.79	225.75
391.17	225.79
391.55	225.15
391.92	225.19
392.30	225.11
392.68	225.00
393.05	224.99
393.43	225.04
393.81	225.19
394.18	225.19
394.56	225.31
394.94	225.45
395.31	225.43
395.69	225.60
396.06	225.74
396.44	225.88
396.82	225.93
397.19	226.24
397.57	226.23
397.95	226.35
398.32	226.30
398.70	226.50
399.07	226.67
399.45	226.73
399.82	226.81
400.20	226.91
400.58	226.94
400.95	226.83
401.33	227.04
401.70	227.41
402.08	227.53
402.45	227.57
402.83	227.80
403.20	228.05
403.58	228.12
403.95	228.36
404.33	228.58
404.71	228.80
405.08	229.29
405.46	229.57
405.83	229.85
406.21	230.10
406.58	230.39
406.96	230.63
407.33	231.12
407.70	231.53
408.08	232.29
408.45	232.76
408.83	233.42
409.20	233.75
409.58	233.92
409.95	234.52
410.33	235.10
410.70	235.51
411.08	236.11
411.45	236.76
411.82	237.29
412.20	238.07
412.57	238.95
412.95	239.25
413.32	240.11
413.69	240.89
414.07	241.82
414.44	242.72
414.82	243.78
415.19	244.85
415.56	245.98
415.94	247.01
416.31	248.46
416.68	249.80
417.06	251.43
417.43	253.08
417.81	254.80
418.18	256.54
418.55	258.44
418.93	260.53
419.30	262.64
419.67	264.98
420.04	267.15
420.42	269.55
420.79	272.63
421.16	275.40
421.54	278.53
421.91	281.53
422.28	284.60
422.66	287.85
423.03	291.34
423.40	294.71
423.77	298.30
424.15	301.84
424.52	305.50
424.89	309.73
425.26	313.67
425.64	317.52
426.01	321.81
426.38	326.08
426.75	330.58
427.13	335.10
427.50	339.74
427.87	344.60
428.24	349.40
428.61	353.80
428.99	359.01
429.36	364.40
429.73	369.86
430.10	375.36
430.47	381.00
430.85	386.54
431.22	392.61
431.59	399.32
431.96	405.60
432.33	412.53
432.70	419.02
433.08	426.89
433.45	434.11
433.82	441.30
434.19	449.52
434.56	457.54
434.93	465.11
435.30	472.85
435.68	481.34
436.05	489.71
436.42	497.95
436.79	505.58
437.16	513.91
437.53	522.67
437.90	531.27
438.27	539.83
438.64	548.71
439.01	557.05
439.38	564.07
439.75	571.21
440.13	579.21
440.50	586.75
440.87	592.67
441.24	599.13
441.61	606.12
441.98	611.15
442.35	616.78
442.72	622.85
443.09	628.60
443.46	632.03
443.83	634.40
444.20	636.35
444.57	639.07
444.94	640.11
445.31	641.11
445.68	642.51
446.05	642.56
446.42	641.10
446.79	639.67
447.16	638.07
447.53	636.60
447.90	632.91
448.27	629.28
448.64	624.43
449.01	620.63
449.37	614.55
449.74	608.54
450.11	601.76
450.48	593.99
450.85	586.01
451.22	579.21
451.59	572.60
451.96	566.51
452.33	558.42
452.70	551.11
453.07	542.50
453.43	533.39
453.80	525.13
454.17	517.35
454.54	509.62
454.91	501.63
455.28	493.70
455.65	486.34
456.02	479.42
456.38	473.18
456.75	465.65
457.12	459.03
457.49	452.88
457.86	446.65
458.23	441.72
458.59	436.04
458.96	430.33
459.33	425.32
459.70	420.12
460.07	416.15
460.43	411.50
460.80	407.30
461.17	403.70
461.54	399.78
461.91	395.95
462.27	392.17
462.64	388.85
463.01	385.39
463.38	382.07
463.74	378.13
464.11	375.10
464.48	372.38
464.85	369.65
465.21	367.51
465.58	365.20
465.95	362.27
466.32	360.14
466.68	357.90
467.05	355.64
467.42	353.53
467.78	351.23
468.15	349.15
468.52	347.55
468.88	345.29
469.25	343.40
469.62	342.03
469.98	340.42
470.35	339.01
470.72	337.57
471.08	336.01
471.45	334.77
471.82	333.59
472.18	332.14
472.55	331.15
472.92	329.73
473.28	328.64
473.65	327.59
474.02	326.50
474.38	325.70
474.75	325.01
475.11	324.07
475.48	323.47
475.85	322.78
476.21	322.16
476.58	321.74
476.94	321.28
477.31	320.78
477.67	320.31
478.04	319.96
478.41	319.78
478.77	320.00
479.14	319.71
479.50	319.51
479.87	319.54
480.23	319.51
480.60	319.57
480.96	319.50
481.33	319.85
481.69	320.10
482.06	320.25
482.42	320.48
482.79	320.88
483.15	321.23
483.52	321.86
483.88	322.30
484.25	322.78
484.61	323.40
484.98	323.92
485.34	324.87
485.71	325.72
486.07	326.66
486.44	327.20
486.80	328.40
487.17	329.55
487.53	330.98
487.90	332.40
488.26	334.01
488.62	335.71
488.99	337.18
489.35	338.91
489.72	340.75
490.08	342.70
490.44	344.73
490.81	347.00
491.17	349.13
491.54	351.73
491.90	354.35
492.26	356.92
492.63	359.78
492.99	362.69
493.36	365.87
493.72	369.18
494.08	372.58
494.45	376.24
494.81	380.19
495.17	383.80
495.54	387.95
495.90	392.15
496.26	396.64
496.63	401.37
496.99	406.15
497.35	411.30
497.72	416.63
498.08	422.10
498.44	427.72
498.80	433.79
499.17	439.68
499.53	445.76
499.89	452.42
500.26	459.25
500.62	466.15
500.98	473.48
501.34	480.96
501.71	488.79
502.07	496.44
502.43	504.24
502.79	512.76
503.16	521.36
503.52	530.32
503.88	539.54
504.24	549.10
504.60	558.99
504.97	569.27
505.33	579.70
505.69	590.72
506.05	601.85
506.41	613.22
506.78	624.88
507.14	636.89
507.50	649.39
507.86	661.99
508.22	675.02
508.59	688.07
508.95	701.48
509.31	715.57
509.67	730.05
510.03	744.45
510.39	759.12
510.75	774.01
511.12	789.29
511.48	804.88
511.84	820.50
512.20	836.40
512.56	852.55
512.92	869.48
513.28	886.37
513.64	903.27
514.00	920.47
514.37	938.19
514.73	956.33
515.09	974.35
515.45	992.72
515.81	1010.98
516.17	1029.52
516.53	1048.31
516.89	1066.60
517.25	1085.98
517.61	1106.03
517.97	1126.17
518.33	1146.38
518.69	1166.55
519.05	1186.94
519.41	1207.63
519.77	1228.74
520.13	1249.35
520.49	1269.49
520.85	1291.56
521.21	1312.58
521.57	1334.02
521.93	1354.67
522.29	1376.04
522.65	1396.48
523.01	1417.24
523.37	1438.05
523.73	1458.90
524.09	1479.29
524.45	1499.98
524.81	1520.37
525.17	1540.97
525.53	1561.29
525.89	1581.88
526.25	1602.41
526.61	1622.45
526.97	1643.46
527.33	1664.42
527.68	1686.32
528.04	1707.65
528.40	1727.21
528.76	1748.46
529.12	1768.48
529.48	1789.41
529.84	1809.16
530.20	1830.37
530.56	1850.94
530.91	1871.54
531.27	1892.18
531.63	1912.65
531.99	1933.13
532.35	1953.05
532.71	1973.04
533.07	1993.88
533.42	2013.65
533.78	2033.45
534.14	2053.11
534.50	2071.87
534.86	2090.75
535.21	2107.82
535.57	2125.87
535.93	2143.50
536.29	2160.88
536.65	2178.94
537.00	2196.21
537.36	2213.61
537.72	2229.65
538.08	2246.61
538.44	2263.00
538.79	2279.06
539.15	2295.18
539.51	2311.26
539.87	2326.30
540.22	2340.01
540.58	2354.24
540.94	2367.37
541.29	2380.10
541.65	2392.74
542.01	2404.89
542.37	2415.30
542.72	2426.29
543.08	2436.79
543.44	2448.08
543.79	2457.82
544.15	2467.61
544.51	2477.34
544.87	2486.49
545.22	2495.00
545.58	2502.53
545.94	2509.51
546.29	2515.68
546.65	2521.77
547.01	2526.93
547.36	2532.48
547.72	2537.92
548.07	2541.22
548.43	2546.30
548.79	2550.60
549.14	2554.39
549.50	2558.38
549.86	2562.67
550.21	2566.17
550.57	2569.47
550.92	2570.83
551.28	2572.16
551.64	2574.10
551.99	2575.77
552.35	2577.30
552.70	2579.37
553.06	2581.08
553.41	2582.21
553.77	2584.02
554.13	2585.26
554.48	2586.62
554.84	2587.73
555.19	2589.05
555.55	2590.94
555.90	2589.98
556.26	2588.96
556.61	2587.74
556.97	2585.44
557.32	2584.43
557.68	2583.28
558.03	2581.88
558.39	2580.26
558.74	2579.13
559.10	2575.72
559.45	2572.13
559.81	2567.62
560.16	2562.21
560.52	2556.97
560.87	2552.91
561.23	2547.53
561.58	2541.86
561.94	2535.35
562.29	2528.10
562.64	2520.99
563.00	2512.87
563.35	2506.23
563.71	2499.76
564.06	2493.04
564.42	2486.50
564.77	2479.43
565.12	2471.67
565.48	2463.93
565.83	2455.78
566.19	2447.92
566.54	2440.45
566.89	2432.55
567.25	2425.09
567.60	2417.99
567.96	2410.93
568.31	2402.74
568.66	2393.88
569.02	2385.23
569.37	2376.73
569.72	2369.31
570.08	2359.70
570.43	2349.78
570.78	2340.99
571.14	2331.51
571.49	2321.53
571.84	2311.72
572.20	2300.88
572.55	2290.94
572.90	2279.90
573.26	2269.80
573.61	2258.72
573.96	2247.12
574.31	2234.84
574.67	2223.04
575.02	2210.40
575.37	2197.42
575.72	2184.32
576.08	2172.34
576.43	2159.55
576.78	2146.47
577.13	2132.62
577.49	2120.39
577.84	2108.77
578.19	2096.77
578.54	2084.17
578.90	2072.50
579.25	2060.37
579.60	2047.88
579.95	2034.89
580.30	2021.97
580.66	2008.70
581.01	1995.00
581.36	1981.46
581.71	1969.23
582.06	1956.29
582.42	1943.98
582.77	1931.51
583.12	1919.64
583.47	1907.38
583.82	1895.56
584.17	1883.71
584.53	1872.09
584.88	1859.08
585.23	1846.00
585.58	1831.77
585.93	1818.63
586.28	1805.18
586.63	1791.52
586.98	1777.62
587.34	1764.69
587.69	1751.62
588.04	1739.18
588.39	1727.62
588.74	1715.48
589.09	1703.64
589.44	1691.05
589.79	1679.26
590.14	1667.31
590.49	1655.16
590.84	1643.28
591.19	1631.59
591.54	1619.42
591.89	1607.21
592.25	1597.21
592.60	1585.90
592.95	1574.76
593.30	1563.16
593.65	1551.21
594.00	1539.24
594.35	1529.55
594.70	1517.85
595.05	1506.55
595.40	1494.60
595.75	1482.65
596.10	1471.54
596.45	1459.78
596.80	1449.09
597.15	1437.50
597.50	1425.98
597.85	1414.76
598.19	1403.22
598.54	1391.39
598.89	1380.47
599.24	1369.92
599.59	1358.33
599.94	1347.62
600.29	1337.12
600.64	1326.77
600.99	1316.30
601.34	1306.84
601.69	1295.89
602.04	1286.33
602.39	1276.73
602.74	1267.59
603.08	1258.36
603.43	1249.35
603.78	1240.09
604.13	1230.48
604.48	1221.07
604.83	1211.27
605.18	1201.57
605.53	1192.06
605.87	1183.04
606.22	1174.43
606.57	1165.25
606.92	1156.00
607.27	1147.24
607.62	1138.59
607.96	1130.14
608.31	1122.29
608.66	1113.83
609.01	1105.09
609.36	1096.41
609.70	1087.82
610.05	1079.24
610.40	1070.97
610.75	1062.27
611.10	1053.90
611.44	1045.50
611.79	1037.45
612.14	1029.90
612.49	1022.00
612.83	1014.71
613.18	1007.26
613.53	999.56
613.88	991.72
614.22	984.09
614.57	976.15
614.92	968.47
615.27	960.94
615.61	953.27
615.96	945.83
616.31	938.57
616.65	931.55
617.00	924.33
617.35	917.28
617.70	909.96
618.04	902.95
618.39	896.00
618.74	889.76
619.08	883.00
619.43	875.85
619.78	869.07
620.12	861.77
620.47	854.75
620.82	847.58
621.16	840.84
621.51	834.64
621.85	828.42
622.20	821.92
622.55	815.49
622.89	809.10
623.24	802.70
623.59	796.56
623.93	790.32
624.28	784.46
624.62	778.96
624.97	773.28
625.32	767.59
625.66	761.57
626.01	755.43
626.35	749.96
626.70	744.73
627.04	739.41
627.39	734.11
627.73	728.88
628.08	723.96
628.43	718.80
628.77	713.39
629.12	708.22
629.46	703.61
629.81	699.00
630.15	694.30
630.50	689.72
630.84	684.73
631.19	680.00
631.53	675.32
631.88	670.07
632.22	665.36
632.57	660.77
632.91	656.38
633.26	652.02
633.60	647.31
633.95	642.72
634.29	638.00
634.64	633.69
634.98	629.08
635.32	624.70
635.67	620.73
636.01	616.65
636.36	612.36
636.70	608.03
637.05	603.78
637.39	599.72
637.73	595.47
638.08	591.52
638.42	587.46
638.77	583.31
639.11	579.15
639.45	574.78
639.80	570.44
640.14	566.38
640.49	562.32
640.83	558.62
641.17	554.98
641.52	551.43
641.86	547.73
642.20	544.58
642.55	540.97
642.89	537.33
643.23	533.87
643.58	530.71
643.92	527.13
644.26	523.76
644.61	520.55
644.95	517.14
645.29	513.78
645.64	510.63
645.98	507.55
646.32	504.49
646.66	501.39
647.01	498.57
647.35	495.74
647.69	492.91
648.04	490.13
648.38	487.20
648.72	484.43
649.06	481.55
649.41	478.44
649.75	475.53
650.09	472.68
650.43	469.80
650.78	466.98
651.12	464.32
651.46	461.51
651.80	458.75
652.14	456.10
652.49	453.67
652.83	451.06
653.17	448.51
653.51	445.91
653.85	443.69
654.20	441.22
654.54	438.77
654.88	436.25
655.22	434.01
655.56	431.71
655.90	429.32
656.25	427.04
656.59	424.87
656.93	422.66
657.27	420.55
657.61	418.16
657.95	415.87
658.29	413.59
658.64	411.55
658.98	409.41
659.32	407.31
659.66	405.20
660.00	403.15
660.34	401.06
660.68	399.16
661.02	397.09
661.36	395.16
661.70	393.13
662.05	391.23
662.39	389.19
662.73	387.33
663.07	385.71
663.41	384.02
663.75	382.12
664.09	380.35
664.43	378.47
664.77	376.88
665.11	375.19
665.45	373.56
665.79	371.95
666.13	370.20
666.47	368.56
666.81	366.74
667.15	365.09
667.49	363.59
667.83	362.25
668.17	360.80
668.51	359.27
668.85	357.89
669.19	356.75
669.53	355.20
669.87	353.75
670.21	352.17
670.55	350.69
670.89	349.60
671.23	348.20
671.57	346.80
671.91	345.50
672.25	344.18
672.58	343.06
672.92	341.59
673.26	340.32
673.60	339.23
673.94	338.11
674.28	336.98
674.62	335.78
674.96	334.44
675.30	333.23
675.64	332.05
675.97	330.84
676.31	329.54
676.65	328.40
676.99	327.49
677.33	326.34
677.67	325.24
678.01	323.87
678.34	322.84
678.68	322.02
679.02	320.86
679.36	319.79
679.70	318.72
680.04	317.86
680.37	317.00
680.71	315.94
681.05	315.10
681.39	314.16
681.73	313.24
682.06	312.42
682.40	311.48
682.74	310.66
683.08	309.96
683.42	309.00
683.75	308.20
684.09	307.13
684.43	306.35
684.77	305.53
685.10	304.84
685.44	304.08
685.78	303.08
686.12	302.33
686.45	301.63
686.79	300.79
687.13	300.10
687.46	299.34
687.80	298.71
688.14	297.93
688.48	297.21
688.81	296.42
689.15	295.80
689.49	295.08
689.82	294.45
690.16	293.52
690.50	292.86
690.83	292.10
691.17	291.36
691.51	290.69
691.84	290.10
692.18	289.31
692.52	288.60
692.85	288.07
693.19	287.63
693.52	286.96
693.86	286.33
694.20	285.61
694.53	284.97
694.87	284.33
695.21	283.69
695.54	283.16
695.88	282.49
696.21	281.63
696.55	281.03
696.88	280.43
697.22	279.90
697.56	279.36
697.89	278.80
698.23	278.40
698.56	277.82
698.90	277.26
699.23	276.78
699.57	276.32
699.90	275.68
700.24	275.07
700.58	274.59
700.91	274.24
701.25	274.10
701.58	273.95
701.92	273.54
702.25	273.12
702.59	272.61
702.92	272.30
703.26	271.95
703.59	271.60
703.93	271.58
704.26	271.24
704.60	270.83
704.93	270.34
705.26	269.81
705.60	269.40
705.93	268.92
706.27	268.67
706.60	268.39
706.94	268.24
707.27	267.81
707.61	267.42
707.94	266.95
708.27	266.18
708.61	265.40
708.94	264.93
709.28	264.60
709.61	264.13
709.94	263.77
710.28	263.40
710.61	263.07
710.95	262.22
711.28	262.14
711.61	261.80
711.95	261.56
712.28	261.12
712.61	260.79
712.95	260.71
713.28	260.53
713.61	260.03
713.95	259.51
714.28	259.26
714.61	258.94
714.95	258.60
715.28	258.24
715.61	257.92
715.95	257.66
716.28	257.22
716.61	256.96
716.95	256.53
717.28	256.24
717.61	255.84
717.94	255.60
718.28	254.93
718.61	254.60
718.94	254.32
719.27	254.12
719.61	253.94
719.94	253.52
720.27	252.99
720.60	252.72
720.94	252.44
721.27	252.12
721.60	251.94
721.93	251.65
722.27	251.61
722.60	251.48
722.93	251.19
723.26	251.05
723.59	250.87
723.93	250.79
724.26	250.60
724.59	250.50
724.92	250.34
725.25	250.33
725.59	250.10
725.92	249.99
726.25	249.79
726.58	249.55
726.91	249.38
727.24	249.25
727.57	249.06
727.91	248.90
728.24	248.81
728.57	248.56
728.90	248.52
729.23	248.22
729.56	248.27
729.89	248.07
730.22	247.87
730.55	247.67
730.89	247.54
731.22	247.34
731.55	247.06
731.88	246.84
732.21	246.60
732.54	246.40
732.87	246.18
733.20	246.09
733.53	246.00
733.86	245.91
734.19	245.69
734.52	245.60
734.85	245.73
735.18	245.46
735.51	245.54
735.84	245.39
736.17	245.36
736.50	245.00
736.83	245.40
737.16	245.29
737.49	245.19
737.82	244.98
738.15	244.97
738.48	244.87
738.81	244.77
739.14	244.56
739.47	244.46
739.80	244.30
740.13	244.16
740.46	243.90
740.79	243.68
741.12	243.56
741.45	243.36
741.78	243.03
742.11	243.06
742.44	242.70
742.77	242.61
743.10	242.45
743.43	242.28
743.75	241.68
744.08	242.17
744.41	242.00
744.74	241.93
745.07	241.66
745.40	241.59
745.73	241.61
746.06	241.55
746.39	241.38
746.71	241.20
747.04	240.99
747.37	240.87
747.70	240.78
748.03	240.72
748.36	240.64
748.68	240.45
749.01	240.16
749.34	240.09
749.67	240.00
750.00	239.92
750.33	240.14
750.65	239.99
750.98	239.23
751.31	239.08
751.64	238.90
751.97	239.03
752.29	238.88
752.62	238.58
752.95	238.32
753.28	238.17
753.60	238.09
753.93	238.10
754.26	238.03
754.59	237.76
754.91	237.51
755.24	237.42
755.57	237.39
755.90	237.30
756.22	237.15
756.55	236.94
756.88	236.77
757.20	236.33
757.53	236.13
757.86	236.05
758.19	235.99
758.51	235.88
758.84	235.56
759.17	235.40
759.49	235.30
759.82	235.51
760.15	235.45
760.47	235.27
760.80	234.99
761.13	234.96
761.45	234.87
761.78	234.84
762.11	234.72
762.43	234.50
762.76	234.34
763.08	234.35
763.41	234.28
763.74	234.23
764.06	234.13
764.39	234.03
764.71	233.92
765.04	233.77
765.37	233.72
765.69	233.61
766.02	233.50
766.34	233.43
766.67	233.16
767.00	233.20
767.32	233.45
767.65	233.67
767.97	233.58
768.30	233.53
768.62	233.42
768.95	233.35
769.27	233.24
769.60	233.28
769.92	233.09
770.25	232.92
770.57	232.78
770.90	232.73
771.22	232.65
771.55	232.70
771.87	232.74
772.20	232.59
772.52	233.01
772.85	233.59
773.17	233.50
773.50	233.44
773.82	233.34
774.15	233.06
774.47	232.73
774.80	232.66
775.12	232.66
775.45	232.67
775.77	232.61
776.09	232.66
776.42	232.64
776.74	232.80
777.07	232.77
777.39	232.72
777.72	232.69
778.04	232.75
778.36	232.57
778.69	232.48
779.01	232.48
779.33	232.01
779.66	231.45
779.98	231.47
780.31	231.43
780.63	231.56
780.95	231.57
781.28	231.55
781.60	231.42
781.92	231.36
782.25	231.32
782.57	231.24
782.89	231.22
783.22	231.10
783.54	230.89
783.86	230.92
784.19	230.86
784.51	231.00
784.83	230.84
785.16	230.78
785.48	230.76
785.80	230.74
786.12	230.66
786.45	230.60
786.77	230.45
787.09	230.44
787.42	230.20
787.74	230.14
788.06	230.18
788.38	230.05
788.71	230.00
789.03	230.02
789.35	230.04
789.67	229.86
789.99	229.85
790.32	229.76
790.64	229.72
790.96	230.03
791.28	229.77
791.61	229.78
791.93	229.79
792.25	229.68
792.57	230.00
792.89	229.96
793.21	229.92
793.54	229.94
793.86	229.78
794.18	229.77
794.50	229.70
794.82	229.65
795.14	229.72
795.47	229.78
795.79	229.69
796.11	229.56
796.43	229.58
796.75	229.62
797.07	229.64
797.39	229.62
797.71	229.26
798.04	229.26
798.36	229.24
798.68	229.18
799.00	229.25
799.32	228.95
799.64	229.02
799.96	229.02
800.28	229.06
800.60	229.12
800.92	229.14
801.24	229.11
801.56	229.15
801.89	229.12
802.21	229.10
802.53	229.05
802.85	229.15
803.17	229.35
803.49	229.21
803.81	229.17
804.13	229.06
804.45	229.03
804.77	229.13
805.09	229.06
805.41	229.05
805.73	228.97
806.05	228.93
806.37	228.85
806.69	228.83
807.01	228.85
807.33	228.84
807.65	228.72
807.97	228.90
808.28	228.83
808.60	228.76
808.92	228.74
809.24	229.00
809.56	228.93
809.88	228.70
810.20	228.70
810.52	228.80
810.84	228.80
811.16	228.77
811.48	228.71
811.80	228.92
812.12	228.85
812.43	228.92
812.75	228.87
813.07	228.83
813.39	228.87
813.71	228.75
814.03	228.69
814.35	228.69
814.67	228.49
814.98	228.40
815.30	228.39
815.62	228.19
815.94	227.91
816.26	228.17
816.58	228.11
816.89	228.15
817.21	228.01
817.53	228.06
817.85	228.03
818.17	227.97
818.48	227.76
818.80	227.91
819.12	227.84
819.44	227.69
819.76	227.54
820.07	227.46
820.39	227.50
820.71	227.50
821.03	227.42
821.34	227.43
821.66	227.49
821.98	227.64
822.30	227.74
822.61	227.93
822.93	227.60
823.25	227.60
823.57	227.55
823.88	227.66
824.20	227.67
824.52	227.77
824.83	227.74
825.15	227.75
825.47	227.68
825.79	227.69
826.10	227.70
826.42	227.80
826.74	227.82
827.05	227.84
827.37	227.88
827.69	227.91
828.00	227.97
828.32	227.98
828.64	227.91
828.95	228.10
829.27	227.97
829.58	227.95
829.90	228.08
830.22	228.10
830.53	227.91
830.85	227.80
831.17	227.65
831.48	227.63
831.80	227.64
832.11	227.58
832.43	227.52
832.75	227.64
833.06	227.84
833.38	227.64
833.69	227.47
834.01	227.49
834.32	227.53
834.64	227.43
834.96	227.38
835.27	227.30
835.59	227.16
835.90	227.10
836.22	227.10
836.53	226.90
836.85	226.80
837.16	227.32
837.48	227.29
837.79	227.39
838.11	227.38
838.42	227.29
838.74	227.35
839.05	227.30
839.37	227.25
839.68	226.99
840.00	227.06
840.31	227.22
840.63	227.13
840.94	226.99
841.26	227.00
841.57	226.99
841.88	226.99
842.20	226.95
842.51	226.85
842.83	226.88
843.14	227.34
843.46	227.41
843.77	227.12
844.08	227.15
844.40	227.01
844.71	227.02
845.03	227.03
845.34	227.01
845.65	226.98
845.97	226.95
846.28	226.97
846.60	226.99
846.91	226.90
847.22	226.93
847.54	227.00
847.85	227.02
848.16	227.03
848.48	226.98
848.79	227.14
849.10	227.24
849.42	227.21
849.73	226.74
850.04	226.75
850.36	226.60
850.67	226.67
850.98	226.70
851.30	226.72
851.61	226.78
851.92	226.75
852.23	226.91
852.55	226.90
852.86	226.90
853.17	226.98
853.49	227.02
853.80	227.09
854.11	227.14
854.42	227.16
854.74	227.03
855.05	227.05
855.36	226.84
855.67	226.89
855.99	226.94
856.30	227.59
856.61	227.56
856.92	227.59
857.23	227.53
857.55	227.51
857.86	227.55
858.17	227.58
858.48	227.50
858.79	227.49
859.11	227.52
859.42	227.54
859.73	227.50
860.04	227.52
860.35	227.38
860.66	227.22
860.98	227.19
861.29	227.35
861.60	227.32
861.91	227.44
862.22	227.43
862.53	227.38
862.84	226.80
863.16	226.91
863.47	226.87
863.78	226.85
864.09	226.90
864.40	226.86
864.71	226.85
865.02	226.96
865.33	226.82
865.64	226.74
865.95	226.69
866.27	226.96
866.58	226.87
866.89	227.00
867.20	227.02
867.51	227.03
867.82	226.92
868.13	227.08
868.44	226.92
868.75	226.96
869.06	226.91
869.37	226.92
869.68	226.76
869.99	226.80
870.30	226.82
870.61	226.89
870.92	226.82
871.23	226.80
871.54	226.77
871.85	226.89
872.16	226.85
872.47	226.88
872.78	226.59
873.09	226.67
873.40	226.51
873.71	226.62
874.02	226.56
874.33	226.55
874.64	226.44
874.95	226.55
875.26	226.40
875.56	226.45
875.87	226.42
876.18	226.41
876.49	226.94
876.80	226.91
877.11	226.76
877.42	226.81
877.73	226.73
878.04	226.69
878.35	226.63
878.66	226.72
878.96	226.66
879.27	226.59
879.58	226.50
879.89	226.50
880.20	226.47
880.51	226.40
880.82	226.41
881.12	226.37
881.43	226.26
881.74	226.17
882.05	226.17
882.36	226.19
882.67	226.15
882.97	225.59
883.28	225.54
883.59	225.54
883.90	225.62
884.21	225.75
884.51	225.73
884.82	225.72
885.13	225.79
885.44	225.83
885.74	225.85
886.05	225.93
886.36	225.95
886.67	225.93
886.98	226.22
887.28	226.28
887.59	226.30
887.90	226.32
888.20	226.33
888.51	226.42
888.82	226.35
889.13	226.48
889.43	226.88
889.74	226.83
890.05	226.90
890.35	226.79
890.66	226.70
890.97	226.72
891.28	226.72
891.58	226.65
891.89	226.58
892.20	226.59
892.50	226.53
892.81	226.57
893.12	226.47
893.42	226.25
893.73	226.25
894.04	226.26
894.34	226.36
894.65	226.40
894.95	226.26
895.26	226.29
895.57	226.48
895.87	226.02
896.18	226.14
896.48	226.17
896.79	226.19
897.10	226.18
897.40	226.19
897.71	226.23
898.01	226.18
898.32	226.30
898.63	226.32
898.93	226.31
899.24	226.27
899.54	226.33
899.85	226.29
900.15	226.26
900.46	226.26
900.76	226.25
901.07	226.21
901.38	226.26
901.68	226.39
901.99	226.12
902.29	226.17
902.60	226.15
902.90	226.04
903.21	226.07
903.51	226.10
903.82	226.14
904.12	226.08
904.43	226.14
904.73	226.06
905.03	226.08
905.34	226.62
905.64	226.60
905.95	226.59
906.25	226.55
906.56	226.55
906.86	226.57
907.17	226.48
907.47	226.52
907.77	226.50
908.08	226.29
908.38	226.28
908.69	226.29
908.99	226.33
909.30	226.36
909.60	226.32
909.90	226.36
910.21	226.24
910.51	226.13
910.81	226.08
911.12	226.10
911.42	226.04
911.73	225.49
912.03	225.46
912.33	225.52
912.64	225.53
912.94	225.50
913.24	225.40
913.55	225.41
913.85	225.31
914.15	225.37
914.46	225.44
914.76	225.34
915.06	225.32
915.37	225.27
915.67	225.19
915.97	225.15
916.27	225.00
916.58	225.05
916.88	225.10
917.18	225.10
917.49	225.37
917.79	225.37
918.09	225.43
918.39	225.60
918.70	225.58
919.00	225.58
919.30	225.74
919.60	225.70
919.91	225.62
920.21	225.73
920.51	225.59
920.81	225.50
921.12	225.62
921.42	225.61
921.72	225.65
922.02	225.72
922.32	225.78
922.63	225.79
922.93	225.99
923.23	225.97
923.53	225.88
923.83	225.63
924.13	225.67
924.44	225.66
924.74	225.68
925.04	225.77
925.34	225.82
925.64	225.63
925.94	225.69
926.24	226.03
926.55	225.98
926.85	226.04
927.15	226.17
927.45	226.16
927.75	226.17
928.05	226.10
928.35	226.13
928.65	226.25
928.95	226.32
929.26	226.19
929.56	226.33
929.86	226.40
930.16	226.36
930.46	226.27
930.76	226.35
931.06	226.20
931.36	226.05
931.66	226.14
931.96	226.22
932.26	226.21
932.56	225.97
932.86	226.04
933.16	226.09
933.46	226.05
933.76	226.01
934.06	226.09
934.36	226.33
934.66	226.29
934.96	226.14
935.26	226.19
935.56	226.32
935.86	226.21
936.16	226.16
936.46	226.17
936.76	226.25
937.06	226.14
937.36	226.23
937.66	226.35
937.96	226.26
938.26	226.16
938.56	226.20
938.86	226.19
939.16	226.30
939.46	226.35
939.76	226.35
940.06	226.31
940.35	226.29
940.65	226.12
940.95	226.17
941.25	226.16
941.55	226.07
941.85	225.95
942.15	226.05
942.45	226.21
942.75	226.15
943.04	226.15
943.34	226.23
943.64	226.06
943.94	225.87
944.24	225.85
944.54	225.90
944.84	225.83
945.13	225.80
945.43	225.72
945.73	225.64
946.03	225.62
946.33	225.65
946.62	225.52
946.92	225.48
947.22	225.49
947.52	225.43
947.82	225.52
948.11	225.47
948.41	225.35
948.71	225.20
949.01	225.22
949.31	225.15
949.60	225.12
949.90	225.25
950.20	225.28
950.50	225.29
950.79	225.30
951.09	225.36
951.39	225.36
951.69	225.27
951.98	225.36
952.28	225.33
952.58	225.33
952.87	225.39
953.17	225.39
953.47	225.29
953.76	225.35
954.06	225.20
954.36	225.11
954.66	225.12
954.95	225.21
955.25	225.23
955.55	225.31
955.84	225.19
956.14	225.23
956.44	225.28
956.73	225.17
957.03	225.13
957.32	225.17
957.62	225.13
957.92	225.22
958.21	225.24
958.51	225.80
958.81	225.85
959.10	225.90
959.40	226.01
959.69	226.06
959.99	226.13
960.29	226.16
960.58	226.25
960.88	226.52
961.17	226.54
961.47	226.61
961.76	226.56
962.06	226.67
962.36	226.60
962.65	226.65
962.95	226.73
963.24	226.70
963.54	226.71
963.83	226.74
964.13	226.70
964.42	226.52
964.72	226.11
965.01	226.15
965.31	226.10
965.60	226.02
965.90	226.37
966.19	226.28
966.49	226.37
966.78	226.29
967.08	226.15
967.37	226.16
967.67	226.08
967.96	226.13
968.26	226.12
968.55	226.20
968.85	226.13
969.14	226.12
969.43	226.20
969.73	226.13
970.02	226.13
970.32	226.14
970.61	226.17
970.91	226.09
971.20	226.02
971.49	225.98
971.79	226.10
972.08	225.74
972.38	225.84
972.67	225.75
972.96	225.85
973.26	225.81
973.55	225.94
973.85	225.95
974.14	225.96
974.43	226.05
974.73	225.96
975.02	226.03
975.31	226.06
975.61	225.99
975.90	226.03
976.19	226.00
976.49	226.11
976.78	226.15
977.07	226.22
977.37	226.23
977.66	226.32
977.95	226.21
978.24	226.20
978.54	226.29
978.83	226.34
979.12	226.33
979.42	226.31
979.71	226.26
980.00	226.26
980.29	226.28
980.59	226.14
980.88	226.27
981.17	226.27
981.46	226.29
981.76	226.34
982.05	226.48
982.34	226.52
982.63	226.54
982.93	226.55
983.22	226.60
983.51	226.62
983.80	226.69
984.09	226.76
984.39	226.76
984.68	226.63
984.97	226.66
985.26	226.69
985.55	226.77
985.85	226.63
986.14	226.73
986.43	226.82
986.72	226.81
987.01	226.68
987.30	226.62
987.59	226.59
987.89	226.63
988.18	226.46
988.47	226.43
988.76	226.32
989.05	226.26
989.34	226.17
989.63	226.32
989.92	226.19
990.22	226.13
990.51	226.14
990.80	226.13
991.09	226.14
991.38	226.10
991.67	226.03
991.96	226.02
992.25	225.95
992.54	225.81
992.83	225.87
993.12	225.86
993.41	225.97
993.70	226.09
993.99	226.19
994.28	226.27
994.58	226.33
994.87	226.25
995.16	226.22
995.45	226.14
995.74	225.89
996.03	225.97
996.32	226.04
996.61	226.10
996.90	225.98
997.19	225.89
997.48	225.94
997.77	225.83
998.06	225.86
998.34	225.81
998.63	225.85
998.92	225.78
999.21	225.82
999.50	225.80
999.79	225.62
1000.08	225.62
1000.37	225.57
1000.66	225.47
1000.95	225.60
1001.24	225.65
1001.53	225.75
1001.82	225.77
1002.11	225.62
1002.40	225.59
1002.68	225.79
1002.97	226.18
1003.26	226.14
1003.55	225.99
1003.84	226.05
1004.13	226.18
1004.42	226.10
1004.71	226.05
1004.99	226.00
1005.28	226.08
1005.57	226.03
1005.86	226.00
1006.15	225.91
1006.44	225.84
1006.72	225.90
1007.01	225.90
1007.30	225.88
1007.59	225.88
1007.88	225.86
1008.17	225.88
1008.45	225.78
1008.74	225.52
1009.03	225.32
1009.32	225.35
1009.60	225.37
1009.89	225.32
1010.18	225.12
1010.47	225.17
1010.76	225.13
1011.04	225.18
1011.33	225.13
1011.62	225.20
1011.91	225.31
1012.19	225.35
1012.48	225.35
1012.77	225.34
1013.05	225.48
1013.34	225.57
1013.63	225.50
1013.92	225.54
1014.20	225.55
1014.49	225.65
1014.78	225.65
1015.06	225.49
1015.35	225.56
1015.64	225.67
1015.92	225.79
1016.21	225.86
1016.50	225.87
1016.78	225.93
1017.07	226.01
1017.36	225.97
1017.64	225.92
1017.93	225.94
1018.22	225.86
1018.50	225.85
1018.79	225.91
1019.08	225.70
1019.36	225.72
1019.65	225.70
1019.93	225.84
1020.22	226.01
1020.51	226.24
1020.79	226.25
1021.08	224.85
1021.36	224.30
1021.65	226.85
1021.94	225.15
1022.22	227.35
1022.51	224.90
1022.79	227.95
1023.08	228.00
1023.36	231.75
1023.65	225.35
>>>>>End Processed Spectral Data<<<<<
