SpectraSuite Data File
++++++++++++++++++++++++++++++++++++
Date: Wed Sep 04 17:47:21 EDT 2013
User: lab3
Dark Spectrum Present: Yes
Reference Spectrum Present: No
Number of Sampled Component Spectra: 1
Spectrometers: USB2E7196
Integration Time (usec): 170000 (USB2E7196)
Spectra Averaged: 20 (USB2E7196)
Boxcar Smoothing: 10 (USB2E7196)
Correct for Electrical Dark: No (USB2E7196)
Strobe/Lamp Enabled: No (USB2E7196)
Correct for Detector Non-linearity: No (USB2E7196)
Correct for Stray Light: No (USB2E7196)
Number of Pixels in Processed Spectrum: 2048
>>>>>Begin Processed Spectral Data<<<<<
339.09	0.00
339.48	213.05
339.86	213.80
340.24	215.90
340.63	216.55
341.01	225.95
341.39	220.30
341.78	219.75
342.16	224.25
342.54	223.25
342.93	211.87
343.31	222.57
343.69	223.08
344.07	223.58
344.46	224.04
344.84	224.47
345.22	224.41
345.60	224.69
345.99	225.00
346.37	225.02
346.75	225.16
347.13	225.22
347.52	225.30
347.90	225.51
348.28	225.55
348.66	225.69
349.05	225.58
349.43	225.72
349.81	225.86
350.19	225.86
350.57	225.93
350.96	226.09
351.34	226.21
351.72	226.34
352.10	226.40
352.48	226.45
352.87	226.44
353.25	226.48
353.63	226.52
354.01	226.55
354.39	226.72
354.77	226.74
355.15	226.98
355.54	226.96
355.92	226.84
356.30	226.86
356.68	227.23
357.06	227.31
357.44	227.26
357.82	227.19
358.20	227.70
358.58	227.74
358.97	227.75
359.35	227.85
359.73	228.03
360.11	228.13
360.49	228.16
360.87	228.29
361.25	228.38
361.63	228.54
362.01	228.59
362.39	228.55
362.77	228.62
363.15	228.60
363.53	228.66
363.91	228.81
364.29	228.86
364.67	228.41
365.05	228.49
365.43	228.69
365.81	228.84
366.19	228.73
366.57	228.90
366.95	228.97
367.33	228.90
367.71	228.86
368.09	228.97
368.47	229.00
368.85	228.97
369.23	229.09
369.61	228.96
369.99	229.13
370.37	229.19
370.75	229.35
371.13	229.32
371.51	229.27
371.89	229.27
372.27	229.30
372.65	229.29
373.03	229.22
373.41	229.07
373.78	229.04
374.16	228.77
374.54	228.61
374.92	228.51
375.30	228.49
375.68	228.35
376.06	228.20
376.44	228.17
376.82	228.15
377.19	228.06
377.57	227.97
377.95	227.76
378.33	227.63
378.71	227.39
379.09	227.38
379.47	227.41
379.84	227.26
380.22	227.21
380.60	227.12
380.98	227.11
381.36	227.10
381.73	226.98
382.11	226.95
382.49	226.91
382.87	226.81
383.25	226.71
383.62	227.21
384.00	227.15
384.38	227.11
384.76	227.19
385.13	227.34
385.51	227.34
385.89	227.24
386.27	227.25
386.64	227.37
387.02	227.30
387.40	227.23
387.78	227.26
388.15	227.25
388.53	227.29
388.91	227.26
389.29	227.15
389.66	227.25
390.04	227.22
390.42	227.30
390.79	227.36
391.17	227.36
391.55	226.87
391.92	226.90
392.30	226.91
392.68	226.81
393.05	226.77
393.43	226.77
393.81	226.81
394.18	226.76
394.56	226.64
394.94	226.72
395.31	226.65
395.69	226.79
396.06	226.90
396.44	226.90
396.82	226.90
397.19	227.20
397.57	227.13
397.95	227.30
398.32	227.21
398.70	227.29
399.07	227.48
399.45	227.47
399.82	227.56
400.20	227.62
400.58	227.69
400.95	227.56
401.33	227.79
401.70	228.14
402.08	228.31
402.45	228.53
402.83	228.80
403.20	229.04
403.58	229.17
403.95	229.34
404.33	229.59
404.71	229.82
405.08	230.27
405.46	230.54
405.83	230.72
406.21	230.95
406.58	231.22
406.96	231.47
407.33	231.85
407.70	232.15
408.08	232.91
408.45	233.35
408.83	233.98
409.20	234.25
409.58	234.49
409.95	234.95
410.33	235.41
410.70	235.63
411.08	236.21
411.45	236.78
411.82	237.26
412.20	238.05
412.57	239.00
412.95	239.26
413.32	240.05
413.69	240.83
414.07	241.82
414.44	242.75
414.82	243.77
415.19	244.99
415.56	246.19
415.94	247.11
416.31	248.52
416.68	249.78
417.06	251.47
417.43	253.01
417.81	254.69
418.18	256.47
418.55	258.49
418.93	260.44
419.30	262.51
419.67	264.67
420.04	266.81
420.42	269.09
420.79	272.12
421.16	274.89
421.54	277.86
421.91	280.78
422.28	283.82
422.66	286.92
423.03	290.24
423.40	293.48
423.77	296.90
424.15	300.36
424.52	304.06
424.89	308.05
425.26	312.07
425.64	315.78
426.01	319.83
426.38	324.05
426.75	328.57
427.13	333.00
427.50	337.78
427.87	342.45
428.24	347.17
428.61	351.61
428.99	356.85
429.36	362.20
429.73	367.68
430.10	373.19
430.47	378.97
430.85	384.49
431.22	390.60
431.59	397.29
431.96	403.60
432.33	410.47
432.70	417.01
433.08	424.65
433.45	432.01
433.82	439.31
434.19	447.39
434.56	455.30
434.93	462.95
435.30	470.51
435.68	479.17
436.05	487.58
436.42	495.85
436.79	503.35
437.16	511.65
437.53	520.26
437.90	528.76
438.27	537.10
438.64	545.90
439.01	554.07
439.38	561.16
439.75	568.03
440.13	575.98
440.50	583.37
440.87	589.33
441.24	595.61
441.61	602.50
441.98	607.51
442.35	613.19
442.72	619.06
443.09	624.79
443.46	628.05
443.83	630.27
444.20	632.16
444.57	634.79
444.94	635.93
445.31	637.07
445.68	638.47
446.05	638.73
446.42	637.47
446.79	636.16
447.16	634.71
447.53	633.65
447.90	630.04
448.27	626.48
448.64	621.75
449.01	618.08
449.37	612.09
449.74	606.32
450.11	599.66
450.48	592.05
450.85	584.26
451.22	577.63
451.59	571.16
451.96	565.10
452.33	557.20
452.70	549.87
453.07	541.27
453.43	532.35
453.80	524.13
454.17	516.17
454.54	508.52
454.91	500.34
455.28	492.34
455.65	485.02
456.02	478.47
456.38	472.28
456.75	464.79
457.12	458.37
457.49	452.10
457.86	445.82
458.23	440.78
458.59	435.16
458.96	429.42
459.33	424.34
459.70	419.22
460.07	415.23
460.43	410.62
460.80	406.37
461.17	402.65
461.54	398.66
461.91	394.99
462.27	391.15
462.64	388.02
463.01	384.45
463.38	381.17
463.74	377.12
464.11	374.10
464.48	371.47
464.85	368.69
465.21	366.52
465.58	364.29
465.95	361.45
466.32	359.25
466.68	357.02
467.05	354.81
467.42	352.64
467.78	350.31
468.15	348.16
468.52	346.68
468.88	344.41
469.25	342.42
469.62	340.96
469.98	339.38
470.35	337.80
470.72	336.37
471.08	334.67
471.45	333.44
471.82	332.15
472.18	330.70
472.55	329.69
472.92	328.45
473.28	327.23
473.65	326.20
474.02	325.08
474.38	324.30
474.75	323.60
475.11	322.66
475.48	322.08
475.85	321.51
476.21	320.75
476.58	320.30
476.94	319.98
477.31	319.51
477.67	319.10
478.04	318.77
478.41	318.61
478.77	318.87
479.14	318.56
479.50	318.44
479.87	318.44
480.23	318.33
480.60	318.23
480.96	318.28
481.33	318.66
481.69	318.86
482.06	318.99
482.42	319.20
482.79	319.55
483.15	319.92
483.52	320.57
483.88	321.08
484.25	321.58
484.61	322.25
484.98	322.85
485.34	323.82
485.71	324.84
486.07	325.81
486.44	326.39
486.80	327.47
487.17	328.65
487.53	330.10
487.90	331.63
488.26	333.29
488.62	335.01
488.99	336.46
489.35	338.19
489.72	340.10
490.08	342.19
490.44	344.27
490.81	346.48
491.17	348.69
491.54	351.23
491.90	353.76
492.26	356.38
492.63	359.32
492.99	362.15
493.36	365.27
493.72	368.70
494.08	372.20
494.45	375.87
494.81	379.71
495.17	383.52
495.54	387.53
495.90	391.71
496.26	396.12
496.63	400.73
496.99	405.51
497.35	410.50
497.72	415.60
498.08	421.11
498.44	426.81
498.80	432.72
499.17	438.70
499.53	444.98
499.89	451.54
500.26	458.15
500.62	465.04
500.98	472.30
501.34	479.60
501.71	487.32
502.07	494.95
502.43	503.00
502.79	511.37
503.16	520.03
503.52	529.05
503.88	538.29
504.24	547.82
504.60	557.78
504.97	567.98
505.33	578.36
505.69	589.40
506.05	600.20
506.41	611.32
506.78	622.78
507.14	634.74
507.50	646.94
507.86	659.48
508.22	672.32
508.59	685.28
508.95	698.91
509.31	712.78
509.67	727.12
510.03	741.23
510.39	755.73
510.75	770.50
511.12	785.32
511.48	800.55
511.84	816.21
512.20	831.91
512.56	848.16
512.92	864.86
513.28	881.31
513.64	898.65
514.00	916.00
514.37	933.45
514.73	951.23
515.09	969.10
515.45	987.16
515.81	1005.24
516.17	1023.79
516.53	1042.06
516.89	1060.47
517.25	1079.62
517.61	1099.53
517.97	1119.40
518.33	1139.45
518.69	1159.61
519.05	1180.06
519.41	1200.39
519.77	1221.42
520.13	1241.87
520.49	1262.01
520.85	1284.10
521.21	1304.97
521.57	1326.13
521.93	1346.66
522.29	1367.75
522.65	1388.34
523.01	1409.11
523.37	1429.70
523.73	1450.55
524.09	1471.01
524.45	1491.53
524.81	1512.01
525.17	1532.67
525.53	1553.15
525.89	1573.75
526.25	1594.19
526.61	1613.92
526.97	1634.58
527.33	1655.09
527.68	1676.65
528.04	1697.66
528.40	1716.83
528.76	1737.27
529.12	1757.26
529.48	1777.99
529.84	1797.76
530.20	1818.55
530.56	1838.83
530.91	1859.61
531.27	1879.51
531.63	1899.41
531.99	1919.71
532.35	1939.44
532.71	1959.35
533.07	1979.14
533.42	1998.61
533.78	2017.85
534.14	2037.48
534.50	2056.01
534.86	2074.96
535.21	2091.70
535.57	2109.64
535.93	2127.22
536.29	2144.57
536.65	2162.54
537.00	2179.51
537.36	2196.62
537.72	2212.85
538.08	2229.34
538.44	2245.28
538.79	2261.03
539.15	2277.26
539.51	2292.80
539.87	2307.33
540.22	2320.15
540.58	2334.43
540.94	2347.08
541.29	2359.40
541.65	2371.74
542.01	2384.10
542.37	2394.08
542.72	2404.51
543.08	2414.66
543.44	2425.47
543.79	2435.11
544.15	2444.40
544.51	2453.83
544.87	2462.58
545.22	2470.62
545.58	2478.52
545.94	2485.44
546.29	2492.08
546.65	2497.99
547.01	2503.32
547.36	2508.79
547.72	2514.35
548.07	2518.06
548.43	2523.06
548.79	2527.80
549.14	2531.43
549.50	2535.01
549.86	2539.14
550.21	2542.93
550.57	2546.32
550.92	2547.70
551.28	2548.77
551.64	2550.77
551.99	2552.52
552.35	2553.71
552.70	2555.63
553.06	2557.08
553.41	2558.04
553.77	2559.09
554.13	2560.35
554.48	2561.49
554.84	2562.22
555.19	2563.16
555.55	2564.65
555.90	2563.71
556.26	2562.64
556.61	2561.06
556.97	2558.19
557.32	2557.07
557.68	2555.79
558.03	2554.22
558.39	2552.27
558.74	2551.23
559.10	2547.58
559.45	2543.72
559.81	2539.53
560.16	2534.04
560.52	2528.50
560.87	2524.01
561.23	2518.26
561.58	2512.25
561.94	2505.32
562.29	2498.35
562.64	2491.30
563.00	2482.88
563.35	2476.29
563.71	2469.67
564.06	2463.31
564.42	2457.02
564.77	2449.82
565.12	2442.23
565.48	2434.14
565.83	2426.48
566.19	2418.18
566.54	2410.24
566.89	2402.55
567.25	2395.20
567.60	2388.24
567.96	2381.02
568.31	2373.03
568.66	2365.02
569.02	2356.20
569.37	2348.01
569.72	2340.36
570.08	2331.23
570.43	2321.88
570.78	2312.73
571.14	2303.46
571.49	2293.00
571.84	2283.80
572.20	2273.41
572.55	2263.52
572.90	2253.07
573.26	2242.73
573.61	2231.77
573.96	2220.69
574.31	2208.65
574.67	2196.66
575.02	2183.96
575.37	2171.35
575.72	2158.25
576.08	2146.20
576.43	2133.84
576.78	2120.99
577.13	2107.40
577.49	2094.93
577.84	2083.10
578.19	2070.96
578.54	2058.44
578.90	2047.09
579.25	2034.74
579.60	2022.36
579.95	2009.62
580.30	1996.54
580.66	1983.40
581.01	1970.24
581.36	1956.76
581.71	1944.36
582.06	1931.66
582.42	1919.68
582.77	1907.08
583.12	1895.46
583.47	1883.34
583.82	1871.37
584.17	1859.56
584.53	1847.97
584.88	1835.05
585.23	1822.17
585.58	1808.50
585.93	1795.39
586.28	1782.29
586.63	1768.84
586.98	1755.23
587.34	1742.05
587.69	1729.24
588.04	1716.98
588.39	1705.23
588.74	1693.37
589.09	1681.96
589.44	1669.66
589.79	1657.40
590.14	1645.83
590.49	1633.83
590.84	1621.88
591.19	1610.03
591.54	1597.83
591.89	1585.77
592.25	1576.08
592.60	1565.03
592.95	1553.93
593.30	1542.26
593.65	1530.50
594.00	1518.69
594.35	1508.82
594.70	1497.30
595.05	1486.15
595.40	1474.45
595.75	1462.84
596.10	1451.94
596.45	1440.17
596.80	1429.55
597.15	1418.57
597.50	1407.23
597.85	1396.15
598.19	1384.77
598.54	1373.65
598.89	1362.86
599.24	1352.52
599.59	1341.09
599.94	1330.45
600.29	1320.42
600.64	1310.58
600.99	1299.96
601.34	1290.59
601.69	1279.54
602.04	1270.10
602.39	1260.73
602.74	1251.75
603.08	1242.50
603.43	1233.39
603.78	1224.12
604.13	1214.75
604.48	1205.33
604.83	1195.86
605.18	1186.28
605.53	1177.03
605.87	1168.26
606.22	1159.95
606.57	1151.10
606.92	1141.78
607.27	1133.20
607.62	1124.60
607.96	1116.19
608.31	1108.65
608.66	1100.40
609.01	1092.13
609.36	1083.80
609.70	1075.44
610.05	1067.01
610.40	1058.98
610.75	1050.55
611.10	1042.50
611.44	1034.15
611.79	1026.38
612.14	1018.72
612.49	1011.18
612.83	1003.96
613.18	996.29
613.53	988.66
613.88	980.94
614.22	973.64
614.57	965.65
614.92	957.99
615.27	950.69
615.61	943.25
615.96	935.90
616.31	928.34
616.65	921.28
617.00	914.00
617.35	907.15
617.70	900.05
618.04	893.09
618.39	886.35
618.74	880.33
619.08	873.48
619.43	866.56
619.78	859.60
620.12	852.69
620.47	845.87
620.82	838.75
621.16	832.20
621.51	825.90
621.85	819.93
622.20	813.55
622.55	806.94
622.89	800.72
623.24	794.72
623.59	788.84
623.93	782.91
624.28	777.09
624.62	771.64
624.97	765.99
625.32	760.42
625.66	754.47
626.01	748.28
626.35	742.84
626.70	737.47
627.04	732.37
627.39	727.01
627.73	721.97
628.08	717.15
628.43	711.79
628.77	706.52
629.12	701.28
629.46	696.72
629.81	692.20
630.15	687.45
630.50	682.39
630.84	677.53
631.19	672.74
631.53	668.25
631.88	662.91
632.22	658.19
632.57	653.77
632.91	649.40
633.26	645.28
633.60	640.93
633.95	636.50
634.29	631.95
634.64	627.48
634.98	622.73
635.32	618.45
635.67	614.51
636.01	610.45
636.36	606.33
636.70	602.18
637.05	598.02
637.39	593.98
637.73	590.11
638.08	586.42
638.42	582.43
638.77	578.16
639.11	574.15
639.45	569.94
639.80	565.67
640.14	561.70
640.49	557.53
640.83	553.75
641.17	550.22
641.52	546.52
641.86	543.19
642.20	540.24
642.55	536.66
642.89	533.26
643.23	529.89
643.58	526.85
643.92	523.21
644.26	519.90
644.61	516.80
644.95	513.63
645.29	510.34
645.64	507.34
645.98	504.38
646.32	501.58
646.66	498.62
647.01	495.68
647.35	492.92
647.69	490.27
648.04	487.54
648.38	484.76
648.72	482.12
649.06	479.08
649.41	476.02
649.75	473.16
650.09	470.31
650.43	467.44
650.78	464.50
651.12	461.90
651.46	459.26
651.80	456.50
652.14	453.90
652.49	451.37
652.83	448.78
653.17	446.27
653.51	443.57
653.85	441.28
654.20	438.95
654.54	436.51
654.88	433.92
655.22	431.66
655.56	429.25
655.90	426.89
656.25	424.76
656.59	422.64
656.93	420.67
657.27	418.65
657.61	416.39
657.95	414.21
658.29	412.10
658.64	409.91
658.98	407.71
659.32	405.41
659.66	403.29
660.00	401.22
660.34	399.30
660.68	397.34
661.02	395.26
661.36	393.30
661.70	391.29
662.05	389.42
662.39	387.43
662.73	385.73
663.07	384.24
663.41	382.48
663.75	380.59
664.09	378.67
664.43	376.74
664.77	375.11
665.11	373.37
665.45	371.65
665.79	370.18
666.13	368.63
666.47	367.07
666.81	365.49
667.15	363.83
667.49	362.32
667.83	361.03
668.17	359.65
668.51	358.19
668.85	356.87
669.19	355.75
669.53	354.26
669.87	352.72
670.21	351.07
670.55	349.60
670.89	348.41
671.23	347.12
671.57	345.84
671.91	344.49
672.25	343.23
672.58	342.13
672.92	340.74
673.26	339.51
673.60	338.30
673.94	337.13
674.28	336.08
674.62	334.92
674.96	333.65
675.30	332.43
675.64	331.27
675.97	330.09
676.31	328.70
676.65	327.53
676.99	326.59
677.33	325.55
677.67	324.50
678.01	323.21
678.34	322.19
678.68	321.23
679.02	320.27
679.36	319.36
679.70	318.27
680.04	317.27
680.37	316.25
680.71	315.32
681.05	314.39
681.39	313.50
681.73	312.65
682.06	311.71
682.40	310.82
682.74	310.03
683.08	309.40
683.42	308.56
683.75	307.89
684.09	306.95
684.43	306.08
684.77	305.33
685.10	304.59
685.44	303.74
685.78	302.86
686.12	301.99
686.45	301.23
686.79	300.43
687.13	299.74
687.46	299.03
687.80	298.43
688.14	297.67
688.48	296.87
688.81	296.00
689.15	295.38
689.49	294.60
689.82	293.93
690.16	292.92
690.50	292.28
690.83	291.50
691.17	290.73
691.51	290.13
691.84	289.44
692.18	288.75
692.52	288.11
692.85	287.60
693.19	287.24
693.52	286.59
693.86	285.95
694.20	285.33
694.53	284.79
694.87	284.05
695.21	283.43
695.54	282.83
695.88	282.26
696.21	281.46
696.55	281.00
696.88	280.40
697.22	279.81
697.56	279.31
697.89	278.83
698.23	278.42
698.56	277.80
698.90	277.29
699.23	276.77
699.57	276.30
699.90	275.61
700.24	274.98
700.58	274.46
700.91	274.05
701.25	273.90
701.58	273.74
701.92	273.40
702.25	272.95
702.59	272.44
702.92	272.01
703.26	271.83
703.59	271.40
703.93	271.37
704.26	271.07
704.60	270.55
704.93	270.02
705.26	269.44
705.60	269.22
705.93	268.73
706.27	268.48
706.60	268.17
706.94	268.04
707.27	267.62
707.61	267.31
707.94	267.00
708.27	266.27
708.61	265.48
708.94	265.06
709.28	264.73
709.61	264.34
709.94	264.00
710.28	263.46
710.61	263.11
710.95	262.34
711.28	262.24
711.61	261.87
711.95	261.60
712.28	261.23
712.61	260.80
712.95	260.70
713.28	260.57
713.61	260.14
713.95	259.69
714.28	259.44
714.61	259.03
714.95	258.63
715.28	258.27
715.61	257.94
715.95	257.58
716.28	257.22
716.61	257.05
716.95	256.70
717.28	256.39
717.61	256.05
717.94	255.75
718.28	255.16
718.61	254.93
718.94	254.64
719.27	254.40
719.61	254.13
719.94	253.80
720.27	253.33
720.60	253.10
720.94	252.83
721.27	252.46
721.60	252.32
721.93	252.04
722.27	252.00
722.60	251.84
722.93	251.69
723.26	251.51
723.59	251.21
723.93	251.07
724.26	250.92
724.59	250.63
724.92	250.49
725.25	250.47
725.59	250.23
725.92	250.16
726.25	250.03
726.58	249.88
726.91	249.62
727.24	249.35
727.57	249.13
727.91	248.77
728.24	248.70
728.57	248.51
728.90	248.33
729.23	247.91
729.56	247.92
729.89	247.68
730.22	247.50
730.55	247.24
730.89	247.03
731.22	246.86
731.55	246.71
731.88	246.50
732.21	246.24
732.54	246.06
732.87	245.78
733.20	245.63
733.53	245.39
733.86	245.32
734.19	245.18
734.52	245.16
734.85	245.33
735.18	245.10
735.51	245.01
735.84	244.95
736.17	244.95
736.50	244.61
736.83	245.06
737.16	244.80
737.49	244.73
737.82	244.57
738.15	244.45
738.48	244.32
738.81	244.10
739.14	243.86
739.47	243.68
739.80	243.56
740.13	243.44
740.46	243.30
740.79	243.13
741.12	242.92
741.45	242.61
741.78	242.27
742.11	242.25
742.44	241.97
742.77	241.95
743.10	241.74
743.43	241.55
743.75	240.86
744.08	241.43
744.41	241.29
744.74	241.17
745.07	240.91
745.40	240.90
745.73	241.07
746.06	240.96
746.39	240.87
746.71	240.72
747.04	240.49
747.37	240.31
747.70	240.19
748.03	240.07
748.36	239.99
748.68	239.84
749.01	239.65
749.34	239.53
749.67	239.33
750.00	239.31
750.33	239.55
750.65	239.44
750.98	238.74
751.31	238.61
751.64	238.46
751.97	238.60
752.29	238.41
752.62	237.97
752.95	237.86
753.28	237.65
753.60	237.60
753.93	237.66
754.26	237.64
754.59	237.45
754.91	237.30
755.24	237.19
755.57	237.12
755.90	237.02
756.22	236.89
756.55	236.75
756.88	236.63
757.20	236.15
757.53	235.97
757.86	235.85
758.19	235.82
758.51	235.74
758.84	235.43
759.17	235.31
759.49	235.27
759.82	235.35
760.15	235.37
760.47	235.19
760.80	234.95
761.13	234.95
761.45	234.79
761.78	234.77
762.11	234.76
762.43	234.69
762.76	234.56
763.08	234.53
763.41	234.50
763.74	234.35
764.06	234.34
764.39	234.30
764.71	234.24
765.04	234.03
765.37	233.96
765.69	233.90
766.02	233.83
766.34	233.78
766.67	233.52
767.00	233.55
767.32	233.77
767.65	234.01
767.97	233.86
768.30	233.87
768.62	233.80
768.95	233.72
769.27	233.61
769.60	233.62
769.92	233.53
770.25	233.32
770.57	233.23
770.90	233.10
771.22	232.91
771.55	232.81
771.87	232.83
772.20	232.75
772.52	233.09
772.85	233.58
773.17	233.50
773.50	233.39
773.82	233.24
774.15	232.97
774.47	232.61
774.80	232.52
775.12	232.43
775.45	232.40
775.77	232.30
776.09	232.21
776.42	232.22
776.74	232.23
777.07	232.26
777.39	232.24
777.72	232.23
778.04	232.35
778.36	232.33
778.69	232.31
779.01	232.30
779.33	231.84
779.66	231.30
779.98	231.26
780.31	231.28
780.63	231.51
780.95	231.60
781.28	231.55
781.60	231.48
781.92	231.49
782.25	231.41
782.57	231.44
782.89	231.33
783.22	231.19
783.54	231.09
783.86	231.15
784.19	231.03
784.51	231.11
784.83	230.93
785.16	230.83
785.48	230.77
785.80	230.78
786.12	230.82
786.45	230.74
786.77	230.69
787.09	230.63
787.42	230.39
787.74	230.26
788.06	230.23
788.38	230.09
788.71	230.00
789.03	229.97
789.35	229.92
789.67	229.95
789.99	229.90
790.32	229.86
790.64	229.85
790.96	230.23
791.28	230.06
791.61	230.09
791.93	230.08
792.25	230.05
792.57	230.32
792.89	230.20
793.21	230.30
793.54	230.22
793.86	230.22
794.18	230.09
794.50	229.93
794.82	229.88
795.14	229.99
795.47	230.05
795.79	230.10
796.11	229.97
796.43	229.92
796.75	229.92
797.07	229.93
797.39	229.79
797.71	229.49
798.04	229.48
798.36	229.45
798.68	229.49
799.00	229.50
799.32	229.24
799.64	229.30
799.96	229.15
800.28	229.23
800.60	229.19
800.92	229.30
801.24	229.27
801.56	229.36
801.89	229.29
802.21	229.20
802.53	229.07
802.85	229.20
803.17	229.42
803.49	229.28
803.81	229.17
804.13	229.11
804.45	228.99
804.77	229.03
805.09	229.00
805.41	228.88
805.73	228.73
806.05	228.62
806.37	228.61
806.69	228.60
807.01	228.59
807.33	228.58
807.65	228.41
807.97	228.70
808.28	228.56
808.60	228.52
808.92	228.57
809.24	228.85
809.56	228.67
809.88	228.43
810.20	228.45
810.52	228.54
810.84	228.51
811.16	228.43
811.48	228.32
811.80	228.50
812.12	228.58
812.43	228.70
812.75	228.70
813.07	228.58
813.39	228.57
813.71	228.42
814.03	228.35
814.35	228.41
814.67	228.09
814.98	228.06
815.30	228.05
815.62	227.92
815.94	227.56
816.26	227.80
816.58	227.71
816.89	227.81
817.21	227.68
817.53	227.71
817.85	227.76
818.17	227.73
818.48	227.49
818.80	227.54
819.12	227.44
819.44	227.32
819.76	227.33
820.07	227.30
820.39	227.35
820.71	227.35
821.03	227.32
821.34	227.35
821.66	227.39
821.98	227.40
822.30	227.39
822.61	227.79
822.93	227.49
823.25	227.50
823.57	227.39
823.88	227.48
824.20	227.49
824.52	227.50
824.83	227.54
825.15	227.43
825.47	227.31
825.79	227.43
826.10	227.47
826.42	227.45
826.74	227.50
827.05	227.49
827.37	227.54
827.69	227.48
828.00	227.51
828.32	227.45
828.64	227.46
828.95	227.65
829.27	227.46
829.58	227.50
829.90	227.60
830.22	227.61
830.53	227.49
830.85	227.38
831.17	227.29
831.48	227.24
831.80	227.33
832.11	227.35
832.43	227.18
832.75	227.15
833.06	227.39
833.38	227.31
833.69	227.32
834.01	227.33
834.32	227.36
834.64	227.34
834.96	227.38
835.27	227.34
835.59	227.11
835.90	226.97
836.22	226.96
836.53	226.88
836.85	226.87
837.16	227.35
837.48	227.35
837.79	227.56
838.11	227.56
838.42	227.58
838.74	227.63
839.05	227.58
839.37	227.51
839.68	227.20
840.00	227.16
840.31	227.21
840.63	227.15
840.94	227.09
841.26	227.00
841.57	226.96
841.88	227.02
842.20	227.04
842.51	226.98
842.83	226.92
843.14	227.27
843.46	227.20
843.77	226.88
844.08	226.86
844.40	226.62
844.71	226.60
845.03	226.55
845.34	226.44
845.65	226.49
845.97	226.49
846.28	226.57
846.60	226.63
846.91	226.51
847.22	226.48
847.54	226.56
847.85	226.64
848.16	226.66
848.48	226.58
848.79	226.80
849.10	226.93
849.42	226.99
849.73	226.54
850.04	226.52
850.36	226.31
850.67	226.41
850.98	226.36
851.30	226.43
851.61	226.41
851.92	226.44
852.23	226.61
852.55	226.60
852.86	226.61
853.17	226.55
853.49	226.63
853.80	226.78
854.11	226.81
854.42	226.85
854.74	226.84
855.05	226.86
855.36	226.59
855.67	226.52
855.99	226.55
856.30	227.10
856.61	227.10
856.92	227.17
857.23	227.17
857.55	227.20
857.86	227.20
858.17	227.23
858.48	227.17
858.79	227.02
859.11	227.07
859.42	227.01
859.73	226.99
860.04	226.95
860.35	226.77
860.66	226.61
860.98	226.60
861.29	226.61
861.60	226.55
861.91	226.63
862.22	226.63
862.53	226.62
862.84	226.11
863.16	226.27
863.47	226.19
863.78	226.20
864.09	226.28
864.40	226.25
864.71	226.29
865.02	226.35
865.33	226.35
865.64	226.29
865.95	226.31
866.27	226.58
866.58	226.55
866.89	226.64
867.20	226.68
867.51	226.57
867.82	226.51
868.13	226.70
868.44	226.64
868.75	226.73
869.06	226.65
869.37	226.78
869.68	226.70
869.99	226.79
870.30	226.78
870.61	226.79
870.92	226.74
871.23	226.77
871.54	226.79
871.85	226.84
872.16	226.91
872.47	226.85
872.78	226.69
873.09	226.74
873.40	226.62
873.71	226.58
874.02	226.62
874.33	226.62
874.64	226.48
874.95	226.56
875.26	226.43
875.56	226.44
875.87	226.35
876.18	226.28
876.49	226.73
876.80	226.66
877.11	226.54
877.42	226.52
877.73	226.36
878.04	226.32
878.35	226.37
878.66	226.39
878.96	226.36
879.27	226.23
879.58	226.17
879.89	226.20
880.20	226.41
880.51	226.37
880.82	226.34
881.12	226.41
881.43	226.24
881.74	226.14
882.05	226.09
882.36	226.11
882.67	226.18
882.97	225.69
883.28	225.65
883.59	225.67
883.90	225.70
884.21	225.82
884.51	225.75
884.82	225.68
885.13	225.64
885.44	225.59
885.74	225.65
886.05	225.63
886.36	225.65
886.67	225.43
886.98	225.58
887.28	225.63
887.59	225.57
887.90	225.59
888.20	225.64
888.51	225.79
888.82	225.72
889.13	225.74
889.43	226.09
889.74	226.13
890.05	226.10
890.35	226.07
890.66	226.01
890.97	226.02
891.28	225.88
891.58	225.91
891.89	225.93
892.20	225.90
892.50	225.83
892.81	225.82
893.12	225.81
893.42	225.69
893.73	225.68
894.04	225.72
894.34	225.80
894.65	225.75
894.95	225.63
895.26	225.68
895.57	225.90
895.87	225.53
896.18	225.63
896.48	225.68
896.79	225.64
897.10	225.73
897.40	225.68
897.71	225.80
898.01	225.76
898.32	225.84
898.63	225.84
898.93	225.95
899.24	225.92
899.54	225.92
899.85	225.88
900.15	225.87
900.46	225.86
900.76	225.90
901.07	225.92
901.38	225.93
901.68	225.89
901.99	225.67
902.29	225.71
902.60	225.57
902.90	225.49
903.21	225.53
903.51	225.47
903.82	225.68
904.12	225.71
904.43	225.77
904.73	225.70
905.03	225.67
905.34	226.16
905.64	226.16
905.95	226.17
906.25	226.17
906.56	226.17
906.86	226.18
907.17	226.12
907.47	226.18
907.77	226.18
908.08	226.17
908.38	226.17
908.69	226.22
908.99	226.39
909.30	226.50
909.60	226.55
909.90	226.61
910.21	226.45
910.51	226.38
910.81	226.42
911.12	226.53
911.42	226.54
911.73	225.98
912.03	226.07
912.33	226.16
912.64	226.17
912.94	226.11
913.24	226.00
913.55	226.03
913.85	226.00
914.15	226.10
914.46	226.15
914.76	226.12
915.06	226.10
915.37	226.00
915.67	225.98
915.97	225.95
916.27	225.85
916.58	225.88
916.88	225.84
917.18	225.72
917.49	226.02
917.79	226.03
918.09	226.14
918.39	226.20
918.70	226.19
919.00	226.21
919.30	226.50
919.60	226.53
919.91	226.49
920.21	226.45
920.51	226.30
920.81	226.31
921.12	226.41
921.42	226.40
921.72	226.42
922.02	226.45
922.32	226.53
922.63	226.60
922.93	226.80
923.23	226.82
923.53	226.78
923.83	226.43
924.13	226.50
924.44	226.49
924.74	226.61
925.04	226.70
925.34	226.68
925.64	226.42
925.94	226.40
926.24	226.61
926.55	226.63
926.85	226.71
927.15	226.66
927.45	226.63
927.75	226.57
928.05	226.60
928.35	226.57
928.65	226.68
928.95	226.65
929.26	226.48
929.56	226.57
929.86	226.71
930.16	226.73
930.46	226.68
930.76	226.65
931.06	226.37
931.36	226.28
931.66	226.42
931.96	226.49
932.26	226.53
932.56	226.35
932.86	226.37
933.16	226.39
933.46	226.36
933.76	226.32
934.06	226.44
934.36	226.57
934.66	226.54
934.96	226.49
935.26	226.57
935.56	226.60
935.86	226.56
936.16	226.44
936.46	226.44
936.76	226.44
937.06	226.46
937.36	226.48
937.66	226.46
937.96	226.38
938.26	226.25
938.56	226.19
938.86	226.28
939.16	226.37
939.46	226.42
939.76	226.47
940.06	226.46
940.35	226.40
940.65	226.20
940.95	226.25
941.25	226.07
941.55	226.04
941.85	226.10
942.15	226.16
942.45	226.31
942.75	226.26
943.04	226.26
943.34	226.34
943.64	226.31
943.94	226.28
944.24	226.34
944.54	226.43
944.84	226.50
945.13	226.37
945.43	226.23
945.73	226.19
946.03	226.13
946.33	226.08
946.62	225.93
946.92	225.87
947.22	225.92
947.52	225.97
947.82	225.96
948.11	225.89
948.41	225.71
948.71	225.59
949.01	225.67
949.31	225.67
949.60	225.64
949.90	225.75
950.20	225.76
950.50	225.69
950.79	225.63
951.09	225.66
951.39	225.65
951.69	225.69
951.98	225.81
952.28	225.82
952.58	225.87
952.87	225.94
953.17	226.00
953.47	225.92
953.76	225.88
954.06	225.81
954.36	225.74
954.66	225.83
954.95	225.92
955.25	225.91
955.55	225.94
955.84	225.85
956.14	225.87
956.44	225.90
956.73	225.83
957.03	225.90
957.32	225.90
957.62	225.87
957.92	225.94
958.21	225.85
958.51	226.38
958.81	226.39
959.10	226.49
959.40	226.58
959.69	226.62
959.99	226.76
960.29	226.84
960.58	226.77
960.88	226.95
961.17	226.87
961.47	226.92
961.76	226.83
962.06	226.87
962.36	226.83
962.65	226.82
962.95	226.86
963.24	226.79
963.54	226.84
963.83	226.89
964.13	226.90
964.42	226.80
964.72	226.47
965.01	226.47
965.31	226.40
965.60	226.26
965.90	226.56
966.19	226.45
966.49	226.39
966.78	226.44
967.08	226.39
967.37	226.47
967.67	226.43
967.96	226.59
968.26	226.62
968.55	226.62
968.85	226.62
969.14	226.62
969.43	226.62
969.73	226.60
970.02	226.58
970.32	226.49
970.61	226.46
970.91	226.28
971.20	226.19
971.49	226.13
971.79	226.19
972.08	225.84
972.38	225.88
972.67	225.90
972.96	225.91
973.26	225.74
973.55	225.77
973.85	225.70
974.14	225.60
974.43	225.65
974.73	225.56
975.02	225.48
975.31	225.47
975.61	225.48
975.90	225.42
976.19	225.38
976.49	225.40
976.78	225.47
977.07	225.46
977.37	225.55
977.66	225.66
977.95	225.60
978.24	225.66
978.54	225.75
978.83	225.67
979.12	225.69
979.42	225.78
979.71	225.69
980.00	225.73
980.29	225.72
980.59	225.61
980.88	225.75
981.17	225.78
981.46	225.79
981.76	225.81
982.05	225.99
982.34	226.02
982.63	226.07
982.93	226.03
983.22	226.17
983.51	226.12
983.80	226.16
984.09	226.24
984.39	226.17
984.68	226.02
984.97	226.12
985.26	226.10
985.55	226.14
985.85	226.12
986.14	226.14
986.43	226.24
986.72	226.13
987.01	225.94
987.30	225.90
987.59	225.86
987.89	225.88
988.18	225.74
988.47	225.76
988.76	225.75
989.05	225.73
989.34	225.59
989.63	225.74
989.92	225.66
990.22	225.64
990.51	225.65
990.80	225.64
991.09	225.64
991.38	225.75
991.67	225.72
991.96	225.64
992.25	225.61
992.54	225.57
992.83	225.64
993.12	225.70
993.41	225.82
993.70	226.01
993.99	226.10
994.28	226.07
994.58	226.06
994.87	226.02
995.16	226.01
995.45	226.01
995.74	225.82
996.03	225.85
996.32	225.92
996.61	225.96
996.90	226.07
997.19	225.97
997.48	225.90
997.77	225.93
998.06	226.00
998.34	225.98
998.63	225.91
998.92	226.04
999.21	226.15
999.50	226.11
999.79	225.97
1000.08	225.93
1000.37	225.96
1000.66	225.97
1000.95	226.02
1001.24	226.07
1001.53	226.21
1001.82	226.29
1002.11	226.23
1002.40	226.17
1002.68	226.36
1002.97	226.67
1003.26	226.67
1003.55	226.60
1003.84	226.54
1004.13	226.69
1004.42	226.70
1004.71	226.71
1004.99	226.58
1005.28	226.66
1005.57	226.68
1005.86	226.67
1006.15	226.66
1006.44	226.62
1006.72	226.59
1007.01	226.49
1007.30	226.50
1007.59	226.45
1007.88	226.35
1008.17	226.41
1008.45	226.42
1008.74	226.19
1009.03	225.93
1009.32	225.93
1009.60	225.98
1009.89	225.93
1010.18	225.75
1010.47	225.67
1010.76	225.68
1011.04	225.65
1011.33	225.61
1011.62	225.62
1011.91	225.61
1012.19	225.66
1012.48	225.69
1012.77	225.71
1013.05	225.98
1013.34	226.00
1013.63	225.94
1013.92	226.00
1014.20	225.95
1014.49	225.93
1014.78	225.97
1015.06	225.76
1015.35	225.83
1015.64	225.88
1015.92	225.97
1016.21	226.00
1016.50	226.01
1016.78	226.02
1017.07	226.05
1017.36	226.00
1017.64	225.97
1017.93	226.02
1018.22	225.89
1018.50	225.85
1018.79	225.83
1019.08	225.59
1019.36	225.56
1019.65	225.52
1019.93	225.62
1020.22	225.69
1020.51	225.90
1020.79	225.82
1021.08	224.75
1021.36	225.15
1021.65	225.25
1021.94	225.60
1022.22	225.35
1022.51	224.85
1022.79	227.45
1023.08	226.45
1023.36	230.75
1023.65	224.20
>>>>>End Processed Spectral Data<<<<<
