SpectraSuite Data File
++++++++++++++++++++++++++++++++++++
Date: Wed Sep 04 17:49:23 EDT 2013
User: lab3
Dark Spectrum Present: Yes
Reference Spectrum Present: No
Number of Sampled Component Spectra: 1
Spectrometers: USB2E7196
Integration Time (usec): 170000 (USB2E7196)
Spectra Averaged: 20 (USB2E7196)
Boxcar Smoothing: 10 (USB2E7196)
Correct for Electrical Dark: No (USB2E7196)
Strobe/Lamp Enabled: No (USB2E7196)
Correct for Detector Non-linearity: No (USB2E7196)
Correct for Stray Light: No (USB2E7196)
Number of Pixels in Processed Spectrum: 2048
>>>>>Begin Processed Spectral Data<<<<<
339.09	0.00
339.48	212.95
339.86	213.45
340.24	215.90
340.63	216.95
341.01	225.20
341.39	219.20
341.78	222.80
342.16	224.50
342.54	222.90
342.93	211.96
343.31	222.60
343.69	223.18
344.07	223.80
344.46	224.25
344.84	224.63
345.22	224.66
345.60	224.98
345.99	225.15
346.37	225.16
346.75	225.27
347.13	225.37
347.52	225.44
347.90	225.69
348.28	225.71
348.66	225.85
349.05	225.83
349.43	225.95
349.81	226.05
350.19	226.12
350.57	226.20
350.96	226.20
351.34	226.34
351.72	226.41
352.10	226.43
352.48	226.43
352.87	226.46
353.25	226.45
353.63	226.53
354.01	226.58
354.39	226.70
354.77	226.75
355.15	226.87
355.54	226.91
355.92	226.79
356.30	226.81
356.68	227.20
357.06	227.20
357.44	227.16
357.82	227.09
358.20	227.55
358.58	227.54
358.97	227.65
359.35	227.76
359.73	227.96
360.11	227.96
360.49	228.07
360.87	228.14
361.25	228.29
361.63	228.45
362.01	228.45
362.39	228.49
362.77	228.59
363.15	228.62
363.53	228.64
363.91	228.70
364.29	228.77
364.67	228.28
365.05	228.35
365.43	228.47
365.81	228.67
366.19	228.47
366.57	228.68
366.95	228.67
367.33	228.63
367.71	228.56
368.09	228.65
368.47	228.66
368.85	228.65
369.23	228.74
369.61	228.54
369.99	228.77
370.37	228.77
370.75	229.00
371.13	228.95
371.51	228.92
371.89	229.01
372.27	229.01
372.65	229.07
373.03	229.07
373.41	229.04
373.78	228.91
374.16	228.71
374.54	228.58
374.92	228.53
375.30	228.48
375.68	228.32
376.06	228.31
376.44	228.18
376.82	228.21
377.19	228.11
377.57	228.07
377.95	227.74
378.33	227.68
378.71	227.36
379.09	227.30
379.47	227.35
379.84	227.14
380.22	227.04
380.60	226.91
380.98	226.75
381.36	226.65
381.73	226.55
382.11	226.57
382.49	226.55
382.87	226.45
383.25	226.36
383.62	226.87
384.00	226.61
384.38	226.60
384.76	226.59
385.13	226.65
385.51	226.67
385.89	226.64
386.27	226.61
386.64	226.66
387.02	226.60
387.40	226.50
387.78	226.55
388.15	226.56
388.53	226.49
388.91	226.53
389.29	226.44
389.66	226.50
390.04	226.39
390.42	226.48
390.79	226.47
391.17	226.45
391.55	225.93
391.92	226.03
392.30	226.06
392.68	225.97
393.05	225.93
393.43	225.91
393.81	225.97
394.18	225.93
394.56	225.85
394.94	225.95
395.31	225.93
395.69	226.08
396.06	226.11
396.44	226.19
396.82	226.20
397.19	226.49
397.57	226.40
397.95	226.53
398.32	226.39
398.70	226.47
399.07	226.61
399.45	226.68
399.82	226.77
400.20	226.90
400.58	227.03
400.95	226.97
401.33	227.14
401.70	227.59
402.08	227.73
402.45	227.91
402.83	228.13
403.20	228.27
403.58	228.37
403.95	228.66
404.33	228.92
404.71	229.12
405.08	229.55
405.46	229.91
405.83	230.14
406.21	230.42
406.58	230.76
406.96	231.04
407.33	231.39
407.70	231.72
408.08	232.40
408.45	232.82
408.83	233.34
409.20	233.65
409.58	233.83
409.95	234.35
410.33	234.92
410.70	235.30
411.08	235.87
411.45	236.51
411.82	237.04
412.20	237.78
412.57	238.70
412.95	239.04
413.32	239.94
413.69	240.78
414.07	241.62
414.44	242.53
414.82	243.55
415.19	244.79
415.56	246.00
415.94	246.99
416.31	248.48
416.68	249.87
417.06	251.52
417.43	253.09
417.81	254.77
418.18	256.50
418.55	258.47
418.93	260.59
419.30	262.54
419.67	264.79
420.04	266.94
420.42	269.31
420.79	272.40
421.16	275.05
421.54	278.09
421.91	281.11
422.28	284.22
422.66	287.57
423.03	290.96
423.40	294.21
423.77	297.76
424.15	301.22
424.52	304.86
424.89	309.07
425.26	312.94
425.64	316.72
426.01	320.89
426.38	325.25
426.75	329.70
427.13	334.34
427.50	339.04
427.87	344.04
428.24	348.82
428.61	353.31
428.99	358.56
429.36	363.93
429.73	369.46
430.10	374.85
430.47	380.35
430.85	385.80
431.22	391.95
431.59	398.71
431.96	404.82
432.33	411.73
432.70	418.10
433.08	426.00
433.45	433.39
433.82	440.70
434.19	448.78
434.56	456.77
434.93	464.34
435.30	471.92
435.68	480.37
436.05	488.65
436.42	496.79
436.79	504.38
437.16	512.72
437.53	521.35
437.90	530.11
438.27	538.64
438.64	547.63
439.01	555.95
439.38	563.04
439.75	570.27
440.13	578.40
440.50	586.00
440.87	592.01
441.24	598.30
441.61	605.11
441.98	610.12
442.35	615.85
442.72	621.79
443.09	627.77
443.46	631.25
443.83	633.63
444.20	635.64
444.57	638.34
444.94	639.42
445.31	640.61
445.68	641.90
446.05	642.11
446.42	640.76
446.79	639.33
447.16	637.68
447.53	636.32
447.90	632.56
448.27	628.87
448.64	624.06
449.01	620.41
449.37	614.42
449.74	608.44
450.11	601.77
450.48	594.07
450.85	586.08
451.22	579.13
451.59	572.70
451.96	566.44
452.33	558.42
452.70	551.17
453.07	542.51
453.43	533.38
453.80	525.10
454.17	517.10
454.54	509.36
454.91	501.30
455.28	493.48
455.65	485.99
456.02	479.26
456.38	472.93
456.75	465.18
457.12	458.65
457.49	452.38
457.86	446.00
458.23	440.95
458.59	435.22
458.96	429.54
459.33	424.40
459.70	419.40
460.07	415.32
460.43	410.56
460.80	406.36
461.17	402.72
461.54	398.67
461.91	394.96
462.27	391.18
462.64	387.95
463.01	384.30
463.38	381.16
463.74	377.13
464.11	374.12
464.48	371.61
464.85	368.88
465.21	366.83
465.58	364.53
465.95	361.70
466.32	359.49
466.68	357.33
467.05	355.12
467.42	352.94
467.78	350.63
468.15	348.48
468.52	346.77
468.88	344.61
469.25	342.74
469.62	341.20
469.98	339.55
470.35	338.00
470.72	336.60
471.08	334.90
471.45	333.72
471.82	332.48
472.18	331.09
472.55	330.03
472.92	328.69
473.28	327.44
473.65	326.39
474.02	325.35
474.38	324.50
474.75	323.78
475.11	322.84
475.48	322.30
475.85	321.75
476.21	321.14
476.58	320.68
476.94	320.33
477.31	319.85
477.67	319.45
478.04	319.10
478.41	318.98
478.77	319.19
479.14	318.88
479.50	318.77
479.87	318.72
480.23	318.73
480.60	318.65
480.96	318.72
481.33	319.07
481.69	319.22
482.06	319.37
482.42	319.64
482.79	320.05
483.15	320.47
483.52	321.13
483.88	321.68
484.25	322.17
484.61	322.82
484.98	323.56
485.34	324.57
485.71	325.55
486.07	326.47
486.44	327.13
486.80	328.27
487.17	329.44
487.53	330.88
487.90	332.28
488.26	333.99
488.62	335.72
488.99	337.14
489.35	339.05
489.72	340.87
490.08	342.85
490.44	344.84
490.81	347.01
491.17	349.13
491.54	351.54
491.90	354.14
492.26	356.79
492.63	359.56
492.99	362.37
493.36	365.34
493.72	368.57
494.08	372.00
494.45	375.76
494.81	379.70
495.17	383.54
495.54	387.67
495.90	391.95
496.26	396.37
496.63	400.99
496.99	405.66
497.35	410.72
497.72	416.04
498.08	421.38
498.44	427.13
498.80	433.22
499.17	439.14
499.53	445.24
499.89	451.86
500.26	458.59
500.62	465.57
500.98	473.01
501.34	480.46
501.71	488.13
502.07	495.83
502.43	503.78
502.79	512.00
503.16	520.78
503.52	529.72
503.88	538.91
504.24	548.70
504.60	558.56
504.97	568.71
505.33	579.00
505.69	590.20
506.05	601.15
506.41	612.33
506.78	624.01
507.14	636.25
507.50	648.39
507.86	660.92
508.22	673.76
508.59	686.78
508.95	700.38
509.31	714.49
509.67	728.74
510.03	742.87
510.39	757.64
510.75	772.40
511.12	787.62
511.48	803.19
511.84	818.70
512.20	834.54
512.56	850.85
512.92	867.49
513.28	884.04
513.64	901.15
514.00	918.47
514.37	936.01
514.73	953.75
515.09	971.95
515.45	990.39
515.81	1008.71
516.17	1027.29
516.53	1045.63
516.89	1064.33
517.25	1083.64
517.61	1103.95
517.97	1124.02
518.33	1144.00
518.69	1163.85
519.05	1184.28
519.41	1204.83
519.77	1225.91
520.13	1246.42
520.49	1266.90
520.85	1289.25
521.21	1310.18
521.57	1331.20
521.93	1351.95
522.29	1373.27
522.65	1394.06
523.01	1414.55
523.37	1435.11
523.73	1456.14
524.09	1476.96
524.45	1497.20
524.81	1517.82
525.17	1538.01
525.53	1558.65
525.89	1579.31
526.25	1600.02
526.61	1620.45
526.97	1641.26
527.33	1662.24
527.68	1684.10
528.04	1705.26
528.40	1724.94
528.76	1745.86
529.12	1766.20
529.48	1787.00
529.84	1806.76
530.20	1827.47
530.56	1848.19
530.91	1869.24
531.27	1889.41
531.63	1909.54
531.99	1930.14
532.35	1949.92
532.71	1970.10
533.07	1990.17
533.42	2009.63
533.78	2029.33
534.14	2048.82
534.50	2067.54
534.86	2086.46
535.21	2103.52
535.57	2121.91
535.93	2139.02
536.29	2156.27
536.65	2174.26
537.00	2191.54
537.36	2209.00
537.72	2225.18
538.08	2241.71
538.44	2257.76
538.79	2273.63
539.15	2289.99
539.51	2305.57
539.87	2320.69
540.22	2334.09
540.58	2348.19
540.94	2361.53
541.29	2374.18
541.65	2386.47
542.01	2398.80
542.37	2408.80
542.72	2419.51
543.08	2430.04
543.44	2441.36
543.79	2451.20
544.15	2460.84
544.51	2470.61
544.87	2479.63
545.22	2488.10
545.58	2496.02
545.94	2502.90
546.29	2509.57
546.65	2515.61
547.01	2521.08
547.36	2526.03
547.72	2531.70
548.07	2535.29
548.43	2540.27
548.79	2544.55
549.14	2548.17
549.50	2551.75
549.86	2556.03
550.21	2559.55
550.57	2562.54
550.92	2563.78
551.28	2564.84
551.64	2566.80
551.99	2568.20
552.35	2569.61
552.70	2571.55
553.06	2572.77
553.41	2574.06
553.77	2575.45
554.13	2576.73
554.48	2577.63
554.84	2579.13
555.19	2580.38
555.55	2582.08
555.90	2581.07
556.26	2580.36
556.61	2578.93
556.97	2577.00
557.32	2575.94
557.68	2574.93
558.03	2573.10
558.39	2571.62
558.74	2570.68
559.10	2567.45
559.45	2564.28
559.81	2559.97
560.16	2554.82
560.52	2549.95
560.87	2545.47
561.23	2539.93
561.58	2533.87
561.94	2527.28
562.29	2519.69
562.64	2512.35
563.00	2504.33
563.35	2497.78
563.71	2490.80
564.06	2484.53
564.42	2477.82
564.77	2470.73
565.12	2463.12
565.48	2455.38
565.83	2447.46
566.19	2439.51
566.54	2431.68
566.89	2423.53
567.25	2415.95
567.60	2408.67
567.96	2401.63
568.31	2393.16
568.66	2384.60
569.02	2375.95
569.37	2368.05
569.72	2360.65
570.08	2351.45
570.43	2341.38
570.78	2332.70
571.14	2323.15
571.49	2312.84
571.84	2303.33
572.20	2292.71
572.55	2282.40
572.90	2271.46
573.26	2261.33
573.61	2250.29
573.96	2239.09
574.31	2226.78
574.67	2214.88
575.02	2202.07
575.37	2189.01
575.72	2176.09
576.08	2164.31
576.43	2151.95
576.78	2138.59
577.13	2124.99
577.49	2112.45
577.84	2101.26
578.19	2088.95
578.54	2076.61
578.90	2064.76
579.25	2052.41
579.60	2040.00
579.95	2027.52
580.30	2014.82
580.66	2001.17
581.01	1987.63
581.36	1973.74
581.71	1961.58
582.06	1948.76
582.42	1936.63
582.77	1924.18
583.12	1912.75
583.47	1900.37
583.82	1888.24
584.17	1876.63
584.53	1864.75
584.88	1851.61
585.23	1838.47
585.58	1824.32
585.93	1811.17
586.28	1798.06
586.63	1784.26
586.98	1770.15
587.34	1756.85
587.69	1743.90
588.04	1731.73
588.39	1719.85
588.74	1708.14
589.09	1696.15
589.44	1683.57
589.79	1671.26
590.14	1659.65
590.49	1647.26
590.84	1635.27
591.19	1623.59
591.54	1611.40
591.89	1599.37
592.25	1589.47
592.60	1578.08
592.95	1566.94
593.30	1555.32
593.65	1543.53
594.00	1531.78
594.35	1522.24
594.70	1510.62
595.05	1499.22
595.40	1487.33
595.75	1475.70
596.10	1464.53
596.45	1453.11
596.80	1442.47
597.15	1431.47
597.50	1419.61
597.85	1408.49
598.19	1397.12
598.54	1385.21
598.89	1374.07
599.24	1363.90
599.59	1352.61
599.94	1342.03
600.29	1331.84
600.64	1321.81
600.99	1311.27
601.34	1301.92
601.69	1290.83
602.04	1281.24
602.39	1271.63
602.74	1262.59
603.08	1253.62
603.43	1244.51
603.78	1234.97
604.13	1225.32
604.48	1215.77
604.83	1206.25
605.18	1196.80
605.53	1187.50
605.87	1178.91
606.22	1170.54
606.57	1161.19
606.92	1151.89
607.27	1143.06
607.62	1134.56
607.96	1126.16
608.31	1118.36
608.66	1110.09
609.01	1101.72
609.36	1093.41
609.70	1085.19
610.05	1076.82
610.40	1068.23
610.75	1059.61
611.10	1051.45
611.44	1043.04
611.79	1034.90
612.14	1027.28
612.49	1019.52
612.83	1011.96
613.18	1004.13
613.53	996.35
613.88	988.66
614.22	981.06
614.57	973.28
614.92	965.59
615.27	958.20
615.61	950.65
615.96	943.10
616.31	935.87
616.65	928.95
617.00	921.62
617.35	914.60
617.70	907.72
618.04	900.62
618.39	893.78
618.74	887.79
619.08	881.06
619.43	874.09
619.78	867.20
620.12	860.05
620.47	853.25
620.82	846.33
621.16	839.58
621.51	833.34
621.85	827.09
622.20	820.46
622.55	813.76
622.89	807.28
623.24	800.85
623.59	794.58
623.93	788.31
624.28	782.35
624.62	776.66
624.97	770.86
625.32	765.24
625.66	759.31
626.01	753.03
626.35	747.75
626.70	742.35
627.04	736.98
627.39	731.73
627.73	726.66
628.08	721.72
628.43	716.55
628.77	711.16
629.12	706.00
629.46	701.27
629.81	696.70
630.15	692.08
630.50	687.59
630.84	682.70
631.19	677.86
631.53	673.41
631.88	668.32
632.22	663.46
632.57	659.10
632.91	654.66
633.26	650.35
633.60	645.75
633.95	641.17
634.29	636.57
634.64	632.29
634.98	627.51
635.32	622.95
635.67	618.98
636.01	614.74
636.36	610.49
636.70	606.45
637.05	602.10
637.39	598.03
637.73	593.88
638.08	589.95
638.42	585.88
638.77	581.50
639.11	577.21
639.45	573.04
639.80	568.58
640.14	564.46
640.49	560.52
640.83	556.75
641.17	553.16
641.52	549.48
641.86	545.93
642.20	542.91
642.55	539.37
642.89	535.64
643.23	532.24
643.58	529.18
643.92	525.56
644.26	522.37
644.61	519.20
644.95	515.83
645.29	512.55
645.64	509.45
645.98	506.30
646.32	503.39
646.66	500.29
647.01	497.51
647.35	494.79
647.69	492.01
648.04	489.17
648.38	486.41
648.72	483.78
649.06	480.71
649.41	477.61
649.75	474.68
650.09	471.94
650.43	469.22
650.78	466.21
651.12	463.52
651.46	460.66
651.80	457.84
652.14	455.20
652.49	452.73
652.83	450.17
653.17	447.82
653.51	445.11
653.85	442.88
654.20	440.44
654.54	437.88
654.88	435.31
655.22	433.16
655.56	430.65
655.90	428.37
656.25	426.22
656.59	424.00
656.93	422.06
657.27	420.10
657.61	417.69
657.95	415.53
658.29	413.34
658.64	411.42
658.98	409.32
659.32	407.11
659.66	404.89
660.00	402.77
660.34	400.66
660.68	398.78
661.02	396.69
661.36	394.77
661.70	392.77
662.05	390.92
662.39	388.95
662.73	387.33
663.07	385.67
663.41	383.82
663.75	381.89
664.09	380.08
664.43	378.00
664.77	376.50
665.11	374.77
665.45	373.33
665.79	371.64
666.13	369.96
666.47	368.40
666.81	366.76
667.15	365.16
667.49	363.78
667.83	362.44
668.17	360.99
668.51	359.45
668.85	358.26
669.19	357.15
669.53	355.57
669.87	354.00
670.21	352.39
670.55	351.00
670.89	350.01
671.23	348.67
671.57	347.44
671.91	345.98
672.25	344.72
672.58	343.40
672.92	341.97
673.26	340.65
673.60	339.52
673.94	338.44
674.28	337.30
674.62	336.04
674.96	334.69
675.30	333.54
675.64	332.43
675.97	331.12
676.31	329.65
676.65	328.49
676.99	327.55
677.33	326.30
677.67	325.27
678.01	323.95
678.34	322.80
678.68	321.86
679.02	320.81
679.36	319.75
679.70	318.63
680.04	317.68
680.37	316.80
680.71	315.78
681.05	314.88
681.39	314.01
681.73	313.03
682.06	312.17
682.40	311.31
682.74	310.49
683.08	309.76
683.42	308.82
683.75	308.05
684.09	307.06
684.43	306.40
684.77	305.51
685.10	304.66
685.44	303.83
685.78	302.92
686.12	302.18
686.45	301.44
686.79	300.70
687.13	300.03
687.46	299.26
687.80	298.63
688.14	297.83
688.48	297.03
688.81	296.31
689.15	295.64
689.49	294.83
689.82	294.09
690.16	293.11
690.50	292.50
690.83	291.77
691.17	290.98
691.51	290.27
691.84	289.76
692.18	289.02
692.52	288.32
692.85	287.71
693.19	287.31
693.52	286.63
693.86	285.94
694.20	285.26
694.53	284.70
694.87	284.00
695.21	283.40
695.54	282.82
695.88	282.09
696.21	281.33
696.55	280.79
696.88	280.10
697.22	279.65
697.56	279.15
697.89	278.55
698.23	278.12
698.56	277.60
698.90	277.07
699.23	276.61
699.57	276.21
699.90	275.57
700.24	274.87
700.58	274.49
700.91	274.03
701.25	274.01
701.58	273.85
701.92	273.49
702.25	273.01
702.59	272.51
702.92	272.18
703.26	271.81
703.59	271.36
703.93	271.48
704.26	271.15
704.60	270.74
704.93	270.38
705.26	269.87
705.60	269.52
705.93	269.00
706.27	268.74
706.60	268.45
706.94	268.35
707.27	267.99
707.61	267.57
707.94	267.24
708.27	266.43
708.61	265.72
708.94	265.27
709.28	264.94
709.61	264.66
709.94	264.34
710.28	263.93
710.61	263.63
710.95	262.83
711.28	262.79
711.61	262.35
711.95	262.13
712.28	261.76
712.61	261.36
712.95	261.28
713.28	261.08
713.61	260.64
713.95	260.17
714.28	259.89
714.61	259.52
714.95	259.12
715.28	258.74
715.61	258.36
715.95	258.05
716.28	257.69
716.61	257.30
716.95	256.94
717.28	256.68
717.61	256.32
717.94	255.95
718.28	255.27
718.61	255.02
718.94	254.60
719.27	254.35
719.61	254.13
719.94	253.70
720.27	253.16
720.60	252.90
720.94	252.58
721.27	252.26
721.60	252.10
721.93	251.90
722.27	251.77
722.60	251.69
722.93	251.45
723.26	251.32
723.59	251.05
723.93	250.92
724.26	250.74
724.59	250.48
724.92	250.33
725.25	250.29
725.59	250.05
725.92	249.90
726.25	249.74
726.58	249.59
726.91	249.37
727.24	249.22
727.57	249.01
727.91	248.72
728.24	248.54
728.57	248.29
728.90	248.10
729.23	247.77
729.56	247.71
729.89	247.56
730.22	247.27
730.55	247.13
730.89	246.86
731.22	246.64
731.55	246.45
731.88	246.30
732.21	246.00
732.54	245.75
732.87	245.50
733.20	245.27
733.53	245.07
733.86	244.95
734.19	244.75
734.52	244.63
734.85	244.84
735.18	244.61
735.51	244.61
735.84	244.52
736.17	244.57
736.50	244.13
736.83	244.43
737.16	244.37
737.49	244.20
737.82	244.01
738.15	243.92
738.48	243.85
738.81	243.67
739.14	243.49
739.47	243.34
739.80	243.25
740.13	243.22
740.46	243.01
740.79	242.79
741.12	242.71
741.45	242.50
741.78	242.08
742.11	242.14
742.44	241.90
742.77	241.84
743.10	241.70
743.43	241.59
743.75	241.06
744.08	241.54
744.41	241.39
744.74	241.29
745.07	241.10
745.40	241.01
745.73	241.13
746.06	241.00
746.39	240.97
746.71	240.84
747.04	240.68
747.37	240.58
747.70	240.58
748.03	240.47
748.36	240.44
748.68	240.38
749.01	240.11
749.34	239.96
749.67	239.81
750.00	239.74
750.33	240.03
750.65	239.95
750.98	239.16
751.31	239.06
751.64	238.98
751.97	239.20
752.29	239.08
752.62	238.73
752.95	238.60
753.28	238.48
753.60	238.32
753.93	238.31
754.26	238.22
754.59	237.97
754.91	237.82
755.24	237.69
755.57	237.65
755.90	237.49
756.22	237.43
756.55	237.26
756.88	236.99
757.20	236.56
757.53	236.34
757.86	236.26
758.19	236.18
758.51	236.13
758.84	235.73
759.17	235.56
759.49	235.42
759.82	235.63
760.15	235.64
760.47	235.55
760.80	235.36
761.13	235.36
761.45	235.24
761.78	235.17
762.11	235.14
762.43	234.96
762.76	234.90
763.08	234.81
763.41	234.74
763.74	234.71
764.06	234.56
764.39	234.48
764.71	234.43
765.04	234.27
765.37	234.09
765.69	234.03
766.02	234.00
766.34	233.95
766.67	233.60
767.00	233.50
767.32	233.70
767.65	233.89
767.97	233.72
768.30	233.68
768.62	233.65
768.95	233.45
769.27	233.36
769.60	233.39
769.92	233.19
770.25	233.07
770.57	232.95
770.90	232.92
771.22	232.83
771.55	232.70
771.87	232.67
772.20	232.70
772.52	233.00
772.85	233.50
773.17	233.41
773.50	233.39
773.82	233.29
774.15	232.95
774.47	232.63
774.80	232.54
775.12	232.46
775.45	232.32
775.77	232.27
776.09	232.20
776.42	232.14
776.74	232.28
777.07	232.15
777.39	232.12
777.72	232.02
778.04	232.08
778.36	232.04
778.69	232.00
779.01	231.87
779.33	231.38
779.66	230.77
779.98	230.78
780.31	230.76
780.63	230.95
780.95	230.98
781.28	230.89
781.60	230.80
781.92	230.76
782.25	230.78
782.57	230.79
782.89	230.72
783.22	230.65
783.54	230.52
783.86	230.55
784.19	230.43
784.51	230.47
784.83	230.26
785.16	230.14
785.48	230.16
785.80	230.23
786.12	230.28
786.45	230.21
786.77	230.18
787.09	230.04
787.42	229.75
787.74	229.78
788.06	229.72
788.38	229.74
788.71	229.71
789.03	229.68
789.35	229.74
789.67	229.68
789.99	229.71
790.32	229.59
790.64	229.61
790.96	229.99
791.28	229.84
791.61	229.88
791.93	229.96
792.25	229.93
792.57	230.12
792.89	229.98
793.21	230.06
793.54	229.96
793.86	229.92
794.18	229.94
794.50	229.79
794.82	229.83
795.14	229.83
795.47	229.87
795.79	229.83
796.11	229.67
796.43	229.61
796.75	229.54
797.07	229.56
797.39	229.59
797.71	229.21
798.04	229.30
798.36	229.17
798.68	229.08
799.00	229.12
799.32	228.95
799.64	229.09
799.96	229.05
800.28	229.13
800.60	229.09
800.92	229.11
801.24	229.13
801.56	229.16
801.89	229.06
802.21	229.03
802.53	228.97
802.85	229.13
803.17	229.35
803.49	229.27
803.81	229.23
804.13	229.07
804.45	229.09
804.77	229.04
805.09	229.13
805.41	229.15
805.73	228.96
806.05	228.82
806.37	228.81
806.69	228.74
807.01	228.71
807.33	228.79
807.65	228.63
807.97	228.80
808.28	228.64
808.60	228.69
808.92	228.62
809.24	228.91
809.56	228.81
809.88	228.64
810.20	228.67
810.52	228.72
810.84	228.69
811.16	228.60
811.48	228.62
811.80	228.81
812.12	228.80
812.43	228.90
812.75	228.90
813.07	228.79
813.39	228.88
813.71	228.78
814.03	228.73
814.35	228.78
814.67	228.60
814.98	228.59
815.30	228.59
815.62	228.49
815.94	228.14
816.26	228.31
816.58	228.26
816.89	228.24
817.21	228.21
817.53	228.25
817.85	228.29
818.17	228.26
818.48	227.99
818.80	228.07
819.12	228.01
819.44	227.91
819.76	227.89
820.07	227.80
820.39	227.80
820.71	227.83
821.03	227.80
821.34	227.76
821.66	227.85
821.98	227.88
822.30	227.90
822.61	228.16
822.93	227.89
823.25	227.87
823.57	227.88
823.88	227.87
824.20	227.87
824.52	227.98
824.83	227.98
825.15	227.98
825.47	227.91
825.79	227.95
826.10	228.00
826.42	228.04
826.74	228.03
827.05	228.00
827.37	227.99
827.69	228.02
828.00	228.06
828.32	228.06
828.64	228.03
828.95	228.34
829.27	228.21
829.58	228.24
829.90	228.29
830.22	228.32
830.53	228.27
830.85	228.21
831.17	228.05
831.48	228.01
831.80	227.99
832.11	227.91
832.43	227.83
832.75	227.71
833.06	227.89
833.38	227.78
833.69	227.79
834.01	227.79
834.32	227.75
834.64	227.69
834.96	227.62
835.27	227.55
835.59	227.24
835.90	227.11
836.22	227.10
836.53	227.04
836.85	226.91
837.16	227.39
837.48	227.38
837.79	227.54
838.11	227.51
838.42	227.54
838.74	227.54
839.05	227.52
839.37	227.57
839.68	227.25
840.00	227.24
840.31	227.24
840.63	227.17
840.94	227.11
841.26	227.03
841.57	227.07
841.88	227.20
842.20	227.21
842.51	227.23
842.83	227.20
843.14	227.61
843.46	227.69
843.77	227.37
844.08	227.34
844.40	227.12
844.71	227.18
845.03	227.08
845.34	227.14
845.65	227.05
845.97	227.06
846.28	227.16
846.60	227.20
846.91	227.12
847.22	227.18
847.54	227.25
847.85	227.32
848.16	227.21
848.48	227.02
848.79	227.19
849.10	227.25
849.42	227.26
849.73	226.74
850.04	226.73
850.36	226.61
850.67	226.65
850.98	226.68
851.30	226.67
851.61	226.73
851.92	226.66
852.23	226.89
852.55	226.95
852.86	226.92
853.17	226.92
853.49	227.01
853.80	227.07
854.11	227.10
854.42	227.17
854.74	227.16
855.05	227.22
855.36	226.95
855.67	226.94
855.99	226.94
856.30	227.62
856.61	227.56
856.92	227.48
857.23	227.52
857.55	227.44
857.86	227.38
858.17	227.45
858.48	227.41
858.79	227.27
859.11	227.16
859.42	227.15
859.73	227.15
860.04	227.18
860.35	226.99
860.66	226.91
860.98	226.86
861.29	226.99
861.60	226.93
861.91	227.10
862.22	226.99
862.53	226.95
862.84	226.37
863.16	226.45
863.47	226.39
863.78	226.34
864.09	226.40
864.40	226.44
864.71	226.41
865.02	226.46
865.33	226.34
865.64	226.34
865.95	226.39
866.27	226.67
866.58	226.57
866.89	226.61
867.20	226.50
867.51	226.37
867.82	226.25
868.13	226.38
868.44	226.29
868.75	226.41
869.06	226.35
869.37	226.30
869.68	226.20
869.99	226.29
870.30	226.28
870.61	226.35
870.92	226.26
871.23	226.17
871.54	226.16
871.85	226.34
872.16	226.33
872.47	226.20
872.78	225.88
873.09	225.98
873.40	225.94
873.71	226.05
874.02	226.15
874.33	226.14
874.64	226.02
874.95	226.03
875.26	225.88
875.56	225.88
875.87	225.86
876.18	225.79
876.49	226.26
876.80	226.27
877.11	226.16
877.42	226.20
877.73	226.20
878.04	226.13
878.35	226.15
878.66	226.26
878.96	226.25
879.27	226.23
879.58	226.18
879.89	226.17
880.20	226.30
880.51	226.25
880.82	226.22
881.12	226.31
881.43	226.20
881.74	226.11
882.05	226.10
882.36	226.16
882.67	226.20
882.97	225.70
883.28	225.65
883.59	225.64
883.90	225.68
884.21	225.71
884.51	225.75
884.82	225.71
885.13	225.66
885.44	225.69
885.74	225.68
886.05	225.64
886.36	225.66
886.67	225.47
886.98	225.73
887.28	225.78
887.59	225.71
887.90	225.81
888.20	225.84
888.51	225.95
888.82	225.88
889.13	225.97
889.43	226.33
889.74	226.33
890.05	226.35
890.35	226.31
890.66	226.29
890.97	226.25
891.28	226.16
891.58	226.15
891.89	226.18
892.20	226.14
892.50	226.10
892.81	226.17
893.12	226.18
893.42	225.98
893.73	226.01
894.04	226.10
894.34	226.17
894.65	226.25
894.95	226.24
895.26	226.36
895.57	226.52
895.87	226.10
896.18	226.16
896.48	226.18
896.79	226.19
897.10	226.32
897.40	226.40
897.71	226.47
898.01	226.46
898.32	226.56
898.63	226.64
898.93	226.70
899.24	226.63
899.54	226.69
899.85	226.60
900.15	226.57
900.46	226.56
900.76	226.60
901.07	226.55
901.38	226.55
901.68	226.47
901.99	226.22
902.29	226.29
902.60	226.35
902.90	226.31
903.21	226.29
903.51	226.25
903.82	226.30
904.12	226.30
904.43	226.34
904.73	226.23
905.03	226.22
905.34	226.66
905.64	226.63
905.95	226.59
906.25	226.68
906.56	226.67
906.86	226.64
907.17	226.60
907.47	226.63
907.77	226.62
908.08	226.54
908.38	226.66
908.69	226.65
908.99	226.67
909.30	226.77
909.60	226.79
909.90	226.84
910.21	226.77
910.51	226.70
910.81	226.69
911.12	226.75
911.42	226.78
911.73	226.25
912.03	226.28
912.33	226.35
912.64	226.30
912.94	226.26
913.24	226.15
913.55	226.04
913.85	226.04
914.15	226.10
914.46	226.23
914.76	226.11
915.06	226.04
915.37	225.93
915.67	225.82
915.97	225.88
916.27	225.77
916.58	225.74
916.88	225.68
917.18	225.65
917.49	225.96
917.79	225.91
918.09	226.04
918.39	226.24
918.70	226.20
919.00	226.18
919.30	226.44
919.60	226.52
919.91	226.50
920.21	226.47
920.51	226.41
920.81	226.36
921.12	226.40
921.42	226.50
921.72	226.58
922.02	226.64
922.32	226.69
922.63	226.64
922.93	226.88
923.23	226.98
923.53	226.92
923.83	226.60
924.13	226.77
924.44	226.77
924.74	226.76
925.04	226.85
925.34	226.86
925.64	226.66
925.94	226.63
926.24	226.94
926.55	226.92
926.85	226.96
927.15	226.94
927.45	226.97
927.75	226.90
928.05	226.89
928.35	226.82
928.65	226.82
928.95	226.95
929.26	226.85
929.56	226.85
929.86	226.92
930.16	226.88
930.46	226.78
930.76	226.86
931.06	226.68
931.36	226.61
931.66	226.69
931.96	226.72
932.26	226.73
932.56	226.49
932.86	226.58
933.16	226.59
933.46	226.56
933.76	226.51
934.06	226.69
934.36	226.89
934.66	226.88
934.96	226.85
935.26	226.81
935.56	226.81
935.86	226.74
936.16	226.66
936.46	226.62
936.76	226.54
937.06	226.38
937.36	226.44
937.66	226.35
937.96	226.25
938.26	226.16
938.56	226.16
938.86	226.15
939.16	226.20
939.46	226.18
939.76	226.23
940.06	226.22
940.35	226.10
940.65	225.87
940.95	225.88
941.25	225.77
941.55	225.73
941.85	225.70
942.15	225.86
942.45	226.02
942.75	226.02
943.04	226.04
943.34	226.09
943.64	226.00
943.94	226.02
944.24	226.01
944.54	226.12
944.84	226.08
945.13	226.04
945.43	225.95
945.73	225.93
946.03	225.91
946.33	225.87
946.62	225.75
946.92	225.72
947.22	225.72
947.52	225.75
947.82	225.83
948.11	225.75
948.41	225.57
948.71	225.47
949.01	225.48
949.31	225.49
949.60	225.48
949.90	225.57
950.20	225.59
950.50	225.59
950.79	225.50
951.09	225.53
951.39	225.56
951.69	225.52
951.98	225.58
952.28	225.53
952.58	225.55
952.87	225.63
953.17	225.70
953.47	225.69
953.76	225.68
954.06	225.54
954.36	225.50
954.66	225.51
954.95	225.47
955.25	225.51
955.55	225.51
955.84	225.48
956.14	225.54
956.44	225.52
956.73	225.42
957.03	225.49
957.32	225.46
957.62	225.47
957.92	225.55
958.21	225.50
958.51	226.08
958.81	226.11
959.10	226.16
959.40	226.21
959.69	226.20
959.99	226.27
960.29	226.29
960.58	226.27
960.88	226.48
961.17	226.58
961.47	226.63
961.76	226.53
962.06	226.61
962.36	226.56
962.65	226.51
962.95	226.64
963.24	226.56
963.54	226.62
963.83	226.59
964.13	226.56
964.42	226.42
964.72	226.02
965.01	225.95
965.31	225.92
965.60	225.81
965.90	226.15
966.19	226.00
966.49	226.08
966.78	226.10
967.08	226.00
967.37	225.91
967.67	225.80
967.96	225.90
968.26	225.82
968.55	225.85
968.85	225.83
969.14	225.80
969.43	225.81
969.73	225.81
970.02	225.77
970.32	225.76
970.61	225.78
970.91	225.69
971.20	225.73
971.49	225.64
971.79	225.68
972.08	225.28
972.38	225.37
972.67	225.32
972.96	225.44
973.26	225.39
973.55	225.55
973.85	225.52
974.14	225.53
974.43	225.61
974.73	225.53
975.02	225.54
975.31	225.50
975.61	225.49
975.90	225.38
976.19	225.41
976.49	225.41
976.78	225.49
977.07	225.45
977.37	225.45
977.66	225.52
977.95	225.46
978.24	225.59
978.54	225.67
978.83	225.60
979.12	225.49
979.42	225.46
979.71	225.40
980.00	225.43
980.29	225.41
980.59	225.31
980.88	225.39
981.17	225.41
981.46	225.51
981.76	225.53
982.05	225.74
982.34	225.74
982.63	225.77
982.93	225.75
983.22	225.85
983.51	225.85
983.80	225.96
984.09	225.96
984.39	225.92
984.68	225.86
984.97	225.90
985.26	225.89
985.55	225.92
985.85	225.78
986.14	225.79
986.43	225.91
986.72	225.86
987.01	225.72
987.30	225.69
987.59	225.64
987.89	225.65
988.18	225.46
988.47	225.44
988.76	225.41
989.05	225.30
989.34	225.34
989.63	225.47
989.92	225.38
990.22	225.40
990.51	225.37
990.80	225.25
991.09	225.29
991.38	225.31
991.67	225.25
991.96	225.34
992.25	225.45
992.54	225.27
992.83	225.34
993.12	225.31
993.41	225.45
993.70	225.61
993.99	225.75
994.28	225.90
994.58	225.96
994.87	225.97
995.16	226.06
995.45	225.95
995.74	225.74
996.03	225.83
996.32	225.92
996.61	226.13
996.90	226.19
997.19	226.17
997.48	226.21
997.77	226.20
998.06	226.21
998.34	226.14
998.63	226.25
998.92	226.20
999.21	226.32
999.50	226.28
999.79	226.11
1000.08	226.03
1000.37	226.00
1000.66	225.97
1000.95	225.99
1001.24	226.00
1001.53	226.12
1001.82	226.18
1002.11	226.04
1002.40	225.99
1002.68	226.00
1002.97	226.35
1003.26	226.27
1003.55	226.15
1003.84	226.13
1004.13	226.31
1004.42	226.38
1004.71	226.25
1004.99	226.29
1005.28	226.40
1005.57	226.40
1005.86	226.32
1006.15	226.28
1006.44	226.16
1006.72	226.24
1007.01	226.18
1007.30	226.18
1007.59	226.05
1007.88	225.98
1008.17	226.00
1008.45	225.94
1008.74	225.71
1009.03	225.48
1009.32	225.48
1009.60	225.53
1009.89	225.52
1010.18	225.25
1010.47	225.06
1010.76	225.06
1011.04	225.01
1011.33	225.01
1011.62	224.93
1011.91	225.00
1012.19	225.01
1012.48	225.04
1012.77	225.03
1013.05	225.23
1013.34	225.27
1013.63	225.30
1013.92	225.29
1014.20	225.20
1014.49	225.27
1014.78	225.28
1015.06	225.09
1015.35	225.10
1015.64	225.19
1015.92	225.28
1016.21	225.30
1016.50	225.38
1016.78	225.49
1017.07	225.52
1017.36	225.42
1017.64	225.44
1017.93	225.48
1018.22	225.46
1018.50	225.46
1018.79	225.39
1019.08	225.21
1019.36	225.21
1019.65	225.12
1019.93	225.33
1020.22	225.50
1020.51	225.67
1020.79	225.68
1021.08	225.10
1021.36	224.90
1021.65	225.20
1021.94	225.20
1022.22	226.25
1022.51	224.10
1022.79	228.25
1023.08	226.60
1023.36	230.25
1023.65	224.90
>>>>>End Processed Spectral Data<<<<<
