SpectraSuite Data File
++++++++++++++++++++++++++++++++++++
Date: Wed Sep 04 17:40:09 EDT 2013
User: lab3
Dark Spectrum Present: Yes
Reference Spectrum Present: No
Number of Sampled Component Spectra: 1
Spectrometers: USB2E7196
Integration Time (usec): 170000 (USB2E7196)
Spectra Averaged: 20 (USB2E7196)
Boxcar Smoothing: 10 (USB2E7196)
Correct for Electrical Dark: No (USB2E7196)
Strobe/Lamp Enabled: No (USB2E7196)
Correct for Detector Non-linearity: No (USB2E7196)
Correct for Stray Light: No (USB2E7196)
Number of Pixels in Processed Spectrum: 2048
>>>>>Begin Processed Spectral Data<<<<<
339.09	0.00
339.48	211.85
339.86	213.55
340.24	215.95
340.63	217.80
341.01	225.00
341.39	219.85
341.78	220.75
342.16	223.00
342.54	223.35
342.93	211.83
343.31	222.50
343.69	223.08
344.07	223.55
344.46	223.97
344.84	224.31
345.22	224.25
345.60	224.48
345.99	224.69
346.37	224.77
346.75	224.85
347.13	224.92
347.52	224.91
347.90	225.13
348.28	225.13
348.66	225.17
349.05	225.07
349.43	225.17
349.81	225.18
350.19	225.19
350.57	225.28
350.96	225.41
351.34	225.55
351.72	225.60
352.10	225.68
352.48	225.74
352.87	225.76
353.25	225.90
353.63	225.98
354.01	226.00
354.39	226.12
354.77	226.21
355.15	226.34
355.54	226.43
355.92	226.29
356.30	226.40
356.68	226.76
357.06	226.80
357.44	226.81
357.82	226.87
358.20	227.37
358.58	227.40
358.97	227.46
359.35	227.55
359.73	227.73
360.11	227.82
360.49	227.89
360.87	228.00
361.25	228.08
361.63	228.30
362.01	228.38
362.39	228.32
362.77	228.41
363.15	228.53
363.53	228.52
363.91	228.66
364.29	228.67
364.67	228.29
365.05	228.32
365.43	228.41
365.81	228.54
366.19	228.37
366.57	228.63
366.95	228.64
367.33	228.60
367.71	228.58
368.09	228.73
368.47	228.74
368.85	228.70
369.23	228.73
369.61	228.57
369.99	228.75
370.37	228.82
370.75	228.95
371.13	228.75
371.51	228.68
371.89	228.63
372.27	228.64
372.65	228.67
373.03	228.70
373.41	228.62
373.78	228.58
374.16	228.34
374.54	228.14
374.92	228.07
375.30	227.96
375.68	227.87
376.06	227.78
376.44	227.65
376.82	227.58
377.19	227.51
377.57	227.43
377.95	227.24
378.33	227.18
378.71	226.86
379.09	226.89
379.47	226.90
379.84	226.86
380.22	226.72
380.60	226.52
380.98	226.45
381.36	226.38
381.73	226.14
382.11	226.20
382.49	226.08
382.87	225.99
383.25	225.93
383.62	226.47
384.00	226.27
384.38	226.35
384.76	226.43
385.13	226.56
385.51	226.55
385.89	226.46
386.27	226.49
386.64	226.55
387.02	226.52
387.40	226.47
387.78	226.40
388.15	226.43
388.53	226.36
388.91	226.30
389.29	226.21
389.66	226.36
390.04	226.17
390.42	226.28
390.79	226.28
391.17	226.25
391.55	225.66
391.92	225.73
392.30	225.73
392.68	225.59
393.05	225.60
393.43	225.57
393.81	225.60
394.18	225.48
394.56	225.47
394.94	225.51
395.31	225.46
395.69	225.63
396.06	225.66
396.44	225.78
396.82	225.78
397.19	226.16
397.57	226.14
397.95	226.32
398.32	226.24
398.70	226.32
399.07	226.46
399.45	226.46
399.82	226.47
400.20	226.50
400.58	226.64
400.95	226.50
401.33	226.67
401.70	227.06
402.08	227.20
402.45	227.30
402.83	227.52
403.20	227.66
403.58	227.76
403.95	228.00
404.33	228.20
404.71	228.42
405.08	228.79
405.46	228.95
405.83	229.18
406.21	229.35
406.58	229.64
406.96	229.92
407.33	230.24
407.70	230.62
408.08	231.32
408.45	231.68
408.83	232.15
409.20	232.43
409.58	232.50
409.95	232.92
410.33	233.40
410.70	233.68
411.08	234.26
411.45	234.68
411.82	235.08
412.20	235.68
412.57	236.50
412.95	236.63
413.32	237.43
413.69	238.07
414.07	238.87
414.44	239.60
414.82	240.39
415.19	241.42
415.56	242.34
415.94	243.08
416.31	244.29
416.68	245.35
417.06	246.73
417.43	248.18
417.81	249.74
418.18	251.18
418.55	252.74
418.93	254.35
419.30	256.15
419.67	258.14
420.04	260.04
420.42	261.86
420.79	264.55
421.16	266.79
421.54	269.34
421.91	271.81
422.28	274.45
422.66	277.20
423.03	280.04
423.40	282.80
423.77	285.71
424.15	288.61
424.52	291.72
424.89	295.26
425.26	298.49
425.64	301.58
426.01	305.08
426.38	308.86
426.75	312.64
427.13	316.37
427.50	320.24
427.87	324.31
428.24	328.50
428.61	332.10
428.99	336.62
429.36	341.05
429.73	345.57
430.10	350.07
430.47	354.86
430.85	359.55
431.22	364.77
431.59	370.54
431.96	375.80
432.33	381.70
432.70	387.19
433.08	393.71
433.45	399.87
433.82	406.00
434.19	412.76
434.56	419.51
434.93	425.96
435.30	432.37
435.68	439.45
436.05	446.41
436.42	453.32
436.79	459.65
437.16	466.63
437.53	473.94
437.90	481.25
438.27	488.30
438.64	495.74
439.01	502.61
439.38	508.37
439.75	514.14
440.13	520.88
440.50	527.15
440.87	532.16
441.24	537.45
441.61	543.27
441.98	547.41
442.35	552.17
442.72	557.24
443.09	562.13
443.46	565.12
443.83	567.09
444.20	568.83
444.57	571.15
444.94	572.14
445.31	573.08
445.68	574.47
446.05	574.66
446.42	573.61
446.79	572.56
447.16	571.37
447.53	570.64
447.90	567.58
448.27	564.55
448.64	560.64
449.01	557.73
449.37	552.75
449.74	547.85
450.11	542.54
450.48	536.06
450.85	529.50
451.22	523.86
451.59	518.43
451.96	513.21
452.33	506.50
452.70	500.45
453.07	493.40
453.43	485.72
453.80	478.88
454.17	472.22
454.54	465.84
454.91	459.05
455.28	452.28
455.65	446.11
456.02	440.68
456.38	435.39
456.75	428.88
457.12	423.45
457.49	418.31
457.86	412.82
458.23	408.67
458.59	403.90
458.96	399.11
459.33	394.94
459.70	390.71
460.07	387.35
460.43	383.33
460.80	379.74
461.17	376.67
461.54	373.33
461.91	370.20
462.27	366.91
462.64	364.27
463.01	361.42
463.38	358.75
463.74	355.31
464.11	352.87
464.48	350.66
464.85	348.26
465.21	346.56
465.58	344.72
465.95	342.32
466.32	340.50
466.68	338.61
467.05	336.78
467.42	335.03
467.78	333.02
468.15	331.40
468.52	330.20
468.88	328.30
469.25	326.71
469.62	325.60
469.98	324.31
470.35	323.12
470.72	321.90
471.08	320.45
471.45	319.42
471.82	318.38
472.18	317.34
472.55	316.48
472.92	315.29
473.28	314.29
473.65	313.31
474.02	312.45
474.38	311.78
474.75	311.20
475.11	310.46
475.48	310.01
475.85	309.47
476.21	308.96
476.58	308.61
476.94	308.37
477.31	307.91
477.67	307.59
478.04	307.33
478.41	307.23
478.77	307.59
479.14	307.43
479.50	307.41
479.87	307.41
480.23	307.63
480.60	307.75
480.96	307.96
481.33	308.45
481.69	308.72
482.06	308.99
482.42	309.34
482.79	309.85
483.15	310.37
483.52	311.07
483.88	311.52
484.25	312.03
484.61	312.66
484.98	313.32
485.34	314.23
485.71	315.18
486.07	316.09
486.44	316.61
486.80	317.61
487.17	318.68
487.53	320.05
487.90	321.30
488.26	322.83
488.62	324.34
488.99	325.78
489.35	327.37
489.72	329.06
490.08	330.81
490.44	332.57
490.81	334.59
491.17	336.60
491.54	338.97
491.90	341.39
492.26	343.85
492.63	346.54
492.99	349.19
493.36	351.98
493.72	355.05
494.08	358.19
494.45	361.53
494.81	365.09
495.17	368.54
495.54	372.35
495.90	376.21
496.26	380.30
496.63	384.44
496.99	388.83
497.35	393.44
497.72	398.17
498.08	403.21
498.44	408.29
498.80	413.64
499.17	419.03
499.53	424.73
499.89	430.65
500.26	436.68
500.62	442.88
500.98	449.39
501.34	455.97
501.71	462.77
502.07	469.85
502.43	477.00
502.79	484.42
503.16	492.09
503.52	499.96
503.88	508.07
504.24	516.62
504.60	525.49
504.97	534.55
505.33	543.77
505.69	553.41
506.05	562.95
506.41	572.75
506.78	582.82
507.14	593.14
507.50	603.79
507.86	614.64
508.22	625.84
508.59	637.10
508.95	648.88
509.31	661.10
509.67	673.20
510.03	685.56
510.39	698.31
510.75	710.90
511.12	723.82
511.48	736.94
511.84	750.06
512.20	763.27
512.56	776.93
512.92	790.92
513.28	804.92
513.64	819.31
514.00	833.92
514.37	848.63
514.73	863.64
515.09	878.73
515.45	893.92
515.81	908.95
516.17	924.17
516.53	939.29
516.89	954.50
517.25	970.07
517.61	986.36
517.97	1002.43
518.33	1018.76
518.69	1035.11
519.05	1051.66
519.41	1068.25
519.77	1085.35
520.13	1102.00
520.49	1118.45
520.85	1136.34
521.21	1153.24
521.57	1170.12
521.93	1186.40
522.29	1203.10
522.65	1219.18
523.01	1235.53
523.37	1251.75
523.73	1268.30
524.09	1284.16
524.45	1300.05
524.81	1316.10
525.17	1331.76
525.53	1347.44
525.89	1363.25
526.25	1378.96
526.61	1393.76
526.97	1409.52
527.33	1425.17
527.68	1441.41
528.04	1457.30
528.40	1471.47
528.76	1487.01
529.12	1502.06
529.48	1517.52
529.84	1532.06
530.20	1547.57
530.56	1562.56
530.91	1577.79
531.27	1592.21
531.63	1607.04
531.99	1621.79
532.35	1636.08
532.71	1650.46
533.07	1665.27
533.42	1679.11
533.78	1693.06
534.14	1707.29
534.50	1720.50
534.86	1733.64
535.21	1745.33
535.57	1758.07
535.93	1770.11
536.29	1781.82
536.65	1794.16
537.00	1805.79
537.36	1817.47
537.72	1827.97
538.08	1839.12
538.44	1849.54
538.79	1860.14
539.15	1870.89
539.51	1881.05
539.87	1890.51
540.22	1899.03
540.58	1907.85
540.94	1915.88
541.29	1923.21
541.65	1930.80
542.01	1938.32
542.37	1943.94
542.72	1950.03
543.08	1955.38
543.44	1961.89
543.79	1967.06
544.15	1971.68
544.51	1976.84
544.87	1981.43
545.22	1985.65
545.58	1988.94
545.94	1992.16
546.29	1994.95
546.65	1996.82
547.01	1998.60
547.36	2000.39
547.72	2001.74
548.07	2001.59
548.43	2003.00
548.79	2003.72
549.14	2003.90
549.50	2003.95
549.86	2004.42
550.21	2004.49
550.57	2004.54
550.92	2002.90
551.28	2001.59
551.64	2000.93
551.99	1999.77
552.35	1998.65
552.70	1997.59
553.06	1996.53
553.41	1994.95
553.77	1993.45
554.13	1992.39
554.48	1990.77
554.84	1989.44
555.19	1988.17
555.55	1987.57
555.90	1984.68
556.26	1982.13
556.61	1978.99
556.97	1975.15
557.32	1972.49
557.68	1969.88
558.03	1966.64
558.39	1963.30
558.74	1960.53
559.10	1955.96
559.45	1951.18
559.81	1945.82
560.16	1940.16
560.52	1934.34
560.87	1929.00
561.23	1923.20
561.58	1917.39
561.94	1910.95
562.29	1903.83
562.64	1897.09
563.00	1889.10
563.35	1882.83
563.71	1876.19
564.06	1869.82
564.42	1863.67
564.77	1856.91
565.12	1849.61
565.48	1842.68
565.83	1835.83
566.19	1828.43
566.54	1821.55
566.89	1814.53
567.25	1807.81
567.60	1801.50
567.96	1795.00
568.31	1788.65
568.66	1781.44
569.02	1773.72
569.37	1766.52
569.72	1759.98
570.08	1752.37
570.43	1744.68
570.78	1737.02
571.14	1729.35
571.49	1721.12
571.84	1713.20
572.20	1704.55
572.55	1696.46
572.90	1687.78
573.26	1679.44
573.61	1670.69
573.96	1661.85
574.31	1652.47
574.67	1643.19
575.02	1633.17
575.37	1623.36
575.72	1613.10
576.08	1603.71
576.43	1593.92
576.78	1583.86
577.13	1573.42
577.49	1563.46
577.84	1554.45
578.19	1545.12
578.54	1535.62
578.90	1526.72
579.25	1517.48
579.60	1508.52
579.95	1498.83
580.30	1489.19
580.66	1479.46
581.01	1469.57
581.36	1459.15
581.71	1449.54
582.06	1440.19
582.42	1431.33
582.77	1422.16
583.12	1413.28
583.47	1404.28
583.82	1395.44
584.17	1386.97
584.53	1378.36
584.88	1369.18
585.23	1359.63
585.58	1349.68
585.93	1340.05
586.28	1330.46
586.63	1320.66
586.98	1310.51
587.34	1301.25
587.69	1291.68
588.04	1282.49
588.39	1274.02
588.74	1265.45
589.09	1257.14
589.44	1247.96
589.79	1239.09
590.14	1230.62
590.49	1221.97
590.84	1213.26
591.19	1204.96
591.54	1196.30
591.89	1187.73
592.25	1180.73
592.60	1172.74
592.95	1164.98
593.30	1156.91
593.65	1148.72
594.00	1140.22
594.35	1133.75
594.70	1125.55
595.05	1117.75
595.40	1109.45
595.75	1101.01
596.10	1093.29
596.45	1085.33
596.80	1077.86
597.15	1070.24
597.50	1062.11
597.85	1054.29
598.19	1046.69
598.54	1038.58
598.89	1030.62
599.24	1023.39
599.59	1015.30
599.94	1008.01
600.29	1000.71
600.64	993.56
600.99	986.29
601.34	979.74
601.69	971.66
602.04	964.90
602.39	958.05
602.74	951.91
603.08	945.56
603.43	939.16
603.78	932.49
604.13	926.07
604.48	919.36
604.83	912.73
605.18	906.18
605.53	899.61
605.87	893.60
606.22	887.88
606.57	881.66
606.92	875.30
607.27	869.18
607.62	863.36
607.96	857.78
608.31	852.29
608.66	846.84
609.01	841.06
609.36	835.27
609.70	829.51
610.05	823.55
610.40	817.83
610.75	812.06
611.10	806.64
611.44	800.80
611.79	795.32
612.14	790.14
612.49	784.65
612.83	779.51
613.18	774.25
613.53	769.07
613.88	763.65
614.22	758.37
614.57	753.06
614.92	747.56
615.27	742.50
615.61	737.37
615.96	732.11
616.31	726.94
616.65	722.27
617.00	717.47
617.35	712.51
617.70	707.77
618.04	703.06
618.39	698.28
618.74	693.90
619.08	689.23
619.43	684.50
619.78	679.78
620.12	674.89
620.47	670.14
620.82	665.36
621.16	660.85
621.51	656.72
621.85	652.40
622.20	648.01
622.55	643.40
622.89	639.07
623.24	634.68
623.59	630.51
623.93	626.15
624.28	622.08
624.62	618.56
624.97	614.72
625.32	610.74
625.66	606.55
626.01	602.38
626.35	598.67
626.70	595.04
627.04	591.49
627.39	587.78
627.73	584.22
628.08	580.68
628.43	576.90
628.77	573.23
629.12	569.74
629.46	566.51
629.81	563.29
630.15	559.98
630.50	556.71
630.84	553.45
631.19	550.18
631.53	547.02
631.88	543.30
632.22	539.76
632.57	536.78
632.91	533.74
633.26	530.80
633.60	527.68
633.95	524.51
634.29	521.25
634.64	518.29
634.98	514.85
635.32	511.93
635.67	509.26
636.01	506.23
636.36	503.12
636.70	500.28
637.05	497.33
637.39	494.48
637.73	491.63
638.08	488.97
638.42	486.06
638.77	483.10
639.11	480.15
639.45	477.33
639.80	474.29
640.14	471.51
640.49	468.75
640.83	466.10
641.17	463.54
641.52	460.95
641.86	458.45
642.20	456.56
642.55	453.98
642.89	451.47
643.23	449.05
643.58	447.02
643.92	444.49
644.26	442.24
644.61	440.04
644.95	437.80
645.29	435.28
645.64	433.24
645.98	431.02
646.32	429.08
646.66	426.88
647.01	424.86
647.35	422.95
647.69	420.96
648.04	419.04
648.38	416.95
648.72	414.96
649.06	412.83
649.41	410.61
649.75	408.50
650.09	406.56
650.43	404.68
650.78	402.61
651.12	400.65
651.46	398.72
651.80	396.87
652.14	394.89
652.49	393.27
652.83	391.41
653.17	389.67
653.51	387.75
653.85	386.18
654.20	384.42
654.54	382.68
654.88	380.91
655.22	379.40
655.56	377.80
655.90	376.29
656.25	374.78
656.59	373.28
656.93	371.83
657.27	370.44
657.61	368.81
657.95	367.34
658.29	365.90
658.64	364.40
658.98	362.79
659.32	361.44
659.66	359.99
660.00	358.60
660.34	357.16
660.68	355.79
661.02	354.40
661.36	353.10
661.70	351.71
662.05	350.44
662.39	348.97
662.73	347.81
663.07	346.81
663.41	345.63
663.75	344.15
664.09	342.96
664.43	341.49
664.77	340.36
665.11	339.05
665.45	337.94
665.79	336.85
666.13	335.75
666.47	334.49
666.81	333.42
667.15	332.28
667.49	331.28
667.83	330.39
668.17	329.36
668.51	328.26
668.85	327.33
669.19	326.46
669.53	325.43
669.87	324.26
670.21	323.03
670.55	321.95
670.89	321.30
671.23	320.30
671.57	319.37
671.91	318.39
672.25	317.46
672.58	316.57
672.92	315.46
673.26	314.49
673.60	313.75
673.94	312.84
674.28	311.98
674.62	311.15
674.96	310.18
675.30	309.33
675.64	308.57
675.97	307.72
676.31	306.74
676.65	305.79
676.99	305.23
677.33	304.37
677.67	303.57
678.01	302.57
678.34	301.80
678.68	301.13
679.02	300.27
679.36	299.55
679.70	298.75
680.04	298.27
680.37	297.59
680.71	296.78
681.05	296.17
681.39	295.55
681.73	294.84
682.06	294.12
682.40	293.42
682.74	292.80
683.08	292.28
683.42	291.64
683.75	291.10
684.09	290.28
684.43	289.72
684.77	289.15
685.10	288.64
685.44	288.05
685.78	287.46
686.12	287.00
686.45	286.32
686.79	285.69
687.13	285.03
687.46	284.53
687.80	284.02
688.14	283.40
688.48	282.83
688.81	282.35
689.15	282.01
689.49	281.41
689.82	280.81
690.16	280.11
690.50	279.56
690.83	279.02
691.17	278.40
691.51	277.93
691.84	277.50
692.18	276.95
692.52	276.45
692.85	275.99
693.19	275.66
693.52	275.24
693.86	274.76
694.20	274.37
694.53	273.81
694.87	273.34
695.21	272.82
695.54	272.34
695.88	271.77
696.21	271.12
696.55	270.68
696.88	270.24
697.22	269.71
697.56	269.31
697.89	268.89
698.23	268.60
698.56	268.10
698.90	267.74
699.23	267.29
699.57	266.91
699.90	266.41
700.24	265.80
700.58	265.54
700.91	265.25
701.25	265.17
701.58	265.21
701.92	264.91
702.25	264.62
702.59	264.23
702.92	264.00
703.26	263.68
703.59	263.42
703.93	263.50
704.26	263.31
704.60	263.00
704.93	262.67
705.26	262.30
705.60	262.08
705.93	261.62
706.27	261.46
706.60	261.32
706.94	261.26
707.27	260.95
707.61	260.65
707.94	260.40
708.27	259.78
708.61	259.04
708.94	258.79
709.28	258.46
709.61	258.13
709.94	257.79
710.28	257.52
710.61	257.22
710.95	256.55
711.28	256.60
711.61	256.27
711.95	256.11
712.28	255.80
712.61	255.58
712.95	255.58
713.28	255.50
713.61	255.04
713.95	254.60
714.28	254.44
714.61	254.14
714.95	253.77
715.28	253.37
715.61	253.17
715.95	252.90
716.28	252.57
716.61	252.45
716.95	252.19
717.28	251.95
717.61	251.64
717.94	251.36
718.28	250.71
718.61	250.50
718.94	250.15
719.27	250.00
719.61	249.71
719.94	249.34
720.27	248.88
720.60	248.66
720.94	248.46
721.27	248.27
721.60	248.07
721.93	247.91
722.27	247.98
722.60	247.87
722.93	247.58
723.26	247.43
723.59	247.18
723.93	247.02
724.26	246.85
724.59	246.69
724.92	246.58
725.25	246.58
725.59	246.43
725.92	246.35
726.25	246.06
726.58	245.94
726.91	245.76
727.24	245.62
727.57	245.53
727.91	245.31
728.24	245.17
728.57	244.96
728.90	244.82
729.23	244.55
729.56	244.57
729.89	244.43
730.22	244.21
730.55	244.04
730.89	243.94
731.22	243.75
731.55	243.63
731.88	243.46
732.21	243.22
732.54	242.96
732.87	242.81
733.20	242.74
733.53	242.59
733.86	242.48
734.19	242.20
734.52	242.10
734.85	242.30
735.18	242.05
735.51	241.97
735.84	241.85
736.17	241.75
736.50	241.37
736.83	241.82
737.16	241.77
737.49	241.66
737.82	241.49
738.15	241.43
738.48	241.29
738.81	241.11
739.14	240.90
739.47	240.80
739.80	240.70
740.13	240.57
740.46	240.30
740.79	240.10
741.12	240.07
741.45	239.85
741.78	239.41
742.11	239.49
742.44	239.31
742.77	239.27
743.10	239.10
743.43	238.97
743.75	238.33
744.08	238.78
744.41	238.58
744.74	238.40
745.07	238.15
745.40	238.15
745.73	238.30
746.06	238.25
746.39	238.27
746.71	238.09
747.04	237.97
747.37	237.90
747.70	237.90
748.03	237.77
748.36	237.71
748.68	237.66
749.01	237.39
749.34	237.38
749.67	237.32
750.00	237.33
750.33	237.61
750.65	237.53
750.98	236.88
751.31	236.81
751.64	236.76
751.97	237.00
752.29	236.76
752.62	236.37
752.95	236.26
753.28	236.10
753.60	236.01
753.93	236.08
754.26	236.06
754.59	235.85
754.91	235.70
755.24	235.68
755.57	235.59
755.90	235.47
756.22	235.34
756.55	235.13
756.88	234.90
757.20	234.49
757.53	234.23
757.86	234.17
758.19	234.13
758.51	234.08
758.84	233.76
759.17	233.74
759.49	233.73
759.82	233.93
760.15	233.93
760.47	233.82
760.80	233.60
761.13	233.59
761.45	233.54
761.78	233.53
762.11	233.43
762.43	233.34
762.76	233.28
763.08	233.28
763.41	233.24
763.74	233.21
764.06	233.22
764.39	233.24
764.71	233.22
765.04	233.13
765.37	233.03
765.69	232.96
766.02	232.84
766.34	232.80
766.67	232.50
767.00	232.47
767.32	232.74
767.65	232.94
767.97	232.90
768.30	232.85
768.62	232.81
768.95	232.72
769.27	232.68
769.60	232.68
769.92	232.48
770.25	232.39
770.57	232.29
770.90	232.20
771.22	232.11
771.55	232.00
771.87	232.03
772.20	231.90
772.52	232.25
772.85	232.80
773.17	232.70
773.50	232.63
773.82	232.46
774.15	232.14
774.47	231.82
774.80	231.68
775.12	231.65
775.45	231.58
775.77	231.52
776.09	231.48
776.42	231.40
776.74	231.60
777.07	231.56
777.39	231.48
777.72	231.34
778.04	231.34
778.36	231.31
778.69	231.26
779.01	231.29
779.33	230.82
779.66	230.28
779.98	230.27
780.31	230.27
780.63	230.52
780.95	230.54
781.28	230.47
781.60	230.43
781.92	230.33
782.25	230.27
782.57	230.21
782.89	230.17
783.22	230.15
783.54	229.89
783.86	229.83
784.19	229.78
784.51	229.91
784.83	229.77
785.16	229.68
785.48	229.57
785.80	229.49
786.12	229.45
786.45	229.41
786.77	229.34
787.09	229.30
787.42	228.94
787.74	228.90
788.06	228.92
788.38	228.86
788.71	228.86
789.03	228.89
789.35	228.91
789.67	228.81
789.99	228.77
790.32	228.77
790.64	228.83
790.96	229.22
791.28	229.02
791.61	228.97
791.93	228.95
792.25	228.95
792.57	229.34
792.89	229.26
793.21	229.26
793.54	229.22
793.86	229.10
794.18	229.16
794.50	229.10
794.82	229.05
795.14	229.08
795.47	229.11
795.79	229.05
796.11	228.95
796.43	228.85
796.75	228.79
797.07	228.82
797.39	228.72
797.71	228.33
798.04	228.36
798.36	228.34
798.68	228.33
799.00	228.32
799.32	228.00
799.64	228.05
799.96	227.98
800.28	228.02
800.60	228.05
800.92	227.98
801.24	227.92
801.56	227.97
801.89	227.93
802.21	227.91
802.53	227.80
802.85	227.89
803.17	228.16
803.49	228.11
803.81	227.97
804.13	227.95
804.45	227.96
804.77	227.94
805.09	227.95
805.41	227.84
805.73	227.74
806.05	227.66
806.37	227.65
806.69	227.58
807.01	227.58
807.33	227.62
807.65	227.59
807.97	227.74
808.28	227.64
808.60	227.61
808.92	227.55
809.24	227.88
809.56	227.84
809.88	227.67
810.20	227.72
810.52	227.81
810.84	227.74
811.16	227.65
811.48	227.62
811.80	227.82
812.12	227.81
812.43	227.91
812.75	227.96
813.07	227.92
813.39	227.97
813.71	227.91
814.03	227.81
814.35	227.82
814.67	227.64
814.98	227.70
815.30	227.73
815.62	227.65
815.94	227.29
816.26	227.41
816.58	227.31
816.89	227.29
817.21	227.24
817.53	227.35
817.85	227.33
818.17	227.33
818.48	227.12
818.80	227.27
819.12	227.17
819.44	227.08
819.76	227.02
820.07	227.06
820.39	226.99
820.71	227.04
821.03	227.02
821.34	226.98
821.66	226.96
821.98	226.93
822.30	226.94
822.61	227.30
822.93	227.04
823.25	227.08
823.57	227.08
823.88	227.12
824.20	227.08
824.52	227.21
824.83	227.20
825.15	227.18
825.47	227.12
825.79	227.22
826.10	227.24
826.42	227.19
826.74	227.20
827.05	227.20
827.37	227.17
827.69	227.13
828.00	227.20
828.32	227.20
828.64	227.17
828.95	227.40
829.27	227.27
829.58	227.29
829.90	227.32
830.22	227.38
830.53	227.28
830.85	227.20
831.17	227.02
831.48	227.01
831.80	227.01
832.11	227.02
832.43	226.91
832.75	226.88
833.06	227.24
833.38	227.04
833.69	227.05
834.01	227.09
834.32	227.10
834.64	227.06
834.96	227.09
835.27	227.12
835.59	226.98
835.90	226.87
836.22	226.87
836.53	226.80
836.85	226.72
837.16	227.22
837.48	227.25
837.79	227.46
838.11	227.49
838.42	227.50
838.74	227.55
839.05	227.53
839.37	227.55
839.68	227.24
840.00	227.27
840.31	227.32
840.63	227.25
840.94	227.18
841.26	227.08
841.57	227.05
841.88	227.09
842.20	226.96
842.51	226.88
842.83	226.85
843.14	227.25
843.46	227.22
843.77	226.95
844.08	226.92
844.40	226.76
844.71	226.65
845.03	226.63
845.34	226.53
845.65	226.51
845.97	226.39
846.28	226.39
846.60	226.38
846.91	226.30
847.22	226.26
847.54	226.37
847.85	226.41
848.16	226.34
848.48	226.22
848.79	226.40
849.10	226.43
849.42	226.49
849.73	226.01
850.04	226.07
850.36	225.82
850.67	225.90
850.98	225.85
851.30	225.88
851.61	225.89
851.92	225.93
852.23	226.02
852.55	226.01
852.86	226.00
853.17	226.07
853.49	226.14
853.80	226.26
854.11	226.31
854.42	226.42
854.74	226.39
855.05	226.36
855.36	226.14
855.67	226.17
855.99	226.19
856.30	226.79
856.61	226.70
856.92	226.75
857.23	226.75
857.55	226.74
857.86	226.72
858.17	226.77
858.48	226.69
858.79	226.64
859.11	226.80
859.42	226.81
859.73	226.75
860.04	226.70
860.35	226.53
860.66	226.40
860.98	226.35
861.29	226.39
861.60	226.43
861.91	226.59
862.22	226.47
862.53	226.39
862.84	225.80
863.16	225.94
863.47	225.90
863.78	225.86
864.09	225.96
864.40	225.99
864.71	225.98
865.02	226.05
865.33	226.01
865.64	225.90
865.95	225.95
866.27	226.31
866.58	226.33
866.89	226.45
867.20	226.44
867.51	226.35
867.82	226.36
868.13	226.50
868.44	226.34
868.75	226.44
869.06	226.45
869.37	226.51
869.68	226.35
869.99	226.42
870.30	226.44
870.61	226.48
870.92	226.51
871.23	226.47
871.54	226.54
871.85	226.70
872.16	226.80
872.47	226.68
872.78	226.38
873.09	226.45
873.40	226.42
873.71	226.41
874.02	226.50
874.33	226.50
874.64	226.40
874.95	226.54
875.26	226.49
875.56	226.50
875.87	226.46
876.18	226.43
876.49	226.93
876.80	226.92
877.11	226.79
877.42	226.72
877.73	226.75
878.04	226.67
878.35	226.62
878.66	226.61
878.96	226.64
879.27	226.62
879.58	226.58
879.89	226.56
880.20	226.71
880.51	226.64
880.82	226.61
881.12	226.64
881.43	226.55
881.74	226.51
882.05	226.52
882.36	226.55
882.67	226.65
882.97	226.10
883.28	226.04
883.59	225.97
883.90	226.11
884.21	226.13
884.51	226.12
884.82	226.05
885.13	226.01
885.44	225.96
885.74	226.00
886.05	225.99
886.36	226.00
886.67	225.85
886.98	226.14
887.28	226.20
887.59	226.16
887.90	226.18
888.20	226.13
888.51	226.23
888.82	226.18
889.13	226.14
889.43	226.52
889.74	226.47
890.05	226.54
890.35	226.46
890.66	226.34
890.97	226.25
891.28	226.19
891.58	226.15
891.89	226.18
892.20	226.15
892.50	226.07
892.81	225.98
893.12	225.94
893.42	225.63
893.73	225.61
894.04	225.63
894.34	225.65
894.65	225.60
894.95	225.51
895.26	225.50
895.57	225.71
895.87	225.26
896.18	225.36
896.48	225.40
896.79	225.39
897.10	225.50
897.40	225.56
897.71	225.65
898.01	225.61
898.32	225.68
898.63	225.59
898.93	225.65
899.24	225.75
899.54	225.73
899.85	225.80
900.15	225.74
900.46	225.67
900.76	225.71
901.07	225.72
901.38	225.69
901.68	225.81
901.99	225.68
902.29	225.68
902.60	225.63
902.90	225.59
903.21	225.56
903.51	225.53
903.82	225.62
904.12	225.61
904.43	225.68
904.73	225.59
905.03	225.63
905.34	226.01
905.64	225.95
905.95	226.00
906.25	226.01
906.56	226.06
906.86	226.18
907.17	226.17
907.47	226.22
907.77	226.22
908.08	226.15
908.38	226.11
908.69	226.15
908.99	226.30
909.30	226.41
909.60	226.43
909.90	226.47
910.21	226.37
910.51	226.26
910.81	226.21
911.12	226.29
911.42	226.35
911.73	225.96
912.03	226.01
912.33	226.09
912.64	226.04
912.94	225.93
913.24	225.80
913.55	225.69
913.85	225.70
914.15	225.79
914.46	225.78
914.76	225.75
915.06	225.75
915.37	225.62
915.67	225.49
915.97	225.54
916.27	225.50
916.58	225.49
916.88	225.54
917.18	225.52
917.49	225.85
917.79	225.81
918.09	225.82
918.39	225.87
918.70	225.86
919.00	225.84
919.30	226.09
919.60	226.05
919.91	225.99
920.21	226.05
920.51	225.85
920.81	225.86
921.12	225.95
921.42	225.95
921.72	226.03
922.02	226.07
922.32	226.14
922.63	226.05
922.93	226.27
923.23	226.32
923.53	226.29
923.83	225.91
924.13	226.02
924.44	226.01
924.74	226.12
925.04	226.15
925.34	226.11
925.64	225.99
925.94	226.01
926.24	226.38
926.55	226.27
926.85	226.46
927.15	226.46
927.45	226.43
927.75	226.40
928.05	226.36
928.35	226.34
928.65	226.31
928.95	226.34
929.26	226.12
929.56	226.13
929.86	226.26
930.16	226.22
930.46	226.16
930.76	226.19
931.06	225.90
931.36	225.83
931.66	225.97
931.96	225.98
932.26	225.99
932.56	225.75
932.86	225.81
933.16	225.77
933.46	225.67
933.76	225.56
934.06	225.73
934.36	225.88
934.66	225.87
934.96	225.81
935.26	225.88
935.56	225.95
935.86	225.89
936.16	225.80
936.46	225.77
936.76	225.71
937.06	225.64
937.36	225.70
937.66	225.72
937.96	225.69
938.26	225.58
938.56	225.49
938.86	225.50
939.16	225.66
939.46	225.63
939.76	225.72
940.06	225.72
940.35	225.58
940.65	225.34
940.95	225.35
941.25	225.31
941.55	225.25
941.85	225.21
942.15	225.32
942.45	225.42
942.75	225.43
943.04	225.47
943.34	225.59
943.64	225.62
943.94	225.57
944.24	225.53
944.54	225.55
944.84	225.65
945.13	225.57
945.43	225.45
945.73	225.51
946.03	225.52
946.33	225.55
946.62	225.50
946.92	225.55
947.22	225.56
947.52	225.59
947.82	225.65
948.11	225.72
948.41	225.58
948.71	225.52
949.01	225.60
949.31	225.58
949.60	225.50
949.90	225.55
950.20	225.52
950.50	225.55
950.79	225.53
951.09	225.58
951.39	225.61
951.69	225.51
951.98	225.66
952.28	225.59
952.58	225.54
952.87	225.58
953.17	225.67
953.47	225.64
953.76	225.65
954.06	225.57
954.36	225.44
954.66	225.46
954.95	225.50
955.25	225.51
955.55	225.57
955.84	225.50
956.14	225.50
956.44	225.54
956.73	225.46
957.03	225.46
957.32	225.42
957.62	225.34
957.92	225.48
958.21	225.37
958.51	225.87
958.81	225.95
959.10	226.00
959.40	226.03
959.69	226.02
959.99	226.08
960.29	226.10
960.58	226.07
960.88	226.32
961.17	226.26
961.47	226.38
961.76	226.30
962.06	226.33
962.36	226.26
962.65	226.28
962.95	226.31
963.24	226.23
963.54	226.28
963.83	226.33
964.13	226.28
964.42	226.09
964.72	225.82
965.01	225.87
965.31	225.83
965.60	225.80
965.90	226.12
966.19	225.97
966.49	225.96
966.78	226.06
967.08	225.95
967.37	225.94
967.67	225.77
967.96	225.84
968.26	225.84
968.55	225.87
968.85	225.84
969.14	225.89
969.43	225.93
969.73	225.87
970.02	225.90
970.32	225.86
970.61	225.95
970.91	225.74
971.20	225.68
971.49	225.68
971.79	225.65
972.08	225.39
972.38	225.43
972.67	225.39
972.96	225.37
973.26	225.26
973.55	225.47
973.85	225.52
974.14	225.54
974.43	225.61
974.73	225.60
975.02	225.56
975.31	225.55
975.61	225.64
975.90	225.60
976.19	225.55
976.49	225.62
976.78	225.59
977.07	225.62
977.37	225.60
977.66	225.55
977.95	225.55
978.24	225.53
978.54	225.65
978.83	225.66
979.12	225.60
979.42	225.62
979.71	225.46
980.00	225.40
980.29	225.40
980.59	225.25
980.88	225.40
981.17	225.41
981.46	225.42
981.76	225.36
982.05	225.49
982.34	225.46
982.63	225.43
982.93	225.42
983.22	225.53
983.51	225.55
983.80	225.66
984.09	225.65
984.39	225.58
984.68	225.50
984.97	225.56
985.26	225.53
985.55	225.62
985.85	225.55
986.14	225.62
986.43	225.67
986.72	225.65
987.01	225.49
987.30	225.49
987.59	225.44
987.89	225.41
988.18	225.35
988.47	225.39
988.76	225.38
989.05	225.36
989.34	225.29
989.63	225.41
989.92	225.35
990.22	225.33
990.51	225.32
990.80	225.29
991.09	225.29
991.38	225.44
991.67	225.37
991.96	225.35
992.25	225.38
992.54	225.24
992.83	225.28
993.12	225.21
993.41	225.28
993.70	225.45
993.99	225.62
994.28	225.66
994.58	225.74
994.87	225.66
995.16	225.65
995.45	225.58
995.74	225.39
996.03	225.46
996.32	225.48
996.61	225.62
996.90	225.57
997.19	225.60
997.48	225.56
997.77	225.48
998.06	225.48
998.34	225.44
998.63	225.45
998.92	225.57
999.21	225.60
999.50	225.59
999.79	225.39
1000.08	225.36
1000.37	225.34
1000.66	225.24
1000.95	225.36
1001.24	225.40
1001.53	225.50
1001.82	225.55
1002.11	225.43
1002.40	225.47
1002.68	225.60
1002.97	225.92
1003.26	225.78
1003.55	225.72
1003.84	225.80
1004.13	225.96
1004.42	225.92
1004.71	225.91
1004.99	225.75
1005.28	225.88
1005.57	225.86
1005.86	225.82
1006.15	225.72
1006.44	225.64
1006.72	225.72
1007.01	225.68
1007.30	225.65
1007.59	225.55
1007.88	225.53
1008.17	225.54
1008.45	225.41
1008.74	225.19
1009.03	224.99
1009.32	225.00
1009.60	225.01
1009.89	224.96
1010.18	224.82
1010.47	224.83
1010.76	224.83
1011.04	224.90
1011.33	224.99
1011.62	225.04
1011.91	225.08
1012.19	225.16
1012.48	225.25
1012.77	225.21
1013.05	225.38
1013.34	225.39
1013.63	225.40
1013.92	225.49
1014.20	225.48
1014.49	225.51
1014.78	225.56
1015.06	225.43
1015.35	225.46
1015.64	225.62
1015.92	225.62
1016.21	225.63
1016.50	225.67
1016.78	225.76
1017.07	225.74
1017.36	225.61
1017.64	225.53
1017.93	225.58
1018.22	225.53
1018.50	225.52
1018.79	225.50
1019.08	225.25
1019.36	225.32
1019.65	225.22
1019.93	225.23
1020.22	225.34
1020.51	225.61
1020.79	225.55
1021.08	225.45
1021.36	225.30
1021.65	225.00
1021.94	224.30
1022.22	225.80
1022.51	222.80
1022.79	226.40
1023.08	227.20
1023.36	230.80
1023.65	224.15
>>>>>End Processed Spectral Data<<<<<
