SpectraSuite Data File
++++++++++++++++++++++++++++++++++++
Date: Wed Sep 04 17:45:47 EDT 2013
User: lab3
Dark Spectrum Present: Yes
Reference Spectrum Present: No
Number of Sampled Component Spectra: 1
Spectrometers: USB2E7196
Integration Time (usec): 170000 (USB2E7196)
Spectra Averaged: 20 (USB2E7196)
Boxcar Smoothing: 10 (USB2E7196)
Correct for Electrical Dark: No (USB2E7196)
Strobe/Lamp Enabled: No (USB2E7196)
Correct for Detector Non-linearity: No (USB2E7196)
Correct for Stray Light: No (USB2E7196)
Number of Pixels in Processed Spectrum: 2048
>>>>>Begin Processed Spectral Data<<<<<
339.09	0.00
339.48	212.15
339.86	213.35
340.24	214.85
340.63	215.95
341.01	226.90
341.39	219.50
341.78	221.25
342.16	222.65
342.54	223.75
342.93	212.05
343.31	222.79
343.69	223.37
344.07	223.89
344.46	224.42
344.84	224.91
345.22	224.79
345.60	225.07
345.99	225.25
346.37	225.40
346.75	225.47
347.13	225.48
347.52	225.61
347.90	225.77
348.28	225.77
348.66	225.88
349.05	225.72
349.43	225.80
349.81	225.91
350.19	225.94
350.57	225.96
350.96	226.02
351.34	226.05
351.72	226.16
352.10	226.23
352.48	226.19
352.87	226.15
353.25	226.24
353.63	226.23
354.01	226.30
354.39	226.39
354.77	226.49
355.15	226.65
355.54	226.66
355.92	226.48
356.30	226.57
356.68	226.90
357.06	226.94
357.44	226.98
357.82	227.04
358.20	227.53
358.58	227.62
358.97	227.65
359.35	227.85
359.73	227.97
360.11	228.08
360.49	228.17
360.87	228.31
361.25	228.45
361.63	228.65
362.01	228.73
362.39	228.68
362.77	228.70
363.15	228.75
363.53	228.76
363.91	228.87
364.29	228.95
364.67	228.54
365.05	228.60
365.43	228.68
365.81	228.73
366.19	228.61
366.57	228.80
366.95	228.83
367.33	228.70
367.71	228.74
368.09	228.80
368.47	228.86
368.85	228.78
369.23	228.85
369.61	228.80
369.99	228.95
370.37	229.07
370.75	229.32
371.13	229.22
371.51	229.15
371.89	229.10
372.27	229.09
372.65	229.15
373.03	229.15
373.41	229.10
373.78	229.00
374.16	228.69
374.54	228.55
374.92	228.55
375.30	228.51
375.68	228.31
376.06	228.29
376.44	228.14
376.82	228.15
377.19	228.11
377.57	228.04
377.95	227.77
378.33	227.60
378.71	227.25
379.09	227.32
379.47	227.34
379.84	227.25
380.22	227.08
380.60	226.91
380.98	226.84
381.36	226.77
381.73	226.74
382.11	226.75
382.49	226.68
382.87	226.52
383.25	226.48
383.62	227.05
384.00	226.91
384.38	226.88
384.76	226.91
385.13	227.05
385.51	226.99
385.89	226.96
386.27	227.05
386.64	227.09
387.02	226.91
387.40	226.87
387.78	226.90
388.15	226.88
388.53	226.77
388.91	226.73
389.29	226.61
389.66	226.58
390.04	226.48
390.42	226.56
390.79	226.59
391.17	226.57
391.55	225.96
391.92	226.00
392.30	226.04
392.68	225.93
393.05	225.79
393.43	225.83
393.81	225.88
394.18	225.72
394.56	225.73
394.94	225.93
395.31	225.89
395.69	226.10
396.06	226.19
396.44	226.27
396.82	226.30
397.19	226.57
397.57	226.59
397.95	226.77
398.32	226.69
398.70	226.76
399.07	226.92
399.45	226.99
399.82	227.00
400.20	227.03
400.58	227.13
400.95	227.09
401.33	227.27
401.70	227.70
402.08	227.88
402.45	228.02
402.83	228.19
403.20	228.32
403.58	228.30
403.95	228.53
404.33	228.82
404.71	228.97
405.08	229.40
405.46	229.58
405.83	229.80
406.21	230.10
406.58	230.40
406.96	230.56
407.33	230.89
407.70	231.29
408.08	232.10
408.45	232.54
408.83	233.04
409.20	233.36
409.58	233.43
409.95	234.01
410.33	234.55
410.70	234.90
411.08	235.50
411.45	236.11
411.82	236.66
412.20	237.43
412.57	238.45
412.95	238.87
413.32	239.78
413.69	240.57
414.07	241.40
414.44	242.35
414.82	243.49
415.19	244.70
415.56	245.81
415.94	246.72
416.31	248.10
416.68	249.45
417.06	251.10
417.43	252.80
417.81	254.48
418.18	256.16
418.55	258.08
418.93	260.12
419.30	262.28
419.67	264.48
420.04	266.66
420.42	268.90
420.79	271.89
421.16	274.68
421.54	277.78
421.91	280.70
422.28	283.72
422.66	286.91
423.03	290.22
423.40	293.53
423.77	297.01
424.15	300.64
424.52	304.36
424.89	308.40
425.26	312.26
425.64	316.06
426.01	320.24
426.38	324.52
426.75	328.88
427.13	333.24
427.50	337.95
427.87	342.78
428.24	347.67
428.61	352.04
428.99	357.13
429.36	362.49
429.73	367.89
430.10	373.30
430.47	378.92
430.85	384.40
431.22	390.45
431.59	397.16
431.96	403.06
432.33	409.86
432.70	416.43
433.08	424.05
433.45	431.19
433.82	438.37
434.19	446.49
434.56	454.39
434.93	461.91
435.30	469.42
435.68	477.73
436.05	485.75
436.42	493.84
436.79	501.32
437.16	509.30
437.53	517.86
437.90	526.36
438.27	534.64
438.64	543.39
439.01	551.45
439.38	558.33
439.75	565.31
440.13	573.15
440.50	580.46
440.87	586.51
441.24	592.78
441.61	599.60
441.98	604.37
442.35	610.03
442.72	615.86
443.09	621.67
443.46	625.15
443.83	627.61
444.20	629.68
444.57	632.43
444.94	633.64
445.31	634.79
445.68	636.14
446.05	636.28
446.42	635.00
446.79	633.69
447.16	632.25
447.53	631.04
447.90	627.40
448.27	623.80
448.64	618.98
449.01	615.28
449.37	609.19
449.74	603.43
450.11	596.75
450.48	589.16
450.85	581.29
451.22	574.46
451.59	567.89
451.96	561.68
452.33	553.77
452.70	546.48
453.07	537.90
453.43	529.06
453.80	520.90
454.17	513.16
454.54	505.58
454.91	497.49
455.28	489.81
455.65	482.57
456.02	475.92
456.38	469.68
456.75	462.16
457.12	455.81
457.49	449.61
457.86	443.46
458.23	438.60
458.59	433.01
458.96	427.44
459.33	422.55
459.70	417.55
460.07	413.44
460.43	408.84
460.80	404.84
461.17	401.13
461.54	397.22
461.91	393.50
462.27	389.79
462.64	386.61
463.01	383.10
463.38	379.86
463.74	375.88
464.11	372.90
464.48	370.34
464.85	367.73
465.21	365.72
465.58	363.50
465.95	360.60
466.32	358.45
466.68	356.19
467.05	353.98
467.42	351.81
467.78	349.62
468.15	347.60
468.52	345.93
468.88	343.72
469.25	341.88
469.62	340.40
469.98	338.83
470.35	337.40
470.72	335.92
471.08	334.27
471.45	333.10
471.82	331.94
472.18	330.58
472.55	329.45
472.92	328.10
473.28	327.00
473.65	326.05
474.02	324.97
474.38	324.13
474.75	323.46
475.11	322.62
475.48	321.99
475.85	321.35
476.21	320.79
476.58	320.36
476.94	320.06
477.31	319.50
477.67	319.04
478.04	318.67
478.41	318.55
478.77	318.75
479.14	318.46
479.50	318.28
479.87	318.28
480.23	318.27
480.60	318.31
480.96	318.35
481.33	318.66
481.69	318.83
482.06	319.11
482.42	319.27
482.79	319.66
483.15	320.05
483.52	320.69
483.88	321.13
484.25	321.61
484.61	322.26
484.98	323.03
485.34	323.96
485.71	324.87
486.07	325.77
486.44	326.45
486.80	327.50
487.17	328.72
487.53	330.16
487.90	331.56
488.26	333.21
488.62	334.71
488.99	336.21
489.35	338.04
489.72	339.85
490.08	341.86
490.44	343.80
490.81	346.09
491.17	348.20
491.54	350.66
491.90	353.27
492.26	355.78
492.63	358.51
492.99	361.34
493.36	364.47
493.72	367.79
494.08	371.11
494.45	374.87
494.81	378.70
495.17	382.42
495.54	386.66
495.90	390.70
496.26	395.21
496.63	399.80
496.99	404.51
497.35	409.71
497.72	414.96
498.08	420.40
498.44	425.88
498.80	431.98
499.17	437.92
499.53	444.10
499.89	450.78
500.26	457.58
500.62	464.49
500.98	471.84
501.34	479.06
501.71	486.75
502.07	494.42
502.43	502.37
502.79	510.80
503.16	519.33
503.52	528.29
503.88	537.55
504.24	547.21
504.60	557.01
504.97	567.12
505.33	577.51
505.69	588.57
506.05	599.63
506.41	610.70
506.78	622.28
507.14	634.28
507.50	646.29
507.86	658.75
508.22	671.64
508.59	684.32
508.95	697.89
509.31	711.87
509.67	726.15
510.03	740.25
510.39	754.62
510.75	769.41
511.12	784.35
511.48	799.74
511.84	815.16
512.20	830.89
512.56	846.83
512.92	863.24
513.28	879.50
513.64	896.45
514.00	913.50
514.37	930.94
514.73	948.65
515.09	966.71
515.45	984.91
515.81	1003.00
516.17	1021.65
516.53	1039.95
516.89	1058.25
517.25	1077.16
517.61	1096.88
517.97	1116.90
518.33	1136.58
518.69	1156.62
519.05	1176.75
519.41	1197.17
519.77	1217.90
520.13	1238.10
520.49	1258.36
520.85	1279.26
521.21	1300.02
521.57	1320.98
521.93	1341.20
522.29	1362.06
522.65	1382.15
523.01	1402.62
523.37	1422.92
523.73	1443.42
524.09	1463.73
524.45	1484.10
524.81	1504.26
525.17	1524.64
525.53	1544.87
525.89	1565.33
526.25	1585.53
526.61	1605.14
526.97	1625.62
527.33	1646.24
527.68	1667.61
528.04	1688.36
528.40	1708.67
528.76	1728.99
529.12	1749.02
529.48	1769.48
529.84	1788.90
530.20	1809.87
530.56	1829.92
530.91	1850.41
531.27	1870.14
531.63	1890.26
531.99	1910.08
532.35	1929.89
532.71	1949.60
533.07	1969.11
533.42	1988.25
533.78	2007.64
534.14	2027.12
534.50	2045.56
534.86	2064.06
535.21	2081.00
535.57	2099.11
535.93	2116.35
536.29	2133.32
536.65	2150.99
537.00	2167.84
537.36	2184.99
537.72	2200.62
538.08	2217.22
538.44	2232.96
538.79	2248.89
539.15	2264.42
539.51	2279.93
539.87	2294.36
540.22	2307.59
540.58	2321.60
540.94	2334.51
541.29	2346.43
541.65	2358.50
542.01	2370.40
542.37	2380.47
542.72	2391.24
543.08	2401.18
543.44	2412.01
543.79	2421.80
544.15	2430.91
544.51	2440.76
544.87	2449.57
545.22	2457.90
545.58	2465.00
545.94	2471.74
546.29	2477.67
546.65	2483.61
547.01	2489.05
547.36	2494.01
547.72	2499.16
548.07	2502.67
548.43	2507.50
548.79	2511.89
549.14	2515.55
549.50	2519.02
549.86	2522.59
550.21	2525.56
550.57	2528.30
550.92	2529.30
551.28	2530.17
551.64	2532.10
551.99	2533.26
552.35	2534.54
552.70	2536.01
553.06	2537.09
553.41	2538.14
553.77	2539.69
554.13	2540.80
554.48	2541.68
554.84	2542.76
555.19	2543.44
555.55	2544.68
555.90	2543.61
556.26	2542.30
556.61	2540.43
556.97	2537.91
557.32	2536.92
557.68	2535.71
558.03	2533.79
558.39	2532.02
558.74	2530.75
559.10	2527.16
559.45	2523.20
559.81	2518.22
560.16	2512.74
560.52	2508.13
560.87	2503.43
561.23	2497.58
561.58	2491.61
561.94	2484.34
562.29	2476.80
562.64	2469.97
563.00	2461.83
563.35	2454.88
563.71	2448.31
564.06	2441.67
564.42	2434.90
564.77	2427.81
565.12	2420.02
565.48	2412.45
565.83	2404.61
566.19	2396.72
566.54	2388.55
566.89	2380.80
567.25	2373.61
567.60	2366.73
567.96	2358.90
568.31	2350.82
568.66	2342.51
569.02	2333.38
569.37	2325.54
569.72	2318.05
570.08	2308.57
570.43	2299.24
570.78	2290.56
571.14	2281.06
571.49	2271.26
571.84	2261.84
572.20	2251.03
572.55	2241.05
572.90	2230.21
573.26	2220.33
573.61	2209.42
573.96	2198.84
574.31	2186.72
574.67	2174.94
575.02	2162.23
575.37	2150.02
575.72	2137.15
576.08	2125.30
576.43	2113.21
576.78	2100.44
577.13	2087.25
577.49	2074.91
577.84	2063.15
578.19	2050.92
578.54	2038.68
578.90	2026.95
579.25	2014.94
579.60	2002.96
579.95	1990.36
580.30	1977.97
580.66	1964.78
581.01	1951.69
581.36	1938.10
581.71	1926.05
582.06	1913.44
582.42	1901.40
582.77	1889.04
583.12	1877.66
583.47	1865.67
583.82	1854.17
584.17	1842.51
584.53	1830.83
584.88	1818.25
585.23	1805.46
585.58	1792.01
585.93	1779.21
586.28	1766.31
586.63	1752.70
586.98	1738.88
587.34	1726.05
587.69	1713.23
588.04	1701.00
588.39	1689.25
588.74	1677.45
589.09	1665.84
589.44	1653.58
589.79	1641.72
590.14	1629.85
590.49	1617.79
590.84	1606.04
591.19	1594.13
591.54	1582.29
591.89	1570.69
592.25	1561.06
592.60	1549.88
592.95	1538.86
593.30	1527.34
593.65	1515.66
594.00	1504.26
594.35	1494.95
594.70	1483.63
595.05	1472.64
595.40	1460.81
595.75	1449.50
596.10	1438.57
596.45	1427.31
596.80	1416.80
597.15	1405.85
597.50	1394.70
597.85	1384.01
598.19	1372.60
598.54	1361.25
598.89	1350.24
599.24	1339.84
599.59	1328.33
599.94	1318.18
600.29	1308.27
600.64	1298.54
600.99	1288.41
601.34	1279.14
601.69	1268.27
602.04	1258.74
602.39	1249.41
602.74	1240.85
603.08	1231.63
603.43	1222.74
603.78	1213.45
604.13	1204.01
604.48	1194.76
604.83	1185.26
605.18	1175.42
605.53	1166.32
605.87	1157.56
606.22	1149.55
606.57	1140.60
606.92	1131.57
607.27	1122.80
607.62	1114.25
607.96	1105.69
608.31	1098.09
608.66	1090.02
609.01	1081.83
609.36	1073.65
609.70	1065.28
610.05	1057.02
610.40	1048.77
610.75	1040.47
611.10	1032.43
611.44	1024.38
611.79	1016.60
612.14	1009.11
612.49	1001.81
612.83	994.62
613.18	987.26
613.53	979.56
613.88	971.97
614.22	964.81
614.57	957.10
614.92	949.47
615.27	942.44
615.61	935.03
615.96	927.52
616.31	920.35
616.65	913.55
617.00	906.31
617.35	899.09
617.70	892.18
618.04	885.24
618.39	878.38
618.74	872.21
619.08	865.40
619.43	858.65
619.78	851.93
620.12	845.06
620.47	838.35
620.82	831.48
621.16	824.94
621.51	818.57
621.85	812.55
622.20	806.30
622.55	799.89
622.89	793.65
623.24	787.56
623.59	781.54
623.93	775.45
624.28	769.69
624.62	764.38
624.97	758.79
625.32	753.18
625.66	747.47
626.01	741.49
626.35	736.21
626.70	731.10
627.04	725.98
627.39	720.61
627.73	715.70
628.08	710.82
628.43	705.70
628.77	700.58
629.12	695.51
629.46	691.00
629.81	686.56
630.15	681.96
630.50	677.34
630.84	672.63
631.19	668.03
631.53	663.66
631.88	658.61
632.22	654.01
632.57	649.95
632.91	645.62
633.26	641.54
633.60	637.19
633.95	632.77
634.29	628.17
634.64	624.13
634.98	619.49
635.32	615.22
635.67	611.31
636.01	607.32
636.36	603.16
636.70	599.13
637.05	594.98
637.39	590.93
637.73	586.91
638.08	583.08
638.42	579.13
638.77	574.91
639.11	570.74
639.45	566.60
639.80	562.30
640.14	558.42
640.49	554.45
640.83	550.69
641.17	547.07
641.52	543.55
641.86	540.09
642.20	537.01
642.55	533.48
642.89	529.94
643.23	526.47
643.58	523.47
643.92	519.89
644.26	516.56
644.61	513.48
644.95	510.38
645.29	507.14
645.64	503.97
645.98	501.10
646.32	498.46
646.66	495.47
647.01	492.64
647.35	490.00
647.69	487.26
648.04	484.56
648.38	481.80
648.72	479.06
649.06	476.08
649.41	473.15
649.75	470.26
650.09	467.46
650.43	464.64
650.78	461.83
651.12	459.10
651.46	456.41
651.80	453.73
652.14	451.10
652.49	448.58
652.83	446.12
653.17	443.55
653.51	440.86
653.85	438.63
654.20	436.15
654.54	433.55
654.88	431.10
655.22	428.94
655.56	426.53
655.90	424.18
656.25	422.01
656.59	419.89
656.93	417.81
657.27	415.86
657.61	413.70
657.95	411.42
658.29	409.33
658.64	407.34
658.98	405.30
659.32	403.13
659.66	401.05
660.00	399.07
660.34	397.05
660.68	395.19
661.02	393.15
661.36	391.31
661.70	389.35
662.05	387.45
662.39	385.46
662.73	383.80
663.07	382.30
663.41	380.55
663.75	378.64
664.09	376.89
664.43	375.06
664.77	373.53
665.11	371.98
665.45	370.47
665.79	368.83
666.13	367.01
666.47	365.41
666.81	363.87
667.15	362.14
667.49	360.71
667.83	359.36
668.17	357.94
668.51	356.51
668.85	355.32
669.19	354.28
669.53	352.88
669.87	351.40
670.21	349.83
670.55	348.48
670.89	347.45
671.23	346.13
671.57	344.76
671.91	343.39
672.25	341.99
672.58	340.74
672.92	339.42
673.26	338.34
673.60	337.32
673.94	336.13
674.28	335.13
674.62	334.13
674.96	332.84
675.30	331.63
675.64	330.45
675.97	329.28
676.31	327.94
676.65	326.64
676.99	325.77
677.33	324.69
677.67	323.66
678.01	322.33
678.34	321.39
678.68	320.51
679.02	319.50
679.36	318.64
679.70	317.61
680.04	316.71
680.37	315.76
680.71	314.74
681.05	313.86
681.39	312.95
681.73	311.94
682.06	311.08
682.40	310.31
682.74	309.61
683.08	308.89
683.42	307.98
683.75	307.36
684.09	306.39
684.43	305.67
684.77	304.80
685.10	303.94
685.44	303.12
685.78	302.23
686.12	301.44
686.45	300.63
686.79	299.87
687.13	299.20
687.46	298.50
687.80	297.79
688.14	296.97
688.48	296.20
688.81	295.46
689.15	294.87
689.49	294.10
689.82	293.36
690.16	292.47
690.50	291.80
690.83	291.00
691.17	290.21
691.51	289.40
691.84	288.80
692.18	288.23
692.52	287.54
692.85	287.04
693.19	286.62
693.52	286.00
693.86	285.35
694.20	284.72
694.53	284.02
694.87	283.45
695.21	282.88
695.54	282.30
695.88	281.62
696.21	280.78
696.55	280.19
696.88	279.53
697.22	278.99
697.56	278.47
697.89	277.93
698.23	277.48
698.56	277.00
698.90	276.52
699.23	275.95
699.57	275.52
699.90	274.88
700.24	274.14
700.58	273.74
700.91	273.35
701.25	273.25
701.58	273.15
701.92	272.80
702.25	272.36
702.59	271.91
702.92	271.51
703.26	271.18
703.59	270.77
703.93	270.80
704.26	270.44
704.60	270.07
704.93	269.61
705.26	269.15
705.60	268.80
705.93	268.37
706.27	268.15
706.60	267.84
706.94	267.62
707.27	267.27
707.61	266.83
707.94	266.43
708.27	265.66
708.61	264.94
708.94	264.43
709.28	264.07
709.61	263.69
709.94	263.36
710.28	263.00
710.61	262.64
710.95	261.82
711.28	261.74
711.61	261.38
711.95	261.23
712.28	260.86
712.61	260.49
712.95	260.32
713.28	260.18
713.61	259.68
713.95	259.26
714.28	258.95
714.61	258.59
714.95	258.25
715.28	257.84
715.61	257.43
715.95	257.16
716.28	256.75
716.61	256.49
716.95	256.15
717.28	255.90
717.61	255.62
717.94	255.37
718.28	254.77
718.61	254.36
718.94	253.98
719.27	253.78
719.61	253.63
719.94	253.26
720.27	252.70
720.60	252.44
720.94	252.27
721.27	252.02
721.60	251.98
721.93	251.71
722.27	251.59
722.60	251.45
722.93	251.23
723.26	251.10
723.59	250.81
723.93	250.62
724.26	250.43
724.59	250.18
724.92	249.96
725.25	249.86
725.59	249.65
725.92	249.55
726.25	249.30
726.58	249.06
726.91	248.80
727.24	248.75
727.57	248.61
727.91	248.26
728.24	248.18
728.57	247.90
728.90	247.81
729.23	247.58
729.56	247.66
729.89	247.45
730.22	247.24
730.55	247.11
730.89	246.96
731.22	246.71
731.55	246.50
731.88	246.39
732.21	246.10
732.54	245.95
732.87	245.76
733.20	245.65
733.53	245.50
733.86	245.43
734.19	245.22
734.52	245.17
734.85	245.33
735.18	245.06
735.51	244.98
735.84	244.84
736.17	244.82
736.50	244.31
736.83	244.76
737.16	244.52
737.49	244.47
737.82	244.26
738.15	244.14
738.48	244.03
738.81	243.81
739.14	243.65
739.47	243.50
739.80	243.31
740.13	243.18
740.46	242.95
740.79	242.75
741.12	242.59
741.45	242.39
741.78	242.03
742.11	242.10
742.44	241.87
742.77	241.80
743.10	241.54
743.43	241.48
743.75	240.79
744.08	241.36
744.41	241.11
744.74	241.04
745.07	240.89
745.40	240.84
745.73	240.99
746.06	240.90
746.39	240.91
746.71	240.72
747.04	240.51
747.37	240.37
747.70	240.37
748.03	240.24
748.36	240.14
748.68	240.05
749.01	239.72
749.34	239.58
749.67	239.41
750.00	239.36
750.33	239.64
750.65	239.59
750.98	238.90
751.31	238.80
751.64	238.67
751.97	238.76
752.29	238.65
752.62	238.20
752.95	238.10
753.28	237.87
753.60	237.77
753.93	237.84
754.26	237.82
754.59	237.52
754.91	237.39
755.24	237.15
755.57	237.03
755.90	236.94
756.22	236.86
756.55	236.68
756.88	236.49
757.20	236.04
757.53	235.74
757.86	235.59
758.19	235.55
758.51	235.46
758.84	235.20
759.17	235.05
759.49	235.03
759.82	235.07
760.15	234.98
760.47	234.90
760.80	234.63
761.13	234.55
761.45	234.50
761.78	234.43
762.11	234.48
762.43	234.34
762.76	234.24
763.08	234.16
763.41	234.18
763.74	234.06
764.06	233.99
764.39	234.06
764.71	234.05
765.04	233.89
765.37	233.70
765.69	233.55
766.02	233.44
766.34	233.46
766.67	233.25
767.00	233.26
767.32	233.42
767.65	233.66
767.97	233.52
768.30	233.47
768.62	233.35
768.95	233.21
769.27	233.12
769.60	233.10
769.92	232.93
770.25	232.72
770.57	232.63
770.90	232.53
771.22	232.31
771.55	232.22
771.87	232.20
772.20	232.20
772.52	232.61
772.85	233.11
773.17	232.99
773.50	232.87
773.82	232.76
774.15	232.50
774.47	232.13
774.80	232.09
775.12	232.09
775.45	232.05
775.77	231.95
776.09	231.95
776.42	231.96
776.74	232.14
777.07	232.11
777.39	232.12
777.72	232.03
778.04	232.12
778.36	232.04
778.69	232.01
779.01	232.02
779.33	231.50
779.66	230.94
779.98	230.85
780.31	230.92
780.63	231.09
780.95	231.12
781.28	231.08
781.60	230.95
781.92	230.89
782.25	230.81
782.57	230.83
782.89	230.75
783.22	230.67
783.54	230.49
783.86	230.49
784.19	230.48
784.51	230.65
784.83	230.50
785.16	230.43
785.48	230.46
785.80	230.43
786.12	230.49
786.45	230.46
786.77	230.45
787.09	230.35
787.42	230.07
787.74	230.08
788.06	230.15
788.38	230.18
788.71	230.09
789.03	230.14
789.35	230.19
789.67	230.15
789.99	230.16
790.32	230.13
790.64	230.15
790.96	230.47
791.28	230.25
791.61	230.23
791.93	230.25
792.25	230.20
792.57	230.47
792.89	230.30
793.21	230.30
793.54	230.26
793.86	230.18
794.18	230.20
794.50	230.02
794.82	229.91
795.14	229.92
795.47	229.99
795.79	230.01
796.11	229.83
796.43	229.80
796.75	229.74
797.07	229.77
797.39	229.72
797.71	229.35
798.04	229.35
798.36	229.39
798.68	229.34
799.00	229.31
799.32	228.96
799.64	229.07
799.96	229.03
800.28	229.11
800.60	229.12
800.92	229.17
801.24	229.19
801.56	229.21
801.89	229.17
802.21	229.12
802.53	228.92
802.85	229.03
803.17	229.27
803.49	229.16
803.81	229.06
804.13	229.02
804.45	228.93
804.77	228.98
805.09	228.95
805.41	228.91
805.73	228.81
806.05	228.78
806.37	228.73
806.69	228.68
807.01	228.64
807.33	228.65
807.65	228.43
807.97	228.67
808.28	228.62
808.60	228.59
808.92	228.44
809.24	228.79
809.56	228.71
809.88	228.41
810.20	228.38
810.52	228.45
810.84	228.43
811.16	228.40
811.48	228.35
811.80	228.46
812.12	228.44
812.43	228.53
812.75	228.60
813.07	228.52
813.39	228.57
813.71	228.46
814.03	228.33
814.35	228.37
814.67	228.14
814.98	228.07
815.30	227.97
815.62	227.97
815.94	227.58
816.26	227.79
816.58	227.71
816.89	227.76
817.21	227.73
817.53	227.65
817.85	227.63
818.17	227.51
818.48	227.30
818.80	227.37
819.12	227.23
819.44	227.02
819.76	226.94
820.07	226.89
820.39	226.81
820.71	226.90
821.03	226.82
821.34	226.73
821.66	226.79
821.98	226.85
822.30	226.84
822.61	227.19
822.93	226.93
823.25	226.89
823.57	226.84
823.88	226.82
824.20	226.79
824.52	226.88
824.83	226.92
825.15	226.94
825.47	226.89
825.79	226.98
826.10	227.01
826.42	227.01
826.74	227.06
827.05	227.12
827.37	227.15
827.69	227.21
828.00	227.17
828.32	227.12
828.64	227.04
828.95	227.29
829.27	227.07
829.58	227.02
829.90	227.15
830.22	227.16
830.53	227.07
830.85	227.06
831.17	226.91
831.48	226.92
831.80	226.87
832.11	226.81
832.43	226.69
832.75	226.67
833.06	226.93
833.38	226.82
833.69	226.80
834.01	226.75
834.32	226.73
834.64	226.69
834.96	226.63
835.27	226.64
835.59	226.50
835.90	226.50
836.22	226.49
836.53	226.38
836.85	226.35
837.16	226.81
837.48	226.83
837.79	226.99
838.11	226.94
838.42	226.97
838.74	227.03
839.05	227.01
839.37	227.06
839.68	226.79
840.00	226.81
840.31	226.88
840.63	226.83
840.94	226.80
841.26	226.81
841.57	226.88
841.88	226.96
842.20	226.82
842.51	226.74
842.83	226.80
843.14	227.30
843.46	227.30
843.77	227.04
844.08	226.98
844.40	226.86
844.71	226.83
845.03	226.79
845.34	226.76
845.65	226.79
845.97	226.77
846.28	226.80
846.60	226.84
846.91	226.78
847.22	226.77
847.54	226.91
847.85	227.00
848.16	226.99
848.48	226.92
848.79	227.16
849.10	227.23
849.42	227.17
849.73	226.65
850.04	226.61
850.36	226.43
850.67	226.58
850.98	226.64
851.30	226.68
851.61	226.68
851.92	226.73
852.23	226.86
852.55	226.92
852.86	226.99
853.17	226.99
853.49	227.06
853.80	227.19
854.11	227.18
854.42	227.23
854.74	227.21
855.05	227.28
855.36	226.96
855.67	226.98
855.99	227.05
856.30	227.67
856.61	227.68
856.92	227.76
857.23	227.73
857.55	227.63
857.86	227.66
858.17	227.81
858.48	227.72
858.79	227.61
859.11	227.60
859.42	227.56
859.73	227.49
860.04	227.45
860.35	227.29
860.66	227.20
860.98	227.12
861.29	227.17
861.60	227.10
861.91	227.27
862.22	227.12
862.53	227.10
862.84	226.51
863.16	226.59
863.47	226.46
863.78	226.45
864.09	226.50
864.40	226.45
864.71	226.36
865.02	226.37
865.33	226.34
865.64	226.26
865.95	226.20
866.27	226.50
866.58	226.46
866.89	226.60
867.20	226.59
867.51	226.54
867.82	226.40
868.13	226.51
868.44	226.50
868.75	226.62
869.06	226.60
869.37	226.64
869.68	226.52
869.99	226.64
870.30	226.59
870.61	226.56
870.92	226.53
871.23	226.53
871.54	226.59
871.85	226.70
872.16	226.75
872.47	226.76
872.78	226.45
873.09	226.45
873.40	226.41
873.71	226.43
874.02	226.50
874.33	226.54
874.64	226.45
874.95	226.44
875.26	226.37
875.56	226.39
875.87	226.36
876.18	226.35
876.49	226.85
876.80	226.89
877.11	226.84
877.42	226.87
877.73	226.83
878.04	226.79
878.35	226.80
878.66	226.88
878.96	226.89
879.27	226.86
879.58	226.81
879.89	226.73
880.20	226.86
880.51	226.88
880.82	226.90
881.12	226.94
881.43	226.80
881.74	226.75
882.05	226.75
882.36	226.83
882.67	226.91
882.97	226.35
883.28	226.22
883.59	226.28
883.90	226.32
884.21	226.46
884.51	226.43
884.82	226.35
885.13	226.34
885.44	226.29
885.74	226.39
886.05	226.43
886.36	226.46
886.67	226.23
886.98	226.43
887.28	226.50
887.59	226.48
887.90	226.58
888.20	226.53
888.51	226.60
888.82	226.55
889.13	226.52
889.43	226.93
889.74	226.92
890.05	226.87
890.35	226.84
890.66	226.69
890.97	226.65
891.28	226.58
891.58	226.56
891.89	226.57
892.20	226.42
892.50	226.36
892.81	226.31
893.12	226.35
893.42	226.05
893.73	226.04
894.04	226.03
894.34	226.05
894.65	226.09
894.95	226.02
895.26	226.04
895.57	226.27
895.87	225.82
896.18	225.91
896.48	225.94
896.79	225.92
897.10	226.03
897.40	226.06
897.71	226.10
898.01	226.02
898.32	226.08
898.63	226.14
898.93	226.17
899.24	226.17
899.54	226.10
899.85	226.15
900.15	226.10
900.46	226.07
900.76	226.03
901.07	226.03
901.38	226.00
901.68	226.01
901.99	225.74
902.29	225.72
902.60	225.66
902.90	225.67
903.21	225.70
903.51	225.60
903.82	225.72
904.12	225.73
904.43	225.75
904.73	225.78
905.03	225.75
905.34	226.20
905.64	226.16
905.95	226.23
906.25	226.25
906.56	226.25
906.86	226.27
907.17	226.28
907.47	226.30
907.77	226.23
908.08	226.16
908.38	226.19
908.69	226.32
908.99	226.45
909.30	226.43
909.60	226.33
909.90	226.43
910.21	226.24
910.51	226.17
910.81	226.22
911.12	226.22
911.42	226.20
911.73	225.73
912.03	225.79
912.33	225.86
912.64	225.78
912.94	225.68
913.24	225.64
913.55	225.64
913.85	225.60
914.15	225.78
914.46	225.79
914.76	225.79
915.06	225.68
915.37	225.54
915.67	225.47
915.97	225.57
916.27	225.41
916.58	225.49
916.88	225.51
917.18	225.43
917.49	225.73
917.79	225.76
918.09	225.81
918.39	225.98
918.70	225.93
919.00	225.95
919.30	226.28
919.60	226.27
919.91	226.21
920.21	226.25
920.51	226.12
920.81	226.13
921.12	226.20
921.42	226.24
921.72	226.37
922.02	226.49
922.32	226.55
922.63	226.59
922.93	226.80
923.23	226.82
923.53	226.85
923.83	226.51
924.13	226.50
924.44	226.52
924.74	226.53
925.04	226.67
925.34	226.68
925.64	226.44
925.94	226.40
926.24	226.68
926.55	226.61
926.85	226.63
927.15	226.61
927.45	226.60
927.75	226.59
928.05	226.55
928.35	226.46
928.65	226.49
928.95	226.51
929.26	226.34
929.56	226.40
929.86	226.40
930.16	226.42
930.46	226.42
930.76	226.48
931.06	226.25
931.36	226.10
931.66	226.07
931.96	226.06
932.26	226.06
932.56	225.85
932.86	225.88
933.16	225.85
933.46	225.78
933.76	225.67
934.06	225.77
934.36	225.92
934.66	225.91
934.96	225.85
935.26	225.85
935.56	225.88
935.86	225.73
936.16	225.70
936.46	225.65
936.76	225.57
937.06	225.46
937.36	225.50
937.66	225.54
937.96	225.59
938.26	225.56
938.56	225.57
938.86	225.62
939.16	225.73
939.46	225.84
939.76	225.94
940.06	225.96
940.35	225.85
940.65	225.59
940.95	225.56
941.25	225.46
941.55	225.41
941.85	225.39
942.15	225.50
942.45	225.61
942.75	225.59
943.04	225.67
943.34	225.73
943.64	225.74
943.94	225.63
944.24	225.65
944.54	225.69
944.84	225.63
945.13	225.48
945.43	225.37
945.73	225.32
946.03	225.23
946.33	225.16
946.62	225.12
946.92	225.05
947.22	225.17
947.52	225.18
947.82	225.27
948.11	225.24
948.41	225.14
948.71	225.02
949.01	225.08
949.31	225.07
949.60	225.09
949.90	225.09
950.20	225.13
950.50	225.13
950.79	225.08
951.09	225.22
951.39	225.28
951.69	225.25
951.98	225.33
952.28	225.34
952.58	225.38
952.87	225.44
953.17	225.55
953.47	225.48
953.76	225.51
954.06	225.38
954.36	225.28
954.66	225.30
954.95	225.40
955.25	225.42
955.55	225.48
955.84	225.40
956.14	225.42
956.44	225.43
956.73	225.30
957.03	225.38
957.32	225.29
957.62	225.27
957.92	225.32
958.21	225.32
958.51	225.88
958.81	225.97
959.10	226.00
959.40	226.15
959.69	226.17
959.99	226.28
960.29	226.33
960.58	226.42
960.88	226.63
961.17	226.57
961.47	226.60
961.76	226.54
962.06	226.61
962.36	226.58
962.65	226.60
962.95	226.70
963.24	226.63
963.54	226.78
963.83	226.80
964.13	226.89
964.42	226.72
964.72	226.36
965.01	226.45
965.31	226.40
965.60	226.26
965.90	226.62
966.19	226.45
966.49	226.46
966.78	226.45
967.08	226.35
967.37	226.39
967.67	226.33
967.96	226.40
968.26	226.39
968.55	226.52
968.85	226.49
969.14	226.50
969.43	226.48
969.73	226.35
970.02	226.34
970.32	226.31
970.61	226.32
970.91	226.17
971.20	226.03
971.49	225.95
971.79	226.03
972.08	225.69
972.38	225.73
972.67	225.73
972.96	225.77
973.26	225.72
973.55	225.88
973.85	225.86
974.14	225.82
974.43	225.86
974.73	225.71
975.02	225.68
975.31	225.65
975.61	225.65
975.90	225.64
976.19	225.55
976.49	225.59
976.78	225.61
977.07	225.68
977.37	225.70
977.66	225.80
977.95	225.68
978.24	225.70
978.54	225.80
978.83	225.85
979.12	225.85
979.42	225.85
979.71	225.70
980.00	225.65
980.29	225.66
980.59	225.55
980.88	225.65
981.17	225.66
981.46	225.69
981.76	225.69
982.05	225.76
982.34	225.85
982.63	225.83
982.93	225.87
983.22	225.94
983.51	225.96
983.80	226.00
984.09	226.08
984.39	226.12
984.68	226.09
984.97	226.04
985.26	225.96
985.55	225.96
985.85	225.86
986.14	225.94
986.43	226.02
986.72	225.94
987.01	225.76
987.30	225.79
987.59	225.71
987.89	225.68
988.18	225.61
988.47	225.61
988.76	225.51
989.05	225.48
989.34	225.42
989.63	225.48
989.92	225.40
990.22	225.37
990.51	225.27
990.80	225.26
991.09	225.30
991.38	225.33
991.67	225.34
991.96	225.33
992.25	225.34
992.54	225.24
992.83	225.32
993.12	225.39
993.41	225.43
993.70	225.68
993.99	225.83
994.28	225.91
994.58	225.96
994.87	225.98
995.16	225.91
995.45	225.89
995.74	225.70
996.03	225.84
996.32	225.97
996.61	226.06
996.90	226.04
997.19	226.00
997.48	226.08
997.77	225.95
998.06	226.09
998.34	226.10
998.63	226.15
998.92	226.15
999.21	226.22
999.50	226.24
999.79	226.08
1000.08	226.09
1000.37	226.02
1000.66	225.98
1000.95	226.02
1001.24	226.12
1001.53	226.20
1001.82	226.28
1002.11	226.12
1002.40	226.12
1002.68	226.25
1002.97	226.56
1003.26	226.58
1003.55	226.50
1003.84	226.63
1004.13	226.68
1004.42	226.66
1004.71	226.67
1004.99	226.68
1005.28	226.79
1005.57	226.73
1005.86	226.64
1006.15	226.55
1006.44	226.48
1006.72	226.57
1007.01	226.50
1007.30	226.52
1007.59	226.47
1007.88	226.40
1008.17	226.42
1008.45	226.25
1008.74	226.00
1009.03	225.74
1009.32	225.73
1009.60	225.68
1009.89	225.55
1010.18	225.36
1010.47	225.30
1010.76	225.24
1011.04	225.19
1011.33	225.15
1011.62	225.20
1011.91	225.26
1012.19	225.24
1012.48	225.30
1012.77	225.20
1013.05	225.48
1013.34	225.41
1013.63	225.38
1013.92	225.45
1014.20	225.36
1014.49	225.41
1014.78	225.51
1015.06	225.44
1015.35	225.37
1015.64	225.42
1015.92	225.54
1016.21	225.61
1016.50	225.66
1016.78	225.70
1017.07	225.75
1017.36	225.68
1017.64	225.56
1017.93	225.59
1018.22	225.57
1018.50	225.49
1018.79	225.51
1019.08	225.30
1019.36	225.31
1019.65	225.25
1019.93	225.38
1020.22	225.50
1020.51	225.75
1020.79	225.67
1021.08	224.40
1021.36	223.35
1021.65	225.65
1021.94	226.25
1022.22	225.45
1022.51	224.75
1022.79	227.80
1023.08	226.05
1023.36	231.00
1023.65	224.60
>>>>>End Processed Spectral Data<<<<<
