SpectraSuite Data File
++++++++++++++++++++++++++++++++++++
Date: Wed Sep 04 17:43:52 EDT 2013
User: lab3
Dark Spectrum Present: Yes
Reference Spectrum Present: No
Number of Sampled Component Spectra: 1
Spectrometers: USB2E7196
Integration Time (usec): 170000 (USB2E7196)
Spectra Averaged: 20 (USB2E7196)
Boxcar Smoothing: 10 (USB2E7196)
Correct for Electrical Dark: No (USB2E7196)
Strobe/Lamp Enabled: No (USB2E7196)
Correct for Detector Non-linearity: No (USB2E7196)
Correct for Stray Light: No (USB2E7196)
Number of Pixels in Processed Spectrum: 2048
>>>>>Begin Processed Spectral Data<<<<<
339.09	0.00
339.48	213.95
339.86	215.15
340.24	214.95
340.63	217.20
341.01	225.90
341.39	219.15
341.78	222.05
342.16	225.35
342.54	223.80
342.93	212.08
343.31	222.78
343.69	223.22
344.07	223.65
344.46	224.15
344.84	224.60
345.22	224.59
345.60	224.85
345.99	225.01
346.37	224.99
346.75	225.03
347.13	225.15
347.52	225.27
347.90	225.51
348.28	225.63
348.66	225.69
349.05	225.55
349.43	225.68
349.81	225.79
350.19	225.77
350.57	225.79
350.96	225.88
351.34	225.99
351.72	226.13
352.10	226.15
352.48	226.21
352.87	226.19
353.25	226.21
353.63	226.25
354.01	226.32
354.39	226.48
354.77	226.63
355.15	226.81
355.54	226.80
355.92	226.67
356.30	226.72
356.68	227.10
357.06	227.22
357.44	227.14
357.82	227.15
358.20	227.54
358.58	227.63
358.97	227.80
359.35	227.95
359.73	228.05
360.11	228.19
360.49	228.22
360.87	228.25
361.25	228.38
361.63	228.62
362.01	228.74
362.39	228.73
362.77	228.70
363.15	228.67
363.53	228.69
363.91	228.80
364.29	228.84
364.67	228.42
365.05	228.51
365.43	228.64
365.81	228.74
366.19	228.67
366.57	228.87
366.95	228.79
367.33	228.67
367.71	228.71
368.09	228.78
368.47	228.85
368.85	228.88
369.23	228.93
369.61	228.76
369.99	228.82
370.37	228.82
370.75	229.07
371.13	229.00
371.51	228.99
371.89	228.99
372.27	228.96
372.65	229.05
373.03	228.93
373.41	228.90
373.78	228.87
374.16	228.62
374.54	228.43
374.92	228.37
375.30	228.39
375.68	228.23
376.06	228.26
376.44	228.10
376.82	228.11
377.19	228.07
377.57	228.05
377.95	227.78
378.33	227.70
378.71	227.36
379.09	227.29
379.47	227.21
379.84	227.09
380.22	226.93
380.60	226.74
380.98	226.75
381.36	226.68
381.73	226.54
382.11	226.63
382.49	226.63
382.87	226.60
383.25	226.47
383.62	226.98
384.00	226.79
384.38	226.75
384.76	226.75
385.13	226.88
385.51	226.84
385.89	226.87
386.27	226.85
386.64	226.93
387.02	226.89
387.40	226.89
387.78	226.85
388.15	226.89
388.53	226.81
388.91	226.70
389.29	226.63
389.66	226.70
390.04	226.54
390.42	226.57
390.79	226.57
391.17	226.58
391.55	226.07
391.92	226.04
392.30	226.17
392.68	226.10
393.05	226.01
393.43	226.02
393.81	226.01
394.18	225.95
394.56	225.94
394.94	226.17
395.31	226.13
395.69	226.38
396.06	226.49
396.44	226.66
396.82	226.67
397.19	226.97
397.57	226.95
397.95	227.12
398.32	227.02
398.70	227.02
399.07	227.23
399.45	227.30
399.82	227.37
400.20	227.41
400.58	227.48
400.95	227.37
401.33	227.60
401.70	228.05
402.08	228.27
402.45	228.43
402.83	228.56
403.20	228.73
403.58	228.77
403.95	229.02
404.33	229.22
404.71	229.46
405.08	229.88
405.46	230.12
405.83	230.39
406.21	230.64
406.58	230.98
406.96	231.17
407.33	231.46
407.70	231.87
408.08	232.56
408.45	232.98
408.83	233.51
409.20	233.73
409.58	233.95
409.95	234.42
410.33	234.85
410.70	235.22
411.08	235.85
411.45	236.43
411.82	236.93
412.20	237.61
412.57	238.61
412.95	238.87
413.32	239.70
413.69	240.40
414.07	241.35
414.44	242.31
414.82	243.32
415.19	244.47
415.56	245.54
415.94	246.46
416.31	247.81
416.68	249.16
417.06	250.77
417.43	252.26
417.81	253.97
418.18	255.81
418.55	257.62
418.93	259.52
419.30	261.56
419.67	263.68
420.04	265.85
420.42	267.90
420.79	270.87
421.16	273.55
421.54	276.51
421.91	279.33
422.28	282.28
422.66	285.36
423.03	288.68
423.40	291.88
423.77	295.28
424.15	298.74
424.52	302.27
424.89	306.25
425.26	310.06
425.64	313.69
426.01	317.60
426.38	321.88
426.75	326.23
427.13	330.59
427.50	335.20
427.87	339.88
428.24	344.71
428.61	349.03
428.99	354.20
429.36	359.46
429.73	364.69
430.10	369.98
430.47	375.63
430.85	381.05
431.22	386.96
431.59	393.39
431.96	399.39
432.33	406.10
432.70	412.55
433.08	419.97
433.45	427.07
433.82	434.24
434.19	442.15
434.56	450.06
434.93	457.38
435.30	464.94
435.68	473.42
436.05	481.44
436.42	489.44
436.79	496.76
437.16	504.76
437.53	513.34
437.90	521.80
438.27	529.98
438.64	538.63
439.01	546.70
439.38	553.72
439.75	560.71
440.13	568.59
440.50	575.87
440.87	581.84
441.24	588.03
441.61	594.64
441.98	599.51
442.35	605.03
442.72	610.88
443.09	616.27
443.46	619.42
443.83	621.71
444.20	623.60
444.57	626.05
444.94	627.08
445.31	628.14
445.68	629.29
446.05	629.51
446.42	628.26
446.79	626.92
447.16	625.41
447.53	624.12
447.90	620.53
448.27	617.02
448.64	612.58
449.01	609.06
449.37	603.40
449.74	597.60
450.11	591.16
450.48	583.58
450.85	576.03
451.22	569.45
451.59	563.29
451.96	557.37
452.33	549.79
452.70	542.72
453.07	534.42
453.43	525.76
453.80	517.61
454.17	509.74
454.54	502.31
454.91	494.53
455.28	486.83
455.65	479.60
456.02	472.98
456.38	466.74
456.75	459.25
457.12	452.74
457.49	446.73
457.86	440.51
458.23	435.72
458.59	430.25
458.96	424.75
459.33	419.65
459.70	414.74
460.07	410.79
460.43	406.25
460.80	402.12
461.17	398.57
461.54	394.63
461.91	391.00
462.27	387.28
462.64	384.07
463.01	380.67
463.38	377.58
463.74	373.67
464.11	370.69
464.48	368.07
464.85	365.46
465.21	363.40
465.58	361.16
465.95	358.40
466.32	356.22
466.68	354.06
467.05	351.96
467.42	349.80
467.78	347.54
468.15	345.57
468.52	344.02
468.88	341.87
469.25	340.10
469.62	338.74
469.98	337.18
470.35	335.68
470.72	334.29
471.08	332.56
471.45	331.41
471.82	330.25
472.18	328.95
472.55	327.97
472.92	326.63
473.28	325.53
473.65	324.46
474.02	323.45
474.38	322.56
474.75	321.85
475.11	320.97
475.48	320.30
475.85	319.62
476.21	318.93
476.58	318.49
476.94	318.12
477.31	317.58
477.67	317.18
478.04	316.92
478.41	316.70
478.77	317.03
479.14	316.72
479.50	316.57
479.87	316.66
480.23	316.72
480.60	316.65
480.96	316.61
481.33	317.01
481.69	317.16
482.06	317.50
482.42	317.76
482.79	318.11
483.15	318.64
483.52	319.38
483.88	319.90
484.25	320.45
484.61	321.14
484.98	321.96
485.34	323.00
485.71	323.91
486.07	324.84
486.44	325.45
486.80	326.58
487.17	327.75
487.53	329.18
487.90	330.53
488.26	332.20
488.62	334.01
488.99	335.62
489.35	337.48
489.72	339.27
490.08	341.30
490.44	343.35
490.81	345.61
491.17	347.74
491.54	350.14
491.90	352.61
492.26	355.30
492.63	358.01
492.99	360.80
493.36	363.90
493.72	367.28
494.08	370.70
494.45	374.35
494.81	378.20
495.17	381.93
495.54	385.99
495.90	390.21
496.26	394.46
496.63	399.00
496.99	403.62
497.35	408.58
497.72	413.76
498.08	419.25
498.44	424.84
498.80	430.74
499.17	436.77
499.53	442.95
499.89	449.54
500.26	456.15
500.62	462.98
500.98	470.15
501.34	477.36
501.71	484.86
502.07	492.45
502.43	500.36
502.79	508.42
503.16	517.03
503.52	525.88
503.88	534.95
504.24	544.23
504.60	554.07
504.97	564.03
505.33	574.12
505.69	585.02
506.05	595.63
506.41	606.64
506.78	617.95
507.14	629.78
507.50	641.72
507.86	654.08
508.22	666.81
508.59	679.56
508.95	692.93
509.31	706.78
509.67	720.98
510.03	734.79
510.39	749.31
510.75	763.77
511.12	778.41
511.48	793.74
511.84	809.15
512.20	824.54
512.56	840.33
512.92	856.65
513.28	872.88
513.64	889.81
514.00	906.73
514.37	924.06
514.73	941.71
515.09	959.24
515.45	977.33
515.81	995.15
516.17	1013.35
516.53	1031.17
516.89	1049.28
517.25	1067.60
517.61	1087.41
517.97	1106.96
518.33	1126.46
518.69	1146.14
519.05	1165.83
519.41	1185.95
519.77	1206.40
520.13	1226.80
520.49	1246.85
520.85	1266.77
521.21	1287.02
521.57	1307.75
521.93	1327.71
522.29	1348.06
522.65	1367.76
523.01	1387.55
523.37	1407.51
523.73	1427.60
524.09	1447.62
524.45	1467.55
524.81	1487.66
525.17	1507.10
525.53	1526.62
525.89	1546.64
526.25	1566.42
526.61	1585.84
526.97	1605.71
527.33	1625.96
527.68	1646.53
528.04	1666.62
528.40	1686.78
528.76	1706.81
529.12	1726.13
529.48	1746.19
529.84	1764.98
530.20	1785.33
530.56	1805.24
530.91	1825.10
531.27	1844.27
531.63	1863.73
531.99	1883.40
532.35	1902.47
532.71	1921.79
533.07	1941.29
533.42	1959.90
533.78	1978.82
534.14	1997.86
534.50	2015.83
534.86	2033.61
535.21	2050.01
535.57	2067.64
535.93	2084.18
536.29	2100.95
536.65	2117.95
537.00	2134.09
537.36	2150.77
537.72	2166.17
538.08	2182.15
538.44	2197.59
538.79	2212.88
539.15	2228.00
539.51	2242.54
539.87	2256.50
540.22	2269.35
540.58	2282.82
540.94	2295.11
541.29	2306.90
541.65	2318.30
542.01	2329.82
542.37	2339.77
542.72	2349.93
543.08	2359.46
543.44	2370.30
543.79	2379.08
544.15	2387.75
544.51	2396.68
544.87	2405.02
545.22	2412.57
545.58	2419.38
545.94	2425.46
546.29	2431.31
546.65	2436.85
547.01	2441.70
547.36	2446.31
547.72	2451.10
548.07	2454.05
548.43	2458.39
548.79	2461.94
549.14	2465.20
549.50	2468.32
549.86	2471.28
550.21	2473.97
550.57	2476.35
550.92	2476.78
551.28	2477.38
551.64	2479.07
551.99	2480.54
552.35	2481.45
552.70	2482.99
553.06	2483.96
553.41	2484.60
553.77	2485.65
554.13	2486.42
554.48	2487.11
554.84	2487.94
555.19	2488.17
555.55	2489.19
555.90	2488.13
556.26	2486.39
556.61	2484.45
556.97	2481.57
557.32	2480.18
557.68	2478.70
558.03	2476.62
558.39	2474.77
558.74	2473.51
559.10	2469.95
559.45	2465.49
559.81	2461.08
560.16	2455.54
560.52	2450.09
560.87	2445.56
561.23	2439.72
561.58	2434.06
561.94	2427.00
562.29	2419.45
562.64	2412.33
563.00	2404.00
563.35	2397.07
563.71	2390.59
564.06	2383.70
564.42	2377.21
564.77	2369.92
565.12	2362.25
565.48	2354.67
565.83	2346.67
566.19	2338.71
566.54	2330.66
566.89	2323.08
567.25	2315.10
567.60	2308.05
567.96	2300.48
568.31	2292.56
568.66	2284.17
569.02	2274.79
569.37	2266.85
569.72	2259.50
570.08	2250.63
570.43	2241.36
570.78	2232.69
571.14	2223.36
571.49	2213.89
571.84	2204.39
572.20	2194.38
572.55	2184.41
572.90	2173.62
573.26	2163.46
573.61	2152.65
573.96	2142.18
574.31	2130.26
574.67	2119.19
575.02	2106.84
575.37	2094.79
575.72	2081.93
576.08	2070.37
576.43	2058.46
576.78	2045.83
577.13	2032.71
577.49	2020.31
577.84	2008.91
578.19	1997.21
578.54	1985.56
578.90	1973.96
579.25	1962.28
579.60	1950.02
579.95	1937.86
580.30	1925.64
580.66	1912.67
581.01	1899.67
581.36	1886.33
581.71	1874.39
582.06	1861.91
582.42	1850.15
582.77	1838.27
583.12	1827.00
583.47	1815.29
583.82	1804.02
584.17	1792.42
584.53	1781.36
584.88	1768.95
585.23	1756.50
585.58	1743.04
585.93	1730.36
586.28	1717.61
586.63	1704.41
586.98	1691.26
587.34	1678.59
587.69	1666.01
588.04	1654.61
588.39	1643.41
588.74	1631.76
589.09	1620.43
589.44	1608.50
589.79	1597.10
590.14	1585.84
590.49	1574.27
590.84	1562.77
591.19	1551.45
591.54	1539.84
591.89	1528.05
592.25	1518.77
592.60	1508.10
592.95	1497.28
593.30	1486.13
593.65	1475.09
594.00	1463.88
594.35	1454.58
594.70	1443.65
595.05	1433.15
595.40	1421.89
595.75	1410.54
596.10	1400.15
596.45	1389.24
596.80	1378.83
597.15	1367.91
597.50	1356.75
597.85	1346.27
598.19	1335.51
598.54	1324.50
598.89	1314.13
599.24	1304.36
599.59	1293.60
599.94	1283.40
600.29	1273.90
600.64	1264.28
600.99	1254.33
601.34	1245.48
601.69	1235.20
602.04	1226.11
602.39	1216.85
602.74	1208.25
603.08	1199.69
603.43	1190.82
603.78	1182.08
604.13	1173.22
604.48	1164.27
604.83	1155.19
605.18	1145.96
605.53	1137.03
605.87	1128.61
606.22	1120.82
606.57	1112.01
606.92	1103.23
607.27	1094.93
607.62	1086.54
607.96	1078.54
608.31	1071.05
608.66	1063.21
609.01	1055.28
609.36	1047.28
609.70	1039.51
610.05	1031.39
610.40	1023.34
610.75	1015.46
611.10	1007.59
611.44	999.66
611.79	992.07
612.14	985.01
612.49	977.84
612.83	970.93
613.18	963.63
613.53	956.34
613.88	949.03
614.22	941.80
614.57	934.37
614.92	927.15
615.27	920.09
615.61	912.93
615.96	905.72
616.31	898.65
616.65	892.00
617.00	884.99
617.35	878.30
617.70	871.77
618.04	865.02
618.39	858.66
618.74	852.65
619.08	846.31
619.43	839.70
619.78	833.22
620.12	826.51
620.47	820.15
620.82	813.34
621.16	807.07
621.51	801.21
621.85	795.33
622.20	789.41
622.55	783.22
622.89	777.20
623.24	771.37
623.59	765.45
623.93	759.62
624.28	754.13
624.62	748.87
624.97	743.53
625.32	738.12
625.66	732.44
626.01	726.64
626.35	721.38
626.70	716.10
627.04	711.15
627.39	705.88
627.73	701.07
628.08	696.51
628.43	691.67
628.77	686.53
629.12	681.69
629.46	677.03
629.81	672.73
630.15	668.16
630.50	663.57
630.84	659.25
631.19	654.68
631.53	650.50
631.88	645.71
632.22	641.17
632.57	637.26
632.91	633.02
633.26	629.20
633.60	625.01
633.95	620.70
634.29	616.23
634.64	612.18
634.98	607.65
635.32	603.51
635.67	599.76
636.01	595.80
636.36	591.78
636.70	587.97
637.05	584.00
637.39	580.22
637.73	576.43
638.08	572.51
638.42	568.73
638.77	564.45
639.11	560.39
639.45	556.30
639.80	552.08
640.14	548.27
640.49	544.43
640.83	540.86
641.17	537.43
641.52	533.90
641.86	530.51
642.20	527.65
642.55	524.22
642.89	520.74
643.23	517.55
643.58	514.75
643.92	511.26
644.26	508.19
644.61	505.31
644.95	502.17
645.29	499.05
645.64	496.09
645.98	493.32
646.32	490.70
646.66	487.88
647.01	485.06
647.35	482.47
647.69	479.78
648.04	477.15
648.38	474.66
648.72	472.10
649.06	469.38
649.41	466.44
649.75	463.65
650.09	460.86
650.43	458.17
650.78	455.19
651.12	452.66
651.46	449.90
651.80	447.28
652.14	444.77
652.49	442.56
652.83	440.09
653.17	437.60
653.51	435.03
653.85	432.80
654.20	430.44
654.54	427.97
654.88	425.60
655.22	423.48
655.56	421.04
655.90	418.90
656.25	416.82
656.59	414.75
656.93	412.69
657.27	410.82
657.61	408.60
657.95	406.67
658.29	404.74
658.64	402.92
658.98	400.78
659.32	398.73
659.66	396.56
660.00	394.65
660.34	392.74
660.68	390.85
661.02	388.89
661.36	387.13
661.70	385.34
662.05	383.55
662.39	381.69
662.73	380.07
663.07	378.51
663.41	376.90
663.75	375.02
664.09	373.32
664.43	371.42
664.77	369.94
665.11	368.24
665.45	366.62
665.79	365.05
666.13	363.46
666.47	361.94
666.81	360.45
667.15	358.84
667.49	357.53
667.83	356.29
668.17	354.86
668.51	353.47
668.85	352.17
669.19	351.09
669.53	349.58
669.87	348.05
670.21	346.57
670.55	345.07
670.89	344.01
671.23	342.90
671.57	341.70
671.91	340.36
672.25	339.19
672.58	338.05
672.92	336.68
673.26	335.42
673.60	334.33
673.94	333.23
674.28	332.17
674.62	331.10
674.96	329.84
675.30	328.80
675.64	327.70
675.97	326.55
676.31	325.19
676.65	324.07
676.99	323.33
677.33	322.21
677.67	321.32
678.01	320.14
678.34	319.08
678.68	318.14
679.02	317.18
679.36	316.19
679.70	315.12
680.04	314.29
680.37	313.49
680.71	312.52
681.05	311.72
681.39	310.86
681.73	309.92
682.06	309.07
682.40	308.23
682.74	307.47
683.08	306.86
683.42	306.03
683.75	305.32
684.09	304.34
684.43	303.66
684.77	302.90
685.10	302.23
685.44	301.50
685.78	300.70
686.12	299.97
686.45	299.14
686.79	298.44
687.13	297.77
687.46	296.98
687.80	296.44
688.14	295.52
688.48	294.75
688.81	294.00
689.15	293.41
689.49	292.67
689.82	291.99
690.16	291.02
690.50	290.40
690.83	289.68
691.17	288.95
691.51	288.23
691.84	287.57
692.18	286.82
692.52	286.10
692.85	285.62
693.19	285.18
693.52	284.66
693.86	283.98
694.20	283.29
694.53	282.85
694.87	282.13
695.21	281.51
695.54	281.07
695.88	280.52
696.21	279.80
696.55	279.28
696.88	278.71
697.22	278.16
697.56	277.62
697.89	277.10
698.23	276.65
698.56	276.13
698.90	275.68
699.23	275.25
699.57	274.80
699.90	274.21
700.24	273.64
700.58	273.24
700.91	272.91
701.25	272.86
701.58	272.61
701.92	272.33
702.25	272.03
702.59	271.45
702.92	271.06
703.26	270.77
703.59	270.35
703.93	270.34
704.26	270.05
704.60	269.78
704.93	269.30
705.26	268.92
705.60	268.53
705.93	268.03
706.27	267.69
706.60	267.55
706.94	267.39
707.27	266.91
707.61	266.52
707.94	266.18
708.27	265.46
708.61	264.77
708.94	264.33
709.28	263.99
709.61	263.63
709.94	263.30
710.28	262.82
710.61	262.52
710.95	261.80
711.28	261.79
711.61	261.33
711.95	261.22
712.28	260.82
712.61	260.56
712.95	260.52
713.28	260.48
713.61	260.00
713.95	259.59
714.28	259.32
714.61	259.01
714.95	258.66
715.28	258.30
715.61	257.98
715.95	257.76
716.28	257.40
716.61	257.18
716.95	256.88
717.28	256.67
717.61	256.32
717.94	256.03
718.28	255.39
718.61	255.12
718.94	254.70
719.27	254.48
719.61	254.25
719.94	253.81
720.27	253.27
720.60	252.93
720.94	252.55
721.27	252.31
721.60	252.16
721.93	251.92
722.27	251.78
722.60	251.58
722.93	251.27
723.26	251.06
723.59	250.80
723.93	250.59
724.26	250.35
724.59	250.15
724.92	249.93
725.25	249.86
725.59	249.58
725.92	249.41
726.25	249.13
726.58	248.91
726.91	248.67
727.24	248.56
727.57	248.36
727.91	248.10
728.24	248.01
728.57	247.70
728.90	247.53
729.23	247.30
729.56	247.39
729.89	247.12
730.22	246.81
730.55	246.63
730.89	246.46
731.22	246.25
731.55	246.02
731.88	245.90
732.21	245.59
732.54	245.43
732.87	245.30
733.20	245.14
733.53	244.98
733.86	244.91
734.19	244.65
734.52	244.63
734.85	244.81
735.18	244.55
735.51	244.60
735.84	244.52
736.17	244.47
736.50	244.08
736.83	244.53
737.16	244.48
737.49	244.32
737.82	244.10
738.15	244.04
738.48	243.93
738.81	243.74
739.14	243.53
739.47	243.35
739.80	243.19
740.13	243.17
740.46	242.98
740.79	242.71
741.12	242.60
741.45	242.31
741.78	241.96
742.11	241.95
742.44	241.69
742.77	241.58
743.10	241.36
743.43	241.21
743.75	240.60
744.08	241.07
744.41	240.88
744.74	240.75
745.07	240.52
745.40	240.46
745.73	240.55
746.06	240.46
746.39	240.49
746.71	240.29
747.04	240.08
747.37	239.95
747.70	239.93
748.03	239.86
748.36	239.87
748.68	239.78
749.01	239.54
749.34	239.38
749.67	239.26
750.00	239.25
750.33	239.53
750.65	239.48
750.98	238.80
751.31	238.80
751.64	238.73
751.97	238.91
752.29	238.75
752.62	238.37
752.95	238.33
753.28	238.11
753.60	238.02
753.93	238.04
754.26	237.97
754.59	237.75
754.91	237.62
755.24	237.44
755.57	237.32
755.90	237.21
756.22	237.09
756.55	236.92
756.88	236.69
757.20	236.22
757.53	236.03
757.86	235.84
758.19	235.75
758.51	235.59
758.84	235.25
759.17	235.11
759.49	235.09
759.82	235.20
760.15	235.19
760.47	235.17
760.80	235.00
761.13	234.96
761.45	234.84
761.78	234.69
762.11	234.67
762.43	234.56
762.76	234.50
763.08	234.49
763.41	234.45
763.74	234.38
764.06	234.29
764.39	234.15
764.71	234.13
765.04	234.01
765.37	233.95
765.69	233.85
766.02	233.83
766.34	233.73
766.67	233.44
767.00	233.45
767.32	233.66
767.65	233.86
767.97	233.85
768.30	233.90
768.62	233.91
768.95	233.75
769.27	233.65
769.60	233.69
769.92	233.50
770.25	233.28
770.57	233.14
770.90	233.15
771.22	233.10
771.55	233.09
771.87	233.03
772.20	232.94
772.52	233.32
772.85	233.86
773.17	233.80
773.50	233.76
773.82	233.59
774.15	233.19
774.47	232.78
774.80	232.57
775.12	232.45
775.45	232.33
775.77	232.31
776.09	232.30
776.42	232.21
776.74	232.31
777.07	232.24
777.39	232.23
777.72	232.12
778.04	232.09
778.36	231.99
778.69	231.95
779.01	231.98
779.33	231.52
779.66	230.86
779.98	230.85
780.31	230.80
780.63	230.98
780.95	231.00
781.28	231.00
781.60	231.00
781.92	230.96
782.25	230.92
782.57	230.85
782.89	230.75
783.22	230.71
783.54	230.65
783.86	230.71
784.19	230.58
784.51	230.70
784.83	230.55
785.16	230.46
785.48	230.48
785.80	230.48
786.12	230.48
786.45	230.48
786.77	230.40
787.09	230.29
787.42	230.05
787.74	230.06
788.06	230.02
788.38	229.96
788.71	229.90
789.03	229.86
789.35	229.87
789.67	229.80
789.99	229.80
790.32	229.66
790.64	229.67
790.96	230.05
791.28	229.82
791.61	229.78
791.93	229.85
792.25	229.75
792.57	230.01
792.89	229.85
793.21	229.81
793.54	229.75
793.86	229.70
794.18	229.68
794.50	229.56
794.82	229.57
795.14	229.69
795.47	229.74
795.79	229.75
796.11	229.61
796.43	229.54
796.75	229.46
797.07	229.47
797.39	229.38
797.71	229.04
798.04	229.00
798.36	229.12
798.68	229.03
799.00	229.04
799.32	228.79
799.64	228.93
799.96	228.88
800.28	228.97
800.60	228.95
800.92	229.00
801.24	228.98
801.56	228.93
801.89	228.74
802.21	228.68
802.53	228.65
802.85	228.83
803.17	229.13
803.49	229.04
803.81	228.94
804.13	228.95
804.45	228.92
804.77	229.00
805.09	228.90
805.41	228.91
805.73	228.82
806.05	228.65
806.37	228.59
806.69	228.53
807.01	228.47
807.33	228.50
807.65	228.32
807.97	228.54
808.28	228.50
808.60	228.54
808.92	228.46
809.24	228.67
809.56	228.58
809.88	228.35
810.20	228.40
810.52	228.56
810.84	228.50
811.16	228.41
811.48	228.39
811.80	228.54
812.12	228.48
812.43	228.59
812.75	228.60
813.07	228.55
813.39	228.59
813.71	228.56
814.03	228.48
814.35	228.45
814.67	228.26
814.98	228.18
815.30	228.07
815.62	227.99
815.94	227.66
816.26	227.82
816.58	227.68
816.89	227.59
817.21	227.48
817.53	227.49
817.85	227.46
818.17	227.46
818.48	227.29
818.80	227.39
819.12	227.30
819.44	227.25
819.76	227.19
820.07	227.25
820.39	227.20
820.71	227.26
821.03	227.29
821.34	227.22
821.66	227.26
821.98	227.35
822.30	227.45
822.61	227.80
822.93	227.52
823.25	227.54
823.57	227.54
823.88	227.55
824.20	227.46
824.52	227.51
824.83	227.38
825.15	227.36
825.47	227.28
825.79	227.29
826.10	227.23
826.42	227.20
826.74	227.20
827.05	227.17
827.37	227.16
827.69	227.15
828.00	227.19
828.32	227.17
828.64	227.06
828.95	227.19
829.27	226.99
829.58	227.05
829.90	227.10
830.22	227.12
830.53	227.00
830.85	227.03
831.17	226.89
831.48	226.91
831.80	226.93
832.11	226.91
832.43	226.78
832.75	226.81
833.06	227.04
833.38	226.88
833.69	226.88
834.01	226.86
834.32	226.81
834.64	226.72
834.96	226.82
835.27	226.88
835.59	226.75
835.90	226.64
836.22	226.56
836.53	226.43
836.85	226.36
837.16	226.83
837.48	226.83
837.79	227.08
838.11	227.06
838.42	227.06
838.74	227.12
839.05	227.15
839.37	227.18
839.68	226.86
840.00	226.83
840.31	226.94
840.63	226.96
840.94	226.96
841.26	226.93
841.57	226.83
841.88	226.88
842.20	226.83
842.51	226.83
842.83	226.91
843.14	227.43
843.46	227.45
843.77	227.21
844.08	227.20
844.40	227.05
844.71	227.02
845.03	226.95
845.34	226.98
845.65	227.00
845.97	226.98
846.28	227.05
846.60	227.13
846.91	227.00
847.22	227.00
847.54	227.15
847.85	227.19
848.16	227.27
848.48	227.21
848.79	227.39
849.10	227.46
849.42	227.53
849.73	227.08
850.04	227.11
850.36	226.99
850.67	227.10
850.98	227.13
851.30	227.27
851.61	227.29
851.92	227.26
852.23	227.40
852.55	227.41
852.86	227.50
853.17	227.55
853.49	227.76
853.80	227.84
854.11	227.85
854.42	227.89
854.74	227.75
855.05	227.68
855.36	227.49
855.67	227.50
855.99	227.43
856.30	227.96
856.61	227.95
856.92	227.95
857.23	227.95
857.55	227.92
857.86	227.86
858.17	227.95
858.48	227.84
858.79	227.72
859.11	227.73
859.42	227.69
859.73	227.59
860.04	227.45
860.35	227.31
860.66	227.14
860.98	227.11
861.29	227.21
861.60	227.28
861.91	227.33
862.22	227.23
862.53	227.16
862.84	226.66
863.16	226.80
863.47	226.65
863.78	226.58
864.09	226.58
864.40	226.63
864.71	226.56
865.02	226.60
865.33	226.46
865.64	226.38
865.95	226.30
866.27	226.67
866.58	226.72
866.89	226.76
867.20	226.74
867.51	226.71
867.82	226.66
868.13	226.77
868.44	226.76
868.75	226.82
869.06	226.78
869.37	226.81
869.68	226.66
869.99	226.75
870.30	226.72
870.61	226.72
870.92	226.61
871.23	226.50
871.54	226.57
871.85	226.79
872.16	226.86
872.47	226.83
872.78	226.44
873.09	226.44
873.40	226.37
873.71	226.39
874.02	226.40
874.33	226.32
874.64	226.20
874.95	226.20
875.26	226.14
875.56	226.19
875.87	226.12
876.18	226.07
876.49	226.65
876.80	226.61
877.11	226.49
877.42	226.51
877.73	226.56
878.04	226.47
878.35	226.40
878.66	226.42
878.96	226.47
879.27	226.46
879.58	226.41
879.89	226.41
880.20	226.62
880.51	226.62
880.82	226.64
881.12	226.66
881.43	226.60
881.74	226.54
882.05	226.48
882.36	226.58
882.67	226.57
882.97	225.98
883.28	225.96
883.59	226.05
883.90	226.08
884.21	226.26
884.51	226.26
884.82	226.25
885.13	226.22
885.44	226.20
885.74	226.22
886.05	226.21
886.36	226.22
886.67	226.03
886.98	226.29
887.28	226.36
887.59	226.45
887.90	226.51
888.20	226.52
888.51	226.61
888.82	226.50
889.13	226.63
889.43	227.02
889.74	226.98
890.05	226.95
890.35	226.92
890.66	226.83
890.97	226.75
891.28	226.70
891.58	226.77
891.89	226.78
892.20	226.74
892.50	226.68
892.81	226.68
893.12	226.63
893.42	226.33
893.73	226.35
894.04	226.27
894.34	226.25
894.65	226.22
894.95	226.19
895.26	226.22
895.57	226.39
895.87	225.89
896.18	226.01
896.48	226.04
896.79	226.02
897.10	226.05
897.40	226.12
897.71	226.17
898.01	226.09
898.32	226.15
898.63	226.18
898.93	226.19
899.24	226.21
899.54	226.20
899.85	226.21
900.15	226.13
900.46	226.18
900.76	226.25
901.07	226.26
901.38	226.28
901.68	226.28
901.99	226.01
902.29	226.02
902.60	225.99
902.90	225.97
903.21	225.99
903.51	225.92
903.82	226.04
904.12	226.01
904.43	226.03
904.73	225.98
905.03	225.96
905.34	226.44
905.64	226.37
905.95	226.42
906.25	226.38
906.56	226.38
906.86	226.37
907.17	226.33
907.47	226.37
907.77	226.34
908.08	226.33
908.38	226.41
908.69	226.50
908.99	226.52
909.30	226.56
909.60	226.62
909.90	226.69
910.21	226.51
910.51	226.46
910.81	226.55
911.12	226.56
911.42	226.58
911.73	226.11
912.03	226.15
912.33	226.15
912.64	226.17
912.94	226.14
913.24	225.98
913.55	225.93
913.85	225.87
914.15	225.95
914.46	225.96
914.76	225.84
915.06	225.79
915.37	225.74
915.67	225.68
915.97	225.61
916.27	225.48
916.58	225.58
916.88	225.60
917.18	225.55
917.49	225.90
917.79	225.89
918.09	225.98
918.39	226.09
918.70	226.14
919.00	226.21
919.30	226.41
919.60	226.43
919.91	226.38
920.21	226.42
920.51	226.30
920.81	226.30
921.12	226.38
921.42	226.46
921.72	226.51
922.02	226.52
922.32	226.65
922.63	226.68
922.93	226.80
923.23	226.83
923.53	226.77
923.83	226.44
924.13	226.50
924.44	226.48
924.74	226.52
925.04	226.61
925.34	226.51
925.64	226.32
925.94	226.40
926.24	226.73
926.55	226.65
926.85	226.74
927.15	226.75
927.45	226.80
927.75	226.78
928.05	226.82
928.35	226.75
928.65	226.78
928.95	226.77
929.26	226.65
929.56	226.75
929.86	226.76
930.16	226.72
930.46	226.64
930.76	226.60
931.06	226.43
931.36	226.30
931.66	226.39
931.96	226.41
932.26	226.45
932.56	226.14
932.86	226.24
933.16	226.18
933.46	226.11
933.76	226.02
934.06	226.13
934.36	226.29
934.66	226.26
934.96	226.18
935.26	226.22
935.56	226.26
935.86	226.11
936.16	226.07
936.46	226.04
936.76	226.01
937.06	225.94
937.36	225.92
937.66	225.96
937.96	225.94
938.26	225.80
938.56	225.72
938.86	225.75
939.16	225.80
939.46	225.84
939.76	225.83
940.06	225.82
940.35	225.68
940.65	225.40
940.95	225.44
941.25	225.40
941.55	225.35
941.85	225.34
942.15	225.42
942.45	225.57
942.75	225.53
943.04	225.62
943.34	225.70
943.64	225.70
943.94	225.68
944.24	225.69
944.54	225.78
944.84	225.76
945.13	225.70
945.43	225.65
945.73	225.60
946.03	225.58
946.33	225.53
946.62	225.51
946.92	225.48
947.22	225.50
947.52	225.42
947.82	225.48
948.11	225.40
948.41	225.24
948.71	225.12
949.01	225.18
949.31	225.08
949.60	225.08
949.90	225.15
950.20	225.06
950.50	225.03
950.79	225.00
951.09	225.07
951.39	225.07
951.69	225.02
951.98	225.16
952.28	225.27
952.58	225.30
952.87	225.28
953.17	225.40
953.47	225.36
953.76	225.37
954.06	225.23
954.36	225.21
954.66	225.28
954.95	225.36
955.25	225.35
955.55	225.44
955.84	225.33
956.14	225.32
956.44	225.29
956.73	225.22
957.03	225.21
957.32	225.17
957.62	225.14
957.92	225.27
958.21	225.22
958.51	225.67
958.81	225.65
959.10	225.70
959.40	225.83
959.69	225.89
959.99	225.97
960.29	226.04
960.58	226.05
960.88	226.20
961.17	226.12
961.47	226.20
961.76	226.12
962.06	226.28
962.36	226.17
962.65	226.31
962.95	226.30
963.24	226.33
963.54	226.38
963.83	226.47
964.13	226.39
964.42	226.19
964.72	225.78
965.01	225.88
965.31	225.87
965.60	225.73
965.90	226.05
966.19	225.92
966.49	225.93
966.78	225.81
967.08	225.78
967.37	225.79
967.67	225.69
967.96	225.77
968.26	225.77
968.55	225.87
968.85	225.85
969.14	225.88
969.43	225.88
969.73	225.79
970.02	225.72
970.32	225.70
970.61	225.74
970.91	225.65
971.20	225.57
971.49	225.48
971.79	225.48
972.08	225.08
972.38	225.26
972.67	225.16
972.96	225.29
973.26	225.13
973.55	225.34
973.85	225.30
974.14	225.28
974.43	225.26
974.73	225.21
975.02	225.16
975.31	225.15
975.61	225.18
975.90	225.18
976.19	225.09
976.49	225.13
976.78	225.16
977.07	225.17
977.37	225.11
977.66	225.24
977.95	225.19
978.24	225.24
978.54	225.32
978.83	225.35
979.12	225.34
979.42	225.40
979.71	225.32
980.00	225.35
980.29	225.35
980.59	225.28
980.88	225.41
981.17	225.43
981.46	225.48
981.76	225.49
982.05	225.66
982.34	225.73
982.63	225.75
982.93	225.80
983.22	225.98
983.51	226.08
983.80	226.11
984.09	226.16
984.39	226.11
984.68	226.00
984.97	226.06
985.26	225.97
985.55	225.99
985.85	225.88
986.14	225.93
986.43	226.04
986.72	226.10
987.01	225.99
987.30	225.91
987.59	225.86
987.89	225.85
988.18	225.71
988.47	225.77
988.76	225.69
989.05	225.68
989.34	225.58
989.63	225.63
989.92	225.60
990.22	225.50
990.51	225.60
990.80	225.60
991.09	225.64
991.38	225.76
991.67	225.71
991.96	225.70
992.25	225.68
992.54	225.61
992.83	225.56
993.12	225.63
993.41	225.74
993.70	225.94
993.99	226.02
994.28	226.05
994.58	226.09
994.87	226.12
995.16	226.08
995.45	226.05
995.74	225.93
996.03	226.00
996.32	226.18
996.61	226.29
996.90	226.21
997.19	226.21
997.48	226.25
997.77	226.22
998.06	226.25
998.34	226.30
998.63	226.27
998.92	226.29
999.21	226.28
999.50	226.38
999.79	226.24
1000.08	226.26
1000.37	226.38
1000.66	226.36
1000.95	226.45
1001.24	226.49
1001.53	226.54
1001.82	226.56
1002.11	226.39
1002.40	226.40
1002.68	226.57
1002.97	226.98
1003.26	226.91
1003.55	226.79
1003.84	226.89
1004.13	227.04
1004.42	226.99
1004.71	226.97
1004.99	226.95
1005.28	227.09
1005.57	226.94
1005.86	226.87
1006.15	226.80
1006.44	226.66
1006.72	226.65
1007.01	226.60
1007.30	226.59
1007.59	226.52
1007.88	226.51
1008.17	226.61
1008.45	226.47
1008.74	226.08
1009.03	225.74
1009.32	225.75
1009.60	225.75
1009.89	225.63
1010.18	225.40
1010.47	225.32
1010.76	225.36
1011.04	225.26
1011.33	225.20
1011.62	225.25
1011.91	225.24
1012.19	225.24
1012.48	225.18
1012.77	225.14
1013.05	225.30
1013.34	225.32
1013.63	225.27
1013.92	225.34
1014.20	225.28
1014.49	225.25
1014.78	225.35
1015.06	225.24
1015.35	225.22
1015.64	225.32
1015.92	225.39
1016.21	225.37
1016.50	225.38
1016.78	225.28
1017.07	225.35
1017.36	225.24
1017.64	225.20
1017.93	225.31
1018.22	225.28
1018.50	225.26
1018.79	225.27
1019.08	225.02
1019.36	225.02
1019.65	224.93
1019.93	224.97
1020.22	225.00
1020.51	225.29
1020.79	225.28
1021.08	225.10
1021.36	223.80
1021.65	225.20
1021.94	224.65
1022.22	225.75
1022.51	223.20
1022.79	227.15
1023.08	225.50
1023.36	231.05
1023.65	224.90
>>>>>End Processed Spectral Data<<<<<
