SpectraSuite Data File
++++++++++++++++++++++++++++++++++++
Date: Wed Sep 04 17:51:25 EDT 2013
User: lab3
Dark Spectrum Present: Yes
Reference Spectrum Present: No
Number of Sampled Component Spectra: 1
Spectrometers: USB2E7196
Integration Time (usec): 170000 (USB2E7196)
Spectra Averaged: 20 (USB2E7196)
Boxcar Smoothing: 10 (USB2E7196)
Correct for Electrical Dark: No (USB2E7196)
Strobe/Lamp Enabled: No (USB2E7196)
Correct for Detector Non-linearity: No (USB2E7196)
Correct for Stray Light: No (USB2E7196)
Number of Pixels in Processed Spectrum: 2048
>>>>>Begin Processed Spectral Data<<<<<
339.09	0.00
339.48	214.05
339.86	214.15
340.24	214.20
340.63	216.35
341.01	226.35
341.39	219.40
341.78	220.95
342.16	224.80
342.54	223.85
342.93	211.92
343.31	222.57
343.69	223.07
344.07	223.53
344.46	224.04
344.84	224.44
345.22	224.35
345.60	224.69
345.99	224.90
346.37	224.94
346.75	224.94
347.13	224.96
347.52	225.00
347.90	225.22
348.28	225.30
348.66	225.52
349.05	225.44
349.43	225.44
349.81	225.57
350.19	225.61
350.57	225.71
350.96	225.80
351.34	226.00
351.72	226.07
352.10	226.16
352.48	226.20
352.87	226.25
353.25	226.33
353.63	226.36
354.01	226.43
354.39	226.52
354.77	226.66
355.15	226.90
355.54	226.92
355.92	226.90
356.30	226.98
356.68	227.26
357.06	227.33
357.44	227.41
357.82	227.47
358.20	228.03
358.58	228.04
358.97	228.18
359.35	228.32
359.73	228.44
360.11	228.54
360.49	228.67
360.87	228.77
361.25	228.86
361.63	229.03
362.01	229.11
362.39	229.18
362.77	229.24
363.15	229.21
363.53	229.27
363.91	229.27
364.29	229.42
364.67	229.07
365.05	229.10
365.43	229.18
365.81	229.23
366.19	229.00
366.57	229.21
366.95	229.13
367.33	228.99
367.71	229.02
368.09	229.19
368.47	229.20
368.85	229.21
369.23	229.33
369.61	229.19
369.99	229.37
370.37	229.37
370.75	229.58
371.13	229.50
371.51	229.45
371.89	229.51
372.27	229.35
372.65	229.35
373.03	229.36
373.41	229.25
373.78	229.19
374.16	228.92
374.54	228.75
374.92	228.67
375.30	228.61
375.68	228.50
376.06	228.42
376.44	228.34
376.82	228.26
377.19	228.20
377.57	228.10
377.95	227.84
378.33	227.76
378.71	227.44
379.09	227.41
379.47	227.34
379.84	227.23
380.22	227.16
380.60	227.05
380.98	226.93
381.36	226.93
381.73	226.85
382.11	226.86
382.49	226.80
382.87	226.79
383.25	226.77
383.62	227.26
384.00	227.03
384.38	226.95
384.76	226.98
385.13	227.10
385.51	227.06
385.89	227.00
386.27	226.98
386.64	227.08
387.02	226.99
387.40	227.00
387.78	226.99
388.15	226.96
388.53	226.80
388.91	226.79
389.29	226.70
389.66	226.72
390.04	226.70
390.42	226.81
390.79	226.78
391.17	226.84
391.55	226.27
391.92	226.32
392.30	226.43
392.68	226.36
393.05	226.26
393.43	226.31
393.81	226.25
394.18	226.11
394.56	226.03
394.94	226.19
395.31	226.11
395.69	226.23
396.06	226.35
396.44	226.45
396.82	226.45
397.19	226.73
397.57	226.73
397.95	226.81
398.32	226.69
398.70	226.77
399.07	226.84
399.45	226.88
399.82	226.89
400.20	226.90
400.58	226.98
400.95	226.91
401.33	227.19
401.70	227.65
402.08	227.83
402.45	228.01
402.83	228.22
403.20	228.40
403.58	228.52
403.95	228.77
404.33	229.03
404.71	229.23
405.08	229.66
405.46	229.96
405.83	230.21
406.21	230.47
406.58	230.76
406.96	231.01
407.33	231.40
407.70	231.84
408.08	232.54
408.45	232.96
408.83	233.46
409.20	233.73
409.58	234.00
409.95	234.56
410.33	235.07
410.70	235.43
411.08	236.11
411.45	236.77
411.82	237.31
412.20	238.11
412.57	239.10
412.95	239.43
413.32	240.26
413.69	241.07
414.07	241.94
414.44	242.94
414.82	244.00
415.19	245.22
415.56	246.34
415.94	247.34
416.31	248.78
416.68	250.13
417.06	251.72
417.43	253.31
417.81	254.99
418.18	256.79
418.55	258.76
418.93	260.76
419.30	262.84
419.67	265.11
420.04	267.33
420.42	269.66
420.79	272.66
421.16	275.33
421.54	278.40
421.91	281.45
422.28	284.50
422.66	287.80
423.03	291.12
423.40	294.52
423.77	298.14
424.15	301.67
424.52	305.50
424.89	309.74
425.26	313.63
425.64	317.52
426.01	321.73
426.38	326.06
426.75	330.62
427.13	335.13
427.50	339.74
427.87	344.58
428.24	349.49
428.61	353.90
428.99	359.25
429.36	364.71
429.73	370.10
430.10	375.49
430.47	381.05
430.85	386.62
431.22	392.71
431.59	399.45
431.96	405.60
432.33	412.44
432.70	418.96
433.08	426.85
433.45	434.05
433.82	441.32
434.19	449.50
434.56	457.32
434.93	464.96
435.30	472.62
435.68	481.21
436.05	489.53
436.42	497.87
436.79	505.51
437.16	513.77
437.53	522.61
437.90	531.40
438.27	539.92
438.64	548.88
439.01	557.22
439.38	564.19
439.75	571.39
440.13	579.50
440.50	587.00
440.87	592.91
441.24	599.37
441.61	606.31
441.98	611.30
442.35	617.14
442.72	623.10
443.09	629.00
443.46	632.43
443.83	634.75
444.20	636.76
444.57	639.49
444.94	640.52
445.31	641.45
445.68	642.81
446.05	643.03
446.42	641.67
446.79	640.21
447.16	638.65
447.53	637.34
447.90	633.54
448.27	629.85
448.64	625.15
449.01	621.50
449.37	615.33
449.74	609.47
450.11	602.70
450.48	595.04
450.85	587.07
451.22	580.18
451.59	573.67
451.96	567.56
452.33	559.38
452.70	552.20
453.07	543.79
453.43	534.78
453.80	526.50
454.17	518.49
454.54	510.88
454.91	502.73
455.28	494.74
455.65	487.41
456.02	480.64
456.38	474.30
456.75	466.55
457.12	460.15
457.49	453.83
457.86	447.59
458.23	442.37
458.59	436.69
458.96	431.05
459.33	425.83
459.70	420.63
460.07	416.59
460.43	411.83
460.80	407.58
461.17	403.81
461.54	399.77
461.91	396.06
462.27	392.21
462.64	389.06
463.01	385.64
463.38	382.29
463.74	378.33
464.11	375.22
464.48	372.70
464.85	369.82
465.21	367.67
465.58	365.28
465.95	362.55
466.32	360.39
466.68	358.02
467.05	355.93
467.42	353.62
467.78	351.29
468.15	349.20
468.52	347.60
468.88	345.35
469.25	343.38
469.62	341.96
469.98	340.29
470.35	338.72
470.72	337.18
471.08	335.45
471.45	334.19
471.82	333.01
472.18	331.45
472.55	330.41
472.92	329.08
473.28	327.95
473.65	326.82
474.02	325.66
474.38	324.89
474.75	324.02
475.11	323.27
475.48	322.70
475.85	321.98
476.21	321.19
476.58	320.69
476.94	320.37
477.31	319.85
477.67	319.43
478.04	319.15
478.41	318.92
478.77	319.20
479.14	318.93
479.50	318.84
479.87	318.87
480.23	318.90
480.60	318.94
480.96	318.99
481.33	319.31
481.69	319.54
482.06	319.67
482.42	319.98
482.79	320.25
483.15	320.61
483.52	321.30
483.88	321.75
484.25	322.41
484.61	322.98
484.98	323.58
485.34	324.55
485.71	325.58
486.07	326.61
486.44	327.18
486.80	328.25
487.17	329.31
487.53	330.68
487.90	332.05
488.26	333.72
488.62	335.41
488.99	336.94
489.35	338.72
489.72	340.66
490.08	342.62
490.44	344.72
490.81	346.99
491.17	349.12
491.54	351.66
491.90	354.10
492.26	356.96
492.63	359.76
492.99	362.61
493.36	365.66
493.72	368.95
494.08	372.43
494.45	376.07
494.81	379.97
495.17	383.91
495.54	388.20
495.90	392.37
496.26	396.76
496.63	401.55
496.99	406.33
497.35	411.36
497.72	416.67
498.08	422.07
498.44	427.64
498.80	433.83
499.17	439.88
499.53	446.09
499.89	452.56
500.26	459.38
500.62	466.26
500.98	473.68
501.34	481.15
501.71	488.99
502.07	496.92
502.43	504.96
502.79	513.30
503.16	521.84
503.52	530.80
503.88	539.94
504.24	549.51
504.60	559.59
504.97	569.79
505.33	580.12
505.69	591.45
506.05	602.53
506.41	613.63
506.78	625.44
507.14	637.63
507.50	650.02
507.86	662.58
508.22	675.67
508.59	688.45
508.95	701.96
509.31	716.00
509.67	730.21
510.03	744.61
510.39	759.33
510.75	774.37
511.12	789.55
511.48	805.20
511.84	820.81
512.20	836.55
512.56	852.86
512.92	869.69
513.28	886.12
513.64	903.33
514.00	920.84
514.37	938.37
514.73	956.30
515.09	974.02
515.45	992.43
515.81	1010.69
516.17	1029.45
516.53	1047.98
516.89	1066.34
517.25	1085.62
517.61	1105.59
517.97	1125.71
518.33	1145.75
518.69	1165.95
519.05	1186.46
519.41	1206.98
519.77	1228.00
520.13	1248.77
520.49	1269.38
520.85	1291.53
521.21	1312.51
521.57	1333.45
521.93	1353.94
522.29	1375.14
522.65	1396.18
523.01	1417.25
523.37	1437.78
523.73	1458.68
524.09	1479.19
524.45	1499.82
524.81	1520.55
525.17	1541.17
525.53	1561.60
525.89	1582.19
526.25	1602.79
526.61	1623.03
526.97	1644.05
527.33	1665.16
527.68	1686.35
528.04	1707.50
528.40	1726.93
528.76	1747.82
529.12	1768.13
529.48	1789.30
529.84	1808.88
530.20	1830.05
530.56	1850.61
530.91	1871.55
531.27	1892.13
531.63	1912.55
531.99	1933.10
532.35	1952.98
532.71	1973.25
533.07	1993.68
533.42	2013.30
533.78	2032.86
534.14	2052.62
534.50	2071.50
534.86	2090.64
535.21	2108.21
535.57	2126.57
535.93	2144.26
536.29	2161.83
536.65	2179.93
537.00	2197.09
537.36	2214.94
537.72	2231.10
538.08	2247.87
538.44	2264.00
538.79	2280.10
539.15	2296.86
539.51	2312.60
539.87	2327.57
540.22	2341.22
540.58	2355.46
540.94	2368.93
541.29	2381.69
541.65	2394.33
542.01	2407.01
542.37	2417.26
542.72	2428.59
543.08	2439.21
543.44	2450.91
543.79	2460.63
544.15	2470.49
544.51	2480.50
544.87	2489.67
545.22	2497.80
545.58	2505.27
545.94	2512.81
546.29	2519.58
546.65	2525.49
547.01	2531.43
547.36	2536.88
547.72	2542.29
548.07	2545.69
548.43	2550.80
548.79	2555.59
549.14	2559.34
549.50	2562.47
549.86	2566.41
550.21	2569.76
550.57	2572.88
550.92	2574.16
551.28	2575.48
551.64	2577.38
551.99	2579.03
552.35	2580.75
552.70	2583.11
553.06	2584.80
553.41	2585.63
553.77	2586.93
554.13	2588.43
554.48	2589.47
554.84	2590.85
555.19	2591.77
555.55	2593.53
555.90	2592.50
556.26	2591.51
556.61	2589.72
556.97	2587.95
557.32	2587.25
557.68	2586.21
558.03	2584.68
558.39	2582.85
558.74	2582.37
559.10	2579.10
559.45	2575.00
559.81	2570.60
560.16	2565.40
560.52	2560.15
560.87	2555.97
561.23	2550.40
561.58	2544.18
561.94	2537.39
562.29	2530.06
562.64	2523.28
563.00	2515.25
563.35	2508.51
563.71	2501.68
564.06	2495.45
564.42	2488.72
564.77	2481.59
565.12	2473.88
565.48	2466.00
565.83	2458.29
566.19	2450.24
566.54	2442.68
566.89	2435.12
567.25	2427.41
567.60	2420.43
567.96	2413.27
568.31	2404.88
568.66	2396.31
569.02	2387.42
569.37	2379.25
569.72	2371.69
570.08	2362.16
570.43	2352.66
570.78	2343.90
571.14	2334.38
571.49	2324.45
571.84	2314.91
572.20	2303.99
572.55	2293.89
572.90	2283.02
573.26	2272.91
573.61	2261.53
573.96	2250.20
574.31	2238.38
574.67	2226.71
575.02	2213.68
575.37	2200.84
575.72	2188.01
576.08	2175.89
576.43	2163.62
576.78	2150.74
577.13	2136.96
577.49	2124.75
577.84	2113.00
578.19	2100.87
578.54	2088.62
578.90	2076.51
579.25	2064.09
579.60	2051.83
579.95	2039.09
580.30	2026.07
580.66	2012.37
581.01	1998.82
581.36	1985.00
581.71	1972.20
582.06	1959.05
582.42	1946.63
582.77	1934.36
583.12	1922.52
583.47	1910.32
583.82	1898.27
584.17	1885.96
584.53	1874.30
584.88	1861.25
585.23	1848.15
585.58	1833.97
585.93	1820.78
586.28	1807.57
586.63	1793.82
586.98	1779.71
587.34	1766.14
587.69	1752.99
588.04	1741.00
588.39	1729.20
588.74	1717.40
589.09	1705.44
589.44	1692.70
589.79	1681.06
590.14	1668.96
590.49	1656.93
590.84	1645.02
591.19	1633.20
591.54	1621.27
591.89	1609.13
592.25	1598.92
592.60	1587.59
592.95	1576.64
593.30	1564.87
593.65	1553.05
594.00	1541.44
594.35	1531.91
594.70	1520.42
595.05	1509.20
595.40	1497.02
595.75	1485.21
596.10	1473.88
596.45	1462.59
596.80	1451.88
597.15	1440.31
597.50	1428.69
597.85	1417.35
598.19	1405.76
598.54	1394.21
598.89	1382.96
599.24	1372.41
599.59	1361.11
599.94	1350.42
600.29	1339.78
600.64	1329.31
600.99	1318.87
601.34	1308.99
601.69	1297.77
602.04	1287.94
602.39	1278.30
602.74	1269.25
603.08	1260.00
603.43	1250.78
603.78	1241.26
604.13	1231.88
604.48	1222.23
604.83	1212.69
605.18	1203.06
605.53	1193.54
605.87	1184.35
606.22	1175.97
606.57	1166.74
606.92	1157.15
607.27	1148.06
607.62	1139.51
607.96	1131.19
608.31	1123.18
608.66	1114.91
609.01	1106.50
609.36	1098.19
609.70	1089.70
610.05	1081.07
610.40	1072.49
610.75	1063.87
611.10	1055.39
611.44	1046.75
611.79	1038.66
612.14	1030.89
612.49	1023.09
612.83	1015.72
613.18	1008.10
613.53	1000.38
613.88	992.67
614.22	985.17
614.57	977.43
614.92	969.60
615.27	962.03
615.61	954.44
615.96	946.87
616.31	939.43
616.65	932.43
617.00	925.33
617.35	918.09
617.70	911.00
618.04	903.92
618.39	897.19
618.74	890.96
619.08	884.17
619.43	877.14
619.78	870.05
620.12	863.04
620.47	856.15
620.82	849.05
621.16	842.28
621.51	835.96
621.85	829.76
622.20	823.24
622.55	816.54
622.89	810.13
623.24	803.85
623.59	797.67
623.93	791.28
624.28	785.15
624.62	779.74
624.97	774.17
625.32	768.66
625.66	762.75
626.01	756.60
626.35	751.10
626.70	745.63
627.04	740.39
627.39	734.88
627.73	729.77
628.08	724.66
628.43	719.43
628.77	714.01
629.12	708.89
629.46	704.32
629.81	699.75
630.15	695.03
630.50	690.36
630.84	685.54
631.19	680.86
631.53	676.28
631.88	670.95
632.22	666.02
632.57	661.43
632.91	656.84
633.26	652.46
633.60	647.88
633.95	643.30
634.29	638.65
634.64	634.23
634.98	629.45
635.32	625.05
635.67	621.00
636.01	616.94
636.36	612.71
636.70	608.55
637.05	604.47
637.39	600.43
637.73	596.23
638.08	592.19
638.42	588.07
638.77	583.80
639.11	579.58
639.45	575.26
639.80	570.91
640.14	566.79
640.49	562.90
640.83	559.03
641.17	555.22
641.52	551.60
641.86	548.12
642.20	544.99
642.55	541.43
642.89	537.79
643.23	534.22
643.58	530.88
643.92	527.21
644.26	523.85
644.61	520.55
644.95	517.19
645.29	513.97
645.64	510.98
645.98	507.91
646.32	505.04
646.66	502.11
647.01	499.14
647.35	496.48
647.69	493.50
648.04	490.84
648.38	488.17
648.72	485.22
649.06	482.18
649.41	479.06
649.75	476.13
650.09	473.30
650.43	470.40
650.78	467.48
651.12	464.73
651.46	461.90
651.80	459.15
652.14	456.59
652.49	454.02
652.83	451.37
653.17	448.88
653.51	446.24
653.85	443.83
654.20	441.45
654.54	438.80
654.88	436.43
655.22	434.24
655.56	431.91
655.90	429.78
656.25	427.60
656.59	425.48
656.93	423.30
657.27	421.23
657.61	418.89
657.95	416.79
658.29	414.61
658.64	412.65
658.98	410.37
659.32	408.14
659.66	405.86
660.00	403.76
660.34	401.67
660.68	399.75
661.02	397.73
661.36	395.76
661.70	393.86
662.05	391.96
662.39	389.93
662.73	388.06
663.07	386.34
663.41	384.47
663.75	382.57
664.09	380.70
664.43	378.72
664.77	377.14
665.11	375.34
665.45	373.73
665.79	372.06
666.13	370.46
666.47	368.85
666.81	367.21
667.15	365.50
667.49	364.02
667.83	362.65
668.17	361.05
668.51	359.54
668.85	358.15
669.19	356.98
669.53	355.45
669.87	354.01
670.21	352.41
670.55	350.96
670.89	349.90
671.23	348.62
671.57	347.33
671.91	345.92
672.25	344.67
672.58	343.55
672.92	341.99
673.26	340.80
673.60	339.65
673.94	338.45
674.28	337.41
674.62	336.21
674.96	334.93
675.30	333.87
675.64	332.70
675.97	331.47
676.31	330.00
676.65	328.73
676.99	327.70
677.33	326.60
677.67	325.67
678.01	324.30
678.34	323.28
678.68	322.29
679.02	321.28
679.36	320.29
679.70	319.05
680.04	318.22
680.37	317.26
680.71	316.16
681.05	315.30
681.39	314.38
681.73	313.41
682.06	312.35
682.40	311.51
682.74	310.61
683.08	309.89
683.42	309.04
683.75	308.25
684.09	307.29
684.43	306.50
684.77	305.60
685.10	304.75
685.44	303.96
685.78	303.13
686.12	302.38
686.45	301.45
686.79	300.73
687.13	299.99
687.46	299.16
687.80	298.58
688.14	297.79
688.48	297.01
688.81	296.27
689.15	295.70
689.49	294.85
689.82	294.15
690.16	293.32
690.50	292.62
690.83	292.04
691.17	291.23
691.51	290.54
691.84	289.87
692.18	289.19
692.52	288.52
692.85	287.89
693.19	287.49
693.52	287.02
693.86	286.37
694.20	285.74
694.53	285.15
694.87	284.48
695.21	283.80
695.54	283.19
695.88	282.56
696.21	281.89
696.55	281.35
696.88	280.85
697.22	280.22
697.56	279.77
697.89	279.15
698.23	278.79
698.56	278.15
698.90	277.70
699.23	277.20
699.57	276.67
699.90	276.08
700.24	275.34
700.58	274.87
700.91	274.50
701.25	274.47
701.58	274.37
701.92	274.08
702.25	273.69
702.59	273.29
702.92	272.90
703.26	272.57
703.59	272.17
703.93	272.19
704.26	271.85
704.60	271.39
704.93	270.90
705.26	270.34
705.60	270.07
705.93	269.53
706.27	269.21
706.60	268.94
706.94	268.83
707.27	268.51
707.61	268.16
707.94	267.80
708.27	267.01
708.61	266.27
708.94	265.84
709.28	265.57
709.61	265.04
709.94	264.66
710.28	264.27
710.61	263.93
710.95	263.10
711.28	263.02
711.61	262.59
711.95	262.38
712.28	262.04
712.61	261.70
712.95	261.71
713.28	261.70
713.61	261.28
713.95	260.78
714.28	260.39
714.61	259.97
714.95	259.54
715.28	259.19
715.61	258.85
715.95	258.46
716.28	258.01
716.61	257.81
716.95	257.43
717.28	257.08
717.61	256.73
717.94	256.45
718.28	255.88
718.61	255.65
718.94	255.26
719.27	255.06
719.61	254.89
719.94	254.41
720.27	253.82
720.60	253.53
720.94	253.28
721.27	253.08
721.60	252.90
721.93	252.67
722.27	252.61
722.60	252.41
722.93	252.10
723.26	251.92
723.59	251.69
723.93	251.53
724.26	251.32
724.59	251.07
724.92	250.83
725.25	250.65
725.59	250.40
725.92	250.30
726.25	250.05
726.58	249.78
726.91	249.48
727.24	249.34
727.57	249.21
727.91	248.96
728.24	248.82
728.57	248.52
728.90	248.40
729.23	248.02
729.56	248.09
729.89	247.99
730.22	247.80
730.55	247.54
730.89	247.43
731.22	247.15
731.55	247.05
731.88	246.98
732.21	246.70
732.54	246.47
732.87	246.28
733.20	246.22
733.53	246.09
733.86	246.03
734.19	245.79
734.52	245.68
734.85	245.82
735.18	245.53
735.51	245.55
735.84	245.42
736.17	245.38
736.50	244.90
736.83	245.31
737.16	245.18
737.49	245.12
737.82	244.89
738.15	244.91
738.48	244.71
738.81	244.47
739.14	244.35
739.47	244.28
739.80	244.09
740.13	243.89
740.46	243.62
740.79	243.44
741.12	243.27
741.45	242.98
741.78	242.57
742.11	242.63
742.44	242.41
742.77	242.37
743.10	242.15
743.43	242.04
743.75	241.46
744.08	241.95
744.41	241.77
744.74	241.60
745.07	241.32
745.40	241.19
745.73	241.26
746.06	241.13
746.39	241.00
746.71	240.83
747.04	240.63
747.37	240.52
747.70	240.45
748.03	240.38
748.36	240.34
748.68	240.22
749.01	239.98
749.34	239.89
749.67	239.74
750.00	239.68
750.33	239.95
750.65	239.83
750.98	239.05
751.31	238.97
751.64	238.95
751.97	239.11
752.29	239.02
752.62	238.67
752.95	238.58
753.28	238.43
753.60	238.34
753.93	238.37
754.26	238.31
754.59	238.12
754.91	237.95
755.24	237.79
755.57	237.79
755.90	237.65
756.22	237.43
756.55	237.19
756.88	237.04
757.20	236.59
757.53	236.28
757.86	236.22
758.19	236.10
758.51	235.89
758.84	235.60
759.17	235.51
759.49	235.50
759.82	235.67
760.15	235.60
760.47	235.51
760.80	235.25
761.13	235.15
761.45	235.00
761.78	234.94
762.11	234.89
762.43	234.70
762.76	234.64
763.08	234.70
763.41	234.69
763.74	234.65
764.06	234.61
764.39	234.60
764.71	234.48
765.04	234.42
765.37	234.38
765.69	234.26
766.02	234.14
766.34	233.93
766.67	233.65
767.00	233.72
767.32	233.89
767.65	234.12
767.97	234.02
768.30	234.00
768.62	233.94
768.95	233.85
769.27	233.74
769.60	233.74
769.92	233.60
770.25	233.46
770.57	233.18
770.90	233.10
771.22	232.91
771.55	232.93
771.87	232.87
772.20	232.78
772.52	233.08
772.85	233.68
773.17	233.70
773.50	233.65
773.82	233.48
774.15	233.25
774.47	232.95
774.80	232.91
775.12	232.83
775.45	232.72
775.77	232.67
776.09	232.68
776.42	232.56
776.74	232.62
777.07	232.58
777.39	232.74
777.72	232.65
778.04	232.71
778.36	232.54
778.69	232.54
779.01	232.59
779.33	232.18
779.66	231.52
779.98	231.44
780.31	231.41
780.63	231.58
780.95	231.53
781.28	231.51
781.60	231.41
781.92	231.41
782.25	231.35
782.57	231.34
782.89	231.26
783.22	231.21
783.54	231.05
783.86	230.99
784.19	230.89
784.51	230.95
784.83	230.88
785.16	230.89
785.48	230.83
785.80	230.73
786.12	230.73
786.45	230.69
786.77	230.69
787.09	230.53
787.42	230.22
787.74	230.20
788.06	230.16
788.38	230.16
788.71	230.10
789.03	230.13
789.35	230.16
789.67	229.99
789.99	229.95
790.32	229.83
790.64	229.81
790.96	230.13
791.28	229.96
791.61	229.86
791.93	229.83
792.25	229.77
792.57	230.15
792.89	230.01
793.21	230.02
793.54	229.92
793.86	229.90
794.18	229.91
794.50	229.78
794.82	229.78
795.14	229.79
795.47	229.89
795.79	229.90
796.11	229.65
796.43	229.70
796.75	229.72
797.07	229.75
797.39	229.79
797.71	229.42
798.04	229.41
798.36	229.41
798.68	229.35
799.00	229.28
799.32	228.93
799.64	229.10
799.96	229.07
800.28	229.16
800.60	229.18
800.92	229.22
801.24	229.16
801.56	229.17
801.89	229.07
802.21	229.04
802.53	228.87
802.85	229.02
803.17	229.18
803.49	229.05
803.81	228.97
804.13	228.88
804.45	228.83
804.77	228.88
805.09	228.93
805.41	228.87
805.73	228.78
806.05	228.66
806.37	228.58
806.69	228.52
807.01	228.45
807.33	228.45
807.65	228.26
807.97	228.56
808.28	228.49
808.60	228.48
808.92	228.37
809.24	228.72
809.56	228.70
809.88	228.53
810.20	228.57
810.52	228.62
810.84	228.59
811.16	228.56
811.48	228.59
811.80	228.73
812.12	228.78
812.43	228.96
812.75	229.00
813.07	228.94
813.39	228.92
813.71	228.88
814.03	228.89
814.35	228.91
814.67	228.70
814.98	228.64
815.30	228.63
815.62	228.59
815.94	228.22
816.26	228.37
816.58	228.29
816.89	228.32
817.21	228.30
817.53	228.25
817.85	228.22
818.17	228.14
818.48	227.92
818.80	228.00
819.12	227.88
819.44	227.75
819.76	227.61
820.07	227.58
820.39	227.59
820.71	227.55
821.03	227.51
821.34	227.44
821.66	227.50
821.98	227.53
822.30	227.55
822.61	227.86
822.93	227.64
823.25	227.63
823.57	227.59
823.88	227.67
824.20	227.70
824.52	227.83
824.83	227.79
825.15	227.75
825.47	227.72
825.79	227.73
826.10	227.78
826.42	227.83
826.74	227.90
827.05	227.88
827.37	227.86
827.69	227.91
828.00	227.94
828.32	227.92
828.64	227.86
828.95	228.02
829.27	227.81
829.58	227.80
829.90	227.88
830.22	227.90
830.53	227.74
830.85	227.72
831.17	227.46
831.48	227.46
831.80	227.52
832.11	227.46
832.43	227.35
832.75	227.30
833.06	227.56
833.38	227.40
833.69	227.38
834.01	227.37
834.32	227.28
834.64	227.26
834.96	227.26
835.27	227.21
835.59	227.10
835.90	227.06
836.22	226.99
836.53	226.89
836.85	226.82
837.16	227.31
837.48	227.29
837.79	227.49
838.11	227.44
838.42	227.40
838.74	227.41
839.05	227.40
839.37	227.38
839.68	227.02
840.00	227.02
840.31	227.12
840.63	227.10
840.94	227.10
841.26	227.02
841.57	227.01
841.88	227.11
842.20	227.02
842.51	226.97
842.83	227.00
843.14	227.47
843.46	227.50
843.77	227.13
844.08	227.08
844.40	226.96
844.71	227.03
845.03	226.99
845.34	227.02
845.65	227.00
845.97	227.05
846.28	227.15
846.60	227.13
846.91	226.95
847.22	226.92
847.54	227.03
847.85	227.05
848.16	227.04
848.48	226.92
848.79	227.20
849.10	227.22
849.42	227.28
849.73	226.77
850.04	226.77
850.36	226.68
850.67	226.77
850.98	226.77
851.30	226.70
851.61	226.68
851.92	226.62
852.23	226.81
852.55	226.80
852.86	226.82
853.17	226.89
853.49	226.99
853.80	227.13
854.11	227.19
854.42	227.23
854.74	227.15
855.05	227.19
855.36	226.85
855.67	226.86
855.99	226.85
856.30	227.46
856.61	227.45
856.92	227.48
857.23	227.51
857.55	227.48
857.86	227.49
858.17	227.60
858.48	227.60
858.79	227.51
859.11	227.50
859.42	227.47
859.73	227.43
860.04	227.40
860.35	227.21
860.66	227.02
860.98	227.01
861.29	227.12
861.60	227.09
861.91	227.24
862.22	227.22
862.53	227.10
862.84	226.55
863.16	226.68
863.47	226.55
863.78	226.46
864.09	226.46
864.40	226.50
864.71	226.42
865.02	226.42
865.33	226.38
865.64	226.35
865.95	226.40
866.27	226.68
866.58	226.72
866.89	226.77
867.20	226.81
867.51	226.77
867.82	226.66
868.13	226.79
868.44	226.68
868.75	226.75
869.06	226.79
869.37	226.84
869.68	226.65
869.99	226.74
870.30	226.82
870.61	226.84
870.92	226.73
871.23	226.77
871.54	226.82
871.85	226.91
872.16	226.94
872.47	226.87
872.78	226.60
873.09	226.62
873.40	226.57
873.71	226.61
874.02	226.58
874.33	226.60
874.64	226.50
874.95	226.57
875.26	226.42
875.56	226.37
875.87	226.37
876.18	226.35
876.49	226.89
876.80	226.82
877.11	226.79
877.42	226.88
877.73	226.95
878.04	226.89
878.35	226.81
878.66	226.82
878.96	226.84
879.27	226.83
879.58	226.74
879.89	226.78
880.20	226.86
880.51	226.88
880.82	226.90
881.12	226.95
881.43	226.84
881.74	226.85
882.05	226.92
882.36	226.95
882.67	226.98
882.97	226.42
883.28	226.37
883.59	226.35
883.90	226.37
884.21	226.32
884.51	226.31
884.82	226.27
885.13	226.26
885.44	226.18
885.74	226.15
886.05	226.15
886.36	226.04
886.67	225.86
886.98	226.15
887.28	226.14
887.59	226.18
887.90	226.24
888.20	226.21
888.51	226.27
888.82	226.13
889.13	226.18
889.43	226.65
889.74	226.62
890.05	226.62
890.35	226.55
890.66	226.48
890.97	226.41
891.28	226.38
891.58	226.42
891.89	226.55
892.20	226.55
892.50	226.49
892.81	226.61
893.12	226.65
893.42	226.36
893.73	226.41
894.04	226.37
894.34	226.42
894.65	226.47
894.95	226.42
895.26	226.47
895.57	226.70
895.87	226.18
896.18	226.32
896.48	226.29
896.79	226.27
897.10	226.37
897.40	226.45
897.71	226.50
898.01	226.45
898.32	226.50
898.63	226.51
898.93	226.62
899.24	226.64
899.54	226.59
899.85	226.60
900.15	226.63
900.46	226.64
900.76	226.64
901.07	226.63
901.38	226.58
901.68	226.66
901.99	226.41
902.29	226.52
902.60	226.42
902.90	226.45
903.21	226.50
903.51	226.44
903.82	226.50
904.12	226.54
904.43	226.55
904.73	226.51
905.03	226.48
905.34	226.87
905.64	226.81
905.95	226.83
906.25	226.81
906.56	226.76
906.86	226.75
907.17	226.68
907.47	226.69
907.77	226.66
908.08	226.52
908.38	226.50
908.69	226.50
908.99	226.60
909.30	226.66
909.60	226.65
909.90	226.64
910.21	226.53
910.51	226.43
910.81	226.40
911.12	226.37
911.42	226.47
911.73	225.97
912.03	226.02
912.33	226.10
912.64	226.12
912.94	226.09
913.24	226.00
913.55	225.95
913.85	225.97
914.15	226.07
914.46	226.10
914.76	226.06
915.06	226.04
915.37	225.97
915.67	225.95
915.97	225.89
916.27	225.85
916.58	225.89
916.88	225.95
917.18	225.98
917.49	226.25
917.79	226.15
918.09	226.19
918.39	226.30
918.70	226.23
919.00	226.21
919.30	226.40
919.60	226.38
919.91	226.25
920.21	226.19
920.51	226.10
920.81	226.09
921.12	226.13
921.42	226.09
921.72	226.20
922.02	226.09
922.32	226.17
922.63	226.18
922.93	226.36
923.23	226.29
923.53	226.22
923.83	225.90
924.13	225.96
924.44	226.00
924.74	226.06
925.04	226.22
925.34	226.20
925.64	225.98
925.94	225.95
926.24	226.31
926.55	226.29
926.85	226.38
927.15	226.40
927.45	226.41
927.75	226.41
928.05	226.30
928.35	226.32
928.65	226.44
928.95	226.48
929.26	226.33
929.56	226.47
929.86	226.50
930.16	226.51
930.46	226.48
930.76	226.55
931.06	226.29
931.36	226.14
931.66	226.25
931.96	226.32
932.26	226.38
932.56	226.19
932.86	226.24
933.16	226.19
933.46	226.15
933.76	226.12
934.06	226.22
934.36	226.44
934.66	226.45
934.96	226.35
935.26	226.33
935.56	226.35
935.86	226.22
936.16	226.25
936.46	226.19
936.76	226.24
937.06	226.17
937.36	226.30
937.66	226.34
937.96	226.30
938.26	226.18
938.56	226.10
938.86	226.14
939.16	226.30
939.46	226.39
939.76	226.49
940.06	226.55
940.35	226.45
940.65	226.22
940.95	226.23
941.25	226.19
941.55	226.20
941.85	226.21
942.15	226.30
942.45	226.35
942.75	226.36
943.04	226.22
943.34	226.32
943.64	226.24
943.94	226.14
944.24	226.15
944.54	226.21
944.84	226.25
945.13	226.15
945.43	226.02
945.73	225.95
946.03	225.86
946.33	225.75
946.62	225.72
946.92	225.70
947.22	225.75
947.52	225.76
947.82	225.81
948.11	225.75
948.41	225.68
948.71	225.60
949.01	225.60
949.31	225.64
949.60	225.57
949.90	225.67
950.20	225.68
950.50	225.65
950.79	225.62
951.09	225.79
951.39	225.84
951.69	225.80
951.98	225.95
952.28	226.00
952.58	225.97
952.87	225.95
953.17	225.98
953.47	225.97
953.76	225.91
954.06	225.85
954.36	225.77
954.66	225.76
954.95	225.92
955.25	225.95
955.55	226.03
955.84	225.93
956.14	225.95
956.44	226.06
956.73	225.99
957.03	225.99
957.32	225.90
957.62	225.83
957.92	225.94
958.21	225.75
958.51	226.29
958.81	226.39
959.10	226.47
959.40	226.57
959.69	226.53
959.99	226.59
960.29	226.54
960.58	226.52
960.88	226.74
961.17	226.66
961.47	226.77
961.76	226.65
962.06	226.72
962.36	226.59
962.65	226.55
962.95	226.60
963.24	226.56
963.54	226.54
963.83	226.61
964.13	226.53
964.42	226.44
964.72	226.03
965.01	225.99
965.31	225.93
965.60	225.79
965.90	226.10
966.19	226.06
966.49	226.14
966.78	226.11
967.08	226.08
967.37	226.00
967.67	225.92
967.96	226.10
968.26	226.02
968.55	226.10
968.85	226.01
969.14	226.01
969.43	226.05
969.73	226.05
970.02	226.01
970.32	225.99
970.61	226.10
970.91	225.92
971.20	225.86
971.49	225.87
971.79	226.01
972.08	225.65
972.38	225.70
972.67	225.67
972.96	225.77
973.26	225.63
973.55	225.79
973.85	225.75
974.14	225.60
974.43	225.67
974.73	225.63
975.02	225.59
975.31	225.64
975.61	225.60
975.90	225.50
976.19	225.49
976.49	225.51
976.78	225.52
977.07	225.49
977.37	225.57
977.66	225.61
977.95	225.53
978.24	225.59
978.54	225.69
978.83	225.61
979.12	225.57
979.42	225.56
979.71	225.43
980.00	225.41
980.29	225.49
980.59	225.41
980.88	225.55
981.17	225.50
981.46	225.45
981.76	225.45
982.05	225.67
982.34	225.70
982.63	225.79
982.93	225.73
983.22	225.95
983.51	225.99
983.80	226.03
984.09	226.09
984.39	226.07
984.68	225.99
984.97	226.08
985.26	226.03
985.55	226.12
985.85	226.10
986.14	226.15
986.43	226.18
986.72	226.16
987.01	225.97
987.30	226.08
987.59	225.97
987.89	226.05
988.18	225.90
988.47	225.87
988.76	225.76
989.05	225.77
989.34	225.64
989.63	225.79
989.92	225.77
990.22	225.65
990.51	225.66
990.80	225.61
991.09	225.57
991.38	225.66
991.67	225.55
991.96	225.57
992.25	225.65
992.54	225.62
992.83	225.65
993.12	225.65
993.41	225.70
993.70	226.02
993.99	226.07
994.28	226.08
994.58	226.20
994.87	226.11
995.16	226.07
995.45	226.03
995.74	225.81
996.03	225.77
996.32	225.91
996.61	226.02
996.90	225.97
997.19	226.00
997.48	226.05
997.77	226.00
998.06	225.88
998.34	225.83
998.63	225.79
998.92	225.83
999.21	225.88
999.50	225.91
999.79	225.72
1000.08	225.66
1000.37	225.66
1000.66	225.56
1000.95	225.74
1001.24	225.81
1001.53	225.94
1001.82	225.90
1002.11	225.81
1002.40	225.81
1002.68	225.91
1002.97	226.30
1003.26	226.22
1003.55	226.05
1003.84	226.08
1004.13	226.32
1004.42	226.28
1004.71	226.32
1004.99	226.23
1005.28	226.33
1005.57	226.30
1005.86	226.26
1006.15	226.23
1006.44	226.12
1006.72	226.14
1007.01	226.05
1007.30	226.01
1007.59	225.94
1007.88	225.90
1008.17	225.96
1008.45	225.86
1008.74	225.62
1009.03	225.35
1009.32	225.36
1009.60	225.35
1009.89	225.28
1010.18	225.12
1010.47	225.02
1010.76	225.02
1011.04	225.14
1011.33	225.15
1011.62	225.09
1011.91	225.10
1012.19	225.12
1012.48	225.23
1012.77	225.25
1013.05	225.46
1013.34	225.45
1013.63	225.42
1013.92	225.51
1014.20	225.52
1014.49	225.52
1014.78	225.68
1015.06	225.51
1015.35	225.58
1015.64	225.67
1015.92	225.89
1016.21	225.89
1016.50	226.00
1016.78	225.98
1017.07	225.92
1017.36	225.79
1017.64	225.79
1017.93	225.76
1018.22	225.72
1018.50	225.69
1018.79	225.73
1019.08	225.52
1019.36	225.59
1019.65	225.56
1019.93	225.74
1020.22	225.75
1020.51	226.10
1020.79	225.97
1021.08	224.70
1021.36	225.10
1021.65	226.95
1021.94	225.65
1022.22	226.45
1022.51	225.10
1022.79	228.95
1023.08	225.55
1023.36	233.15
1023.65	224.95
>>>>>End Processed Spectral Data<<<<<
