SpectraSuite Data File
++++++++++++++++++++++++++++++++++++
Date: Wed Sep 04 17:49:19 EDT 2013
User: lab3
Dark Spectrum Present: Yes
Reference Spectrum Present: No
Number of Sampled Component Spectra: 1
Spectrometers: USB2E7196
Integration Time (usec): 170000 (USB2E7196)
Spectra Averaged: 20 (USB2E7196)
Boxcar Smoothing: 10 (USB2E7196)
Correct for Electrical Dark: No (USB2E7196)
Strobe/Lamp Enabled: No (USB2E7196)
Correct for Detector Non-linearity: No (USB2E7196)
Correct for Stray Light: No (USB2E7196)
Number of Pixels in Processed Spectrum: 2048
>>>>>Begin Processed Spectral Data<<<<<
339.09	0.00
339.48	212.35
339.86	213.70
340.24	215.90
340.63	217.00
341.01	225.80
341.39	219.55
341.78	221.95
342.16	222.35
342.54	223.10
342.93	212.12
343.31	222.80
343.69	223.36
344.07	223.89
344.46	224.35
344.84	224.79
345.22	224.77
345.60	225.05
345.99	225.27
346.37	225.46
346.75	225.56
347.13	225.61
347.52	225.72
347.90	225.90
348.28	225.95
348.66	226.00
349.05	225.86
349.43	225.90
349.81	225.95
350.19	225.95
350.57	225.98
350.96	226.06
351.34	226.22
351.72	226.30
352.10	226.35
352.48	226.38
352.87	226.47
353.25	226.50
353.63	226.54
354.01	226.52
354.39	226.56
354.77	226.65
355.15	226.89
355.54	226.92
355.92	226.84
356.30	226.91
356.68	227.33
357.06	227.37
357.44	227.42
357.82	227.46
358.20	227.93
358.58	227.98
358.97	228.00
359.35	228.11
359.73	228.34
360.11	228.42
360.49	228.51
360.87	228.52
361.25	228.65
361.63	228.90
362.01	229.05
362.39	229.10
362.77	229.15
363.15	229.14
363.53	229.15
363.91	229.24
364.29	229.27
364.67	228.78
365.05	228.84
365.43	228.89
365.81	228.98
366.19	228.80
366.57	229.00
366.95	229.11
367.33	228.98
367.71	228.95
368.09	229.06
368.47	229.04
368.85	229.07
369.23	229.17
369.61	229.00
369.99	229.15
370.37	229.20
370.75	229.43
371.13	229.37
371.51	229.29
371.89	229.24
372.27	229.26
372.65	229.27
373.03	229.25
373.41	229.28
373.78	229.19
374.16	228.99
374.54	228.82
374.92	228.67
375.30	228.68
375.68	228.49
376.06	228.45
376.44	228.42
376.82	228.36
377.19	228.24
377.57	228.12
377.95	227.85
378.33	227.78
378.71	227.45
379.09	227.40
379.47	227.36
379.84	227.26
380.22	227.13
380.60	227.03
380.98	226.98
381.36	226.93
381.73	226.88
382.11	226.94
382.49	226.86
382.87	226.68
383.25	226.60
383.62	227.11
384.00	227.00
384.38	226.91
384.76	226.96
385.13	227.16
385.51	227.16
385.89	227.02
386.27	226.95
386.64	226.98
387.02	226.90
387.40	226.86
387.78	226.86
388.15	226.84
388.53	226.84
388.91	226.79
389.29	226.65
389.66	226.65
390.04	226.51
390.42	226.57
390.79	226.64
391.17	226.59
391.55	226.07
391.92	226.01
392.30	226.08
392.68	225.93
393.05	225.79
393.43	225.73
393.81	225.77
394.18	225.70
394.56	225.77
394.94	225.92
395.31	225.88
395.69	226.08
396.06	226.17
396.44	226.14
396.82	226.13
397.19	226.44
397.57	226.47
397.95	226.55
398.32	226.51
398.70	226.60
399.07	226.80
399.45	226.83
399.82	226.87
400.20	226.89
400.58	226.96
400.95	226.89
401.33	227.14
401.70	227.62
402.08	227.80
402.45	227.86
402.83	228.10
403.20	228.32
403.58	228.42
403.95	228.66
404.33	228.91
404.71	229.25
405.08	229.61
405.46	229.86
405.83	230.16
406.21	230.43
406.58	230.73
406.96	230.95
407.33	231.30
407.70	231.73
408.08	232.51
408.45	233.08
408.83	233.60
409.20	234.02
409.58	234.13
409.95	234.65
410.33	235.18
410.70	235.58
411.08	236.21
411.45	236.80
411.82	237.40
412.20	238.22
412.57	239.12
412.95	239.50
413.32	240.38
413.69	241.16
414.07	242.10
414.44	243.16
414.82	244.20
415.19	245.40
415.56	246.53
415.94	247.48
416.31	248.79
416.68	250.17
417.06	251.75
417.43	253.52
417.81	255.25
418.18	257.10
418.55	258.96
418.93	260.88
419.30	262.93
419.67	265.07
420.04	267.26
420.42	269.51
420.79	272.62
421.16	275.38
421.54	278.46
421.91	281.42
422.28	284.48
422.66	287.79
423.03	291.14
423.40	294.45
423.77	298.03
424.15	301.57
424.52	305.36
424.89	309.42
425.26	313.29
425.64	316.98
426.01	321.12
426.38	325.47
426.75	330.02
427.13	334.53
427.50	339.41
427.87	344.31
428.24	349.23
428.61	353.65
428.99	358.89
429.36	364.26
429.73	369.70
430.10	375.14
430.47	380.77
430.85	386.34
431.22	392.45
431.59	399.04
431.96	405.28
432.33	411.96
432.70	418.61
433.08	426.32
433.45	433.78
433.82	441.01
434.19	449.13
434.56	457.15
434.93	464.83
435.30	472.39
435.68	480.84
436.05	489.26
436.42	497.55
436.79	505.16
437.16	513.39
437.53	522.09
437.90	530.60
438.27	539.14
438.64	548.00
439.01	556.21
439.38	563.39
439.75	570.52
440.13	578.53
440.50	585.83
440.87	591.87
441.24	598.10
441.61	605.02
441.98	610.20
442.35	616.02
442.72	621.87
443.09	627.66
443.46	631.16
443.83	633.18
444.20	634.90
444.57	637.51
444.94	638.57
445.31	639.50
445.68	641.04
446.05	641.14
446.42	639.88
446.79	638.62
447.16	636.95
447.53	635.60
447.90	632.15
448.27	628.60
448.64	623.73
449.01	620.10
449.37	614.08
449.74	607.94
450.11	601.18
450.48	593.51
450.85	585.52
451.22	578.69
451.59	572.24
451.96	566.22
452.33	558.16
452.70	551.03
453.07	542.69
453.43	533.57
453.80	525.31
454.17	517.41
454.54	509.65
454.91	501.65
455.28	493.72
455.65	486.19
456.02	479.51
456.38	473.38
456.75	465.61
457.12	459.06
457.49	452.86
457.86	446.43
458.23	441.38
458.59	435.83
458.96	430.01
459.33	425.06
459.70	419.92
460.07	415.91
460.43	411.15
460.80	406.81
461.17	403.15
461.54	399.08
461.91	395.24
462.27	391.49
462.64	388.22
463.01	384.67
463.38	381.42
463.74	377.43
464.11	374.41
464.48	371.84
464.85	369.03
465.21	366.94
465.58	364.71
465.95	361.86
466.32	359.67
466.68	357.50
467.05	355.22
467.42	353.13
467.78	350.85
468.15	348.71
468.52	347.20
468.88	344.94
469.25	343.15
469.62	341.65
469.98	340.00
470.35	338.50
470.72	337.07
471.08	335.46
471.45	334.15
471.82	332.82
472.18	331.44
472.55	330.51
472.92	329.19
473.28	328.04
473.65	327.01
474.02	325.99
474.38	325.21
474.75	324.55
475.11	323.65
475.48	323.08
475.85	322.53
476.21	321.88
476.58	321.50
476.94	320.97
477.31	320.53
477.67	320.10
478.04	319.86
478.41	319.75
478.77	319.98
479.14	319.77
479.50	319.73
479.87	319.77
480.23	319.72
480.60	319.58
480.96	319.65
481.33	319.99
481.69	320.13
482.06	320.24
482.42	320.51
482.79	320.86
483.15	321.20
483.52	321.79
483.88	322.29
484.25	322.86
484.61	323.53
484.98	324.21
485.34	325.24
485.71	326.15
486.07	327.03
486.44	327.65
486.80	328.78
487.17	329.82
487.53	331.12
487.90	332.51
488.26	334.33
488.62	336.01
488.99	337.50
489.35	339.26
489.72	341.14
490.08	343.10
490.44	345.10
490.81	347.39
491.17	349.60
491.54	352.00
491.90	354.50
492.26	357.21
492.63	360.10
492.99	362.83
493.36	365.92
493.72	369.26
494.08	372.63
494.45	376.34
494.81	380.20
495.17	384.24
495.54	388.50
495.90	392.62
496.26	397.00
496.63	401.75
496.99	406.35
497.35	411.30
497.72	416.53
498.08	422.03
498.44	427.67
498.80	433.70
499.17	439.71
499.53	445.98
499.89	452.62
500.26	459.26
500.62	466.30
500.98	473.65
501.34	481.02
501.71	488.81
502.07	496.55
502.43	504.73
502.79	512.85
503.16	521.36
503.52	530.37
503.88	539.54
504.24	549.17
504.60	559.32
504.97	569.67
505.33	579.98
505.69	591.00
506.05	601.94
506.41	612.94
506.78	624.60
507.14	636.60
507.50	648.73
507.86	661.35
508.22	674.19
508.59	687.31
508.95	700.86
509.31	714.71
509.67	728.86
510.03	742.98
510.39	757.68
510.75	772.61
511.12	787.73
511.48	803.39
511.84	818.94
512.20	834.57
512.56	850.67
512.92	867.22
513.28	883.91
513.64	901.04
514.00	918.64
514.37	936.34
514.73	954.44
515.09	972.62
515.45	990.88
515.81	1009.23
516.17	1027.66
516.53	1046.15
516.89	1064.71
517.25	1083.95
517.61	1104.08
517.97	1124.26
518.33	1144.38
518.69	1164.71
519.05	1185.08
519.41	1205.69
519.77	1226.77
520.13	1247.20
520.49	1267.90
520.85	1289.97
521.21	1310.93
521.57	1332.09
521.93	1352.66
522.29	1373.47
522.65	1394.29
523.01	1414.90
523.37	1435.40
523.73	1456.38
524.09	1476.98
524.45	1497.56
524.81	1518.10
525.17	1538.51
525.53	1558.81
525.89	1579.17
526.25	1599.52
526.61	1619.85
526.97	1640.30
527.33	1661.50
527.68	1683.17
528.04	1704.32
528.40	1723.81
528.76	1744.73
529.12	1764.65
529.48	1785.34
529.84	1805.08
530.20	1825.60
530.56	1846.13
530.91	1866.86
531.27	1886.98
531.63	1907.23
531.99	1927.69
532.35	1947.44
532.71	1967.50
533.07	1987.78
533.42	2007.40
533.78	2027.21
534.14	2046.96
534.50	2065.89
534.86	2084.76
535.21	2102.18
535.57	2119.98
535.93	2137.62
536.29	2155.04
536.65	2173.11
537.00	2190.40
537.36	2207.87
537.72	2224.04
538.08	2241.06
538.44	2257.46
538.79	2273.48
539.15	2290.01
539.51	2305.48
539.87	2320.53
540.22	2334.32
540.58	2348.33
540.94	2361.58
541.29	2373.91
541.65	2385.80
542.01	2398.33
542.37	2408.39
542.72	2419.22
543.08	2429.89
543.44	2441.30
543.79	2451.19
544.15	2460.93
544.51	2470.75
544.87	2480.26
545.22	2488.96
545.58	2496.22
545.94	2503.20
546.29	2509.58
546.65	2515.02
547.01	2520.47
547.36	2525.99
547.72	2531.01
548.07	2534.86
548.43	2539.91
548.79	2544.20
549.14	2548.16
549.50	2551.78
549.86	2555.58
550.21	2558.74
550.57	2562.18
550.92	2563.01
551.28	2563.85
551.64	2565.65
551.99	2567.16
552.35	2568.11
552.70	2569.74
553.06	2571.60
553.41	2572.46
553.77	2573.85
554.13	2575.60
554.48	2576.86
554.84	2578.13
555.19	2579.19
555.55	2580.86
555.90	2579.94
556.26	2579.11
556.61	2577.32
556.97	2575.26
557.32	2574.54
557.68	2573.58
558.03	2571.46
558.39	2570.41
558.74	2569.75
559.10	2566.57
559.45	2562.76
559.81	2558.58
560.16	2553.43
560.52	2548.36
560.87	2543.90
561.23	2538.70
561.58	2532.58
561.94	2525.73
562.29	2518.07
562.64	2511.14
563.00	2502.84
563.35	2496.27
563.71	2489.46
564.06	2483.29
564.42	2476.66
564.77	2469.72
565.12	2462.24
565.48	2454.79
565.83	2446.38
566.19	2438.31
566.54	2430.54
566.89	2423.00
567.25	2415.28
567.60	2408.45
567.96	2400.95
568.31	2393.08
568.66	2384.44
569.02	2375.67
569.37	2367.72
569.72	2360.15
570.08	2350.99
570.43	2341.62
570.78	2332.44
571.14	2323.23
571.49	2313.00
571.84	2303.05
572.20	2292.19
572.55	2281.86
572.90	2271.05
573.26	2261.09
573.61	2250.02
573.96	2238.79
574.31	2226.81
574.67	2215.22
575.02	2202.11
575.37	2189.12
575.72	2176.18
576.08	2164.13
576.43	2151.68
576.78	2138.51
577.13	2124.94
577.49	2112.27
577.84	2100.54
578.19	2088.65
578.54	2076.16
578.90	2064.55
579.25	2052.61
579.60	2040.41
579.95	2027.70
580.30	2014.72
580.66	2001.20
581.01	1987.63
581.36	1973.87
581.71	1960.95
582.06	1948.14
582.42	1936.10
582.77	1923.99
583.12	1912.19
583.47	1900.10
583.82	1888.25
584.17	1876.63
584.53	1865.31
584.88	1852.40
585.23	1839.28
585.58	1825.19
585.93	1812.25
586.28	1798.92
586.63	1784.98
586.98	1770.94
587.34	1757.95
587.69	1744.73
588.04	1732.26
588.39	1720.60
588.74	1708.57
589.09	1696.65
589.44	1683.85
589.79	1671.62
590.14	1659.58
590.49	1647.43
590.84	1635.55
591.19	1623.68
591.54	1611.52
591.89	1599.18
592.25	1589.01
592.60	1577.80
592.95	1566.89
593.30	1554.90
593.65	1543.27
594.00	1531.34
594.35	1521.61
594.70	1510.13
595.05	1499.25
595.40	1487.41
595.75	1475.55
596.10	1464.46
596.45	1453.09
596.80	1442.39
597.15	1431.27
597.50	1419.65
597.85	1408.36
598.19	1396.70
598.54	1385.08
598.89	1373.98
599.24	1363.64
599.59	1352.54
599.94	1341.79
600.29	1331.40
600.64	1321.39
600.99	1310.58
601.34	1301.29
601.69	1290.03
602.04	1280.14
602.39	1270.26
602.74	1261.44
603.08	1252.28
603.43	1243.27
603.78	1233.91
604.13	1224.60
604.48	1215.02
604.83	1205.69
605.18	1196.16
605.53	1186.87
605.87	1177.98
606.22	1169.56
606.57	1160.23
606.92	1150.98
607.27	1142.22
607.62	1133.58
607.96	1125.06
608.31	1117.35
608.66	1108.99
609.01	1100.76
609.36	1092.45
609.70	1084.19
610.05	1075.67
610.40	1067.38
610.75	1058.83
611.10	1050.59
611.44	1042.09
611.79	1034.10
612.14	1026.33
612.49	1018.50
612.83	1011.09
613.18	1003.42
613.53	995.72
613.88	988.09
614.22	980.58
614.57	972.73
614.92	964.97
615.27	957.66
615.61	949.95
615.96	942.65
616.31	935.19
616.65	928.20
617.00	921.06
617.35	913.86
617.70	906.84
618.04	899.80
618.39	893.27
618.74	887.14
619.08	880.53
619.43	873.70
619.78	866.76
620.12	859.65
620.47	852.87
620.82	845.95
621.16	839.24
621.51	832.98
621.85	826.73
622.20	820.25
622.55	813.68
622.89	807.44
623.24	801.20
623.59	795.07
623.93	788.84
624.28	782.72
624.62	777.26
624.97	771.34
625.32	765.60
625.66	759.54
626.01	753.23
626.35	747.75
626.70	742.35
627.04	737.30
627.39	732.00
627.73	726.67
628.08	721.47
628.43	716.16
628.77	710.55
629.12	705.45
629.46	700.69
629.81	696.00
630.15	691.35
630.50	686.54
630.84	681.92
631.19	677.18
631.53	672.80
631.88	667.62
632.22	662.90
632.57	658.51
632.91	654.03
633.26	649.93
633.60	645.20
633.95	640.56
634.29	635.80
634.64	631.47
634.98	626.91
635.32	622.74
635.67	618.88
636.01	614.86
636.36	610.62
636.70	606.79
637.05	602.62
637.39	598.53
637.73	594.53
638.08	590.55
638.42	586.33
638.77	582.00
639.11	577.79
639.45	573.58
639.80	569.21
640.14	565.12
640.49	561.05
640.83	557.33
641.17	553.91
641.52	550.31
641.86	546.75
642.20	543.62
642.55	539.87
642.89	536.17
643.23	532.69
643.58	529.58
643.92	525.89
644.26	522.54
644.61	519.38
644.95	516.07
645.29	512.71
645.64	509.68
645.98	506.69
646.32	503.75
646.66	500.66
647.01	497.89
647.35	495.16
647.69	492.36
648.04	489.70
648.38	486.80
648.72	483.91
649.06	480.96
649.41	477.98
649.75	475.12
650.09	472.40
650.43	469.52
650.78	466.56
651.12	463.63
651.46	460.96
651.80	458.27
652.14	455.55
652.49	453.03
652.83	450.54
653.17	447.83
653.51	445.30
653.85	442.96
654.20	440.50
654.54	437.88
654.88	435.42
655.22	433.19
655.56	430.83
655.90	428.65
656.25	426.35
656.59	424.15
656.93	421.97
657.27	419.85
657.61	417.63
657.95	415.50
658.29	413.50
658.64	411.40
658.98	408.99
659.32	406.75
659.66	404.66
660.00	402.58
660.34	400.58
660.68	398.58
661.02	396.54
661.36	394.57
661.70	392.59
662.05	390.73
662.39	388.69
662.73	386.91
663.07	385.34
663.41	383.50
663.75	381.70
664.09	379.92
664.43	378.04
664.77	376.45
665.11	374.64
665.45	372.87
665.79	371.29
666.13	369.77
666.47	368.19
666.81	366.57
667.15	364.85
667.49	363.40
667.83	362.15
668.17	360.66
668.51	359.23
668.85	357.98
669.19	356.70
669.53	355.14
669.87	353.55
670.21	351.90
670.55	350.66
670.89	349.49
671.23	348.12
671.57	346.72
671.91	345.31
672.25	343.97
672.58	342.84
672.92	341.43
673.26	340.13
673.60	338.97
673.94	337.73
674.28	336.72
674.62	335.52
674.96	334.09
675.30	332.99
675.64	331.77
675.97	330.42
676.31	329.06
676.65	327.85
676.99	326.98
677.33	325.82
677.67	324.63
678.01	323.37
678.34	322.47
678.68	321.55
679.02	320.60
679.36	319.69
679.70	318.60
680.04	317.64
680.37	316.74
680.71	315.75
681.05	314.79
681.39	313.79
681.73	312.92
682.06	312.07
682.40	311.23
682.74	310.44
683.08	309.84
683.42	308.99
683.75	308.31
684.09	307.32
684.43	306.54
684.77	305.71
685.10	304.86
685.44	303.96
685.78	303.15
686.12	302.32
686.45	301.54
686.79	300.77
687.13	300.01
687.46	299.30
687.80	298.69
688.14	297.90
688.48	297.24
688.81	296.54
689.15	295.95
689.49	295.23
689.82	294.46
690.16	293.56
690.50	292.92
690.83	292.21
691.17	291.44
691.51	290.76
691.84	290.20
692.18	289.43
692.52	288.78
692.85	288.20
693.19	287.68
693.52	287.06
693.86	286.38
694.20	285.75
694.53	285.14
694.87	284.44
695.21	283.86
695.54	283.26
695.88	282.60
696.21	281.84
696.55	281.25
696.88	280.65
697.22	280.07
697.56	279.48
697.89	278.90
698.23	278.40
698.56	277.83
698.90	277.29
699.23	276.85
699.57	276.32
699.90	275.68
700.24	275.15
700.58	274.73
700.91	274.42
701.25	274.37
701.58	274.28
701.92	273.96
702.25	273.51
702.59	273.02
702.92	272.57
703.26	272.20
703.59	271.80
703.93	271.79
704.26	271.36
704.60	270.96
704.93	270.50
705.26	269.99
705.60	269.61
705.93	269.16
706.27	268.84
706.60	268.55
706.94	268.40
707.27	267.90
707.61	267.53
707.94	267.06
708.27	266.26
708.61	265.44
708.94	265.01
709.28	264.62
709.61	264.13
709.94	263.86
710.28	263.46
710.61	263.03
710.95	262.25
711.28	262.22
711.61	261.80
711.95	261.57
712.28	261.23
712.61	260.90
712.95	260.83
713.28	260.70
713.61	260.27
713.95	259.73
714.28	259.45
714.61	259.04
714.95	258.66
715.28	258.27
715.61	257.97
715.95	257.58
716.28	257.21
716.61	257.00
716.95	256.58
717.28	256.24
717.61	255.89
717.94	255.62
718.28	255.02
718.61	254.75
718.94	254.44
719.27	254.14
719.61	253.88
719.94	253.47
720.27	252.97
720.60	252.64
720.94	252.43
721.27	252.16
721.60	252.02
721.93	251.85
722.27	251.86
722.60	251.70
722.93	251.47
723.26	251.35
723.59	251.10
723.93	250.93
724.26	250.82
724.59	250.66
724.92	250.46
725.25	250.35
725.59	250.12
725.92	249.91
726.25	249.77
726.58	249.56
726.91	249.30
727.24	249.09
727.57	248.96
727.91	248.71
728.24	248.55
728.57	248.30
728.90	248.18
729.23	247.72
729.56	247.76
729.89	247.51
730.22	247.23
730.55	247.11
730.89	246.87
731.22	246.69
731.55	246.48
731.88	246.28
732.21	246.03
732.54	245.82
732.87	245.74
733.20	245.61
733.53	245.46
733.86	245.33
734.19	245.09
734.52	244.97
734.85	245.20
735.18	245.05
735.51	245.10
735.84	244.96
736.17	245.03
736.50	244.59
736.83	245.10
737.16	245.10
737.49	244.92
737.82	244.86
738.15	244.77
738.48	244.70
738.81	244.56
739.14	244.40
739.47	244.26
739.80	244.03
740.13	243.93
740.46	243.68
740.79	243.50
741.12	243.41
741.45	243.27
741.78	242.82
742.11	242.79
742.44	242.44
742.77	242.37
743.10	242.15
743.43	241.99
743.75	241.30
744.08	241.71
744.41	241.47
744.74	241.34
745.07	241.07
745.40	240.95
745.73	241.07
746.06	240.96
746.39	240.90
746.71	240.73
747.04	240.55
747.37	240.45
747.70	240.40
748.03	240.30
748.36	240.12
748.68	239.98
749.01	239.72
749.34	239.64
749.67	239.47
750.00	239.40
750.33	239.66
750.65	239.54
750.98	238.80
751.31	238.79
751.64	238.65
751.97	238.87
752.29	238.73
752.62	238.35
752.95	238.23
753.28	238.07
753.60	237.94
753.93	237.91
754.26	237.90
754.59	237.66
754.91	237.51
755.24	237.39
755.57	237.32
755.90	237.15
756.22	236.96
756.55	236.76
756.88	236.54
757.20	236.09
757.53	235.90
757.86	235.81
758.19	235.77
758.51	235.64
758.84	235.22
759.17	235.00
759.49	235.01
759.82	235.12
760.15	235.10
760.47	235.05
760.80	234.82
761.13	234.70
761.45	234.59
761.78	234.57
762.11	234.52
762.43	234.33
762.76	234.28
763.08	234.30
763.41	234.32
763.74	234.33
764.06	234.28
764.39	234.17
764.71	234.07
765.04	233.95
765.37	233.77
765.69	233.71
766.02	233.66
766.34	233.48
766.67	233.14
767.00	233.14
767.32	233.27
767.65	233.48
767.97	233.38
768.30	233.33
768.62	233.22
768.95	233.12
769.27	233.10
769.60	233.06
769.92	232.90
770.25	232.70
770.57	232.46
770.90	232.44
771.22	232.45
771.55	232.39
771.87	232.38
772.20	232.36
772.52	232.75
772.85	233.29
773.17	233.28
773.50	233.30
773.82	233.14
774.15	232.88
774.47	232.61
774.80	232.60
775.12	232.58
775.45	232.49
775.77	232.49
776.09	232.46
776.42	232.47
776.74	232.55
777.07	232.55
777.39	232.57
777.72	232.49
778.04	232.45
778.36	232.41
778.69	232.33
779.01	232.37
779.33	231.90
779.66	231.34
779.98	231.28
780.31	231.28
780.63	231.47
780.95	231.46
781.28	231.42
781.60	231.30
781.92	231.30
782.25	231.32
782.57	231.30
782.89	231.26
783.22	231.12
783.54	231.01
783.86	231.04
784.19	230.99
784.51	231.11
784.83	231.03
785.16	230.96
785.48	230.94
785.80	230.88
786.12	230.86
786.45	230.87
786.77	230.83
787.09	230.70
787.42	230.47
787.74	230.49
788.06	230.45
788.38	230.34
788.71	230.28
789.03	230.25
789.35	230.20
789.67	230.09
789.99	230.10
790.32	229.98
790.64	229.88
790.96	230.27
791.28	230.05
791.61	229.95
791.93	229.90
792.25	229.82
792.57	230.11
792.89	230.00
793.21	229.92
793.54	229.85
793.86	229.73
794.18	229.72
794.50	229.56
794.82	229.55
795.14	229.65
795.47	229.70
795.79	229.71
796.11	229.64
796.43	229.62
796.75	229.58
797.07	229.54
797.39	229.57
797.71	229.22
798.04	229.13
798.36	229.15
798.68	229.12
799.00	229.10
799.32	228.73
799.64	228.82
799.96	228.86
800.28	228.95
800.60	228.96
800.92	228.91
801.24	228.91
801.56	228.86
801.89	228.77
802.21	228.78
802.53	228.60
802.85	228.67
803.17	228.86
803.49	228.73
803.81	228.72
804.13	228.65
804.45	228.54
804.77	228.60
805.09	228.56
805.41	228.49
805.73	228.40
806.05	228.39
806.37	228.30
806.69	228.22
807.01	228.10
807.33	228.15
807.65	228.00
807.97	228.29
808.28	228.22
808.60	228.20
808.92	228.05
809.24	228.38
809.56	228.28
809.88	228.18
810.20	228.28
810.52	228.36
810.84	228.25
811.16	228.20
811.48	228.19
811.80	228.38
812.12	228.46
812.43	228.60
812.75	228.57
813.07	228.51
813.39	228.46
813.71	228.44
814.03	228.38
814.35	228.45
814.67	228.22
814.98	228.24
815.30	228.25
815.62	228.23
815.94	227.85
816.26	228.05
816.58	227.86
816.89	227.85
817.21	227.72
817.53	227.84
817.85	227.88
818.17	227.90
818.48	227.66
818.80	227.72
819.12	227.57
819.44	227.52
819.76	227.54
820.07	227.61
820.39	227.58
820.71	227.65
821.03	227.66
821.34	227.58
821.66	227.62
821.98	227.67
822.30	227.62
822.61	227.95
822.93	227.72
823.25	227.75
823.57	227.68
823.88	227.76
824.20	227.74
824.52	227.84
824.83	227.78
825.15	227.80
825.47	227.75
825.79	227.85
826.10	227.91
826.42	227.83
826.74	227.85
827.05	227.81
827.37	227.85
827.69	227.83
828.00	227.85
828.32	227.79
828.64	227.72
828.95	228.00
829.27	227.90
829.58	227.95
829.90	228.03
830.22	228.11
830.53	228.03
830.85	227.92
831.17	227.78
831.48	227.84
831.80	227.87
832.11	227.82
832.43	227.69
832.75	227.62
833.06	227.90
833.38	227.78
833.69	227.77
834.01	227.73
834.32	227.66
834.64	227.63
834.96	227.68
835.27	227.60
835.59	227.39
835.90	227.29
836.22	227.21
836.53	227.12
836.85	227.01
837.16	227.42
837.48	227.47
837.79	227.56
838.11	227.52
838.42	227.51
838.74	227.60
839.05	227.58
839.37	227.48
839.68	227.18
840.00	227.14
840.31	227.24
840.63	227.16
840.94	227.16
841.26	227.10
841.57	227.06
841.88	227.15
842.20	227.08
842.51	226.98
842.83	226.96
843.14	227.41
843.46	227.52
843.77	227.28
844.08	227.25
844.40	227.18
844.71	227.15
845.03	227.08
845.34	227.06
845.65	227.13
845.97	227.15
846.28	227.24
846.60	227.28
846.91	227.19
847.22	227.25
847.54	227.36
847.85	227.32
848.16	227.30
848.48	227.16
848.79	227.42
849.10	227.49
849.42	227.54
849.73	227.06
850.04	227.05
850.36	226.87
850.67	226.92
850.98	226.84
851.30	226.90
851.61	226.87
851.92	226.83
852.23	226.92
852.55	227.04
852.86	227.04
853.17	227.15
853.49	227.25
853.80	227.34
854.11	227.32
854.42	227.42
854.74	227.40
855.05	227.53
855.36	227.24
855.67	227.30
855.99	227.30
856.30	227.91
856.61	227.80
856.92	227.91
857.23	227.96
857.55	228.01
857.86	227.94
858.17	228.11
858.48	228.06
858.79	228.04
859.11	228.08
859.42	228.10
859.73	228.00
860.04	228.02
860.35	227.82
860.66	227.66
860.98	227.65
861.29	227.72
861.60	227.65
861.91	227.80
862.22	227.69
862.53	227.63
862.84	227.09
863.16	227.26
863.47	227.11
863.78	227.01
864.09	227.04
864.40	227.05
864.71	226.98
865.02	227.06
865.33	226.94
865.64	226.87
865.95	226.92
866.27	227.22
866.58	227.16
866.89	227.22
867.20	227.25
867.51	227.17
867.82	227.04
868.13	227.17
868.44	226.98
868.75	227.02
869.06	227.02
869.37	227.02
869.68	226.86
869.99	226.97
870.30	226.98
870.61	227.00
870.92	226.92
871.23	226.85
871.54	226.85
871.85	226.94
872.16	226.91
872.47	226.80
872.78	226.47
873.09	226.46
873.40	226.45
873.71	226.45
874.02	226.52
874.33	226.54
874.64	226.44
874.95	226.52
875.26	226.48
875.56	226.50
875.87	226.42
876.18	226.34
876.49	226.78
876.80	226.70
877.11	226.61
877.42	226.61
877.73	226.63
878.04	226.51
878.35	226.51
878.66	226.47
878.96	226.47
879.27	226.42
879.58	226.40
879.89	226.32
880.20	226.46
880.51	226.42
880.82	226.40
881.12	226.44
881.43	226.39
881.74	226.24
882.05	226.17
882.36	226.20
882.67	226.27
882.97	225.79
883.28	225.79
883.59	225.75
883.90	225.83
884.21	225.95
884.51	225.98
884.82	225.89
885.13	225.88
885.44	225.83
885.74	225.90
886.05	225.88
886.36	225.87
886.67	225.74
886.98	226.03
887.28	226.11
887.59	226.07
887.90	226.14
888.20	226.19
888.51	226.30
888.82	226.29
889.13	226.35
889.43	226.68
889.74	226.63
890.05	226.75
890.35	226.69
890.66	226.53
890.97	226.48
891.28	226.49
891.58	226.51
891.89	226.53
892.20	226.45
892.50	226.46
892.81	226.48
893.12	226.49
893.42	226.21
893.73	226.20
894.04	226.26
894.34	226.23
894.65	226.29
894.95	226.24
895.26	226.22
895.57	226.37
895.87	225.92
896.18	226.04
896.48	226.04
896.79	226.03
897.10	226.08
897.40	226.09
897.71	226.19
898.01	226.08
898.32	226.11
898.63	226.12
898.93	226.13
899.24	226.20
899.54	226.10
899.85	226.11
900.15	226.07
900.46	226.05
900.76	226.12
901.07	226.07
901.38	226.02
901.68	226.10
901.99	225.88
902.29	225.99
902.60	226.02
902.90	225.94
903.21	225.95
903.51	225.95
903.82	226.06
904.12	226.03
904.43	226.13
904.73	226.08
905.03	226.14
905.34	226.58
905.64	226.58
905.95	226.63
906.25	226.59
906.56	226.63
906.86	226.62
907.17	226.54
907.47	226.62
907.77	226.58
908.08	226.44
908.38	226.46
908.69	226.44
908.99	226.42
909.30	226.42
909.60	226.42
909.90	226.43
910.21	226.36
910.51	226.26
910.81	226.33
911.12	226.35
911.42	226.33
911.73	225.81
912.03	225.78
912.33	225.91
912.64	225.89
912.94	225.81
913.24	225.70
913.55	225.68
913.85	225.57
914.15	225.72
914.46	225.81
914.76	225.82
915.06	225.72
915.37	225.65
915.67	225.66
915.97	225.58
916.27	225.44
916.58	225.37
916.88	225.36
917.18	225.28
917.49	225.67
917.79	225.63
918.09	225.78
918.39	225.91
918.70	225.82
919.00	225.85
919.30	226.05
919.60	226.10
919.91	226.04
920.21	226.10
920.51	225.96
920.81	225.92
921.12	225.94
921.42	226.01
921.72	226.04
922.02	226.05
922.32	226.15
922.63	226.25
922.93	226.50
923.23	226.50
923.53	226.49
923.83	226.08
924.13	226.10
924.44	226.05
924.74	226.14
925.04	226.23
925.34	226.23
925.64	226.02
925.94	225.99
926.24	226.25
926.55	226.16
926.85	226.25
927.15	226.25
927.45	226.20
927.75	226.17
928.05	226.21
928.35	226.12
928.65	226.25
928.95	226.25
929.26	226.06
929.56	226.16
929.86	226.18
930.16	226.14
930.46	226.10
930.76	226.09
931.06	225.90
931.36	225.79
931.66	225.87
931.96	225.93
932.26	225.90
932.56	225.72
932.86	225.80
933.16	225.80
933.46	225.73
933.76	225.69
934.06	225.80
934.36	225.95
934.66	226.04
934.96	225.90
935.26	225.95
935.56	226.02
935.86	225.90
936.16	225.82
936.46	225.85
936.76	225.85
937.06	225.72
937.36	225.69
937.66	225.70
937.96	225.65
938.26	225.59
938.56	225.68
938.86	225.72
939.16	225.82
939.46	225.83
939.76	225.85
940.06	225.97
940.35	225.81
940.65	225.59
940.95	225.56
941.25	225.53
941.55	225.42
941.85	225.31
942.15	225.44
942.45	225.56
942.75	225.63
943.04	225.70
943.34	225.86
943.64	225.85
943.94	225.82
944.24	225.84
944.54	225.89
944.84	225.92
945.13	225.90
945.43	225.86
945.73	225.89
946.03	225.94
946.33	225.84
946.62	225.80
946.92	225.83
947.22	225.96
947.52	225.96
947.82	226.07
948.11	226.11
948.41	226.05
948.71	226.00
949.01	226.01
949.31	226.03
949.60	226.03
949.90	226.10
950.20	226.07
950.50	226.11
950.79	226.10
951.09	226.06
951.39	226.01
951.69	225.95
951.98	226.02
952.28	226.06
952.58	226.08
952.87	226.18
953.17	226.24
953.47	226.09
953.76	226.07
954.06	226.03
954.36	225.99
954.66	225.95
954.95	226.12
955.25	226.10
955.55	226.08
955.84	226.00
956.14	226.00
956.44	226.05
956.73	225.99
957.03	225.98
957.32	226.00
957.62	225.95
957.92	226.03
958.21	226.01
958.51	226.50
958.81	226.52
959.10	226.58
959.40	226.71
959.69	226.76
959.99	226.86
960.29	226.83
960.58	226.82
960.88	227.06
961.17	226.98
961.47	227.03
961.76	226.95
962.06	227.04
962.36	227.01
962.65	227.07
962.95	227.08
963.24	227.05
963.54	227.05
963.83	227.20
964.13	227.18
964.42	227.01
964.72	226.66
965.01	226.70
965.31	226.63
965.60	226.53
965.90	226.86
966.19	226.75
966.49	226.78
966.78	226.81
967.08	226.72
967.37	226.75
967.67	226.63
967.96	226.73
968.26	226.63
968.55	226.70
968.85	226.67
969.14	226.67
969.43	226.65
969.73	226.61
970.02	226.52
970.32	226.47
970.61	226.48
970.91	226.37
971.20	226.26
971.49	226.20
971.79	226.22
972.08	225.85
972.38	225.94
972.67	225.97
972.96	226.01
973.26	225.91
973.55	226.01
973.85	225.99
974.14	225.95
974.43	226.00
974.73	225.93
975.02	225.91
975.31	225.85
975.61	225.86
975.90	225.86
976.19	225.81
976.49	225.87
976.78	225.94
977.07	225.91
977.37	225.97
977.66	226.12
977.95	225.96
978.24	226.00
978.54	226.06
978.83	225.97
979.12	225.97
979.42	225.93
979.71	225.81
980.00	225.81
980.29	225.86
980.59	225.86
980.88	225.97
981.17	225.85
981.46	225.83
981.76	225.81
982.05	225.97
982.34	226.07
982.63	226.02
982.93	226.00
983.22	226.12
983.51	226.12
983.80	226.18
984.09	226.29
984.39	226.23
984.68	226.14
984.97	226.15
985.26	226.05
985.55	226.10
985.85	226.01
986.14	226.09
986.43	226.10
986.72	225.98
987.01	225.77
987.30	225.87
987.59	225.91
987.89	225.95
988.18	225.75
988.47	225.67
988.76	225.65
989.05	225.68
989.34	225.54
989.63	225.69
989.92	225.60
990.22	225.50
990.51	225.52
990.80	225.49
991.09	225.53
991.38	225.63
991.67	225.69
991.96	225.66
992.25	225.74
992.54	225.66
992.83	225.82
993.12	225.88
993.41	225.97
993.70	226.22
993.99	226.30
994.28	226.44
994.58	226.51
994.87	226.45
995.16	226.40
995.45	226.42
995.74	226.16
996.03	226.21
996.32	226.33
996.61	226.45
996.90	226.47
997.19	226.48
997.48	226.47
997.77	226.41
998.06	226.37
998.34	226.30
998.63	226.38
998.92	226.35
999.21	226.51
999.50	226.48
999.79	226.21
1000.08	226.15
1000.37	226.11
1000.66	226.10
1000.95	226.24
1001.24	226.26
1001.53	226.29
1001.82	226.34
1002.11	226.25
1002.40	226.27
1002.68	226.38
1002.97	226.68
1003.26	226.63
1003.55	226.57
1003.84	226.54
1004.13	226.68
1004.42	226.67
1004.71	226.58
1004.99	226.48
1005.28	226.53
1005.57	226.49
1005.86	226.51
1006.15	226.54
1006.44	226.49
1006.72	226.54
1007.01	226.47
1007.30	226.47
1007.59	226.41
1007.88	226.42
1008.17	226.45
1008.45	226.38
1008.74	226.17
1009.03	225.99
1009.32	225.99
1009.60	226.01
1009.89	225.99
1010.18	225.87
1010.47	225.81
1010.76	225.83
1011.04	225.88
1011.33	225.86
1011.62	225.89
1011.91	225.85
1012.19	225.83
1012.48	225.84
1012.77	225.74
1013.05	225.97
1013.34	225.99
1013.63	225.99
1013.92	226.00
1014.20	225.93
1014.49	225.90
1014.78	225.92
1015.06	225.75
1015.35	225.70
1015.64	225.70
1015.92	225.79
1016.21	225.78
1016.50	225.80
1016.78	225.87
1017.07	225.92
1017.36	225.73
1017.64	225.65
1017.93	225.72
1018.22	225.64
1018.50	225.65
1018.79	225.65
1019.08	225.43
1019.36	225.41
1019.65	225.42
1019.93	225.60
1020.22	225.63
1020.51	225.91
1020.79	225.92
1021.08	224.35
1021.36	225.75
1021.65	225.00
1021.94	226.15
1022.22	225.80
1022.51	225.80
1022.79	228.90
1023.08	225.55
1023.36	231.65
1023.65	225.50
>>>>>End Processed Spectral Data<<<<<
