SpectraSuite Data File
++++++++++++++++++++++++++++++++++++
Date: Wed Sep 04 17:43:10 EDT 2013
User: lab3
Dark Spectrum Present: Yes
Reference Spectrum Present: No
Number of Sampled Component Spectra: 1
Spectrometers: USB2E7196
Integration Time (usec): 170000 (USB2E7196)
Spectra Averaged: 20 (USB2E7196)
Boxcar Smoothing: 10 (USB2E7196)
Correct for Electrical Dark: No (USB2E7196)
Strobe/Lamp Enabled: No (USB2E7196)
Correct for Detector Non-linearity: No (USB2E7196)
Correct for Stray Light: No (USB2E7196)
Number of Pixels in Processed Spectrum: 2048
>>>>>Begin Processed Spectral Data<<<<<
339.09	0.00
339.48	211.30
339.86	215.20
340.24	215.10
340.63	216.35
341.01	225.85
341.39	219.85
341.78	221.90
342.16	223.95
342.54	222.80
342.93	211.79
343.31	222.41
343.69	223.07
344.07	223.46
344.46	224.08
344.84	224.49
345.22	224.46
345.60	224.71
345.99	224.90
346.37	225.03
346.75	225.16
347.13	225.19
347.52	225.25
347.90	225.55
348.28	225.56
348.66	225.71
349.05	225.63
349.43	225.70
349.81	225.90
350.19	226.01
350.57	226.15
350.96	226.26
351.34	226.50
351.72	226.55
352.10	226.70
352.48	226.64
352.87	226.65
353.25	226.64
353.63	226.66
354.01	226.75
354.39	226.77
354.77	226.85
355.15	227.11
355.54	227.05
355.92	226.92
356.30	227.09
356.68	227.42
357.06	227.45
357.44	227.43
357.82	227.40
358.20	227.86
358.58	227.84
358.97	227.96
359.35	228.01
359.73	228.15
360.11	228.16
360.49	228.24
360.87	228.37
361.25	228.53
361.63	228.76
362.01	228.85
362.39	228.90
362.77	228.96
363.15	228.90
363.53	228.98
363.91	229.02
364.29	229.04
364.67	228.67
365.05	228.77
365.43	228.79
365.81	228.89
366.19	228.66
366.57	228.90
366.95	228.86
367.33	228.78
367.71	228.79
368.09	228.87
368.47	228.81
368.85	228.79
369.23	228.86
369.61	228.75
369.99	228.86
370.37	228.85
370.75	229.06
371.13	228.93
371.51	228.87
371.89	228.89
372.27	228.82
372.65	228.76
373.03	228.78
373.41	228.71
373.78	228.60
374.16	228.40
374.54	228.26
374.92	228.20
375.30	228.18
375.68	228.04
376.06	228.05
376.44	228.00
376.82	228.01
377.19	227.88
377.57	227.79
377.95	227.58
378.33	227.50
378.71	227.18
379.09	227.25
379.47	227.26
379.84	227.14
380.22	227.08
380.60	226.95
380.98	226.78
381.36	226.80
381.73	226.68
382.11	226.68
382.49	226.58
382.87	226.41
383.25	226.31
383.62	226.87
384.00	226.70
384.38	226.65
384.76	226.63
385.13	226.79
385.51	226.71
385.89	226.55
386.27	226.52
386.64	226.50
387.02	226.47
387.40	226.39
387.78	226.45
388.15	226.44
388.53	226.41
388.91	226.38
389.29	226.19
389.66	226.28
390.04	226.17
390.42	226.15
390.79	226.18
391.17	226.17
391.55	225.56
391.92	225.57
392.30	225.64
392.68	225.51
393.05	225.52
393.43	225.58
393.81	225.63
394.18	225.55
394.56	225.59
394.94	225.65
395.31	225.65
395.69	225.73
396.06	225.83
396.44	225.94
396.82	225.91
397.19	226.30
397.57	226.27
397.95	226.37
398.32	226.27
398.70	226.34
399.07	226.59
399.45	226.59
399.82	226.64
400.20	226.65
400.58	226.79
400.95	226.66
401.33	226.79
401.70	227.21
402.08	227.37
402.45	227.46
402.83	227.63
403.20	227.83
403.58	227.94
403.95	228.13
404.33	228.33
404.71	228.62
405.08	229.03
405.46	229.23
405.83	229.53
406.21	229.90
406.58	230.18
406.96	230.30
407.33	230.70
407.70	231.09
408.08	231.81
408.45	232.21
408.83	232.72
409.20	233.02
409.58	233.21
409.95	233.75
410.33	234.25
410.70	234.64
411.08	235.21
411.45	235.80
411.82	236.26
412.20	236.98
412.57	237.95
412.95	238.24
413.32	239.04
413.69	239.85
414.07	240.69
414.44	241.55
414.82	242.63
415.19	243.73
415.56	244.83
415.94	245.72
416.31	247.09
416.68	248.43
417.06	250.03
417.43	251.61
417.81	253.30
418.18	255.05
418.55	256.82
418.93	258.68
419.30	260.65
419.67	262.87
420.04	265.03
420.42	267.22
420.79	270.14
421.16	272.82
421.54	275.67
421.91	278.53
422.28	281.63
422.66	284.75
423.03	288.12
423.40	291.36
423.77	294.69
424.15	298.04
424.52	301.64
424.89	305.68
425.26	309.43
425.64	312.91
426.01	316.94
426.38	321.16
426.75	325.56
427.13	329.97
427.50	334.52
427.87	339.07
428.24	343.68
428.61	347.94
428.99	353.03
429.36	358.22
429.73	363.35
430.10	368.57
430.47	374.06
430.85	379.17
431.22	384.97
431.59	391.46
431.96	397.53
432.33	403.90
432.70	410.11
433.08	417.50
433.45	424.65
433.82	431.49
434.19	439.28
434.56	446.90
434.93	454.13
435.30	461.35
435.68	469.70
436.05	477.71
436.42	485.68
436.79	492.86
437.16	500.59
437.53	509.00
437.90	517.18
438.27	525.15
438.64	533.76
439.01	541.66
439.38	548.41
439.75	555.14
440.13	562.97
440.50	570.10
440.87	575.82
441.24	581.85
441.61	588.66
441.98	593.61
442.35	599.09
442.72	604.95
443.09	610.55
443.46	613.68
443.83	615.75
444.20	617.54
444.57	620.27
444.94	621.46
445.31	622.55
445.68	623.94
446.05	624.01
446.42	622.86
446.79	621.49
447.16	620.01
447.53	618.74
447.90	615.23
448.27	611.76
448.64	607.17
449.01	603.72
449.37	597.92
449.74	592.08
450.11	585.77
450.48	578.35
450.85	570.80
451.22	564.33
451.59	558.21
451.96	552.23
452.33	544.40
452.70	537.40
453.07	529.28
453.43	520.55
453.80	512.76
454.17	505.14
454.54	497.89
454.91	490.06
455.28	482.69
455.65	475.57
456.02	469.25
456.38	463.22
456.75	455.85
457.12	449.58
457.49	443.59
457.86	437.43
458.23	432.56
458.59	427.14
458.96	421.76
459.33	416.95
459.70	412.11
460.07	408.32
460.43	403.96
460.80	399.81
461.17	396.31
461.54	392.51
461.91	388.79
462.27	385.08
462.64	382.05
463.01	378.49
463.38	375.37
463.74	371.39
464.11	368.59
464.48	366.05
464.85	363.31
465.21	361.26
465.58	359.09
465.95	356.31
466.32	354.17
466.68	351.95
467.05	349.80
467.42	347.83
467.78	345.68
468.15	343.59
468.52	342.07
468.88	339.91
469.25	338.06
469.62	336.74
469.98	335.32
470.35	333.87
470.72	332.56
471.08	330.90
471.45	329.78
471.82	328.62
472.18	327.25
472.55	326.26
472.92	325.04
473.28	323.92
473.65	323.01
474.02	321.95
474.38	321.25
474.75	320.56
475.11	319.75
475.48	319.15
475.85	318.61
476.21	318.05
476.58	317.66
476.94	317.31
477.31	316.86
477.67	316.40
478.04	316.10
478.41	315.90
478.77	316.26
479.14	316.03
479.50	315.87
479.87	315.96
480.23	316.12
480.60	316.10
480.96	316.23
481.33	316.51
481.69	316.86
482.06	317.11
482.42	317.34
482.79	317.73
483.15	318.14
483.52	318.81
483.88	319.24
484.25	319.82
484.61	320.47
484.98	321.10
485.34	322.05
485.71	323.07
486.07	324.02
486.44	324.59
486.80	325.64
487.17	326.84
487.53	328.23
487.90	329.50
488.26	331.21
488.62	332.80
488.99	334.31
489.35	335.95
489.72	337.73
490.08	339.64
490.44	341.52
490.81	343.67
491.17	345.70
491.54	348.12
491.90	350.59
492.26	353.20
492.63	355.99
492.99	358.85
493.36	361.87
493.72	365.08
494.08	368.33
494.45	371.90
494.81	375.73
495.17	379.42
495.54	383.46
495.90	387.52
496.26	391.90
496.63	396.41
496.99	401.11
497.35	405.95
497.72	411.10
498.08	416.50
498.44	422.02
498.80	428.00
499.17	433.75
499.53	439.89
499.89	446.30
500.26	452.97
500.62	459.67
500.98	466.86
501.34	474.13
501.71	481.76
502.07	489.37
502.43	497.03
502.79	505.21
503.16	513.66
503.52	522.38
503.88	531.21
504.24	540.54
504.60	550.25
504.97	560.25
505.33	570.21
505.69	580.82
506.05	591.35
506.41	602.04
506.78	613.24
507.14	624.76
507.50	636.53
507.86	648.46
508.22	660.84
508.59	673.31
508.95	686.37
509.31	699.93
509.67	713.49
510.03	727.18
510.39	741.17
510.75	755.35
511.12	769.68
511.48	784.54
511.84	799.45
512.20	814.54
512.56	829.94
512.92	845.94
513.28	861.92
513.64	878.34
514.00	895.08
514.37	911.97
514.73	929.11
515.09	946.72
515.45	964.27
515.81	981.74
516.17	999.31
516.53	1016.95
516.89	1034.65
517.25	1053.12
517.61	1072.30
517.97	1091.58
518.33	1110.64
518.69	1129.98
519.05	1149.49
519.41	1169.11
519.77	1189.08
520.13	1208.60
520.49	1228.09
520.85	1247.70
521.21	1267.60
521.57	1287.64
521.93	1306.98
522.29	1326.84
522.65	1345.89
523.01	1365.42
523.37	1384.84
523.73	1404.56
524.09	1423.79
524.45	1442.86
524.81	1462.16
525.17	1481.27
525.53	1500.10
525.89	1519.45
526.25	1538.58
526.61	1557.07
526.97	1576.73
527.33	1596.14
527.68	1616.07
528.04	1635.60
528.40	1654.86
528.76	1674.17
529.12	1692.59
529.48	1711.81
529.84	1730.08
530.20	1749.55
530.56	1768.32
530.91	1787.29
531.27	1805.80
531.63	1824.51
531.99	1843.11
532.35	1860.99
532.71	1879.20
533.07	1897.94
533.42	1916.00
533.78	1934.14
534.14	1952.22
534.50	1969.11
534.86	1986.19
535.21	2001.97
535.57	2018.30
535.93	2034.13
536.29	2049.87
536.65	2066.32
537.00	2081.81
537.36	2097.41
537.72	2111.63
538.08	2126.71
538.44	2141.30
538.79	2155.59
539.15	2169.90
539.51	2184.08
539.87	2197.29
540.22	2209.48
540.58	2221.91
540.94	2233.08
541.29	2243.55
541.65	2253.97
542.01	2264.45
542.37	2273.04
542.72	2281.95
543.08	2290.71
543.44	2300.35
543.79	2308.62
544.15	2316.24
544.51	2324.32
544.87	2331.80
545.22	2338.80
545.58	2344.83
545.94	2350.25
546.29	2355.11
546.65	2359.40
547.01	2363.26
547.36	2367.50
547.72	2371.28
548.07	2373.24
548.43	2376.65
548.79	2379.92
549.14	2382.57
549.50	2384.92
549.86	2387.64
550.21	2389.95
550.57	2391.90
550.92	2391.96
551.28	2391.82
551.64	2393.04
551.99	2393.49
552.35	2394.06
552.70	2394.86
553.06	2395.46
553.41	2395.69
553.77	2396.30
554.13	2396.67
554.48	2397.15
554.84	2396.79
555.19	2397.06
555.55	2397.80
555.90	2396.23
556.26	2394.33
556.61	2392.20
556.97	2389.20
557.32	2387.55
557.68	2385.59
558.03	2383.35
558.39	2381.26
558.74	2379.57
559.10	2375.57
559.45	2371.38
559.81	2366.24
560.16	2360.17
560.52	2354.66
560.87	2349.74
561.23	2343.57
561.58	2337.58
561.94	2330.29
562.29	2323.23
562.64	2315.54
563.00	2307.16
563.35	2300.28
563.71	2293.45
564.06	2286.82
564.42	2280.03
564.77	2272.84
565.12	2265.34
565.48	2257.57
565.83	2249.43
566.19	2241.44
566.54	2233.55
566.89	2225.71
567.25	2218.46
567.60	2211.83
567.96	2204.38
568.31	2196.18
568.66	2187.82
569.02	2179.14
569.37	2171.19
569.72	2163.80
570.08	2155.13
570.43	2146.16
570.78	2137.71
571.14	2128.63
571.49	2118.85
571.84	2109.98
572.20	2099.54
572.55	2089.76
572.90	2079.45
573.26	2069.60
573.61	2059.15
573.96	2048.75
574.31	2037.44
574.67	2026.14
575.02	2014.05
575.37	2002.15
575.72	1990.32
576.08	1979.28
576.43	1967.55
576.78	1955.44
577.13	1942.56
577.49	1930.89
577.84	1919.82
578.19	1908.73
578.54	1897.01
578.90	1886.10
579.25	1874.31
579.60	1863.12
579.95	1851.35
580.30	1839.40
580.66	1827.23
581.01	1814.98
581.36	1802.20
581.71	1790.80
582.06	1778.93
582.42	1767.91
582.77	1756.60
583.12	1745.41
583.47	1734.35
583.82	1723.52
584.17	1712.56
584.53	1701.95
584.88	1690.16
585.23	1678.31
585.58	1665.41
585.93	1653.62
586.28	1641.52
586.63	1629.17
586.98	1616.46
587.34	1604.69
587.69	1592.80
588.04	1581.93
588.39	1571.12
588.74	1560.22
589.09	1549.62
589.44	1538.37
589.79	1527.44
590.14	1516.54
590.49	1505.44
590.84	1494.44
591.19	1483.76
591.54	1472.87
591.89	1462.24
592.25	1453.29
592.60	1443.20
592.95	1433.07
593.30	1422.45
593.65	1411.82
594.00	1401.28
594.35	1392.79
594.70	1382.28
595.05	1372.20
595.40	1361.32
595.75	1350.44
596.10	1340.54
596.45	1330.11
596.80	1320.39
597.15	1310.08
597.50	1299.80
597.85	1290.17
598.19	1279.91
598.54	1269.45
598.89	1259.28
599.24	1249.65
599.59	1239.19
599.94	1229.72
600.29	1220.62
600.64	1211.69
600.99	1202.47
601.34	1193.74
601.69	1183.61
602.04	1174.91
602.39	1166.23
602.74	1158.16
603.08	1149.92
603.43	1141.58
603.78	1133.13
604.13	1124.62
604.48	1116.17
604.83	1107.61
605.18	1098.83
605.53	1090.49
605.87	1082.65
606.22	1075.33
606.57	1067.07
606.92	1058.71
607.27	1050.61
607.62	1042.83
607.96	1035.06
608.31	1027.91
608.66	1020.46
609.01	1012.78
609.36	1005.18
609.70	997.57
610.05	989.72
610.40	982.29
610.75	974.70
611.10	967.18
611.44	959.70
611.79	952.49
612.14	945.59
612.49	938.82
612.83	932.23
613.18	925.32
613.53	918.35
613.88	911.66
614.22	905.01
614.57	897.96
614.92	890.83
615.27	884.09
615.61	877.06
615.96	870.38
616.31	863.79
616.65	857.58
617.00	851.32
617.35	844.95
617.70	838.77
618.04	832.54
618.39	826.58
618.74	821.00
619.08	814.99
619.43	808.77
619.78	802.52
620.12	796.09
620.47	789.87
620.82	783.69
621.16	777.50
621.51	771.99
621.85	766.52
622.20	760.84
622.55	755.19
622.89	749.55
623.24	744.14
623.59	738.66
623.93	733.14
624.28	727.80
624.62	722.97
624.97	717.86
625.32	712.67
625.66	707.42
626.01	701.85
626.35	696.84
626.70	691.99
627.04	687.38
627.39	682.67
627.73	678.23
628.08	673.62
628.43	668.84
628.77	663.95
629.12	659.45
629.46	655.49
629.81	651.32
630.15	647.23
630.50	642.98
630.84	638.77
631.19	634.59
631.53	630.56
631.88	625.91
632.22	621.59
632.57	617.79
632.91	613.72
633.26	610.14
633.60	606.05
633.95	601.84
634.29	597.50
634.64	593.60
634.98	589.20
635.32	585.56
635.67	582.21
636.01	578.57
636.36	574.65
636.70	570.80
637.05	567.31
637.39	563.78
637.73	560.14
638.08	556.58
638.42	552.87
638.77	549.00
639.11	545.24
639.45	541.50
639.80	537.56
640.14	534.06
640.49	530.35
640.83	527.09
641.17	523.94
641.52	520.74
641.86	517.60
642.20	515.04
642.55	511.76
642.89	508.49
643.23	505.39
643.58	502.69
643.92	499.47
644.26	496.22
644.61	493.35
644.95	490.38
645.29	487.38
645.64	484.70
645.98	482.01
646.32	479.37
646.66	476.60
647.01	474.07
647.35	471.52
647.69	468.96
648.04	466.46
648.38	464.00
648.72	461.56
649.06	458.92
649.41	456.15
649.75	453.42
650.09	450.91
650.43	448.31
650.78	445.66
651.12	443.15
651.46	440.75
651.80	438.25
652.14	436.01
652.49	433.82
652.83	431.46
653.17	429.08
653.51	426.71
653.85	424.61
654.20	422.43
654.54	420.09
654.88	417.83
655.22	415.75
655.56	413.55
655.90	411.40
656.25	409.27
656.59	407.24
656.93	405.35
657.27	403.34
657.61	401.26
657.95	399.36
658.29	397.47
658.64	395.61
658.98	393.59
659.32	391.49
659.66	389.44
660.00	387.52
660.34	385.82
660.68	384.09
661.02	382.28
661.36	380.47
661.70	378.76
662.05	376.98
662.39	375.27
662.73	373.72
663.07	372.43
663.41	370.90
663.75	369.23
664.09	367.62
664.43	365.94
664.77	364.47
665.11	362.84
665.45	361.31
665.79	359.86
666.13	358.44
666.47	356.95
666.81	355.57
667.15	353.98
667.49	352.58
667.83	351.43
668.17	350.07
668.51	348.83
668.85	347.62
669.19	346.68
669.53	345.27
669.87	343.90
670.21	342.34
670.55	341.08
670.89	340.01
671.23	338.75
671.57	337.56
671.91	336.40
672.25	335.25
672.58	334.13
672.92	332.81
673.26	331.72
673.60	330.63
673.94	329.58
674.28	328.69
674.62	327.77
674.96	326.63
675.30	325.61
675.64	324.56
675.97	323.47
676.31	322.24
676.65	321.26
676.99	320.44
677.33	319.47
677.67	318.54
678.01	317.36
678.34	316.46
678.68	315.65
679.02	314.62
679.36	313.78
679.70	312.88
680.04	312.04
680.37	311.14
680.71	310.34
681.05	309.56
681.39	308.69
681.73	307.68
682.06	306.71
682.40	305.95
682.74	305.24
683.08	304.64
683.42	303.77
683.75	303.08
684.09	302.12
684.43	301.35
684.77	300.48
685.10	299.87
685.44	299.18
685.78	298.39
686.12	297.72
686.45	296.98
686.79	296.20
687.13	295.62
687.46	294.99
687.80	294.38
688.14	293.56
688.48	292.99
688.81	292.35
689.15	291.85
689.49	291.08
689.82	290.46
690.16	289.56
690.50	289.02
690.83	288.38
691.17	287.68
691.51	287.05
691.84	286.65
692.18	285.95
692.52	285.32
692.85	284.79
693.19	284.36
693.52	283.79
693.86	283.13
694.20	282.47
694.53	281.86
694.87	281.30
695.21	280.79
695.54	280.19
695.88	279.61
696.21	278.91
696.55	278.39
696.88	277.69
697.22	277.15
697.56	276.62
697.89	276.02
698.23	275.56
698.56	275.17
698.90	274.62
699.23	274.14
699.57	273.65
699.90	273.06
700.24	272.48
700.58	272.03
700.91	271.76
701.25	271.70
701.58	271.55
701.92	271.13
702.25	270.72
702.59	270.19
702.92	269.77
703.26	269.45
703.59	269.12
703.93	269.19
704.26	268.85
704.60	268.55
704.93	268.12
705.26	267.78
705.60	267.33
705.93	266.84
706.27	266.57
706.60	266.33
706.94	266.18
707.27	265.71
707.61	265.40
707.94	264.93
708.27	264.21
708.61	263.46
708.94	263.00
709.28	262.66
709.61	262.39
709.94	262.09
710.28	261.65
710.61	261.24
710.95	260.50
711.28	260.51
711.61	260.02
711.95	259.84
712.28	259.40
712.61	259.11
712.95	259.06
713.28	259.00
713.61	258.58
713.95	258.15
714.28	257.97
714.61	257.58
714.95	257.25
715.28	256.84
715.61	256.62
715.95	256.39
716.28	256.04
716.61	255.84
716.95	255.48
717.28	255.24
717.61	254.96
717.94	254.63
718.28	253.97
718.61	253.73
718.94	253.34
719.27	253.02
719.61	252.84
719.94	252.50
720.27	252.01
720.60	251.69
720.94	251.42
721.27	251.19
721.60	251.02
721.93	250.83
722.27	250.83
722.60	250.64
722.93	250.38
723.26	250.22
723.59	249.91
723.93	249.91
724.26	249.71
724.59	249.47
724.92	249.34
725.25	249.33
725.59	249.10
725.92	248.97
726.25	248.94
726.58	248.77
726.91	248.47
727.24	248.29
727.57	248.07
727.91	247.93
728.24	247.77
728.57	247.57
728.90	247.45
729.23	247.11
729.56	247.17
729.89	247.04
730.22	246.80
730.55	246.59
730.89	246.29
731.22	246.18
731.55	245.98
731.88	245.90
732.21	245.65
732.54	245.43
732.87	245.30
733.20	245.09
733.53	244.94
733.86	244.83
734.19	244.59
734.52	244.62
734.85	244.72
735.18	244.49
735.51	244.44
735.84	244.25
736.17	244.28
736.50	243.86
736.83	244.19
737.16	244.11
737.49	243.97
737.82	243.82
738.15	243.74
738.48	243.59
738.81	243.35
739.14	243.09
739.47	242.97
739.80	242.77
740.13	242.72
740.46	242.51
740.79	242.34
741.12	242.28
741.45	241.99
741.78	241.63
742.11	241.67
742.44	241.45
742.77	241.45
743.10	241.18
743.43	241.07
743.75	240.45
744.08	240.91
744.41	240.75
744.74	240.63
745.07	240.32
745.40	240.35
745.73	240.37
746.06	240.24
746.39	240.22
746.71	240.06
747.04	239.84
747.37	239.65
747.70	239.59
748.03	239.52
748.36	239.53
748.68	239.39
749.01	239.14
749.34	239.03
749.67	238.94
750.00	238.95
750.33	239.23
750.65	239.23
750.98	238.51
751.31	238.48
751.64	238.30
751.97	238.51
752.29	238.34
752.62	238.05
752.95	238.00
753.28	237.82
753.60	237.71
753.93	237.76
754.26	237.78
754.59	237.59
754.91	237.43
755.24	237.29
755.57	237.15
755.90	237.05
756.22	236.90
756.55	236.76
756.88	236.51
757.20	236.10
757.53	235.79
757.86	235.80
758.19	235.75
758.51	235.69
758.84	235.33
759.17	235.20
759.49	235.19
759.82	235.29
760.15	235.19
760.47	235.09
760.80	234.84
761.13	234.79
761.45	234.69
761.78	234.52
762.11	234.46
762.43	234.39
762.76	234.37
763.08	234.35
763.41	234.29
763.74	234.29
764.06	234.14
764.39	234.06
764.71	233.90
765.04	233.75
765.37	233.62
765.69	233.55
766.02	233.52
766.34	233.35
766.67	233.10
767.00	233.16
767.32	233.43
767.65	233.69
767.97	233.57
768.30	233.54
768.62	233.48
768.95	233.33
769.27	233.19
769.60	233.16
769.92	232.98
770.25	232.78
770.57	232.67
770.90	232.56
771.22	232.53
771.55	232.45
771.87	232.37
772.20	232.37
772.52	232.77
772.85	233.21
773.17	233.24
773.50	233.15
773.82	233.05
774.15	232.69
774.47	232.31
774.80	232.23
775.12	232.16
775.45	232.07
775.77	232.05
776.09	232.12
776.42	231.98
776.74	232.15
777.07	232.04
777.39	231.93
777.72	231.90
778.04	231.91
778.36	231.83
778.69	231.84
779.01	231.85
779.33	231.34
779.66	230.76
779.98	230.64
780.31	230.64
780.63	230.74
780.95	230.79
781.28	230.76
781.60	230.65
781.92	230.58
782.25	230.65
782.57	230.58
782.89	230.47
783.22	230.48
783.54	230.30
783.86	230.34
784.19	230.39
784.51	230.53
784.83	230.41
785.16	230.36
785.48	230.33
785.80	230.27
786.12	230.29
786.45	230.27
786.77	230.29
787.09	230.25
787.42	230.12
787.74	230.06
788.06	229.98
788.38	229.94
788.71	229.85
789.03	229.82
789.35	229.82
789.67	229.71
789.99	229.63
790.32	229.52
790.64	229.52
790.96	229.82
791.28	229.58
791.61	229.56
791.93	229.57
792.25	229.58
792.57	229.90
792.89	229.76
793.21	229.74
793.54	229.64
793.86	229.64
794.18	229.57
794.50	229.48
794.82	229.55
795.14	229.65
795.47	229.75
795.79	229.66
796.11	229.57
796.43	229.54
796.75	229.54
797.07	229.54
797.39	229.56
797.71	229.20
798.04	229.25
798.36	229.25
798.68	229.23
799.00	229.20
799.32	228.86
799.64	228.93
799.96	228.93
800.28	229.04
800.60	229.00
800.92	228.98
801.24	228.95
801.56	228.90
801.89	228.87
802.21	228.84
802.53	228.80
802.85	228.96
803.17	229.15
803.49	229.06
803.81	229.07
804.13	228.99
804.45	228.92
804.77	228.92
805.09	228.87
805.41	228.84
805.73	228.74
806.05	228.67
806.37	228.64
806.69	228.55
807.01	228.45
807.33	228.41
807.65	228.26
807.97	228.42
808.28	228.37
808.60	228.22
808.92	228.15
809.24	228.42
809.56	228.35
809.88	228.19
810.20	228.18
810.52	228.28
810.84	228.18
811.16	228.09
811.48	228.04
811.80	228.17
812.12	228.07
812.43	228.14
812.75	228.13
813.07	228.07
813.39	228.15
813.71	228.08
814.03	228.04
814.35	228.06
814.67	227.87
814.98	227.86
815.30	227.88
815.62	227.81
815.94	227.48
816.26	227.58
816.58	227.45
816.89	227.50
817.21	227.35
817.53	227.29
817.85	227.32
818.17	227.28
818.48	227.09
818.80	227.19
819.12	227.15
819.44	227.05
819.76	226.93
820.07	226.87
820.39	226.92
820.71	226.93
821.03	226.84
821.34	226.82
821.66	226.77
821.98	226.82
822.30	226.87
822.61	227.11
822.93	226.88
823.25	226.94
823.57	226.88
823.88	226.96
824.20	227.03
824.52	227.15
824.83	227.18
825.15	227.16
825.47	227.15
825.79	227.13
826.10	227.09
826.42	227.08
826.74	227.11
827.05	227.10
827.37	227.09
827.69	227.09
828.00	227.16
828.32	227.25
828.64	227.15
828.95	227.30
829.27	227.22
829.58	227.24
829.90	227.28
830.22	227.32
830.53	227.18
830.85	227.10
831.17	226.98
831.48	226.95
831.80	226.97
832.11	226.91
832.43	226.89
832.75	226.99
833.06	227.31
833.38	227.20
833.69	227.11
834.01	227.16
834.32	227.18
834.64	227.13
834.96	227.10
835.27	227.17
835.59	227.04
835.90	226.96
836.22	226.90
836.53	226.78
836.85	226.67
837.16	227.15
837.48	227.17
837.79	227.32
838.11	227.35
838.42	227.35
838.74	227.47
839.05	227.43
839.37	227.41
839.68	227.08
840.00	227.08
840.31	227.17
840.63	227.15
840.94	227.12
841.26	227.02
841.57	226.98
841.88	227.06
842.20	227.00
842.51	226.97
842.83	227.01
843.14	227.46
843.46	227.50
843.77	227.21
844.08	227.20
844.40	226.99
844.71	226.94
845.03	226.87
845.34	226.77
845.65	226.70
845.97	226.62
846.28	226.66
846.60	226.71
846.91	226.63
847.22	226.63
847.54	226.71
847.85	226.69
848.16	226.63
848.48	226.50
848.79	226.60
849.10	226.59
849.42	226.72
849.73	226.25
850.04	226.23
850.36	226.10
850.67	226.22
850.98	226.26
851.30	226.30
851.61	226.31
851.92	226.33
852.23	226.57
852.55	226.64
852.86	226.65
853.17	226.68
853.49	226.76
853.80	226.85
854.11	226.92
854.42	227.04
854.74	227.08
855.05	227.17
855.36	226.99
855.67	227.08
855.99	226.97
856.30	227.55
856.61	227.52
856.92	227.55
857.23	227.46
857.55	227.48
857.86	227.40
858.17	227.48
858.48	227.43
858.79	227.21
859.11	227.22
859.42	227.23
859.73	227.11
860.04	227.14
860.35	226.95
860.66	226.75
860.98	226.75
861.29	226.80
861.60	226.68
861.91	226.78
862.22	226.70
862.53	226.64
862.84	226.11
863.16	226.24
863.47	226.12
863.78	226.10
864.09	226.12
864.40	226.23
864.71	226.26
865.02	226.26
865.33	226.31
865.64	226.28
865.95	226.18
866.27	226.55
866.58	226.50
866.89	226.57
867.20	226.67
867.51	226.59
867.82	226.54
868.13	226.75
868.44	226.65
868.75	226.78
869.06	226.88
869.37	226.93
869.68	226.75
869.99	226.85
870.30	226.93
870.61	226.99
870.92	226.91
871.23	226.82
871.54	226.96
871.85	226.98
872.16	227.00
872.47	227.08
872.78	226.74
873.09	226.71
873.40	226.68
873.71	226.71
874.02	226.71
874.33	226.68
874.64	226.50
874.95	226.63
875.26	226.41
875.56	226.39
875.87	226.36
876.18	226.43
876.49	226.98
876.80	226.90
877.11	226.78
877.42	226.80
877.73	226.80
878.04	226.68
878.35	226.70
878.66	226.71
878.96	226.67
879.27	226.72
879.58	226.76
879.89	226.82
880.20	226.86
880.51	226.89
880.82	226.89
881.12	226.95
881.43	226.84
881.74	226.87
882.05	226.76
882.36	226.75
882.67	226.79
882.97	226.26
883.28	226.21
883.59	226.25
883.90	226.25
884.21	226.39
884.51	226.40
884.82	226.31
885.13	226.31
885.44	226.28
885.74	226.27
886.05	226.25
886.36	226.25
886.67	226.09
886.98	226.29
887.28	226.32
887.59	226.23
887.90	226.25
888.20	226.25
888.51	226.46
888.82	226.38
889.13	226.33
889.43	226.64
889.74	226.63
890.05	226.63
890.35	226.63
890.66	226.47
890.97	226.40
891.28	226.36
891.58	226.40
891.89	226.38
892.20	226.28
892.50	226.21
892.81	226.16
893.12	226.22
893.42	226.03
893.73	226.10
894.04	226.16
894.34	226.14
894.65	226.09
894.95	225.96
895.26	226.01
895.57	226.26
895.87	225.85
896.18	225.94
896.48	225.89
896.79	225.89
897.10	225.97
897.40	226.04
897.71	226.14
898.01	226.05
898.32	226.13
898.63	226.10
898.93	226.10
899.24	226.13
899.54	226.09
899.85	226.09
900.15	226.02
900.46	225.94
900.76	226.04
901.07	226.01
901.38	225.95
901.68	226.03
901.99	225.80
902.29	225.80
902.60	225.82
902.90	225.87
903.21	225.84
903.51	225.82
903.82	225.90
904.12	225.95
904.43	225.96
904.73	225.95
905.03	226.08
905.34	226.61
905.64	226.48
905.95	226.47
906.25	226.44
906.56	226.41
906.86	226.45
907.17	226.41
907.47	226.46
907.77	226.48
908.08	226.33
908.38	226.33
908.69	226.35
908.99	226.40
909.30	226.40
909.60	226.40
909.90	226.41
910.21	226.27
910.51	226.16
910.81	226.23
911.12	226.27
911.42	226.21
911.73	225.73
912.03	225.82
912.33	225.93
912.64	225.91
912.94	225.92
913.24	225.84
913.55	225.80
913.85	225.73
914.15	225.82
914.46	225.92
914.76	225.85
915.06	225.83
915.37	225.68
915.67	225.65
915.97	225.67
916.27	225.60
916.58	225.65
916.88	225.63
917.18	225.51
917.49	225.87
917.79	225.81
918.09	225.88
918.39	225.99
918.70	225.95
919.00	225.89
919.30	226.11
919.60	226.14
919.91	226.08
920.21	226.12
920.51	226.01
920.81	226.00
921.12	226.15
921.42	226.18
921.72	226.20
922.02	226.19
922.32	226.25
922.63	226.28
922.93	226.52
923.23	226.54
923.53	226.58
923.83	226.26
924.13	226.40
924.44	226.38
924.74	226.43
925.04	226.54
925.34	226.55
925.64	226.37
925.94	226.33
926.24	226.64
926.55	226.68
926.85	226.76
927.15	226.79
927.45	226.77
927.75	226.75
928.05	226.85
928.35	226.80
928.65	226.90
928.95	226.97
929.26	226.74
929.56	226.80
929.86	226.87
930.16	226.71
930.46	226.64
930.76	226.60
931.06	226.43
931.36	226.31
931.66	226.48
931.96	226.54
932.26	226.55
932.56	226.32
932.86	226.31
933.16	226.27
933.46	226.15
933.76	226.10
934.06	226.25
934.36	226.38
934.66	226.38
934.96	226.27
935.26	226.20
935.56	226.28
935.86	226.14
936.16	226.06
936.46	226.11
936.76	226.08
937.06	226.08
937.36	226.08
937.66	226.15
937.96	226.09
938.26	225.94
938.56	225.92
938.86	226.00
939.16	226.10
939.46	226.18
939.76	226.20
940.06	226.21
940.35	226.11
940.65	225.85
940.95	225.91
941.25	225.80
941.55	225.78
941.85	225.78
942.15	225.98
942.45	226.11
942.75	226.09
943.04	226.11
943.34	226.16
943.64	226.09
943.94	226.00
944.24	225.99
944.54	226.05
944.84	226.10
945.13	225.94
945.43	225.85
945.73	225.81
946.03	225.79
946.33	225.73
946.62	225.64
946.92	225.67
947.22	225.70
947.52	225.76
947.82	225.83
948.11	225.68
948.41	225.58
948.71	225.43
949.01	225.42
949.31	225.41
949.60	225.41
949.90	225.53
950.20	225.45
950.50	225.45
950.79	225.44
951.09	225.42
951.39	225.49
951.69	225.41
951.98	225.51
952.28	225.62
952.58	225.62
952.87	225.70
953.17	225.70
953.47	225.70
953.76	225.64
954.06	225.59
954.36	225.59
954.66	225.58
954.95	225.83
955.25	225.91
955.55	225.95
955.84	225.84
956.14	225.90
956.44	225.96
956.73	225.92
957.03	225.97
957.32	226.03
957.62	226.03
957.92	226.19
958.21	226.15
958.51	226.58
958.81	226.68
959.10	226.65
959.40	226.71
959.69	226.72
959.99	226.80
960.29	226.78
960.58	226.75
960.88	226.95
961.17	226.80
961.47	226.84
961.76	226.76
962.06	226.89
962.36	226.81
962.65	226.94
962.95	226.96
963.24	226.88
963.54	226.85
963.83	226.89
964.13	226.80
964.42	226.64
964.72	226.30
965.01	226.24
965.31	226.29
965.60	226.23
965.90	226.58
966.19	226.53
966.49	226.58
966.78	226.63
967.08	226.52
967.37	226.55
967.67	226.44
967.96	226.55
968.26	226.49
968.55	226.56
968.85	226.41
969.14	226.40
969.43	226.39
969.73	226.44
970.02	226.36
970.32	226.42
970.61	226.50
970.91	226.35
971.20	226.29
971.49	226.23
971.79	226.30
972.08	225.94
972.38	225.95
972.67	225.91
972.96	225.95
973.26	225.87
973.55	225.97
973.85	225.96
974.14	225.91
974.43	225.95
974.73	225.88
975.02	225.90
975.31	225.84
975.61	225.78
975.90	225.66
976.19	225.65
976.49	225.60
976.78	225.56
977.07	225.53
977.37	225.50
977.66	225.53
977.95	225.41
978.24	225.36
978.54	225.39
978.83	225.29
979.12	225.20
979.42	225.18
979.71	225.05
980.00	225.03
980.29	224.99
980.59	224.85
980.88	224.90
981.17	224.89
981.46	224.87
981.76	224.93
982.05	225.07
982.34	225.06
982.63	225.04
982.93	225.03
983.22	225.12
983.51	225.15
983.80	225.19
984.09	225.30
984.39	225.25
984.68	225.24
984.97	225.28
985.26	225.28
985.55	225.27
985.85	225.18
986.14	225.25
986.43	225.34
986.72	225.35
987.01	225.26
987.30	225.22
987.59	225.25
987.89	225.24
988.18	225.13
988.47	225.10
988.76	225.07
989.05	225.08
989.34	225.07
989.63	225.21
989.92	225.14
990.22	225.05
990.51	225.09
990.80	225.05
991.09	225.03
991.38	225.10
991.67	225.14
991.96	225.12
992.25	225.10
992.54	224.99
992.83	224.97
993.12	224.91
993.41	224.98
993.70	225.18
993.99	225.26
994.28	225.30
994.58	225.39
994.87	225.42
995.16	225.37
995.45	225.32
995.74	225.18
996.03	225.30
996.32	225.44
996.61	225.50
996.90	225.52
997.19	225.60
997.48	225.61
997.77	225.53
998.06	225.55
998.34	225.58
998.63	225.59
998.92	225.64
999.21	225.75
999.50	225.84
999.79	225.71
1000.08	225.78
1000.37	225.78
1000.66	225.76
1000.95	225.80
1001.24	225.87
1001.53	225.98
1001.82	226.00
1002.11	225.95
1002.40	225.99
1002.68	226.20
1002.97	226.54
1003.26	226.49
1003.55	226.47
1003.84	226.49
1004.13	226.68
1004.42	226.65
1004.71	226.71
1004.99	226.69
1005.28	226.81
1005.57	226.73
1005.86	226.60
1006.15	226.49
1006.44	226.46
1006.72	226.49
1007.01	226.47
1007.30	226.41
1007.59	226.34
1007.88	226.24
1008.17	226.18
1008.45	226.06
1008.74	225.69
1009.03	225.51
1009.32	225.53
1009.60	225.54
1009.89	225.57
1010.18	225.36
1010.47	225.35
1010.76	225.30
1011.04	225.28
1011.33	225.29
1011.62	225.30
1011.91	225.39
1012.19	225.37
1012.48	225.40
1012.77	225.38
1013.05	225.56
1013.34	225.58
1013.63	225.57
1013.92	225.71
1014.20	225.68
1014.49	225.64
1014.78	225.78
1015.06	225.54
1015.35	225.52
1015.64	225.54
1015.92	225.58
1016.21	225.64
1016.50	225.63
1016.78	225.68
1017.07	225.75
1017.36	225.64
1017.64	225.58
1017.93	225.61
1018.22	225.64
1018.50	225.64
1018.79	225.64
1019.08	225.45
1019.36	225.45
1019.65	225.40
1019.93	225.54
1020.22	225.61
1020.51	225.97
1020.79	225.95
1021.08	225.40
1021.36	225.45
1021.65	225.85
1021.94	226.05
1022.22	225.00
1022.51	224.95
1022.79	228.85
1023.08	225.60
1023.36	232.90
1023.65	225.20
>>>>>End Processed Spectral Data<<<<<
