SpectraSuite Data File
++++++++++++++++++++++++++++++++++++
Date: Wed Sep 04 17:51:14 EDT 2013
User: lab3
Dark Spectrum Present: Yes
Reference Spectrum Present: No
Number of Sampled Component Spectra: 1
Spectrometers: USB2E7196
Integration Time (usec): 170000 (USB2E7196)
Spectra Averaged: 20 (USB2E7196)
Boxcar Smoothing: 10 (USB2E7196)
Correct for Electrical Dark: No (USB2E7196)
Strobe/Lamp Enabled: No (USB2E7196)
Correct for Detector Non-linearity: No (USB2E7196)
Correct for Stray Light: No (USB2E7196)
Number of Pixels in Processed Spectrum: 2048
>>>>>Begin Processed Spectral Data<<<<<
339.09	0.00
339.48	212.00
339.86	215.05
340.24	216.50
340.63	216.95
341.01	226.85
341.39	219.75
341.78	221.95
342.16	224.60
342.54	223.55
342.93	212.39
343.31	223.14
343.69	223.66
344.07	224.06
344.46	224.55
344.84	225.01
345.22	224.88
345.60	225.20
345.99	225.39
346.37	225.46
346.75	225.52
347.13	225.58
347.52	225.66
347.90	225.90
348.28	225.98
348.66	226.08
349.05	225.88
349.43	225.99
349.81	226.03
350.19	226.06
350.57	226.12
350.96	226.26
351.34	226.29
351.72	226.46
352.10	226.63
352.48	226.59
352.87	226.58
353.25	226.68
353.63	226.70
354.01	226.80
354.39	226.87
354.77	226.94
355.15	227.13
355.54	227.18
355.92	227.03
356.30	227.09
356.68	227.49
357.06	227.68
357.44	227.62
357.82	227.66
358.20	228.15
358.58	228.19
358.97	228.23
359.35	228.37
359.73	228.55
360.11	228.57
360.49	228.62
360.87	228.64
361.25	228.78
361.63	228.99
362.01	229.02
362.39	229.04
362.77	229.14
363.15	229.18
363.53	229.20
363.91	229.24
364.29	229.26
364.67	228.77
365.05	228.76
365.43	228.89
365.81	228.92
366.19	228.80
366.57	229.00
366.95	229.04
367.33	229.01
367.71	228.95
368.09	229.05
368.47	229.11
368.85	229.17
369.23	229.27
369.61	229.04
369.99	229.17
370.37	229.24
370.75	229.50
371.13	229.40
371.51	229.37
371.89	229.47
372.27	229.45
372.65	229.55
373.03	229.53
373.41	229.46
373.78	229.43
374.16	229.16
374.54	228.90
374.92	228.79
375.30	228.80
375.68	228.65
376.06	228.66
376.44	228.51
376.82	228.47
377.19	228.29
377.57	228.31
377.95	228.12
378.33	227.99
378.71	227.58
379.09	227.55
379.47	227.53
379.84	227.35
380.22	227.29
380.60	227.10
380.98	227.00
381.36	226.93
381.73	226.78
382.11	226.78
382.49	226.79
382.87	226.67
383.25	226.49
383.62	227.01
384.00	226.77
384.38	226.82
384.76	226.82
385.13	227.03
385.51	226.91
385.89	226.73
386.27	226.69
386.64	226.74
387.02	226.68
387.40	226.53
387.78	226.50
388.15	226.46
388.53	226.42
388.91	226.39
389.29	226.25
389.66	226.34
390.04	226.24
390.42	226.23
390.79	226.21
391.17	226.27
391.55	225.75
391.92	225.78
392.30	225.73
392.68	225.56
393.05	225.45
393.43	225.54
393.81	225.63
394.18	225.63
394.56	225.68
394.94	225.80
395.31	225.89
395.69	226.05
396.06	226.11
396.44	226.16
396.82	226.25
397.19	226.60
397.57	226.67
397.95	226.84
398.32	226.77
398.70	226.85
399.07	226.92
399.45	226.99
399.82	227.07
400.20	227.19
400.58	227.34
400.95	227.28
401.33	227.37
401.70	227.79
402.08	227.90
402.45	228.04
402.83	228.21
403.20	228.38
403.58	228.47
403.95	228.79
404.33	229.05
404.71	229.21
405.08	229.70
405.46	229.85
405.83	230.09
406.21	230.38
406.58	230.74
406.96	231.04
407.33	231.42
407.70	231.76
408.08	232.53
408.45	233.05
408.83	233.58
409.20	234.02
409.58	234.20
409.95	234.89
410.33	235.42
410.70	235.88
411.08	236.47
411.45	237.18
411.82	237.71
412.20	238.43
412.57	239.38
412.95	239.71
413.32	240.63
413.69	241.45
414.07	242.41
414.44	243.40
414.82	244.42
415.19	245.58
415.56	246.80
415.94	247.70
416.31	249.04
416.68	250.37
417.06	251.97
417.43	253.62
417.81	255.27
418.18	257.00
418.55	258.86
418.93	260.87
419.30	262.92
419.67	265.10
420.04	267.37
420.42	269.65
420.79	272.66
421.16	275.41
421.54	278.46
421.91	281.27
422.28	284.27
422.66	287.47
423.03	290.93
423.40	294.20
423.77	297.81
424.15	301.34
424.52	305.15
424.89	309.29
425.26	313.19
425.64	316.93
426.01	321.09
426.38	325.44
426.75	329.99
427.13	334.48
427.50	339.19
427.87	344.03
428.24	348.91
428.61	353.30
428.99	358.59
429.36	363.94
429.73	369.40
430.10	374.94
430.47	380.74
430.85	386.29
431.22	392.45
431.59	399.17
431.96	405.42
432.33	412.26
432.70	418.92
433.08	426.73
433.45	434.12
433.82	441.54
434.19	449.78
434.56	457.64
434.93	465.26
435.30	472.95
435.68	481.50
436.05	489.93
436.42	498.25
436.79	505.95
437.16	514.32
437.53	523.25
437.90	531.88
438.27	540.30
438.64	549.19
439.01	557.43
439.38	564.52
439.75	571.68
440.13	579.76
440.50	587.21
440.87	593.15
441.24	599.44
441.61	606.27
441.98	611.19
442.35	617.12
442.72	623.08
443.09	629.00
443.46	632.43
443.83	634.65
444.20	636.73
444.57	639.26
444.94	640.30
445.31	641.43
445.68	642.68
446.05	642.83
446.42	641.44
446.79	640.17
447.16	638.57
447.53	637.21
447.90	633.53
448.27	629.79
448.64	625.12
449.01	621.46
449.37	615.37
449.74	609.28
450.11	602.45
450.48	594.86
450.85	586.87
451.22	579.95
451.59	573.45
451.96	567.02
452.33	559.03
452.70	551.67
453.07	542.98
453.43	534.01
453.80	525.75
454.17	517.85
454.54	510.06
454.91	502.04
455.28	494.01
455.65	486.63
456.02	479.83
456.38	473.51
456.75	465.80
457.12	459.25
457.49	453.25
457.86	446.88
458.23	441.66
458.59	435.89
458.96	430.25
459.33	425.16
459.70	420.11
460.07	415.97
460.43	411.46
460.80	407.21
461.17	403.41
461.54	399.40
461.91	395.58
462.27	391.72
462.64	388.41
463.01	384.96
463.38	381.73
463.74	377.79
464.11	374.68
464.48	372.07
464.85	369.26
465.21	367.06
465.58	364.86
465.95	362.09
466.32	359.94
466.68	357.63
467.05	355.50
467.42	353.45
467.78	351.17
468.15	348.92
468.52	347.34
468.88	345.17
469.25	343.23
469.62	341.79
469.98	340.23
470.35	338.63
470.72	337.27
471.08	335.50
471.45	334.27
471.82	333.02
472.18	331.60
472.55	330.70
472.92	329.30
473.28	328.09
473.65	326.98
474.02	325.88
474.38	325.08
474.75	324.29
475.11	323.39
475.48	322.76
475.85	322.21
476.21	321.50
476.58	321.10
476.94	320.70
477.31	320.22
477.67	319.69
478.04	319.42
478.41	319.20
478.77	319.52
479.14	319.24
479.50	319.20
479.87	319.31
480.23	319.19
480.60	319.19
480.96	319.26
481.33	319.71
481.69	320.00
482.06	320.18
482.42	320.43
482.79	320.78
483.15	321.25
483.52	321.94
483.88	322.55
484.25	323.11
484.61	323.78
484.98	324.54
485.34	325.57
485.71	326.47
486.07	327.42
486.44	327.93
486.80	328.95
487.17	330.06
487.53	331.35
487.90	332.86
488.26	334.50
488.62	336.26
488.99	337.73
489.35	339.46
489.72	341.41
490.08	343.36
490.44	345.41
490.81	347.68
491.17	349.73
491.54	352.11
491.90	354.61
492.26	357.24
492.63	359.99
492.99	362.85
493.36	366.02
493.72	369.23
494.08	372.72
494.45	376.40
494.81	380.38
495.17	384.23
495.54	388.40
495.90	392.61
496.26	396.96
496.63	401.55
496.99	406.33
497.35	411.23
497.72	416.37
498.08	421.88
498.44	427.47
498.80	433.67
499.17	439.73
499.53	446.00
499.89	452.62
500.26	459.32
500.62	466.17
500.98	473.58
501.34	481.11
501.71	488.76
502.07	496.64
502.43	504.52
502.79	512.89
503.16	521.46
503.52	530.41
503.88	539.59
504.24	549.26
504.60	559.26
504.97	569.66
505.33	580.20
505.69	591.04
506.05	602.05
506.41	613.20
506.78	624.82
507.14	636.90
507.50	649.28
507.86	661.77
508.22	674.66
508.59	687.65
508.95	701.19
509.31	715.40
509.67	729.56
510.03	743.89
510.39	758.57
510.75	773.63
511.12	788.85
511.48	804.47
511.84	820.18
512.20	836.12
512.56	852.45
512.92	869.20
513.28	886.06
513.64	903.20
514.00	920.59
514.37	938.29
514.73	956.32
515.09	974.68
515.45	993.08
515.81	1011.54
516.17	1030.17
516.53	1048.78
516.89	1067.27
517.25	1086.78
517.61	1106.97
517.97	1127.28
518.33	1147.24
518.69	1167.37
519.05	1187.85
519.41	1208.39
519.77	1229.23
520.13	1249.76
520.49	1270.23
520.85	1292.18
521.21	1313.23
521.57	1334.55
521.93	1355.24
522.29	1376.22
522.65	1396.51
523.01	1417.52
523.37	1438.22
523.73	1459.25
524.09	1479.73
524.45	1500.37
524.81	1520.99
525.17	1541.40
525.53	1561.57
525.89	1582.22
526.25	1602.77
526.61	1622.99
526.97	1644.04
527.33	1664.99
527.68	1686.72
528.04	1708.17
528.40	1727.92
528.76	1748.81
529.12	1768.92
529.48	1789.68
529.84	1809.55
530.20	1830.80
530.56	1851.34
530.91	1872.08
531.27	1892.45
531.63	1912.86
531.99	1933.23
532.35	1953.27
532.71	1973.61
533.07	1994.45
533.42	2013.98
533.78	2033.90
534.14	2053.84
534.50	2072.66
534.86	2091.97
535.21	2109.40
535.57	2127.36
535.93	2144.83
536.29	2162.31
536.65	2180.62
537.00	2198.06
537.36	2216.03
537.72	2232.13
538.08	2248.77
538.44	2265.25
538.79	2281.29
539.15	2297.63
539.51	2313.43
539.87	2328.10
540.22	2341.66
540.58	2355.80
540.94	2368.93
541.29	2381.82
541.65	2394.00
542.01	2406.28
542.37	2416.53
542.72	2427.45
543.08	2438.00
543.44	2449.55
543.79	2459.64
544.15	2469.41
544.51	2479.28
544.87	2488.12
545.22	2496.75
545.58	2504.51
545.94	2511.63
546.29	2518.20
546.65	2524.09
547.01	2530.00
547.36	2535.82
547.72	2541.35
548.07	2544.71
548.43	2550.17
548.79	2554.11
549.14	2558.13
549.50	2561.75
549.86	2565.42
550.21	2568.89
550.57	2572.15
550.92	2573.57
551.28	2574.50
551.64	2576.28
551.99	2578.07
552.35	2579.61
552.70	2581.56
553.06	2583.03
553.41	2584.16
553.77	2585.62
554.13	2587.42
554.48	2588.57
554.84	2589.36
555.19	2590.56
555.55	2592.45
555.90	2591.50
556.26	2590.81
556.61	2589.26
556.97	2587.02
557.32	2586.71
557.68	2585.50
558.03	2583.58
558.39	2581.96
558.74	2581.41
559.10	2578.20
559.45	2574.10
559.81	2569.65
560.16	2564.54
560.52	2559.50
560.87	2555.16
561.23	2549.59
561.58	2543.70
561.94	2536.54
562.29	2529.45
562.64	2522.22
563.00	2513.78
563.35	2507.19
563.71	2500.55
564.06	2493.91
564.42	2487.31
564.77	2479.79
565.12	2472.08
565.48	2464.96
565.83	2457.14
566.19	2448.83
566.54	2441.05
566.89	2433.41
567.25	2425.99
567.60	2418.53
567.96	2411.16
568.31	2402.91
568.66	2394.36
569.02	2385.17
569.37	2376.90
569.72	2369.25
570.08	2359.84
570.43	2350.53
570.78	2341.53
571.14	2332.37
571.49	2322.57
571.84	2312.85
572.20	2302.18
572.55	2292.04
572.90	2280.83
573.26	2270.47
573.61	2259.69
573.96	2248.33
574.31	2235.82
574.67	2223.75
575.02	2211.32
575.37	2198.62
575.72	2185.61
576.08	2173.90
576.43	2161.46
576.78	2148.58
577.13	2134.64
577.49	2122.18
577.84	2110.35
578.19	2098.14
578.54	2085.42
578.90	2073.38
579.25	2061.66
579.60	2049.46
579.95	2036.63
580.30	2023.69
580.66	2010.41
581.01	1996.72
581.36	1982.89
581.71	1970.73
582.06	1957.67
582.42	1945.20
582.77	1932.87
583.12	1921.04
583.47	1908.70
583.82	1896.84
584.17	1885.14
584.53	1873.72
584.88	1860.64
585.23	1847.61
585.58	1833.78
585.93	1820.40
586.28	1807.19
586.63	1793.14
586.98	1778.98
587.34	1765.95
587.69	1752.88
588.04	1740.39
588.39	1728.63
588.74	1716.49
589.09	1704.65
589.44	1692.53
589.79	1680.65
590.14	1668.85
590.49	1656.73
590.84	1644.56
591.19	1632.56
591.54	1620.05
591.89	1607.88
592.25	1597.80
592.60	1586.40
592.95	1575.18
593.30	1563.46
593.65	1551.70
594.00	1539.92
594.35	1530.23
594.70	1518.61
595.05	1507.45
595.40	1495.46
595.75	1483.62
596.10	1472.60
596.45	1461.16
596.80	1450.35
597.15	1438.89
597.50	1427.15
597.85	1415.87
598.19	1404.34
598.54	1392.90
598.89	1382.11
599.24	1371.77
599.59	1360.46
599.94	1349.69
600.29	1339.40
600.64	1329.24
600.99	1318.56
601.34	1309.11
601.69	1298.07
602.04	1288.24
602.39	1278.44
602.74	1269.43
603.08	1259.84
603.43	1250.89
603.78	1241.35
604.13	1231.82
604.48	1222.20
604.83	1212.59
605.18	1202.80
605.53	1193.29
605.87	1184.21
606.22	1175.72
606.57	1166.47
606.92	1157.24
607.27	1148.48
607.62	1139.54
607.96	1131.17
608.31	1123.47
608.66	1115.10
609.01	1106.52
609.36	1098.04
609.70	1089.72
610.05	1081.17
610.40	1073.08
610.75	1064.23
611.10	1055.86
611.44	1047.28
611.79	1039.26
612.14	1031.43
612.49	1023.87
612.83	1016.46
613.18	1008.82
613.53	1001.10
613.88	993.37
614.22	985.64
614.57	977.74
614.92	970.00
615.27	962.44
615.61	954.65
615.96	947.12
616.31	939.84
616.65	932.90
617.00	925.48
617.35	918.17
617.70	911.03
618.04	904.11
618.39	897.09
618.74	890.55
619.08	883.74
619.43	876.76
619.78	869.73
620.12	862.77
620.47	855.77
620.82	848.57
621.16	841.71
621.51	835.45
621.85	829.31
622.20	822.85
622.55	816.22
622.89	809.78
623.24	803.32
623.59	796.91
623.93	790.79
624.28	784.73
624.62	779.19
624.97	773.29
625.32	767.54
625.66	761.77
626.01	755.78
626.35	750.30
626.70	745.08
627.04	739.85
627.39	734.42
627.73	729.31
628.08	724.21
628.43	718.89
628.77	713.40
629.12	708.05
629.46	703.39
629.81	698.85
630.15	694.32
630.50	689.54
630.84	684.85
631.19	679.95
631.53	675.48
631.88	670.34
632.22	665.44
632.57	661.00
632.91	656.45
633.26	652.18
633.60	647.45
633.95	642.73
634.29	638.06
634.64	633.63
634.98	628.91
635.32	624.65
635.67	620.84
636.01	616.93
636.36	612.84
636.70	608.62
637.05	604.35
637.39	600.06
637.73	595.98
638.08	592.02
638.42	587.88
638.77	583.58
639.11	579.28
639.45	575.24
639.80	570.85
640.14	566.79
640.49	562.78
640.83	559.13
641.17	555.56
641.52	551.87
641.86	548.31
642.20	545.25
642.55	541.58
642.89	537.90
643.23	534.32
643.58	531.15
643.92	527.55
644.26	524.29
644.61	521.18
644.95	517.92
645.29	514.54
645.64	511.40
645.98	508.44
646.32	505.70
646.66	502.61
647.01	499.74
647.35	497.00
647.69	494.06
648.04	491.20
648.38	488.35
648.72	485.58
649.06	482.48
649.41	479.40
649.75	476.49
650.09	473.55
650.43	470.55
650.78	467.62
651.12	464.97
651.46	462.16
651.80	459.40
652.14	456.67
652.49	454.27
652.83	451.70
653.17	449.10
653.51	446.33
653.85	443.98
654.20	441.48
654.54	438.95
654.88	436.51
655.22	434.26
655.56	431.77
655.90	429.39
656.25	427.27
656.59	425.00
656.93	422.89
657.27	420.94
657.61	418.73
657.95	416.40
658.29	414.15
658.64	412.12
658.98	409.89
659.32	407.66
659.66	405.44
660.00	403.40
660.34	401.30
660.68	399.25
661.02	397.17
661.36	395.17
661.70	393.17
662.05	391.25
662.39	389.29
662.73	387.57
663.07	385.89
663.41	384.12
663.75	382.25
664.09	380.35
664.43	378.34
664.77	376.65
665.11	374.98
665.45	373.43
665.79	371.75
666.13	370.00
666.47	368.37
666.81	366.64
667.15	364.87
667.49	363.41
667.83	362.06
668.17	360.61
668.51	359.15
668.85	357.82
669.19	356.64
669.53	355.10
669.87	353.58
670.21	352.00
670.55	350.55
670.89	349.50
671.23	348.17
671.57	346.83
671.91	345.50
672.25	344.15
672.58	342.88
672.92	341.48
673.26	340.34
673.60	339.24
673.94	338.04
674.28	336.95
674.62	335.86
674.96	334.66
675.30	333.50
675.64	332.38
675.97	331.18
676.31	329.76
676.65	328.58
676.99	327.57
677.33	326.45
677.67	325.37
678.01	323.94
678.34	322.90
678.68	321.98
679.02	320.88
679.36	319.91
679.70	318.87
680.04	317.90
680.37	316.99
680.71	315.96
681.05	315.15
681.39	314.29
681.73	313.30
682.06	312.35
682.40	311.47
682.74	310.63
683.08	309.85
683.42	309.06
683.75	308.25
684.09	307.34
684.43	306.56
684.77	305.70
685.10	304.98
685.44	304.15
685.78	303.30
686.12	302.57
686.45	301.77
686.79	300.97
687.13	300.35
687.46	299.49
687.80	298.91
688.14	298.04
688.48	297.29
688.81	296.55
689.15	295.94
689.49	295.17
689.82	294.39
690.16	293.52
690.50	292.83
690.83	292.19
691.17	291.37
691.51	290.65
691.84	290.06
692.18	289.43
692.52	288.73
692.85	288.15
693.19	287.70
693.52	287.13
693.86	286.44
694.20	285.72
694.53	285.16
694.87	284.41
695.21	283.85
695.54	283.24
695.88	282.57
696.21	281.84
696.55	281.31
696.88	280.78
697.22	280.25
697.56	279.70
697.89	279.07
698.23	278.71
698.56	278.24
698.90	277.82
699.23	277.27
699.57	276.85
699.90	276.24
700.24	275.62
700.58	275.15
700.91	274.80
701.25	274.61
701.58	274.45
701.92	274.12
702.25	273.74
702.59	273.24
702.92	272.84
703.26	272.43
703.59	272.02
703.93	272.05
704.26	271.75
704.60	271.44
704.93	271.04
705.26	270.55
705.60	270.14
705.93	269.56
706.27	269.26
706.60	268.98
706.94	268.80
707.27	268.40
707.61	268.07
707.94	267.60
708.27	266.94
708.61	266.21
708.94	265.79
709.28	265.28
709.61	264.92
709.94	264.62
710.28	264.29
710.61	263.86
710.95	263.03
711.28	262.89
711.61	262.40
711.95	262.17
712.28	261.70
712.61	261.31
712.95	261.21
713.28	261.05
713.61	260.57
713.95	260.05
714.28	259.73
714.61	259.27
714.95	258.89
715.28	258.49
715.61	258.17
715.95	257.82
716.28	257.52
716.61	257.26
716.95	256.84
717.28	256.46
717.61	256.14
717.94	255.86
718.28	255.16
718.61	254.91
718.94	254.46
719.27	254.26
719.61	254.06
719.94	253.67
720.27	253.15
720.60	252.85
720.94	252.55
721.27	252.31
721.60	252.21
721.93	252.00
722.27	252.00
722.60	251.79
722.93	251.51
723.26	251.40
723.59	251.10
723.93	250.97
724.26	250.79
724.59	250.61
724.92	250.35
725.25	250.32
725.59	250.07
725.92	250.00
726.25	249.76
726.58	249.54
726.91	249.35
727.24	249.25
727.57	249.06
727.91	248.80
728.24	248.71
728.57	248.42
728.90	248.34
729.23	247.94
729.56	247.92
729.89	247.78
730.22	247.52
730.55	247.40
730.89	247.23
731.22	247.08
731.55	246.87
731.88	246.77
732.21	246.50
732.54	246.31
732.87	246.09
733.20	245.97
733.53	245.71
733.86	245.54
734.19	245.22
734.52	245.18
734.85	245.44
735.18	245.18
735.51	245.14
735.84	244.93
736.17	244.91
736.50	244.55
736.83	244.95
737.16	244.78
737.49	244.60
737.82	244.35
738.15	244.25
738.48	244.09
738.81	243.89
739.14	243.75
739.47	243.61
739.80	243.52
740.13	243.47
740.46	243.37
740.79	243.21
741.12	243.11
741.45	242.85
741.78	242.45
742.11	242.50
742.44	242.24
742.77	242.18
743.10	241.98
743.43	241.89
743.75	241.25
744.08	241.79
744.41	241.65
744.74	241.54
745.07	241.33
745.40	241.32
745.73	241.41
746.06	241.34
746.39	241.31
746.71	241.07
747.04	240.85
747.37	240.75
747.70	240.71
748.03	240.61
748.36	240.64
748.68	240.50
749.01	240.19
749.34	240.11
749.67	240.03
750.00	239.97
750.33	240.19
750.65	240.09
750.98	239.41
751.31	239.37
751.64	239.38
751.97	239.53
752.29	239.39
752.62	239.02
752.95	238.76
753.28	238.61
753.60	238.53
753.93	238.56
754.26	238.48
754.59	238.25
754.91	238.15
755.24	237.92
755.57	237.84
755.90	237.71
756.22	237.57
756.55	237.27
756.88	237.05
757.20	236.66
757.53	236.44
757.86	236.29
758.19	236.23
758.51	236.09
758.84	235.76
759.17	235.57
759.49	235.59
759.82	235.87
760.15	235.80
760.47	235.70
760.80	235.39
761.13	235.36
761.45	235.20
761.78	235.10
762.11	235.15
762.43	234.99
762.76	234.94
763.08	234.92
763.41	235.05
763.74	235.03
764.06	234.96
764.39	234.93
764.71	234.83
765.04	234.60
765.37	234.38
765.69	234.27
766.02	234.27
766.34	234.12
766.67	233.82
767.00	233.79
767.32	233.96
767.65	234.26
767.97	234.14
768.30	234.15
768.62	234.07
768.95	233.89
769.27	233.79
769.60	233.80
769.92	233.65
770.25	233.48
770.57	233.36
770.90	233.24
771.22	233.07
771.55	233.06
771.87	233.09
772.20	233.04
772.52	233.45
772.85	233.90
773.17	233.87
773.50	233.71
773.82	233.55
774.15	233.29
774.47	232.93
774.80	232.85
775.12	232.78
775.45	232.72
775.77	232.68
776.09	232.73
776.42	232.67
776.74	232.74
777.07	232.70
777.39	232.71
777.72	232.60
778.04	232.63
778.36	232.48
778.69	232.44
779.01	232.49
779.33	232.00
779.66	231.46
779.98	231.45
780.31	231.44
780.63	231.61
780.95	231.73
781.28	231.59
781.60	231.49
781.92	231.49
782.25	231.45
782.57	231.42
782.89	231.25
783.22	231.15
783.54	231.10
783.86	231.05
784.19	231.01
784.51	231.20
784.83	231.12
785.16	231.09
785.48	231.05
785.80	231.00
786.12	231.02
786.45	230.90
786.77	230.88
787.09	230.86
787.42	230.65
787.74	230.54
788.06	230.65
788.38	230.62
788.71	230.55
789.03	230.50
789.35	230.50
789.67	230.46
789.99	230.38
790.32	230.25
790.64	230.25
790.96	230.57
791.28	230.35
791.61	230.35
791.93	230.37
792.25	230.28
792.57	230.57
792.89	230.39
793.21	230.45
793.54	230.42
793.86	230.32
794.18	230.32
794.50	230.17
794.82	230.17
795.14	230.20
795.47	230.22
795.79	230.27
796.11	230.17
796.43	230.17
796.75	230.22
797.07	230.24
797.39	230.18
797.71	229.87
798.04	229.86
798.36	229.85
798.68	229.80
799.00	229.84
799.32	229.50
799.64	229.70
799.96	229.70
800.28	229.67
800.60	229.67
800.92	229.71
801.24	229.65
801.56	229.63
801.89	229.52
802.21	229.55
802.53	229.47
802.85	229.58
803.17	229.85
803.49	229.74
803.81	229.60
804.13	229.57
804.45	229.45
804.77	229.43
805.09	229.38
805.41	229.30
805.73	229.19
806.05	229.11
806.37	228.96
806.69	228.81
807.01	228.76
807.33	228.75
807.65	228.53
807.97	228.80
808.28	228.71
808.60	228.77
808.92	228.57
809.24	228.80
809.56	228.67
809.88	228.40
810.20	228.42
810.52	228.52
810.84	228.45
811.16	228.42
811.48	228.39
811.80	228.58
812.12	228.60
812.43	228.68
812.75	228.70
813.07	228.64
813.39	228.71
813.71	228.66
814.03	228.58
814.35	228.63
814.67	228.40
814.98	228.35
815.30	228.33
815.62	228.31
815.94	227.96
816.26	228.15
816.58	228.09
816.89	228.11
817.21	228.02
817.53	228.05
817.85	228.03
818.17	228.01
818.48	227.82
818.80	227.86
819.12	227.81
819.44	227.73
819.76	227.70
820.07	227.66
820.39	227.61
820.71	227.68
821.03	227.70
821.34	227.64
821.66	227.77
821.98	227.70
822.30	227.70
822.61	228.09
822.93	227.83
823.25	227.71
823.57	227.71
823.88	227.78
824.20	227.77
824.52	227.85
824.83	227.83
825.15	227.76
825.47	227.67
825.79	227.68
826.10	227.61
826.42	227.65
826.74	227.73
827.05	227.72
827.37	227.72
827.69	227.62
828.00	227.64
828.32	227.55
828.64	227.57
828.95	227.85
829.27	227.61
829.58	227.65
829.90	227.85
830.22	227.82
830.53	227.69
830.85	227.64
831.17	227.50
831.48	227.50
831.80	227.50
832.11	227.50
832.43	227.47
832.75	227.49
833.06	227.68
833.38	227.55
833.69	227.58
834.01	227.63
834.32	227.67
834.64	227.70
834.96	227.68
835.27	227.66
835.59	227.47
835.90	227.47
836.22	227.44
836.53	227.28
836.85	227.23
837.16	227.78
837.48	227.70
837.79	227.84
838.11	227.83
838.42	227.86
838.74	227.87
839.05	227.79
839.37	227.82
839.68	227.57
840.00	227.52
840.31	227.56
840.63	227.44
840.94	227.31
841.26	227.24
841.57	227.21
841.88	227.27
842.20	227.16
842.51	227.06
842.83	227.01
843.14	227.44
843.46	227.41
843.77	227.06
844.08	227.10
844.40	226.98
844.71	226.95
845.03	226.90
845.34	226.94
845.65	226.91
845.97	226.87
846.28	226.85
846.60	226.89
846.91	226.79
847.22	226.81
847.54	226.94
847.85	226.94
848.16	226.92
848.48	226.81
848.79	227.00
849.10	227.08
849.42	227.09
849.73	226.63
850.04	226.66
850.36	226.47
850.67	226.54
850.98	226.56
851.30	226.59
851.61	226.52
851.92	226.48
852.23	226.64
852.55	226.71
852.86	226.75
853.17	226.80
853.49	226.91
853.80	226.98
854.11	227.05
854.42	227.10
854.74	226.99
855.05	226.96
855.36	226.76
855.67	226.77
855.99	226.75
856.30	227.35
856.61	227.34
856.92	227.39
857.23	227.32
857.55	227.28
857.86	227.16
858.17	227.28
858.48	227.22
858.79	227.11
859.11	227.10
859.42	227.14
859.73	227.07
860.04	227.00
860.35	226.90
860.66	226.71
860.98	226.70
861.29	226.86
861.60	226.85
861.91	226.99
862.22	226.89
862.53	226.86
862.84	226.30
863.16	226.44
863.47	226.37
863.78	226.32
864.09	226.37
864.40	226.53
864.71	226.53
865.02	226.57
865.33	226.60
865.64	226.49
865.95	226.40
866.27	226.79
866.58	226.82
866.89	226.95
867.20	226.97
867.51	226.97
867.82	226.99
868.13	227.18
868.44	227.07
868.75	227.20
869.06	227.24
869.37	227.27
869.68	227.09
869.99	227.21
870.30	227.38
870.61	227.41
870.92	227.28
871.23	227.21
871.54	227.30
871.85	227.34
872.16	227.40
872.47	227.44
872.78	227.11
873.09	227.18
873.40	227.06
873.71	227.13
874.02	227.20
874.33	227.08
874.64	226.95
874.95	227.05
875.26	226.95
875.56	226.93
875.87	226.95
876.18	226.97
876.49	227.38
876.80	227.24
877.11	227.19
877.42	227.21
877.73	227.28
878.04	227.20
878.35	227.14
878.66	227.17
878.96	227.18
879.27	227.09
879.58	226.97
879.89	226.96
880.20	227.07
880.51	227.00
880.82	227.08
881.12	227.09
881.43	226.98
881.74	226.88
882.05	226.85
882.36	226.89
882.67	226.93
882.97	226.42
883.28	226.43
883.59	226.38
883.90	226.41
884.21	226.42
884.51	226.38
884.82	226.34
885.13	226.29
885.44	226.20
885.74	226.25
886.05	226.19
886.36	226.24
886.67	226.05
886.98	226.24
887.28	226.23
887.59	226.25
887.90	226.28
888.20	226.25
888.51	226.39
888.82	226.29
889.13	226.30
889.43	226.70
889.74	226.66
890.05	226.64
890.35	226.61
890.66	226.56
890.97	226.53
891.28	226.43
891.58	226.54
891.89	226.63
892.20	226.47
892.50	226.47
892.81	226.41
893.12	226.39
893.42	226.19
893.73	226.20
894.04	226.18
894.34	226.25
894.65	226.27
894.95	226.19
895.26	226.16
895.57	226.42
895.87	225.98
896.18	226.06
896.48	226.09
896.79	226.04
897.10	226.15
897.40	226.20
897.71	226.36
898.01	226.22
898.32	226.20
898.63	226.26
898.93	226.30
899.24	226.30
899.54	226.30
899.85	226.26
900.15	226.17
900.46	226.18
900.76	226.20
901.07	226.17
901.38	226.22
901.68	226.31
901.99	225.99
902.29	226.04
902.60	225.97
902.90	225.92
903.21	225.98
903.51	225.85
903.82	225.99
904.12	225.99
904.43	226.10
904.73	226.15
905.03	226.19
905.34	226.70
905.64	226.68
905.95	226.72
906.25	226.71
906.56	226.75
906.86	226.76
907.17	226.67
907.47	226.72
907.77	226.59
908.08	226.48
908.38	226.54
908.69	226.53
908.99	226.69
909.30	226.70
909.60	226.71
909.90	226.82
910.21	226.64
910.51	226.61
910.81	226.57
911.12	226.55
911.42	226.61
911.73	226.14
912.03	226.24
912.33	226.25
912.64	226.25
912.94	226.20
913.24	226.13
913.55	226.09
913.85	226.07
914.15	226.15
914.46	226.17
914.76	226.12
915.06	226.11
915.37	225.96
915.67	225.96
915.97	225.95
916.27	225.79
916.58	225.80
916.88	225.74
917.18	225.73
917.49	226.00
917.79	225.91
918.09	225.99
918.39	225.96
918.70	225.95
919.00	225.89
919.30	226.08
919.60	226.09
919.91	226.10
920.21	226.15
920.51	226.06
920.81	226.10
921.12	226.20
921.42	226.20
921.72	226.26
922.02	226.29
922.32	226.36
922.63	226.39
922.93	226.63
923.23	226.70
923.53	226.62
923.83	226.33
924.13	226.38
924.44	226.35
924.74	226.50
925.04	226.62
925.34	226.69
925.64	226.48
925.94	226.48
926.24	226.75
926.55	226.74
926.85	226.84
927.15	226.82
927.45	226.82
927.75	226.83
928.05	226.83
928.35	226.86
928.65	226.93
928.95	226.97
929.26	226.83
929.56	226.91
929.86	226.96
930.16	227.01
930.46	226.96
930.76	226.92
931.06	226.70
931.36	226.59
931.66	226.67
931.96	226.79
932.26	226.76
932.56	226.53
932.86	226.50
933.16	226.47
933.46	226.44
933.76	226.38
934.06	226.54
934.36	226.71
934.66	226.61
934.96	226.55
935.26	226.53
935.56	226.61
935.86	226.52
936.16	226.51
936.46	226.45
936.76	226.46
937.06	226.41
937.36	226.41
937.66	226.48
937.96	226.42
938.26	226.33
938.56	226.25
938.86	226.25
939.16	226.39
939.46	226.41
939.76	226.47
940.06	226.50
940.35	226.31
940.65	226.01
940.95	226.09
941.25	226.00
941.55	225.97
941.85	225.89
942.15	225.90
942.45	225.99
942.75	225.97
943.04	226.01
943.34	226.10
943.64	226.09
943.94	226.02
944.24	226.03
944.54	226.04
944.84	226.11
945.13	226.11
945.43	225.96
945.73	225.96
946.03	225.87
946.33	225.79
946.62	225.78
946.92	225.76
947.22	225.81
947.52	225.76
947.82	225.81
948.11	225.71
948.41	225.59
948.71	225.50
949.01	225.51
949.31	225.46
949.60	225.34
949.90	225.43
950.20	225.41
950.50	225.43
950.79	225.43
951.09	225.49
951.39	225.44
951.69	225.43
951.98	225.49
952.28	225.52
952.58	225.49
952.87	225.50
953.17	225.76
953.47	225.62
953.76	225.74
954.06	225.71
954.36	225.70
954.66	225.70
954.95	225.84
955.25	225.95
955.55	226.07
955.84	226.14
956.14	226.17
956.44	226.20
956.73	226.07
957.03	226.13
957.32	226.07
957.62	226.06
957.92	226.17
958.21	226.16
958.51	226.69
958.81	226.82
959.10	226.88
959.40	226.90
959.69	226.97
959.99	227.04
960.29	226.99
960.58	227.03
960.88	227.30
961.17	227.24
961.47	227.25
961.76	227.15
962.06	227.22
962.36	227.12
962.65	227.14
962.95	227.27
963.24	227.19
963.54	227.25
963.83	227.32
964.13	227.33
964.42	227.23
964.72	226.92
965.01	226.87
965.31	226.76
965.60	226.63
965.90	226.91
966.19	226.72
966.49	226.80
966.78	226.79
967.08	226.76
967.37	226.76
967.67	226.66
967.96	226.75
968.26	226.70
968.55	226.80
968.85	226.76
969.14	226.71
969.43	226.68
969.73	226.68
970.02	226.61
970.32	226.55
970.61	226.53
970.91	226.34
971.20	226.26
971.49	226.31
971.79	226.43
972.08	226.11
972.38	226.17
972.67	226.13
972.96	226.22
973.26	226.10
973.55	226.23
973.85	226.25
974.14	226.25
974.43	226.24
974.73	226.17
975.02	226.16
975.31	226.10
975.61	226.09
975.90	225.98
976.19	225.97
976.49	225.94
976.78	225.90
977.07	225.94
977.37	226.01
977.66	226.04
977.95	225.86
978.24	225.91
978.54	226.02
978.83	226.00
979.12	225.92
979.42	225.92
979.71	225.79
980.00	225.73
980.29	225.67
980.59	225.61
980.88	225.71
981.17	225.67
981.46	225.69
981.76	225.68
982.05	225.86
982.34	225.92
982.63	225.94
982.93	225.97
983.22	226.08
983.51	226.09
983.80	226.17
984.09	226.20
984.39	226.20
984.68	226.15
984.97	226.14
985.26	226.08
985.55	226.10
985.85	226.02
986.14	226.07
986.43	226.17
986.72	226.15
987.01	225.96
987.30	225.90
987.59	225.86
987.89	225.91
988.18	225.82
988.47	225.72
988.76	225.74
989.05	225.71
989.34	225.65
989.63	225.75
989.92	225.65
990.22	225.63
990.51	225.54
990.80	225.42
991.09	225.52
991.38	225.60
991.67	225.47
991.96	225.50
992.25	225.57
992.54	225.40
992.83	225.40
993.12	225.40
993.41	225.50
993.70	225.70
993.99	225.76
994.28	225.80
994.58	225.89
994.87	225.84
995.16	225.84
995.45	225.75
995.74	225.60
996.03	225.66
996.32	225.70
996.61	225.79
996.90	225.85
997.19	225.76
997.48	225.75
997.77	225.75
998.06	225.73
998.34	225.66
998.63	225.71
998.92	225.75
999.21	225.81
999.50	225.87
999.79	225.78
1000.08	225.77
1000.37	225.73
1000.66	225.70
1000.95	225.83
1001.24	225.86
1001.53	225.96
1001.82	225.85
1002.11	225.75
1002.40	225.85
1002.68	226.04
1002.97	226.35
1003.26	226.28
1003.55	226.28
1003.84	226.38
1004.13	226.57
1004.42	226.54
1004.71	226.52
1004.99	226.49
1005.28	226.65
1005.57	226.56
1005.86	226.51
1006.15	226.42
1006.44	226.37
1006.72	226.43
1007.01	226.33
1007.30	226.32
1007.59	226.25
1007.88	226.37
1008.17	226.37
1008.45	226.23
1008.74	226.04
1009.03	225.79
1009.32	225.83
1009.60	225.74
1009.89	225.65
1010.18	225.43
1010.47	225.40
1010.76	225.39
1011.04	225.38
1011.33	225.40
1011.62	225.51
1011.91	225.54
1012.19	225.65
1012.48	225.75
1012.77	225.68
1013.05	225.89
1013.34	225.88
1013.63	225.84
1013.92	225.81
1014.20	225.81
1014.49	225.80
1014.78	225.80
1015.06	225.77
1015.35	225.80
1015.64	225.92
1015.92	226.02
1016.21	226.03
1016.50	226.04
1016.78	226.11
1017.07	226.22
1017.36	226.09
1017.64	226.00
1017.93	226.03
1018.22	225.94
1018.50	225.84
1018.79	225.86
1019.08	225.60
1019.36	225.63
1019.65	225.56
1019.93	225.70
1020.22	225.73
1020.51	226.05
1020.79	225.98
1021.08	225.00
1021.36	224.70
1021.65	225.80
1021.94	224.30
1022.22	225.85
1022.51	223.65
1022.79	227.85
1023.08	225.35
1023.36	232.15
1023.65	224.10
>>>>>End Processed Spectral Data<<<<<
