SpectraSuite Data File
++++++++++++++++++++++++++++++++++++
Date: Wed Sep 04 17:50:08 EDT 2013
User: lab3
Dark Spectrum Present: Yes
Reference Spectrum Present: No
Number of Sampled Component Spectra: 1
Spectrometers: USB2E7196
Integration Time (usec): 170000 (USB2E7196)
Spectra Averaged: 20 (USB2E7196)
Boxcar Smoothing: 10 (USB2E7196)
Correct for Electrical Dark: No (USB2E7196)
Strobe/Lamp Enabled: No (USB2E7196)
Correct for Detector Non-linearity: No (USB2E7196)
Correct for Stray Light: No (USB2E7196)
Number of Pixels in Processed Spectrum: 2048
>>>>>Begin Processed Spectral Data<<<<<
339.09	0.00
339.48	213.70
339.86	214.00
340.24	216.25
340.63	217.65
341.01	225.75
341.39	220.45
341.78	222.00
342.16	223.30
342.54	223.05
342.93	212.19
343.31	222.90
343.69	223.39
344.07	223.85
344.46	224.36
344.84	224.76
345.22	224.75
345.60	224.96
345.99	225.13
346.37	225.23
346.75	225.33
347.13	225.32
347.52	225.44
347.90	225.64
348.28	225.67
348.66	225.79
349.05	225.73
349.43	225.86
349.81	225.98
350.19	226.05
350.57	226.06
350.96	226.12
351.34	226.20
351.72	226.28
352.10	226.45
352.48	226.38
352.87	226.41
353.25	226.46
353.63	226.52
354.01	226.53
354.39	226.69
354.77	226.80
355.15	226.97
355.54	226.91
355.92	226.78
356.30	226.89
356.68	227.22
357.06	227.30
357.44	227.24
357.82	227.31
358.20	227.70
358.58	227.78
358.97	227.86
359.35	228.04
359.73	228.24
360.11	228.28
360.49	228.42
360.87	228.44
361.25	228.52
361.63	228.72
362.01	228.83
362.39	228.72
362.77	228.82
363.15	228.89
363.53	228.94
363.91	229.08
364.29	229.08
364.67	228.72
365.05	228.78
365.43	228.88
365.81	229.00
366.19	228.88
366.57	229.10
366.95	229.13
367.33	228.98
367.71	228.96
368.09	229.04
368.47	229.04
368.85	229.04
369.23	229.19
369.61	229.05
369.99	229.25
370.37	229.34
370.75	229.49
371.13	229.43
371.51	229.38
371.89	229.39
372.27	229.37
372.65	229.36
373.03	229.37
373.41	229.34
373.78	229.22
374.16	228.99
374.54	228.76
374.92	228.64
375.30	228.60
375.68	228.40
376.06	228.32
376.44	228.22
376.82	228.26
377.19	228.14
377.57	227.98
377.95	227.73
378.33	227.58
378.71	227.20
379.09	227.19
379.47	227.15
379.84	227.02
380.22	227.00
380.60	226.81
380.98	226.68
381.36	226.60
381.73	226.50
382.11	226.48
382.49	226.40
382.87	226.24
383.25	226.17
383.62	226.73
384.00	226.62
384.38	226.52
384.76	226.51
385.13	226.56
385.51	226.59
385.89	226.46
386.27	226.48
386.64	226.60
387.02	226.46
387.40	226.34
387.78	226.32
388.15	226.25
388.53	226.26
388.91	226.18
389.29	226.01
389.66	225.98
390.04	225.89
390.42	226.00
390.79	226.05
391.17	226.09
391.55	225.49
391.92	225.39
392.30	225.48
392.68	225.33
393.05	225.31
393.43	225.31
393.81	225.41
394.18	225.31
394.56	225.22
394.94	225.32
395.31	225.34
395.69	225.45
396.06	225.58
396.44	225.59
396.82	225.62
397.19	225.98
397.57	226.00
397.95	226.12
398.32	226.01
398.70	226.08
399.07	226.18
399.45	226.28
399.82	226.39
400.20	226.44
400.58	226.50
400.95	226.38
401.33	226.58
401.70	227.00
402.08	227.16
402.45	227.35
402.83	227.63
403.20	227.81
403.58	227.94
403.95	228.09
404.33	228.41
404.71	228.62
405.08	229.04
405.46	229.34
405.83	229.58
406.21	229.90
406.58	230.18
406.96	230.43
407.33	230.81
407.70	231.22
408.08	231.99
408.45	232.57
408.83	233.06
409.20	233.54
409.58	233.66
409.95	234.30
410.33	234.84
410.70	235.21
411.08	235.83
411.45	236.53
411.82	237.15
412.20	237.87
412.57	238.88
412.95	239.25
413.32	240.11
413.69	240.95
414.07	241.87
414.44	242.90
414.82	243.96
415.19	245.09
415.56	246.28
415.94	247.32
416.31	248.73
416.68	250.15
417.06	251.67
417.43	253.32
417.81	255.01
418.18	256.87
418.55	258.83
418.93	260.84
419.30	262.91
419.67	265.18
420.04	267.48
420.42	269.78
420.79	272.83
421.16	275.52
421.54	278.56
421.91	281.54
422.28	284.60
422.66	287.93
423.03	291.36
423.40	294.70
423.77	298.22
424.15	301.68
424.52	305.50
424.89	309.69
425.26	313.59
425.64	317.34
426.01	321.41
426.38	325.68
426.75	330.21
427.13	334.67
427.50	339.40
427.87	344.21
428.24	349.07
428.61	353.52
428.99	358.80
429.36	364.20
429.73	369.71
430.10	375.25
430.47	380.87
430.85	386.40
431.22	392.64
431.59	399.29
431.96	405.61
432.33	412.50
432.70	419.07
433.08	426.87
433.45	434.28
433.82	441.66
434.19	449.96
434.56	458.11
434.93	465.86
435.30	473.60
435.68	482.20
436.05	490.58
436.42	498.83
436.79	506.52
437.16	514.76
437.53	523.45
437.90	532.18
438.27	540.68
438.64	549.59
439.01	557.71
439.38	564.82
439.75	571.81
440.13	579.82
440.50	587.30
440.87	593.40
441.24	599.84
441.61	606.75
441.98	611.72
442.35	617.39
442.72	623.39
443.09	629.16
443.46	632.48
443.83	634.80
444.20	636.78
444.57	639.47
444.94	640.67
445.31	641.82
445.68	643.01
446.05	643.17
446.42	641.87
446.79	640.46
447.16	638.96
447.53	637.81
447.90	633.99
448.27	630.30
448.64	625.50
449.01	621.83
449.37	615.83
449.74	609.84
450.11	602.95
450.48	595.30
450.85	587.29
451.22	580.57
451.59	573.99
451.96	567.84
452.33	559.81
452.70	552.40
453.07	543.65
453.43	534.60
453.80	526.26
454.17	518.30
454.54	510.59
454.91	502.47
455.28	494.50
455.65	487.19
456.02	480.38
456.38	473.98
456.75	466.18
457.12	459.54
457.49	453.20
457.86	446.90
458.23	441.71
458.59	436.10
458.96	430.26
459.33	425.11
459.70	420.00
460.07	415.93
460.43	411.33
460.80	407.16
461.17	403.35
461.54	399.40
461.91	395.65
462.27	391.91
462.64	388.57
463.01	385.06
463.38	381.79
463.74	377.83
464.11	374.83
464.48	372.19
464.85	369.41
465.21	367.27
465.58	365.02
465.95	362.19
466.32	359.84
466.68	357.63
467.05	355.42
467.42	353.11
467.78	350.68
468.15	348.48
468.52	346.98
468.88	344.78
469.25	342.96
469.62	341.40
469.98	339.76
470.35	338.23
470.72	336.73
471.08	335.06
471.45	333.88
471.82	332.65
472.18	331.20
472.55	330.15
472.92	328.83
473.28	327.65
473.65	326.45
474.02	325.50
474.38	324.65
474.75	323.96
475.11	323.17
475.48	322.61
475.85	322.12
476.21	321.22
476.58	320.85
476.94	320.45
477.31	320.00
477.67	319.55
478.04	319.27
478.41	319.05
478.77	319.29
479.14	318.93
479.50	318.90
479.87	318.93
480.23	318.97
480.60	319.04
480.96	319.14
481.33	319.57
481.69	319.73
482.06	320.01
482.42	320.37
482.79	320.77
483.15	321.18
483.52	321.74
483.88	322.36
484.25	322.85
484.61	323.47
484.98	324.08
485.34	325.07
485.71	325.96
486.07	327.02
486.44	327.70
486.80	328.78
487.17	329.83
487.53	331.24
487.90	332.59
488.26	334.25
488.62	335.85
488.99	337.31
489.35	339.07
489.72	340.96
490.08	342.85
490.44	344.84
490.81	347.07
491.17	349.25
491.54	351.75
491.90	354.35
492.26	356.98
492.63	359.92
492.99	362.78
493.36	365.91
493.72	369.24
494.08	372.59
494.45	376.31
494.81	380.27
495.17	384.16
495.54	388.34
495.90	392.46
496.26	396.97
496.63	401.69
496.99	406.46
497.35	411.47
497.72	416.75
498.08	422.34
498.44	428.09
498.80	434.12
499.17	440.20
499.53	446.44
499.89	453.13
500.26	459.90
500.62	466.94
500.98	474.33
501.34	481.70
501.71	489.45
502.07	497.36
502.43	505.38
502.79	513.76
503.16	522.41
503.52	531.59
503.88	540.75
504.24	550.41
504.60	560.42
504.97	570.66
505.33	580.94
505.69	591.88
506.05	602.84
506.41	614.00
506.78	625.50
507.14	637.59
507.50	649.78
507.86	662.34
508.22	675.18
508.59	688.05
508.95	701.74
509.31	715.76
509.67	729.85
510.03	744.02
510.39	758.44
510.75	773.43
511.12	788.60
511.48	804.16
511.84	819.83
512.20	835.62
512.56	851.91
512.92	868.79
513.28	885.26
513.64	902.21
514.00	919.57
514.37	937.23
514.73	955.30
515.09	973.63
515.45	991.91
515.81	1010.19
516.17	1029.14
516.53	1047.62
516.89	1066.25
517.25	1085.45
517.61	1105.61
517.97	1125.97
518.33	1145.74
518.69	1165.67
519.05	1186.20
519.41	1206.68
519.77	1227.60
520.13	1248.24
520.49	1268.68
520.85	1291.26
521.21	1312.32
521.57	1333.47
521.93	1354.03
522.29	1375.11
522.65	1395.50
523.01	1416.37
523.37	1437.09
523.73	1457.94
524.09	1478.53
524.45	1499.06
524.81	1519.73
525.17	1540.28
525.53	1560.99
525.89	1581.94
526.25	1602.61
526.61	1622.69
526.97	1643.70
527.33	1664.70
527.68	1686.14
528.04	1707.22
528.40	1726.64
528.76	1747.46
529.12	1767.88
529.48	1788.85
529.84	1808.76
530.20	1829.67
530.56	1850.10
530.91	1870.83
531.27	1890.85
531.63	1911.05
531.99	1931.17
532.35	1951.20
532.71	1971.01
533.07	1991.09
533.42	2010.75
533.78	2030.73
534.14	2050.64
534.50	2069.22
534.86	2088.22
535.21	2105.68
535.57	2123.91
535.93	2141.22
536.29	2158.96
536.65	2176.98
537.00	2194.51
537.36	2211.86
537.72	2228.04
538.08	2244.93
538.44	2261.13
538.79	2277.24
539.15	2293.74
539.51	2309.57
539.87	2324.71
540.22	2338.51
540.58	2352.61
540.94	2365.43
541.29	2377.63
541.65	2390.02
542.01	2402.34
542.37	2412.48
542.72	2423.23
543.08	2433.56
543.44	2444.97
543.79	2454.55
544.15	2463.92
544.51	2473.22
544.87	2482.31
545.22	2491.09
545.58	2499.04
545.94	2505.87
546.29	2512.40
546.65	2518.00
547.01	2523.41
547.36	2528.55
547.72	2533.99
548.07	2537.63
548.43	2543.03
548.79	2547.46
549.14	2551.22
549.50	2555.05
549.86	2559.06
550.21	2562.79
550.57	2566.11
550.92	2567.38
551.28	2568.56
551.64	2571.05
551.99	2572.72
552.35	2574.34
552.70	2576.24
553.06	2577.56
553.41	2578.66
553.77	2580.27
554.13	2581.77
554.48	2583.35
554.84	2584.48
555.19	2585.50
555.55	2587.35
555.90	2586.33
556.26	2585.25
556.61	2583.53
556.97	2581.20
557.32	2580.39
557.68	2578.83
558.03	2577.21
558.39	2575.50
558.74	2574.73
559.10	2571.37
559.45	2567.61
559.81	2562.98
560.16	2557.41
560.52	2552.23
560.87	2548.07
561.23	2542.14
561.58	2536.65
561.94	2529.72
562.29	2522.28
562.64	2515.50
563.00	2506.99
563.35	2500.32
563.71	2494.00
564.06	2487.71
564.42	2481.32
564.77	2474.37
565.12	2466.87
565.48	2459.20
565.83	2451.52
566.19	2443.19
566.54	2434.97
566.89	2427.54
567.25	2420.13
567.60	2413.30
567.96	2406.02
568.31	2397.99
568.66	2389.66
569.02	2380.51
569.37	2372.61
569.72	2365.19
570.08	2355.86
570.43	2346.39
570.78	2337.82
571.14	2328.39
571.49	2318.19
571.84	2308.82
572.20	2298.12
572.55	2288.16
572.90	2277.12
573.26	2266.69
573.61	2255.97
573.96	2244.97
574.31	2232.87
574.67	2220.91
575.02	2208.30
575.37	2195.67
575.72	2182.35
576.08	2170.61
576.43	2157.86
576.78	2144.81
577.13	2131.25
577.49	2118.66
577.84	2107.20
578.19	2094.83
578.54	2082.10
578.90	2070.38
579.25	2057.68
579.60	2045.15
579.95	2032.45
580.30	2019.58
580.66	2006.47
581.01	1992.99
581.36	1979.46
581.71	1967.00
582.06	1954.28
582.42	1942.03
582.77	1929.54
583.12	1917.82
583.47	1905.62
583.82	1894.02
584.17	1881.63
584.53	1869.99
584.88	1856.85
585.23	1843.36
585.58	1829.15
585.93	1816.13
586.28	1802.74
586.63	1789.03
586.98	1775.23
587.34	1761.93
587.69	1748.78
588.04	1736.11
588.39	1724.18
588.74	1711.76
589.09	1699.81
589.44	1687.32
589.79	1675.00
590.14	1662.93
590.49	1650.94
590.84	1638.63
591.19	1626.70
591.54	1614.91
591.89	1602.70
592.25	1592.79
592.60	1581.88
592.95	1570.95
593.30	1559.17
593.65	1547.52
594.00	1535.69
594.35	1525.99
594.70	1514.46
595.05	1503.35
595.40	1491.70
595.75	1480.18
596.10	1469.22
596.45	1457.78
596.80	1446.65
597.15	1435.43
597.50	1423.87
597.85	1412.61
598.19	1401.21
598.54	1389.66
598.89	1378.55
599.24	1368.00
599.59	1356.60
599.94	1345.47
600.29	1335.32
600.64	1325.28
600.99	1314.49
601.34	1305.10
601.69	1293.95
602.04	1284.28
602.39	1274.90
602.74	1265.68
603.08	1256.02
603.43	1247.04
603.78	1237.33
604.13	1227.96
604.48	1218.49
604.83	1208.94
605.18	1199.43
605.53	1189.97
605.87	1181.07
606.22	1172.59
606.57	1163.50
606.92	1154.16
607.27	1145.44
607.62	1136.60
607.96	1128.07
608.31	1120.36
608.66	1112.07
609.01	1103.59
609.36	1094.97
609.70	1086.39
610.05	1077.90
610.40	1069.71
610.75	1060.93
611.10	1052.90
611.44	1044.42
611.79	1036.20
612.14	1028.37
612.49	1020.63
612.83	1013.37
613.18	1005.62
613.53	997.93
613.88	990.39
614.22	982.79
614.57	974.94
614.92	966.96
615.27	959.52
615.61	951.98
615.96	944.40
616.31	937.02
616.65	930.21
617.00	922.96
617.35	915.90
617.70	908.86
618.04	901.79
618.39	894.79
618.74	888.56
619.08	881.67
619.43	874.73
619.78	867.81
620.12	860.50
620.47	853.72
620.82	846.62
621.16	839.69
621.51	833.34
621.85	827.15
622.20	820.77
622.55	814.26
622.89	808.03
623.24	801.82
623.59	795.52
623.93	789.16
624.28	783.07
624.62	777.48
624.97	771.77
625.32	766.25
625.66	760.39
626.01	754.47
626.35	749.09
626.70	743.85
627.04	738.68
627.39	733.30
627.73	728.08
628.08	723.11
628.43	717.82
628.77	712.50
629.12	707.41
629.46	702.84
629.81	698.20
630.15	693.26
630.50	688.40
630.84	683.69
631.19	678.84
631.53	674.50
631.88	669.27
632.22	664.39
632.57	659.93
632.91	655.42
633.26	651.05
633.60	646.50
633.95	641.83
634.29	636.96
634.64	632.80
634.98	627.98
635.32	623.57
635.67	619.66
636.01	615.56
636.36	611.23
636.70	607.00
637.05	602.76
637.39	598.75
637.73	594.72
638.08	590.91
638.42	586.82
638.77	582.38
639.11	578.18
639.45	573.85
639.80	569.38
640.14	565.29
640.49	561.27
640.83	557.50
641.17	553.86
641.52	550.25
641.86	546.67
642.20	543.61
642.55	540.00
642.89	536.36
643.23	532.77
643.58	529.86
643.92	526.16
644.26	522.82
644.61	519.58
644.95	516.28
645.29	512.69
645.64	509.67
645.98	506.67
646.32	503.85
646.66	500.86
647.01	498.15
647.35	495.34
647.69	492.43
648.04	489.63
648.38	486.97
648.72	484.24
649.06	481.23
649.41	478.22
649.75	475.41
650.09	472.63
650.43	469.95
650.78	466.89
651.12	464.42
651.46	461.69
651.80	458.90
652.14	456.36
652.49	453.95
652.83	451.27
653.17	448.69
653.51	446.06
653.85	443.78
654.20	441.22
654.54	438.78
654.88	436.25
655.22	433.94
655.56	431.34
655.90	429.00
656.25	426.80
656.59	424.57
656.93	422.47
657.27	420.33
657.61	417.82
657.95	415.60
658.29	413.21
658.64	411.10
658.98	409.03
659.32	406.75
659.66	404.72
660.00	402.74
660.34	400.70
660.68	398.67
661.02	396.66
661.36	394.69
661.70	392.76
662.05	390.92
662.39	389.03
662.73	387.42
663.07	385.87
663.41	383.96
663.75	382.04
664.09	380.11
664.43	378.15
664.77	376.65
665.11	374.95
665.45	373.34
665.79	371.75
666.13	369.95
666.47	368.30
666.81	366.70
667.15	365.00
667.49	363.53
667.83	362.33
668.17	360.83
668.51	359.43
668.85	358.05
669.19	356.95
669.53	355.39
669.87	353.82
670.21	352.30
670.55	351.08
670.89	350.07
671.23	348.69
671.57	347.51
671.91	346.25
672.25	344.94
672.58	343.80
672.92	342.38
673.26	341.18
673.60	340.03
673.94	338.73
674.28	337.73
674.62	336.64
674.96	335.18
675.30	333.94
675.64	332.84
675.97	331.64
676.31	330.16
676.65	329.06
676.99	328.20
677.33	326.97
677.67	325.84
678.01	324.49
678.34	323.50
678.68	322.49
679.02	321.32
679.36	320.31
679.70	319.31
680.04	318.40
680.37	317.51
680.71	316.45
681.05	315.59
681.39	314.54
681.73	313.47
682.06	312.66
682.40	311.84
682.74	310.90
683.08	310.10
683.42	309.25
683.75	308.53
684.09	307.40
684.43	306.56
684.77	305.75
685.10	305.02
685.44	304.24
685.78	303.40
686.12	302.71
686.45	301.88
686.79	301.02
687.13	300.33
687.46	299.49
687.80	298.86
688.14	298.10
688.48	297.35
688.81	296.65
689.15	296.00
689.49	295.24
689.82	294.57
690.16	293.70
690.50	293.06
690.83	292.21
691.17	291.45
691.51	290.80
691.84	290.12
692.18	289.37
692.52	288.63
692.85	287.98
693.19	287.53
693.52	287.00
693.86	286.26
694.20	285.52
694.53	284.84
694.87	284.16
695.21	283.44
695.54	282.92
695.88	282.28
696.21	281.42
696.55	280.82
696.88	280.13
697.22	279.52
697.56	278.95
697.89	278.36
698.23	277.92
698.56	277.38
698.90	276.92
699.23	276.36
699.57	275.93
699.90	275.35
700.24	274.66
700.58	274.14
700.91	273.86
701.25	273.75
701.58	273.69
701.92	273.35
702.25	272.92
702.59	272.38
702.92	271.96
703.26	271.70
703.59	271.25
703.93	271.28
704.26	270.89
704.60	270.54
704.93	270.08
705.26	269.59
705.60	269.24
705.93	268.64
706.27	268.35
706.60	268.07
706.94	267.92
707.27	267.56
707.61	267.21
707.94	266.82
708.27	266.17
708.61	265.42
708.94	265.04
709.28	264.71
709.61	264.33
709.94	264.03
710.28	263.63
710.61	263.26
710.95	262.46
711.28	262.53
711.61	262.09
711.95	261.93
712.28	261.52
712.61	261.25
712.95	261.23
713.28	261.10
713.61	260.66
713.95	260.19
714.28	259.79
714.61	259.45
714.95	259.08
715.28	258.63
715.61	258.36
715.95	258.07
716.28	257.67
716.61	257.52
716.95	257.15
717.28	256.86
717.61	256.60
717.94	256.36
718.28	255.66
718.61	255.28
718.94	254.90
719.27	254.71
719.61	254.41
719.94	254.05
720.27	253.57
720.60	253.30
720.94	253.04
721.27	252.88
721.60	252.71
721.93	252.44
722.27	252.46
722.60	252.32
722.93	251.94
723.26	251.80
723.59	251.44
723.93	251.32
724.26	251.17
724.59	250.99
724.92	250.76
725.25	250.75
725.59	250.63
725.92	250.50
726.25	250.30
726.58	250.09
726.91	249.84
727.24	249.74
727.57	249.60
727.91	249.32
728.24	249.19
728.57	248.96
728.90	248.85
729.23	248.53
729.56	248.48
729.89	248.40
730.22	248.19
730.55	248.03
730.89	247.80
731.22	247.58
731.55	247.41
731.88	247.33
732.21	247.02
732.54	246.77
732.87	246.57
733.20	246.44
733.53	246.29
733.86	246.14
734.19	245.84
734.52	245.69
734.85	245.88
735.18	245.65
735.51	245.61
735.84	245.44
736.17	245.40
736.50	245.09
736.83	245.46
737.16	245.27
737.49	245.22
737.82	245.00
738.15	244.89
738.48	244.68
738.81	244.50
739.14	244.32
739.47	244.20
739.80	244.02
740.13	243.89
740.46	243.64
740.79	243.39
741.12	243.32
741.45	243.10
741.78	242.66
742.11	242.60
742.44	242.30
742.77	242.22
743.10	241.92
743.43	241.63
743.75	240.97
744.08	241.50
744.41	241.27
744.74	241.14
745.07	240.85
745.40	240.80
745.73	240.84
746.06	240.66
746.39	240.62
746.71	240.46
747.04	240.26
747.37	240.11
747.70	240.12
748.03	239.93
748.36	239.85
748.68	239.67
749.01	239.43
749.34	239.35
749.67	239.24
750.00	239.28
750.33	239.58
750.65	239.50
750.98	238.80
751.31	238.66
751.64	238.50
751.97	238.77
752.29	238.62
752.62	238.19
752.95	238.10
753.28	237.92
753.60	237.80
753.93	237.83
754.26	237.77
754.59	237.49
754.91	237.35
755.24	237.19
755.57	237.17
755.90	237.07
756.22	236.92
756.55	236.70
756.88	236.42
757.20	235.98
757.53	235.75
757.86	235.61
758.19	235.61
758.51	235.61
758.84	235.21
759.17	235.16
759.49	235.21
759.82	235.42
760.15	235.36
760.47	235.25
760.80	235.01
761.13	235.03
761.45	234.97
761.78	234.90
762.11	234.87
762.43	234.71
762.76	234.57
763.08	234.54
763.41	234.53
763.74	234.45
764.06	234.45
764.39	234.36
764.71	234.27
765.04	234.11
765.37	234.01
765.69	233.90
766.02	233.76
766.34	233.57
766.67	233.26
767.00	233.27
767.32	233.43
767.65	233.71
767.97	233.63
768.30	233.61
768.62	233.61
768.95	233.48
769.27	233.47
769.60	233.49
769.92	233.42
770.25	233.30
770.57	233.19
770.90	233.10
771.22	233.03
771.55	233.01
771.87	232.95
772.20	232.84
772.52	233.23
772.85	233.69
773.17	233.70
773.50	233.66
773.82	233.58
774.15	233.30
774.47	232.90
774.80	232.69
775.12	232.60
775.45	232.44
775.77	232.39
776.09	232.34
776.42	232.32
776.74	232.33
777.07	232.21
777.39	232.21
777.72	232.12
778.04	232.08
778.36	231.87
778.69	231.93
779.01	231.85
779.33	231.35
779.66	230.74
779.98	230.64
780.31	230.60
780.63	230.75
780.95	230.83
781.28	230.78
781.60	230.70
781.92	230.66
782.25	230.65
782.57	230.65
782.89	230.61
783.22	230.52
783.54	230.40
783.86	230.39
784.19	230.35
784.51	230.43
784.83	230.34
785.16	230.36
785.48	230.26
785.80	230.23
786.12	230.19
786.45	230.17
786.77	230.16
787.09	230.06
787.42	229.78
787.74	229.72
788.06	229.71
788.38	229.72
788.71	229.64
789.03	229.62
789.35	229.58
789.67	229.49
789.99	229.54
790.32	229.46
790.64	229.46
790.96	229.76
791.28	229.59
791.61	229.63
791.93	229.62
792.25	229.55
792.57	229.94
792.89	229.90
793.21	229.91
793.54	229.80
793.86	229.79
794.18	229.80
794.50	229.67
794.82	229.66
795.14	229.67
795.47	229.69
795.79	229.72
796.11	229.66
796.43	229.61
796.75	229.50
797.07	229.51
797.39	229.41
797.71	229.13
798.04	229.16
798.36	229.16
798.68	229.19
799.00	229.24
799.32	228.94
799.64	229.02
799.96	229.03
800.28	229.23
800.60	229.20
800.92	229.25
801.24	229.25
801.56	229.28
801.89	229.27
802.21	229.35
802.53	229.25
802.85	229.30
803.17	229.55
803.49	229.48
803.81	229.43
804.13	229.44
804.45	229.36
804.77	229.36
805.09	229.37
805.41	229.36
805.73	229.23
806.05	229.12
806.37	229.08
806.69	229.02
807.01	228.82
807.33	228.78
807.65	228.63
807.97	228.93
808.28	228.88
808.60	228.96
808.92	228.87
809.24	229.15
809.56	229.05
809.88	228.89
810.20	228.92
810.52	228.97
810.84	228.90
811.16	228.82
811.48	228.75
811.80	228.89
812.12	228.80
812.43	228.92
812.75	228.97
813.07	228.86
813.39	228.94
813.71	229.03
814.03	228.97
814.35	228.97
814.67	228.67
814.98	228.62
815.30	228.47
815.62	228.38
815.94	227.98
816.26	228.19
816.58	228.01
816.89	227.97
817.21	227.86
817.53	227.92
817.85	227.91
818.17	227.85
818.48	227.68
818.80	227.78
819.12	227.65
819.44	227.59
819.76	227.55
820.07	227.44
820.39	227.32
820.71	227.41
821.03	227.37
821.34	227.37
821.66	227.31
821.98	227.36
822.30	227.35
822.61	227.70
822.93	227.40
823.25	227.43
823.57	227.42
823.88	227.50
824.20	227.48
824.52	227.53
824.83	227.61
825.15	227.53
825.47	227.52
825.79	227.56
826.10	227.50
826.42	227.55
826.74	227.60
827.05	227.56
827.37	227.59
827.69	227.53
828.00	227.50
828.32	227.55
828.64	227.48
828.95	227.74
829.27	227.51
829.58	227.51
829.90	227.60
830.22	227.62
830.53	227.53
830.85	227.49
831.17	227.40
831.48	227.34
831.80	227.32
832.11	227.23
832.43	227.10
832.75	227.09
833.06	227.33
833.38	227.14
833.69	227.18
834.01	227.12
834.32	227.13
834.64	227.09
834.96	227.12
835.27	227.01
835.59	226.87
835.90	226.88
836.22	226.96
836.53	226.85
836.85	226.75
837.16	227.22
837.48	227.19
837.79	227.37
838.11	227.43
838.42	227.42
838.74	227.56
839.05	227.55
839.37	227.53
839.68	227.29
840.00	227.31
840.31	227.37
840.63	227.34
840.94	227.33
841.26	227.33
841.57	227.30
841.88	227.46
842.20	227.35
842.51	227.24
842.83	227.17
843.14	227.62
843.46	227.69
843.77	227.35
844.08	227.31
844.40	227.09
844.71	227.01
845.03	226.94
845.34	226.81
845.65	226.88
845.97	226.92
846.28	226.91
846.60	226.96
846.91	226.91
847.22	226.90
847.54	226.96
847.85	226.90
848.16	226.88
848.48	226.81
848.79	226.99
849.10	227.10
849.42	227.18
849.73	226.81
850.04	226.85
850.36	226.73
850.67	226.89
850.98	226.93
851.30	226.97
851.61	227.00
851.92	227.03
852.23	227.15
852.55	227.22
852.86	227.27
853.17	227.29
853.49	227.37
853.80	227.49
854.11	227.55
854.42	227.65
854.74	227.61
855.05	227.63
855.36	227.34
855.67	227.32
855.99	227.37
856.30	227.83
856.61	227.78
856.92	227.81
857.23	227.81
857.55	227.76
857.86	227.72
858.17	227.83
858.48	227.79
858.79	227.68
859.11	227.61
859.42	227.58
859.73	227.55
860.04	227.54
860.35	227.34
860.66	227.23
860.98	227.25
861.29	227.34
861.60	227.29
861.91	227.44
862.22	227.41
862.53	227.30
862.84	226.76
863.16	226.90
863.47	226.83
863.78	226.74
864.09	226.79
864.40	226.86
864.71	226.77
865.02	226.84
865.33	226.75
865.64	226.72
865.95	226.67
866.27	226.95
866.58	226.91
866.89	226.99
867.20	226.95
867.51	226.82
867.82	226.77
868.13	226.90
868.44	226.84
868.75	226.89
869.06	226.93
869.37	226.99
869.68	226.78
869.99	226.83
870.30	226.87
870.61	226.92
870.92	226.82
871.23	226.86
871.54	226.88
871.85	227.03
872.16	227.03
872.47	227.06
872.78	226.78
873.09	226.80
873.40	226.75
873.71	226.83
874.02	226.90
874.33	226.91
874.64	226.77
874.95	226.89
875.26	226.75
875.56	226.67
875.87	226.62
876.18	226.62
876.49	227.13
876.80	227.05
877.11	226.96
877.42	227.01
877.73	227.05
878.04	226.99
878.35	227.03
878.66	227.11
878.96	227.07
879.27	227.06
879.58	227.06
879.89	227.10
880.20	227.22
880.51	227.16
880.82	227.15
881.12	227.20
881.43	227.08
881.74	227.03
882.05	227.05
882.36	227.15
882.67	227.14
882.97	226.58
883.28	226.64
883.59	226.65
883.90	226.75
884.21	226.72
884.51	226.67
884.82	226.58
885.13	226.47
885.44	226.42
885.74	226.39
886.05	226.38
886.36	226.31
886.67	226.14
886.98	226.33
887.28	226.30
887.59	226.36
887.90	226.34
888.20	226.32
888.51	226.41
888.82	226.24
889.13	226.30
889.43	226.65
889.74	226.57
890.05	226.54
890.35	226.43
890.66	226.36
890.97	226.30
891.28	226.23
891.58	226.34
891.89	226.34
892.20	226.27
892.50	226.18
892.81	226.25
893.12	226.21
893.42	226.02
893.73	226.09
894.04	226.04
894.34	226.05
894.65	226.06
894.95	225.88
895.26	225.96
895.57	226.19
895.87	225.78
896.18	225.90
896.48	225.93
896.79	225.92
897.10	225.93
897.40	226.06
897.71	226.13
898.01	226.07
898.32	226.10
898.63	226.20
898.93	226.25
899.24	226.27
899.54	226.25
899.85	226.14
900.15	226.03
900.46	225.99
900.76	226.15
901.07	226.11
901.38	226.20
901.68	226.20
901.99	225.98
902.29	226.06
902.60	225.95
902.90	225.90
903.21	225.94
903.51	225.95
903.82	225.97
904.12	225.96
904.43	225.92
904.73	226.00
905.03	226.02
905.34	226.44
905.64	226.39
905.95	226.40
906.25	226.46
906.56	226.49
906.86	226.49
907.17	226.40
907.47	226.51
907.77	226.50
908.08	226.47
908.38	226.44
908.69	226.40
908.99	226.56
909.30	226.66
909.60	226.58
909.90	226.64
910.21	226.52
910.51	226.48
910.81	226.57
911.12	226.54
911.42	226.52
911.73	226.06
912.03	225.99
912.33	226.17
912.64	226.20
912.94	226.09
913.24	226.05
913.55	225.97
913.85	225.91
914.15	225.94
914.46	225.95
914.76	225.98
915.06	226.00
915.37	225.90
915.67	225.83
915.97	225.88
916.27	225.74
916.58	225.80
916.88	225.71
917.18	225.60
917.49	225.90
917.79	225.85
918.09	225.92
918.39	226.09
918.70	226.00
919.00	226.02
919.30	226.34
919.60	226.30
919.91	226.30
920.21	226.35
920.51	226.28
920.81	226.26
921.12	226.31
921.42	226.26
921.72	226.27
922.02	226.28
922.32	226.28
922.63	226.34
922.93	226.56
923.23	226.63
923.53	226.62
923.83	226.30
924.13	226.36
924.44	226.39
924.74	226.45
925.04	226.53
925.34	226.50
925.64	226.29
925.94	226.27
926.24	226.53
926.55	226.51
926.85	226.64
927.15	226.64
927.45	226.65
927.75	226.62
928.05	226.59
928.35	226.56
928.65	226.66
928.95	226.74
929.26	226.56
929.56	226.64
929.86	226.72
930.16	226.72
930.46	226.66
930.76	226.65
931.06	226.42
931.36	226.34
931.66	226.45
931.96	226.49
932.26	226.60
932.56	226.38
932.86	226.49
933.16	226.50
933.46	226.49
933.76	226.36
934.06	226.50
934.36	226.69
934.66	226.70
934.96	226.62
935.26	226.58
935.56	226.60
935.86	226.48
936.16	226.36
936.46	226.31
936.76	226.29
937.06	226.20
937.36	226.24
937.66	226.25
937.96	226.18
938.26	226.10
938.56	226.01
938.86	226.06
939.16	226.05
939.46	226.01
939.76	226.02
940.06	226.02
940.35	225.92
940.65	225.68
940.95	225.77
941.25	225.64
941.55	225.62
941.85	225.60
942.15	225.66
942.45	225.88
942.75	225.90
943.04	225.95
943.34	226.05
943.64	226.06
943.94	225.94
944.24	225.98
944.54	226.02
944.84	226.05
945.13	225.95
945.43	225.86
945.73	225.84
946.03	225.81
946.33	225.78
946.62	225.70
946.92	225.65
947.22	225.57
947.52	225.64
947.82	225.69
948.11	225.66
948.41	225.59
948.71	225.40
949.01	225.40
949.31	225.27
949.60	225.25
949.90	225.27
950.20	225.29
950.50	225.25
950.79	225.17
951.09	225.27
951.39	225.32
951.69	225.28
951.98	225.36
952.28	225.40
952.58	225.37
952.87	225.44
953.17	225.56
953.47	225.60
953.76	225.60
954.06	225.45
954.36	225.39
954.66	225.40
954.95	225.55
955.25	225.62
955.55	225.77
955.84	225.67
956.14	225.74
956.44	225.75
956.73	225.74
957.03	225.84
957.32	225.77
957.62	225.69
957.92	225.78
958.21	225.74
958.51	226.20
958.81	226.34
959.10	226.39
959.40	226.54
959.69	226.49
959.99	226.54
960.29	226.59
960.58	226.55
960.88	226.77
961.17	226.72
961.47	226.75
961.76	226.66
962.06	226.82
962.36	226.73
962.65	226.80
962.95	226.77
963.24	226.68
963.54	226.76
963.83	226.80
964.13	226.75
964.42	226.58
964.72	226.27
965.01	226.25
965.31	226.15
965.60	225.95
965.90	226.27
966.19	226.16
966.49	226.21
966.78	226.22
967.08	226.15
967.37	226.12
967.67	226.02
967.96	226.21
968.26	226.12
968.55	226.18
968.85	226.15
969.14	226.17
969.43	226.15
969.73	226.10
970.02	226.13
970.32	226.14
970.61	226.17
970.91	226.03
971.20	225.92
971.49	225.91
971.79	226.03
972.08	225.70
972.38	225.82
972.67	225.77
972.96	225.81
973.26	225.71
973.55	225.84
973.85	225.84
974.14	225.70
974.43	225.77
974.73	225.65
975.02	225.61
975.31	225.58
975.61	225.62
975.90	225.54
976.19	225.50
976.49	225.52
976.78	225.54
977.07	225.50
977.37	225.60
977.66	225.60
977.95	225.48
978.24	225.56
978.54	225.57
978.83	225.64
979.12	225.61
979.42	225.64
979.71	225.55
980.00	225.52
980.29	225.56
980.59	225.40
980.88	225.54
981.17	225.60
981.46	225.61
981.76	225.65
982.05	225.81
982.34	225.89
982.63	225.83
982.93	225.93
983.22	226.03
983.51	226.06
983.80	226.11
984.09	226.15
984.39	226.01
984.68	225.94
984.97	225.89
985.26	225.88
985.55	225.91
985.85	225.82
986.14	225.87
986.43	225.86
986.72	225.88
987.01	225.73
987.30	225.60
987.59	225.56
987.89	225.50
988.18	225.40
988.47	225.29
988.76	225.30
989.05	225.21
989.34	225.19
989.63	225.25
989.92	225.18
990.22	225.14
990.51	225.20
990.80	225.24
991.09	225.30
991.38	225.40
991.67	225.32
991.96	225.29
992.25	225.28
992.54	225.22
992.83	225.19
993.12	225.27
993.41	225.36
993.70	225.62
993.99	225.76
994.28	225.79
994.58	225.86
994.87	225.83
995.16	225.80
995.45	225.75
995.74	225.67
996.03	225.78
996.32	225.88
996.61	226.02
996.90	225.98
997.19	225.88
997.48	225.80
997.77	225.74
998.06	225.84
998.34	225.81
998.63	225.86
998.92	225.95
999.21	226.03
999.50	226.07
999.79	225.86
1000.08	225.79
1000.37	225.79
1000.66	225.70
1000.95	225.85
1001.24	225.92
1001.53	226.01
1001.82	225.92
1002.11	225.86
1002.40	225.86
1002.68	225.93
1002.97	226.27
1003.26	226.25
1003.55	226.18
1003.84	226.26
1004.13	226.36
1004.42	226.35
1004.71	226.29
1004.99	226.22
1005.28	226.28
1005.57	226.23
1005.86	226.22
1006.15	226.21
1006.44	226.16
1006.72	226.27
1007.01	226.14
1007.30	226.11
1007.59	226.03
1007.88	226.02
1008.17	226.00
1008.45	225.85
1008.74	225.66
1009.03	225.43
1009.32	225.48
1009.60	225.55
1009.89	225.56
1010.18	225.40
1010.47	225.46
1010.76	225.47
1011.04	225.47
1011.33	225.50
1011.62	225.59
1011.91	225.61
1012.19	225.64
1012.48	225.65
1012.77	225.60
1013.05	225.88
1013.34	225.91
1013.63	225.87
1013.92	225.92
1014.20	225.95
1014.49	226.06
1014.78	226.13
1015.06	226.00
1015.35	225.97
1015.64	225.94
1015.92	225.90
1016.21	225.95
1016.50	225.92
1016.78	226.01
1017.07	226.06
1017.36	225.91
1017.64	225.88
1017.93	225.89
1018.22	225.85
1018.50	225.79
1018.79	225.78
1019.08	225.54
1019.36	225.53
1019.65	225.42
1019.93	225.54
1020.22	225.62
1020.51	225.79
1020.79	225.74
1021.08	225.80
1021.36	223.95
1021.65	225.30
1021.94	225.90
1022.22	225.40
1022.51	223.30
1022.79	227.35
1023.08	226.85
1023.36	230.40
1023.65	224.95
>>>>>End Processed Spectral Data<<<<<
