SpectraSuite Data File
++++++++++++++++++++++++++++++++++++
Date: Wed Sep 04 17:43:38 EDT 2013
User: lab3
Dark Spectrum Present: Yes
Reference Spectrum Present: No
Number of Sampled Component Spectra: 1
Spectrometers: USB2E7196
Integration Time (usec): 170000 (USB2E7196)
Spectra Averaged: 20 (USB2E7196)
Boxcar Smoothing: 10 (USB2E7196)
Correct for Electrical Dark: No (USB2E7196)
Strobe/Lamp Enabled: No (USB2E7196)
Correct for Detector Non-linearity: No (USB2E7196)
Correct for Stray Light: No (USB2E7196)
Number of Pixels in Processed Spectrum: 2048
>>>>>Begin Processed Spectral Data<<<<<
339.09	0.00
339.48	214.40
339.86	213.95
340.24	214.05
340.63	216.55
341.01	225.30
341.39	219.05
341.78	223.15
342.16	224.25
342.54	223.95
342.93	212.10
343.31	222.74
343.69	223.19
344.07	223.65
344.46	224.25
344.84	224.70
345.22	224.67
345.60	225.04
345.99	225.19
346.37	225.25
346.75	225.37
347.13	225.45
347.52	225.54
347.90	225.78
348.28	225.71
348.66	225.85
349.05	225.68
349.43	225.74
349.81	225.78
350.19	225.83
350.57	225.88
350.96	225.97
351.34	226.09
351.72	226.13
352.10	226.22
352.48	226.19
352.87	226.18
353.25	226.27
353.63	226.24
354.01	226.25
354.39	226.33
354.77	226.35
355.15	226.53
355.54	226.56
355.92	226.48
356.30	226.57
356.68	226.89
357.06	226.94
357.44	226.95
357.82	227.04
358.20	227.50
358.58	227.53
358.97	227.64
359.35	227.77
359.73	227.98
360.11	228.07
360.49	228.15
360.87	228.21
361.25	228.34
361.63	228.54
362.01	228.62
362.39	228.64
362.77	228.72
363.15	228.74
363.53	228.80
363.91	228.88
364.29	228.97
364.67	228.58
365.05	228.69
365.43	228.72
365.81	228.76
366.19	228.63
366.57	228.90
366.95	228.88
367.33	228.85
367.71	228.84
368.09	228.95
368.47	228.94
368.85	228.93
369.23	229.04
369.61	228.90
369.99	228.97
370.37	228.98
370.75	229.21
371.13	229.11
371.51	228.99
371.89	229.00
372.27	228.96
372.65	229.00
373.03	228.99
373.41	228.95
373.78	228.95
374.16	228.64
374.54	228.44
374.92	228.35
375.30	228.29
375.68	228.17
376.06	228.11
376.44	228.06
376.82	228.08
377.19	227.95
377.57	227.90
377.95	227.73
378.33	227.68
378.71	227.33
379.09	227.27
379.47	227.31
379.84	227.14
380.22	227.02
380.60	226.84
380.98	226.71
381.36	226.61
381.73	226.45
382.11	226.50
382.49	226.42
382.87	226.35
383.25	226.38
383.62	226.87
384.00	226.75
384.38	226.65
384.76	226.66
385.13	226.76
385.51	226.65
385.89	226.58
386.27	226.50
386.64	226.52
387.02	226.36
387.40	226.25
387.78	226.27
388.15	226.26
388.53	226.18
388.91	226.18
389.29	226.19
389.66	226.19
390.04	226.13
390.42	226.18
390.79	226.15
391.17	226.02
391.55	225.45
391.92	225.42
392.30	225.48
392.68	225.44
393.05	225.39
393.43	225.45
393.81	225.48
394.18	225.45
394.56	225.46
394.94	225.74
395.31	225.73
395.69	225.92
396.06	225.99
396.44	226.06
396.82	226.04
397.19	226.30
397.57	226.28
397.95	226.43
398.32	226.29
398.70	226.41
399.07	226.65
399.45	226.75
399.82	226.82
400.20	226.85
400.58	226.81
400.95	226.70
401.33	226.85
401.70	227.31
402.08	227.55
402.45	227.70
402.83	227.94
403.20	228.12
403.58	228.16
403.95	228.42
404.33	228.71
404.71	228.95
405.08	229.43
405.46	229.72
405.83	229.98
406.21	230.37
406.58	230.69
406.96	230.90
407.33	231.23
407.70	231.62
408.08	232.35
408.45	232.84
408.83	233.36
409.20	233.79
409.58	233.85
409.95	234.34
410.33	234.85
410.70	235.15
411.08	235.83
411.45	236.42
411.82	236.93
412.20	237.69
412.57	238.70
412.95	238.95
413.32	239.78
413.69	240.60
414.07	241.49
414.44	242.43
414.82	243.38
415.19	244.54
415.56	245.68
415.94	246.73
416.31	248.16
416.68	249.56
417.06	251.05
417.43	252.66
417.81	254.29
418.18	256.03
418.55	257.93
418.93	259.86
419.30	261.95
419.67	264.15
420.04	266.25
420.42	268.43
420.79	271.39
421.16	274.02
421.54	276.85
421.91	279.64
422.28	282.55
422.66	285.66
423.03	288.90
423.40	292.17
423.77	295.55
424.15	298.96
424.52	302.50
424.89	306.55
425.26	310.36
425.64	314.05
426.01	318.07
426.38	322.23
426.75	326.54
427.13	330.84
427.50	335.31
427.87	340.04
428.24	344.67
428.61	349.00
428.99	354.23
429.36	359.56
429.73	364.85
430.10	370.16
430.47	375.62
430.85	380.95
431.22	386.89
431.59	393.36
431.96	399.31
432.33	405.96
432.70	412.44
433.08	419.96
433.45	427.08
433.82	434.11
434.19	441.90
434.56	449.67
434.93	457.05
435.30	464.55
435.68	472.75
436.05	480.94
436.42	488.96
436.79	496.25
437.16	504.28
437.53	512.76
437.90	521.17
438.27	529.44
438.64	538.16
439.01	546.00
439.38	552.94
439.75	559.85
440.13	567.52
440.50	574.62
440.87	580.51
441.24	586.65
441.61	593.40
441.98	598.46
442.35	604.00
442.72	609.71
443.09	615.21
443.46	618.50
443.83	620.77
444.20	622.55
444.57	625.07
444.94	626.25
445.31	627.20
445.68	628.45
446.05	628.65
446.42	627.42
446.79	626.25
447.16	624.64
447.53	623.46
447.90	620.04
448.27	616.57
448.64	611.94
449.01	608.32
449.37	602.47
449.74	596.64
450.11	590.16
450.48	582.83
450.85	575.26
451.22	568.73
451.59	562.39
451.96	556.35
452.33	548.57
452.70	541.25
453.07	533.05
453.43	524.35
453.80	516.37
454.17	508.65
454.54	501.15
454.91	493.29
455.28	485.56
455.65	478.47
456.02	471.93
456.38	465.73
456.75	458.33
457.12	451.88
457.49	445.85
457.86	439.74
458.23	434.78
458.59	429.28
458.96	423.75
459.33	418.77
459.70	413.90
460.07	409.99
460.43	405.58
460.80	401.50
461.17	397.90
461.54	394.02
461.91	390.30
462.27	386.54
462.64	383.52
463.01	380.11
463.38	376.87
463.74	372.96
464.11	370.11
464.48	367.68
464.85	365.02
465.21	362.89
465.58	360.68
465.95	357.87
466.32	355.81
466.68	353.69
467.05	351.69
467.42	349.75
467.78	347.59
468.15	345.50
468.52	343.95
468.88	341.85
469.25	340.02
469.62	338.68
469.98	337.19
470.35	335.65
470.72	334.26
471.08	332.67
471.45	331.58
471.82	330.40
472.18	329.01
472.55	328.13
472.92	326.86
473.28	325.77
473.65	324.89
474.02	323.75
474.38	322.98
474.75	322.20
475.11	321.35
475.48	320.82
475.85	320.31
476.21	319.64
476.58	319.29
476.94	319.00
477.31	318.54
477.67	318.09
478.04	317.89
478.41	317.70
478.77	318.04
479.14	317.65
479.50	317.56
479.87	317.54
480.23	317.58
480.60	317.55
480.96	317.59
481.33	317.94
481.69	318.27
482.06	318.52
482.42	318.79
482.79	319.20
483.15	319.58
483.52	320.25
483.88	320.75
484.25	321.17
484.61	321.71
484.98	322.32
485.34	323.33
485.71	324.19
486.07	325.29
486.44	325.79
486.80	326.99
487.17	328.13
487.53	329.50
487.90	330.92
488.26	332.59
488.62	334.30
488.99	335.74
489.35	337.46
489.72	339.22
490.08	341.17
490.44	343.02
490.81	345.17
491.17	347.24
491.54	349.73
491.90	352.30
492.26	354.85
492.63	357.67
492.99	360.43
493.36	363.49
493.72	366.64
494.08	370.07
494.45	373.62
494.81	377.45
495.17	381.18
495.54	385.21
495.90	389.33
496.26	393.65
496.63	398.27
496.99	403.00
497.35	407.98
497.72	413.15
498.08	418.52
498.44	424.11
498.80	430.09
499.17	436.04
499.53	442.21
499.89	448.74
500.26	455.45
500.62	462.25
500.98	469.48
501.34	476.67
501.71	484.19
502.07	491.99
502.43	499.77
502.79	508.01
503.16	516.38
503.52	525.12
503.88	533.96
504.24	543.41
504.60	553.11
504.97	563.11
505.33	573.34
505.69	584.33
506.05	595.10
506.41	605.99
506.78	617.30
507.14	628.94
507.50	641.10
507.86	653.38
508.22	666.17
508.59	678.82
508.95	692.12
509.31	705.89
509.67	719.75
510.03	733.75
510.39	748.10
510.75	762.67
511.12	777.40
511.48	792.69
511.84	807.84
512.20	823.26
512.56	839.15
512.92	855.19
513.28	871.39
513.64	888.01
514.00	905.16
514.37	922.40
514.73	940.08
515.09	957.65
515.45	975.50
515.81	993.12
516.17	1011.15
516.53	1029.25
516.89	1047.38
517.25	1065.96
517.61	1085.63
517.97	1105.07
518.33	1124.59
518.69	1144.38
519.05	1164.25
519.41	1184.15
519.77	1204.55
520.13	1224.45
520.49	1244.35
520.85	1264.25
521.21	1284.34
521.57	1304.51
521.93	1324.20
522.29	1344.38
522.65	1364.08
523.01	1384.05
523.37	1403.79
523.73	1424.05
524.09	1443.82
524.45	1463.35
524.81	1483.26
525.17	1502.47
525.53	1522.22
525.89	1542.08
526.25	1561.82
526.61	1581.09
526.97	1601.08
527.33	1621.14
527.68	1641.75
528.04	1661.85
528.40	1681.75
528.76	1702.13
529.12	1721.60
529.48	1741.50
529.84	1760.41
530.20	1780.72
530.56	1800.55
530.91	1820.47
531.27	1839.85
531.63	1859.27
531.99	1878.65
532.35	1897.63
532.71	1916.95
533.07	1936.22
533.42	1954.51
533.78	1973.21
534.14	1992.02
534.50	2009.82
534.86	2027.47
535.21	2043.80
535.57	2061.07
535.93	2077.43
536.29	2093.30
536.65	2110.13
537.00	2126.26
537.36	2142.60
537.72	2157.60
538.08	2173.15
538.44	2188.38
538.79	2203.38
539.15	2218.34
539.51	2233.16
539.87	2246.94
540.22	2259.58
540.58	2272.65
540.94	2284.96
541.29	2296.27
541.65	2307.54
542.01	2318.72
542.37	2328.38
542.72	2338.21
543.08	2347.71
543.44	2358.63
543.79	2368.05
544.15	2376.61
544.51	2385.69
544.87	2393.87
545.22	2401.22
545.58	2407.70
545.94	2413.75
546.29	2419.11
546.65	2424.46
547.01	2429.15
547.36	2433.73
547.72	2438.33
548.07	2441.37
548.43	2445.50
548.79	2449.22
549.14	2451.95
549.50	2454.56
549.86	2457.40
550.21	2460.00
550.57	2462.38
550.92	2462.55
551.28	2462.72
551.64	2464.18
551.99	2465.20
552.35	2466.22
552.70	2467.52
553.06	2468.67
553.41	2469.17
553.77	2470.04
554.13	2470.98
554.48	2471.66
554.84	2472.14
555.19	2472.42
555.55	2473.41
555.90	2472.07
556.26	2470.67
556.61	2468.99
556.97	2467.05
557.32	2466.04
557.68	2464.79
558.03	2462.74
558.39	2461.08
558.74	2459.62
559.10	2455.88
559.45	2452.07
559.81	2447.24
560.16	2441.64
560.52	2436.15
560.87	2431.55
561.23	2425.89
561.58	2419.52
561.94	2412.37
562.29	2405.02
562.64	2398.07
563.00	2389.74
563.35	2383.24
563.71	2376.25
564.06	2369.93
564.42	2362.99
564.77	2355.62
565.12	2347.88
565.48	2340.47
565.83	2332.55
566.19	2324.71
566.54	2317.05
566.89	2308.96
567.25	2301.49
567.60	2294.45
567.96	2287.34
568.31	2279.43
568.66	2270.94
569.02	2261.77
569.37	2253.68
569.72	2246.10
570.08	2236.95
570.43	2227.49
570.78	2218.53
571.14	2209.63
571.49	2199.55
571.84	2190.08
572.20	2179.67
572.55	2169.85
572.90	2159.15
573.26	2149.21
573.61	2138.54
573.96	2127.68
574.31	2115.92
574.67	2104.73
575.02	2092.70
575.37	2080.05
575.72	2067.76
576.08	2056.33
576.43	2044.77
576.78	2032.63
577.13	2019.84
577.49	2007.55
577.84	1996.29
578.19	1984.77
578.54	1972.89
578.90	1961.55
579.25	1950.12
579.60	1938.41
579.95	1926.02
580.30	1913.43
580.66	1900.60
581.01	1887.68
581.36	1874.56
581.71	1862.56
582.06	1850.17
582.42	1838.34
582.77	1826.90
583.12	1815.38
583.47	1803.74
583.82	1792.32
584.17	1780.60
584.53	1769.43
584.88	1757.62
585.23	1745.34
585.58	1731.97
585.93	1719.26
586.28	1706.40
586.63	1693.06
586.98	1679.74
587.34	1667.21
587.69	1655.07
588.04	1643.36
588.39	1632.04
588.74	1620.51
589.09	1609.37
589.44	1597.39
589.79	1586.04
590.14	1574.53
590.49	1563.20
590.84	1551.95
591.19	1540.82
591.54	1529.35
591.89	1517.75
592.25	1508.14
592.60	1497.54
592.95	1487.02
593.30	1476.25
593.65	1465.55
594.00	1454.75
594.35	1445.69
594.70	1434.69
595.05	1423.86
595.40	1412.67
595.75	1401.59
596.10	1391.40
596.45	1380.55
596.80	1370.43
597.15	1359.78
597.50	1348.86
597.85	1338.05
598.19	1327.27
598.54	1316.32
598.89	1306.10
599.24	1296.37
599.59	1285.29
599.94	1275.10
600.29	1265.45
600.64	1255.60
600.99	1245.34
601.34	1236.25
601.69	1225.93
602.04	1217.13
602.39	1208.35
602.74	1199.77
603.08	1191.30
603.43	1182.60
603.78	1173.84
604.13	1164.92
604.48	1156.01
604.83	1147.08
605.18	1138.17
605.53	1129.23
605.87	1120.82
606.22	1112.88
606.57	1104.34
606.92	1095.75
607.27	1087.53
607.62	1079.59
607.96	1072.04
608.31	1065.00
608.66	1057.37
609.01	1049.51
609.36	1041.47
609.70	1033.61
610.05	1025.69
610.40	1017.72
610.75	1009.77
611.10	1002.02
611.44	994.05
611.79	986.61
612.14	979.32
612.49	972.09
612.83	965.26
613.18	958.21
613.53	951.01
613.88	943.70
614.22	936.67
614.57	929.48
614.92	922.15
615.27	915.04
615.61	907.86
615.96	900.55
616.31	893.42
616.65	886.93
617.00	880.14
617.35	873.47
617.70	866.93
618.04	860.40
618.39	853.90
618.74	848.15
619.08	841.80
619.43	835.35
619.78	828.84
620.12	822.30
620.47	816.02
620.82	809.42
621.16	803.21
621.51	797.50
621.85	791.60
622.20	785.48
622.55	779.35
622.89	773.43
623.24	767.80
623.59	762.11
623.93	756.35
624.28	750.79
624.62	745.73
624.97	740.52
625.32	735.09
625.66	729.51
626.01	723.72
626.35	718.57
626.70	713.65
627.04	708.91
627.39	703.72
627.73	698.80
628.08	694.27
628.43	689.21
628.77	684.07
629.12	679.16
629.46	674.71
629.81	670.15
630.15	665.72
630.50	661.25
630.84	656.85
631.19	652.38
631.53	648.07
631.88	643.00
632.22	638.48
632.57	634.47
632.91	630.42
633.26	626.31
633.60	622.02
633.95	617.60
634.29	613.10
634.64	609.02
634.98	604.64
635.32	600.35
635.67	596.61
636.01	592.69
636.36	588.67
636.70	584.92
637.05	581.07
637.39	577.21
637.73	573.26
638.08	569.49
638.42	565.61
638.77	561.65
639.11	557.67
639.45	553.64
639.80	549.46
640.14	545.60
640.49	541.95
640.83	538.42
641.17	535.09
641.52	531.70
641.86	528.37
642.20	525.34
642.55	522.04
642.89	518.63
643.23	515.56
643.58	512.78
643.92	509.33
644.26	506.27
644.61	503.40
644.95	500.42
645.29	497.25
645.64	494.32
645.98	491.56
646.32	488.93
646.66	486.02
647.01	483.43
647.35	480.97
647.69	478.29
648.04	475.68
648.38	472.93
648.72	470.31
649.06	467.57
649.41	464.72
649.75	461.79
650.09	459.14
650.43	456.43
650.78	453.70
651.12	451.13
651.46	448.52
651.80	445.79
652.14	443.26
652.49	441.00
652.83	438.67
653.17	436.10
653.51	433.58
653.85	431.48
654.20	429.16
654.54	426.70
654.88	424.43
655.22	422.39
655.56	420.31
655.90	418.15
656.25	416.06
656.59	414.06
656.93	412.16
657.27	410.38
657.61	408.08
657.95	405.90
658.29	403.97
658.64	402.05
658.98	399.99
659.32	397.89
659.66	395.81
660.00	393.87
660.34	392.00
660.68	390.20
661.02	388.21
661.36	386.39
661.70	384.52
662.05	382.77
662.39	380.96
662.73	379.26
663.07	377.73
663.41	376.05
663.75	374.26
664.09	372.58
664.43	370.62
664.77	369.21
665.11	367.62
665.45	366.03
665.79	364.53
666.13	362.96
666.47	361.47
666.81	359.98
667.15	358.30
667.49	356.97
667.83	355.71
668.17	354.45
668.51	353.22
668.85	352.08
669.19	350.98
669.53	349.56
669.87	348.17
670.21	346.74
670.55	345.46
670.89	344.45
671.23	343.20
671.57	342.00
671.91	340.64
672.25	339.50
672.58	338.40
672.92	337.01
673.26	335.96
673.60	334.82
673.94	333.73
674.28	332.82
674.62	331.70
674.96	330.46
675.30	329.37
675.64	328.09
675.97	326.92
676.31	325.60
676.65	324.35
676.99	323.39
677.33	322.34
677.67	321.26
678.01	320.05
678.34	319.00
678.68	318.15
679.02	317.19
679.36	316.26
679.70	315.18
680.04	314.34
680.37	313.41
680.71	312.47
681.05	311.59
681.39	310.70
681.73	309.79
682.06	308.94
682.40	308.00
682.74	307.18
683.08	306.45
683.42	305.54
683.75	304.83
684.09	303.86
684.43	303.03
684.77	302.26
685.10	301.51
685.44	300.77
685.78	299.95
686.12	299.19
686.45	298.33
686.79	297.60
687.13	296.90
687.46	296.15
687.80	295.55
688.14	294.73
688.48	294.00
688.81	293.23
689.15	292.66
689.49	291.95
689.82	291.29
690.16	290.37
690.50	289.82
690.83	289.13
691.17	288.47
691.51	287.92
691.84	287.33
692.18	286.64
692.52	286.03
692.85	285.42
693.19	285.07
693.52	284.56
693.86	283.86
694.20	283.22
694.53	282.62
694.87	281.97
695.21	281.40
695.54	280.77
695.88	280.28
696.21	279.56
696.55	278.95
696.88	278.41
697.22	277.86
697.56	277.35
697.89	276.75
698.23	276.33
698.56	275.78
698.90	275.33
699.23	274.83
699.57	274.37
699.90	273.85
700.24	273.18
700.58	272.65
700.91	272.41
701.25	272.43
701.58	272.35
701.92	272.07
702.25	271.66
702.59	271.27
702.92	270.85
703.26	270.43
703.59	270.13
703.93	270.10
704.26	269.84
704.60	269.43
704.93	269.11
705.26	268.62
705.60	268.29
705.93	267.84
706.27	267.58
706.60	267.33
706.94	267.18
707.27	266.76
707.61	266.51
707.94	266.02
708.27	265.29
708.61	264.54
708.94	264.07
709.28	263.83
709.61	263.38
709.94	263.03
710.28	262.75
710.61	262.36
710.95	261.58
711.28	261.57
711.61	261.22
711.95	261.04
712.28	260.65
712.61	260.29
712.95	260.21
713.28	260.13
713.61	259.66
713.95	259.15
714.28	258.94
714.61	258.52
714.95	258.23
715.28	257.83
715.61	257.57
715.95	257.32
716.28	256.93
716.61	256.79
716.95	256.31
717.28	256.05
717.61	255.80
717.94	255.60
718.28	254.91
718.61	254.58
718.94	254.14
719.27	253.95
719.61	253.68
719.94	253.21
720.27	252.67
720.60	252.46
720.94	252.19
721.27	251.95
721.60	251.74
721.93	251.50
722.27	251.37
722.60	251.24
722.93	250.95
723.26	250.80
723.59	250.51
723.93	250.45
724.26	250.26
724.59	249.97
724.92	249.75
725.25	249.70
725.59	249.50
725.92	249.34
726.25	249.15
726.58	248.98
726.91	248.75
727.24	248.64
727.57	248.48
727.91	248.23
728.24	248.12
728.57	247.87
728.90	247.77
729.23	247.45
729.56	247.41
729.89	247.27
730.22	246.96
730.55	246.75
730.89	246.65
731.22	246.46
731.55	246.31
731.88	246.24
732.21	245.91
732.54	245.66
732.87	245.47
733.20	245.35
733.53	245.19
733.86	245.11
734.19	244.89
734.52	244.73
734.85	244.91
735.18	244.64
735.51	244.67
735.84	244.49
736.17	244.45
736.50	244.03
736.83	244.49
737.16	244.42
737.49	244.31
737.82	244.04
738.15	243.88
738.48	243.72
738.81	243.47
739.14	243.33
739.47	243.24
739.80	243.08
740.13	242.92
740.46	242.62
740.79	242.42
741.12	242.24
741.45	242.02
741.78	241.64
742.11	241.64
742.44	241.37
742.77	241.20
743.10	241.05
743.43	240.86
743.75	240.15
744.08	240.62
744.41	240.40
744.74	240.32
745.07	240.13
745.40	240.11
745.73	240.18
746.06	240.03
746.39	239.91
746.71	239.79
747.04	239.60
747.37	239.51
747.70	239.48
748.03	239.39
748.36	239.33
748.68	239.22
749.01	238.94
749.34	238.80
749.67	238.77
750.00	238.71
750.33	239.05
750.65	238.97
750.98	238.29
751.31	238.25
751.64	238.10
751.97	238.24
752.29	238.07
752.62	237.71
752.95	237.55
753.28	237.42
753.60	237.35
753.93	237.45
754.26	237.50
754.59	237.25
754.91	237.09
755.24	236.98
755.57	236.88
755.90	236.75
756.22	236.61
756.55	236.48
756.88	236.32
757.20	235.87
757.53	235.62
757.86	235.55
758.19	235.47
758.51	235.40
758.84	235.06
759.17	234.93
759.49	234.93
759.82	235.27
760.15	235.31
760.47	235.29
760.80	234.94
761.13	234.88
761.45	234.80
761.78	234.76
762.11	234.70
762.43	234.61
762.76	234.59
763.08	234.66
763.41	234.63
763.74	234.51
764.06	234.40
764.39	234.38
764.71	234.31
765.04	234.17
765.37	234.07
765.69	234.03
766.02	233.98
766.34	233.83
766.67	233.50
767.00	233.41
767.32	233.55
767.65	233.87
767.97	233.71
768.30	233.66
768.62	233.56
768.95	233.44
769.27	233.37
769.60	233.43
769.92	233.29
770.25	233.16
770.57	233.07
770.90	233.08
771.22	232.99
771.55	232.84
771.87	232.85
772.20	232.79
772.52	233.07
772.85	233.61
773.17	233.57
773.50	233.49
773.82	233.38
774.15	233.07
774.47	232.72
774.80	232.65
775.12	232.62
775.45	232.60
775.77	232.59
776.09	232.60
776.42	232.47
776.74	232.55
777.07	232.42
777.39	232.48
777.72	232.37
778.04	232.46
778.36	232.44
778.69	232.42
779.01	232.44
779.33	231.99
779.66	231.40
779.98	231.37
780.31	231.33
780.63	231.45
780.95	231.51
781.28	231.44
781.60	231.33
781.92	231.29
782.25	231.23
782.57	231.14
782.89	231.00
783.22	230.93
783.54	230.77
783.86	230.77
784.19	230.64
784.51	230.72
784.83	230.50
785.16	230.41
785.48	230.30
785.80	230.22
786.12	230.22
786.45	230.15
786.77	230.13
787.09	230.09
787.42	229.89
787.74	229.82
788.06	229.82
788.38	229.83
788.71	229.69
789.03	229.70
789.35	229.77
789.67	229.72
789.99	229.76
790.32	229.70
790.64	229.77
790.96	230.10
791.28	229.88
791.61	229.88
791.93	229.87
792.25	229.88
792.57	230.27
792.89	230.16
793.21	230.14
793.54	230.08
793.86	229.98
794.18	229.98
794.50	229.87
794.82	229.85
795.14	229.85
795.47	230.03
795.79	229.97
796.11	229.80
796.43	229.77
796.75	229.75
797.07	229.71
797.39	229.70
797.71	229.31
798.04	229.33
798.36	229.34
798.68	229.38
799.00	229.34
799.32	228.93
799.64	229.06
799.96	229.02
800.28	229.14
800.60	229.17
800.92	229.26
801.24	229.24
801.56	229.21
801.89	229.16
802.21	229.09
802.53	229.00
802.85	229.10
803.17	229.38
803.49	229.19
803.81	229.10
804.13	229.11
804.45	229.05
804.77	229.15
805.09	229.13
805.41	229.09
805.73	229.00
806.05	228.92
806.37	228.89
806.69	228.87
807.01	228.79
807.33	228.75
807.65	228.52
807.97	228.74
808.28	228.67
808.60	228.67
808.92	228.55
809.24	228.83
809.56	228.78
809.88	228.48
810.20	228.53
810.52	228.69
810.84	228.46
811.16	228.40
811.48	228.32
811.80	228.45
812.12	228.45
812.43	228.51
812.75	228.56
813.07	228.44
813.39	228.43
813.71	228.34
814.03	228.29
814.35	228.33
814.67	228.10
814.98	228.15
815.30	228.10
815.62	228.06
815.94	227.73
816.26	227.89
816.58	227.81
816.89	227.87
817.21	227.72
817.53	227.80
817.85	227.85
818.17	227.85
818.48	227.71
818.80	227.71
819.12	227.69
819.44	227.65
819.76	227.56
820.07	227.61
820.39	227.66
820.71	227.66
821.03	227.60
821.34	227.55
821.66	227.54
821.98	227.58
822.30	227.56
822.61	227.95
822.93	227.74
823.25	227.75
823.57	227.69
823.88	227.76
824.20	227.71
824.52	227.82
824.83	227.71
825.15	227.63
825.47	227.66
825.79	227.68
826.10	227.58
826.42	227.64
826.74	227.67
827.05	227.61
827.37	227.70
827.69	227.71
828.00	227.74
828.32	227.76
828.64	227.67
828.95	227.83
829.27	227.58
829.58	227.58
829.90	227.68
830.22	227.64
830.53	227.55
830.85	227.48
831.17	227.28
831.48	227.37
831.80	227.38
832.11	227.33
832.43	227.26
832.75	227.27
833.06	227.55
833.38	227.36
833.69	227.31
834.01	227.31
834.32	227.32
834.64	227.29
834.96	227.24
835.27	227.30
835.59	227.21
835.90	227.14
836.22	227.09
836.53	226.99
836.85	226.93
837.16	227.43
837.48	227.47
837.79	227.65
838.11	227.64
838.42	227.63
838.74	227.71
839.05	227.67
839.37	227.66
839.68	227.31
840.00	227.35
840.31	227.41
840.63	227.31
840.94	227.24
841.26	227.14
841.57	227.12
841.88	227.15
842.20	227.08
842.51	227.03
842.83	227.08
843.14	227.46
843.46	227.50
843.77	227.21
844.08	227.15
844.40	226.99
844.71	226.91
845.03	226.94
845.34	226.74
845.65	226.68
845.97	226.67
846.28	226.70
846.60	226.67
846.91	226.59
847.22	226.57
847.54	226.67
847.85	226.66
848.16	226.63
848.48	226.51
848.79	226.75
849.10	226.73
849.42	226.76
849.73	226.31
850.04	226.32
850.36	226.17
850.67	226.31
850.98	226.39
851.30	226.44
851.61	226.34
851.92	226.34
852.23	226.55
852.55	226.64
852.86	226.71
853.17	226.75
853.49	226.86
853.80	226.93
854.11	227.03
854.42	227.15
854.74	227.12
855.05	227.12
855.36	226.92
855.67	226.99
855.99	226.93
856.30	227.56
856.61	227.62
856.92	227.56
857.23	227.57
857.55	227.47
857.86	227.49
858.17	227.62
858.48	227.56
858.79	227.52
859.11	227.50
859.42	227.45
859.73	227.40
860.04	227.36
860.35	227.28
860.66	227.08
860.98	227.00
861.29	227.08
861.60	227.18
861.91	227.21
862.22	227.12
862.53	227.10
862.84	226.45
863.16	226.49
863.47	226.50
863.78	226.42
864.09	226.52
864.40	226.56
864.71	226.52
865.02	226.64
865.33	226.61
865.64	226.50
865.95	226.51
866.27	226.79
866.58	226.78
866.89	226.83
867.20	226.86
867.51	226.78
867.82	226.76
868.13	226.83
868.44	226.75
868.75	226.83
869.06	226.87
869.37	226.98
869.68	226.85
869.99	226.91
870.30	226.97
870.61	226.94
870.92	226.85
871.23	226.80
871.54	226.81
871.85	226.94
872.16	227.00
872.47	226.97
872.78	226.72
873.09	226.75
873.40	226.71
873.71	226.74
874.02	226.87
874.33	226.80
874.64	226.72
874.95	226.84
875.26	226.75
875.56	226.71
875.87	226.65
876.18	226.63
876.49	227.09
876.80	226.99
877.11	226.87
877.42	226.85
877.73	226.89
878.04	226.86
878.35	226.72
878.66	226.75
878.96	226.71
879.27	226.77
879.58	226.74
879.89	226.75
880.20	226.81
880.51	226.75
880.82	226.82
881.12	226.83
881.43	226.69
881.74	226.66
882.05	226.66
882.36	226.63
882.67	226.69
882.97	226.19
883.28	226.25
883.59	226.27
883.90	226.35
884.21	226.40
884.51	226.38
884.82	226.30
885.13	226.27
885.44	226.30
885.74	226.27
886.05	226.22
886.36	226.20
886.67	226.06
886.98	226.34
887.28	226.34
887.59	226.27
887.90	226.35
888.20	226.29
888.51	226.42
888.82	226.44
889.13	226.50
889.43	226.81
889.74	226.70
890.05	226.70
890.35	226.68
890.66	226.62
890.97	226.58
891.28	226.57
891.58	226.59
891.89	226.49
892.20	226.46
892.50	226.42
892.81	226.45
893.12	226.52
893.42	226.25
893.73	226.29
894.04	226.35
894.34	226.36
894.65	226.41
894.95	226.25
895.26	226.25
895.57	226.35
895.87	225.89
896.18	225.99
896.48	226.05
896.79	226.02
897.10	226.04
897.40	226.10
897.71	226.26
898.01	226.22
898.32	226.38
898.63	226.32
898.93	226.40
899.24	226.30
899.54	226.24
899.85	226.20
900.15	226.15
900.46	226.12
900.76	226.14
901.07	226.17
901.38	226.22
901.68	226.33
901.99	226.17
902.29	226.28
902.60	226.28
902.90	226.26
903.21	226.31
903.51	226.29
903.82	226.33
904.12	226.26
904.43	226.27
904.73	226.22
905.03	226.28
905.34	226.73
905.64	226.75
905.95	226.79
906.25	226.84
906.56	226.84
906.86	226.85
907.17	226.81
907.47	226.78
907.77	226.74
908.08	226.61
908.38	226.63
908.69	226.63
908.99	226.67
909.30	226.67
909.60	226.63
909.90	226.67
910.21	226.57
910.51	226.50
910.81	226.52
911.12	226.49
911.42	226.50
911.73	226.04
912.03	226.09
912.33	226.21
912.64	226.13
912.94	226.11
913.24	225.99
913.55	225.91
913.85	225.91
914.15	226.05
914.46	226.14
914.76	226.15
915.06	226.13
915.37	226.11
915.67	226.05
915.97	226.06
916.27	225.97
916.58	225.96
916.88	225.95
917.18	225.95
917.49	226.30
917.79	226.25
918.09	226.26
918.39	226.37
918.70	226.29
919.00	226.36
919.30	226.51
919.60	226.53
919.91	226.58
920.21	226.56
920.51	226.46
920.81	226.38
921.12	226.45
921.42	226.44
921.72	226.44
922.02	226.51
922.32	226.58
922.63	226.58
922.93	226.81
923.23	226.84
923.53	226.78
923.83	226.55
924.13	226.60
924.44	226.59
924.74	226.58
925.04	226.66
925.34	226.59
925.64	226.46
925.94	226.52
926.24	226.75
926.55	226.74
926.85	226.72
927.15	226.76
927.45	226.75
927.75	226.75
928.05	226.77
928.35	226.71
928.65	226.80
928.95	226.81
929.26	226.70
929.56	226.84
929.86	226.95
930.16	226.88
930.46	226.86
930.76	226.88
931.06	226.73
931.36	226.66
931.66	226.80
931.96	226.77
932.26	226.75
932.56	226.55
932.86	226.56
933.16	226.57
933.46	226.45
933.76	226.38
934.06	226.52
934.36	226.60
934.66	226.58
934.96	226.45
935.26	226.50
935.56	226.49
935.86	226.24
936.16	226.11
936.46	226.07
936.76	226.15
937.06	226.13
937.36	226.15
937.66	226.13
937.96	226.06
938.26	226.04
938.56	226.00
938.86	226.02
939.16	226.16
939.46	226.18
939.76	226.28
940.06	226.24
940.35	226.10
940.65	225.92
940.95	226.01
941.25	225.93
941.55	225.87
941.85	225.83
942.15	225.96
942.45	226.11
942.75	226.10
943.04	225.97
943.34	226.05
943.64	225.96
943.94	225.93
944.24	225.93
944.54	226.02
944.84	225.98
945.13	225.96
945.43	225.90
945.73	225.89
946.03	225.80
946.33	225.73
946.62	225.68
946.92	225.65
947.22	225.66
947.52	225.68
947.82	225.69
948.11	225.69
948.41	225.62
948.71	225.50
949.01	225.49
949.31	225.44
949.60	225.37
949.90	225.44
950.20	225.41
950.50	225.40
950.79	225.27
951.09	225.38
951.39	225.32
951.69	225.20
951.98	225.22
952.28	225.30
952.58	225.30
952.87	225.29
953.17	225.38
953.47	225.32
953.76	225.37
954.06	225.35
954.36	225.32
954.66	225.42
954.95	225.49
955.25	225.53
955.55	225.60
955.84	225.55
956.14	225.62
956.44	225.64
956.73	225.55
957.03	225.61
957.32	225.59
957.62	225.54
957.92	225.71
958.21	225.77
958.51	226.28
958.81	226.35
959.10	226.45
959.40	226.54
959.69	226.57
959.99	226.60
960.29	226.56
960.58	226.53
960.88	226.65
961.17	226.68
961.47	226.76
961.76	226.70
962.06	226.78
962.36	226.72
962.65	226.80
962.95	226.85
963.24	226.84
963.54	226.87
963.83	226.96
964.13	226.98
964.42	226.79
964.72	226.43
965.01	226.49
965.31	226.53
965.60	226.35
965.90	226.68
966.19	226.61
966.49	226.67
966.78	226.68
967.08	226.60
967.37	226.59
967.67	226.41
967.96	226.60
968.26	226.60
968.55	226.63
968.85	226.54
969.14	226.55
969.43	226.48
969.73	226.42
970.02	226.38
970.32	226.35
970.61	226.38
970.91	226.25
971.20	226.09
971.49	225.95
971.79	226.08
972.08	225.71
972.38	225.73
972.67	225.66
972.96	225.65
973.26	225.55
973.55	225.68
973.85	225.76
974.14	225.69
974.43	225.69
974.73	225.65
975.02	225.64
975.31	225.62
975.61	225.68
975.90	225.69
976.19	225.68
976.49	225.66
976.78	225.70
977.07	225.67
977.37	225.77
977.66	225.86
977.95	225.73
978.24	225.82
978.54	225.88
978.83	225.93
979.12	225.95
979.42	225.94
979.71	225.77
980.00	225.73
980.29	225.65
980.59	225.54
980.88	225.69
981.17	225.61
981.46	225.67
981.76	225.60
982.05	225.66
982.34	225.66
982.63	225.60
982.93	225.60
983.22	225.79
983.51	225.80
983.80	225.92
984.09	225.98
984.39	225.89
984.68	225.81
984.97	225.79
985.26	225.80
985.55	225.83
985.85	225.76
986.14	225.81
986.43	225.95
986.72	225.98
987.01	225.78
987.30	225.80
987.59	225.70
987.89	225.82
988.18	225.69
988.47	225.61
988.76	225.59
989.05	225.58
989.34	225.50
989.63	225.54
989.92	225.50
990.22	225.47
990.51	225.41
990.80	225.38
991.09	225.40
991.38	225.39
991.67	225.43
991.96	225.52
992.25	225.60
992.54	225.52
992.83	225.46
993.12	225.41
993.41	225.54
993.70	225.80
993.99	225.89
994.28	226.01
994.58	226.12
994.87	226.08
995.16	226.05
995.45	225.95
995.74	225.79
996.03	225.76
996.32	225.78
996.61	226.00
996.90	226.02
997.19	226.05
997.48	226.06
997.77	225.95
998.06	225.93
998.34	225.84
998.63	225.78
998.92	225.84
999.21	225.96
999.50	225.98
999.79	225.76
1000.08	225.68
1000.37	225.64
1000.66	225.60
1000.95	225.75
1001.24	225.76
1001.53	225.83
1001.82	225.94
1002.11	225.91
1002.40	226.00
1002.68	226.09
1002.97	226.43
1003.26	226.38
1003.55	226.34
1003.84	226.39
1004.13	226.55
1004.42	226.58
1004.71	226.65
1004.99	226.67
1005.28	226.81
1005.57	226.75
1005.86	226.72
1006.15	226.68
1006.44	226.66
1006.72	226.70
1007.01	226.65
1007.30	226.67
1007.59	226.69
1007.88	226.69
1008.17	226.69
1008.45	226.54
1008.74	226.28
1009.03	226.03
1009.32	225.97
1009.60	225.96
1009.89	225.92
1010.18	225.63
1010.47	225.55
1010.76	225.55
1011.04	225.53
1011.33	225.54
1011.62	225.57
1011.91	225.62
1012.19	225.60
1012.48	225.54
1012.77	225.56
1013.05	225.73
1013.34	225.75
1013.63	225.64
1013.92	225.55
1014.20	225.47
1014.49	225.49
1014.78	225.57
1015.06	225.43
1015.35	225.46
1015.64	225.46
1015.92	225.53
1016.21	225.63
1016.50	225.64
1016.78	225.64
1017.07	225.69
1017.36	225.59
1017.64	225.47
1017.93	225.51
1018.22	225.46
1018.50	225.56
1018.79	225.55
1019.08	225.30
1019.36	225.30
1019.65	225.27
1019.93	225.42
1020.22	225.48
1020.51	225.75
1020.79	225.64
1021.08	224.10
1021.36	226.25
1021.65	226.20
1021.94	224.40
1022.22	226.00
1022.51	224.35
1022.79	227.30
1023.08	225.45
1023.36	231.35
1023.65	223.95
>>>>>End Processed Spectral Data<<<<<
