SpectraSuite Data File
++++++++++++++++++++++++++++++++++++
Date: Wed Sep 04 17:41:02 EDT 2013
User: lab3
Dark Spectrum Present: Yes
Reference Spectrum Present: No
Number of Sampled Component Spectra: 1
Spectrometers: USB2E7196
Integration Time (usec): 170000 (USB2E7196)
Spectra Averaged: 20 (USB2E7196)
Boxcar Smoothing: 10 (USB2E7196)
Correct for Electrical Dark: No (USB2E7196)
Strobe/Lamp Enabled: No (USB2E7196)
Correct for Detector Non-linearity: No (USB2E7196)
Correct for Stray Light: No (USB2E7196)
Number of Pixels in Processed Spectrum: 2048
>>>>>Begin Processed Spectral Data<<<<<
339.09	0.00
339.48	212.00
339.86	214.30
340.24	214.85
340.63	216.60
341.01	225.15
341.39	220.75
341.78	220.65
342.16	223.80
342.54	222.10
342.93	211.86
343.31	222.53
343.69	223.14
344.07	223.60
344.46	224.17
344.84	224.59
345.22	224.53
345.60	224.75
345.99	224.98
346.37	225.04
346.75	225.21
347.13	225.27
347.52	225.35
347.90	225.55
348.28	225.57
348.66	225.72
349.05	225.55
349.43	225.68
349.81	225.75
350.19	225.77
350.57	225.80
350.96	225.86
351.34	226.01
351.72	226.10
352.10	226.18
352.48	226.14
352.87	226.17
353.25	226.30
353.63	226.29
354.01	226.33
354.39	226.45
354.77	226.47
355.15	226.60
355.54	226.60
355.92	226.50
356.30	226.59
356.68	227.00
357.06	227.10
357.44	226.98
357.82	226.98
358.20	227.47
358.58	227.42
358.97	227.53
359.35	227.63
359.73	227.75
360.11	227.78
360.49	227.82
360.87	227.85
361.25	227.90
361.63	228.14
362.01	228.23
362.39	228.20
362.77	228.26
363.15	228.28
363.53	228.33
363.91	228.46
364.29	228.49
364.67	228.09
365.05	228.13
365.43	228.26
365.81	228.34
366.19	228.15
366.57	228.53
366.95	228.43
367.33	228.32
367.71	228.32
368.09	228.49
368.47	228.48
368.85	228.52
369.23	228.66
369.61	228.49
369.99	228.59
370.37	228.65
370.75	228.89
371.13	228.83
371.51	228.77
371.89	228.70
372.27	228.65
372.65	228.61
373.03	228.58
373.41	228.55
373.78	228.58
374.16	228.27
374.54	228.05
374.92	228.03
375.30	228.05
375.68	227.87
376.06	227.82
376.44	227.79
376.82	227.75
377.19	227.64
377.57	227.58
377.95	227.42
378.33	227.35
378.71	227.02
379.09	227.08
379.47	227.06
379.84	226.98
380.22	226.99
380.60	226.86
380.98	226.79
381.36	226.68
381.73	226.53
382.11	226.60
382.49	226.49
382.87	226.36
383.25	226.30
383.62	226.83
384.00	226.67
384.38	226.62
384.76	226.64
385.13	226.82
385.51	226.80
385.89	226.68
386.27	226.65
386.64	226.68
387.02	226.53
387.40	226.50
387.78	226.50
388.15	226.46
388.53	226.45
388.91	226.34
389.29	226.34
389.66	226.33
390.04	226.20
390.42	226.17
390.79	226.21
391.17	226.19
391.55	225.71
391.92	225.66
392.30	225.70
392.68	225.58
393.05	225.50
393.43	225.45
393.81	225.43
394.18	225.31
394.56	225.31
394.94	225.40
395.31	225.37
395.69	225.48
396.06	225.59
396.44	225.62
396.82	225.71
397.19	225.95
397.57	225.94
397.95	226.08
398.32	226.09
398.70	226.15
399.07	226.37
399.45	226.30
399.82	226.43
400.20	226.47
400.58	226.59
400.95	226.46
401.33	226.70
401.70	227.17
402.08	227.40
402.45	227.49
402.83	227.73
403.20	227.89
403.58	227.97
403.95	228.13
404.33	228.38
404.71	228.54
405.08	228.96
405.46	229.21
405.83	229.36
406.21	229.57
406.58	229.80
406.96	229.85
407.33	230.22
407.70	230.53
408.08	231.18
408.45	231.58
408.83	232.02
409.20	232.34
409.58	232.42
409.95	232.79
410.33	233.29
410.70	233.50
411.08	234.02
411.45	234.50
411.82	234.98
412.20	235.58
412.57	236.50
412.95	236.67
413.32	237.43
413.69	238.11
414.07	238.91
414.44	239.73
414.82	240.62
415.19	241.57
415.56	242.59
415.94	243.41
416.31	244.55
416.68	245.74
417.06	247.07
417.43	248.46
417.81	249.92
418.18	251.48
418.55	253.17
418.93	254.85
419.30	256.62
419.67	258.42
420.04	260.28
420.42	262.15
420.79	264.79
421.16	267.00
421.54	269.60
421.91	272.09
422.28	274.59
422.66	277.31
423.03	280.25
423.40	282.96
423.77	285.84
424.15	288.82
424.52	291.91
424.89	295.40
425.26	298.63
425.64	301.83
426.01	305.24
426.38	308.80
426.75	312.56
427.13	316.34
427.50	320.39
427.87	324.46
428.24	328.48
428.61	332.14
428.99	336.74
429.36	341.25
429.73	345.77
430.10	350.45
430.47	355.21
430.85	359.72
431.22	364.80
431.59	370.58
431.96	375.81
432.33	381.60
432.70	387.23
433.08	393.84
433.45	399.87
433.82	405.98
434.19	412.83
434.56	419.60
434.93	425.94
435.30	432.29
435.68	439.41
436.05	446.44
436.42	453.48
436.79	459.73
437.16	466.65
437.53	474.04
437.90	481.22
438.27	488.44
438.64	495.89
439.01	502.94
439.38	508.79
439.75	514.66
440.13	521.33
440.50	527.62
440.87	532.50
441.24	537.96
441.61	543.83
441.98	548.15
442.35	552.90
442.72	557.92
443.09	563.00
443.46	565.87
443.83	567.72
444.20	569.27
444.57	571.64
444.94	572.72
445.31	573.78
445.68	575.27
446.05	575.33
446.42	574.44
446.79	573.28
447.16	571.95
447.53	571.06
447.90	568.13
448.27	565.02
448.64	561.23
449.01	558.21
449.37	553.22
449.74	548.21
450.11	542.81
450.48	536.57
450.85	529.82
451.22	524.22
451.59	518.94
451.96	513.81
452.33	507.08
452.70	500.93
453.07	493.77
453.43	485.98
453.80	479.07
454.17	472.34
454.54	465.94
454.91	459.32
455.28	452.69
455.65	446.43
456.02	440.90
456.38	435.70
456.75	429.32
457.12	423.80
457.49	418.54
457.86	413.09
458.23	408.84
458.59	404.11
458.96	399.40
459.33	395.10
459.70	390.86
460.07	387.52
460.43	383.66
460.80	380.03
461.17	376.97
461.54	373.73
461.91	370.58
462.27	367.31
462.64	364.58
463.01	361.65
463.38	358.85
463.74	355.34
464.11	352.66
464.48	350.39
464.85	348.16
465.21	346.48
465.58	344.58
465.95	342.21
466.32	340.37
466.68	338.41
467.05	336.68
467.42	334.95
467.78	332.94
468.15	331.23
468.52	329.92
468.88	328.09
469.25	326.37
469.62	325.22
469.98	323.99
470.35	322.68
470.72	321.42
471.08	320.15
471.45	319.18
471.82	318.31
472.18	317.16
472.55	316.35
472.92	315.18
473.28	314.29
473.65	313.36
474.02	312.46
474.38	311.83
474.75	311.19
475.11	310.40
475.48	310.00
475.85	309.45
476.21	308.96
476.58	308.64
476.94	308.46
477.31	308.06
477.67	307.89
478.04	307.70
478.41	307.67
478.77	307.97
479.14	307.81
479.50	307.69
479.87	307.83
480.23	307.84
480.60	307.98
480.96	308.11
481.33	308.60
481.69	308.91
482.06	309.15
482.42	309.48
482.79	309.95
483.15	310.36
483.52	310.95
483.88	311.48
484.25	311.94
484.61	312.53
484.98	313.25
485.34	314.01
485.71	314.91
486.07	315.74
486.44	316.30
486.80	317.35
487.17	318.41
487.53	319.71
487.90	321.02
488.26	322.55
488.62	324.10
488.99	325.52
489.35	327.15
489.72	328.95
490.08	330.63
490.44	332.57
490.81	334.55
491.17	336.59
491.54	338.86
491.90	341.27
492.26	343.88
492.63	346.47
492.99	349.01
493.36	351.86
493.72	355.01
494.08	358.15
494.45	361.55
494.81	365.08
495.17	368.55
495.54	372.45
495.90	376.20
496.26	380.20
496.63	384.34
496.99	388.60
497.35	393.13
497.72	398.00
498.08	402.84
498.44	407.93
498.80	413.39
499.17	418.75
499.53	424.41
499.89	430.27
500.26	436.40
500.62	442.78
500.98	449.47
501.34	456.01
501.71	462.86
502.07	469.78
502.43	477.01
502.79	484.33
503.16	492.00
503.52	500.10
503.88	508.21
504.24	516.74
504.60	525.62
504.97	534.57
505.33	543.68
505.69	553.38
506.05	563.07
506.41	572.77
506.78	582.77
507.14	593.36
507.50	603.98
507.86	614.80
508.22	625.97
508.59	637.03
508.95	648.72
509.31	660.94
509.67	673.14
510.03	685.28
510.39	697.93
510.75	710.55
511.12	723.29
511.48	736.47
511.84	749.71
512.20	763.17
512.56	776.79
512.92	790.75
513.28	804.83
513.64	819.26
514.00	833.98
514.37	848.87
514.73	863.39
515.09	878.63
515.45	893.77
515.81	908.63
516.17	923.92
516.53	939.17
516.89	954.17
517.25	969.98
517.61	986.35
517.97	1002.75
518.33	1019.08
518.69	1035.43
519.05	1052.06
519.41	1068.58
519.77	1085.51
520.13	1102.09
520.49	1118.61
520.85	1136.62
521.21	1153.19
521.57	1169.66
521.93	1185.99
522.29	1203.07
522.65	1218.92
523.01	1235.18
523.37	1251.40
523.73	1267.98
524.09	1283.71
524.45	1299.74
524.81	1315.48
525.17	1331.25
525.53	1346.74
525.89	1362.20
526.25	1378.25
526.61	1393.16
526.97	1408.93
527.33	1424.52
527.68	1440.70
528.04	1456.44
528.40	1470.69
528.76	1486.33
529.12	1501.58
529.48	1516.82
529.84	1531.34
530.20	1546.66
530.56	1561.86
530.91	1577.51
531.27	1592.00
531.63	1606.91
531.99	1621.73
532.35	1636.04
532.71	1650.37
533.07	1665.25
533.42	1679.58
533.78	1693.18
534.14	1707.32
534.50	1720.57
534.86	1733.68
535.21	1745.83
535.57	1758.65
535.93	1770.28
536.29	1782.01
536.65	1794.12
537.00	1806.02
537.36	1817.68
537.72	1828.54
538.08	1839.56
538.44	1850.13
538.79	1860.64
539.15	1871.35
539.51	1881.50
539.87	1891.09
540.22	1899.69
540.58	1908.40
540.94	1916.32
541.29	1924.02
541.65	1931.39
542.01	1938.70
542.37	1944.34
542.72	1950.30
543.08	1955.65
543.44	1962.42
543.79	1967.57
544.15	1972.59
544.51	1977.55
544.87	1982.15
545.22	1986.50
545.58	1990.01
545.94	1992.78
546.29	1995.37
546.65	1997.30
547.01	1999.10
547.36	2000.68
547.72	2002.40
548.07	2002.67
548.43	2003.88
548.79	2004.47
549.14	2005.16
549.50	2005.35
549.86	2006.12
550.21	2006.40
550.57	2006.44
550.92	2004.75
551.28	2003.33
551.64	2002.50
551.99	2001.26
552.35	1999.73
552.70	1998.77
553.06	1997.64
553.41	1995.89
553.77	1994.64
554.13	1993.65
554.48	1992.10
554.84	1990.80
555.19	1989.45
555.55	1988.54
555.90	1985.80
556.26	1982.95
556.61	1979.54
556.97	1975.78
557.32	1972.96
557.68	1970.01
558.03	1966.89
558.39	1963.65
558.74	1960.84
559.10	1956.64
559.45	1952.16
559.81	1947.29
560.16	1941.35
560.52	1935.66
560.87	1930.92
561.23	1924.96
561.58	1918.77
561.94	1911.98
562.29	1904.89
562.64	1897.83
563.00	1890.01
563.35	1883.57
563.71	1877.17
564.06	1870.78
564.42	1864.57
564.77	1858.12
565.12	1851.06
565.48	1844.18
565.83	1837.27
566.19	1830.52
566.54	1823.47
566.89	1816.35
567.25	1809.70
567.60	1803.31
567.96	1796.81
568.31	1789.68
568.66	1782.54
569.02	1775.05
569.37	1768.01
569.72	1761.59
570.08	1753.88
570.43	1745.92
570.78	1738.47
571.14	1730.98
571.49	1722.81
571.84	1714.93
572.20	1705.97
572.55	1697.62
572.90	1688.77
573.26	1680.50
573.61	1671.50
573.96	1662.58
574.31	1653.22
574.67	1643.80
575.02	1634.18
575.37	1624.21
575.72	1614.14
576.08	1604.77
576.43	1595.04
576.78	1585.20
577.13	1574.85
577.49	1565.15
577.84	1556.36
578.19	1546.97
578.54	1537.28
578.90	1528.26
579.25	1519.05
579.60	1509.82
579.95	1500.18
580.30	1490.76
580.66	1480.74
581.01	1470.80
581.36	1460.65
581.71	1451.36
582.06	1441.95
582.42	1432.69
582.77	1423.52
583.12	1414.68
583.47	1405.69
583.82	1396.82
584.17	1388.48
584.53	1379.70
584.88	1370.58
585.23	1361.04
585.58	1350.97
585.93	1341.41
586.28	1331.87
586.63	1321.69
586.98	1311.58
587.34	1302.27
587.69	1292.61
588.04	1283.54
588.39	1274.80
588.74	1265.91
589.09	1257.07
589.44	1247.78
589.79	1239.26
590.14	1230.71
590.49	1222.12
590.84	1213.47
591.19	1205.22
591.54	1196.35
591.89	1187.80
592.25	1180.59
592.60	1172.45
592.95	1164.46
593.30	1156.09
593.65	1147.70
594.00	1139.22
594.35	1133.00
594.70	1124.83
595.05	1116.90
595.40	1108.69
595.75	1100.56
596.10	1092.97
596.45	1085.15
596.80	1077.80
597.15	1069.80
597.50	1061.83
597.85	1054.32
598.19	1046.35
598.54	1038.10
598.89	1030.27
599.24	1022.90
599.59	1014.66
599.94	1007.25
600.29	1000.23
600.64	993.38
600.99	986.25
601.34	980.02
601.69	971.81
602.04	965.01
602.39	958.40
602.74	952.11
603.08	945.43
603.43	939.09
603.78	932.47
604.13	925.88
604.48	919.32
604.83	912.59
605.18	905.63
605.53	899.30
605.87	893.30
606.22	887.55
606.57	881.40
606.92	875.06
607.27	869.04
607.62	863.21
607.96	857.46
608.31	851.94
608.66	846.24
609.01	840.52
609.36	834.97
609.70	829.34
610.05	823.53
610.40	818.10
610.75	812.23
611.10	806.74
611.44	800.93
611.79	795.37
612.14	790.23
612.49	785.01
612.83	779.88
613.18	774.72
613.53	769.45
613.88	764.13
614.22	759.01
614.57	753.72
614.92	748.28
615.27	743.16
615.61	737.94
615.96	732.55
616.31	727.51
616.65	722.80
617.00	717.77
617.35	712.82
617.70	707.88
618.04	703.07
618.39	698.23
618.74	693.97
619.08	689.41
619.43	684.52
619.78	679.89
620.12	675.09
620.47	670.27
620.82	665.46
621.16	660.87
621.51	656.70
621.85	652.48
622.20	648.21
622.55	643.60
622.89	639.28
623.24	635.15
623.59	630.93
623.93	626.57
624.28	622.35
624.62	618.72
624.97	614.99
625.32	611.09
625.66	607.15
626.01	602.99
626.35	599.15
626.70	595.50
627.04	591.86
627.39	588.08
627.73	584.60
628.08	581.15
628.43	577.41
628.77	573.65
629.12	569.85
629.46	566.56
629.81	563.39
630.15	560.08
630.50	556.83
630.84	553.50
631.19	550.18
631.53	547.05
631.88	543.30
632.22	539.82
632.57	536.70
632.91	533.48
633.26	530.54
633.60	527.34
633.95	524.05
634.29	520.64
634.64	517.57
634.98	514.27
635.32	511.20
635.67	508.49
636.01	505.62
636.36	502.76
636.70	499.89
637.05	496.95
637.39	494.18
637.73	491.34
638.08	488.51
638.42	485.60
638.77	482.71
639.11	479.87
639.45	476.74
639.80	473.73
640.14	470.98
640.49	468.19
640.83	465.61
641.17	463.26
641.52	460.83
641.86	458.39
642.20	456.24
642.55	453.66
642.89	451.16
643.23	448.71
643.58	446.61
643.92	443.97
644.26	441.66
644.61	439.40
644.95	437.13
645.29	434.76
645.64	432.75
645.98	430.65
646.32	428.60
646.66	426.62
647.01	424.65
647.35	422.75
647.69	420.75
648.04	418.85
648.38	416.81
648.72	414.86
649.06	412.76
649.41	410.60
649.75	408.57
650.09	406.61
650.43	404.66
650.78	402.53
651.12	400.75
651.46	398.76
651.80	396.94
652.14	395.04
652.49	393.39
652.83	391.49
653.17	389.66
653.51	387.74
653.85	386.16
654.20	384.47
654.54	382.73
654.88	380.94
655.22	379.46
655.56	377.75
655.90	376.16
656.25	374.63
656.59	373.11
656.93	371.63
657.27	370.30
657.61	368.71
657.95	367.18
658.29	365.60
658.64	364.16
658.98	362.55
659.32	360.99
659.66	359.51
660.00	358.02
660.34	356.59
660.68	355.29
661.02	353.86
661.36	352.48
661.70	351.03
662.05	349.77
662.39	348.29
662.73	347.10
663.07	346.06
663.41	344.88
663.75	343.58
664.09	342.36
664.43	340.90
664.77	339.71
665.11	338.54
665.45	337.39
665.79	336.25
666.13	335.02
666.47	333.89
666.81	332.77
667.15	331.62
667.49	330.63
667.83	329.71
668.17	328.62
668.51	327.58
668.85	326.68
669.19	325.99
669.53	324.94
669.87	323.91
670.21	322.65
670.55	321.60
670.89	320.70
671.23	319.75
671.57	318.74
671.91	317.79
672.25	316.90
672.58	316.11
672.92	315.10
673.26	314.31
673.60	313.45
673.94	312.66
674.28	311.90
674.62	311.07
674.96	310.12
675.30	309.31
675.64	308.43
675.97	307.58
676.31	306.48
676.65	305.64
676.99	305.01
677.33	304.20
677.67	303.38
678.01	302.42
678.34	301.66
678.68	301.12
679.02	300.44
679.36	299.64
679.70	298.82
680.04	298.22
680.37	297.51
680.71	296.80
681.05	296.03
681.39	295.35
681.73	294.55
682.06	293.87
682.40	293.29
682.74	292.70
683.08	292.17
683.42	291.40
683.75	290.80
684.09	289.91
684.43	289.24
684.77	288.67
685.10	288.16
685.44	287.66
685.78	286.94
686.12	286.23
686.45	285.63
686.79	285.10
687.13	284.53
687.46	284.00
687.80	283.52
688.14	282.88
688.48	282.30
688.81	281.82
689.15	281.48
689.49	280.96
689.82	280.48
690.16	279.81
690.50	279.50
690.83	278.92
691.17	278.47
691.51	278.04
691.84	277.68
692.18	277.17
692.52	276.56
692.85	276.22
693.19	276.04
693.52	275.62
693.86	275.13
694.20	274.73
694.53	274.29
694.87	273.82
695.21	273.44
695.54	273.06
695.88	272.60
696.21	271.94
696.55	271.53
696.88	271.07
697.22	270.59
697.56	270.12
697.89	269.76
698.23	269.39
698.56	268.98
698.90	268.64
699.23	268.23
699.57	267.85
699.90	267.28
700.24	266.74
700.58	266.46
700.91	266.14
701.25	266.15
701.58	266.12
701.92	265.90
702.25	265.55
702.59	265.14
702.92	264.82
703.26	264.49
703.59	264.16
703.93	264.27
704.26	263.99
704.60	263.74
704.93	263.40
705.26	263.03
705.60	262.76
705.93	262.25
706.27	262.05
706.60	261.86
706.94	261.84
707.27	261.51
707.61	261.13
707.94	260.81
708.27	260.13
708.61	259.40
708.94	259.03
709.28	258.70
709.61	258.40
709.94	258.11
710.28	257.88
710.61	257.56
710.95	256.78
711.28	256.79
711.61	256.35
711.95	256.20
712.28	255.85
712.61	255.56
712.95	255.49
713.28	255.45
713.61	255.12
713.95	254.72
714.28	254.48
714.61	254.20
714.95	253.87
715.28	253.52
715.61	253.27
715.95	253.03
716.28	252.74
716.61	252.46
716.95	252.09
717.28	251.81
717.61	251.53
717.94	251.34
718.28	250.82
718.61	250.62
718.94	250.24
719.27	250.06
719.61	249.84
719.94	249.55
720.27	249.00
720.60	248.70
720.94	248.43
721.27	248.24
721.60	248.10
721.93	247.87
722.27	247.87
722.60	247.76
722.93	247.47
723.26	247.37
723.59	247.17
723.93	247.10
724.26	246.87
724.59	246.66
724.92	246.45
725.25	246.36
725.59	246.16
725.92	246.08
726.25	245.96
726.58	245.78
726.91	245.58
727.24	245.50
727.57	245.43
727.91	245.17
728.24	245.02
728.57	244.76
728.90	244.65
729.23	244.32
729.56	244.38
729.89	244.29
730.22	244.14
730.55	244.06
730.89	243.90
731.22	243.85
731.55	243.63
731.88	243.48
732.21	243.20
732.54	243.06
732.87	242.91
733.20	242.71
733.53	242.56
733.86	242.48
734.19	242.30
734.52	242.24
734.85	242.47
735.18	242.36
735.51	242.46
735.84	242.31
736.17	242.34
736.50	241.87
736.83	242.26
737.16	242.09
737.49	241.94
737.82	241.72
738.15	241.57
738.48	241.55
738.81	241.45
739.14	241.30
739.47	241.12
739.80	240.94
740.13	240.80
740.46	240.62
740.79	240.41
741.12	240.28
741.45	239.97
741.78	239.55
742.11	239.45
742.44	239.07
742.77	239.08
743.10	238.85
743.43	238.74
743.75	238.15
744.08	238.65
744.41	238.50
744.74	238.36
745.07	238.15
745.40	238.09
745.73	238.17
746.06	238.13
746.39	238.14
746.71	238.01
747.04	237.97
747.37	237.93
747.70	237.87
748.03	237.82
748.36	237.91
748.68	237.83
749.01	237.60
749.34	237.70
749.67	237.51
750.00	237.50
750.33	237.78
750.65	237.67
750.98	236.97
751.31	236.88
751.64	236.90
751.97	237.13
752.29	236.92
752.62	236.61
752.95	236.46
753.28	236.25
753.60	236.23
753.93	236.22
754.26	236.14
754.59	235.95
754.91	235.83
755.24	235.66
755.57	235.60
755.90	235.50
756.22	235.31
756.55	235.26
756.88	235.08
757.20	234.74
757.53	234.54
757.86	234.48
758.19	234.42
758.51	234.28
758.84	233.95
759.17	233.95
759.49	233.93
759.82	234.09
760.15	234.06
760.47	233.90
760.80	233.67
761.13	233.68
761.45	233.61
761.78	233.52
762.11	233.43
762.43	233.30
762.76	233.21
763.08	233.17
763.41	233.11
763.74	233.00
764.06	232.87
764.39	232.87
764.71	232.80
765.04	232.69
765.37	232.54
765.69	232.41
766.02	232.32
766.34	232.17
766.67	231.88
767.00	231.93
767.32	232.12
767.65	232.36
767.97	232.24
768.30	232.20
768.62	232.10
768.95	232.02
769.27	231.95
769.60	232.02
769.92	231.90
770.25	231.68
770.57	231.56
770.90	231.53
771.22	231.37
771.55	231.29
771.87	231.27
772.20	231.28
772.52	231.62
772.85	232.15
773.17	232.07
773.50	232.06
773.82	231.92
774.15	231.61
774.47	231.24
774.80	231.16
775.12	231.08
775.45	231.07
775.77	231.07
776.09	231.02
776.42	230.93
776.74	231.03
777.07	231.02
777.39	231.05
777.72	230.92
778.04	231.00
778.36	230.95
778.69	230.92
779.01	230.89
779.33	230.47
779.66	229.87
779.98	229.89
780.31	229.82
780.63	230.03
780.95	230.14
781.28	230.12
781.60	230.08
781.92	230.05
782.25	229.99
782.57	229.93
782.89	229.90
783.22	229.83
783.54	229.74
783.86	229.77
784.19	229.73
784.51	229.89
784.83	229.81
785.16	229.73
785.48	229.71
785.80	229.67
786.12	229.69
786.45	229.68
786.77	229.66
787.09	229.62
787.42	229.41
787.74	229.36
788.06	229.36
788.38	229.30
788.71	229.30
789.03	229.33
789.35	229.33
789.67	229.31
789.99	229.26
790.32	229.14
790.64	229.18
790.96	229.53
791.28	229.38
791.61	229.40
791.93	229.45
792.25	229.40
792.57	229.78
792.89	229.68
793.21	229.65
793.54	229.58
793.86	229.55
794.18	229.53
794.50	229.51
794.82	229.46
795.14	229.53
795.47	229.61
795.79	229.60
796.11	229.49
796.43	229.46
796.75	229.50
797.07	229.53
797.39	229.44
797.71	229.05
798.04	229.07
798.36	228.96
798.68	228.93
799.00	228.92
799.32	228.60
799.64	228.68
799.96	228.66
800.28	228.81
800.60	228.80
800.92	228.77
801.24	228.69
801.56	228.84
801.89	228.73
802.21	228.69
802.53	228.59
802.85	228.69
803.17	228.90
803.49	228.81
803.81	228.77
804.13	228.77
804.45	228.80
804.77	228.77
805.09	228.86
805.41	228.78
805.73	228.77
806.05	228.71
806.37	228.71
806.69	228.68
807.01	228.59
807.33	228.56
807.65	228.45
807.97	228.64
808.28	228.40
808.60	228.35
808.92	228.22
809.24	228.45
809.56	228.37
809.88	228.09
810.20	228.09
810.52	228.22
810.84	228.15
811.16	227.97
811.48	227.94
811.80	228.08
812.12	228.05
812.43	228.15
812.75	228.18
813.07	228.10
813.39	228.07
813.71	227.99
814.03	227.89
814.35	227.85
814.67	227.65
814.98	227.71
815.30	227.79
815.62	227.70
815.94	227.46
816.26	227.68
816.58	227.60
816.89	227.67
817.21	227.49
817.53	227.49
817.85	227.63
818.17	227.50
818.48	227.22
818.80	227.31
819.12	227.08
819.44	226.95
819.76	226.89
820.07	226.84
820.39	226.81
820.71	226.88
821.03	226.88
821.34	226.83
821.66	226.86
821.98	226.89
822.30	226.91
822.61	227.10
822.93	226.83
823.25	226.88
823.57	226.75
823.88	226.80
824.20	226.78
824.52	226.79
824.83	226.79
825.15	226.76
825.47	226.70
825.79	226.81
826.10	226.81
826.42	226.81
826.74	226.90
827.05	226.90
827.37	226.85
827.69	226.90
828.00	226.94
828.32	226.90
828.64	226.84
828.95	227.11
829.27	227.05
829.58	226.97
829.90	227.00
830.22	227.04
830.53	227.01
830.85	226.97
831.17	226.89
831.48	227.02
831.80	227.09
832.11	227.04
832.43	227.02
832.75	226.99
833.06	227.25
833.38	227.16
833.69	227.17
834.01	227.23
834.32	227.16
834.64	227.17
834.96	227.19
835.27	227.16
835.59	226.95
835.90	226.82
836.22	226.92
836.53	226.87
836.85	226.84
837.16	227.25
837.48	227.27
837.79	227.43
838.11	227.41
838.42	227.36
838.74	227.48
839.05	227.36
839.37	227.34
839.68	227.07
840.00	227.08
840.31	227.08
840.63	227.04
840.94	226.99
841.26	226.88
841.57	226.87
841.88	226.94
842.20	226.88
842.51	226.85
842.83	226.85
843.14	227.29
843.46	227.33
843.77	227.10
844.08	227.12
844.40	226.93
844.71	226.87
845.03	226.89
845.34	226.83
845.65	226.88
845.97	226.91
846.28	226.93
846.60	226.96
846.91	226.92
847.22	226.92
847.54	227.05
847.85	227.06
848.16	226.97
848.48	226.82
848.79	227.07
849.10	227.13
849.42	227.11
849.73	226.66
850.04	226.60
850.36	226.36
850.67	226.37
850.98	226.38
851.30	226.43
851.61	226.34
851.92	226.24
852.23	226.39
852.55	226.42
852.86	226.42
853.17	226.39
853.49	226.48
853.80	226.54
854.11	226.54
854.42	226.62
854.74	226.57
855.05	226.60
855.36	226.36
855.67	226.35
855.99	226.37
856.30	226.92
856.61	226.86
856.92	226.89
857.23	226.93
857.55	226.92
857.86	226.86
858.17	226.99
858.48	226.98
858.79	226.84
859.11	226.89
859.42	226.87
859.73	226.79
860.04	226.77
860.35	226.73
860.66	226.60
860.98	226.59
861.29	226.65
861.60	226.62
861.91	226.66
862.22	226.63
862.53	226.51
862.84	225.96
863.16	226.09
863.47	226.03
863.78	226.03
864.09	226.00
864.40	226.04
864.71	226.06
865.02	226.19
865.33	226.14
865.64	226.03
865.95	226.06
866.27	226.39
866.58	226.34
866.89	226.35
867.20	226.28
867.51	226.17
867.82	226.20
868.13	226.37
868.44	226.33
868.75	226.40
869.06	226.42
869.37	226.50
869.68	226.35
869.99	226.44
870.30	226.42
870.61	226.50
870.92	226.41
871.23	226.36
871.54	226.36
871.85	226.51
872.16	226.56
872.47	226.52
872.78	226.22
873.09	226.25
873.40	226.23
873.71	226.36
874.02	226.39
874.33	226.34
874.64	226.19
874.95	226.27
875.26	226.07
875.56	226.12
875.87	226.11
876.18	226.14
876.49	226.61
876.80	226.58
877.11	226.54
877.42	226.60
877.73	226.62
878.04	226.62
878.35	226.56
878.66	226.61
878.96	226.53
879.27	226.57
879.58	226.57
879.89	226.52
880.20	226.59
880.51	226.65
880.82	226.69
881.12	226.77
881.43	226.67
881.74	226.70
882.05	226.70
882.36	226.70
882.67	226.78
882.97	226.28
883.28	226.19
883.59	226.18
883.90	226.24
884.21	226.29
884.51	226.28
884.82	226.19
885.13	226.16
885.44	226.21
885.74	226.19
886.05	226.20
886.36	226.20
886.67	226.05
886.98	226.21
887.28	226.23
887.59	226.21
887.90	226.17
888.20	226.19
888.51	226.25
888.82	226.16
889.13	226.14
889.43	226.55
889.74	226.54
890.05	226.45
890.35	226.38
890.66	226.28
890.97	226.19
891.28	226.24
891.58	226.28
891.89	226.32
892.20	226.27
892.50	226.19
892.81	226.22
893.12	226.27
893.42	226.15
893.73	226.12
894.04	226.06
894.34	226.15
894.65	226.11
894.95	225.99
895.26	226.03
895.57	226.26
895.87	225.76
896.18	225.88
896.48	225.98
896.79	225.99
897.10	226.05
897.40	226.05
897.71	226.07
898.01	225.97
898.32	226.00
898.63	225.99
898.93	226.00
899.24	225.95
899.54	225.91
899.85	225.78
900.15	225.78
900.46	225.83
900.76	225.89
901.07	225.93
901.38	226.02
901.68	226.08
901.99	225.80
902.29	225.85
902.60	225.80
902.90	225.75
903.21	225.70
903.51	225.65
903.82	225.79
904.12	225.80
904.43	225.88
904.73	225.81
905.03	225.83
905.34	226.33
905.64	226.32
905.95	226.28
906.25	226.31
906.56	226.33
906.86	226.34
907.17	226.26
907.47	226.26
907.77	226.19
908.08	226.11
908.38	226.19
908.69	226.15
908.99	226.24
909.30	226.32
909.60	226.35
909.90	226.40
910.21	226.15
910.51	226.06
910.81	226.03
911.12	226.14
911.42	226.15
911.73	225.64
912.03	225.74
912.33	225.89
912.64	225.84
912.94	225.87
913.24	225.80
913.55	225.79
913.85	225.78
914.15	225.90
914.46	225.93
914.76	225.83
915.06	225.91
915.37	225.81
915.67	225.76
915.97	225.79
916.27	225.77
916.58	225.85
916.88	225.84
917.18	225.81
917.49	226.04
917.79	226.02
918.09	226.10
918.39	226.15
918.70	226.11
919.00	226.14
919.30	226.24
919.60	226.26
919.91	226.20
920.21	226.18
920.51	226.14
920.81	226.07
921.12	226.11
921.42	226.06
921.72	226.07
922.02	226.06
922.32	226.11
922.63	226.09
922.93	226.36
923.23	226.43
923.53	226.39
923.83	226.04
924.13	226.02
924.44	226.03
924.74	226.03
925.04	226.12
925.34	226.17
925.64	226.04
925.94	226.00
926.24	226.33
926.55	226.28
926.85	226.31
927.15	226.36
927.45	226.43
927.75	226.40
928.05	226.38
928.35	226.36
928.65	226.42
928.95	226.38
929.26	226.18
929.56	226.22
929.86	226.30
930.16	226.32
930.46	226.29
930.76	226.21
931.06	225.97
931.36	225.75
931.66	225.80
931.96	225.77
932.26	225.80
932.56	225.48
932.86	225.53
933.16	225.48
933.46	225.45
933.76	225.36
934.06	225.52
934.36	225.68
934.66	225.61
934.96	225.56
935.26	225.61
935.56	225.68
935.86	225.57
936.16	225.50
936.46	225.49
936.76	225.49
937.06	225.47
937.36	225.60
937.66	225.69
937.96	225.64
938.26	225.57
938.56	225.50
938.86	225.56
939.16	225.68
939.46	225.75
939.76	225.83
940.06	225.80
940.35	225.68
940.65	225.50
940.95	225.56
941.25	225.38
941.55	225.36
941.85	225.31
942.15	225.48
942.45	225.62
942.75	225.61
943.04	225.63
943.34	225.76
943.64	225.76
943.94	225.71
944.24	225.70
944.54	225.73
944.84	225.74
945.13	225.67
945.43	225.60
945.73	225.57
946.03	225.50
946.33	225.42
946.62	225.41
946.92	225.40
947.22	225.44
947.52	225.52
947.82	225.57
948.11	225.51
948.41	225.38
948.71	225.25
949.01	225.30
949.31	225.33
949.60	225.28
949.90	225.31
950.20	225.39
950.50	225.43
950.79	225.38
951.09	225.54
951.39	225.60
951.69	225.57
951.98	225.68
952.28	225.65
952.58	225.67
952.87	225.68
953.17	225.73
953.47	225.69
953.76	225.74
954.06	225.62
954.36	225.55
954.66	225.56
954.95	225.66
955.25	225.71
955.55	225.70
955.84	225.66
956.14	225.71
956.44	225.67
956.73	225.59
957.03	225.64
957.32	225.60
957.62	225.55
957.92	225.66
958.21	225.59
958.51	226.19
958.81	226.31
959.10	226.38
959.40	226.55
959.69	226.63
959.99	226.71
960.29	226.82
960.58	226.86
960.88	227.05
961.17	227.00
961.47	227.02
961.76	226.97
962.06	227.02
962.36	226.92
962.65	226.95
962.95	226.95
963.24	226.98
963.54	227.04
963.83	227.06
964.13	226.95
964.42	226.85
964.72	226.44
965.01	226.50
965.31	226.46
965.60	226.29
965.90	226.56
966.19	226.48
966.49	226.41
966.78	226.43
967.08	226.35
967.37	226.35
967.67	226.24
967.96	226.40
968.26	226.38
968.55	226.47
968.85	226.50
969.14	226.56
969.43	226.48
969.73	226.44
970.02	226.48
970.32	226.50
970.61	226.47
970.91	226.32
971.20	226.21
971.49	226.18
971.79	226.24
972.08	225.87
972.38	225.83
972.67	225.87
972.96	225.89
973.26	225.82
973.55	225.96
973.85	225.98
974.14	225.86
974.43	225.93
974.73	225.85
975.02	225.74
975.31	225.63
975.61	225.62
975.90	225.52
976.19	225.44
976.49	225.50
976.78	225.51
977.07	225.54
977.37	225.57
977.66	225.61
977.95	225.54
978.24	225.52
978.54	225.62
978.83	225.51
979.12	225.47
979.42	225.44
979.71	225.39
980.00	225.39
980.29	225.49
980.59	225.37
980.88	225.53
981.17	225.58
981.46	225.58
981.76	225.62
982.05	225.77
982.34	225.85
982.63	225.75
982.93	225.78
983.22	225.87
983.51	225.92
983.80	225.95
984.09	226.01
984.39	226.02
984.68	225.98
984.97	226.03
985.26	225.99
985.55	226.02
985.85	225.81
986.14	225.90
986.43	225.87
986.72	225.83
987.01	225.64
987.30	225.62
987.59	225.66
987.89	225.68
988.18	225.54
988.47	225.41
988.76	225.39
989.05	225.36
989.34	225.34
989.63	225.39
989.92	225.29
990.22	225.14
990.51	225.16
990.80	225.16
991.09	225.30
991.38	225.35
991.67	225.34
991.96	225.35
992.25	225.28
992.54	225.22
992.83	225.27
993.12	225.28
993.41	225.33
993.70	225.49
993.99	225.57
994.28	225.60
994.58	225.68
994.87	225.68
995.16	225.68
995.45	225.60
995.74	225.37
996.03	225.45
996.32	225.59
996.61	225.67
996.90	225.64
997.19	225.54
997.48	225.56
997.77	225.42
998.06	225.49
998.34	225.47
998.63	225.50
998.92	225.43
999.21	225.48
999.50	225.51
999.79	225.36
1000.08	225.40
1000.37	225.42
1000.66	225.30
1000.95	225.42
1001.24	225.48
1001.53	225.53
1001.82	225.59
1002.11	225.49
1002.40	225.56
1002.68	225.76
1002.97	226.09
1003.26	225.96
1003.55	225.94
1003.84	226.03
1004.13	226.20
1004.42	226.20
1004.71	226.19
1004.99	226.22
1005.28	226.34
1005.57	226.22
1005.86	226.22
1006.15	226.12
1006.44	226.07
1006.72	226.22
1007.01	226.12
1007.30	226.04
1007.59	225.97
1007.88	225.93
1008.17	226.03
1008.45	225.88
1008.74	225.60
1009.03	225.37
1009.32	225.40
1009.60	225.40
1009.89	225.37
1010.18	225.15
1010.47	225.14
1010.76	225.13
1011.04	225.14
1011.33	225.13
1011.62	225.21
1011.91	225.19
1012.19	225.25
1012.48	225.33
1012.77	225.33
1013.05	225.57
1013.34	225.55
1013.63	225.60
1013.92	225.67
1014.20	225.64
1014.49	225.64
1014.78	225.70
1015.06	225.59
1015.35	225.62
1015.64	225.66
1015.92	225.80
1016.21	225.87
1016.50	225.80
1016.78	225.80
1017.07	225.91
1017.36	225.82
1017.64	225.71
1017.93	225.71
1018.22	225.61
1018.50	225.54
1018.79	225.46
1019.08	225.21
1019.36	225.27
1019.65	225.17
1019.93	225.25
1020.22	225.27
1020.51	225.49
1020.79	225.35
1021.08	223.95
1021.36	224.85
1021.65	224.25
1021.94	225.20
1022.22	225.30
1022.51	223.80
1022.79	227.00
1023.08	225.65
1023.36	230.15
1023.65	223.25
>>>>>End Processed Spectral Data<<<<<
