SpectraSuite Data File
++++++++++++++++++++++++++++++++++++
Date: Wed Sep 04 18:04:38 EDT 2013
User: lab3
Dark Spectrum Present: Yes
Reference Spectrum Present: No
Number of Sampled Component Spectra: 1
Spectrometers: USB2E7196
Integration Time (usec): 170000 (USB2E7196)
Spectra Averaged: 20 (USB2E7196)
Boxcar Smoothing: 10 (USB2E7196)
Correct for Electrical Dark: No (USB2E7196)
Strobe/Lamp Enabled: No (USB2E7196)
Correct for Detector Non-linearity: No (USB2E7196)
Correct for Stray Light: No (USB2E7196)
Number of Pixels in Processed Spectrum: 2048
>>>>>Begin Processed Spectral Data<<<<<
339.09	0.00
339.48	212.90
339.86	215.35
340.24	216.00
340.63	217.70
341.01	226.50
341.39	220.90
341.78	223.10
342.16	225.10
342.54	222.55
342.93	212.69
343.31	223.37
343.69	223.91
344.07	224.35
344.46	224.86
344.84	225.29
345.22	225.27
345.60	225.56
345.99	225.75
346.37	225.80
346.75	225.96
347.13	226.07
347.52	226.20
347.90	226.45
348.28	226.47
348.66	226.70
349.05	226.58
349.43	226.65
349.81	226.71
350.19	226.79
350.57	226.86
350.96	226.95
351.34	227.11
351.72	227.21
352.10	227.29
352.48	227.28
352.87	227.28
353.25	227.33
353.63	227.35
354.01	227.35
354.39	227.47
354.77	227.55
355.15	227.70
355.54	227.69
355.92	227.55
356.30	227.60
356.68	227.85
357.06	227.96
357.44	227.98
357.82	228.05
358.20	228.53
358.58	228.57
358.97	228.65
359.35	228.81
359.73	228.99
360.11	229.07
360.49	229.18
360.87	229.20
361.25	229.31
361.63	229.55
362.01	229.63
362.39	229.55
362.77	229.62
363.15	229.61
363.53	229.65
363.91	229.70
364.29	229.68
364.67	229.31
365.05	229.31
365.43	229.40
365.81	229.52
366.19	229.42
366.57	229.60
366.95	229.58
367.33	229.38
367.71	229.40
368.09	229.57
368.47	229.55
368.85	229.60
369.23	229.67
369.61	229.51
369.99	229.67
370.37	229.74
370.75	229.94
371.13	229.91
371.51	229.92
371.89	229.95
372.27	230.00
372.65	230.07
373.03	230.10
373.41	230.04
373.78	229.89
374.16	229.59
374.54	229.44
374.92	229.29
375.30	229.35
375.68	229.20
376.06	229.15
376.44	229.05
376.82	229.06
377.19	229.01
377.57	228.96
377.95	228.78
378.33	228.76
378.71	228.38
379.09	228.37
379.47	228.35
379.84	228.24
380.22	228.18
380.60	227.97
380.98	227.84
381.36	227.76
381.73	227.70
382.11	227.70
382.49	227.64
382.87	227.56
383.25	227.53
383.62	228.07
384.00	227.85
384.38	227.88
384.76	227.91
385.13	227.99
385.51	227.90
385.89	227.80
386.27	227.73
386.64	227.89
387.02	227.73
387.40	227.62
387.78	227.66
388.15	227.58
388.53	227.52
388.91	227.49
389.29	227.40
389.66	227.46
390.04	227.39
390.42	227.43
390.79	227.50
391.17	227.43
391.55	226.84
391.92	226.91
392.30	226.95
392.68	226.82
393.05	226.81
393.43	226.84
393.81	226.79
394.18	226.78
394.56	226.74
394.94	226.90
395.31	226.88
395.69	226.91
396.06	227.09
396.44	227.20
396.82	227.21
397.19	227.54
397.57	227.51
397.95	227.60
398.32	227.52
398.70	227.62
399.07	227.84
399.45	227.91
399.82	227.99
400.20	228.03
400.58	228.12
400.95	227.98
401.33	228.13
401.70	228.62
402.08	228.79
402.45	228.86
402.83	229.06
403.20	229.24
403.58	229.42
403.95	229.65
404.33	229.88
404.71	230.09
405.08	230.54
405.46	230.76
405.83	231.11
406.21	231.37
406.58	231.66
406.96	231.83
407.33	232.14
407.70	232.51
408.08	233.17
408.45	233.65
408.83	234.14
409.20	234.52
409.58	234.65
409.95	235.14
410.33	235.74
410.70	236.11
411.08	236.78
411.45	237.41
411.82	237.94
412.20	238.75
412.57	239.77
412.95	240.08
413.32	241.00
413.69	241.78
414.07	242.67
414.44	243.64
414.82	244.71
415.19	245.94
415.56	247.04
415.94	248.11
416.31	249.50
416.68	250.88
417.06	252.57
417.43	254.19
417.81	255.99
418.18	257.78
418.55	259.75
418.93	261.81
419.30	263.82
419.67	266.05
420.04	268.28
420.42	270.52
420.79	273.63
421.16	276.36
421.54	279.43
421.91	282.49
422.28	285.60
422.66	288.83
423.03	292.30
423.40	295.72
423.77	299.23
424.15	302.84
424.52	306.75
424.89	310.90
425.26	314.92
425.64	318.71
426.01	322.99
426.38	327.42
426.75	331.86
427.13	336.55
427.50	341.39
427.87	346.37
428.24	351.39
428.61	355.80
428.99	361.18
429.36	366.70
429.73	372.18
430.10	377.76
430.47	383.48
430.85	389.19
431.22	395.39
431.59	402.34
431.96	408.64
432.33	415.55
432.70	422.24
433.08	430.16
433.45	437.60
433.82	445.11
434.19	453.46
434.56	461.55
434.93	469.24
435.30	476.97
435.68	485.53
436.05	493.94
436.42	502.40
436.79	510.17
437.16	518.45
437.53	527.24
437.90	535.96
438.27	544.70
438.64	553.72
439.01	562.06
439.38	569.13
439.75	576.28
440.13	584.40
440.50	591.94
440.87	597.97
441.24	604.42
441.61	611.34
441.98	616.43
442.35	622.30
442.72	628.41
443.09	634.35
443.46	637.81
443.83	640.17
444.20	642.20
444.57	644.82
444.94	646.11
445.31	647.29
445.68	648.61
446.05	648.69
446.42	647.30
446.79	645.89
447.16	644.16
447.53	642.87
447.90	639.10
448.27	635.58
448.64	630.78
449.01	626.98
449.37	620.75
449.74	614.54
450.11	607.74
450.48	599.96
450.85	591.89
451.22	584.99
451.59	578.36
451.96	572.07
452.33	563.94
452.70	556.49
453.07	547.76
453.43	538.69
453.80	530.28
454.17	522.19
454.54	514.39
454.91	506.27
455.28	498.37
455.65	490.91
456.02	483.90
456.38	477.54
456.75	469.78
457.12	463.25
457.49	456.94
457.86	450.43
458.23	445.17
458.59	439.40
458.96	433.69
459.33	428.41
459.70	423.22
460.07	419.07
460.43	414.38
460.80	410.20
461.17	406.31
461.54	402.30
461.91	398.45
462.27	394.67
462.64	391.44
463.01	387.75
463.38	384.38
463.74	380.37
464.11	377.28
464.48	374.70
464.85	371.79
465.21	369.70
465.58	367.43
465.95	364.54
466.32	362.30
466.68	359.90
467.05	357.91
467.42	355.66
467.78	353.34
468.15	351.20
468.52	349.49
468.88	347.39
469.25	345.34
469.62	343.88
469.98	342.24
470.35	340.72
470.72	339.34
471.08	337.70
471.45	336.40
471.82	335.12
472.18	333.64
472.55	332.58
472.92	331.22
473.28	330.11
473.65	329.12
474.02	328.00
474.38	327.17
474.75	326.27
475.11	325.42
475.48	324.84
475.85	324.15
476.21	323.55
476.58	322.98
476.94	322.81
477.31	322.25
477.67	321.84
478.04	321.53
478.41	321.29
478.77	321.56
479.14	321.30
479.50	321.22
479.87	321.23
480.23	321.30
480.60	321.24
480.96	321.27
481.33	321.61
481.69	321.95
482.06	322.24
482.42	322.46
482.79	322.82
483.15	323.27
483.52	323.87
483.88	324.33
484.25	324.95
484.61	325.46
484.98	326.20
485.34	327.15
485.71	328.05
486.07	329.01
486.44	329.58
486.80	330.63
487.17	331.73
487.53	333.08
487.90	334.55
488.26	336.30
488.62	338.05
488.99	339.50
489.35	341.28
489.72	343.20
490.08	345.25
490.44	347.26
490.81	349.44
491.17	351.67
491.54	354.17
491.90	356.81
492.26	359.51
492.63	362.28
492.99	364.98
493.36	368.12
493.72	371.34
494.08	374.77
494.45	378.56
494.81	382.50
495.17	386.41
495.54	390.53
495.90	394.73
496.26	399.19
496.63	403.97
496.99	408.70
497.35	413.66
497.72	418.97
498.08	424.47
498.44	430.15
498.80	436.14
499.17	442.12
499.53	448.41
499.89	455.08
500.26	461.95
500.62	469.10
500.98	476.54
501.34	484.15
501.71	491.99
502.07	499.70
502.43	507.74
502.79	516.00
503.16	524.66
503.52	533.69
503.88	542.97
504.24	552.73
504.60	562.80
504.97	573.13
505.33	583.59
505.69	594.76
506.05	605.86
506.41	617.07
506.78	628.71
507.14	640.65
507.50	653.16
507.86	665.81
508.22	678.86
508.59	691.82
508.95	705.40
509.31	719.57
509.67	733.93
510.03	748.22
510.39	763.18
510.75	778.39
511.12	793.51
511.48	808.95
511.84	824.67
512.20	840.48
512.56	856.94
512.92	873.61
513.28	890.18
513.64	907.52
514.00	925.26
514.37	942.96
514.73	961.11
515.09	979.27
515.45	997.72
515.81	1016.22
516.17	1035.00
516.53	1053.96
516.89	1072.69
517.25	1092.14
517.61	1112.77
517.97	1132.98
518.33	1152.92
518.69	1173.28
519.05	1193.91
519.41	1214.55
519.77	1235.70
520.13	1256.46
520.49	1277.39
520.85	1299.95
521.21	1321.02
521.57	1342.57
521.93	1363.60
522.29	1385.12
522.65	1405.90
523.01	1426.97
523.37	1447.60
523.73	1468.68
524.09	1489.11
524.45	1509.90
524.81	1530.75
525.17	1551.14
525.53	1571.90
525.89	1592.84
526.25	1613.84
526.61	1634.52
526.97	1655.80
527.33	1677.15
527.68	1699.16
528.04	1720.45
528.40	1740.12
528.76	1761.46
529.12	1781.63
529.48	1802.48
529.84	1822.51
530.20	1843.48
530.56	1864.27
530.91	1885.48
531.27	1906.36
531.63	1927.35
531.99	1948.33
532.35	1968.72
532.71	1989.14
533.07	2009.79
533.42	2029.78
533.78	2049.80
534.14	2069.88
534.50	2088.92
534.86	2108.27
535.21	2125.82
535.57	2144.51
535.93	2162.41
536.29	2180.24
536.65	2198.61
537.00	2216.27
537.36	2234.05
537.72	2250.74
538.08	2268.21
538.44	2284.85
538.79	2301.38
539.15	2317.93
539.51	2333.81
539.87	2349.63
540.22	2363.78
540.58	2378.18
540.94	2391.93
541.29	2404.94
541.65	2417.66
542.01	2430.41
542.37	2441.14
542.72	2452.69
543.08	2463.70
543.44	2475.51
543.79	2485.49
544.15	2495.25
544.51	2505.60
544.87	2515.33
545.22	2524.50
545.58	2532.24
545.94	2539.60
546.29	2546.25
546.65	2552.77
547.01	2558.41
547.36	2563.69
547.72	2569.47
548.07	2573.70
548.43	2578.89
548.79	2583.59
549.14	2587.70
549.50	2591.46
549.86	2595.79
550.21	2599.48
550.57	2602.67
550.92	2604.26
551.28	2605.80
551.64	2608.01
551.99	2610.42
552.35	2612.07
552.70	2613.79
553.06	2615.33
553.41	2616.74
553.77	2618.87
554.13	2620.53
554.48	2622.28
554.84	2623.82
555.19	2624.79
555.55	2626.41
555.90	2625.89
556.26	2624.94
556.61	2623.70
556.97	2621.98
557.32	2621.27
557.68	2619.99
558.03	2618.35
558.39	2617.19
558.74	2616.66
559.10	2614.08
559.45	2610.16
559.81	2605.88
560.16	2601.25
560.52	2596.94
560.87	2592.64
561.23	2586.87
561.58	2580.62
561.94	2573.78
562.29	2566.32
562.64	2559.80
563.00	2551.84
563.35	2545.35
563.71	2538.92
564.06	2532.65
564.42	2525.72
564.77	2518.60
565.12	2510.96
565.48	2503.47
565.83	2495.69
566.19	2487.52
566.54	2480.03
566.89	2472.03
567.25	2464.43
567.60	2457.09
567.96	2449.01
568.31	2441.10
568.66	2432.40
569.02	2423.60
569.37	2415.53
569.72	2407.95
570.08	2398.27
570.43	2388.56
570.78	2379.34
571.14	2369.91
571.49	2359.50
571.84	2350.31
572.20	2339.27
572.55	2329.48
572.90	2318.73
573.26	2308.38
573.61	2297.25
573.96	2285.68
574.31	2273.70
574.67	2261.66
575.02	2248.83
575.37	2236.21
575.72	2223.05
576.08	2210.70
576.43	2198.28
576.78	2185.09
577.13	2171.22
577.49	2158.54
577.84	2146.51
578.19	2134.38
578.54	2122.03
578.90	2110.00
579.25	2097.30
579.60	2085.21
579.95	2071.89
580.30	2058.67
580.66	2045.02
581.01	2031.42
581.36	2017.44
581.71	2004.80
582.06	1991.91
582.42	1979.72
582.77	1967.17
583.12	1954.87
583.47	1942.67
583.82	1930.54
584.17	1918.48
584.53	1906.54
584.88	1893.59
585.23	1880.78
585.58	1866.48
585.93	1852.85
586.28	1839.34
586.63	1825.23
586.98	1810.84
587.34	1797.56
587.69	1784.11
588.04	1771.05
588.39	1758.93
588.74	1746.61
589.09	1734.32
589.44	1721.52
589.79	1709.20
590.14	1697.16
590.49	1685.12
590.84	1672.69
591.19	1660.46
591.54	1648.27
591.89	1636.04
592.25	1625.95
592.60	1614.16
592.95	1602.82
593.30	1590.94
593.65	1579.37
594.00	1567.67
594.35	1557.68
594.70	1545.76
595.05	1534.53
595.40	1522.87
595.75	1510.78
596.10	1499.50
596.45	1487.86
596.80	1476.96
597.15	1465.37
597.50	1453.43
597.85	1441.82
598.19	1430.13
598.54	1418.42
598.89	1406.83
599.24	1396.12
599.59	1384.32
599.94	1373.32
600.29	1362.54
600.64	1352.04
600.99	1340.93
601.34	1331.27
601.69	1320.09
602.04	1310.16
602.39	1300.25
602.74	1290.86
603.08	1281.60
603.43	1272.25
603.78	1262.50
604.13	1252.79
604.48	1242.95
604.83	1233.32
605.18	1223.41
605.53	1213.97
605.87	1204.81
606.22	1196.16
606.57	1186.73
606.92	1177.00
607.27	1167.76
607.62	1158.83
607.96	1150.00
608.31	1141.84
608.66	1133.37
609.01	1124.76
609.36	1116.10
609.70	1107.36
610.05	1098.27
610.40	1089.37
610.75	1080.41
611.10	1071.93
611.44	1063.05
611.79	1054.71
612.14	1046.70
612.49	1038.77
612.83	1031.36
613.18	1023.38
613.53	1015.54
613.88	1007.50
614.22	999.95
614.57	992.17
614.92	984.36
615.27	976.92
615.61	969.19
615.96	961.29
616.31	953.65
616.65	946.60
617.00	939.34
617.35	932.35
617.70	925.22
618.04	918.07
618.39	911.07
618.74	904.55
619.08	897.64
619.43	890.40
619.78	883.46
620.12	876.20
620.47	869.37
620.82	862.14
621.16	855.18
621.51	848.65
621.85	842.28
622.20	835.68
622.55	828.89
622.89	822.40
623.24	815.91
623.59	809.47
623.93	802.81
624.28	796.45
624.62	790.63
624.97	784.75
625.32	778.93
625.66	772.80
626.01	766.50
626.35	760.99
626.70	755.59
627.04	750.14
627.39	744.36
627.73	738.87
628.08	733.59
628.43	728.33
628.77	722.81
629.12	717.54
629.46	712.70
629.81	707.95
630.15	703.08
630.50	698.20
630.84	693.28
631.19	688.53
631.53	683.96
631.88	678.73
632.22	673.73
632.57	668.98
632.91	664.44
633.26	660.12
633.60	655.28
633.95	650.38
634.29	645.45
634.64	641.03
634.98	636.12
635.32	631.71
635.67	627.65
636.01	623.44
636.36	619.01
636.70	614.98
637.05	610.66
637.39	606.43
637.73	602.30
638.08	598.32
638.42	594.21
638.77	589.92
639.11	585.45
639.45	581.32
639.80	577.01
640.14	572.77
640.49	568.84
640.83	565.04
641.17	561.38
641.52	557.82
641.86	554.25
642.20	551.16
642.55	547.46
642.89	543.83
643.23	540.44
643.58	537.29
643.92	533.42
644.26	530.07
644.61	526.86
644.95	523.49
645.29	520.01
645.64	516.80
645.98	513.67
646.32	510.94
646.66	507.71
647.01	504.85
647.35	502.17
647.69	499.16
648.04	496.32
648.38	493.50
648.72	490.50
649.06	487.38
649.41	484.19
649.75	481.03
650.09	478.10
650.43	475.04
650.78	472.06
651.12	469.34
651.46	466.44
651.80	463.63
652.14	460.83
652.49	458.39
652.83	455.74
653.17	453.03
653.51	450.27
653.85	447.83
654.20	445.27
654.54	442.55
654.88	440.00
655.22	437.71
655.56	435.18
655.90	432.74
656.25	430.53
656.59	428.33
656.93	426.34
657.27	424.22
657.61	421.78
657.95	419.60
658.29	417.36
658.64	415.30
658.98	413.02
659.32	410.82
659.66	408.45
660.00	406.36
660.34	404.23
660.68	402.19
661.02	400.19
661.36	398.17
661.70	396.20
662.05	394.20
662.39	392.12
662.73	390.32
663.07	388.82
663.41	387.00
663.75	385.03
664.09	383.20
664.43	381.26
664.77	379.64
665.11	377.83
665.45	376.19
665.79	374.49
666.13	372.80
666.47	371.14
666.81	369.56
667.15	367.77
667.49	366.32
667.83	364.87
668.17	363.36
668.51	361.88
668.85	360.56
669.19	359.41
669.53	357.82
669.87	356.22
670.21	354.57
670.55	353.11
670.89	352.07
671.23	350.61
671.57	349.24
671.91	347.88
672.25	346.57
672.58	345.33
672.92	343.87
673.26	342.60
673.60	341.38
673.94	340.09
674.28	339.07
674.62	337.98
674.96	336.70
675.30	335.52
675.64	334.27
675.97	333.00
676.31	331.55
676.65	330.50
676.99	329.55
677.33	328.41
677.67	327.39
678.01	325.96
678.34	324.90
678.68	323.95
679.02	322.93
679.36	321.91
679.70	320.91
680.04	319.95
680.37	318.97
680.71	317.95
681.05	317.20
681.39	316.30
681.73	315.21
682.06	314.30
682.40	313.42
682.74	312.60
683.08	311.86
683.42	311.03
683.75	310.23
684.09	309.26
684.43	308.45
684.77	307.56
685.10	306.77
685.44	305.98
685.78	305.08
686.12	304.26
686.45	303.45
686.79	302.53
687.13	301.90
687.46	301.24
687.80	300.64
688.14	299.75
688.48	298.90
688.81	298.11
689.15	297.45
689.49	296.70
689.82	296.02
690.16	295.16
690.50	294.42
690.83	293.66
691.17	292.87
691.51	292.15
691.84	291.53
692.18	290.73
692.52	290.02
692.85	289.38
693.19	288.90
693.52	288.29
693.86	287.58
694.20	286.80
694.53	286.18
694.87	285.52
695.21	284.89
695.54	284.24
695.88	283.63
696.21	282.87
696.55	282.30
696.88	281.67
697.22	281.06
697.56	280.57
697.89	279.99
698.23	279.60
698.56	279.00
698.90	278.51
699.23	278.08
699.57	277.60
699.90	277.05
700.24	276.30
700.58	275.87
700.91	275.54
701.25	275.49
701.58	275.29
701.92	274.92
702.25	274.50
702.59	274.09
702.92	273.68
703.26	273.33
703.59	272.84
703.93	272.88
704.26	272.49
704.60	272.11
704.93	271.72
705.26	271.25
705.60	270.99
705.93	270.49
706.27	270.17
706.60	269.91
706.94	269.68
707.27	269.38
707.61	269.00
707.94	268.60
708.27	267.88
708.61	267.13
708.94	266.59
709.28	266.22
709.61	265.79
709.94	265.47
710.28	265.09
710.61	264.71
710.95	263.91
711.28	263.89
711.61	263.41
711.95	263.15
712.28	262.74
712.61	262.38
712.95	262.24
713.28	262.12
713.61	261.67
713.95	261.20
714.28	260.91
714.61	260.49
714.95	260.09
715.28	259.67
715.61	259.36
715.95	259.13
716.28	258.67
716.61	258.50
716.95	258.10
717.28	257.76
717.61	257.42
717.94	257.07
718.28	256.40
718.61	256.19
718.94	255.81
719.27	255.55
719.61	255.33
719.94	254.96
720.27	254.50
720.60	254.29
720.94	254.07
721.27	253.81
721.60	253.65
721.93	253.40
722.27	253.41
722.60	253.21
722.93	252.95
723.26	252.86
723.59	252.48
723.93	252.29
724.26	252.23
724.59	251.99
724.92	251.83
725.25	251.71
725.59	251.43
725.92	251.15
726.25	250.96
726.58	250.73
726.91	250.55
727.24	250.36
727.57	250.09
727.91	249.84
728.24	249.59
728.57	249.33
728.90	249.23
729.23	248.73
729.56	248.83
729.89	248.63
730.22	248.39
730.55	248.29
730.89	248.15
731.22	247.88
731.55	247.83
731.88	247.71
732.21	247.51
732.54	247.30
732.87	247.22
733.20	247.09
733.53	246.95
733.86	246.78
734.19	246.55
734.52	246.48
734.85	246.59
735.18	246.40
735.51	246.40
735.84	246.21
736.17	246.23
736.50	245.73
736.83	246.10
737.16	245.94
737.49	245.76
737.82	245.56
738.15	245.42
738.48	245.22
738.81	244.94
739.14	244.72
739.47	244.55
739.80	244.39
740.13	244.26
740.46	244.08
740.79	243.84
741.12	243.66
741.45	243.40
741.78	243.02
742.11	243.01
742.44	242.70
742.77	242.56
743.10	242.35
743.43	242.25
743.75	241.57
744.08	242.07
744.41	241.88
744.74	241.72
745.07	241.47
745.40	241.39
745.73	241.46
746.06	241.31
746.39	241.29
746.71	241.07
747.04	240.84
747.37	240.63
747.70	240.60
748.03	240.46
748.36	240.38
748.68	240.28
749.01	240.00
749.34	239.83
749.67	239.73
750.00	239.70
750.33	239.90
750.65	239.82
750.98	239.08
751.31	239.02
751.64	239.00
751.97	239.21
752.29	239.08
752.62	238.83
752.95	238.75
753.28	238.54
753.60	238.50
753.93	238.64
754.26	238.60
754.59	238.42
754.91	238.34
755.24	238.25
755.57	238.22
755.90	238.16
756.22	238.09
756.55	237.89
756.88	237.71
757.20	237.31
757.53	237.08
757.86	236.97
758.19	236.84
758.51	236.73
758.84	236.38
759.17	236.28
759.49	236.25
759.82	236.36
760.15	236.37
760.47	236.30
760.80	235.98
761.13	235.90
761.45	235.77
761.78	235.72
762.11	235.69
762.43	235.52
762.76	235.44
763.08	235.47
763.41	235.48
763.74	235.40
764.06	235.33
764.39	235.32
764.71	235.23
765.04	235.09
765.37	234.93
765.69	234.87
766.02	234.76
766.34	234.61
766.67	234.42
767.00	234.36
767.32	234.54
767.65	234.77
767.97	234.61
768.30	234.51
768.62	234.41
768.95	234.30
769.27	234.15
769.60	234.16
769.92	234.02
770.25	233.90
770.57	233.77
770.90	233.73
771.22	233.61
771.55	233.58
771.87	233.68
772.20	233.62
772.52	233.92
772.85	234.51
773.17	234.44
773.50	234.31
773.82	234.21
774.15	233.86
774.47	233.56
774.80	233.46
775.12	233.44
775.45	233.36
775.77	233.34
776.09	233.35
776.42	233.29
776.74	233.38
777.07	233.28
777.39	233.25
777.72	233.16
778.04	233.20
778.36	233.07
778.69	232.95
779.01	233.00
779.33	232.51
779.66	231.85
779.98	231.77
780.31	231.79
780.63	231.94
780.95	232.08
781.28	232.05
781.60	231.97
781.92	231.97
782.25	232.03
782.57	231.94
782.89	231.86
783.22	231.78
783.54	231.57
783.86	231.59
784.19	231.53
784.51	231.60
784.83	231.49
785.16	231.52
785.48	231.52
785.80	231.41
786.12	231.48
786.45	231.39
786.77	231.38
787.09	231.27
787.42	230.98
787.74	230.83
788.06	230.69
788.38	230.66
788.71	230.57
789.03	230.44
789.35	230.60
789.67	230.53
789.99	230.53
790.32	230.46
790.64	230.52
790.96	230.89
791.28	230.72
791.61	230.61
791.93	230.55
792.25	230.49
792.57	230.84
792.89	230.68
793.21	230.77
793.54	230.67
793.86	230.61
794.18	230.67
794.50	230.60
794.82	230.64
795.14	230.80
795.47	230.87
795.79	230.85
796.11	230.61
796.43	230.56
796.75	230.49
797.07	230.55
797.39	230.42
797.71	230.08
798.04	230.05
798.36	230.07
798.68	230.10
799.00	230.10
799.32	229.78
799.64	229.90
799.96	229.81
800.28	229.92
800.60	229.87
800.92	229.87
801.24	229.84
801.56	229.93
801.89	229.76
802.21	229.77
802.53	229.69
802.85	229.77
803.17	230.04
803.49	229.93
803.81	229.78
804.13	229.78
804.45	229.67
804.77	229.73
805.09	229.71
805.41	229.65
805.73	229.54
806.05	229.44
806.37	229.37
806.69	229.27
807.01	229.29
807.33	229.32
807.65	229.10
807.97	229.32
808.28	229.20
808.60	229.24
808.92	229.08
809.24	229.40
809.56	229.31
809.88	229.05
810.20	229.08
810.52	229.24
810.84	229.11
811.16	229.10
811.48	229.03
811.80	229.25
812.12	229.23
812.43	229.29
812.75	229.31
813.07	229.33
813.39	229.39
813.71	229.22
814.03	229.14
814.35	229.20
814.67	228.97
814.98	228.95
815.30	228.89
815.62	228.84
815.94	228.42
816.26	228.58
816.58	228.51
816.89	228.56
817.21	228.43
817.53	228.46
817.85	228.43
818.17	228.34
818.48	228.11
818.80	228.20
819.12	228.11
819.44	228.05
819.76	227.86
820.07	227.83
820.39	227.91
820.71	227.96
821.03	227.92
821.34	227.85
821.66	227.83
821.98	227.82
822.30	227.86
822.61	228.19
822.93	228.00
823.25	227.99
823.57	228.00
823.88	228.13
824.20	228.07
824.52	228.22
824.83	228.28
825.15	228.21
825.47	228.23
825.79	228.28
826.10	228.27
826.42	228.32
826.74	228.35
827.05	228.24
827.37	228.23
827.69	228.21
828.00	228.34
828.32	228.39
828.64	228.33
828.95	228.53
829.27	228.38
829.58	228.33
829.90	228.41
830.22	228.38
830.53	228.18
830.85	228.23
831.17	228.05
831.48	228.00
831.80	227.98
832.11	227.88
832.43	227.80
832.75	227.78
833.06	228.00
833.38	227.91
833.69	227.90
834.01	227.98
834.32	228.01
834.64	227.87
834.96	227.82
835.27	227.86
835.59	227.67
835.90	227.68
836.22	227.77
836.53	227.70
836.85	227.64
837.16	228.17
837.48	228.16
837.79	228.26
838.11	228.32
838.42	228.34
838.74	228.40
839.05	228.35
839.37	228.26
839.68	228.06
840.00	228.03
840.31	228.10
840.63	228.05
840.94	227.97
841.26	227.94
841.57	227.98
841.88	228.05
842.20	228.00
842.51	227.90
842.83	227.77
843.14	228.14
843.46	228.15
843.77	227.93
844.08	227.93
844.40	227.80
844.71	227.72
845.03	227.69
845.34	227.67
845.65	227.68
845.97	227.80
846.28	227.79
846.60	227.85
846.91	227.79
847.22	227.78
847.54	227.92
847.85	227.95
848.16	227.86
848.48	227.75
848.79	227.95
849.10	227.96
849.42	228.03
849.73	227.65
850.04	227.56
850.36	227.37
850.67	227.40
850.98	227.45
851.30	227.57
851.61	227.56
851.92	227.45
852.23	227.62
852.55	227.62
852.86	227.66
853.17	227.66
853.49	227.76
853.80	227.83
854.11	227.85
854.42	227.90
854.74	227.86
855.05	227.88
855.36	227.62
855.67	227.65
855.99	227.65
856.30	228.10
856.61	228.11
856.92	228.13
857.23	228.13
857.55	228.13
857.86	228.04
858.17	228.13
858.48	228.05
858.79	227.94
859.11	227.99
859.42	227.96
859.73	227.90
860.04	227.92
860.35	227.78
860.66	227.64
860.98	227.64
861.29	227.80
861.60	227.79
861.91	227.98
862.22	227.93
862.53	227.91
862.84	227.48
863.16	227.63
863.47	227.53
863.78	227.50
864.09	227.48
864.40	227.54
864.71	227.56
865.02	227.68
865.33	227.64
865.64	227.55
865.95	227.59
866.27	227.96
866.58	227.84
866.89	227.94
867.20	227.93
867.51	227.85
867.82	227.77
868.13	227.88
868.44	227.71
868.75	227.79
869.06	227.81
869.37	227.84
869.68	227.68
869.99	227.77
870.30	227.79
870.61	227.83
870.92	227.75
871.23	227.71
871.54	227.77
871.85	227.87
872.16	227.94
872.47	227.82
872.78	227.44
873.09	227.48
873.40	227.35
873.71	227.36
874.02	227.40
874.33	227.33
874.64	227.23
874.95	227.38
875.26	227.32
875.56	227.30
875.87	227.29
876.18	227.33
876.49	227.84
876.80	227.75
877.11	227.59
877.42	227.62
877.73	227.63
878.04	227.55
878.35	227.50
878.66	227.53
878.96	227.58
879.27	227.60
879.58	227.57
879.89	227.58
880.20	227.79
880.51	227.70
880.82	227.75
881.12	227.84
881.43	227.67
881.74	227.55
882.05	227.48
882.36	227.47
882.67	227.48
882.97	226.82
883.28	226.81
883.59	226.81
883.90	226.86
884.21	226.87
884.51	226.81
884.82	226.76
885.13	226.67
885.44	226.62
885.74	226.60
886.05	226.58
886.36	226.61
886.67	226.37
886.98	226.68
887.28	226.63
887.59	226.62
887.90	226.62
888.20	226.61
888.51	226.75
888.82	226.71
889.13	226.72
889.43	227.19
889.74	227.20
890.05	227.26
890.35	227.15
890.66	227.05
890.97	227.00
891.28	226.96
891.58	226.98
891.89	226.95
892.20	226.89
892.50	226.84
892.81	226.80
893.12	226.78
893.42	226.49
893.73	226.55
894.04	226.47
894.34	226.53
894.65	226.55
894.95	226.44
895.26	226.45
895.57	226.67
895.87	226.22
896.18	226.31
896.48	226.35
896.79	226.35
897.10	226.45
897.40	226.51
897.71	226.58
898.01	226.58
898.32	226.62
898.63	226.59
898.93	226.59
899.24	226.55
899.54	226.53
899.85	226.45
900.15	226.38
900.46	226.39
900.76	226.43
901.07	226.42
901.38	226.40
901.68	226.41
901.99	226.11
902.29	226.08
902.60	226.09
902.90	225.99
903.21	226.03
903.51	226.00
903.82	226.13
904.12	226.10
904.43	226.12
904.73	226.16
905.03	226.29
905.34	226.71
905.64	226.76
905.95	226.78
906.25	226.89
906.56	226.85
906.86	226.88
907.17	226.81
907.47	226.89
907.77	226.85
908.08	226.78
908.38	226.84
908.69	226.92
908.99	226.97
909.30	227.05
909.60	227.01
909.90	227.09
910.21	226.93
910.51	226.90
910.81	226.84
911.12	226.79
911.42	226.76
911.73	226.33
912.03	226.25
912.33	226.35
912.64	226.26
912.94	226.25
913.24	226.10
913.55	226.07
913.85	225.97
914.15	226.02
914.46	226.17
914.76	226.17
915.06	226.17
915.37	226.05
915.67	225.96
915.97	225.96
916.27	225.87
916.58	225.93
916.88	225.94
917.18	225.96
917.49	226.34
917.79	226.29
918.09	226.40
918.39	226.53
918.70	226.58
919.00	226.66
919.30	226.93
919.60	226.95
919.91	226.95
920.21	227.00
920.51	226.99
920.81	226.91
921.12	227.01
921.42	227.00
921.72	227.09
922.02	227.14
922.32	227.26
922.63	227.23
922.93	227.43
923.23	227.42
923.53	227.36
923.83	227.03
924.13	227.11
924.44	227.05
924.74	227.19
925.04	227.22
925.34	227.21
925.64	226.93
925.94	227.04
926.24	227.28
926.55	227.23
926.85	227.30
927.15	227.33
927.45	227.27
927.75	227.24
928.05	227.25
928.35	227.23
928.65	227.25
928.95	227.29
929.26	227.17
929.56	227.33
929.86	227.45
930.16	227.49
930.46	227.50
930.76	227.54
931.06	227.33
931.36	227.24
931.66	227.36
931.96	227.51
932.26	227.49
932.56	227.31
932.86	227.42
933.16	227.42
933.46	227.34
933.76	227.26
934.06	227.35
934.36	227.42
934.66	227.43
934.96	227.38
935.26	227.45
935.56	227.50
935.86	227.30
936.16	227.20
936.46	227.13
936.76	227.09
937.06	227.05
937.36	227.05
937.66	227.13
937.96	227.09
938.26	227.01
938.56	226.94
938.86	226.95
939.16	227.03
939.46	227.05
939.76	227.05
940.06	227.06
940.35	226.93
940.65	226.71
940.95	226.76
941.25	226.67
941.55	226.57
941.85	226.47
942.15	226.58
942.45	226.72
942.75	226.69
943.04	226.67
943.34	226.83
943.64	226.80
943.94	226.70
944.24	226.66
944.54	226.63
944.84	226.66
945.13	226.59
945.43	226.47
945.73	226.44
946.03	226.41
946.33	226.40
946.62	226.49
946.92	226.48
947.22	226.55
947.52	226.62
947.82	226.68
948.11	226.66
948.41	226.57
948.71	226.38
949.01	226.47
949.31	226.45
949.60	226.31
949.90	226.35
950.20	226.35
950.50	226.33
950.79	226.34
951.09	226.42
951.39	226.47
951.69	226.41
951.98	226.47
952.28	226.52
952.58	226.48
952.87	226.40
953.17	226.49
953.47	226.32
953.76	226.29
954.06	226.17
954.36	226.14
954.66	226.17
954.95	226.37
955.25	226.31
955.55	226.33
955.84	226.32
956.14	226.40
956.44	226.37
956.73	226.27
957.03	226.26
957.32	226.23
957.62	226.15
957.92	226.25
958.21	226.20
958.51	226.68
958.81	226.79
959.10	226.85
959.40	226.94
959.69	227.03
959.99	227.08
960.29	227.19
960.58	227.12
960.88	227.31
961.17	227.20
961.47	227.23
961.76	227.27
962.06	227.29
962.36	227.22
962.65	227.27
962.95	227.38
963.24	227.35
963.54	227.42
963.83	227.54
964.13	227.59
964.42	227.44
964.72	227.07
965.01	227.05
965.31	227.05
965.60	226.94
965.90	227.28
966.19	227.17
966.49	227.19
966.78	227.28
967.08	227.24
967.37	227.28
967.67	227.26
967.96	227.32
968.26	227.31
968.55	227.38
968.85	227.33
969.14	227.35
969.43	227.34
969.73	227.29
970.02	227.28
970.32	227.17
970.61	227.24
970.91	227.10
971.20	227.03
971.49	227.06
971.79	227.13
972.08	226.70
972.38	226.79
972.67	226.73
972.96	226.77
973.26	226.66
973.55	226.84
973.85	226.75
974.14	226.69
974.43	226.70
974.73	226.62
975.02	226.61
975.31	226.57
975.61	226.61
975.90	226.54
976.19	226.46
976.49	226.57
976.78	226.63
977.07	226.62
977.37	226.72
977.66	226.71
977.95	226.68
978.24	226.77
978.54	226.86
978.83	226.84
979.12	226.74
979.42	226.72
979.71	226.60
980.00	226.64
980.29	226.65
980.59	226.58
980.88	226.70
981.17	226.66
981.46	226.70
981.76	226.73
982.05	226.88
982.34	226.93
982.63	226.87
982.93	226.88
983.22	227.02
983.51	227.00
983.80	227.05
984.09	227.05
984.39	227.02
984.68	226.99
984.97	227.00
985.26	227.01
985.55	227.03
985.85	226.92
986.14	227.00
986.43	227.01
986.72	226.98
987.01	226.81
987.30	226.86
987.59	226.79
987.89	226.76
988.18	226.58
988.47	226.53
988.76	226.52
989.05	226.45
989.34	226.35
989.63	226.49
989.92	226.40
990.22	226.33
990.51	226.28
990.80	226.24
991.09	226.26
991.38	226.27
991.67	226.27
991.96	226.24
992.25	226.23
992.54	226.19
992.83	226.25
993.12	226.24
993.41	226.26
993.70	226.51
993.99	226.61
994.28	226.69
994.58	226.75
994.87	226.72
995.16	226.69
995.45	226.65
995.74	226.46
996.03	226.52
996.32	226.63
996.61	226.74
996.90	226.70
997.19	226.63
997.48	226.65
997.77	226.56
998.06	226.55
998.34	226.50
998.63	226.50
998.92	226.51
999.21	226.62
999.50	226.67
999.79	226.49
1000.08	226.43
1000.37	226.44
1000.66	226.37
1000.95	226.52
1001.24	226.53
1001.53	226.61
1001.82	226.61
1002.11	226.59
1002.40	226.63
1002.68	226.75
1002.97	227.08
1003.26	227.07
1003.55	227.00
1003.84	227.11
1004.13	227.26
1004.42	227.30
1004.71	227.31
1004.99	227.26
1005.28	227.34
1005.57	227.33
1005.86	227.23
1006.15	227.20
1006.44	227.14
1006.72	227.18
1007.01	227.02
1007.30	227.15
1007.59	227.12
1007.88	227.16
1008.17	227.18
1008.45	227.03
1008.74	226.86
1009.03	226.60
1009.32	226.55
1009.60	226.52
1009.89	226.37
1010.18	226.22
1010.47	226.12
1010.76	226.09
1011.04	226.09
1011.33	226.08
1011.62	226.08
1011.91	226.11
1012.19	226.18
1012.48	226.20
1012.77	226.14
1013.05	226.43
1013.34	226.31
1013.63	226.22
1013.92	226.26
1014.20	226.20
1014.49	226.14
1014.78	226.20
1015.06	226.11
1015.35	226.18
1015.64	226.26
1015.92	226.38
1016.21	226.35
1016.50	226.43
1016.78	226.46
1017.07	226.49
1017.36	226.31
1017.64	226.30
1017.93	226.36
1018.22	226.25
1018.50	226.24
1018.79	226.25
1019.08	226.04
1019.36	226.08
1019.65	226.09
1019.93	226.22
1020.22	226.33
1020.51	226.67
1020.79	226.61
1021.08	225.10
1021.36	225.65
1021.65	226.00
1021.94	227.50
1022.22	226.20
1022.51	225.30
1022.79	230.20
1023.08	228.25
1023.36	232.15
1023.65	226.10
>>>>>End Processed Spectral Data<<<<<
