SpectraSuite Data File
++++++++++++++++++++++++++++++++++++
Date: Wed Sep 04 18:02:33 EDT 2013
User: lab3
Dark Spectrum Present: Yes
Reference Spectrum Present: No
Number of Sampled Component Spectra: 1
Spectrometers: USB2E7196
Integration Time (usec): 170000 (USB2E7196)
Spectra Averaged: 20 (USB2E7196)
Boxcar Smoothing: 10 (USB2E7196)
Correct for Electrical Dark: No (USB2E7196)
Strobe/Lamp Enabled: No (USB2E7196)
Correct for Detector Non-linearity: No (USB2E7196)
Correct for Stray Light: No (USB2E7196)
Number of Pixels in Processed Spectrum: 2048
>>>>>Begin Processed Spectral Data<<<<<
339.09	0.00
339.48	213.15
339.86	214.85
340.24	216.40
340.63	215.90
341.01	226.95
341.39	220.65
341.78	223.35
342.16	223.45
342.54	223.20
342.93	212.63
343.31	223.36
343.69	223.96
344.07	224.46
344.46	224.96
344.84	225.49
345.22	225.42
345.60	225.72
345.99	225.89
346.37	226.01
346.75	226.10
347.13	226.16
347.52	226.27
347.90	226.45
348.28	226.42
348.66	226.55
349.05	226.41
349.43	226.42
349.81	226.48
350.19	226.53
350.57	226.60
350.96	226.68
351.34	226.78
351.72	226.82
352.10	226.92
352.48	226.86
352.87	226.84
353.25	226.98
353.63	226.99
354.01	226.95
354.39	227.01
354.77	227.13
355.15	227.35
355.54	227.30
355.92	227.19
356.30	227.26
356.68	227.61
357.06	227.73
357.44	227.76
357.82	227.79
358.20	228.28
358.58	228.28
358.97	228.37
359.35	228.49
359.73	228.66
360.11	228.64
360.49	228.73
360.87	228.82
361.25	228.83
361.63	229.08
362.01	229.22
362.39	229.30
362.77	229.36
363.15	229.36
363.53	229.49
363.91	229.60
364.29	229.66
364.67	229.27
365.05	229.34
365.43	229.45
365.81	229.55
366.19	229.34
366.57	229.65
366.95	229.67
367.33	229.57
367.71	229.54
368.09	229.70
368.47	229.70
368.85	229.72
369.23	229.87
369.61	229.69
369.99	229.81
370.37	229.89
370.75	230.20
371.13	230.03
371.51	229.90
371.89	229.87
372.27	229.86
372.65	229.86
373.03	229.83
373.41	229.74
373.78	229.71
374.16	229.46
374.54	229.22
374.92	229.03
375.30	229.05
375.68	228.94
376.06	228.89
376.44	228.87
376.82	228.83
377.19	228.73
377.57	228.65
377.95	228.42
378.33	228.26
378.71	227.84
379.09	227.81
379.47	227.90
379.84	227.81
380.22	227.69
380.60	227.60
380.98	227.50
381.36	227.43
381.73	227.27
382.11	227.28
382.49	227.18
382.87	227.13
383.25	227.06
383.62	227.50
384.00	227.29
384.38	227.24
384.76	227.23
385.13	227.35
385.51	227.25
385.89	227.15
386.27	227.13
386.64	227.16
387.02	227.16
387.40	226.97
387.78	226.95
388.15	226.95
388.53	226.88
388.91	226.91
389.29	226.80
389.66	226.90
390.04	226.87
390.42	226.95
390.79	226.93
391.17	226.85
391.55	226.43
391.92	226.41
392.30	226.44
392.68	226.29
393.05	226.25
393.43	226.33
393.81	226.43
394.18	226.39
394.56	226.35
394.94	226.48
395.31	226.50
395.69	226.74
396.06	226.85
396.44	227.00
396.82	227.00
397.19	227.31
397.57	227.29
397.95	227.40
398.32	227.34
398.70	227.54
399.07	227.80
399.45	227.81
399.82	227.91
400.20	227.93
400.58	228.14
400.95	228.04
401.33	228.13
401.70	228.54
402.08	228.67
402.45	228.90
402.83	229.17
403.20	229.34
403.58	229.38
403.95	229.64
404.33	229.80
404.71	230.02
405.08	230.47
405.46	230.77
405.83	230.98
406.21	231.24
406.58	231.50
406.96	231.71
407.33	232.07
407.70	232.49
408.08	233.35
408.45	233.75
408.83	234.36
409.20	234.77
409.58	234.98
409.95	235.60
410.33	236.10
410.70	236.49
411.08	237.14
411.45	237.77
411.82	238.26
412.20	239.05
412.57	240.06
412.95	240.44
413.32	241.30
413.69	242.16
414.07	243.07
414.44	244.05
414.82	245.11
415.19	246.32
415.56	247.55
415.94	248.46
416.31	249.93
416.68	251.24
417.06	252.90
417.43	254.60
417.81	256.27
418.18	258.09
418.55	260.02
418.93	262.08
419.30	264.14
419.67	266.42
420.04	268.71
420.42	271.01
420.79	274.09
421.16	276.89
421.54	280.02
421.91	283.08
422.28	286.25
422.66	289.51
423.03	292.99
423.40	296.34
423.77	299.92
424.15	303.56
424.52	307.36
424.89	311.61
425.26	315.54
425.64	319.35
426.01	323.52
426.38	327.94
426.75	332.44
427.13	337.08
427.50	341.94
427.87	346.90
428.24	351.86
428.61	356.40
428.99	361.74
429.36	367.19
429.73	372.77
430.10	378.26
430.47	384.09
430.85	389.77
431.22	396.02
431.59	402.81
431.96	408.99
432.33	416.04
432.70	422.68
433.08	430.64
433.45	438.25
433.82	445.71
434.19	454.01
434.56	462.17
434.93	469.89
435.30	477.63
435.68	486.33
436.05	494.81
436.42	503.21
436.79	511.02
437.16	519.43
437.53	528.26
437.90	537.07
438.27	545.62
438.64	554.60
439.01	562.91
439.38	570.26
439.75	577.46
440.13	585.46
440.50	593.01
440.87	599.17
441.24	605.58
441.61	612.61
441.98	617.64
442.35	623.56
442.72	629.56
443.09	635.54
443.46	638.86
443.83	641.34
444.20	643.24
444.57	645.85
444.94	646.95
445.31	648.04
445.68	649.44
446.05	649.62
446.42	648.32
446.79	646.84
447.16	645.24
447.53	644.07
447.90	640.28
448.27	636.56
448.64	631.60
449.01	627.73
449.37	621.46
449.74	615.24
450.11	608.23
450.48	600.42
450.85	592.28
451.22	585.29
451.59	578.48
451.96	572.17
452.33	563.99
452.70	556.45
453.07	547.70
453.43	538.39
453.80	529.90
454.17	521.75
454.54	514.02
454.91	505.65
455.28	497.59
455.65	490.20
456.02	483.38
456.38	476.79
456.75	469.07
457.12	462.57
457.49	456.41
457.86	450.01
458.23	444.88
458.59	439.07
458.96	433.40
459.33	428.28
459.70	423.13
460.07	418.98
460.43	414.40
460.80	410.18
461.17	406.51
461.54	402.51
461.91	398.57
462.27	394.70
462.64	391.37
463.01	387.70
463.38	384.29
463.74	380.14
464.11	377.24
464.48	374.51
464.85	371.61
465.21	369.39
465.58	367.04
465.95	364.19
466.32	361.92
466.68	359.60
467.05	357.35
467.42	355.19
467.78	352.89
468.15	350.67
468.52	349.02
468.88	346.67
469.25	344.74
469.62	343.29
469.98	341.72
470.35	340.27
470.72	338.83
471.08	337.12
471.45	335.98
471.82	334.69
472.18	333.15
472.55	332.12
472.92	330.76
473.28	329.66
473.65	328.51
474.02	327.53
474.38	326.72
474.75	325.86
475.11	324.86
475.48	324.28
475.85	323.81
476.21	323.14
476.58	322.72
476.94	322.36
477.31	321.94
477.67	321.42
478.04	321.10
478.41	320.81
478.77	321.10
479.14	320.74
479.50	320.62
479.87	320.75
480.23	320.78
480.60	320.80
480.96	320.85
481.33	321.20
481.69	321.40
482.06	321.55
482.42	321.85
482.79	322.29
483.15	322.67
483.52	323.12
483.88	323.60
484.25	324.18
484.61	324.79
484.98	325.40
485.34	326.47
485.71	327.40
486.07	328.47
486.44	329.12
486.80	330.22
487.17	331.40
487.53	332.83
487.90	334.18
488.26	335.89
488.62	337.52
488.99	339.10
489.35	340.91
489.72	342.83
490.08	344.85
490.44	346.91
490.81	349.13
491.17	351.35
491.54	353.87
491.90	356.34
492.26	359.00
492.63	361.89
492.99	364.79
493.36	367.81
493.72	371.17
494.08	374.57
494.45	378.29
494.81	382.21
495.17	386.05
495.54	390.36
495.90	394.60
496.26	399.09
496.63	403.65
496.99	408.44
497.35	413.48
497.72	418.75
498.08	424.22
498.44	429.90
498.80	436.12
499.17	442.09
499.53	448.49
499.89	455.11
500.26	461.94
500.62	468.77
500.98	476.12
501.34	483.57
501.71	491.37
502.07	499.26
502.43	507.40
502.79	515.71
503.16	524.33
503.52	533.33
503.88	542.60
504.24	552.31
504.60	562.32
504.97	572.64
505.33	583.02
505.69	594.16
506.05	605.14
506.41	616.21
506.78	627.96
507.14	639.95
507.50	652.25
507.86	664.77
508.22	677.80
508.59	690.91
508.95	704.41
509.31	718.45
509.67	732.86
510.03	747.23
510.39	762.11
510.75	777.14
511.12	792.53
511.48	808.07
511.84	823.94
512.20	840.04
512.56	856.52
512.92	873.39
513.28	890.31
513.64	907.58
514.00	925.21
514.37	943.09
514.73	961.25
515.09	979.66
515.45	998.21
515.81	1016.77
516.17	1035.59
516.53	1054.49
516.89	1073.33
517.25	1092.94
517.61	1113.25
517.97	1133.76
518.33	1153.72
518.69	1173.72
519.05	1194.36
519.41	1215.28
519.77	1236.27
520.13	1256.91
520.49	1277.50
520.85	1299.78
521.21	1321.11
521.57	1342.67
521.93	1363.30
522.29	1384.58
522.65	1405.19
523.01	1426.15
523.37	1446.64
523.73	1467.74
524.09	1488.41
524.45	1509.11
524.81	1529.62
525.17	1550.42
525.53	1570.76
525.89	1592.03
526.25	1613.13
526.61	1633.73
526.97	1654.75
527.33	1676.06
527.68	1698.06
528.04	1719.53
528.40	1739.37
528.76	1760.43
529.12	1780.47
529.48	1801.31
529.84	1821.46
530.20	1842.78
530.56	1863.70
530.91	1885.10
531.27	1905.78
531.63	1926.40
531.99	1947.14
532.35	1967.51
532.71	1987.51
533.07	2008.33
533.42	2028.01
533.78	2048.21
534.14	2068.25
534.50	2087.41
534.86	2106.72
535.21	2124.20
535.57	2142.95
535.93	2160.66
536.29	2178.49
536.65	2196.81
537.00	2214.66
537.36	2232.49
537.72	2249.47
538.08	2266.74
538.44	2283.62
538.79	2300.16
539.15	2316.78
539.51	2332.83
539.87	2348.06
540.22	2362.42
540.58	2376.84
540.94	2390.46
541.29	2403.02
541.65	2415.48
542.01	2427.97
542.37	2438.64
542.72	2449.78
543.08	2460.60
543.44	2472.37
543.79	2482.65
544.15	2492.75
544.51	2503.01
544.87	2512.49
545.22	2520.78
545.58	2528.55
545.94	2535.83
546.29	2542.52
546.65	2548.92
547.01	2554.84
547.36	2560.45
547.72	2566.07
548.07	2570.32
548.43	2575.84
548.79	2580.73
549.14	2585.08
549.50	2589.18
549.86	2593.33
550.21	2597.06
550.57	2600.25
550.92	2601.85
551.28	2603.49
551.64	2605.85
551.99	2607.74
552.35	2609.79
552.70	2612.09
553.06	2613.80
553.41	2614.84
553.77	2616.70
554.13	2618.59
554.48	2620.15
554.84	2621.61
555.19	2622.67
555.55	2624.15
555.90	2623.32
556.26	2622.53
556.61	2621.02
556.97	2618.87
557.32	2618.34
557.68	2617.43
558.03	2616.20
558.39	2615.22
558.74	2614.36
559.10	2611.50
559.45	2607.88
559.81	2603.66
560.16	2598.73
560.52	2594.11
560.87	2590.08
561.23	2584.63
561.58	2578.62
561.94	2571.94
562.29	2564.75
562.64	2557.92
563.00	2549.80
563.35	2543.69
563.71	2537.04
564.06	2530.93
564.42	2524.50
564.77	2517.73
565.12	2510.22
565.48	2502.45
565.83	2494.35
566.19	2486.17
566.54	2478.46
566.89	2470.45
567.25	2462.41
567.60	2455.10
567.96	2447.54
568.31	2439.34
568.66	2430.85
569.02	2421.74
569.37	2413.79
569.72	2406.36
570.08	2397.20
570.43	2387.63
570.78	2378.34
571.14	2368.86
571.49	2358.82
571.84	2349.21
572.20	2337.84
572.55	2327.79
572.90	2316.82
573.26	2306.46
573.61	2295.62
573.96	2284.32
574.31	2272.55
574.67	2260.69
575.02	2248.20
575.37	2235.37
575.72	2222.01
576.08	2209.59
576.43	2197.10
576.78	2183.32
577.13	2169.33
577.49	2156.33
577.84	2144.48
578.19	2132.05
578.54	2119.70
578.90	2107.48
579.25	2095.09
579.60	2083.28
579.95	2070.20
580.30	2057.07
580.66	2043.50
581.01	2029.64
581.36	2015.46
581.71	2002.62
582.06	1989.63
582.42	1977.03
582.77	1964.46
583.12	1952.29
583.47	1939.93
583.82	1927.80
584.17	1915.96
584.53	1904.24
584.88	1891.50
585.23	1878.46
585.58	1864.32
585.93	1850.95
586.28	1837.39
586.63	1823.38
586.98	1808.47
587.34	1795.14
587.69	1782.05
588.04	1769.37
588.39	1757.23
588.74	1745.13
589.09	1732.97
589.44	1720.30
589.79	1707.82
590.14	1695.82
590.49	1684.03
590.84	1671.72
591.19	1659.69
591.54	1647.43
591.89	1635.05
592.25	1624.80
592.60	1613.31
592.95	1601.96
593.30	1589.76
593.65	1577.84
594.00	1565.57
594.35	1555.86
594.70	1543.98
595.05	1532.42
595.40	1520.29
595.75	1508.26
596.10	1496.99
596.45	1485.66
596.80	1474.75
597.15	1463.47
597.50	1451.47
597.85	1439.67
598.19	1428.00
598.54	1416.26
598.89	1404.93
599.24	1394.61
599.59	1382.99
599.94	1372.00
600.29	1361.29
600.64	1350.90
600.99	1340.13
601.34	1330.85
601.69	1319.68
602.04	1310.05
602.39	1300.35
602.74	1291.04
603.08	1281.50
603.43	1272.10
603.78	1262.19
604.13	1252.38
604.48	1242.53
604.83	1232.93
605.18	1223.29
605.53	1213.80
605.87	1204.45
606.22	1195.69
606.57	1185.71
606.92	1175.79
607.27	1166.58
607.62	1157.70
607.96	1149.06
608.31	1140.98
608.66	1132.31
609.01	1123.50
609.36	1114.64
609.70	1105.92
610.05	1097.20
610.40	1088.69
610.75	1079.70
611.10	1071.18
611.44	1062.44
611.79	1054.20
612.14	1046.17
612.49	1038.20
612.83	1030.69
613.18	1023.02
613.53	1015.17
613.88	1007.24
614.22	999.87
614.57	991.85
614.92	984.00
615.27	976.50
615.61	968.84
615.96	961.08
616.31	953.54
616.65	946.43
617.00	939.10
617.35	931.76
617.70	924.65
618.04	917.64
618.39	910.49
618.74	904.10
619.08	897.11
619.43	889.85
619.78	882.81
620.12	875.57
620.47	868.54
620.82	861.51
621.16	854.76
621.51	848.15
621.85	841.90
622.20	835.30
622.55	828.51
622.89	821.86
623.24	815.44
623.59	808.97
623.93	802.65
624.28	796.55
624.62	791.01
624.97	784.99
625.32	779.05
625.66	773.09
626.01	766.75
626.35	761.14
626.70	755.75
627.04	750.54
627.39	744.91
627.73	739.55
628.08	734.31
628.43	728.85
628.77	723.25
629.12	717.91
629.46	713.01
629.81	708.12
630.15	703.34
630.50	698.38
630.84	693.57
631.19	688.68
631.53	683.95
631.88	678.57
632.22	673.61
632.57	669.08
632.91	664.59
633.26	660.31
633.60	655.64
633.95	650.91
634.29	645.99
634.64	641.52
634.98	636.75
635.32	632.21
635.67	628.30
636.01	624.15
636.36	619.74
636.70	615.80
637.05	611.67
637.39	607.57
637.73	603.55
638.08	599.46
638.42	595.14
638.77	590.61
639.11	586.31
639.45	582.13
639.80	577.75
640.14	573.40
640.49	569.41
640.83	565.58
641.17	561.89
641.52	558.17
641.86	554.54
642.20	551.37
642.55	547.57
642.89	543.85
643.23	540.24
643.58	537.18
643.92	533.32
644.26	529.95
644.61	526.54
644.95	523.04
645.29	519.74
645.64	516.62
645.98	513.57
646.32	510.47
646.66	507.39
647.01	504.44
647.35	501.82
647.69	498.71
648.04	495.78
648.38	492.90
648.72	489.90
649.06	486.92
649.41	483.73
649.75	480.78
650.09	477.87
650.43	474.99
650.78	471.96
651.12	469.20
651.46	466.28
651.80	463.48
652.14	460.75
652.49	458.19
652.83	455.60
653.17	452.95
653.51	450.31
653.85	447.75
654.20	445.17
654.54	442.49
654.88	440.02
655.22	437.68
655.56	435.23
655.90	432.90
656.25	430.55
656.59	428.30
656.93	426.20
657.27	424.14
657.61	421.70
657.95	419.51
658.29	417.24
658.64	415.22
658.98	413.01
659.32	410.79
659.66	408.48
660.00	406.31
660.34	404.24
660.68	402.28
661.02	400.23
661.36	398.23
661.70	396.14
662.05	394.16
662.39	392.25
662.73	390.43
663.07	388.80
663.41	386.93
663.75	385.02
664.09	383.18
664.43	381.15
664.77	379.60
665.11	377.70
665.45	376.14
665.79	374.44
666.13	372.67
666.47	371.05
666.81	369.40
667.15	367.77
667.49	366.20
667.83	364.74
668.17	363.24
668.51	361.81
668.85	360.46
669.19	359.22
669.53	357.63
669.87	355.99
670.21	354.31
670.55	352.96
670.89	351.83
671.23	350.46
671.57	349.06
671.91	347.59
672.25	346.33
672.58	345.03
672.92	343.55
673.26	342.39
673.60	341.18
673.94	340.02
674.28	338.75
674.62	337.67
674.96	336.39
675.30	335.22
675.64	333.96
675.97	332.69
676.31	331.37
676.65	330.13
676.99	329.20
677.33	328.13
677.67	327.09
678.01	325.79
678.34	324.64
678.68	323.69
679.02	322.63
679.36	321.54
679.70	320.45
680.04	319.53
680.37	318.48
680.71	317.50
681.05	316.62
681.39	315.81
681.73	314.82
682.06	313.85
682.40	312.95
682.74	312.09
683.08	311.45
683.42	310.57
683.75	309.80
684.09	308.84
684.43	308.00
684.77	307.07
685.10	306.25
685.44	305.47
685.78	304.60
686.12	303.80
686.45	302.94
686.79	302.11
687.13	301.45
687.46	300.70
687.80	299.97
688.14	299.10
688.48	298.38
688.81	297.62
689.15	296.99
689.49	296.23
689.82	295.47
690.16	294.59
690.50	293.84
690.83	293.03
691.17	292.30
691.51	291.63
691.84	290.97
692.18	290.32
692.52	289.68
692.85	289.11
693.19	288.68
693.52	288.10
693.86	287.46
694.20	286.72
694.53	286.18
694.87	285.55
695.21	284.92
695.54	284.29
695.88	283.57
696.21	282.90
696.55	282.26
696.88	281.71
697.22	281.13
697.56	280.64
697.89	280.14
698.23	279.69
698.56	279.14
698.90	278.63
699.23	278.05
699.57	277.50
699.90	276.85
700.24	276.20
700.58	275.77
700.91	275.36
701.25	275.25
701.58	275.07
701.92	274.74
702.25	274.26
702.59	273.71
702.92	273.43
703.26	273.04
703.59	272.69
703.93	272.60
704.26	272.27
704.60	271.86
704.93	271.32
705.26	270.82
705.60	270.45
705.93	270.00
706.27	269.66
706.60	269.44
706.94	269.34
707.27	268.96
707.61	268.55
707.94	268.09
708.27	267.33
708.61	266.51
708.94	266.03
709.28	265.75
709.61	265.28
709.94	264.85
710.28	264.40
710.61	264.00
710.95	263.20
711.28	263.07
711.61	262.73
711.95	262.58
712.28	262.19
712.61	261.84
712.95	261.74
713.28	261.69
713.61	261.18
713.95	260.63
714.28	260.22
714.61	259.84
714.95	259.52
715.28	259.16
715.61	258.90
715.95	258.57
716.28	258.14
716.61	257.96
716.95	257.62
717.28	257.27
717.61	256.94
717.94	256.67
718.28	256.01
718.61	255.66
718.94	255.29
719.27	255.00
719.61	254.76
719.94	254.32
720.27	253.76
720.60	253.53
720.94	253.34
721.27	253.17
721.60	253.01
721.93	252.77
722.27	252.69
722.60	252.50
722.93	252.15
723.26	252.05
723.59	251.75
723.93	251.55
724.26	251.48
724.59	251.33
724.92	251.16
725.25	251.07
725.59	250.82
725.92	250.70
726.25	250.46
726.58	250.25
726.91	250.05
727.24	249.94
727.57	249.69
727.91	249.41
728.24	249.25
728.57	249.01
728.90	248.87
729.23	248.55
729.56	248.56
729.89	248.46
730.22	248.15
730.55	247.97
730.89	247.81
731.22	247.53
731.55	247.30
731.88	247.15
732.21	246.94
732.54	246.75
732.87	246.60
733.20	246.46
733.53	246.33
733.86	246.27
734.19	246.03
734.52	246.01
734.85	246.15
735.18	245.99
735.51	245.94
735.84	245.83
736.17	245.83
736.50	245.43
736.83	245.91
737.16	245.75
737.49	245.66
737.82	245.45
738.15	245.42
738.48	245.31
738.81	245.14
739.14	244.92
739.47	244.78
739.80	244.60
740.13	244.56
740.46	244.35
740.79	244.05
741.12	243.89
741.45	243.60
741.78	243.21
742.11	243.16
742.44	242.93
742.77	242.89
743.10	242.72
743.43	242.62
743.75	241.91
744.08	242.48
744.41	242.25
744.74	242.13
745.07	241.81
745.40	241.75
745.73	241.84
746.06	241.76
746.39	241.75
746.71	241.55
747.04	241.28
747.37	241.12
747.70	241.15
748.03	241.05
748.36	241.05
748.68	241.03
749.01	240.74
749.34	240.64
749.67	240.40
750.00	240.31
750.33	240.55
750.65	240.47
750.98	239.75
751.31	239.68
751.64	239.58
751.97	239.81
752.29	239.66
752.62	239.34
752.95	239.17
753.28	238.91
753.60	238.90
753.93	239.04
754.26	239.05
754.59	238.81
754.91	238.66
755.24	238.56
755.57	238.39
755.90	238.31
756.22	238.26
756.55	238.16
756.88	237.94
757.20	237.52
757.53	237.24
757.86	237.13
758.19	237.10
758.51	236.99
758.84	236.55
759.17	236.37
759.49	236.33
759.82	236.51
760.15	236.49
760.47	236.37
760.80	236.08
761.13	235.98
761.45	235.89
761.78	235.87
762.11	235.67
762.43	235.53
762.76	235.43
763.08	235.36
763.41	235.31
763.74	235.31
764.06	235.20
764.39	235.20
764.71	235.17
765.04	234.98
765.37	234.94
765.69	234.88
766.02	234.83
766.34	234.66
766.67	234.46
767.00	234.47
767.32	234.69
767.65	234.94
767.97	234.79
768.30	234.75
768.62	234.61
768.95	234.61
769.27	234.57
769.60	234.65
769.92	234.48
770.25	234.28
770.57	234.12
770.90	234.01
771.22	233.92
771.55	233.76
771.87	233.77
772.20	233.66
772.52	234.08
772.85	234.56
773.17	234.53
773.50	234.36
773.82	234.27
774.15	233.95
774.47	233.58
774.80	233.54
775.12	233.48
775.45	233.37
775.77	233.33
776.09	233.33
776.42	233.21
776.74	233.36
777.07	233.38
777.39	233.33
777.72	233.27
778.04	233.26
778.36	233.18
778.69	233.19
779.01	233.15
779.33	232.68
779.66	232.16
779.98	232.07
780.31	232.05
780.63	232.21
780.95	232.18
781.28	232.10
781.60	231.96
781.92	231.92
782.25	231.95
782.57	231.85
782.89	231.68
783.22	231.66
783.54	231.48
783.86	231.40
784.19	231.28
784.51	231.38
784.83	231.26
785.16	231.28
785.48	231.14
785.80	231.08
786.12	231.09
786.45	230.98
786.77	230.99
787.09	230.95
787.42	230.69
787.74	230.69
788.06	230.67
788.38	230.60
788.71	230.50
789.03	230.47
789.35	230.44
789.67	230.34
789.99	230.29
790.32	230.16
790.64	230.20
790.96	230.63
791.28	230.40
791.61	230.44
791.93	230.41
792.25	230.43
792.57	230.79
792.89	230.62
793.21	230.65
793.54	230.59
793.86	230.53
794.18	230.50
794.50	230.38
794.82	230.38
795.14	230.46
795.47	230.49
795.79	230.46
796.11	230.40
796.43	230.41
796.75	230.40
797.07	230.50
797.39	230.45
797.71	230.06
798.04	230.12
798.36	230.07
798.68	230.03
799.00	230.00
799.32	229.78
799.64	229.93
799.96	229.90
800.28	229.99
800.60	229.91
800.92	230.00
801.24	229.94
801.56	229.99
801.89	230.02
802.21	229.99
802.53	229.91
802.85	230.05
803.17	230.27
803.49	230.15
803.81	230.04
804.13	230.01
804.45	229.96
804.77	230.00
805.09	230.01
805.41	230.03
805.73	229.97
806.05	229.79
806.37	229.67
806.69	229.62
807.01	229.56
807.33	229.57
807.65	229.45
807.97	229.67
808.28	229.57
808.60	229.52
808.92	229.54
809.24	229.84
809.56	229.72
809.88	229.52
810.20	229.55
810.52	229.64
810.84	229.55
811.16	229.47
811.48	229.43
811.80	229.57
812.12	229.48
812.43	229.57
812.75	229.55
813.07	229.58
813.39	229.55
813.71	229.41
814.03	229.41
814.35	229.37
814.67	229.18
814.98	229.17
815.30	229.10
815.62	229.00
815.94	228.64
816.26	228.82
816.58	228.71
816.89	228.70
817.21	228.57
817.53	228.63
817.85	228.72
818.17	228.70
818.48	228.48
818.80	228.57
819.12	228.47
819.44	228.45
819.76	228.38
820.07	228.40
820.39	228.42
820.71	228.43
821.03	228.36
821.34	228.28
821.66	228.31
821.98	228.26
822.30	228.22
822.61	228.58
822.93	228.33
823.25	228.35
823.57	228.33
823.88	228.45
824.20	228.39
824.52	228.36
824.83	228.31
825.15	228.27
825.47	228.25
825.79	228.17
826.10	228.13
826.42	228.05
826.74	228.06
827.05	228.05
827.37	228.06
827.69	228.11
828.00	228.15
828.32	228.10
828.64	228.11
828.95	228.39
829.27	228.19
829.58	228.18
829.90	228.25
830.22	228.25
830.53	228.05
830.85	228.03
831.17	227.95
831.48	227.96
831.80	228.01
832.11	227.92
832.43	228.00
832.75	227.97
833.06	228.29
833.38	228.17
833.69	228.21
834.01	228.20
834.32	228.20
834.64	228.14
834.96	228.15
835.27	228.20
835.59	228.06
835.90	228.00
836.22	228.02
836.53	227.93
836.85	227.91
837.16	228.45
837.48	228.42
837.79	228.59
838.11	228.59
838.42	228.58
838.74	228.67
839.05	228.58
839.37	228.54
839.68	228.24
840.00	228.25
840.31	228.26
840.63	228.28
840.94	228.18
841.26	228.12
841.57	228.07
841.88	228.05
842.20	227.89
842.51	227.85
842.83	227.77
843.14	228.19
843.46	228.22
843.77	227.92
844.08	227.86
844.40	227.72
844.71	227.65
845.03	227.60
845.34	227.54
845.65	227.60
845.97	227.57
846.28	227.61
846.60	227.62
846.91	227.55
847.22	227.47
847.54	227.58
847.85	227.64
848.16	227.70
848.48	227.60
848.79	227.84
849.10	227.86
849.42	227.97
849.73	227.51
850.04	227.45
850.36	227.26
850.67	227.35
850.98	227.34
851.30	227.43
851.61	227.39
851.92	227.39
852.23	227.53
852.55	227.58
852.86	227.59
853.17	227.58
853.49	227.70
853.80	227.75
854.11	227.77
854.42	227.82
854.74	227.78
855.05	227.82
855.36	227.50
855.67	227.53
855.99	227.50
856.30	228.01
856.61	227.96
856.92	227.99
857.23	227.94
857.55	227.91
857.86	227.82
858.17	227.89
858.48	227.86
858.79	227.71
859.11	227.78
859.42	227.74
859.73	227.66
860.04	227.62
860.35	227.47
860.66	227.35
860.98	227.35
861.29	227.38
861.60	227.42
861.91	227.57
862.22	227.41
862.53	227.28
862.84	226.78
863.16	227.00
863.47	226.92
863.78	226.98
864.09	226.99
864.40	226.99
864.71	226.97
865.02	227.02
865.33	226.90
865.64	226.87
865.95	226.87
866.27	227.27
866.58	227.19
866.89	227.27
867.20	227.25
867.51	227.14
867.82	227.07
868.13	227.17
868.44	227.06
868.75	227.17
869.06	227.23
869.37	227.27
869.68	227.03
869.99	227.18
870.30	227.14
870.61	227.24
870.92	227.17
871.23	227.14
871.54	227.10
871.85	227.29
872.16	227.31
872.47	227.36
872.78	227.08
873.09	227.12
873.40	227.09
873.71	227.12
874.02	227.18
874.33	227.14
874.64	227.04
874.95	227.15
875.26	227.10
875.56	227.10
875.87	227.12
876.18	227.15
876.49	227.55
876.80	227.51
877.11	227.40
877.42	227.47
877.73	227.45
878.04	227.34
878.35	227.31
878.66	227.31
878.96	227.32
879.27	227.26
879.58	227.22
879.89	227.20
880.20	227.31
880.51	227.30
880.82	227.34
881.12	227.33
881.43	227.20
881.74	227.14
882.05	227.15
882.36	227.21
882.67	227.20
882.97	226.64
883.28	226.67
883.59	226.58
883.90	226.57
884.21	226.69
884.51	226.74
884.82	226.68
885.13	226.71
885.44	226.60
885.74	226.66
886.05	226.64
886.36	226.71
886.67	226.55
886.98	226.76
887.28	226.78
887.59	226.81
887.90	226.96
888.20	226.98
888.51	227.11
888.82	227.02
889.13	227.05
889.43	227.52
889.74	227.50
890.05	227.58
890.35	227.62
890.66	227.56
890.97	227.59
891.28	227.50
891.58	227.45
891.89	227.44
892.20	227.40
892.50	227.35
892.81	227.33
893.12	227.38
893.42	227.14
893.73	227.12
894.04	227.10
894.34	227.01
894.65	226.97
894.95	226.82
895.26	226.83
895.57	227.07
895.87	226.60
896.18	226.74
896.48	226.79
896.79	226.77
897.10	226.80
897.40	226.77
897.71	226.85
898.01	226.79
898.32	226.91
898.63	226.90
898.93	226.94
899.24	226.88
899.54	226.91
899.85	226.94
900.15	227.00
900.46	226.97
900.76	227.08
901.07	227.13
901.38	227.15
901.68	227.18
901.99	226.92
902.29	227.01
902.60	226.86
902.90	226.80
903.21	226.81
903.51	226.80
903.82	226.88
904.12	226.93
904.43	226.97
904.73	226.92
905.03	226.89
905.34	227.35
905.64	227.36
905.95	227.29
906.25	227.27
906.56	227.23
906.86	227.25
907.17	227.12
907.47	227.10
907.77	227.05
908.08	226.94
908.38	227.00
908.69	226.95
908.99	227.15
909.30	227.15
909.60	227.07
909.90	227.12
910.21	226.98
910.51	226.83
910.81	226.83
911.12	226.86
911.42	226.87
911.73	226.42
912.03	226.55
912.33	226.62
912.64	226.57
912.94	226.55
913.24	226.50
913.55	226.53
913.85	226.48
914.15	226.59
914.46	226.64
914.76	226.57
915.06	226.60
915.37	226.44
915.67	226.40
915.97	226.45
916.27	226.31
916.58	226.40
916.88	226.40
917.18	226.43
917.49	226.73
917.79	226.70
918.09	226.72
918.39	226.69
918.70	226.69
919.00	226.75
919.30	226.93
919.60	226.88
919.91	226.79
920.21	226.85
920.51	226.67
920.81	226.64
921.12	226.67
921.42	226.61
921.72	226.59
922.02	226.56
922.32	226.67
922.63	226.70
922.93	226.90
923.23	226.87
923.53	226.77
923.83	226.43
924.13	226.51
924.44	226.49
924.74	226.60
925.04	226.69
925.34	226.60
925.64	226.38
925.94	226.39
926.24	226.66
926.55	226.65
926.85	226.80
927.15	226.83
927.45	226.87
927.75	226.91
928.05	226.98
928.35	227.07
928.65	227.05
928.95	227.03
929.26	226.85
929.56	227.02
929.86	227.14
930.16	227.09
930.46	227.03
930.76	227.06
931.06	226.88
931.36	226.81
931.66	226.92
931.96	227.01
932.26	227.03
932.56	226.83
932.86	226.83
933.16	226.81
933.46	226.78
933.76	226.74
934.06	226.79
934.36	226.93
934.66	226.86
934.96	226.83
935.26	226.95
935.56	227.06
935.86	226.97
936.16	226.88
936.46	226.85
936.76	226.81
937.06	226.81
937.36	226.82
937.66	226.79
937.96	226.72
938.26	226.63
938.56	226.65
938.86	226.67
939.16	226.79
939.46	226.87
939.76	226.92
940.06	226.95
940.35	226.84
940.65	226.62
940.95	226.74
941.25	226.69
941.55	226.61
941.85	226.50
942.15	226.55
942.45	226.68
942.75	226.62
943.04	226.65
943.34	226.65
943.64	226.60
943.94	226.57
944.24	226.63
944.54	226.64
944.84	226.57
945.13	226.49
945.43	226.42
945.73	226.33
946.03	226.28
946.33	226.16
946.62	226.18
946.92	226.16
947.22	226.10
947.52	226.11
947.82	226.13
948.11	226.10
948.41	226.04
948.71	225.98
949.01	226.11
949.31	226.08
949.60	226.02
949.90	226.19
950.20	226.19
950.50	226.18
950.79	226.20
951.09	226.33
951.39	226.29
951.69	226.15
951.98	226.30
952.28	226.29
952.58	226.31
952.87	226.27
953.17	226.36
953.47	226.34
953.76	226.39
954.06	226.30
954.36	226.25
954.66	226.23
954.95	226.30
955.25	226.29
955.55	226.34
955.84	226.28
956.14	226.25
956.44	226.26
956.73	226.15
957.03	226.11
957.32	226.11
957.62	226.09
957.92	226.25
958.21	226.20
958.51	226.65
958.81	226.71
959.10	226.81
959.40	226.87
959.69	226.80
959.99	226.76
960.29	226.77
960.58	226.72
960.88	226.84
961.17	226.78
961.47	226.83
961.76	226.84
962.06	226.92
962.36	226.79
962.65	226.80
962.95	226.91
963.24	226.92
963.54	226.89
963.83	227.01
964.13	226.98
964.42	226.84
964.72	226.53
965.01	226.61
965.31	226.53
965.60	226.47
965.90	226.93
966.19	226.89
966.49	226.88
966.78	226.88
967.08	226.91
967.37	226.87
967.67	226.72
967.96	226.76
968.26	226.73
968.55	226.82
968.85	226.81
969.14	226.76
969.43	226.73
969.73	226.70
970.02	226.68
970.32	226.72
970.61	226.66
970.91	226.53
971.20	226.35
971.49	226.36
971.79	226.36
972.08	225.99
972.38	226.01
972.67	226.04
972.96	226.15
973.26	226.00
973.55	226.18
973.85	226.22
974.14	226.20
974.43	226.28
974.73	226.24
975.02	226.21
975.31	226.26
975.61	226.29
975.90	226.26
976.19	226.25
976.49	226.26
976.78	226.35
977.07	226.36
977.37	226.49
977.66	226.52
977.95	226.49
978.24	226.46
978.54	226.54
978.83	226.51
979.12	226.46
979.42	226.53
979.71	226.41
980.00	226.48
980.29	226.53
980.59	226.52
980.88	226.61
981.17	226.55
981.46	226.56
981.76	226.57
982.05	226.70
982.34	226.61
982.63	226.57
982.93	226.59
983.22	226.76
983.51	226.74
983.80	226.76
984.09	226.81
984.39	226.83
984.68	226.70
984.97	226.72
985.26	226.69
985.55	226.65
985.85	226.62
986.14	226.65
986.43	226.66
986.72	226.54
987.01	226.41
987.30	226.44
987.59	226.34
987.89	226.32
988.18	226.22
988.47	226.22
988.76	226.12
989.05	226.07
989.34	225.94
989.63	226.06
989.92	226.07
990.22	226.01
990.51	226.00
990.80	226.00
991.09	226.03
991.38	226.10
991.67	226.07
991.96	225.99
992.25	225.91
992.54	225.84
992.83	225.95
993.12	225.97
993.41	226.04
993.70	226.31
993.99	226.47
994.28	226.52
994.58	226.60
994.87	226.65
995.16	226.66
995.45	226.57
995.74	226.38
996.03	226.42
996.32	226.52
996.61	226.65
996.90	226.70
997.19	226.67
997.48	226.68
997.77	226.65
998.06	226.78
998.34	226.83
998.63	226.80
998.92	226.73
999.21	226.82
999.50	226.86
999.79	226.70
1000.08	226.64
1000.37	226.66
1000.66	226.61
1000.95	226.75
1001.24	226.82
1001.53	226.96
1001.82	226.89
1002.11	226.79
1002.40	226.75
1002.68	226.88
1002.97	227.24
1003.26	227.19
1003.55	227.13
1003.84	227.20
1004.13	227.35
1004.42	227.33
1004.71	227.36
1004.99	227.36
1005.28	227.41
1005.57	227.36
1005.86	227.31
1006.15	227.20
1006.44	227.15
1006.72	227.22
1007.01	227.17
1007.30	227.13
1007.59	227.14
1007.88	227.20
1008.17	227.25
1008.45	227.23
1008.74	227.00
1009.03	226.85
1009.32	226.88
1009.60	226.90
1009.89	226.90
1010.18	226.62
1010.47	226.61
1010.76	226.61
1011.04	226.59
1011.33	226.65
1011.62	226.70
1011.91	226.75
1012.19	226.77
1012.48	226.74
1012.77	226.78
1013.05	226.95
1013.34	226.93
1013.63	226.91
1013.92	226.94
1014.20	226.83
1014.49	226.85
1014.78	226.90
1015.06	226.59
1015.35	226.60
1015.64	226.68
1015.92	226.67
1016.21	226.72
1016.50	226.69
1016.78	226.79
1017.07	226.84
1017.36	226.69
1017.64	226.59
1017.93	226.61
1018.22	226.55
1018.50	226.60
1018.79	226.60
1019.08	226.33
1019.36	226.41
1019.65	226.34
1019.93	226.55
1020.22	226.72
1020.51	226.95
1020.79	226.89
1021.08	224.90
1021.36	226.50
1021.65	227.75
1021.94	225.25
1022.22	227.60
1022.51	226.35
1022.79	229.90
1023.08	228.55
1023.36	232.60
1023.65	225.70
>>>>>End Processed Spectral Data<<<<<
