SpectraSuite Data File
++++++++++++++++++++++++++++++++++++
Date: Wed Sep 04 18:03:04 EDT 2013
User: lab3
Dark Spectrum Present: Yes
Reference Spectrum Present: No
Number of Sampled Component Spectra: 1
Spectrometers: USB2E7196
Integration Time (usec): 170000 (USB2E7196)
Spectra Averaged: 20 (USB2E7196)
Boxcar Smoothing: 10 (USB2E7196)
Correct for Electrical Dark: No (USB2E7196)
Strobe/Lamp Enabled: No (USB2E7196)
Correct for Detector Non-linearity: No (USB2E7196)
Correct for Stray Light: No (USB2E7196)
Number of Pixels in Processed Spectrum: 2048
>>>>>Begin Processed Spectral Data<<<<<
339.09	0.00
339.48	212.15
339.86	215.55
340.24	215.55
340.63	217.15
341.01	225.75
341.39	220.80
341.78	223.75
342.16	224.55
342.54	224.40
342.93	212.68
343.31	223.38
343.69	223.99
344.07	224.39
344.46	224.95
344.84	225.37
345.22	225.42
345.60	225.71
345.99	225.85
346.37	225.98
346.75	226.03
347.13	226.10
347.52	226.19
347.90	226.42
348.28	226.52
348.66	226.65
349.05	226.56
349.43	226.69
349.81	226.80
350.19	226.94
350.57	226.99
350.96	227.10
351.34	227.25
351.72	227.32
352.10	227.45
352.48	227.44
352.87	227.45
353.25	227.50
353.63	227.48
354.01	227.48
354.39	227.54
354.77	227.64
355.15	227.89
355.54	227.96
355.92	227.86
356.30	227.84
356.68	228.15
357.06	228.22
357.44	228.15
357.82	228.14
358.20	228.54
358.58	228.55
358.97	228.52
359.35	228.62
359.73	228.81
360.11	228.83
360.49	228.92
360.87	229.00
361.25	229.10
361.63	229.38
362.01	229.50
362.39	229.49
362.77	229.54
363.15	229.54
363.53	229.54
363.91	229.59
364.29	229.69
364.67	229.26
365.05	229.34
365.43	229.50
365.81	229.58
366.19	229.47
366.57	229.80
366.95	229.85
367.33	229.71
367.71	229.68
368.09	229.86
368.47	229.88
368.85	229.90
369.23	229.98
369.61	229.78
369.99	229.92
370.37	230.04
370.75	230.27
371.13	230.07
371.51	230.00
371.89	230.02
372.27	230.01
372.65	230.10
373.03	230.08
373.41	229.95
373.78	229.91
374.16	229.57
374.54	229.35
374.92	229.21
375.30	229.25
375.68	229.16
376.06	229.05
376.44	228.95
376.82	228.94
377.19	228.81
377.57	228.76
377.95	228.54
378.33	228.40
378.71	228.07
379.09	228.14
379.47	228.18
379.84	228.08
380.22	227.94
380.60	227.81
380.98	227.66
381.36	227.50
381.73	227.28
382.11	227.40
382.49	227.37
382.87	227.25
383.25	227.22
383.62	227.65
384.00	227.53
384.38	227.43
384.76	227.48
385.13	227.62
385.51	227.54
385.89	227.43
386.27	227.42
386.64	227.45
387.02	227.30
387.40	227.17
387.78	227.16
388.15	227.13
388.53	227.05
388.91	227.03
389.29	227.05
389.66	227.23
390.04	227.11
390.42	227.08
390.79	227.11
391.17	227.10
391.55	226.54
391.92	226.56
392.30	226.68
392.68	226.52
393.05	226.48
393.43	226.55
393.81	226.59
394.18	226.52
394.56	226.54
394.94	226.69
395.31	226.66
395.69	226.83
396.06	226.99
396.44	227.05
396.82	227.08
397.19	227.35
397.57	227.33
397.95	227.46
398.32	227.34
398.70	227.45
399.07	227.56
399.45	227.67
399.82	227.75
400.20	227.79
400.58	227.89
400.95	227.80
401.33	228.03
401.70	228.52
402.08	228.65
402.45	228.79
402.83	229.06
403.20	229.29
403.58	229.35
403.95	229.50
404.33	229.75
404.71	230.00
405.08	230.46
405.46	230.70
405.83	230.91
406.21	231.26
406.58	231.60
406.96	231.84
407.33	232.17
407.70	232.58
408.08	233.29
408.45	233.76
408.83	234.30
409.20	234.57
409.58	234.70
409.95	235.25
410.33	235.78
410.70	236.15
411.08	236.77
411.45	237.39
411.82	237.98
412.20	238.80
412.57	239.78
412.95	240.19
413.32	241.04
413.69	241.90
414.07	242.79
414.44	243.76
414.82	244.88
415.19	246.12
415.56	247.24
415.94	248.22
416.31	249.67
416.68	251.09
417.06	252.76
417.43	254.41
417.81	256.13
418.18	258.01
418.55	259.86
418.93	261.89
419.30	264.02
419.67	266.32
420.04	268.58
420.42	270.83
420.79	273.88
421.16	276.72
421.54	279.79
421.91	282.77
422.28	285.86
422.66	289.08
423.03	292.60
423.40	296.05
423.77	299.62
424.15	303.13
424.52	306.98
424.89	311.12
425.26	315.11
425.64	319.00
426.01	323.19
426.38	327.76
426.75	332.35
427.13	336.92
427.50	341.61
427.87	346.57
428.24	351.60
428.61	356.17
428.99	361.48
429.36	366.93
429.73	372.54
430.10	378.04
430.47	383.85
430.85	389.35
431.22	395.65
431.59	402.54
431.96	408.84
432.33	415.72
432.70	422.39
433.08	430.37
433.45	437.74
433.82	445.04
434.19	453.16
434.56	461.32
434.93	469.17
435.30	477.06
435.68	485.69
436.05	494.24
436.42	502.58
436.79	510.27
437.16	518.82
437.53	527.62
437.90	536.41
438.27	545.00
438.64	553.98
439.01	562.23
439.38	569.39
439.75	576.69
440.13	584.80
440.50	592.55
440.87	598.63
441.24	605.15
441.61	612.30
441.98	617.35
442.35	623.20
442.72	629.31
443.09	635.20
443.46	638.57
443.83	640.76
444.20	642.68
444.57	645.44
444.94	646.45
445.31	647.55
445.68	648.94
446.05	649.08
446.42	647.87
446.79	646.40
447.16	644.79
447.53	643.30
447.90	639.56
448.27	635.79
448.64	630.85
449.01	627.02
449.37	620.66
449.74	614.55
450.11	607.64
450.48	599.73
450.85	591.60
451.22	584.79
451.59	578.14
451.96	571.82
452.33	563.63
452.70	556.16
453.07	547.45
453.43	538.23
453.80	529.79
454.17	521.60
454.54	513.87
454.91	505.61
455.28	497.80
455.65	490.39
456.02	483.42
456.38	476.92
456.75	469.14
457.12	462.68
457.49	456.43
457.86	449.90
458.23	444.57
458.59	438.79
458.96	432.84
459.33	427.74
459.70	422.66
460.07	418.55
460.43	413.87
460.80	409.55
461.17	405.78
461.54	401.69
461.91	397.91
462.27	393.90
462.64	390.57
463.01	386.97
463.38	383.58
463.74	379.52
464.11	376.50
464.48	373.85
464.85	371.06
465.21	368.93
465.58	366.65
465.95	363.84
466.32	361.66
466.68	359.45
467.05	357.21
467.42	355.04
467.78	352.69
468.15	350.64
468.52	349.01
468.88	346.82
469.25	344.88
469.62	343.43
469.98	341.91
470.35	340.45
470.72	338.96
471.08	337.19
471.45	335.98
471.82	334.78
472.18	333.32
472.55	332.24
472.92	330.87
473.28	329.69
473.65	328.65
474.02	327.49
474.38	326.66
474.75	325.85
475.11	324.90
475.48	324.22
475.85	323.45
476.21	322.82
476.58	322.37
476.94	322.01
477.31	321.49
477.67	321.04
478.04	320.69
478.41	320.44
478.77	320.75
479.14	320.37
479.50	320.21
479.87	320.34
480.23	320.27
480.60	320.25
480.96	320.36
481.33	320.70
481.69	320.92
482.06	321.10
482.42	321.28
482.79	321.66
483.15	322.14
483.52	322.76
483.88	323.23
484.25	323.67
484.61	324.28
484.98	324.97
485.34	326.00
485.71	327.01
486.07	327.97
486.44	328.56
486.80	329.64
487.17	330.82
487.53	332.19
487.90	333.70
488.26	335.38
488.62	337.10
488.99	338.62
489.35	340.48
489.72	342.40
490.08	344.47
490.44	346.47
490.81	348.78
491.17	350.93
491.54	353.51
491.90	356.30
492.26	359.03
492.63	361.81
492.99	364.50
493.36	367.50
493.72	370.84
494.08	374.36
494.45	378.24
494.81	382.14
495.17	385.86
495.54	390.09
495.90	394.33
496.26	398.69
496.63	403.36
496.99	408.05
497.35	413.08
497.72	418.34
498.08	423.80
498.44	429.41
498.80	435.49
499.17	441.50
499.53	447.69
499.89	454.41
500.26	461.19
500.62	468.37
500.98	475.77
501.34	483.32
501.71	491.09
502.07	498.81
502.43	507.06
502.79	515.59
503.16	524.24
503.52	533.40
503.88	542.63
504.24	552.44
504.60	562.58
504.97	573.06
505.33	583.69
505.69	594.95
506.05	606.01
506.41	617.45
506.78	629.21
507.14	641.10
507.50	653.37
507.86	666.12
508.22	679.08
508.59	692.26
508.95	705.91
509.31	720.11
509.67	734.63
510.03	748.78
510.39	763.72
510.75	778.89
511.12	794.05
511.48	809.92
511.84	825.76
512.20	841.65
512.56	857.79
512.92	874.59
513.28	891.27
513.64	908.55
514.00	926.15
514.37	943.71
514.73	962.08
515.09	980.47
515.45	998.96
515.81	1017.50
516.17	1036.16
516.53	1054.99
516.89	1073.59
517.25	1092.94
517.61	1113.41
517.97	1133.68
518.33	1153.70
518.69	1174.05
519.05	1194.55
519.41	1215.15
519.77	1236.42
520.13	1257.35
520.49	1277.88
520.85	1300.45
521.21	1321.81
521.57	1342.93
521.93	1364.00
522.29	1385.57
522.65	1406.38
523.01	1427.38
523.37	1448.30
523.73	1469.53
524.09	1489.93
524.45	1510.80
524.81	1531.80
525.17	1552.58
525.53	1573.12
525.89	1593.95
526.25	1614.79
526.61	1635.36
526.97	1656.37
527.33	1677.74
527.68	1699.60
528.04	1721.21
528.40	1740.75
528.76	1761.85
529.12	1782.46
529.48	1803.65
529.84	1823.32
530.20	1844.45
530.56	1865.37
530.91	1886.40
531.27	1906.74
531.63	1927.62
531.99	1948.51
532.35	1968.76
532.71	1988.80
533.07	2009.50
533.42	2029.63
533.78	2050.08
534.14	2069.79
534.50	2089.16
534.86	2108.33
535.21	2125.80
535.57	2144.58
535.93	2162.52
536.29	2180.33
536.65	2198.57
537.00	2216.01
537.36	2234.04
537.72	2250.71
538.08	2267.96
538.44	2284.98
538.79	2301.85
539.15	2318.36
539.51	2334.40
539.87	2349.75
540.22	2364.31
540.58	2378.93
540.94	2392.22
541.29	2404.97
541.65	2418.14
542.01	2430.85
542.37	2441.44
542.72	2452.63
543.08	2463.13
543.44	2475.12
543.79	2485.26
544.15	2495.24
544.51	2505.47
544.87	2515.05
545.22	2523.75
545.58	2531.44
545.94	2538.53
546.29	2545.22
546.65	2551.96
547.01	2557.57
547.36	2563.18
547.72	2568.57
548.07	2572.79
548.43	2578.67
548.79	2583.38
549.14	2587.42
549.50	2591.26
549.86	2595.47
550.21	2599.79
550.57	2603.24
550.92	2604.43
551.28	2606.03
551.64	2608.28
551.99	2610.45
552.35	2612.12
552.70	2614.36
553.06	2616.41
553.41	2617.64
553.77	2619.48
554.13	2621.02
554.48	2622.74
554.84	2624.27
555.19	2625.54
555.55	2626.84
555.90	2625.93
556.26	2624.93
556.61	2623.22
556.97	2621.17
557.32	2620.59
557.68	2619.27
558.03	2617.68
558.39	2616.45
558.74	2615.52
559.10	2612.49
559.45	2608.83
559.81	2604.49
560.16	2599.50
560.52	2594.44
560.87	2589.89
561.23	2584.33
561.58	2578.39
561.94	2571.55
562.29	2564.03
562.64	2556.84
563.00	2548.87
563.35	2542.55
563.71	2536.04
564.06	2530.05
564.42	2523.60
564.77	2516.76
565.12	2509.26
565.48	2501.54
565.83	2494.03
566.19	2486.23
566.54	2478.75
566.89	2470.70
567.25	2463.19
567.60	2455.98
567.96	2448.45
568.31	2440.42
568.66	2431.73
569.02	2422.72
569.37	2414.72
569.72	2407.14
570.08	2398.16
570.43	2388.82
570.78	2379.39
571.14	2369.85
571.49	2359.59
571.84	2350.10
572.20	2339.18
572.55	2328.92
572.90	2318.16
573.26	2307.55
573.61	2296.41
573.96	2285.01
574.31	2273.02
574.67	2261.13
575.02	2248.32
575.37	2235.83
575.72	2222.55
576.08	2210.71
576.43	2198.10
576.78	2184.61
577.13	2170.86
577.49	2157.76
577.84	2145.50
578.19	2133.38
578.54	2120.70
578.90	2108.99
579.25	2096.44
579.60	2084.02
579.95	2071.18
580.30	2058.00
580.66	2044.40
581.01	2030.59
581.36	2016.70
581.71	2004.16
582.06	1990.94
582.42	1978.29
582.77	1965.30
583.12	1953.46
583.47	1941.00
583.82	1928.72
584.17	1916.82
584.53	1905.04
584.88	1892.15
585.23	1879.25
585.58	1865.00
585.93	1851.86
586.28	1837.80
586.63	1823.78
586.98	1809.53
587.34	1796.10
587.69	1782.77
588.04	1770.17
588.39	1757.93
588.74	1745.43
589.09	1732.91
589.44	1720.45
589.79	1708.28
590.14	1696.20
590.49	1683.83
590.84	1671.39
591.19	1659.54
591.54	1646.86
591.89	1634.55
592.25	1624.45
592.60	1612.44
592.95	1600.98
593.30	1588.79
593.65	1577.19
594.00	1565.13
594.35	1554.91
594.70	1543.10
595.05	1531.70
595.40	1519.27
595.75	1507.25
596.10	1495.83
596.45	1484.21
596.80	1473.12
597.15	1461.71
597.50	1449.92
597.85	1438.52
598.19	1426.89
598.54	1415.32
598.89	1404.32
599.24	1393.60
599.59	1381.63
599.94	1370.92
600.29	1360.49
600.64	1350.15
600.99	1339.09
601.34	1329.41
601.69	1318.26
602.04	1308.35
602.39	1298.50
602.74	1289.64
603.08	1280.28
603.43	1270.90
603.78	1261.26
604.13	1251.29
604.48	1241.48
604.83	1231.66
605.18	1221.79
605.53	1212.27
605.87	1202.95
606.22	1194.31
606.57	1184.86
606.92	1175.48
607.27	1166.54
607.62	1157.55
607.96	1148.91
608.31	1141.00
608.66	1132.39
609.01	1123.78
609.36	1115.09
609.70	1106.51
610.05	1097.67
610.40	1089.02
610.75	1080.34
611.10	1071.92
611.44	1063.26
611.79	1055.02
612.14	1047.28
612.49	1039.37
612.83	1031.68
613.18	1023.62
613.53	1015.77
613.88	1007.62
614.22	1000.02
614.57	991.99
614.92	984.13
615.27	976.52
615.61	968.80
615.96	961.20
616.31	953.61
616.65	946.54
617.00	939.10
617.35	931.57
617.70	924.52
618.04	917.37
618.39	910.37
618.74	904.04
619.08	897.12
619.43	889.86
619.78	882.76
620.12	875.68
620.47	868.92
620.82	861.60
621.16	854.82
621.51	848.29
621.85	841.94
622.20	835.16
622.55	828.36
622.89	821.74
623.24	815.23
623.59	808.79
623.93	802.18
624.28	796.15
624.62	790.63
624.97	784.61
625.32	778.71
625.66	772.42
626.01	766.28
626.35	760.64
626.70	755.23
627.04	750.16
627.39	744.50
627.73	739.05
628.08	733.81
628.43	728.35
628.77	722.84
629.12	717.45
629.46	712.73
629.81	707.96
630.15	703.17
630.50	698.35
630.84	693.52
631.19	688.76
631.53	684.06
631.88	678.66
632.22	673.78
632.57	669.35
632.91	664.98
633.26	660.36
633.60	655.79
633.95	650.91
634.29	645.87
634.64	641.30
634.98	636.52
635.32	632.06
635.67	628.06
636.01	623.74
636.36	619.43
636.70	615.23
637.05	611.08
637.39	606.91
637.73	602.74
638.08	598.68
638.42	594.50
638.77	590.15
639.11	585.86
639.45	581.50
639.80	576.95
640.14	572.68
640.49	568.69
640.83	564.82
641.17	561.28
641.52	557.55
641.86	553.95
642.20	550.70
642.55	546.98
642.89	543.34
643.23	539.99
643.58	536.74
643.92	532.95
644.26	529.50
644.61	526.15
644.95	522.63
645.29	519.25
645.64	516.04
645.98	512.88
646.32	509.96
646.66	506.88
647.01	503.97
647.35	501.20
647.69	498.34
648.04	495.45
648.38	492.54
648.72	489.60
649.06	486.66
649.41	483.58
649.75	480.55
650.09	477.80
650.43	474.69
650.78	471.74
651.12	469.03
651.46	466.12
651.80	463.30
652.14	460.67
652.49	457.93
652.83	455.39
653.17	452.80
653.51	450.00
653.85	447.66
654.20	445.19
654.54	442.59
654.88	440.05
655.22	437.68
655.56	435.17
655.90	432.84
656.25	430.60
656.59	428.35
656.93	426.25
657.27	424.02
657.61	421.71
657.95	419.44
658.29	417.30
658.64	415.25
658.98	413.07
659.32	410.84
659.66	408.80
660.00	406.50
660.34	404.41
660.68	402.48
661.02	400.31
661.36	398.21
661.70	396.13
662.05	394.10
662.39	392.14
662.73	390.38
663.07	388.75
663.41	386.76
663.75	384.74
664.09	382.89
664.43	380.89
664.77	379.15
665.11	377.34
665.45	375.58
665.79	373.84
666.13	372.08
666.47	370.33
666.81	368.62
667.15	366.92
667.49	365.41
667.83	364.07
668.17	362.57
668.51	361.15
668.85	359.88
669.19	358.70
669.53	357.10
669.87	355.54
670.21	353.99
670.55	352.69
670.89	351.60
671.23	350.18
671.57	348.82
671.91	347.53
672.25	346.20
672.58	344.98
672.92	343.59
673.26	342.37
673.60	341.28
673.94	340.19
674.28	339.08
674.62	337.85
674.96	336.56
675.30	335.37
675.64	334.23
675.97	332.83
676.31	331.42
676.65	330.19
676.99	329.21
677.33	327.97
677.67	326.89
678.01	325.51
678.34	324.45
678.68	323.52
679.02	322.44
679.36	321.51
679.70	320.46
680.04	319.53
680.37	318.47
680.71	317.44
681.05	316.50
681.39	315.64
681.73	314.65
682.06	313.66
682.40	312.81
682.74	311.91
683.08	311.22
683.42	310.35
683.75	309.66
684.09	308.65
684.43	307.93
684.77	307.02
685.10	306.35
685.44	305.52
685.78	304.66
686.12	303.84
686.45	303.11
686.79	302.23
687.13	301.46
687.46	300.75
687.80	300.01
688.14	299.14
688.48	298.38
688.81	297.69
689.15	297.05
689.49	296.27
689.82	295.60
690.16	294.73
690.50	294.04
690.83	293.25
691.17	292.50
691.51	291.76
691.84	291.10
692.18	290.29
692.52	289.61
692.85	288.97
693.19	288.51
693.52	287.77
693.86	287.11
694.20	286.44
694.53	285.84
694.87	285.21
695.21	284.53
695.54	283.85
695.88	283.17
696.21	282.39
696.55	281.71
696.88	281.03
697.22	280.45
697.56	279.96
697.89	279.29
698.23	278.75
698.56	278.16
698.90	277.74
699.23	277.19
699.57	276.78
699.90	276.19
700.24	275.57
700.58	275.16
700.91	274.83
701.25	274.79
701.58	274.68
701.92	274.36
702.25	273.89
702.59	273.46
702.92	273.02
703.26	272.67
703.59	272.28
703.93	272.22
704.26	271.87
704.60	271.43
704.93	271.01
705.26	270.61
705.60	270.31
705.93	269.79
706.27	269.57
706.60	269.30
706.94	269.18
707.27	268.72
707.61	268.28
707.94	267.88
708.27	267.10
708.61	266.35
708.94	265.92
709.28	265.64
709.61	265.25
709.94	265.01
710.28	264.63
710.61	264.36
710.95	263.65
711.28	263.66
711.61	263.29
711.95	263.04
712.28	262.59
712.61	262.20
712.95	262.05
713.28	261.90
713.61	261.37
713.95	260.80
714.28	260.61
714.61	260.28
714.95	259.92
715.28	259.50
715.61	259.18
715.95	258.86
716.28	258.46
716.61	258.14
716.95	257.72
717.28	257.49
717.61	257.22
717.94	256.96
718.28	256.24
718.61	255.95
718.94	255.63
719.27	255.40
719.61	255.22
719.94	254.85
720.27	254.28
720.60	254.01
720.94	253.83
721.27	253.60
721.60	253.46
721.93	253.18
722.27	253.17
722.60	253.02
722.93	252.66
723.26	252.55
723.59	252.29
723.93	252.06
724.26	251.80
724.59	251.56
724.92	251.36
725.25	251.26
725.59	251.09
725.92	250.96
726.25	250.75
726.58	250.48
726.91	250.30
727.24	250.20
727.57	250.05
727.91	249.80
728.24	249.60
728.57	249.30
728.90	249.25
729.23	248.95
729.56	249.00
729.89	248.92
730.22	248.70
730.55	248.54
730.89	248.41
731.22	248.27
731.55	248.06
731.88	247.94
732.21	247.77
732.54	247.49
732.87	247.24
733.20	247.18
733.53	247.03
733.86	246.88
734.19	246.68
734.52	246.53
734.85	246.67
735.18	246.42
735.51	246.45
735.84	246.22
736.17	246.14
736.50	245.71
736.83	246.15
737.16	246.00
737.49	245.87
737.82	245.66
738.15	245.53
738.48	245.30
738.81	245.05
739.14	244.86
739.47	244.65
739.80	244.54
740.13	244.35
740.46	244.15
740.79	243.95
741.12	243.77
741.45	243.55
741.78	243.12
742.11	243.11
742.44	242.78
742.77	242.79
743.10	242.54
743.43	242.38
743.75	241.65
744.08	242.08
744.41	241.98
744.74	241.76
745.07	241.52
745.40	241.47
745.73	241.59
746.06	241.45
746.39	241.37
746.71	241.24
747.04	241.05
747.37	240.87
747.70	240.80
748.03	240.72
748.36	240.66
748.68	240.53
749.01	240.29
749.34	240.15
749.67	240.00
750.00	240.01
750.33	240.27
750.65	240.20
750.98	239.53
751.31	239.36
751.64	239.32
751.97	239.47
752.29	239.32
752.62	238.95
752.95	238.83
753.28	238.70
753.60	238.52
753.93	238.56
754.26	238.54
754.59	238.25
754.91	238.08
755.24	237.95
755.57	237.87
755.90	237.75
756.22	237.65
756.55	237.42
756.88	237.28
757.20	236.82
757.53	236.58
757.86	236.45
758.19	236.44
758.51	236.27
758.84	235.91
759.17	235.70
759.49	235.61
759.82	235.75
760.15	235.70
760.47	235.66
760.80	235.41
761.13	235.42
761.45	235.37
761.78	235.22
762.11	235.16
762.43	235.01
762.76	234.90
763.08	234.92
763.41	234.97
763.74	234.78
764.06	234.66
764.39	234.66
764.71	234.57
765.04	234.39
765.37	234.33
765.69	234.24
766.02	234.32
766.34	234.25
766.67	233.93
767.00	234.01
767.32	234.21
767.65	234.46
767.97	234.36
768.30	234.35
768.62	234.34
768.95	234.24
769.27	234.23
769.60	234.24
769.92	234.11
770.25	233.87
770.57	233.86
770.90	233.81
771.22	233.67
771.55	233.69
771.87	233.68
772.20	233.67
772.52	234.08
772.85	234.60
773.17	234.62
773.50	234.57
773.82	234.37
774.15	234.03
774.47	233.70
774.80	233.55
775.12	233.47
775.45	233.45
775.77	233.43
776.09	233.37
776.42	233.32
776.74	233.40
777.07	233.35
777.39	233.26
777.72	233.19
778.04	233.23
778.36	233.14
778.69	233.10
779.01	233.13
779.33	232.68
779.66	232.07
779.98	232.03
780.31	232.03
780.63	232.18
780.95	232.20
781.28	232.16
781.60	232.14
781.92	232.13
782.25	232.04
782.57	232.04
782.89	231.95
783.22	231.81
783.54	231.61
783.86	231.55
784.19	231.48
784.51	231.56
784.83	231.40
785.16	231.32
785.48	231.31
785.80	231.26
786.12	231.23
786.45	231.20
786.77	231.13
787.09	231.08
787.42	230.91
787.74	230.93
788.06	230.95
788.38	230.80
788.71	230.73
789.03	230.73
789.35	230.65
789.67	230.60
789.99	230.68
790.32	230.67
790.64	230.79
790.96	231.10
791.28	230.92
791.61	230.81
791.93	230.82
792.25	230.80
792.57	231.03
792.89	230.95
793.21	230.98
793.54	230.88
793.86	230.76
794.18	230.78
794.50	230.68
794.82	230.63
795.14	230.68
795.47	230.68
795.79	230.71
796.11	230.55
796.43	230.46
796.75	230.40
797.07	230.40
797.39	230.31
797.71	229.99
798.04	229.96
798.36	230.02
798.68	229.99
799.00	229.96
799.32	229.67
799.64	229.65
799.96	229.59
800.28	229.68
800.60	229.65
800.92	229.63
801.24	229.55
801.56	229.49
801.89	229.45
802.21	229.47
802.53	229.30
802.85	229.40
803.17	229.65
803.49	229.60
803.81	229.53
804.13	229.46
804.45	229.34
804.77	229.41
805.09	229.43
805.41	229.27
805.73	229.18
806.05	229.06
806.37	229.04
806.69	228.93
807.01	228.85
807.33	228.86
807.65	228.66
807.97	228.93
808.28	228.96
808.60	228.94
808.92	228.92
809.24	229.24
809.56	229.18
809.88	228.99
810.20	229.03
810.52	229.01
810.84	228.93
811.16	228.97
811.48	228.92
811.80	228.99
812.12	229.09
812.43	229.16
812.75	229.15
813.07	229.16
813.39	229.15
813.71	229.07
814.03	229.01
814.35	229.04
814.67	228.76
814.98	228.69
815.30	228.64
815.62	228.59
815.94	228.28
816.26	228.47
816.58	228.33
816.89	228.39
817.21	228.35
817.53	228.35
817.85	228.34
818.17	228.28
818.48	228.18
818.80	228.22
819.12	228.13
819.44	228.06
819.76	228.01
820.07	228.01
820.39	228.08
820.71	228.12
821.03	228.09
821.34	228.07
821.66	228.06
821.98	228.14
822.30	228.02
822.61	228.25
822.93	228.03
823.25	228.09
823.57	227.93
823.88	227.92
824.20	227.90
824.52	228.01
824.83	228.01
825.15	227.96
825.47	227.90
825.79	227.93
826.10	227.97
826.42	227.89
826.74	227.91
827.05	227.78
827.37	227.81
827.69	227.82
828.00	227.85
828.32	227.84
828.64	227.76
828.95	228.01
829.27	227.97
829.58	227.98
829.90	228.02
830.22	228.06
830.53	227.98
830.85	227.90
831.17	227.77
831.48	227.75
831.80	227.72
832.11	227.70
832.43	227.67
832.75	227.65
833.06	227.93
833.38	227.80
833.69	227.91
834.01	227.91
834.32	227.94
834.64	227.88
834.96	227.93
835.27	227.93
835.59	227.80
835.90	227.64
836.22	227.64
836.53	227.54
836.85	227.53
837.16	228.07
837.48	228.10
837.79	228.16
838.11	228.24
838.42	228.31
838.74	228.37
839.05	228.27
839.37	228.24
839.68	227.95
840.00	228.02
840.31	228.03
840.63	227.90
840.94	227.78
841.26	227.77
841.57	227.79
841.88	227.91
842.20	227.78
842.51	227.74
842.83	227.67
843.14	228.12
843.46	228.03
843.77	227.75
844.08	227.75
844.40	227.70
844.71	227.59
845.03	227.50
845.34	227.50
845.65	227.45
845.97	227.48
846.28	227.50
846.60	227.49
846.91	227.44
847.22	227.54
847.54	227.71
847.85	227.67
848.16	227.61
848.48	227.44
848.79	227.73
849.10	227.80
849.42	227.85
849.73	227.45
850.04	227.46
850.36	227.27
850.67	227.42
850.98	227.40
851.30	227.48
851.61	227.49
851.92	227.37
852.23	227.58
852.55	227.57
852.86	227.61
853.17	227.71
853.49	227.74
853.80	227.80
854.11	227.85
854.42	227.91
854.74	227.84
855.05	227.80
855.36	227.51
855.67	227.51
855.99	227.45
856.30	227.98
856.61	227.96
856.92	228.06
857.23	228.02
857.55	227.95
857.86	227.88
858.17	227.91
858.48	227.90
858.79	227.80
859.11	227.90
859.42	227.81
859.73	227.66
860.04	227.68
860.35	227.45
860.66	227.25
860.98	227.24
861.29	227.28
861.60	227.35
861.91	227.43
862.22	227.30
862.53	227.28
862.84	226.69
863.16	226.76
863.47	226.59
863.78	226.53
864.09	226.61
864.40	226.63
864.71	226.58
865.02	226.59
865.33	226.51
865.64	226.29
865.95	226.32
866.27	226.62
866.58	226.58
866.89	226.68
867.20	226.68
867.51	226.62
867.82	226.66
868.13	226.71
868.44	226.59
868.75	226.69
869.06	226.76
869.37	226.85
869.68	226.69
869.99	226.85
870.30	226.91
870.61	226.86
870.92	226.83
871.23	226.82
871.54	226.93
871.85	227.08
872.16	227.25
872.47	227.24
872.78	226.99
873.09	227.04
873.40	226.99
873.71	227.04
874.02	227.10
874.33	227.07
874.64	227.00
874.95	227.13
875.26	227.06
875.56	227.02
875.87	227.00
876.18	227.09
876.49	227.54
876.80	227.44
877.11	227.43
877.42	227.46
877.73	227.43
878.04	227.36
878.35	227.34
878.66	227.35
878.96	227.34
879.27	227.29
879.58	227.22
879.89	227.28
880.20	227.40
880.51	227.38
880.82	227.33
881.12	227.32
881.43	227.22
881.74	227.21
882.05	227.21
882.36	227.20
882.67	227.27
882.97	226.72
883.28	226.65
883.59	226.63
883.90	226.63
884.21	226.80
884.51	226.79
884.82	226.70
885.13	226.71
885.44	226.76
885.74	226.79
886.05	226.85
886.36	226.81
886.67	226.70
886.98	226.86
887.28	226.99
887.59	227.06
887.90	227.09
888.20	227.05
888.51	227.08
888.82	227.10
889.13	227.10
889.43	227.48
889.74	227.49
890.05	227.51
890.35	227.48
890.66	227.43
890.97	227.38
891.28	227.38
891.58	227.29
891.89	227.27
892.20	227.22
892.50	227.10
892.81	227.20
893.12	227.17
893.42	227.01
893.73	226.94
894.04	227.00
894.34	227.05
894.65	227.05
894.95	227.03
895.26	227.03
895.57	227.21
895.87	226.79
896.18	226.91
896.48	227.02
896.79	227.05
897.10	227.08
897.40	227.14
897.71	227.22
898.01	227.21
898.32	227.23
898.63	227.24
898.93	227.27
899.24	227.19
899.54	227.17
899.85	227.16
900.15	227.17
900.46	227.16
900.76	227.15
901.07	227.10
901.38	227.12
901.68	227.12
901.99	226.87
902.29	226.93
902.60	226.83
902.90	226.67
903.21	226.71
903.51	226.67
903.82	226.67
904.12	226.62
904.43	226.67
904.73	226.66
905.03	226.74
905.34	227.20
905.64	227.24
905.95	227.24
906.25	227.25
906.56	227.25
906.86	227.22
907.17	227.24
907.47	227.33
907.77	227.30
908.08	227.28
908.38	227.30
908.69	227.35
908.99	227.50
909.30	227.61
909.60	227.58
909.90	227.60
910.21	227.50
910.51	227.46
910.81	227.46
911.12	227.51
911.42	227.41
911.73	226.95
912.03	226.93
912.33	227.08
912.64	227.03
912.94	227.00
913.24	226.94
913.55	226.89
913.85	226.85
914.15	226.90
914.46	226.95
914.76	226.90
915.06	226.87
915.37	226.77
915.67	226.73
915.97	226.73
916.27	226.65
916.58	226.69
916.88	226.76
917.18	226.75
917.49	227.01
917.79	227.04
918.09	227.14
918.39	227.18
918.70	227.04
919.00	227.10
919.30	227.29
919.60	227.28
919.91	227.19
920.21	227.25
920.51	227.13
920.81	227.17
921.12	227.24
921.42	227.15
921.72	227.20
922.02	227.24
922.32	227.21
922.63	227.19
922.93	227.45
923.23	227.43
923.53	227.45
923.83	227.15
924.13	227.20
924.44	227.17
924.74	227.28
925.04	227.45
925.34	227.37
925.64	227.18
925.94	227.15
926.24	227.45
926.55	227.37
926.85	227.48
927.15	227.45
927.45	227.49
927.75	227.60
928.05	227.58
928.35	227.52
928.65	227.70
928.95	227.71
929.26	227.54
929.56	227.63
929.86	227.61
930.16	227.57
930.46	227.55
930.76	227.55
931.06	227.31
931.36	227.23
931.66	227.31
931.96	227.30
932.26	227.34
932.56	227.13
932.86	227.11
933.16	227.07
933.46	226.91
933.76	226.82
934.06	226.85
934.36	226.98
934.66	226.92
934.96	226.85
935.26	226.92
935.56	226.88
935.86	226.68
936.16	226.60
936.46	226.54
936.76	226.47
937.06	226.39
937.36	226.46
937.66	226.42
937.96	226.31
938.26	226.23
938.56	226.15
938.86	226.14
939.16	226.27
939.46	226.27
939.76	226.34
940.06	226.28
940.35	226.18
940.65	225.93
940.95	225.95
941.25	225.79
941.55	225.67
941.85	225.65
942.15	225.79
942.45	225.95
942.75	225.95
943.04	225.96
943.34	226.01
943.64	225.93
943.94	225.83
944.24	225.90
944.54	225.90
944.84	225.91
945.13	225.83
945.43	225.74
945.73	225.72
946.03	225.68
946.33	225.70
946.62	225.67
946.92	225.68
947.22	225.72
947.52	225.80
947.82	225.85
948.11	225.84
948.41	225.80
948.71	225.66
949.01	225.70
949.31	225.69
949.60	225.70
949.90	225.82
950.20	225.84
950.50	225.82
950.79	225.89
951.09	225.98
951.39	225.97
951.69	225.99
951.98	226.10
952.28	226.16
952.58	226.16
952.87	226.20
953.17	226.23
953.47	226.20
953.76	226.18
954.06	226.12
954.36	226.08
954.66	226.05
954.95	226.19
955.25	226.26
955.55	226.24
955.84	226.10
956.14	226.14
956.44	226.18
956.73	226.09
957.03	226.05
957.32	226.08
957.62	226.11
957.92	226.20
958.21	226.15
958.51	226.62
958.81	226.71
959.10	226.73
959.40	226.92
959.69	226.97
959.99	227.05
960.29	227.09
960.58	227.10
960.88	227.29
961.17	227.24
961.47	227.21
961.76	227.23
962.06	227.38
962.36	227.33
962.65	227.38
962.95	227.47
963.24	227.41
963.54	227.43
963.83	227.51
964.13	227.49
964.42	227.34
964.72	227.03
965.01	227.01
965.31	227.06
965.60	226.88
965.90	227.19
966.19	227.11
966.49	227.15
966.78	227.15
967.08	227.08
967.37	227.10
967.67	227.00
967.96	227.11
968.26	227.05
968.55	227.11
968.85	227.06
969.14	227.00
969.43	227.08
969.73	226.99
970.02	226.92
970.32	226.85
970.61	226.92
970.91	226.81
971.20	226.72
971.49	226.59
971.79	226.70
972.08	226.34
972.38	226.37
972.67	226.33
972.96	226.42
973.26	226.31
973.55	226.42
973.85	226.46
974.14	226.38
974.43	226.45
974.73	226.30
975.02	226.26
975.31	226.26
975.61	226.24
975.90	226.24
976.19	226.20
976.49	226.24
976.78	226.18
977.07	226.13
977.37	226.17
977.66	226.25
977.95	226.19
978.24	226.23
978.54	226.24
978.83	226.17
979.12	226.04
979.42	226.05
979.71	225.93
980.00	225.87
980.29	225.94
980.59	225.82
980.88	226.01
981.17	226.05
981.46	226.07
981.76	226.07
982.05	226.20
982.34	226.22
982.63	226.17
982.93	226.21
983.22	226.27
983.51	226.27
983.80	226.32
984.09	226.31
984.39	226.22
984.68	226.20
984.97	226.24
985.26	226.28
985.55	226.37
985.85	226.23
986.14	226.37
986.43	226.37
986.72	226.37
987.01	226.26
987.30	226.31
987.59	226.26
987.89	226.29
988.18	226.10
988.47	226.12
988.76	226.15
989.05	226.13
989.34	226.12
989.63	226.20
989.92	226.12
990.22	226.09
990.51	226.14
990.80	226.08
991.09	226.15
991.38	226.28
991.67	226.26
991.96	226.22
992.25	226.16
992.54	226.11
992.83	226.09
993.12	226.03
993.41	226.07
993.70	226.29
993.99	226.35
994.28	226.52
994.58	226.53
994.87	226.49
995.16	226.50
995.45	226.47
995.74	226.38
996.03	226.46
996.32	226.53
996.61	226.58
996.90	226.60
997.19	226.52
997.48	226.45
997.77	226.37
998.06	226.49
998.34	226.51
998.63	226.44
998.92	226.47
999.21	226.59
999.50	226.56
999.79	226.39
1000.08	226.40
1000.37	226.31
1000.66	226.37
1000.95	226.50
1001.24	226.48
1001.53	226.54
1001.82	226.50
1002.11	226.41
1002.40	226.48
1002.68	226.63
1002.97	226.97
1003.26	227.00
1003.55	226.92
1003.84	226.93
1004.13	227.13
1004.42	227.13
1004.71	227.14
1004.99	227.14
1005.28	227.21
1005.57	227.18
1005.86	227.18
1006.15	227.09
1006.44	227.05
1006.72	227.04
1007.01	227.00
1007.30	227.04
1007.59	226.96
1007.88	226.90
1008.17	226.90
1008.45	226.76
1008.74	226.56
1009.03	226.35
1009.32	226.30
1009.60	226.30
1009.89	226.26
1010.18	226.01
1010.47	225.96
1010.76	226.01
1011.04	226.00
1011.33	226.00
1011.62	225.99
1011.91	225.94
1012.19	226.03
1012.48	226.10
1012.77	226.15
1013.05	226.30
1013.34	226.34
1013.63	226.35
1013.92	226.37
1014.20	226.36
1014.49	226.37
1014.78	226.43
1015.06	226.22
1015.35	226.27
1015.64	226.28
1015.92	226.34
1016.21	226.41
1016.50	226.43
1016.78	226.49
1017.07	226.58
1017.36	226.45
1017.64	226.30
1017.93	226.40
1018.22	226.36
1018.50	226.31
1018.79	226.24
1019.08	225.96
1019.36	225.95
1019.65	225.88
1019.93	226.11
1020.22	226.20
1020.51	226.49
1020.79	226.40
1021.08	226.65
1021.36	225.85
1021.65	226.45
1021.94	224.85
1022.22	226.55
1022.51	224.50
1022.79	229.55
1023.08	227.35
1023.36	232.05
1023.65	224.75
>>>>>End Processed Spectral Data<<<<<
