SpectraSuite Data File
++++++++++++++++++++++++++++++++++++
Date: Wed Sep 04 17:42:32 EDT 2013
User: lab3
Dark Spectrum Present: Yes
Reference Spectrum Present: No
Number of Sampled Component Spectra: 1
Spectrometers: USB2E7196
Integration Time (usec): 170000 (USB2E7196)
Spectra Averaged: 20 (USB2E7196)
Boxcar Smoothing: 10 (USB2E7196)
Correct for Electrical Dark: No (USB2E7196)
Strobe/Lamp Enabled: No (USB2E7196)
Correct for Detector Non-linearity: No (USB2E7196)
Correct for Stray Light: No (USB2E7196)
Number of Pixels in Processed Spectrum: 2048
>>>>>Begin Processed Spectral Data<<<<<
339.09	0.00
339.48	212.75
339.86	214.55
340.24	215.95
340.63	216.35
341.01	224.65
341.39	219.60
341.78	222.65
342.16	223.35
342.54	224.25
342.93	212.12
343.31	222.83
343.69	223.43
344.07	223.88
344.46	224.36
344.84	224.78
345.22	224.81
345.60	225.16
345.99	225.31
346.37	225.44
346.75	225.46
347.13	225.46
347.52	225.49
347.90	225.66
348.28	225.70
348.66	225.78
349.05	225.66
349.43	225.73
349.81	225.77
350.19	225.91
350.57	225.97
350.96	226.10
351.34	226.18
351.72	226.21
352.10	226.30
352.48	226.28
352.87	226.34
353.25	226.37
353.63	226.32
354.01	226.29
354.39	226.36
354.77	226.42
355.15	226.65
355.54	226.68
355.92	226.57
356.30	226.58
356.68	226.90
357.06	226.88
357.44	226.89
357.82	226.85
358.20	227.27
358.58	227.33
358.97	227.34
359.35	227.51
359.73	227.59
360.11	227.66
360.49	227.69
360.87	227.74
361.25	227.87
361.63	228.15
362.01	228.29
362.39	228.24
362.77	228.35
363.15	228.35
363.53	228.34
363.91	228.43
364.29	228.50
364.67	228.09
365.05	228.30
365.43	228.39
365.81	228.59
366.19	228.47
366.57	228.66
366.95	228.67
367.33	228.52
367.71	228.61
368.09	228.70
368.47	228.72
368.85	228.70
369.23	228.73
369.61	228.52
369.99	228.66
370.37	228.74
370.75	229.00
371.13	228.86
371.51	228.82
371.89	228.77
372.27	228.70
372.65	228.70
373.03	228.50
373.41	228.42
373.78	228.35
374.16	228.04
374.54	227.82
374.92	227.80
375.30	227.78
375.68	227.53
376.06	227.47
376.44	227.37
376.82	227.30
377.19	227.16
377.57	227.11
377.95	226.83
378.33	226.76
378.71	226.36
379.09	226.34
379.47	226.34
379.84	226.22
380.22	226.19
380.60	226.00
380.98	226.00
381.36	225.83
381.73	225.61
382.11	225.63
382.49	225.56
382.87	225.37
383.25	225.33
383.62	225.90
384.00	225.69
384.38	225.70
384.76	225.80
385.13	225.95
385.51	225.88
385.89	225.83
386.27	225.75
386.64	225.77
387.02	225.69
387.40	225.63
387.78	225.74
388.15	225.69
388.53	225.69
388.91	225.67
389.29	225.63
389.66	225.67
390.04	225.54
390.42	225.62
390.79	225.70
391.17	225.69
391.55	225.09
391.92	225.18
392.30	225.19
392.68	225.05
393.05	225.00
393.43	225.00
393.81	225.07
394.18	224.97
394.56	224.96
394.94	225.15
395.31	225.09
395.69	225.12
396.06	225.21
396.44	225.29
396.82	225.23
397.19	225.60
397.57	225.60
397.95	225.76
398.32	225.70
398.70	225.77
399.07	225.92
399.45	226.01
399.82	226.06
400.20	226.15
400.58	226.22
400.95	226.19
401.33	226.33
401.70	226.73
402.08	226.88
402.45	227.06
402.83	227.21
403.20	227.39
403.58	227.48
403.95	227.66
404.33	227.90
404.71	228.21
405.08	228.61
405.46	228.89
405.83	229.18
406.21	229.44
406.58	229.69
406.96	229.89
407.33	230.25
407.70	230.57
408.08	231.24
408.45	231.70
408.83	232.16
409.20	232.54
409.58	232.64
409.95	233.21
410.33	233.59
410.70	233.91
411.08	234.50
411.45	235.05
411.82	235.56
412.20	236.19
412.57	236.96
412.95	237.23
413.32	237.94
413.69	238.63
414.07	239.39
414.44	240.23
414.82	241.06
415.19	241.95
415.56	242.96
415.94	243.73
416.31	244.89
416.68	246.06
417.06	247.45
417.43	248.86
417.81	250.24
418.18	251.76
418.55	253.36
418.93	255.04
419.30	256.83
419.67	258.68
420.04	260.58
420.42	262.48
420.79	265.03
421.16	267.28
421.54	269.80
421.91	272.34
422.28	274.88
422.66	277.64
423.03	280.63
423.40	283.45
423.77	286.39
424.15	289.31
424.52	292.40
424.89	295.78
425.26	299.00
425.64	302.16
426.01	305.64
426.38	309.29
426.75	313.10
427.13	316.86
427.50	320.77
427.87	324.87
428.24	328.87
428.61	332.67
428.99	337.15
429.36	341.68
429.73	346.16
430.10	350.76
430.47	355.43
430.85	359.98
431.22	365.10
431.59	370.79
431.96	376.13
432.33	381.95
432.70	387.46
433.08	394.05
433.45	400.09
433.82	406.14
434.19	412.96
434.56	419.71
434.93	426.16
435.30	432.69
435.68	439.81
436.05	446.81
436.42	453.64
436.79	460.09
437.16	467.10
437.53	474.37
437.90	481.59
438.27	488.84
438.64	496.34
439.01	503.22
439.38	509.16
439.75	514.98
440.13	521.57
440.50	527.88
440.87	532.81
441.24	538.35
441.61	544.30
441.98	548.51
442.35	553.28
442.72	558.35
443.09	563.34
443.46	566.08
443.83	568.08
444.20	569.82
444.57	571.99
444.94	572.87
445.31	573.98
445.68	575.37
446.05	575.46
446.42	574.53
446.79	573.36
447.16	572.10
447.53	571.13
447.90	568.26
448.27	565.31
448.64	561.52
449.01	558.46
449.37	553.34
449.74	548.40
450.11	542.84
450.48	536.42
450.85	529.60
451.22	524.09
451.59	518.68
451.96	513.46
452.33	506.85
452.70	500.85
453.07	493.61
453.43	485.88
453.80	478.94
454.17	472.28
454.54	466.03
454.91	459.26
455.28	452.68
455.65	446.49
456.02	440.96
456.38	435.59
456.75	429.22
457.12	423.93
457.49	418.84
457.86	413.60
458.23	409.35
458.59	404.68
458.96	399.86
459.33	395.60
459.70	391.41
460.07	388.04
460.43	384.05
460.80	380.55
461.17	377.48
461.54	374.16
461.91	370.88
462.27	367.64
462.64	364.96
463.01	361.91
463.38	359.17
463.74	355.80
464.11	353.39
464.48	351.13
464.85	348.73
465.21	346.84
465.58	344.88
465.95	342.58
466.32	340.76
466.68	338.89
467.05	337.14
467.42	335.36
467.78	333.44
468.15	331.70
468.52	330.35
468.88	328.46
469.25	326.98
469.62	325.87
469.98	324.51
470.35	323.23
470.72	322.14
471.08	320.72
471.45	319.67
471.82	318.68
472.18	317.56
472.55	316.77
472.92	315.61
473.28	314.77
473.65	313.79
474.02	312.94
474.38	312.30
474.75	311.69
475.11	310.90
475.48	310.36
475.85	309.93
476.21	309.44
476.58	309.09
476.94	308.79
477.31	308.38
477.67	308.05
478.04	307.80
478.41	307.71
478.77	308.05
479.14	307.73
479.50	307.57
479.87	307.57
480.23	307.67
480.60	307.77
480.96	307.79
481.33	308.20
481.69	308.42
482.06	308.64
482.42	308.96
482.79	309.35
483.15	309.80
483.52	310.35
483.88	310.75
484.25	311.25
484.61	311.84
484.98	312.48
485.34	313.45
485.71	314.42
486.07	315.23
486.44	315.80
486.80	316.93
487.17	318.00
487.53	319.35
487.90	320.58
488.26	322.14
488.62	323.74
488.99	325.18
489.35	326.87
489.72	328.65
490.08	330.39
490.44	332.26
490.81	334.30
491.17	336.35
491.54	338.73
491.90	341.15
492.26	343.65
492.63	346.24
492.99	348.80
493.36	351.60
493.72	354.65
494.08	357.71
494.45	361.13
494.81	364.76
495.17	368.31
495.54	372.05
495.90	375.89
496.26	379.87
496.63	384.00
496.99	388.13
497.35	392.74
497.72	397.53
498.08	402.44
498.44	407.59
498.80	412.99
499.17	418.35
499.53	424.00
499.89	429.92
500.26	435.98
500.62	442.22
500.98	448.77
501.34	455.35
501.71	462.24
502.07	469.11
502.43	476.31
502.79	483.74
503.16	491.41
503.52	499.32
503.88	507.40
504.24	515.89
504.60	524.80
504.97	533.62
505.33	542.80
505.69	552.38
506.05	562.00
506.41	571.78
506.78	582.03
507.14	592.30
507.50	602.98
507.86	613.90
508.22	625.21
508.59	636.34
508.95	648.20
509.31	660.44
509.67	672.65
510.03	684.66
510.39	697.04
510.75	709.87
511.12	722.77
511.48	736.12
511.84	749.40
512.20	762.80
512.56	776.50
512.92	790.48
513.28	804.56
513.64	818.94
514.00	833.54
514.37	848.19
514.73	863.38
515.09	878.54
515.45	893.77
515.81	908.80
516.17	924.23
516.53	939.14
516.89	954.39
517.25	970.12
517.61	986.67
517.97	1003.03
518.33	1019.31
518.69	1035.59
519.05	1052.03
519.41	1068.63
519.77	1085.37
520.13	1101.93
520.49	1118.43
520.85	1136.39
521.21	1153.10
521.57	1169.97
521.93	1186.29
522.29	1202.88
522.65	1218.70
523.01	1234.99
523.37	1250.99
523.73	1267.20
524.09	1283.35
524.45	1298.99
524.81	1315.00
525.17	1330.64
525.53	1346.62
525.89	1362.24
526.25	1377.80
526.61	1392.74
526.97	1408.47
527.33	1424.45
527.68	1440.76
528.04	1456.68
528.40	1470.90
528.76	1486.28
529.12	1501.19
529.48	1516.47
529.84	1531.05
530.20	1546.45
530.56	1561.59
530.91	1576.84
531.27	1591.59
531.63	1606.15
531.99	1620.91
532.35	1634.79
532.71	1649.10
533.07	1663.41
533.42	1677.36
533.78	1691.54
534.14	1705.62
534.50	1718.63
534.86	1731.87
535.21	1743.61
535.57	1756.02
535.93	1767.89
536.29	1779.65
536.65	1791.69
537.00	1803.60
537.36	1815.44
537.72	1826.34
538.08	1837.33
538.44	1848.02
538.79	1858.70
539.15	1869.56
539.51	1879.74
539.87	1889.46
540.22	1898.02
540.58	1906.70
540.94	1914.65
541.29	1922.06
541.65	1929.34
542.01	1937.06
542.37	1942.55
542.72	1948.70
543.08	1954.56
543.44	1961.16
543.79	1966.35
544.15	1971.50
544.51	1976.50
544.87	1981.19
545.22	1985.53
545.58	1989.03
545.94	1991.91
546.29	1994.04
546.65	1995.66
547.01	1997.58
547.36	1999.42
547.72	2001.10
548.07	2001.55
548.43	2002.98
548.79	2003.92
549.14	2004.51
549.50	2004.51
549.86	2005.00
550.21	2005.44
550.57	2005.27
550.92	2003.75
551.28	2002.57
551.64	2001.65
551.99	2000.51
552.35	1998.87
552.70	1997.80
553.06	1996.64
553.41	1995.18
553.77	1994.42
554.13	1993.77
554.48	1992.56
554.84	1991.30
555.19	1989.85
555.55	1989.13
555.90	1986.65
556.26	1983.58
556.61	1980.24
556.97	1976.33
557.32	1973.73
557.68	1970.58
558.03	1967.26
558.39	1964.22
558.74	1961.43
559.10	1957.19
559.45	1952.72
559.81	1947.90
560.16	1942.21
560.52	1936.55
560.87	1931.68
561.23	1925.74
561.58	1919.76
561.94	1912.87
562.29	1905.81
562.64	1898.94
563.00	1891.15
563.35	1884.63
563.71	1878.19
564.06	1871.98
564.42	1865.91
564.77	1859.29
565.12	1852.54
565.48	1845.86
565.83	1838.80
566.19	1831.67
566.54	1824.52
566.89	1817.16
567.25	1810.16
567.60	1803.95
567.96	1797.65
568.31	1790.62
568.66	1783.40
569.02	1775.81
569.37	1768.67
569.72	1761.97
570.08	1754.39
570.43	1746.34
570.78	1738.75
571.14	1731.17
571.49	1722.94
571.84	1715.08
572.20	1706.45
572.55	1698.31
572.90	1689.23
573.26	1680.81
573.61	1671.92
573.96	1663.29
574.31	1654.11
574.67	1644.89
575.02	1635.01
575.37	1624.78
575.72	1614.55
576.08	1605.21
576.43	1595.56
576.78	1585.70
577.13	1575.26
577.49	1565.60
577.84	1556.69
578.19	1547.53
578.54	1538.06
578.90	1529.22
579.25	1519.98
579.60	1510.71
579.95	1500.94
580.30	1491.30
580.66	1481.17
581.01	1471.22
581.36	1461.00
581.71	1451.53
582.06	1442.30
582.42	1433.00
582.77	1423.80
583.12	1415.25
583.47	1406.07
583.82	1397.26
584.17	1388.47
584.53	1380.02
584.88	1370.58
585.23	1360.95
585.58	1350.77
585.93	1341.17
586.28	1331.77
586.63	1321.85
586.98	1311.74
587.34	1302.25
587.69	1293.10
588.04	1284.35
588.39	1275.78
588.74	1267.05
589.09	1258.61
589.44	1249.34
589.79	1240.65
590.14	1232.29
590.49	1223.48
590.84	1215.09
591.19	1206.89
591.54	1198.33
591.89	1189.62
592.25	1182.60
592.60	1174.73
592.95	1166.76
593.30	1158.60
593.65	1149.90
594.00	1141.63
594.35	1135.27
594.70	1127.13
595.05	1119.21
595.40	1110.74
595.75	1102.50
596.10	1094.53
596.45	1086.44
596.80	1078.98
597.15	1071.10
597.50	1062.90
597.85	1055.15
598.19	1046.93
598.54	1038.54
598.89	1030.53
599.24	1023.29
599.59	1015.20
599.94	1007.56
600.29	1000.40
600.64	993.20
600.99	986.23
601.34	979.51
601.69	971.34
602.04	964.48
602.39	957.65
602.74	951.39
603.08	944.95
603.43	938.88
603.78	932.35
604.13	925.76
604.48	919.32
604.83	912.80
605.18	906.18
605.53	899.81
605.87	893.69
606.22	888.15
606.57	881.79
606.92	875.36
607.27	869.50
607.62	863.45
607.96	857.78
608.31	852.33
608.66	846.68
609.01	840.97
609.36	835.30
609.70	829.61
610.05	823.79
610.40	818.10
610.75	812.24
611.10	806.70
611.44	800.86
611.79	795.16
612.14	789.91
612.49	784.48
612.83	779.55
613.18	774.24
613.53	769.02
613.88	763.76
614.22	758.61
614.57	753.19
614.92	747.86
615.27	742.65
615.61	737.32
615.96	732.14
616.31	727.15
616.65	722.32
617.00	717.29
617.35	712.52
617.70	707.60
618.04	702.69
618.39	697.83
618.74	693.64
619.08	688.98
619.43	684.31
619.78	679.66
620.12	674.78
620.47	670.06
620.82	665.05
621.16	660.40
621.51	656.18
621.85	652.00
622.20	647.70
622.55	643.29
622.89	639.03
623.24	634.82
623.59	630.41
623.93	626.25
624.28	622.12
624.62	618.36
624.97	614.67
625.32	610.58
625.66	606.61
626.01	602.32
626.35	598.65
626.70	594.81
627.04	591.21
627.39	587.41
627.73	583.92
628.08	580.46
628.43	576.74
628.77	572.98
629.12	569.33
629.46	566.07
629.81	562.93
630.15	559.59
630.50	556.17
630.84	552.90
631.19	549.59
631.53	546.56
631.88	542.86
632.22	539.31
632.57	536.57
632.91	533.36
633.26	530.45
633.60	527.25
633.95	524.13
634.29	520.83
634.64	517.80
634.98	514.47
635.32	511.48
635.67	508.90
636.01	506.06
636.36	503.16
636.70	500.24
637.05	497.30
637.39	494.48
637.73	491.76
638.08	489.00
638.42	486.09
638.77	483.16
639.11	480.23
639.45	477.17
639.80	474.00
640.14	471.16
640.49	468.40
640.83	465.76
641.17	463.18
641.52	460.62
641.86	458.24
642.20	456.28
642.55	453.81
642.89	451.22
643.23	448.81
643.58	446.57
643.92	444.13
644.26	441.64
644.61	439.39
644.95	436.95
645.29	434.63
645.64	432.55
645.98	430.36
646.32	428.41
646.66	426.46
647.01	424.46
647.35	422.59
647.69	420.57
648.04	418.64
648.38	416.65
648.72	414.66
649.06	412.49
649.41	410.23
649.75	408.19
650.09	406.27
650.43	404.34
650.78	402.26
651.12	400.26
651.46	398.44
651.80	396.53
652.14	394.75
652.49	393.14
652.83	391.35
653.17	389.52
653.51	387.66
653.85	386.10
654.20	384.45
654.54	382.58
654.88	380.80
655.22	379.22
655.56	377.63
655.90	376.14
656.25	374.52
656.59	372.95
656.93	371.55
657.27	370.09
657.61	368.36
657.95	366.92
658.29	365.52
658.64	364.09
658.98	362.59
659.32	361.02
659.66	359.37
660.00	357.80
660.34	356.46
660.68	355.12
661.02	353.63
661.36	352.31
661.70	351.08
662.05	349.78
662.39	348.49
662.73	347.19
663.07	346.05
663.41	344.91
663.75	343.48
664.09	342.22
664.43	340.89
664.77	339.76
665.11	338.55
665.45	337.41
665.79	336.34
666.13	335.06
666.47	333.88
666.81	332.79
667.15	331.64
667.49	330.50
667.83	329.62
668.17	328.59
668.51	327.43
668.85	326.46
669.19	325.69
669.53	324.57
669.87	323.45
670.21	322.28
670.55	321.26
670.89	320.61
671.23	319.62
671.57	318.68
671.91	317.71
672.25	316.72
672.58	315.81
672.92	314.72
673.26	313.92
673.60	313.13
673.94	312.30
674.28	311.53
674.62	310.77
674.96	309.76
675.30	309.00
675.64	308.22
675.97	307.27
676.31	306.24
676.65	305.35
676.99	304.80
677.33	303.95
677.67	303.24
678.01	302.25
678.34	301.50
678.68	300.85
679.02	300.10
679.36	299.40
679.70	298.67
680.04	298.04
680.37	297.35
680.71	296.62
681.05	295.98
681.39	295.23
681.73	294.45
682.06	293.77
682.40	293.10
682.74	292.46
683.08	292.08
683.42	291.48
683.75	290.97
684.09	290.20
684.43	289.72
684.77	289.08
685.10	288.50
685.44	287.99
685.78	287.26
686.12	286.66
686.45	286.11
686.79	285.43
687.13	284.90
687.46	284.31
687.80	283.96
688.14	283.38
688.48	282.97
688.81	282.48
689.15	282.06
689.49	281.47
689.82	280.97
690.16	280.21
690.50	279.74
690.83	279.14
691.17	278.54
691.51	278.06
691.84	277.53
692.18	277.03
692.52	276.50
692.85	276.16
693.19	275.92
693.52	275.47
693.86	274.95
694.20	274.51
694.53	274.14
694.87	273.48
695.21	273.00
695.54	272.60
695.88	272.03
696.21	271.45
696.55	271.07
696.88	270.58
697.22	270.17
697.56	269.72
697.89	269.33
698.23	268.97
698.56	268.50
698.90	268.20
699.23	267.80
699.57	267.37
699.90	266.91
700.24	266.37
700.58	266.01
700.91	265.82
701.25	265.85
701.58	265.75
701.92	265.53
702.25	265.22
702.59	264.77
702.92	264.48
703.26	264.16
703.59	263.83
703.93	263.91
704.26	263.64
704.60	263.29
704.93	262.94
705.26	262.63
705.60	262.30
705.93	261.85
706.27	261.68
706.60	261.46
706.94	261.35
707.27	261.02
707.61	260.74
707.94	260.36
708.27	259.61
708.61	258.96
708.94	258.67
709.28	258.31
709.61	258.05
709.94	257.86
710.28	257.60
710.61	257.26
710.95	256.56
711.28	256.60
711.61	256.35
711.95	256.21
712.28	255.85
712.61	255.61
712.95	255.60
713.28	255.46
713.61	255.16
713.95	254.73
714.28	254.50
714.61	254.22
714.95	253.99
715.28	253.67
715.61	253.44
715.95	253.15
716.28	252.95
716.61	252.68
716.95	252.38
717.28	252.16
717.61	251.90
717.94	251.68
718.28	251.04
718.61	250.75
718.94	250.42
719.27	250.25
719.61	250.05
719.94	249.72
720.27	249.33
720.60	249.01
720.94	248.79
721.27	248.54
721.60	248.43
721.93	248.13
722.27	248.14
722.60	248.01
722.93	247.81
723.26	247.62
723.59	247.42
723.93	247.29
724.26	247.10
724.59	246.88
724.92	246.71
725.25	246.68
725.59	246.55
725.92	246.48
726.25	246.35
726.58	246.19
726.91	245.96
727.24	245.78
727.57	245.69
727.91	245.40
728.24	245.35
728.57	245.06
728.90	245.03
729.23	244.69
729.56	244.73
729.89	244.56
730.22	244.32
730.55	244.16
730.89	243.99
731.22	243.80
731.55	243.75
731.88	243.59
732.21	243.42
732.54	243.23
732.87	242.99
733.20	242.85
733.53	242.70
733.86	242.65
734.19	242.48
734.52	242.36
734.85	242.63
735.18	242.38
735.51	242.34
735.84	242.18
736.17	242.20
736.50	241.81
736.83	242.17
737.16	242.14
737.49	242.03
737.82	241.83
738.15	241.81
738.48	241.64
738.81	241.45
739.14	241.11
739.47	241.03
739.80	240.94
740.13	240.85
740.46	240.68
740.79	240.45
741.12	240.23
741.45	240.10
741.78	239.79
742.11	239.83
742.44	239.61
742.77	239.61
743.10	239.47
743.43	239.36
743.75	238.84
744.08	239.28
744.41	239.14
744.74	239.02
745.07	238.77
745.40	238.71
745.73	238.89
746.06	238.88
746.39	238.80
746.71	238.59
747.04	238.40
747.37	238.24
747.70	238.25
748.03	238.19
748.36	238.13
748.68	237.96
749.01	237.71
749.34	237.70
749.67	237.52
750.00	237.41
750.33	237.57
750.65	237.42
750.98	236.73
751.31	236.62
751.64	236.62
751.97	236.84
752.29	236.64
752.62	236.33
752.95	236.18
753.28	236.02
753.60	236.00
753.93	236.00
754.26	235.96
754.59	235.71
754.91	235.65
755.24	235.50
755.57	235.40
755.90	235.28
756.22	235.07
756.55	235.00
756.88	234.82
757.20	234.51
757.53	234.31
757.86	234.29
758.19	234.28
758.51	234.07
758.84	233.68
759.17	233.59
759.49	233.49
759.82	233.64
760.15	233.63
760.47	233.42
760.80	233.25
761.13	233.21
761.45	233.12
761.78	232.99
762.11	233.03
762.43	232.97
762.76	232.99
763.08	232.97
763.41	232.85
763.74	232.85
764.06	232.75
764.39	232.77
764.71	232.61
765.04	232.48
765.37	232.41
765.69	232.34
766.02	232.28
766.34	232.20
766.67	232.07
767.00	232.10
767.32	232.41
767.65	232.59
767.97	232.46
768.30	232.46
768.62	232.36
768.95	232.21
769.27	232.11
769.60	232.12
769.92	232.01
770.25	231.89
770.57	231.76
770.90	231.65
771.22	231.52
771.55	231.52
771.87	231.54
772.20	231.59
772.52	231.98
772.85	232.50
773.17	232.47
773.50	232.31
773.82	232.18
774.15	231.85
774.47	231.54
774.80	231.49
775.12	231.45
775.45	231.48
775.77	231.44
776.09	231.37
776.42	231.22
776.74	231.32
777.07	231.24
777.39	231.18
777.72	231.18
778.04	231.20
778.36	231.14
778.69	231.05
779.01	231.00
779.33	230.48
779.66	229.96
779.98	229.88
780.31	229.92
780.63	230.06
780.95	230.14
781.28	230.07
781.60	230.01
781.92	229.96
782.25	229.89
782.57	229.85
782.89	229.75
783.22	229.76
783.54	229.63
783.86	229.68
784.19	229.63
784.51	229.75
784.83	229.68
785.16	229.59
785.48	229.54
785.80	229.50
786.12	229.53
786.45	229.50
786.77	229.50
787.09	229.36
787.42	229.19
787.74	229.17
788.06	229.21
788.38	229.18
788.71	229.10
789.03	229.19
789.35	229.26
789.67	229.25
789.99	229.19
790.32	229.15
790.64	229.19
790.96	229.57
791.28	229.33
791.61	229.24
791.93	229.34
792.25	229.29
792.57	229.62
792.89	229.51
793.21	229.49
793.54	229.39
793.86	229.37
794.18	229.32
794.50	229.09
794.82	229.05
795.14	229.03
795.47	229.10
795.79	229.02
796.11	228.89
796.43	228.78
796.75	228.75
797.07	228.70
797.39	228.60
797.71	228.21
798.04	228.26
798.36	228.32
798.68	228.21
799.00	228.27
799.32	227.98
799.64	228.11
799.96	228.00
800.28	228.08
800.60	228.05
800.92	228.12
801.24	228.18
801.56	228.21
801.89	228.20
802.21	228.24
802.53	228.11
802.85	228.16
803.17	228.41
803.49	228.36
803.81	228.27
804.13	228.28
804.45	228.26
804.77	228.27
805.09	228.22
805.41	228.15
805.73	228.08
806.05	227.95
806.37	227.87
806.69	227.93
807.01	227.97
807.33	228.02
807.65	227.84
807.97	228.06
808.28	227.95
808.60	227.91
808.92	227.87
809.24	228.18
809.56	228.09
809.88	227.90
810.20	227.94
810.52	228.04
810.84	227.94
811.16	227.85
811.48	227.87
811.80	228.06
812.12	228.10
812.43	228.14
812.75	228.18
813.07	228.17
813.39	228.15
813.71	228.05
814.03	228.00
814.35	227.99
814.67	227.79
814.98	227.78
815.30	227.81
815.62	227.72
815.94	227.39
816.26	227.54
816.58	227.47
816.89	227.54
817.21	227.55
817.53	227.57
817.85	227.55
818.17	227.46
818.48	227.23
818.80	227.32
819.12	227.20
819.44	227.13
819.76	227.06
820.07	227.08
820.39	227.08
820.71	227.12
821.03	227.13
821.34	227.09
821.66	227.16
821.98	227.20
822.30	227.15
822.61	227.49
822.93	227.28
823.25	227.31
823.57	227.17
823.88	227.16
824.20	227.18
824.52	227.31
824.83	227.38
825.15	227.41
825.47	227.30
825.79	227.34
826.10	227.34
826.42	227.32
826.74	227.25
827.05	227.18
827.37	227.18
827.69	227.14
828.00	227.13
828.32	227.10
828.64	227.09
828.95	227.33
829.27	227.05
829.58	227.10
829.90	227.15
830.22	227.24
830.53	227.13
830.85	227.04
831.17	226.92
831.48	226.83
831.80	226.87
832.11	226.89
832.43	226.89
832.75	226.86
833.06	227.13
833.38	227.06
833.69	227.09
834.01	227.10
834.32	227.14
834.64	227.11
834.96	227.17
835.27	227.07
835.59	226.94
835.90	226.95
836.22	226.94
836.53	226.91
836.85	226.77
837.16	227.28
837.48	227.27
837.79	227.40
838.11	227.42
838.42	227.38
838.74	227.46
839.05	227.37
839.37	227.35
839.68	227.06
840.00	227.11
840.31	227.22
840.63	227.15
840.94	227.13
841.26	227.12
841.57	227.01
841.88	227.03
842.20	226.95
842.51	226.89
842.83	226.87
843.14	227.28
843.46	227.34
843.77	227.05
844.08	227.11
844.40	226.94
844.71	226.92
845.03	226.79
845.34	226.73
845.65	226.70
845.97	226.73
846.28	226.80
846.60	226.84
846.91	226.73
847.22	226.73
847.54	226.76
847.85	226.78
848.16	226.74
848.48	226.73
848.79	226.99
849.10	227.07
849.42	227.11
849.73	226.65
850.04	226.66
850.36	226.47
850.67	226.52
850.98	226.52
851.30	226.55
851.61	226.62
851.92	226.57
852.23	226.80
852.55	226.82
852.86	226.86
853.17	226.84
853.49	226.94
853.80	226.97
854.11	227.04
854.42	227.07
854.74	227.05
855.05	227.10
855.36	226.76
855.67	226.77
855.99	226.71
856.30	227.27
856.61	227.22
856.92	227.28
857.23	227.30
857.55	227.30
857.86	227.31
858.17	227.40
858.48	227.37
858.79	227.21
859.11	227.27
859.42	227.13
859.73	227.00
860.04	226.92
860.35	226.83
860.66	226.68
860.98	226.65
861.29	226.72
861.60	226.63
861.91	226.76
862.22	226.65
862.53	226.65
862.84	226.10
863.16	226.26
863.47	226.18
863.78	226.10
864.09	226.14
864.40	226.08
864.71	226.09
865.02	226.15
865.33	226.15
865.64	226.05
865.95	226.15
866.27	226.45
866.58	226.44
866.89	226.56
867.20	226.53
867.51	226.50
867.82	226.44
868.13	226.55
868.44	226.43
868.75	226.51
869.06	226.52
869.37	226.51
869.68	226.27
869.99	226.37
870.30	226.35
870.61	226.35
870.92	226.34
871.23	226.32
871.54	226.30
871.85	226.42
872.16	226.46
872.47	226.39
872.78	226.19
873.09	226.18
873.40	226.13
873.71	226.17
874.02	226.10
874.33	226.08
874.64	226.01
874.95	226.11
875.26	225.99
875.56	226.00
875.87	225.96
876.18	225.91
876.49	226.34
876.80	226.33
877.11	226.23
877.42	226.25
877.73	226.15
878.04	226.09
878.35	226.05
878.66	226.00
878.96	225.98
879.27	225.99
879.58	225.95
879.89	225.83
880.20	225.95
880.51	226.01
880.82	226.05
881.12	226.11
881.43	226.07
881.74	226.05
882.05	226.01
882.36	226.09
882.67	226.20
882.97	225.69
883.28	225.67
883.59	225.72
883.90	225.77
884.21	225.90
884.51	225.82
884.82	225.74
885.13	225.80
885.44	225.80
885.74	225.75
886.05	225.75
886.36	225.74
886.67	225.57
886.98	225.82
887.28	225.85
887.59	225.82
887.90	225.79
888.20	225.75
888.51	225.84
888.82	225.75
889.13	225.75
889.43	226.10
889.74	226.05
890.05	226.01
890.35	225.95
890.66	225.88
890.97	225.90
891.28	225.90
891.58	225.90
891.89	225.89
892.20	225.90
892.50	225.91
892.81	225.95
893.12	225.95
893.42	225.75
893.73	225.77
894.04	225.73
894.34	225.77
894.65	225.76
894.95	225.64
895.26	225.69
895.57	225.93
895.87	225.54
896.18	225.71
896.48	225.84
896.79	225.88
897.10	225.92
897.40	225.94
897.71	225.97
898.01	225.97
898.32	226.07
898.63	226.01
898.93	225.95
899.24	226.02
899.54	226.03
899.85	225.98
900.15	225.93
900.46	226.00
900.76	226.06
901.07	226.13
901.38	226.20
901.68	226.27
901.99	226.04
902.29	226.12
902.60	226.05
902.90	225.95
903.21	225.92
903.51	225.92
903.82	226.04
904.12	226.05
904.43	226.11
904.73	226.02
905.03	226.09
905.34	226.62
905.64	226.55
905.95	226.55
906.25	226.58
906.56	226.57
906.86	226.54
907.17	226.48
907.47	226.53
907.77	226.47
908.08	226.35
908.38	226.37
908.69	226.38
908.99	226.43
909.30	226.48
909.60	226.47
909.90	226.50
910.21	226.30
910.51	226.18
910.81	226.12
911.12	226.23
911.42	226.20
911.73	225.73
912.03	225.78
912.33	225.90
912.64	225.90
912.94	225.88
913.24	225.84
913.55	225.81
913.85	225.72
914.15	225.84
914.46	225.94
914.76	225.88
915.06	225.89
915.37	225.80
915.67	225.78
915.97	225.81
916.27	225.66
916.58	225.73
916.88	225.71
917.18	225.70
917.49	225.97
917.79	225.99
918.09	225.99
918.39	226.13
918.70	226.11
919.00	226.09
919.30	226.31
919.60	226.28
919.91	226.21
920.21	226.25
920.51	226.12
920.81	226.09
921.12	226.14
921.42	226.02
921.72	226.10
922.02	226.09
922.32	226.16
922.63	226.15
922.93	226.39
923.23	226.48
923.53	226.40
923.83	226.03
924.13	226.12
924.44	226.17
924.74	226.20
925.04	226.27
925.34	226.28
925.64	226.07
925.94	226.04
926.24	226.34
926.55	226.28
926.85	226.41
927.15	226.38
927.45	226.43
927.75	226.52
928.05	226.48
928.35	226.53
928.65	226.57
928.95	226.65
929.26	226.51
929.56	226.57
929.86	226.70
930.16	226.73
930.46	226.61
930.76	226.65
931.06	226.42
931.36	226.31
931.66	226.34
931.96	226.38
932.26	226.48
932.56	226.25
932.86	226.31
933.16	226.20
933.46	226.19
933.76	226.07
934.06	226.10
934.36	226.29
934.66	226.24
934.96	226.19
935.26	226.25
935.56	226.30
935.86	226.18
936.16	226.12
936.46	226.06
936.76	226.10
937.06	225.99
937.36	226.10
937.66	226.08
937.96	226.03
938.26	225.92
938.56	225.87
938.86	225.95
939.16	226.03
939.46	226.13
939.76	226.15
940.06	226.19
940.35	226.13
940.65	225.84
940.95	225.84
941.25	225.73
941.55	225.66
941.85	225.57
942.15	225.72
942.45	225.80
942.75	225.74
943.04	225.71
943.34	225.79
943.64	225.68
943.94	225.70
944.24	225.78
944.54	225.85
944.84	225.85
945.13	225.78
945.43	225.73
945.73	225.74
946.03	225.65
946.33	225.60
946.62	225.63
946.92	225.72
947.22	225.72
947.52	225.78
947.82	225.80
948.11	225.80
948.41	225.64
948.71	225.53
949.01	225.61
949.31	225.60
949.60	225.55
949.90	225.65
950.20	225.49
950.50	225.45
950.79	225.40
951.09	225.53
951.39	225.49
951.69	225.36
951.98	225.42
952.28	225.45
952.58	225.42
952.87	225.30
953.17	225.29
953.47	225.24
953.76	225.20
954.06	225.13
954.36	225.08
954.66	225.09
954.95	225.22
955.25	225.25
955.55	225.31
955.84	225.27
956.14	225.32
956.44	225.40
956.73	225.39
957.03	225.43
957.32	225.30
957.62	225.36
957.92	225.48
958.21	225.39
958.51	225.97
958.81	226.04
959.10	226.18
959.40	226.34
959.69	226.37
959.99	226.43
960.29	226.45
960.58	226.38
960.88	226.56
961.17	226.38
961.47	226.50
961.76	226.44
962.06	226.57
962.36	226.44
962.65	226.48
962.95	226.45
963.24	226.34
963.54	226.45
963.83	226.39
964.13	226.35
964.42	226.29
964.72	225.86
965.01	225.85
965.31	225.80
965.60	225.67
965.90	225.99
966.19	225.93
966.49	226.00
966.78	226.08
967.08	226.01
967.37	226.15
967.67	226.00
967.96	226.07
968.26	225.98
968.55	226.10
968.85	226.11
969.14	226.11
969.43	226.17
969.73	226.08
970.02	226.05
970.32	226.09
970.61	226.08
970.91	225.96
971.20	225.89
971.49	225.85
971.79	225.95
972.08	225.62
972.38	225.63
972.67	225.54
972.96	225.56
973.26	225.51
973.55	225.65
973.85	225.60
974.14	225.53
974.43	225.58
974.73	225.46
975.02	225.45
975.31	225.54
975.61	225.52
975.90	225.52
976.19	225.44
976.49	225.48
976.78	225.48
977.07	225.53
977.37	225.59
977.66	225.65
977.95	225.57
978.24	225.65
978.54	225.78
978.83	225.84
979.12	225.82
979.42	225.89
979.71	225.75
980.00	225.83
980.29	225.81
980.59	225.73
980.88	225.91
981.17	225.90
981.46	225.89
981.76	225.89
982.05	226.03
982.34	226.13
982.63	226.17
982.93	226.18
983.22	226.28
983.51	226.27
983.80	226.36
984.09	226.36
984.39	226.29
984.68	226.20
984.97	226.20
985.26	226.16
985.55	226.14
985.85	226.09
986.14	226.10
986.43	226.19
986.72	226.19
987.01	226.00
987.30	225.95
987.59	225.86
987.89	225.88
988.18	225.71
988.47	225.67
988.76	225.51
989.05	225.53
989.34	225.47
989.63	225.66
989.92	225.52
990.22	225.51
990.51	225.46
990.80	225.42
991.09	225.40
991.38	225.48
991.67	225.39
991.96	225.36
992.25	225.37
992.54	225.28
992.83	225.22
993.12	225.23
993.41	225.33
993.70	225.49
993.99	225.64
994.28	225.72
994.58	225.77
994.87	225.73
995.16	225.77
995.45	225.75
995.74	225.49
996.03	225.49
996.32	225.59
996.61	225.73
996.90	225.71
997.19	225.70
997.48	225.66
997.77	225.62
998.06	225.60
998.34	225.55
998.63	225.60
998.92	225.63
999.21	225.65
999.50	225.66
999.79	225.52
1000.08	225.45
1000.37	225.41
1000.66	225.35
1000.95	225.53
1001.24	225.47
1001.53	225.47
1001.82	225.45
1002.11	225.40
1002.40	225.37
1002.68	225.45
1002.97	225.78
1003.26	225.70
1003.55	225.62
1003.84	225.67
1004.13	225.86
1004.42	225.85
1004.71	225.73
1004.99	225.70
1005.28	225.87
1005.57	225.80
1005.86	225.78
1006.15	225.70
1006.44	225.67
1006.72	225.72
1007.01	225.62
1007.30	225.66
1007.59	225.64
1007.88	225.66
1008.17	225.69
1008.45	225.57
1008.74	225.41
1009.03	225.24
1009.32	225.19
1009.60	225.24
1009.89	225.22
1010.18	225.04
1010.47	225.03
1010.76	225.11
1011.04	225.14
1011.33	225.17
1011.62	225.16
1011.91	225.23
1012.19	225.32
1012.48	225.34
1012.77	225.37
1013.05	225.63
1013.34	225.59
1013.63	225.59
1013.92	225.69
1014.20	225.64
1014.49	225.69
1014.78	225.75
1015.06	225.55
1015.35	225.60
1015.64	225.68
1015.92	225.74
1016.21	225.74
1016.50	225.73
1016.78	225.76
1017.07	225.82
1017.36	225.67
1017.64	225.72
1017.93	225.72
1018.22	225.68
1018.50	225.64
1018.79	225.63
1019.08	225.32
1019.36	225.37
1019.65	225.32
1019.93	225.41
1020.22	225.53
1020.51	225.80
1020.79	225.72
1021.08	225.70
1021.36	224.40
1021.65	225.30
1021.94	224.50
1022.22	226.20
1022.51	224.60
1022.79	227.70
1023.08	226.40
1023.36	231.75
1023.65	224.55
>>>>>End Processed Spectral Data<<<<<
