SpectraSuite Data File
++++++++++++++++++++++++++++++++++++
Date: Wed Sep 04 17:41:36 EDT 2013
User: lab3
Dark Spectrum Present: Yes
Reference Spectrum Present: No
Number of Sampled Component Spectra: 1
Spectrometers: USB2E7196
Integration Time (usec): 170000 (USB2E7196)
Spectra Averaged: 20 (USB2E7196)
Boxcar Smoothing: 10 (USB2E7196)
Correct for Electrical Dark: No (USB2E7196)
Strobe/Lamp Enabled: No (USB2E7196)
Correct for Detector Non-linearity: No (USB2E7196)
Correct for Stray Light: No (USB2E7196)
Number of Pixels in Processed Spectrum: 2048
>>>>>Begin Processed Spectral Data<<<<<
339.09	0.00
339.48	213.55
339.86	213.20
340.24	216.40
340.63	216.15
341.01	227.80
341.39	219.60
341.78	221.95
342.16	224.45
342.54	222.40
342.93	212.20
343.31	222.89
343.69	223.42
344.07	223.94
344.46	224.38
344.84	224.81
345.22	224.71
345.60	224.98
345.99	225.17
346.37	225.25
346.75	225.41
347.13	225.50
347.52	225.59
347.90	225.74
348.28	225.72
348.66	225.80
349.05	225.70
349.43	225.80
349.81	225.92
350.19	225.93
350.57	226.07
350.96	226.13
351.34	226.23
351.72	226.30
352.10	226.38
352.48	226.37
352.87	226.39
353.25	226.42
353.63	226.46
354.01	226.43
354.39	226.49
354.77	226.56
355.15	226.74
355.54	226.83
355.92	226.74
356.30	226.82
356.68	227.18
357.06	227.14
357.44	227.09
357.82	227.04
358.20	227.55
358.58	227.54
358.97	227.59
359.35	227.75
359.73	227.90
360.11	227.93
360.49	228.04
360.87	228.06
361.25	228.18
361.63	228.41
362.01	228.56
362.39	228.60
362.77	228.67
363.15	228.65
363.53	228.63
363.91	228.73
364.29	228.77
364.67	228.37
365.05	228.47
365.43	228.56
365.81	228.75
366.19	228.59
366.57	228.80
366.95	228.88
367.33	228.80
367.71	228.73
368.09	228.86
368.47	228.86
368.85	228.90
369.23	228.96
369.61	228.82
369.99	228.88
370.37	228.89
370.75	229.16
371.13	229.09
371.51	229.03
371.89	228.97
372.27	228.99
372.65	229.04
373.03	229.07
373.41	229.00
373.78	228.83
374.16	228.55
374.54	228.40
374.92	228.28
375.30	228.17
375.68	228.08
376.06	228.03
376.44	227.94
376.82	227.97
377.19	227.87
377.57	227.69
377.95	227.56
378.33	227.47
378.71	227.02
379.09	227.00
379.47	226.92
379.84	226.80
380.22	226.70
380.60	226.54
380.98	226.42
381.36	226.33
381.73	226.27
382.11	226.32
382.49	226.20
382.87	226.01
383.25	226.02
383.62	226.50
384.00	226.28
384.38	226.18
384.76	226.18
385.13	226.29
385.51	226.30
385.89	226.13
386.27	226.12
386.64	226.19
387.02	226.09
387.40	226.09
387.78	226.07
388.15	226.05
388.53	226.01
388.91	226.03
389.29	226.02
389.66	226.03
390.04	225.82
390.42	225.88
390.79	225.98
391.17	225.93
391.55	225.44
391.92	225.58
392.30	225.70
392.68	225.54
393.05	225.48
393.43	225.53
393.81	225.61
394.18	225.55
394.56	225.55
394.94	225.67
395.31	225.64
395.69	225.85
396.06	225.88
396.44	225.93
396.82	225.88
397.19	226.16
397.57	226.15
397.95	226.33
398.32	226.28
398.70	226.34
399.07	226.51
399.45	226.50
399.82	226.55
400.20	226.50
400.58	226.62
400.95	226.54
401.33	226.71
401.70	227.13
402.08	227.18
402.45	227.29
402.83	227.54
403.20	227.70
403.58	227.72
403.95	227.90
404.33	228.08
404.71	228.29
405.08	228.62
405.46	228.80
405.83	229.03
406.21	229.22
406.58	229.51
406.96	229.68
407.33	230.01
407.70	230.28
408.08	231.02
408.45	231.43
408.83	231.87
409.20	232.15
409.58	232.22
409.95	232.77
410.33	233.16
410.70	233.50
411.08	234.05
411.45	234.54
411.82	235.03
412.20	235.70
412.57	236.48
412.95	236.76
413.32	237.55
413.69	238.18
414.07	239.01
414.44	239.79
414.82	240.63
415.19	241.67
415.56	242.68
415.94	243.43
416.31	244.57
416.68	245.71
417.06	247.10
417.43	248.45
417.81	249.88
418.18	251.43
418.55	252.89
418.93	254.52
419.30	256.26
419.67	258.15
420.04	259.96
420.42	261.94
420.79	264.49
421.16	266.82
421.54	269.44
421.91	271.92
422.28	274.51
422.66	277.22
423.03	280.12
423.40	282.90
423.77	285.85
424.15	288.93
424.52	292.13
424.89	295.56
425.26	298.84
425.64	301.93
426.01	305.36
426.38	309.10
426.75	312.90
427.13	316.82
427.50	320.74
427.87	324.89
428.24	328.89
428.61	332.65
428.99	337.10
429.36	341.56
429.73	346.13
430.10	350.80
430.47	355.60
430.85	360.18
431.22	365.36
431.59	371.12
431.96	376.25
432.33	382.01
432.70	387.52
433.08	394.13
433.45	400.44
433.82	406.68
434.19	413.57
434.56	420.38
434.93	426.71
435.30	433.19
435.68	440.17
436.05	447.09
436.42	454.04
436.79	460.47
437.16	467.46
437.53	474.71
437.90	481.89
438.27	489.01
438.64	496.41
439.01	503.28
439.38	509.05
439.75	514.95
440.13	521.69
440.50	528.20
440.87	533.25
441.24	538.55
441.61	544.39
441.98	548.57
442.35	553.34
442.72	558.32
443.09	563.27
443.46	566.33
443.83	568.37
444.20	570.01
444.57	572.20
444.94	573.17
445.31	574.19
445.68	575.43
446.05	575.67
446.42	574.70
446.79	573.54
447.16	572.49
447.53	571.50
447.90	568.40
448.27	565.27
448.64	561.31
449.01	558.37
449.37	553.16
449.74	548.20
450.11	542.81
450.48	536.50
450.85	529.83
451.22	524.11
451.59	518.69
451.96	513.49
452.33	506.88
452.70	500.76
453.07	493.62
453.43	485.98
453.80	478.96
454.17	472.40
454.54	466.16
454.91	459.27
455.28	452.78
455.65	446.64
456.02	441.12
456.38	435.81
456.75	429.28
457.12	423.96
457.49	418.78
457.86	413.21
458.23	408.91
458.59	404.28
458.96	399.57
459.33	395.35
459.70	391.25
460.07	387.78
460.43	383.88
460.80	380.29
461.17	377.30
461.54	374.11
461.91	370.88
462.27	367.61
462.64	364.98
463.01	361.99
463.38	359.29
463.74	355.79
464.11	353.32
464.48	351.20
464.85	348.86
465.21	347.14
465.58	345.32
465.95	342.99
466.32	341.03
466.68	339.10
467.05	337.32
467.42	335.38
467.78	333.44
468.15	331.68
468.52	330.40
468.88	328.55
469.25	326.95
469.62	325.75
469.98	324.35
470.35	323.08
470.72	321.87
471.08	320.49
471.45	319.51
471.82	318.51
472.18	317.32
472.55	316.54
472.92	315.36
473.28	314.49
473.65	313.54
474.02	312.65
474.38	312.05
474.75	311.50
475.11	310.81
475.48	310.40
475.85	309.96
476.21	309.43
476.58	309.02
476.94	308.65
477.31	308.32
477.67	308.08
478.04	307.74
478.41	307.62
478.77	307.99
479.14	307.71
479.50	307.68
479.87	307.77
480.23	307.75
480.60	307.79
480.96	307.74
481.33	308.28
481.69	308.61
482.06	308.75
482.42	309.08
482.79	309.50
483.15	309.98
483.52	310.60
483.88	311.08
484.25	311.65
484.61	312.30
484.98	312.91
485.34	313.82
485.71	314.87
486.07	315.81
486.44	316.35
486.80	317.41
487.17	318.45
487.53	319.78
487.90	321.14
488.26	322.75
488.62	324.33
488.99	325.70
489.35	327.36
489.72	329.10
490.08	330.80
490.44	332.65
490.81	334.70
491.17	336.66
491.54	339.04
491.90	341.37
492.26	343.87
492.63	346.50
492.99	349.12
493.36	351.93
493.72	354.95
494.08	358.08
494.45	361.36
494.81	364.86
495.17	368.40
495.54	372.24
495.90	376.09
496.26	380.23
496.63	384.40
496.99	388.71
497.35	393.31
497.72	398.24
498.08	403.22
498.44	408.25
498.80	413.84
499.17	419.17
499.53	424.79
499.89	430.77
500.26	436.75
500.62	442.96
500.98	449.62
501.34	456.28
501.71	463.06
502.07	469.92
502.43	477.09
502.79	484.32
503.16	491.92
503.52	499.81
503.88	507.95
504.24	516.30
504.60	525.03
504.97	534.00
505.33	542.97
505.69	552.58
506.05	562.31
506.41	571.90
506.78	582.00
507.14	592.56
507.50	603.22
507.86	614.19
508.22	625.55
508.59	636.57
508.95	648.30
509.31	660.44
509.67	672.72
510.03	685.03
510.39	697.60
510.75	710.34
511.12	723.20
511.48	736.32
511.84	749.75
512.20	763.25
512.56	776.98
512.92	791.02
513.28	805.16
513.64	819.32
514.00	833.86
514.37	848.62
514.73	863.44
515.09	878.33
515.45	893.33
515.81	908.32
516.17	923.54
516.53	938.65
516.89	953.92
517.25	969.83
517.61	986.23
517.97	1002.59
518.33	1018.71
518.69	1035.03
519.05	1051.38
519.41	1067.78
519.77	1084.68
520.13	1101.32
520.49	1117.72
520.85	1135.63
521.21	1152.44
521.57	1169.16
521.93	1185.36
522.29	1202.00
522.65	1218.37
523.01	1234.75
523.37	1250.77
523.73	1267.27
524.09	1283.27
524.45	1299.03
524.81	1314.86
525.17	1330.51
525.53	1346.07
525.89	1361.95
526.25	1377.57
526.61	1392.81
526.97	1408.77
527.33	1424.45
527.68	1440.96
528.04	1456.77
528.40	1470.80
528.76	1486.47
529.12	1501.90
529.48	1517.26
529.84	1531.88
530.20	1547.24
530.56	1562.24
530.91	1577.43
531.27	1591.87
531.63	1606.52
531.99	1621.42
532.35	1635.67
532.71	1649.94
533.07	1664.66
533.42	1678.77
533.78	1692.72
534.14	1706.66
534.50	1719.82
534.86	1733.14
535.21	1744.73
535.57	1757.38
535.93	1769.11
536.29	1780.80
536.65	1792.79
537.00	1804.46
537.36	1816.10
537.72	1826.68
538.08	1837.95
538.44	1848.78
538.79	1859.36
539.15	1870.08
539.51	1880.07
539.87	1889.66
540.22	1898.52
540.58	1907.25
540.94	1914.90
541.29	1922.31
541.65	1929.71
542.01	1937.07
542.37	1942.63
542.72	1948.64
543.08	1954.00
543.44	1960.81
543.79	1966.12
544.15	1971.06
544.51	1976.20
544.87	1980.97
545.22	1985.24
545.58	1988.48
545.94	1991.25
546.29	1993.92
546.65	1995.94
547.01	1997.70
547.36	1999.27
547.72	2000.72
548.07	2001.04
548.43	2002.51
548.79	2003.53
549.14	2004.05
549.50	2004.27
549.86	2004.71
550.21	2005.16
550.57	2005.54
550.92	2003.94
551.28	2002.62
551.64	2001.72
551.99	2000.54
552.35	1999.41
552.70	1998.33
553.06	1997.20
553.41	1996.16
553.77	1995.26
554.13	1994.38
554.48	1993.25
554.84	1991.66
555.19	1990.15
555.55	1989.22
555.90	1986.75
556.26	1983.97
556.61	1980.75
556.97	1977.10
557.32	1974.51
557.68	1971.24
558.03	1967.83
558.39	1964.51
558.74	1961.47
559.10	1957.01
559.45	1952.84
559.81	1947.59
560.16	1942.05
560.52	1936.45
560.87	1931.05
561.23	1925.02
561.58	1918.97
561.94	1912.03
562.29	1905.24
562.64	1898.49
563.00	1890.88
563.35	1884.36
563.71	1877.99
564.06	1871.88
564.42	1865.32
564.77	1858.68
565.12	1851.79
565.48	1844.96
565.83	1838.24
566.19	1831.20
566.54	1824.34
566.89	1816.90
567.25	1810.20
567.60	1803.80
567.96	1797.54
568.31	1790.32
568.66	1783.06
569.02	1775.25
569.37	1768.63
569.72	1762.15
570.08	1754.30
570.43	1746.47
570.78	1738.49
571.14	1730.52
571.49	1722.23
571.84	1714.31
572.20	1705.46
572.55	1697.40
572.90	1688.48
573.26	1679.95
573.61	1671.35
573.96	1662.71
574.31	1653.38
574.67	1644.07
575.02	1634.11
575.37	1623.85
575.72	1613.98
576.08	1604.44
576.43	1594.70
576.78	1584.43
577.13	1574.07
577.49	1564.55
577.84	1555.58
578.19	1546.74
578.54	1537.53
578.90	1528.33
579.25	1519.31
579.60	1510.12
579.95	1500.18
580.30	1490.47
580.66	1480.42
581.01	1470.18
581.36	1459.78
581.71	1450.56
582.06	1441.13
582.42	1432.10
582.77	1423.03
583.12	1414.30
583.47	1405.18
583.82	1396.48
584.17	1387.95
584.53	1379.37
584.88	1369.97
585.23	1360.52
585.58	1350.14
585.93	1340.20
586.28	1330.79
586.63	1320.79
586.98	1310.73
587.34	1301.58
587.69	1292.33
588.04	1283.61
588.39	1275.10
588.74	1266.47
589.09	1257.78
589.44	1248.63
589.79	1239.73
590.14	1231.36
590.49	1222.59
590.84	1214.26
591.19	1205.83
591.54	1197.13
591.89	1188.58
592.25	1181.46
592.60	1173.29
592.95	1165.46
593.30	1157.50
593.65	1149.12
594.00	1140.68
594.35	1134.29
594.70	1126.06
595.05	1118.12
595.40	1109.85
595.75	1101.56
596.10	1093.78
596.45	1085.81
596.80	1078.23
597.15	1070.56
597.50	1062.50
597.85	1054.82
598.19	1046.83
598.54	1038.67
598.89	1031.00
599.24	1023.77
599.59	1015.72
599.94	1008.27
600.29	1001.32
600.64	994.12
600.99	986.90
601.34	980.33
601.69	972.27
602.04	965.59
602.39	959.13
602.74	952.82
603.08	946.31
603.43	940.00
603.78	933.42
604.13	926.74
604.48	920.13
604.83	913.59
605.18	906.94
605.53	900.38
605.87	894.26
606.22	888.49
606.57	882.02
606.92	875.70
607.27	869.76
607.62	863.74
607.96	858.14
608.31	852.73
608.66	847.23
609.01	841.65
609.36	835.96
609.70	830.12
610.05	824.26
610.40	818.59
610.75	812.70
611.10	806.98
611.44	801.29
611.79	795.82
612.14	790.40
612.49	784.95
612.83	780.00
613.18	774.80
613.53	769.25
613.88	763.94
614.22	758.60
614.57	753.14
614.92	747.82
615.27	742.62
615.61	737.34
615.96	732.07
616.31	726.88
616.65	722.00
617.00	717.07
617.35	712.06
617.70	707.28
618.04	702.35
618.39	697.67
618.74	693.50
619.08	688.88
619.43	684.06
619.78	679.53
620.12	674.62
620.47	670.01
620.82	665.22
621.16	660.61
621.51	656.62
621.85	652.38
622.20	647.96
622.55	643.45
622.89	639.05
623.24	634.86
623.59	630.64
623.93	626.31
624.28	621.94
624.62	618.37
624.97	614.44
625.32	610.69
625.66	606.57
626.01	602.26
626.35	598.45
626.70	594.80
627.04	591.18
627.39	587.51
627.73	584.02
628.08	580.65
628.43	576.86
628.77	572.99
629.12	569.43
629.46	566.05
629.81	562.80
630.15	559.64
630.50	556.19
630.84	552.84
631.19	549.57
631.53	546.51
631.88	542.84
632.22	539.40
632.57	536.24
632.91	533.07
633.26	530.06
633.60	526.86
633.95	523.63
634.29	520.37
634.64	517.30
634.98	513.90
635.32	511.03
635.67	508.52
636.01	505.64
636.36	502.57
636.70	499.86
637.05	497.05
637.39	494.26
637.73	491.61
638.08	488.92
638.42	486.10
638.77	483.21
639.11	480.16
639.45	477.22
639.80	474.21
640.14	471.63
640.49	468.87
640.83	466.29
641.17	463.86
641.52	461.26
641.86	458.83
642.20	456.73
642.55	454.15
642.89	451.51
643.23	448.94
643.58	446.89
643.92	444.37
644.26	441.95
644.61	439.60
644.95	437.14
645.29	434.66
645.64	432.58
645.98	430.42
646.32	428.50
646.66	426.47
647.01	424.45
647.35	422.50
647.69	420.46
648.04	418.61
648.38	416.63
648.72	414.69
649.06	412.50
649.41	410.26
649.75	408.04
650.09	406.22
650.43	404.29
650.78	402.13
651.12	400.20
651.46	398.30
651.80	396.31
652.14	394.50
652.49	392.87
652.83	391.02
653.17	389.28
653.51	387.33
653.85	385.77
654.20	384.07
654.54	382.30
654.88	380.67
655.22	379.08
655.56	377.44
655.90	375.83
656.25	374.40
656.59	372.89
656.93	371.57
657.27	370.09
657.61	368.50
657.95	367.00
658.29	365.44
658.64	364.09
658.98	362.71
659.32	361.17
659.66	359.60
660.00	358.20
660.34	356.78
660.68	355.55
661.02	354.09
661.36	352.80
661.70	351.40
662.05	350.03
662.39	348.67
662.73	347.43
663.07	346.33
663.41	345.05
663.75	343.71
664.09	342.35
664.43	340.92
664.77	339.90
665.11	338.72
665.45	337.65
665.79	336.56
666.13	335.41
666.47	334.22
666.81	333.06
667.15	331.72
667.49	330.65
667.83	329.71
668.17	328.69
668.51	327.62
668.85	326.74
669.19	325.96
669.53	324.80
669.87	323.67
670.21	322.55
670.55	321.60
670.89	320.84
671.23	319.85
671.57	318.88
671.91	317.93
672.25	317.05
672.58	316.28
672.92	315.15
673.26	314.20
673.60	313.45
673.94	312.69
674.28	311.99
674.62	311.18
674.96	310.14
675.30	309.35
675.64	308.51
675.97	307.61
676.31	306.63
676.65	305.74
676.99	305.10
677.33	304.21
677.67	303.45
678.01	302.54
678.34	301.90
678.68	301.28
679.02	300.49
679.36	299.75
679.70	298.85
680.04	298.12
680.37	297.41
680.71	296.70
681.05	296.09
681.39	295.44
681.73	294.74
682.06	294.10
682.40	293.42
682.74	292.90
683.08	292.44
683.42	291.79
683.75	291.31
684.09	290.62
684.43	290.05
684.77	289.48
685.10	288.92
685.44	288.26
685.78	287.64
686.12	287.00
686.45	286.35
686.79	285.75
687.13	285.30
687.46	284.76
687.80	284.33
688.14	283.67
688.48	283.04
688.81	282.52
689.15	282.09
689.49	281.45
689.82	280.87
690.16	280.10
690.50	279.66
690.83	279.10
691.17	278.43
691.51	278.00
691.84	277.45
692.18	276.90
692.52	276.37
692.85	275.85
693.19	275.57
693.52	275.16
693.86	274.71
694.20	274.19
694.53	273.77
694.87	273.23
695.21	272.82
695.54	272.37
695.88	271.86
696.21	271.22
696.55	270.89
696.88	270.47
697.22	270.03
697.56	269.58
697.89	269.10
698.23	268.85
698.56	268.37
698.90	268.05
699.23	267.65
699.57	267.32
699.90	266.90
700.24	266.41
700.58	266.08
700.91	265.82
701.25	265.84
701.58	265.80
701.92	265.51
702.25	265.12
702.59	264.75
702.92	264.45
703.26	264.22
703.59	263.94
703.93	263.96
704.26	263.68
704.60	263.40
704.93	263.12
705.26	262.70
705.60	262.40
705.93	261.92
706.27	261.74
706.60	261.54
706.94	261.43
707.27	261.05
707.61	260.75
707.94	260.42
708.27	259.71
708.61	259.10
708.94	258.75
709.28	258.47
709.61	258.20
709.94	257.92
710.28	257.57
710.61	257.23
710.95	256.48
711.28	256.49
711.61	256.13
711.95	255.87
712.28	255.60
712.61	255.37
712.95	255.39
713.28	255.31
713.61	254.92
713.95	254.56
714.28	254.40
714.61	254.12
714.95	253.81
715.28	253.50
715.61	253.14
715.95	252.96
716.28	252.65
716.61	252.47
716.95	252.18
717.28	251.96
717.61	251.69
717.94	251.47
718.28	250.91
718.61	250.67
718.94	250.42
719.27	250.16
719.61	249.94
719.94	249.55
720.27	249.05
720.60	248.80
720.94	248.60
721.27	248.41
721.60	248.20
721.93	247.91
722.27	247.92
722.60	247.94
722.93	247.69
723.26	247.64
723.59	247.37
723.93	247.25
724.26	247.05
724.59	246.82
724.92	246.70
725.25	246.68
725.59	246.48
725.92	246.29
726.25	246.14
726.58	245.96
726.91	245.77
727.24	245.74
727.57	245.59
727.91	245.26
728.24	245.09
728.57	244.87
728.90	244.80
729.23	244.47
729.56	244.49
729.89	244.34
730.22	244.02
730.55	243.84
730.89	243.65
731.22	243.48
731.55	243.38
731.88	243.22
732.21	242.97
732.54	242.82
732.87	242.76
733.20	242.66
733.53	242.54
733.86	242.45
734.19	242.23
734.52	242.16
734.85	242.45
735.18	242.21
735.51	242.22
735.84	242.15
736.17	242.11
736.50	241.64
736.83	242.08
737.16	241.92
737.49	241.79
737.82	241.65
738.15	241.64
738.48	241.44
738.81	241.28
739.14	241.13
739.47	240.94
739.80	240.76
740.13	240.70
740.46	240.48
740.79	240.32
741.12	240.16
741.45	239.98
741.78	239.52
742.11	239.57
742.44	239.34
742.77	239.20
743.10	239.06
743.43	238.98
743.75	238.31
744.08	238.90
744.41	238.83
744.74	238.75
745.07	238.56
745.40	238.59
745.73	238.72
746.06	238.62
746.39	238.65
746.71	238.49
747.04	238.21
747.37	238.10
747.70	238.08
748.03	237.98
748.36	237.95
748.68	237.84
749.01	237.64
749.34	237.61
749.67	237.58
750.00	237.57
750.33	237.80
750.65	237.70
750.98	237.04
751.31	236.96
751.64	236.86
751.97	237.01
752.29	236.87
752.62	236.54
752.95	236.39
753.28	236.19
753.60	236.15
753.93	236.23
754.26	236.23
754.59	236.02
754.91	235.91
755.24	235.82
755.57	235.82
755.90	235.69
756.22	235.49
756.55	235.34
756.88	235.17
757.20	234.81
757.53	234.63
757.86	234.53
758.19	234.45
758.51	234.34
758.84	234.01
759.17	233.85
759.49	233.82
759.82	234.10
760.15	234.13
760.47	234.03
760.80	233.90
761.13	233.87
761.45	233.74
761.78	233.60
762.11	233.57
762.43	233.41
762.76	233.34
763.08	233.31
763.41	233.30
763.74	233.23
764.06	233.15
764.39	233.20
764.71	233.10
765.04	232.98
765.37	232.89
765.69	232.86
766.02	232.86
766.34	232.75
766.67	232.51
767.00	232.50
767.32	232.75
767.65	232.91
767.97	232.80
768.30	232.84
768.62	232.79
768.95	232.60
769.27	232.55
769.60	232.59
769.92	232.52
770.25	232.36
770.57	232.24
770.90	232.15
771.22	232.04
771.55	232.03
771.87	232.00
772.20	231.94
772.52	232.24
772.85	232.71
773.17	232.72
773.50	232.58
773.82	232.41
774.15	232.06
774.47	231.77
774.80	231.65
775.12	231.57
775.45	231.62
775.77	231.62
776.09	231.60
776.42	231.53
776.74	231.59
777.07	231.53
777.39	231.51
777.72	231.46
778.04	231.39
778.36	231.31
778.69	231.33
779.01	231.34
779.33	230.95
779.66	230.40
779.98	230.28
780.31	230.25
780.63	230.45
780.95	230.57
781.28	230.46
781.60	230.43
781.92	230.33
782.25	230.19
782.57	230.11
782.89	230.05
783.22	229.96
783.54	229.88
783.86	229.93
784.19	229.83
784.51	230.03
784.83	229.96
785.16	229.87
785.48	229.82
785.80	229.76
786.12	229.75
786.45	229.67
786.77	229.70
787.09	229.73
787.42	229.46
787.74	229.37
788.06	229.42
788.38	229.30
788.71	229.28
789.03	229.34
789.35	229.42
789.67	229.28
789.99	229.32
790.32	229.21
790.64	229.20
790.96	229.65
791.28	229.42
791.61	229.39
791.93	229.42
792.25	229.33
792.57	229.70
792.89	229.58
793.21	229.62
793.54	229.57
793.86	229.45
794.18	229.54
794.50	229.41
794.82	229.42
795.14	229.58
795.47	229.63
795.79	229.61
796.11	229.55
796.43	229.57
796.75	229.55
797.07	229.63
797.39	229.55
797.71	229.14
798.04	229.11
798.36	229.15
798.68	229.13
799.00	229.16
799.32	228.95
799.64	229.00
799.96	228.93
800.28	228.99
800.60	228.96
800.92	228.88
801.24	228.88
801.56	228.92
801.89	228.85
802.21	228.94
802.53	228.86
802.85	228.90
803.17	229.11
803.49	228.98
803.81	228.89
804.13	228.88
804.45	228.79
804.77	228.85
805.09	228.80
805.41	228.88
805.73	228.82
806.05	228.66
806.37	228.60
806.69	228.62
807.01	228.55
807.33	228.61
807.65	228.49
807.97	228.72
808.28	228.60
808.60	228.56
808.92	228.46
809.24	228.75
809.56	228.72
809.88	228.58
810.20	228.68
810.52	228.82
810.84	228.74
811.16	228.71
811.48	228.64
811.80	228.84
812.12	228.70
812.43	228.73
812.75	228.71
813.07	228.71
813.39	228.74
813.71	228.75
814.03	228.73
814.35	228.75
814.67	228.55
814.98	228.49
815.30	228.50
815.62	228.35
815.94	228.01
816.26	228.15
816.58	227.99
816.89	227.95
817.21	227.84
817.53	227.86
817.85	227.89
818.17	227.91
818.48	227.74
818.80	227.83
819.12	227.82
819.44	227.66
819.76	227.60
820.07	227.49
820.39	227.44
820.71	227.35
821.03	227.38
821.34	227.28
821.66	227.35
821.98	227.43
822.30	227.45
822.61	227.77
822.93	227.52
823.25	227.55
823.57	227.47
823.88	227.46
824.20	227.47
824.52	227.51
824.83	227.48
825.15	227.38
825.47	227.30
825.79	227.28
826.10	227.31
826.42	227.30
826.74	227.44
827.05	227.37
827.37	227.38
827.69	227.37
828.00	227.35
828.32	227.34
828.64	227.13
828.95	227.40
829.27	227.24
829.58	227.26
829.90	227.34
830.22	227.34
830.53	227.23
830.85	227.16
831.17	227.00
831.48	226.95
831.80	226.91
832.11	226.90
832.43	226.82
832.75	226.84
833.06	227.14
833.38	226.98
833.69	226.98
834.01	227.01
834.32	226.94
834.64	226.97
834.96	227.02
835.27	227.08
835.59	226.87
835.90	226.74
836.22	226.69
836.53	226.57
836.85	226.60
837.16	227.10
837.48	227.07
837.79	227.28
838.11	227.30
838.42	227.42
838.74	227.53
839.05	227.52
839.37	227.51
839.68	227.26
840.00	227.23
840.31	227.31
840.63	227.30
840.94	227.33
841.26	227.29
841.57	227.25
841.88	227.29
842.20	227.23
842.51	227.23
842.83	227.26
843.14	227.74
843.46	227.73
843.77	227.44
844.08	227.45
844.40	227.35
844.71	227.25
845.03	227.10
845.34	226.97
845.65	226.92
845.97	226.91
846.28	226.92
846.60	226.99
846.91	226.86
847.22	226.79
847.54	226.79
847.85	226.83
848.16	226.71
848.48	226.60
848.79	226.81
849.10	226.85
849.42	226.91
849.73	226.42
850.04	226.41
850.36	226.27
850.67	226.30
850.98	226.33
851.30	226.45
851.61	226.50
851.92	226.53
852.23	226.74
852.55	226.78
852.86	226.72
853.17	226.81
853.49	226.91
853.80	227.10
854.11	227.16
854.42	227.19
854.74	227.23
855.05	227.24
855.36	227.07
855.67	227.03
855.99	227.00
856.30	227.62
856.61	227.59
856.92	227.58
857.23	227.65
857.55	227.50
857.86	227.45
858.17	227.51
858.48	227.43
858.79	227.30
859.11	227.34
859.42	227.34
859.73	227.19
860.04	227.17
860.35	226.98
860.66	226.80
860.98	226.72
861.29	226.75
861.60	226.79
861.91	226.81
862.22	226.69
862.53	226.61
862.84	226.02
863.16	226.10
863.47	226.01
863.78	225.86
864.09	225.95
864.40	226.00
864.71	225.97
865.02	226.01
865.33	225.91
865.64	225.82
865.95	225.73
866.27	226.01
866.58	225.88
866.89	225.89
867.20	225.88
867.51	225.89
867.82	225.91
868.13	225.99
868.44	225.85
868.75	225.98
869.06	225.93
869.37	225.95
869.68	225.79
869.99	225.90
870.30	225.91
870.61	225.90
870.92	225.80
871.23	225.76
871.54	225.80
871.85	225.88
872.16	225.90
872.47	225.92
872.78	225.73
873.09	225.80
873.40	225.81
873.71	225.90
874.02	225.90
874.33	225.82
874.64	225.74
874.95	225.85
875.26	225.76
875.56	225.81
875.87	225.81
876.18	225.85
876.49	226.30
876.80	226.25
877.11	226.17
877.42	226.18
877.73	226.23
878.04	226.20
878.35	226.20
878.66	226.17
878.96	226.15
879.27	226.07
879.58	226.08
879.89	226.04
880.20	226.15
880.51	226.11
880.82	226.11
881.12	226.12
881.43	225.97
881.74	225.98
882.05	225.96
882.36	225.95
882.67	226.01
882.97	225.50
883.28	225.55
883.59	225.49
883.90	225.60
884.21	225.62
884.51	225.60
884.82	225.64
885.13	225.76
885.44	225.82
885.74	225.90
886.05	225.92
886.36	225.89
886.67	225.82
886.98	226.12
887.28	226.24
887.59	226.26
887.90	226.36
888.20	226.34
888.51	226.42
888.82	226.42
889.13	226.49
889.43	226.94
889.74	226.94
890.05	227.03
890.35	226.98
890.66	226.93
890.97	226.90
891.28	226.79
891.58	226.80
891.89	226.78
892.20	226.69
892.50	226.62
892.81	226.64
893.12	226.50
893.42	226.26
893.73	226.20
894.04	226.22
894.34	226.22
894.65	226.28
894.95	226.25
895.26	226.25
895.57	226.39
895.87	225.97
896.18	226.02
896.48	226.03
896.79	226.05
897.10	226.08
897.40	226.09
897.71	226.18
898.01	226.07
898.32	226.11
898.63	226.12
898.93	226.19
899.24	226.21
899.54	226.28
899.85	226.23
900.15	226.21
900.46	226.19
900.76	226.26
901.07	226.17
901.38	226.13
901.68	226.20
901.99	226.00
902.29	226.04
902.60	225.99
902.90	226.01
903.21	226.00
903.51	226.01
903.82	226.10
904.12	226.08
904.43	226.09
904.73	226.13
905.03	226.09
905.34	226.53
905.64	226.50
905.95	226.45
906.25	226.40
906.56	226.35
906.86	226.33
907.17	226.31
907.47	226.40
907.77	226.35
908.08	226.22
908.38	226.23
908.69	226.22
908.99	226.27
909.30	226.31
909.60	226.29
909.90	226.25
910.21	226.15
910.51	226.11
910.81	226.13
911.12	226.11
911.42	226.13
911.73	225.71
912.03	225.75
912.33	225.89
912.64	225.87
912.94	225.82
913.24	225.67
913.55	225.61
913.85	225.50
914.15	225.60
914.46	225.71
914.76	225.66
915.06	225.57
915.37	225.47
915.67	225.35
915.97	225.32
916.27	225.29
916.58	225.30
916.88	225.28
917.18	225.22
917.49	225.61
917.79	225.60
918.09	225.62
918.39	225.75
918.70	225.67
919.00	225.71
919.30	225.97
919.60	226.03
919.91	225.96
920.21	225.97
920.51	225.85
920.81	225.88
921.12	225.99
921.42	226.06
921.72	226.17
922.02	226.22
922.32	226.33
922.63	226.34
922.93	226.58
923.23	226.59
923.53	226.55
923.83	226.24
924.13	226.29
924.44	226.21
924.74	226.25
925.04	226.44
925.34	226.40
925.64	226.14
925.94	226.15
926.24	226.45
926.55	226.50
926.85	226.60
927.15	226.58
927.45	226.55
927.75	226.50
928.05	226.47
928.35	226.41
928.65	226.47
928.95	226.49
929.26	226.31
929.56	226.36
929.86	226.47
930.16	226.37
930.46	226.34
930.76	226.46
931.06	226.28
931.36	226.09
931.66	226.21
931.96	226.29
932.26	226.33
932.56	226.13
932.86	226.16
933.16	226.13
933.46	226.01
933.76	225.89
934.06	225.95
934.36	226.07
934.66	226.13
934.96	226.08
935.26	226.10
935.56	226.09
935.86	226.01
936.16	225.92
936.46	225.87
936.76	225.81
937.06	225.65
937.36	225.60
937.66	225.57
937.96	225.55
938.26	225.44
938.56	225.34
938.86	225.32
939.16	225.40
939.46	225.49
939.76	225.52
940.06	225.53
940.35	225.44
940.65	225.20
940.95	225.20
941.25	225.06
941.55	224.97
941.85	225.01
942.15	225.08
942.45	225.15
942.75	225.21
943.04	225.30
943.34	225.39
943.64	225.36
943.94	225.29
944.24	225.25
944.54	225.32
944.84	225.45
945.13	225.48
945.43	225.41
945.73	225.36
946.03	225.34
946.33	225.30
946.62	225.27
946.92	225.29
947.22	225.30
947.52	225.35
947.82	225.48
948.11	225.39
948.41	225.35
948.71	225.33
949.01	225.37
949.31	225.33
949.60	225.31
949.90	225.47
950.20	225.56
950.50	225.59
950.79	225.64
951.09	225.60
951.39	225.55
951.69	225.47
951.98	225.55
952.28	225.59
952.58	225.57
952.87	225.59
953.17	225.60
953.47	225.56
953.76	225.53
954.06	225.41
954.36	225.38
954.66	225.29
954.95	225.37
955.25	225.40
955.55	225.45
955.84	225.42
956.14	225.44
956.44	225.49
956.73	225.48
957.03	225.53
957.32	225.58
957.62	225.54
957.92	225.66
958.21	225.67
958.51	226.22
958.81	226.30
959.10	226.35
959.40	226.54
959.69	226.58
959.99	226.68
960.29	226.74
960.58	226.65
960.88	226.88
961.17	226.81
961.47	226.76
961.76	226.66
962.06	226.73
962.36	226.67
962.65	226.65
962.95	226.67
963.24	226.58
963.54	226.57
963.83	226.65
964.13	226.63
964.42	226.48
964.72	226.05
965.01	226.05
965.31	226.06
965.60	225.95
965.90	226.22
966.19	226.12
966.49	226.13
966.78	226.25
967.08	226.22
967.37	226.28
967.67	226.19
967.96	226.26
968.26	226.28
968.55	226.30
968.85	226.29
969.14	226.27
969.43	226.24
969.73	226.14
970.02	226.09
970.32	226.05
970.61	226.03
970.91	225.92
971.20	225.90
971.49	225.82
971.79	225.82
972.08	225.57
972.38	225.61
972.67	225.49
972.96	225.43
973.26	225.29
973.55	225.44
973.85	225.42
974.14	225.36
974.43	225.38
974.73	225.38
975.02	225.37
975.31	225.35
975.61	225.36
975.90	225.38
976.19	225.39
976.49	225.45
976.78	225.48
977.07	225.47
977.37	225.52
977.66	225.60
977.95	225.60
978.24	225.60
978.54	225.66
978.83	225.70
979.12	225.71
979.42	225.70
979.71	225.51
980.00	225.52
980.29	225.58
980.59	225.47
980.88	225.49
981.17	225.38
981.46	225.43
981.76	225.36
982.05	225.48
982.34	225.47
982.63	225.45
982.93	225.48
983.22	225.61
983.51	225.54
983.80	225.56
984.09	225.59
984.39	225.50
984.68	225.39
984.97	225.36
985.26	225.36
985.55	225.43
985.85	225.37
986.14	225.49
986.43	225.56
986.72	225.49
987.01	225.31
987.30	225.38
987.59	225.27
987.89	225.29
988.18	225.10
988.47	225.04
988.76	224.95
989.05	224.88
989.34	224.76
989.63	224.93
989.92	224.88
990.22	224.75
990.51	224.80
990.80	224.83
991.09	224.93
991.38	224.96
991.67	225.00
991.96	224.95
992.25	224.89
992.54	224.80
992.83	224.91
993.12	225.00
993.41	225.09
993.70	225.36
993.99	225.55
994.28	225.65
994.58	225.80
994.87	225.80
995.16	225.80
995.45	225.77
995.74	225.62
996.03	225.73
996.32	225.85
996.61	225.94
996.90	225.94
997.19	225.90
997.48	225.90
997.77	225.80
998.06	225.86
998.34	225.93
998.63	225.91
998.92	225.90
999.21	225.94
999.50	225.95
999.79	225.69
1000.08	225.60
1000.37	225.55
1000.66	225.47
1000.95	225.56
1001.24	225.63
1001.53	225.67
1001.82	225.65
1002.11	225.56
1002.40	225.66
1002.68	225.77
1002.97	226.09
1003.26	226.04
1003.55	226.01
1003.84	226.05
1004.13	226.17
1004.42	226.09
1004.71	226.12
1004.99	226.07
1005.28	226.21
1005.57	226.16
1005.86	226.21
1006.15	226.23
1006.44	226.22
1006.72	226.31
1007.01	226.29
1007.30	226.21
1007.59	226.17
1007.88	226.19
1008.17	226.23
1008.45	226.07
1008.74	225.84
1009.03	225.60
1009.32	225.62
1009.60	225.62
1009.89	225.56
1010.18	225.43
1010.47	225.47
1010.76	225.41
1011.04	225.39
1011.33	225.39
1011.62	225.47
1011.91	225.48
1012.19	225.56
1012.48	225.60
1012.77	225.51
1013.05	225.71
1013.34	225.76
1013.63	225.79
1013.92	225.84
1014.20	225.83
1014.49	225.92
1014.78	225.94
1015.06	225.86
1015.35	225.92
1015.64	226.00
1015.92	226.08
1016.21	226.06
1016.50	226.01
1016.78	226.11
1017.07	226.19
1017.36	226.06
1017.64	225.90
1017.93	225.92
1018.22	225.74
1018.50	225.69
1018.79	225.73
1019.08	225.54
1019.36	225.55
1019.65	225.46
1019.93	225.55
1020.22	225.56
1020.51	225.73
1020.79	225.69
1021.08	223.65
1021.36	224.55
1021.65	225.75
1021.94	226.10
1022.22	225.05
1022.51	224.40
1022.79	228.25
1023.08	226.20
1023.36	230.35
1023.65	224.10
>>>>>End Processed Spectral Data<<<<<
