SpectraSuite Data File
++++++++++++++++++++++++++++++++++++
Date: Wed Sep 04 17:53:02 EDT 2013
User: lab3
Dark Spectrum Present: Yes
Reference Spectrum Present: No
Number of Sampled Component Spectra: 1
Spectrometers: USB2E7196
Integration Time (usec): 170000 (USB2E7196)
Spectra Averaged: 20 (USB2E7196)
Boxcar Smoothing: 10 (USB2E7196)
Correct for Electrical Dark: No (USB2E7196)
Strobe/Lamp Enabled: No (USB2E7196)
Correct for Detector Non-linearity: No (USB2E7196)
Correct for Stray Light: No (USB2E7196)
Number of Pixels in Processed Spectrum: 2048
>>>>>Begin Processed Spectral Data<<<<<
339.09	0.00
339.48	213.60
339.86	213.85
340.24	215.60
340.63	216.65
341.01	226.30
341.39	219.85
341.78	222.40
342.16	223.20
342.54	223.55
342.93	212.24
343.31	222.99
343.69	223.53
344.07	224.05
344.46	224.55
344.84	225.02
345.22	224.99
345.60	225.25
345.99	225.36
346.37	225.51
346.75	225.58
347.13	225.64
347.52	225.75
347.90	225.91
348.28	225.97
348.66	226.04
349.05	225.87
349.43	225.96
349.81	226.01
350.19	226.09
350.57	226.16
350.96	226.37
351.34	226.40
351.72	226.50
352.10	226.60
352.48	226.63
352.87	226.69
353.25	226.78
353.63	226.88
354.01	227.06
354.39	227.21
354.77	227.24
355.15	227.50
355.54	227.42
355.92	227.34
356.30	227.38
356.68	227.81
357.06	227.98
357.44	227.97
357.82	228.02
358.20	228.40
358.58	228.49
358.97	228.44
359.35	228.56
359.73	228.73
360.11	228.71
360.49	228.79
360.87	228.77
361.25	228.90
361.63	229.06
362.01	229.05
362.39	228.98
362.77	229.07
363.15	229.07
363.53	229.16
363.91	229.24
364.29	229.27
364.67	228.88
365.05	228.88
365.43	228.96
365.81	229.07
366.19	229.00
366.57	229.20
366.95	229.25
367.33	229.21
367.71	229.16
368.09	229.34
368.47	229.32
368.85	229.31
369.23	229.36
369.61	229.21
369.99	229.43
370.37	229.48
370.75	229.84
371.13	229.65
371.51	229.57
371.89	229.53
372.27	229.52
372.65	229.53
373.03	229.56
373.41	229.51
373.78	229.48
374.16	229.22
374.54	229.06
374.92	228.95
375.30	228.94
375.68	228.85
376.06	228.85
376.44	228.80
376.82	228.84
377.19	228.69
377.57	228.64
377.95	228.32
378.33	228.20
378.71	227.77
379.09	227.85
379.47	227.83
379.84	227.81
380.22	227.72
380.60	227.53
380.98	227.45
381.36	227.38
381.73	227.19
382.11	227.19
382.49	227.12
382.87	227.00
383.25	226.94
383.62	227.41
384.00	227.24
384.38	227.18
384.76	227.22
385.13	227.38
385.51	227.30
385.89	227.20
386.27	227.18
386.64	227.24
387.02	227.13
387.40	226.97
387.78	226.97
388.15	226.93
388.53	226.87
388.91	226.80
389.29	226.73
389.66	226.81
390.04	226.75
390.42	226.78
390.79	226.83
391.17	226.81
391.55	226.20
391.92	226.12
392.30	226.19
392.68	226.00
393.05	225.94
393.43	225.99
393.81	226.05
394.18	225.96
394.56	225.92
394.94	226.05
395.31	226.19
395.69	226.27
396.06	226.33
396.44	226.43
396.82	226.46
397.19	226.72
397.57	226.66
397.95	226.82
398.32	226.67
398.70	226.78
399.07	226.92
399.45	227.01
399.82	227.12
400.20	227.15
400.58	227.29
400.95	227.22
401.33	227.48
401.70	227.91
402.08	228.08
402.45	228.25
402.83	228.46
403.20	228.58
403.58	228.68
403.95	228.98
404.33	229.20
404.71	229.38
405.08	229.85
405.46	230.11
405.83	230.26
406.21	230.61
406.58	230.89
406.96	231.09
407.33	231.48
407.70	231.86
408.08	232.61
408.45	233.05
408.83	233.50
409.20	233.85
409.58	234.09
409.95	234.64
410.33	235.20
410.70	235.51
411.08	236.13
411.45	236.72
411.82	237.26
412.20	238.08
412.57	239.10
412.95	239.47
413.32	240.42
413.69	241.20
414.07	242.11
414.44	243.06
414.82	244.12
415.19	245.36
415.56	246.54
415.94	247.49
416.31	248.92
416.68	250.32
417.06	251.91
417.43	253.52
417.81	255.25
418.18	257.01
418.55	258.96
418.93	261.00
419.30	263.08
419.67	265.33
420.04	267.52
420.42	269.79
420.79	272.88
421.16	275.53
421.54	278.65
421.91	281.64
422.28	284.70
422.66	287.96
423.03	291.36
423.40	294.64
423.77	298.13
424.15	301.79
424.52	305.62
424.89	309.74
425.26	313.63
425.64	317.37
426.01	321.49
426.38	325.91
426.75	330.49
427.13	335.04
427.50	339.73
427.87	344.75
428.24	349.64
428.61	354.05
428.99	359.38
429.36	364.73
429.73	370.22
430.10	375.83
430.47	381.56
430.85	387.07
431.22	393.39
431.59	400.25
431.96	406.25
432.33	413.04
432.70	419.65
433.08	427.37
433.45	434.85
433.82	442.17
434.19	450.24
434.56	458.23
434.93	465.95
435.30	473.73
435.68	482.30
436.05	490.70
436.42	499.00
436.79	506.65
437.16	515.07
437.53	523.70
437.90	532.35
438.27	540.76
438.64	549.80
439.01	557.90
439.38	565.00
439.75	572.19
440.13	580.23
440.50	587.83
440.87	594.05
441.24	600.35
441.61	607.37
441.98	612.55
442.35	618.23
442.72	624.20
443.09	629.90
443.46	633.02
443.83	635.24
444.20	637.05
444.57	639.75
444.94	640.66
445.31	642.00
445.68	643.34
446.05	643.53
446.42	642.12
446.79	640.76
447.16	639.28
447.53	638.14
447.90	634.48
448.27	630.81
448.64	625.94
449.01	622.37
449.37	616.17
449.74	610.04
450.11	603.37
450.48	595.52
450.85	587.48
451.22	580.82
451.59	574.30
451.96	568.25
452.33	560.17
452.70	553.05
453.07	544.27
453.43	535.20
453.80	526.82
454.17	518.84
454.54	511.15
454.91	503.01
455.28	494.98
455.65	487.62
456.02	480.78
456.38	474.51
456.75	466.73
457.12	460.43
457.49	454.26
457.86	447.91
458.23	442.92
458.59	437.38
458.96	431.77
459.33	426.67
459.70	421.55
460.07	417.48
460.43	412.79
460.80	408.57
461.17	404.79
461.54	400.97
461.91	397.21
462.27	393.36
462.64	390.03
463.01	386.51
463.38	383.20
463.74	379.27
464.11	376.25
464.48	373.69
464.85	370.75
465.21	368.63
465.58	366.31
465.95	363.48
466.32	361.20
466.68	358.83
467.05	356.68
467.42	354.51
467.78	352.23
468.15	350.05
468.52	348.45
468.88	346.25
469.25	344.18
469.62	342.70
469.98	341.18
470.35	339.58
470.72	338.15
471.08	336.40
471.45	335.06
471.82	333.76
472.18	332.23
472.55	331.21
472.92	329.86
473.28	328.68
473.65	327.65
474.02	326.65
474.38	325.80
474.75	325.06
475.11	324.09
475.48	323.47
475.85	322.90
476.21	322.22
476.58	321.82
476.94	321.60
477.31	321.14
477.67	320.69
478.04	320.44
478.41	320.17
478.77	320.55
479.14	320.18
479.50	320.01
479.87	320.02
480.23	320.05
480.60	320.00
480.96	320.04
481.33	320.41
481.69	320.66
482.06	320.83
482.42	321.07
482.79	321.46
483.15	321.87
483.52	322.47
483.88	322.84
484.25	323.29
484.61	323.85
484.98	324.35
485.34	325.26
485.71	326.15
486.07	327.10
486.44	327.69
486.80	328.90
487.17	330.04
487.53	331.44
487.90	332.77
488.26	334.45
488.62	336.15
488.99	337.61
489.35	339.38
489.72	341.20
490.08	343.32
490.44	345.34
490.81	347.55
491.17	349.71
491.54	352.27
491.90	354.91
492.26	357.60
492.63	360.45
492.99	363.23
493.36	366.36
493.72	369.74
494.08	373.19
494.45	376.95
494.81	380.94
495.17	384.72
495.54	388.93
495.90	393.13
496.26	397.59
496.63	402.26
496.99	407.02
497.35	412.15
497.72	417.19
498.08	422.71
498.44	428.46
498.80	434.51
499.17	440.55
499.53	446.70
499.89	453.33
500.26	460.31
500.62	467.32
500.98	474.60
501.34	481.96
501.71	489.59
502.07	497.18
502.43	505.14
502.79	513.68
503.16	522.44
503.52	531.43
503.88	540.66
504.24	550.21
504.60	560.23
504.97	570.42
505.33	580.92
505.69	591.94
506.05	602.79
506.41	613.87
506.78	625.51
507.14	637.61
507.50	649.77
507.86	662.24
508.22	675.19
508.59	688.16
508.95	701.77
509.31	715.79
509.67	730.09
510.03	744.39
510.39	759.02
510.75	774.05
511.12	789.23
511.48	804.82
511.84	820.69
512.20	836.65
512.56	853.01
512.92	869.80
513.28	886.59
513.64	903.99
514.00	921.43
514.37	939.08
514.73	957.08
515.09	975.40
515.45	993.63
515.81	1011.99
516.17	1030.66
516.53	1049.13
516.89	1067.77
517.25	1087.22
517.61	1107.49
517.97	1127.60
518.33	1147.40
518.69	1167.71
519.05	1187.95
519.41	1208.45
519.77	1229.28
520.13	1249.75
520.49	1270.27
520.85	1292.35
521.21	1313.63
521.57	1335.08
521.93	1355.64
522.29	1376.65
522.65	1397.20
523.01	1418.22
523.37	1438.95
523.73	1460.12
524.09	1480.99
524.45	1501.84
524.81	1522.58
525.17	1543.12
525.53	1563.57
525.89	1584.44
526.25	1605.04
526.61	1625.58
526.97	1646.38
527.33	1667.44
527.68	1689.06
528.04	1710.23
528.40	1729.99
528.76	1750.63
529.12	1770.87
529.48	1791.65
529.84	1811.91
530.20	1833.06
530.56	1853.55
530.91	1874.45
531.27	1894.71
531.63	1914.98
531.99	1935.30
532.35	1954.95
532.71	1974.96
533.07	1995.56
533.42	2015.33
533.78	2035.25
534.14	2055.16
534.50	2074.24
534.86	2093.05
535.21	2110.39
535.57	2128.62
535.93	2145.92
536.29	2163.35
536.65	2181.60
537.00	2199.33
537.36	2216.66
537.72	2232.76
538.08	2250.00
538.44	2266.33
538.79	2282.46
539.15	2299.08
539.51	2314.85
539.87	2330.24
540.22	2344.21
540.58	2358.31
540.94	2371.48
541.29	2384.17
541.65	2396.45
542.01	2409.03
542.37	2419.71
542.72	2431.11
543.08	2441.85
543.44	2453.70
543.79	2463.73
544.15	2473.18
544.51	2483.18
544.87	2492.70
545.22	2501.26
545.58	2508.87
545.94	2515.91
546.29	2522.58
546.65	2528.53
547.01	2534.32
547.36	2539.67
547.72	2545.26
548.07	2549.32
548.43	2554.39
548.79	2558.68
549.14	2562.85
549.50	2566.42
549.86	2570.67
550.21	2574.11
550.57	2577.35
550.92	2578.59
551.28	2579.61
551.64	2581.82
551.99	2583.40
552.35	2584.89
552.70	2586.90
553.06	2588.57
553.41	2589.92
553.77	2591.80
554.13	2593.67
554.48	2594.99
554.84	2596.52
555.19	2597.11
555.55	2598.52
555.90	2598.09
556.26	2597.25
556.61	2595.45
556.97	2593.20
557.32	2592.50
557.68	2591.33
558.03	2589.59
558.39	2588.45
558.74	2587.94
559.10	2584.86
559.45	2581.19
559.81	2576.88
560.16	2571.87
560.52	2566.86
560.87	2562.52
561.23	2556.66
561.58	2550.37
561.94	2543.30
562.29	2535.95
562.64	2529.35
563.00	2521.05
563.35	2514.48
563.71	2508.07
564.06	2501.88
564.42	2495.44
564.77	2487.95
565.12	2480.52
565.48	2472.86
565.83	2464.84
566.19	2456.72
566.54	2449.13
566.89	2441.36
567.25	2433.66
567.60	2426.68
567.96	2419.34
568.31	2411.35
568.66	2403.01
569.02	2394.22
569.37	2386.52
569.72	2378.92
570.08	2369.66
570.43	2360.40
570.78	2351.20
571.14	2341.83
571.49	2331.89
571.84	2322.19
572.20	2311.60
572.55	2301.55
572.90	2290.83
573.26	2280.58
573.61	2269.77
573.96	2258.35
574.31	2246.24
574.67	2234.28
575.02	2221.60
575.37	2208.66
575.72	2195.43
576.08	2183.50
576.43	2171.10
576.78	2157.80
577.13	2144.00
577.49	2131.26
577.84	2119.34
578.19	2107.35
578.54	2094.78
578.90	2082.89
579.25	2070.98
579.60	2058.67
579.95	2045.56
580.30	2032.47
580.66	2018.62
581.01	2004.72
581.36	1990.95
581.71	1978.63
582.06	1965.75
582.42	1953.25
582.77	1940.74
583.12	1928.85
583.47	1916.49
583.82	1904.65
584.17	1892.85
584.53	1881.25
584.88	1868.25
585.23	1855.25
585.58	1840.82
585.93	1827.61
586.28	1814.07
586.63	1800.05
586.98	1785.95
587.34	1773.05
587.69	1759.89
588.04	1747.75
588.39	1736.00
588.74	1724.06
589.09	1711.54
589.44	1699.13
589.79	1687.22
590.14	1675.25
590.49	1663.28
590.84	1651.08
591.19	1638.71
591.54	1626.48
591.89	1614.21
592.25	1604.15
592.60	1592.89
592.95	1581.91
593.30	1569.87
593.65	1558.10
594.00	1546.02
594.35	1536.28
594.70	1524.28
595.05	1513.04
595.40	1501.09
595.75	1489.10
596.10	1477.69
596.45	1466.60
596.80	1455.70
597.15	1444.12
597.50	1432.42
597.85	1420.99
598.19	1409.46
598.54	1397.88
598.89	1386.79
599.24	1376.39
599.59	1364.73
599.94	1353.93
600.29	1343.45
600.64	1333.31
600.99	1322.45
601.34	1313.07
601.69	1301.87
602.04	1292.20
602.39	1282.34
602.74	1273.35
603.08	1264.10
603.43	1254.92
603.78	1245.47
604.13	1235.82
604.48	1226.21
604.83	1216.67
605.18	1207.04
605.53	1197.75
605.87	1188.67
606.22	1180.05
606.57	1170.68
606.92	1161.33
607.27	1152.32
607.62	1143.63
607.96	1135.06
608.31	1127.38
608.66	1119.04
609.01	1110.79
609.36	1102.34
609.70	1093.90
610.05	1085.11
610.40	1076.54
610.75	1067.70
611.10	1059.15
611.44	1050.72
611.79	1042.69
612.14	1034.86
612.49	1026.99
612.83	1019.25
613.18	1011.65
613.53	1003.81
613.88	996.02
614.22	988.47
614.57	980.95
614.92	973.10
615.27	965.71
615.61	958.11
615.96	950.57
616.31	942.95
616.65	935.98
617.00	928.66
617.35	921.49
617.70	914.36
618.04	907.43
618.39	900.54
618.74	894.25
619.08	887.29
619.43	880.26
619.78	873.33
620.12	866.52
620.47	859.67
620.82	852.50
621.16	845.62
621.51	839.44
621.85	832.79
622.20	826.05
622.55	819.43
622.89	812.90
623.24	806.41
623.59	800.07
623.93	793.83
624.28	787.90
624.62	782.15
624.97	776.60
625.32	770.87
625.66	764.95
626.01	758.66
626.35	753.28
626.70	747.95
627.04	742.64
627.39	736.85
627.73	731.61
628.08	726.61
628.43	721.25
628.77	715.72
629.12	710.53
629.46	705.89
629.81	701.13
630.15	696.29
630.50	691.52
630.84	686.70
631.19	681.73
631.53	677.21
631.88	672.10
632.22	667.08
632.57	662.54
632.91	657.96
633.26	653.57
633.60	648.92
633.95	644.16
634.29	639.43
634.64	635.14
634.98	630.26
635.32	625.83
635.67	621.85
636.01	617.53
636.36	613.25
636.70	609.20
637.05	605.14
637.39	601.15
637.73	597.06
638.08	593.06
638.42	588.97
638.77	584.64
639.11	580.38
639.45	576.07
639.80	571.76
640.14	567.72
640.49	563.71
640.83	559.83
641.17	556.29
641.52	552.63
641.86	549.07
642.20	546.08
642.55	542.51
642.89	538.87
643.23	535.56
643.58	532.48
643.92	528.93
644.26	525.32
644.61	522.00
644.95	518.55
645.29	515.14
645.64	512.09
645.98	509.07
646.32	506.10
646.66	503.17
647.01	500.28
647.35	497.44
647.69	494.59
648.04	491.89
648.38	489.13
648.72	486.28
649.06	483.27
649.41	480.07
649.75	477.10
650.09	474.35
650.43	471.49
650.78	468.50
651.12	465.71
651.46	463.00
651.80	460.23
652.14	457.64
652.49	455.17
652.83	452.49
653.17	449.97
653.51	447.23
653.85	444.84
654.20	442.34
654.54	439.84
654.88	437.39
655.22	435.07
655.56	432.51
655.90	430.19
656.25	428.05
656.59	425.91
656.93	423.87
657.27	421.72
657.61	419.30
657.95	417.16
658.29	414.90
658.64	412.82
658.98	410.59
659.32	408.41
659.66	406.21
660.00	404.15
660.34	402.05
660.68	400.10
661.02	398.02
661.36	396.07
661.70	394.13
662.05	392.17
662.39	390.20
662.73	388.49
663.07	386.87
663.41	385.03
663.75	383.11
664.09	381.16
664.43	379.24
664.77	377.74
665.11	375.86
665.45	374.27
665.79	372.53
666.13	370.89
666.47	369.25
666.81	367.68
667.15	365.91
667.49	364.41
667.83	363.18
668.17	361.66
668.51	360.12
668.85	358.78
669.19	357.63
669.53	356.02
669.87	354.38
670.21	352.73
670.55	351.30
670.89	350.21
671.23	348.97
671.57	347.62
671.91	346.20
672.25	344.95
672.58	343.78
672.92	342.40
673.26	341.15
673.60	339.93
673.94	338.79
674.28	337.76
674.62	336.60
674.96	335.23
675.30	334.11
675.64	333.08
675.97	331.75
676.31	330.32
676.65	329.16
676.99	328.30
677.33	327.08
677.67	325.94
678.01	324.55
678.34	323.39
678.68	322.41
679.02	321.32
679.36	320.25
679.70	319.13
680.04	318.22
680.37	317.19
680.71	316.19
681.05	315.14
681.39	314.20
681.73	313.22
682.06	312.37
682.40	311.46
682.74	310.54
683.08	309.81
683.42	308.87
683.75	308.11
684.09	307.20
684.43	306.50
684.77	305.63
685.10	304.80
685.44	304.03
685.78	303.20
686.12	302.38
686.45	301.57
686.79	300.78
687.13	300.16
687.46	299.50
687.80	298.90
688.14	298.11
688.48	297.28
688.81	296.51
689.15	295.79
689.49	295.05
689.82	294.35
690.16	293.53
690.50	292.93
690.83	292.16
691.17	291.28
691.51	290.53
691.84	289.94
692.18	289.33
692.52	288.58
692.85	287.91
693.19	287.51
693.52	286.93
693.86	286.30
694.20	285.55
694.53	284.95
694.87	284.25
695.21	283.64
695.54	283.17
695.88	282.54
696.21	281.79
696.55	281.22
696.88	280.55
697.22	279.94
697.56	279.45
697.89	278.90
698.23	278.52
698.56	278.02
698.90	277.58
699.23	277.03
699.57	276.55
699.90	276.09
700.24	275.36
700.58	274.92
700.91	274.49
701.25	274.41
701.58	274.20
701.92	273.87
702.25	273.46
702.59	272.91
702.92	272.55
703.26	272.26
703.59	271.88
703.93	271.91
704.26	271.55
704.60	271.15
704.93	270.76
705.26	270.21
705.60	269.87
705.93	269.30
706.27	269.02
706.60	268.76
706.94	268.50
707.27	268.28
707.61	267.93
707.94	267.60
708.27	266.79
708.61	266.17
708.94	265.64
709.28	265.31
709.61	264.94
709.94	264.60
710.28	264.18
710.61	263.79
710.95	263.00
711.28	263.00
711.61	262.56
711.95	262.30
712.28	262.03
712.61	261.66
712.95	261.69
713.28	261.58
713.61	261.15
713.95	260.70
714.28	260.29
714.61	259.87
714.95	259.46
715.28	259.06
715.61	258.70
715.95	258.41
716.28	257.99
716.61	257.73
716.95	257.32
717.28	256.99
717.61	256.62
717.94	256.29
718.28	255.64
718.61	255.33
718.94	254.95
719.27	254.66
719.61	254.43
719.94	254.03
720.27	253.44
720.60	253.17
720.94	252.94
721.27	252.73
721.60	252.58
721.93	252.34
722.27	252.32
722.60	252.15
722.93	251.95
723.26	251.77
723.59	251.45
723.93	251.30
724.26	251.14
724.59	251.03
724.92	250.89
725.25	250.80
725.59	250.55
725.92	250.42
726.25	250.20
726.58	249.99
726.91	249.68
727.24	249.55
727.57	249.30
727.91	248.97
728.24	248.74
728.57	248.41
728.90	248.25
729.23	247.92
729.56	247.93
729.89	247.68
730.22	247.48
730.55	247.37
730.89	247.12
731.22	246.87
731.55	246.62
731.88	246.42
732.21	246.18
732.54	246.06
732.87	245.88
733.20	245.69
733.53	245.51
733.86	245.43
734.19	245.21
734.52	245.14
734.85	245.39
735.18	245.15
735.51	245.28
735.84	245.06
736.17	244.98
736.50	244.48
736.83	244.97
737.16	244.83
737.49	244.73
737.82	244.60
738.15	244.57
738.48	244.44
738.81	244.34
739.14	244.10
739.47	243.89
739.80	243.69
740.13	243.54
740.46	243.31
740.79	243.09
741.12	242.96
741.45	242.73
741.78	242.33
742.11	242.40
742.44	242.05
742.77	242.08
743.10	241.85
743.43	241.80
743.75	241.08
744.08	241.56
744.41	241.33
744.74	241.24
745.07	241.00
745.40	240.91
745.73	240.87
746.06	240.78
746.39	240.78
746.71	240.68
747.04	240.56
747.37	240.49
747.70	240.42
748.03	240.38
748.36	240.30
748.68	240.13
749.01	239.88
749.34	239.83
749.67	239.66
750.00	239.65
750.33	239.87
750.65	239.88
750.98	239.18
751.31	239.14
751.64	238.99
751.97	239.10
752.29	239.03
752.62	238.80
752.95	238.70
753.28	238.50
753.60	238.32
753.93	238.27
754.26	238.25
754.59	238.06
754.91	237.90
755.24	237.80
755.57	237.74
755.90	237.61
756.22	237.43
756.55	237.37
756.88	237.27
757.20	236.84
757.53	236.58
757.86	236.51
758.19	236.45
758.51	236.40
758.84	236.10
759.17	235.92
759.49	235.85
759.82	236.00
760.15	235.91
760.47	235.91
760.80	235.73
761.13	235.67
761.45	235.56
761.78	235.45
762.11	235.39
762.43	235.31
762.76	235.19
763.08	235.27
763.41	235.22
763.74	235.12
764.06	235.14
764.39	235.05
764.71	234.91
765.04	234.78
765.37	234.68
765.69	234.59
766.02	234.52
766.34	234.44
766.67	234.16
767.00	234.22
767.32	234.35
767.65	234.60
767.97	234.49
768.30	234.49
768.62	234.48
768.95	234.39
769.27	234.19
769.60	234.27
769.92	234.02
770.25	233.85
770.57	233.65
770.90	233.59
771.22	233.54
771.55	233.49
771.87	233.43
772.20	233.33
772.52	233.71
772.85	234.26
773.17	234.22
773.50	234.15
773.82	234.00
774.15	233.73
774.47	233.34
774.80	233.27
775.12	233.10
775.45	233.03
775.77	233.00
776.09	233.04
776.42	232.96
776.74	233.03
777.07	232.99
777.39	233.06
777.72	232.92
778.04	232.91
778.36	232.87
778.69	232.87
779.01	232.86
779.33	232.45
779.66	231.90
779.98	231.76
780.31	231.72
780.63	231.86
780.95	231.93
781.28	231.86
781.60	231.75
781.92	231.75
782.25	231.65
782.57	231.59
782.89	231.46
783.22	231.42
783.54	231.32
783.86	231.26
784.19	231.15
784.51	231.30
784.83	231.29
785.16	231.21
785.48	231.17
785.80	231.19
786.12	231.17
786.45	231.13
786.77	231.13
787.09	231.13
787.42	230.90
787.74	230.80
788.06	230.79
788.38	230.65
788.71	230.57
789.03	230.59
789.35	230.64
789.67	230.59
789.99	230.58
790.32	230.48
790.64	230.53
790.96	230.85
791.28	230.66
791.61	230.51
791.93	230.54
792.25	230.43
792.57	230.72
792.89	230.59
793.21	230.55
793.54	230.49
793.86	230.29
794.18	230.34
794.50	230.25
794.82	230.31
795.14	230.48
795.47	230.57
795.79	230.55
796.11	230.43
796.43	230.38
796.75	230.31
797.07	230.32
797.39	230.21
797.71	229.89
798.04	229.85
798.36	229.91
798.68	229.79
799.00	229.83
799.32	229.55
799.64	229.57
799.96	229.53
800.28	229.60
800.60	229.58
800.92	229.62
801.24	229.60
801.56	229.59
801.89	229.48
802.21	229.52
802.53	229.43
802.85	229.46
803.17	229.68
803.49	229.51
803.81	229.40
804.13	229.39
804.45	229.26
804.77	229.27
805.09	229.21
805.41	229.20
805.73	229.10
806.05	229.00
806.37	228.98
806.69	228.93
807.01	228.87
807.33	228.95
807.65	228.75
807.97	228.88
808.28	228.80
808.60	228.73
808.92	228.57
809.24	228.84
809.56	228.72
809.88	228.53
810.20	228.61
810.52	228.74
810.84	228.58
811.16	228.51
811.48	228.45
811.80	228.63
812.12	228.54
812.43	228.58
812.75	228.48
813.07	228.45
813.39	228.46
813.71	228.35
814.03	228.22
814.35	228.23
814.67	228.05
814.98	228.04
815.30	228.11
815.62	228.09
815.94	227.75
816.26	228.00
816.58	227.89
816.89	227.90
817.21	227.83
817.53	227.94
817.85	228.05
818.17	228.08
818.48	227.81
818.80	228.00
819.12	227.92
819.44	227.87
819.76	227.76
820.07	227.77
820.39	227.77
820.71	227.86
821.03	227.85
821.34	227.83
821.66	227.83
821.98	227.87
822.30	227.81
822.61	228.11
822.93	227.88
823.25	227.95
823.57	227.89
823.88	228.01
824.20	228.02
824.52	228.11
824.83	228.06
825.15	228.11
825.47	228.00
825.79	228.09
826.10	228.14
826.42	228.21
826.74	228.19
827.05	228.16
827.37	228.16
827.69	228.11
828.00	228.15
828.32	228.24
828.64	228.03
828.95	228.38
829.27	228.29
829.58	228.28
829.90	228.34
830.22	228.39
830.53	228.23
830.85	228.13
831.17	227.97
831.48	227.95
831.80	227.92
832.11	227.99
832.43	227.95
832.75	227.97
833.06	228.17
833.38	228.08
833.69	228.08
834.01	228.08
834.32	228.11
834.64	228.07
834.96	228.00
835.27	228.12
835.59	227.91
835.90	227.90
836.22	227.92
836.53	227.80
836.85	227.79
837.16	228.28
837.48	228.29
837.79	228.47
838.11	228.45
838.42	228.50
838.74	228.48
839.05	228.38
839.37	228.36
839.68	228.12
840.00	228.15
840.31	228.25
840.63	228.26
840.94	228.25
841.26	228.16
841.57	228.13
841.88	228.16
842.20	228.11
842.51	227.93
842.83	227.93
843.14	228.44
843.46	228.47
843.77	228.14
844.08	228.14
844.40	227.96
844.71	227.93
845.03	227.89
845.34	227.82
845.65	227.84
845.97	227.81
846.28	227.82
846.60	227.85
846.91	227.74
847.22	227.65
847.54	227.75
847.85	227.76
848.16	227.75
848.48	227.64
848.79	227.86
849.10	227.90
849.42	227.93
849.73	227.43
850.04	227.30
850.36	227.16
850.67	227.20
850.98	227.19
851.30	227.24
851.61	227.24
851.92	227.21
852.23	227.34
852.55	227.34
852.86	227.27
853.17	227.36
853.49	227.51
853.80	227.60
854.11	227.58
854.42	227.68
854.74	227.60
855.05	227.60
855.36	227.32
855.67	227.34
855.99	227.29
856.30	227.86
856.61	227.91
856.92	227.94
857.23	227.93
857.55	227.95
857.86	227.90
858.17	227.92
858.48	227.88
858.79	227.79
859.11	227.84
859.42	227.97
859.73	227.74
860.04	227.61
860.35	227.53
860.66	227.38
860.98	227.35
861.29	227.38
861.60	227.41
861.91	227.51
862.22	227.46
862.53	227.36
862.84	226.78
863.16	226.90
863.47	226.79
863.78	226.81
864.09	226.78
864.40	226.82
864.71	226.80
865.02	226.89
865.33	226.85
865.64	226.77
865.95	226.60
866.27	226.97
866.58	226.96
866.89	227.00
867.20	226.94
867.51	226.91
867.82	226.94
868.13	226.98
868.44	226.85
868.75	226.94
869.06	227.01
869.37	227.05
869.68	226.90
869.99	226.98
870.30	227.04
870.61	227.13
870.92	227.07
871.23	227.08
871.54	227.08
871.85	227.21
872.16	227.29
872.47	227.35
872.78	227.07
873.09	227.18
873.40	227.15
873.71	227.30
874.02	227.28
874.33	227.24
874.64	227.14
874.95	227.26
875.26	227.14
875.56	227.11
875.87	227.07
876.18	227.06
876.49	227.57
876.80	227.50
877.11	227.40
877.42	227.42
877.73	227.43
878.04	227.40
878.35	227.34
878.66	227.34
878.96	227.31
879.27	227.32
879.58	227.27
879.89	227.25
880.20	227.34
880.51	227.36
880.82	227.37
881.12	227.42
881.43	227.29
881.74	227.27
882.05	227.26
882.36	227.25
882.67	227.30
882.97	226.79
883.28	226.72
883.59	226.77
883.90	226.85
884.21	226.95
884.51	227.02
884.82	226.95
885.13	226.93
885.44	226.97
885.74	226.97
886.05	226.96
886.36	226.99
886.67	226.82
886.98	227.01
887.28	227.03
887.59	227.03
887.90	227.15
888.20	227.12
888.51	227.24
888.82	227.20
889.13	227.26
889.43	227.61
889.74	227.57
890.05	227.54
890.35	227.45
890.66	227.38
890.97	227.22
891.28	227.24
891.58	227.24
891.89	227.15
892.20	227.09
892.50	227.05
892.81	226.95
893.12	226.91
893.42	226.74
893.73	226.79
894.04	226.76
894.34	226.75
894.65	226.76
894.95	226.63
895.26	226.68
895.57	226.83
895.87	226.39
896.18	226.52
896.48	226.54
896.79	226.54
897.10	226.50
897.40	226.55
897.71	226.64
898.01	226.55
898.32	226.69
898.63	226.71
898.93	226.75
899.24	226.80
899.54	226.74
899.85	226.59
900.15	226.57
900.46	226.54
900.76	226.47
901.07	226.44
901.38	226.41
901.68	226.44
901.99	226.13
902.29	226.15
902.60	226.09
902.90	226.07
903.21	226.07
903.51	226.07
903.82	226.20
904.12	226.12
904.43	226.18
904.73	226.15
905.03	226.14
905.34	226.58
905.64	226.54
905.95	226.56
906.25	226.69
906.56	226.63
906.86	226.66
907.17	226.67
907.47	226.70
907.77	226.71
908.08	226.66
908.38	226.77
908.69	226.84
908.99	226.93
909.30	226.94
909.60	226.98
909.90	226.99
910.21	226.87
910.51	226.84
910.81	226.81
911.12	226.82
911.42	226.85
911.73	226.34
912.03	226.46
912.33	226.57
912.64	226.56
912.94	226.49
913.24	226.43
913.55	226.40
913.85	226.42
914.15	226.53
914.46	226.54
914.76	226.50
915.06	226.46
915.37	226.32
915.67	226.24
915.97	226.15
916.27	226.02
916.58	225.96
916.88	225.92
917.18	225.92
917.49	226.24
917.79	226.23
918.09	226.31
918.39	226.37
918.70	226.31
919.00	226.28
919.30	226.53
919.60	226.48
919.91	226.42
920.21	226.48
920.51	226.33
920.81	226.30
921.12	226.32
921.42	226.26
921.72	226.27
922.02	226.34
922.32	226.50
922.63	226.56
922.93	226.87
923.23	226.93
923.53	226.85
923.83	226.50
924.13	226.53
924.44	226.49
924.74	226.58
925.04	226.73
925.34	226.74
925.64	226.56
925.94	226.59
926.24	226.85
926.55	226.75
926.85	226.90
927.15	227.01
927.45	227.05
927.75	227.04
928.05	227.09
928.35	227.06
928.65	227.15
928.95	227.18
929.26	226.94
929.56	227.02
929.86	227.12
930.16	227.16
930.46	227.14
930.76	227.20
931.06	227.04
931.36	226.93
931.66	226.91
931.96	226.93
932.26	227.05
932.56	226.87
932.86	226.85
933.16	226.81
933.46	226.68
933.76	226.57
934.06	226.71
934.36	226.86
934.66	226.90
934.96	226.71
935.26	226.76
935.56	226.83
935.86	226.72
936.16	226.60
936.46	226.49
936.76	226.46
937.06	226.40
937.36	226.37
937.66	226.43
937.96	226.47
938.26	226.41
938.56	226.28
938.86	226.33
939.16	226.51
939.46	226.55
939.76	226.63
940.06	226.64
940.35	226.54
940.65	226.33
940.95	226.34
941.25	226.21
941.55	226.12
941.85	226.08
942.15	226.17
942.45	226.37
942.75	226.31
943.04	226.32
943.34	226.34
943.64	226.29
943.94	226.15
944.24	226.15
944.54	226.11
944.84	226.17
945.13	226.07
945.43	225.93
945.73	225.89
946.03	225.77
946.33	225.77
946.62	225.79
946.92	225.86
947.22	225.85
947.52	225.95
947.82	225.97
948.11	225.91
948.41	225.84
948.71	225.73
949.01	225.78
949.31	225.74
949.60	225.76
949.90	225.81
950.20	225.85
950.50	225.85
950.79	225.88
951.09	225.93
951.39	225.96
951.69	225.94
951.98	225.98
952.28	226.03
952.58	226.03
952.87	225.96
953.17	225.96
953.47	225.89
953.76	225.92
954.06	225.80
954.36	225.73
954.66	225.74
954.95	225.82
955.25	225.98
955.55	226.03
955.84	225.92
956.14	226.04
956.44	226.07
956.73	225.97
957.03	226.00
957.32	226.02
957.62	225.99
957.92	226.10
958.21	226.04
958.51	226.58
958.81	226.60
959.10	226.69
959.40	226.73
959.69	226.77
959.99	226.81
960.29	226.97
960.58	226.95
960.88	227.15
961.17	227.08
961.47	227.04
961.76	227.05
962.06	227.23
962.36	227.11
962.65	227.13
962.95	227.21
963.24	227.14
963.54	227.14
963.83	227.15
964.13	227.12
964.42	227.04
964.72	226.63
965.01	226.66
965.31	226.58
965.60	226.56
965.90	226.90
966.19	226.81
966.49	226.78
966.78	226.82
967.08	226.75
967.37	226.73
967.67	226.68
967.96	226.70
968.26	226.59
968.55	226.66
968.85	226.66
969.14	226.65
969.43	226.69
969.73	226.65
970.02	226.73
970.32	226.69
970.61	226.61
970.91	226.54
971.20	226.46
971.49	226.46
971.79	226.46
972.08	226.03
972.38	226.10
972.67	226.02
972.96	226.13
973.26	225.94
973.55	226.13
973.85	226.07
974.14	226.07
974.43	226.11
974.73	226.03
975.02	225.97
975.31	225.92
975.61	225.92
975.90	225.87
976.19	225.75
976.49	225.78
976.78	225.87
977.07	225.84
977.37	225.86
977.66	225.87
977.95	225.84
978.24	225.92
978.54	226.01
978.83	226.01
979.12	225.93
979.42	226.00
979.71	225.81
980.00	225.81
980.29	225.78
980.59	225.63
980.88	225.69
981.17	225.68
981.46	225.69
981.76	225.70
982.05	225.86
982.34	225.91
982.63	225.93
982.93	225.90
983.22	226.05
983.51	226.12
983.80	226.20
984.09	226.18
984.39	226.11
984.68	226.00
984.97	225.97
985.26	225.99
985.55	226.05
985.85	226.02
986.14	226.14
986.43	226.16
986.72	226.16
987.01	226.08
987.30	226.07
987.59	226.01
987.89	226.01
988.18	225.79
988.47	225.75
988.76	225.70
989.05	225.69
989.34	225.62
989.63	225.70
989.92	225.68
990.22	225.64
990.51	225.68
990.80	225.64
991.09	225.73
991.38	225.69
991.67	225.55
991.96	225.54
992.25	225.51
992.54	225.48
992.83	225.45
993.12	225.45
993.41	225.51
993.70	225.75
993.99	225.81
994.28	225.91
994.58	225.99
994.87	225.98
995.16	226.05
995.45	226.02
995.74	225.81
996.03	225.81
996.32	225.96
996.61	226.08
996.90	226.07
997.19	226.08
997.48	226.12
997.77	226.19
998.06	226.17
998.34	226.11
998.63	226.14
998.92	226.21
999.21	226.26
999.50	226.27
999.79	226.14
1000.08	226.20
1000.37	226.22
1000.66	226.17
1000.95	226.25
1001.24	226.24
1001.53	226.33
1001.82	226.37
1002.11	226.29
1002.40	226.33
1002.68	226.45
1002.97	226.88
1003.26	226.81
1003.55	226.82
1003.84	226.80
1004.13	227.07
1004.42	227.03
1004.71	227.01
1004.99	226.99
1005.28	227.16
1005.57	227.10
1005.86	227.03
1006.15	226.99
1006.44	226.93
1006.72	227.00
1007.01	226.96
1007.30	227.03
1007.59	226.91
1007.88	226.88
1008.17	227.00
1008.45	226.91
1008.74	226.69
1009.03	226.45
1009.32	226.49
1009.60	226.44
1009.89	226.44
1010.18	226.15
1010.47	226.11
1010.76	226.07
1011.04	226.07
1011.33	225.98
1011.62	226.06
1011.91	226.05
1012.19	226.02
1012.48	226.05
1012.77	226.06
1013.05	226.26
1013.34	226.21
1013.63	226.18
1013.92	226.23
1014.20	226.12
1014.49	226.03
1014.78	226.08
1015.06	225.86
1015.35	225.80
1015.64	225.87
1015.92	225.96
1016.21	226.02
1016.50	226.06
1016.78	226.14
1017.07	226.14
1017.36	226.04
1017.64	225.87
1017.93	225.95
1018.22	225.88
1018.50	225.83
1018.79	225.78
1019.08	225.56
1019.36	225.54
1019.65	225.54
1019.93	225.67
1020.22	225.78
1020.51	226.11
1020.79	226.07
1021.08	224.50
1021.36	224.90
1021.65	226.30
1021.94	225.75
1022.22	225.75
1022.51	225.30
1022.79	228.70
1023.08	227.35
1023.36	232.15
1023.65	225.45
>>>>>End Processed Spectral Data<<<<<
