SpectraSuite Data File
++++++++++++++++++++++++++++++++++++
Date: Wed Sep 04 17:52:03 EDT 2013
User: lab3
Dark Spectrum Present: Yes
Reference Spectrum Present: No
Number of Sampled Component Spectra: 1
Spectrometers: USB2E7196
Integration Time (usec): 170000 (USB2E7196)
Spectra Averaged: 20 (USB2E7196)
Boxcar Smoothing: 10 (USB2E7196)
Correct for Electrical Dark: No (USB2E7196)
Strobe/Lamp Enabled: No (USB2E7196)
Correct for Detector Non-linearity: No (USB2E7196)
Correct for Stray Light: No (USB2E7196)
Number of Pixels in Processed Spectrum: 2048
>>>>>Begin Processed Spectral Data<<<<<
339.09	0.00
339.48	212.90
339.86	214.65
340.24	214.25
340.63	217.85
341.01	226.05
341.39	220.50
341.78	221.00
342.16	223.55
342.54	224.70
342.93	212.12
343.31	222.78
343.69	223.26
344.07	223.75
344.46	224.31
344.84	224.69
345.22	224.64
345.60	224.86
345.99	225.13
346.37	225.24
346.75	225.22
347.13	225.25
347.52	225.38
347.90	225.60
348.28	225.62
348.66	225.74
349.05	225.58
349.43	225.71
349.81	225.81
350.19	225.83
350.57	225.93
350.96	226.05
351.34	226.21
351.72	226.35
352.10	226.39
352.48	226.47
352.87	226.50
353.25	226.56
353.63	226.60
354.01	226.57
354.39	226.63
354.77	226.73
355.15	226.96
355.54	227.00
355.92	226.90
356.30	226.95
356.68	227.35
357.06	227.46
357.44	227.42
357.82	227.51
358.20	227.94
358.58	227.94
358.97	227.94
359.35	228.09
359.73	228.25
360.11	228.31
360.49	228.34
360.87	228.38
361.25	228.49
361.63	228.68
362.01	228.80
362.39	228.80
362.77	228.88
363.15	228.92
363.53	228.89
363.91	229.00
364.29	229.06
364.67	228.58
365.05	228.71
365.43	228.83
365.81	228.90
366.19	228.76
366.57	229.01
366.95	229.04
367.33	228.90
367.71	228.90
368.09	229.00
368.47	229.00
368.85	229.00
369.23	229.13
369.61	229.04
369.99	229.19
370.37	229.27
370.75	229.52
371.13	229.37
371.51	229.33
371.89	229.30
372.27	229.27
372.65	229.35
373.03	229.23
373.41	229.16
373.78	229.05
374.16	228.77
374.54	228.58
374.92	228.58
375.30	228.49
375.68	228.37
376.06	228.30
376.44	228.26
376.82	228.27
377.19	228.15
377.57	228.04
377.95	227.81
378.33	227.72
378.71	227.38
379.09	227.38
379.47	227.42
379.84	227.29
380.22	227.20
380.60	227.02
380.98	227.04
381.36	226.92
381.73	226.74
382.11	226.79
382.49	226.72
382.87	226.48
383.25	226.53
383.62	227.01
384.00	226.85
384.38	226.79
384.76	226.74
385.13	226.84
385.51	226.84
385.89	226.65
386.27	226.65
386.64	226.64
387.02	226.56
387.40	226.40
387.78	226.41
388.15	226.40
388.53	226.38
388.91	226.21
389.29	226.14
389.66	226.22
390.04	226.16
390.42	226.22
390.79	226.37
391.17	226.31
391.55	225.76
391.92	225.78
392.30	225.81
392.68	225.77
393.05	225.80
393.43	225.83
393.81	225.94
394.18	225.87
394.56	225.88
394.94	226.00
395.31	226.00
395.69	226.14
396.06	226.25
396.44	226.30
396.82	226.35
397.19	226.69
397.57	226.70
397.95	226.86
398.32	226.83
398.70	226.90
399.07	227.11
399.45	227.19
399.82	227.28
400.20	227.35
400.58	227.43
400.95	227.21
401.33	227.40
401.70	227.87
402.08	227.98
402.45	228.17
402.83	228.45
403.20	228.69
403.58	228.80
403.95	229.02
404.33	229.27
404.71	229.47
405.08	229.85
405.46	230.05
405.83	230.25
406.21	230.49
406.58	230.78
406.96	230.99
407.33	231.38
407.70	231.82
408.08	232.50
408.45	233.00
408.83	233.53
409.20	233.81
409.58	233.92
409.95	234.55
410.33	235.09
410.70	235.45
411.08	236.06
411.45	236.72
411.82	237.24
412.20	237.99
412.57	239.05
412.95	239.43
413.32	240.38
413.69	241.27
414.07	242.19
414.44	243.18
414.82	244.21
415.19	245.42
415.56	246.54
415.94	247.56
416.31	248.85
416.68	250.29
417.06	252.03
417.43	253.67
417.81	255.40
418.18	257.14
418.55	259.08
418.93	261.07
419.30	263.17
419.67	265.40
420.04	267.60
420.42	269.81
420.79	272.88
421.16	275.57
421.54	278.54
421.91	281.49
422.28	284.55
422.66	287.88
423.03	291.16
423.40	294.58
423.77	298.04
424.15	301.68
424.52	305.45
424.89	309.46
425.26	313.46
425.64	317.24
426.01	321.43
426.38	325.71
426.75	330.23
427.13	334.80
427.50	339.60
427.87	344.48
428.24	349.40
428.61	353.86
428.99	359.20
429.36	364.61
429.73	370.22
430.10	375.67
430.47	381.28
430.85	386.82
431.22	392.91
431.59	399.75
431.96	406.04
432.33	412.97
432.70	419.45
433.08	427.27
433.45	434.63
433.82	441.88
434.19	450.04
434.56	458.11
434.93	465.62
435.30	473.29
435.68	482.00
436.05	490.45
436.42	498.76
436.79	506.40
437.16	514.71
437.53	523.24
437.90	531.95
438.27	540.47
438.64	549.49
439.01	557.69
439.38	564.76
439.75	571.83
440.13	579.72
440.50	587.36
440.87	593.32
441.24	599.46
441.61	606.53
441.98	611.77
442.35	617.57
442.72	623.71
443.09	629.47
443.46	632.83
443.83	635.04
444.20	636.98
444.57	639.59
444.94	640.63
445.31	641.90
445.68	643.25
446.05	643.37
446.42	641.96
446.79	640.60
447.16	639.05
447.53	637.92
447.90	634.23
448.27	630.58
448.64	625.81
449.01	622.43
449.37	616.25
449.74	610.11
450.11	603.28
450.48	595.40
450.85	587.50
451.22	580.65
451.59	574.18
451.96	568.03
452.33	559.98
452.70	552.68
453.07	544.09
453.43	534.98
453.80	526.66
454.17	518.73
454.54	511.12
454.91	502.89
455.28	494.85
455.65	487.57
456.02	480.80
456.38	474.47
456.75	466.59
457.12	460.15
457.49	453.87
457.86	447.40
458.23	442.37
458.59	436.65
458.96	430.86
459.33	425.70
459.70	420.58
460.07	416.50
460.43	411.92
460.80	407.55
461.17	403.80
461.54	399.83
461.91	396.00
462.27	392.08
462.64	388.94
463.01	385.28
463.38	381.96
463.74	377.94
464.11	374.89
464.48	372.33
464.85	369.49
465.21	367.37
465.58	365.20
465.95	362.36
466.32	360.15
466.68	357.95
467.05	355.71
467.42	353.46
467.78	351.19
468.15	349.00
468.52	347.42
468.88	345.29
469.25	343.34
469.62	341.85
469.98	340.21
470.35	338.65
470.72	337.28
471.08	335.56
471.45	334.28
471.82	333.09
472.18	331.64
472.55	330.57
472.92	329.20
473.28	328.07
473.65	327.02
474.02	325.98
474.38	325.12
474.75	324.45
475.11	323.58
475.48	322.96
475.85	322.39
476.21	321.73
476.58	321.29
476.94	320.94
477.31	320.50
477.67	320.11
478.04	319.81
478.41	319.54
478.77	319.74
479.14	319.50
479.50	319.35
479.87	319.44
480.23	319.47
480.60	319.43
480.96	319.38
481.33	319.65
481.69	319.80
482.06	319.95
482.42	320.17
482.79	320.61
483.15	321.09
483.52	321.67
483.88	322.20
484.25	322.65
484.61	323.27
484.98	323.98
485.34	325.00
485.71	325.95
486.07	326.94
486.44	327.61
486.80	328.81
487.17	329.97
487.53	331.29
487.90	332.66
488.26	334.32
488.62	336.03
488.99	337.66
489.35	339.47
489.72	341.34
490.08	343.23
490.44	345.12
490.81	347.23
491.17	349.41
491.54	351.86
491.90	354.45
492.26	357.18
492.63	360.07
492.99	362.82
493.36	365.80
493.72	369.19
494.08	372.67
494.45	376.22
494.81	380.00
495.17	383.89
495.54	388.15
495.90	392.38
496.26	396.71
496.63	401.34
496.99	406.16
497.35	411.35
497.72	416.70
498.08	422.17
498.44	427.95
498.80	433.98
499.17	440.06
499.53	446.40
499.89	453.07
500.26	459.70
500.62	466.68
500.98	474.22
501.34	481.50
501.71	489.09
502.07	497.00
502.43	505.17
502.79	513.44
503.16	521.95
503.52	530.82
503.88	540.17
504.24	549.60
504.60	559.59
504.97	569.78
505.33	580.15
505.69	591.17
506.05	602.05
506.41	613.28
506.78	624.90
507.14	636.79
507.50	649.04
507.86	661.72
508.22	674.52
508.59	687.41
508.95	701.14
509.31	715.25
509.67	729.51
510.03	743.79
510.39	758.59
510.75	773.60
511.12	788.86
511.48	804.64
511.84	820.47
512.20	836.43
512.56	852.67
512.92	869.59
513.28	886.48
513.64	903.76
514.00	921.16
514.37	938.62
514.73	956.72
515.09	975.05
515.45	993.32
515.81	1011.84
516.17	1030.57
516.53	1048.88
516.89	1067.50
517.25	1086.73
517.61	1106.74
517.97	1126.78
518.33	1146.76
518.69	1167.12
519.05	1187.31
519.41	1207.93
519.77	1228.83
520.13	1249.39
520.49	1269.93
520.85	1292.07
521.21	1313.15
521.57	1334.43
521.93	1355.22
522.29	1376.46
522.65	1396.89
523.01	1417.89
523.37	1438.39
523.73	1459.49
524.09	1480.25
524.45	1500.89
524.81	1521.93
525.17	1542.66
525.53	1563.29
525.89	1584.32
526.25	1604.72
526.61	1624.95
526.97	1645.67
527.33	1666.63
527.68	1688.35
528.04	1709.48
528.40	1728.68
528.76	1749.62
529.12	1770.20
529.48	1791.14
529.84	1811.07
530.20	1832.12
530.56	1852.69
530.91	1873.73
531.27	1894.05
531.63	1914.60
531.99	1934.95
532.35	1954.67
532.71	1974.43
533.07	1994.79
533.42	2014.13
533.78	2034.10
534.14	2053.95
534.50	2073.19
534.86	2092.22
535.21	2109.36
535.57	2127.55
535.93	2145.40
536.29	2162.96
536.65	2180.98
537.00	2198.39
537.36	2215.92
537.72	2232.03
538.08	2248.84
538.44	2265.23
538.79	2281.27
539.15	2297.39
539.51	2313.70
539.87	2328.70
540.22	2342.68
540.58	2356.84
540.94	2370.29
541.29	2382.90
541.65	2395.26
542.01	2407.62
542.37	2418.07
542.72	2429.39
543.08	2440.06
543.44	2451.53
543.79	2461.23
544.15	2470.69
544.51	2480.50
544.87	2489.81
545.22	2498.90
545.58	2506.62
545.94	2513.69
546.29	2520.07
546.65	2526.35
547.01	2531.73
547.36	2537.26
547.72	2542.79
548.07	2546.27
548.43	2551.43
548.79	2555.79
549.14	2559.78
549.50	2563.32
549.86	2567.50
550.21	2571.03
550.57	2574.26
550.92	2575.55
551.28	2576.92
551.64	2578.87
551.99	2580.50
552.35	2581.86
552.70	2583.67
553.06	2585.71
553.41	2586.95
553.77	2588.74
554.13	2590.27
554.48	2591.70
554.84	2592.73
555.19	2593.82
555.55	2595.83
555.90	2594.97
556.26	2594.19
556.61	2592.72
556.97	2590.83
557.32	2589.78
557.68	2588.44
558.03	2586.97
558.39	2585.53
558.74	2584.45
559.10	2581.64
559.45	2577.73
559.81	2573.16
560.16	2567.72
560.52	2562.34
560.87	2557.72
561.23	2552.38
561.58	2546.53
561.94	2539.54
562.29	2532.62
562.64	2525.31
563.00	2517.37
563.35	2510.57
563.71	2503.95
564.06	2497.50
564.42	2490.76
564.77	2483.65
565.12	2476.24
565.48	2468.33
565.83	2460.42
566.19	2452.41
566.54	2444.35
566.89	2436.82
567.25	2429.25
567.60	2422.20
567.96	2414.50
568.31	2406.78
568.66	2398.16
569.02	2389.32
569.37	2381.08
569.72	2373.27
570.08	2364.28
570.43	2354.41
570.78	2345.57
571.14	2336.11
571.49	2326.02
571.84	2316.59
572.20	2306.09
572.55	2295.94
572.90	2285.05
573.26	2274.70
573.61	2263.86
573.96	2252.68
574.31	2240.69
574.67	2228.66
575.02	2215.97
575.37	2203.66
575.72	2190.45
576.08	2178.30
576.43	2165.63
576.78	2152.55
577.13	2138.60
577.49	2125.81
577.84	2114.35
578.19	2102.23
578.54	2089.80
578.90	2077.97
579.25	2065.71
579.60	2053.37
579.95	2040.60
580.30	2027.71
580.66	2014.44
581.01	2000.96
581.36	1986.88
581.71	1974.35
582.06	1961.65
582.42	1949.29
582.77	1936.69
583.12	1924.72
583.47	1912.53
583.82	1900.34
584.17	1888.20
584.53	1876.83
584.88	1864.01
585.23	1850.41
585.58	1836.45
585.93	1822.89
586.28	1809.51
586.63	1795.50
586.98	1781.11
587.34	1767.91
587.69	1754.74
588.04	1742.42
588.39	1730.35
588.74	1718.60
589.09	1706.68
589.44	1694.25
589.79	1682.21
590.14	1670.04
590.49	1657.85
590.84	1645.85
591.19	1634.02
591.54	1622.31
591.89	1610.00
592.25	1599.97
592.60	1588.92
592.95	1577.51
593.30	1565.96
593.65	1554.21
594.00	1542.31
594.35	1532.72
594.70	1520.89
595.05	1509.68
595.40	1497.45
595.75	1485.83
596.10	1474.67
596.45	1463.00
596.80	1452.25
597.15	1440.97
597.50	1429.52
597.85	1418.40
598.19	1406.77
598.54	1395.09
598.89	1383.63
599.24	1373.34
599.59	1361.94
599.94	1351.20
600.29	1341.11
600.64	1331.08
600.99	1320.51
601.34	1310.91
601.69	1299.70
602.04	1290.03
602.39	1280.20
602.74	1271.14
603.08	1261.84
603.43	1252.53
603.78	1242.97
604.13	1233.28
604.48	1223.58
604.83	1213.93
605.18	1204.09
605.53	1194.73
605.87	1185.75
606.22	1177.32
606.57	1167.97
606.92	1158.52
607.27	1149.72
607.62	1140.93
607.96	1132.23
608.31	1124.36
608.66	1116.21
609.01	1107.93
609.36	1099.58
609.70	1091.27
610.05	1082.80
610.40	1074.21
610.75	1065.54
611.10	1057.41
611.44	1048.94
611.79	1040.94
612.14	1033.20
612.49	1025.73
612.83	1018.20
613.18	1010.58
613.53	1002.99
613.88	995.13
614.22	987.55
614.57	979.60
614.92	971.56
615.27	964.02
615.61	956.19
615.96	948.53
616.31	940.89
616.65	933.84
617.00	926.45
617.35	919.34
617.70	912.22
618.04	905.21
618.39	898.37
618.74	892.04
619.08	885.18
619.43	877.99
619.78	870.80
620.12	863.68
620.47	856.86
620.82	849.62
621.16	842.90
621.51	836.65
621.85	830.44
622.20	823.99
622.55	817.51
622.89	811.30
623.24	805.10
623.59	798.87
623.93	792.52
624.28	786.50
624.62	781.00
624.97	775.38
625.32	769.61
625.66	763.69
626.01	757.75
626.35	752.08
626.70	746.75
627.04	741.46
627.39	736.03
627.73	730.90
628.08	725.78
628.43	720.36
628.77	714.77
629.12	709.42
629.46	704.83
629.81	700.13
630.15	695.27
630.50	690.30
630.84	685.74
631.19	680.88
631.53	676.25
631.88	670.96
632.22	665.94
632.57	661.64
632.91	656.89
633.26	652.38
633.60	647.85
633.95	643.17
634.29	638.50
634.64	634.08
634.98	629.29
635.32	624.98
635.67	621.00
636.01	616.82
636.36	612.69
636.70	608.46
637.05	604.17
637.39	600.01
637.73	595.99
638.08	591.86
638.42	587.75
638.77	583.52
639.11	579.15
639.45	574.85
639.80	570.40
640.14	566.38
640.49	562.44
640.83	558.64
641.17	554.99
641.52	551.48
641.86	547.82
642.20	544.64
642.55	540.91
642.89	537.30
643.23	533.80
643.58	530.55
643.92	526.91
644.26	523.59
644.61	520.41
644.95	517.09
645.29	513.61
645.64	510.52
645.98	507.49
646.32	504.67
646.66	501.72
647.01	498.79
647.35	496.05
647.69	493.03
648.04	490.19
648.38	487.51
648.72	484.55
649.06	481.63
649.41	478.51
649.75	475.62
650.09	472.82
650.43	470.08
650.78	467.19
651.12	464.56
651.46	461.85
651.80	459.08
652.14	456.35
652.49	453.98
652.83	451.45
653.17	448.91
653.51	446.29
653.85	444.05
654.20	441.58
654.54	438.96
654.88	436.59
655.22	434.38
655.56	431.87
655.90	429.51
656.25	427.38
656.59	425.24
656.93	423.14
657.27	421.07
657.61	418.78
657.95	416.55
658.29	414.30
658.64	412.34
658.98	410.17
659.32	408.12
659.66	405.95
660.00	403.86
660.34	401.82
660.68	399.78
661.02	397.72
661.36	395.70
661.70	393.74
662.05	391.82
662.39	389.84
662.73	388.11
663.07	386.60
663.41	384.66
663.75	382.68
664.09	380.82
664.43	378.81
664.77	377.16
665.11	375.51
665.45	373.80
665.79	372.05
666.13	370.28
666.47	368.54
666.81	366.84
667.15	365.13
667.49	363.61
667.83	362.34
668.17	360.78
668.51	359.42
668.85	358.14
669.19	357.03
669.53	355.52
669.87	353.94
670.21	352.39
670.55	350.97
670.89	349.90
671.23	348.64
671.57	347.35
671.91	346.03
672.25	344.65
672.58	343.50
672.92	342.09
673.26	340.92
673.60	339.63
673.94	338.45
674.28	337.26
674.62	336.13
674.96	334.74
675.30	333.55
675.64	332.33
675.97	331.04
676.31	329.58
676.65	328.39
676.99	327.44
677.33	326.14
677.67	325.15
678.01	323.76
678.34	322.62
678.68	321.58
679.02	320.47
679.36	319.46
679.70	318.35
680.04	317.39
680.37	316.42
680.71	315.54
681.05	314.55
681.39	313.70
681.73	312.66
682.06	311.81
682.40	310.88
682.74	310.08
683.08	309.32
683.42	308.36
683.75	307.58
684.09	306.67
684.43	305.90
684.77	304.98
685.10	304.25
685.44	303.50
685.78	302.76
686.12	302.05
686.45	301.20
686.79	300.43
687.13	299.80
687.46	299.07
687.80	298.40
688.14	297.70
688.48	296.90
688.81	296.12
689.15	295.47
689.49	294.82
689.82	294.06
690.16	293.18
690.50	292.53
690.83	291.77
691.17	290.94
691.51	290.19
691.84	289.55
692.18	288.91
692.52	288.19
692.85	287.54
693.19	286.97
693.52	286.44
693.86	285.85
694.20	285.11
694.53	284.55
694.87	283.85
695.21	283.19
695.54	282.65
695.88	281.99
696.21	281.29
696.55	280.71
696.88	280.15
697.22	279.64
697.56	279.24
697.89	278.73
698.23	278.27
698.56	277.79
698.90	277.43
699.23	276.88
699.57	276.42
699.90	275.85
700.24	275.22
700.58	274.75
700.91	274.28
701.25	274.22
701.58	273.99
701.92	273.69
702.25	273.25
702.59	272.82
702.92	272.45
703.26	271.98
703.59	271.54
703.93	271.54
704.26	271.17
704.60	270.79
704.93	270.34
705.26	269.92
705.60	269.62
705.93	269.03
706.27	268.80
706.60	268.57
706.94	268.40
707.27	268.04
707.61	267.70
707.94	267.39
708.27	266.60
708.61	265.97
708.94	265.51
709.28	265.23
709.61	264.86
709.94	264.56
710.28	264.19
710.61	263.83
710.95	262.96
711.28	262.94
711.61	262.46
711.95	262.21
712.28	261.79
712.61	261.39
712.95	261.31
713.28	261.15
713.61	260.67
713.95	260.24
714.28	259.95
714.61	259.55
714.95	259.13
715.28	258.75
715.61	258.34
715.95	257.99
716.28	257.59
716.61	257.31
716.95	256.95
717.28	256.75
717.61	256.49
717.94	256.28
718.28	255.56
718.61	255.24
718.94	254.82
719.27	254.59
719.61	254.35
719.94	253.98
720.27	253.46
720.60	253.21
720.94	252.90
721.27	252.69
721.60	252.55
721.93	252.33
722.27	252.30
722.60	252.24
722.93	252.08
723.26	251.88
723.59	251.54
723.93	251.40
724.26	251.12
724.59	250.80
724.92	250.62
725.25	250.57
725.59	250.36
725.92	250.25
726.25	250.12
726.58	249.91
726.91	249.69
727.24	249.56
727.57	249.32
727.91	248.99
728.24	248.82
728.57	248.61
728.90	248.45
729.23	248.08
729.56	248.08
729.89	247.92
730.22	247.79
730.55	247.71
730.89	247.56
731.22	247.43
731.55	247.33
731.88	247.18
732.21	246.93
732.54	246.72
732.87	246.53
733.20	246.39
733.53	246.27
733.86	246.18
734.19	245.95
734.52	245.89
734.85	246.16
735.18	245.99
735.51	245.93
735.84	245.81
736.17	245.85
736.50	245.40
736.83	245.78
737.16	245.55
737.49	245.45
737.82	245.20
738.15	245.07
738.48	244.93
738.81	244.74
739.14	244.60
739.47	244.53
739.80	244.38
740.13	244.28
740.46	244.03
740.79	243.80
741.12	243.67
741.45	243.43
741.78	242.96
742.11	242.98
742.44	242.70
742.77	242.66
743.10	242.47
743.43	242.37
743.75	241.69
744.08	242.21
744.41	241.97
744.74	241.84
745.07	241.62
745.40	241.64
745.73	241.72
746.06	241.58
746.39	241.51
746.71	241.32
747.04	241.13
747.37	240.98
747.70	240.97
748.03	240.85
748.36	240.86
748.68	240.79
749.01	240.42
749.34	240.31
749.67	240.12
750.00	239.99
750.33	240.18
750.65	240.08
750.98	239.31
751.31	239.23
751.64	239.20
751.97	239.42
752.29	239.13
752.62	238.76
752.95	238.57
753.28	238.38
753.60	238.30
753.93	238.24
754.26	238.23
754.59	237.92
754.91	237.69
755.24	237.50
755.57	237.39
755.90	237.28
756.22	237.12
756.55	236.96
756.88	236.73
757.20	236.29
757.53	236.10
757.86	236.00
758.19	235.91
758.51	235.69
758.84	235.27
759.17	235.10
759.49	235.01
759.82	235.20
760.15	235.12
760.47	235.01
760.80	234.79
761.13	234.69
761.45	234.65
761.78	234.54
762.11	234.50
762.43	234.36
762.76	234.28
763.08	234.25
763.41	234.19
763.74	234.14
764.06	234.03
764.39	233.93
764.71	233.84
765.04	233.70
765.37	233.64
765.69	233.50
766.02	233.45
766.34	233.34
766.67	233.04
767.00	233.02
767.32	233.22
767.65	233.46
767.97	233.45
768.30	233.39
768.62	233.34
768.95	233.18
769.27	233.09
769.60	233.05
769.92	232.90
770.25	232.74
770.57	232.60
770.90	232.54
771.22	232.42
771.55	232.46
771.87	232.36
772.20	232.25
772.52	232.69
772.85	233.21
773.17	233.21
773.50	233.17
773.82	233.05
774.15	232.77
774.47	232.41
774.80	232.31
775.12	232.25
775.45	232.22
775.77	232.10
776.09	232.04
776.42	232.06
776.74	232.20
777.07	232.15
777.39	232.11
777.72	232.17
778.04	232.18
778.36	231.98
778.69	232.06
779.01	232.14
779.33	231.64
779.66	231.02
779.98	230.96
780.31	230.93
780.63	231.13
780.95	231.11
781.28	231.07
781.60	230.91
781.92	230.84
782.25	230.85
782.57	230.89
782.89	230.88
783.22	230.80
783.54	230.64
783.86	230.62
784.19	230.70
784.51	230.67
784.83	230.58
785.16	230.60
785.48	230.55
785.80	230.44
786.12	230.45
786.45	230.47
786.77	230.52
787.09	230.48
787.42	230.22
787.74	230.28
788.06	230.24
788.38	230.26
788.71	230.24
789.03	230.25
789.35	230.30
789.67	230.17
789.99	230.21
790.32	230.21
790.64	230.29
790.96	230.57
791.28	230.46
791.61	230.48
791.93	230.52
792.25	230.50
792.57	230.80
792.89	230.69
793.21	230.70
793.54	230.55
793.86	230.46
794.18	230.50
794.50	230.39
794.82	230.44
795.14	230.42
795.47	230.50
795.79	230.44
796.11	230.34
796.43	230.39
796.75	230.28
797.07	230.26
797.39	230.24
797.71	229.86
798.04	229.86
798.36	229.86
798.68	229.81
799.00	229.78
799.32	229.55
799.64	229.63
799.96	229.58
800.28	229.68
800.60	229.60
800.92	229.53
801.24	229.52
801.56	229.55
801.89	229.54
802.21	229.55
802.53	229.41
802.85	229.46
803.17	229.62
803.49	229.60
803.81	229.50
804.13	229.38
804.45	229.28
804.77	229.28
805.09	229.24
805.41	229.10
805.73	229.04
806.05	228.87
806.37	228.83
806.69	228.82
807.01	228.77
807.33	228.83
807.65	228.74
807.97	228.94
808.28	228.83
808.60	228.75
808.92	228.63
809.24	228.98
809.56	228.84
809.88	228.61
810.20	228.65
810.52	228.74
810.84	228.63
811.16	228.61
811.48	228.57
811.80	228.71
812.12	228.71
812.43	228.82
812.75	228.86
813.07	228.83
813.39	228.81
813.71	228.72
814.03	228.68
814.35	228.71
814.67	228.46
814.98	228.44
815.30	228.38
815.62	228.30
815.94	227.94
816.26	228.13
816.58	228.01
816.89	228.05
817.21	227.97
817.53	228.00
817.85	228.06
818.17	228.03
818.48	227.79
818.80	227.88
819.12	227.71
819.44	227.61
819.76	227.49
820.07	227.46
820.39	227.49
820.71	227.45
821.03	227.45
821.34	227.36
821.66	227.44
821.98	227.52
822.30	227.52
822.61	227.79
822.93	227.60
823.25	227.66
823.57	227.57
823.88	227.60
824.20	227.65
824.52	227.71
824.83	227.66
825.15	227.67
825.47	227.62
825.79	227.65
826.10	227.61
826.42	227.61
826.74	227.60
827.05	227.60
827.37	227.61
827.69	227.59
828.00	227.67
828.32	227.60
828.64	227.56
828.95	227.85
829.27	227.76
829.58	227.73
829.90	227.84
830.22	227.91
830.53	227.79
830.85	227.66
831.17	227.49
831.48	227.55
831.80	227.61
832.11	227.58
832.43	227.56
832.75	227.60
833.06	227.93
833.38	227.84
833.69	227.83
834.01	227.86
834.32	227.78
834.64	227.67
834.96	227.66
835.27	227.65
835.59	227.46
835.90	227.32
836.22	227.35
836.53	227.22
836.85	227.15
837.16	227.69
837.48	227.77
837.79	227.98
838.11	228.02
838.42	228.01
838.74	228.15
839.05	228.15
839.37	228.15
839.68	227.90
840.00	227.86
840.31	227.91
840.63	227.90
840.94	227.88
841.26	227.85
841.57	227.85
841.88	227.89
842.20	227.86
842.51	227.82
842.83	227.83
843.14	228.26
843.46	228.26
843.77	227.93
844.08	227.78
844.40	227.61
844.71	227.44
845.03	227.39
845.34	227.28
845.65	227.23
845.97	227.24
846.28	227.22
846.60	227.21
846.91	227.15
847.22	227.12
847.54	227.25
847.85	227.29
848.16	227.23
848.48	227.09
848.79	227.23
849.10	227.25
849.42	227.24
849.73	226.80
850.04	226.80
850.36	226.60
850.67	226.75
850.98	226.69
851.30	226.80
851.61	226.83
851.92	226.86
852.23	226.97
852.55	227.01
852.86	226.98
853.17	227.12
853.49	227.22
853.80	227.27
854.11	227.24
854.42	227.33
854.74	227.32
855.05	227.35
855.36	227.12
855.67	227.22
855.99	227.23
856.30	227.73
856.61	227.66
856.92	227.63
857.23	227.63
857.55	227.61
857.86	227.56
858.17	227.55
858.48	227.38
858.79	227.37
859.11	227.36
859.42	227.36
859.73	227.25
860.04	227.17
860.35	227.05
860.66	226.93
860.98	226.90
861.29	226.93
861.60	226.94
861.91	227.07
862.22	226.97
862.53	226.88
862.84	226.37
863.16	226.52
863.47	226.51
863.78	226.44
864.09	226.49
864.40	226.50
864.71	226.45
865.02	226.51
865.33	226.44
865.64	226.36
865.95	226.39
866.27	226.72
866.58	226.69
866.89	226.77
867.20	226.76
867.51	226.69
867.82	226.64
868.13	226.83
868.44	226.68
868.75	226.74
869.06	226.78
869.37	226.88
869.68	226.68
869.99	226.77
870.30	226.83
870.61	226.95
870.92	226.93
871.23	227.00
871.54	227.10
871.85	227.22
872.16	227.37
872.47	227.35
872.78	226.97
873.09	227.02
873.40	227.01
873.71	227.05
874.02	227.03
874.33	227.04
874.64	226.87
874.95	226.99
875.26	226.90
875.56	226.92
875.87	226.92
876.18	226.92
876.49	227.39
876.80	227.37
877.11	227.24
877.42	227.19
877.73	227.13
878.04	227.07
878.35	227.03
878.66	226.98
878.96	226.88
879.27	226.89
879.58	226.81
879.89	226.84
880.20	226.95
880.51	226.98
880.82	226.97
881.12	226.99
881.43	226.86
881.74	226.84
882.05	226.71
882.36	226.63
882.67	226.72
882.97	226.16
883.28	226.05
883.59	226.02
883.90	226.13
884.21	226.20
884.51	226.15
884.82	226.02
885.13	225.91
885.44	225.94
885.74	225.96
886.05	225.99
886.36	225.86
886.67	225.72
886.98	225.96
887.28	225.97
887.59	226.00
887.90	225.97
888.20	225.99
888.51	226.21
888.82	226.13
889.13	226.09
889.43	226.49
889.74	226.51
890.05	226.52
890.35	226.45
890.66	226.37
890.97	226.29
891.28	226.35
891.58	226.43
891.89	226.45
892.20	226.38
892.50	226.33
892.81	226.35
893.12	226.32
893.42	226.08
893.73	226.12
894.04	226.09
894.34	226.16
894.65	226.16
894.95	226.01
895.26	226.08
895.57	226.28
895.87	225.86
896.18	225.99
896.48	225.97
896.79	225.88
897.10	225.99
897.40	226.07
897.71	226.10
898.01	226.04
898.32	226.06
898.63	226.12
898.93	226.11
899.24	226.11
899.54	226.09
899.85	226.01
900.15	225.94
900.46	225.98
900.76	226.07
901.07	226.02
901.38	226.00
901.68	226.03
901.99	225.84
902.29	225.88
902.60	225.80
902.90	225.84
903.21	225.94
903.51	225.87
903.82	225.99
904.12	225.97
904.43	226.03
904.73	226.01
905.03	226.00
905.34	226.51
905.64	226.46
905.95	226.48
906.25	226.61
906.56	226.65
906.86	226.65
907.17	226.51
907.47	226.53
907.77	226.55
908.08	226.52
908.38	226.59
908.69	226.63
908.99	226.78
909.30	226.75
909.60	226.79
909.90	226.85
910.21	226.71
910.51	226.66
910.81	226.70
911.12	226.78
911.42	226.83
911.73	226.32
912.03	226.41
912.33	226.59
912.64	226.47
912.94	226.46
913.24	226.39
913.55	226.45
913.85	226.46
914.15	226.59
914.46	226.66
914.76	226.60
915.06	226.61
915.37	226.41
915.67	226.39
915.97	226.39
916.27	226.22
916.58	226.29
916.88	226.25
917.18	226.24
917.49	226.51
917.79	226.47
918.09	226.56
918.39	226.72
918.70	226.64
919.00	226.60
919.30	226.86
919.60	226.83
919.91	226.69
920.21	226.69
920.51	226.58
920.81	226.55
921.12	226.62
921.42	226.55
921.72	226.65
922.02	226.73
922.32	226.72
922.63	226.77
922.93	226.92
923.23	226.92
923.53	226.81
923.83	226.48
924.13	226.45
924.44	226.43
924.74	226.48
925.04	226.59
925.34	226.64
925.64	226.39
925.94	226.36
926.24	226.70
926.55	226.61
926.85	226.65
927.15	226.64
927.45	226.64
927.75	226.65
928.05	226.64
928.35	226.57
928.65	226.71
928.95	226.80
929.26	226.65
929.56	226.78
929.86	226.86
930.16	226.90
930.46	226.91
930.76	226.92
931.06	226.66
931.36	226.58
931.66	226.70
931.96	226.75
932.26	226.79
932.56	226.60
932.86	226.71
933.16	226.75
933.46	226.76
933.76	226.68
934.06	226.83
934.36	227.04
934.66	227.05
934.96	226.95
935.26	226.89
935.56	226.98
935.86	226.87
936.16	226.85
936.46	226.81
936.76	226.87
937.06	226.84
937.36	226.93
937.66	226.91
937.96	226.89
938.26	226.81
938.56	226.78
938.86	226.75
939.16	226.95
939.46	227.00
939.76	227.04
940.06	227.07
940.35	226.96
940.65	226.70
940.95	226.72
941.25	226.63
941.55	226.65
941.85	226.68
942.15	226.81
942.45	226.88
942.75	226.94
943.04	226.88
943.34	226.97
943.64	226.90
943.94	226.82
944.24	226.86
944.54	226.85
944.84	226.94
945.13	226.91
945.43	226.77
945.73	226.72
946.03	226.66
946.33	226.59
946.62	226.56
946.92	226.62
947.22	226.66
947.52	226.71
947.82	226.77
948.11	226.65
948.41	226.60
948.71	226.45
949.01	226.45
949.31	226.44
949.60	226.45
949.90	226.48
950.20	226.51
950.50	226.45
950.79	226.42
951.09	226.44
951.39	226.44
951.69	226.32
951.98	226.42
952.28	226.38
952.58	226.35
952.87	226.34
953.17	226.33
953.47	226.32
953.76	226.29
954.06	226.14
954.36	226.12
954.66	226.00
954.95	226.15
955.25	226.11
955.55	226.14
955.84	225.96
956.14	225.97
956.44	225.97
956.73	225.85
957.03	225.85
957.32	225.77
957.62	225.75
957.92	225.84
958.21	225.73
958.51	226.33
958.81	226.37
959.10	226.45
959.40	226.55
959.69	226.55
959.99	226.59
960.29	226.62
960.58	226.54
960.88	226.75
961.17	226.67
961.47	226.72
961.76	226.60
962.06	226.71
962.36	226.73
962.65	226.76
962.95	226.84
963.24	226.78
963.54	226.86
963.83	226.91
964.13	226.83
964.42	226.65
964.72	226.16
965.01	226.15
965.31	226.07
965.60	225.91
965.90	226.21
966.19	226.12
966.49	226.10
966.78	226.10
967.08	225.97
967.37	225.97
967.67	225.87
967.96	226.04
968.26	226.03
968.55	226.08
968.85	226.04
969.14	226.04
969.43	226.07
969.73	226.02
970.02	225.95
970.32	225.96
970.61	226.05
970.91	225.94
971.20	225.90
971.49	225.86
971.79	225.98
972.08	225.64
972.38	225.71
972.67	225.72
972.96	225.83
973.26	225.79
973.55	225.96
973.85	225.93
974.14	225.88
974.43	225.89
974.73	225.79
975.02	225.83
975.31	225.85
975.61	225.81
975.90	225.77
976.19	225.73
976.49	225.74
976.78	225.75
977.07	225.76
977.37	225.76
977.66	225.81
977.95	225.67
978.24	225.67
978.54	225.76
978.83	225.76
979.12	225.71
979.42	225.76
979.71	225.68
980.00	225.73
980.29	225.68
980.59	225.61
980.88	225.70
981.17	225.62
981.46	225.61
981.76	225.65
982.05	225.76
982.34	225.82
982.63	225.86
982.93	225.92
983.22	226.08
983.51	226.09
983.80	226.11
984.09	226.23
984.39	226.18
984.68	226.10
984.97	226.09
985.26	226.00
985.55	226.01
985.85	225.94
986.14	226.01
986.43	226.10
986.72	226.15
987.01	226.05
987.30	226.07
987.59	225.94
987.89	225.92
988.18	225.80
988.47	225.73
988.76	225.73
989.05	225.64
989.34	225.57
989.63	225.78
989.92	225.72
990.22	225.68
990.51	225.70
990.80	225.69
991.09	225.74
991.38	225.88
991.67	225.85
991.96	225.79
992.25	225.74
992.54	225.73
992.83	225.71
993.12	225.75
993.41	225.79
993.70	226.11
993.99	226.27
994.28	226.35
994.58	226.43
994.87	226.41
995.16	226.46
995.45	226.38
995.74	226.20
996.03	226.27
996.32	226.27
996.61	226.41
996.90	226.42
997.19	226.33
997.48	226.29
997.77	226.25
998.06	226.26
998.34	226.24
998.63	226.23
998.92	226.25
999.21	226.28
999.50	226.36
999.79	226.16
1000.08	226.07
1000.37	226.05
1000.66	226.01
1000.95	226.05
1001.24	226.03
1001.53	226.12
1001.82	226.08
1002.11	225.95
1002.40	225.99
1002.68	226.08
1002.97	226.38
1003.26	226.35
1003.55	226.24
1003.84	226.29
1004.13	226.46
1004.42	226.45
1004.71	226.44
1004.99	226.38
1005.28	226.50
1005.57	226.45
1005.86	226.43
1006.15	226.46
1006.44	226.37
1006.72	226.42
1007.01	226.34
1007.30	226.30
1007.59	226.20
1007.88	226.13
1008.17	226.21
1008.45	226.18
1008.74	225.99
1009.03	225.76
1009.32	225.78
1009.60	225.87
1009.89	225.80
1010.18	225.58
1010.47	225.57
1010.76	225.53
1011.04	225.49
1011.33	225.53
1011.62	225.51
1011.91	225.52
1012.19	225.55
1012.48	225.61
1012.77	225.64
1013.05	225.91
1013.34	225.86
1013.63	225.93
1013.92	226.04
1014.20	225.95
1014.49	225.91
1014.78	225.87
1015.06	225.77
1015.35	225.79
1015.64	225.81
1015.92	225.93
1016.21	225.95
1016.50	225.98
1016.78	226.08
1017.07	226.13
1017.36	225.92
1017.64	225.86
1017.93	225.95
1018.22	225.88
1018.50	225.85
1018.79	225.86
1019.08	225.58
1019.36	225.70
1019.65	225.55
1019.93	225.71
1020.22	225.86
1020.51	226.12
1020.79	226.10
1021.08	225.35
1021.36	225.05
1021.65	226.35
1021.94	224.90
1022.22	226.15
1022.51	223.75
1022.79	229.15
1023.08	227.00
1023.36	231.35
1023.65	224.10
>>>>>End Processed Spectral Data<<<<<
