SpectraSuite Data File
++++++++++++++++++++++++++++++++++++
Date: Wed Sep 04 17:44:30 EDT 2013
User: lab3
Dark Spectrum Present: Yes
Reference Spectrum Present: No
Number of Sampled Component Spectra: 1
Spectrometers: USB2E7196
Integration Time (usec): 170000 (USB2E7196)
Spectra Averaged: 20 (USB2E7196)
Boxcar Smoothing: 10 (USB2E7196)
Correct for Electrical Dark: No (USB2E7196)
Strobe/Lamp Enabled: No (USB2E7196)
Correct for Detector Non-linearity: No (USB2E7196)
Correct for Stray Light: No (USB2E7196)
Number of Pixels in Processed Spectrum: 2048
>>>>>Begin Processed Spectral Data<<<<<
339.09	0.00
339.48	213.10
339.86	213.30
340.24	214.10
340.63	216.85
341.01	226.10
341.39	220.80
341.78	222.05
342.16	223.55
342.54	221.65
342.93	212.01
343.31	222.67
343.69	223.26
344.07	223.77
344.46	224.30
344.84	224.74
345.22	224.69
345.60	224.91
345.99	225.10
346.37	225.20
346.75	225.38
347.13	225.41
347.52	225.47
347.90	225.62
348.28	225.60
348.66	225.67
349.05	225.59
349.43	225.66
349.81	225.76
350.19	225.76
350.57	225.81
350.96	225.93
351.34	226.01
351.72	226.00
352.10	226.11
352.48	226.12
352.87	226.13
353.25	226.19
353.63	226.21
354.01	226.17
354.39	226.27
354.77	226.29
355.15	226.49
355.54	226.55
355.92	226.45
356.30	226.53
356.68	226.93
357.06	227.02
357.44	227.04
357.82	227.04
358.20	227.41
358.58	227.45
358.97	227.48
359.35	227.70
359.73	227.94
360.11	228.01
360.49	228.12
360.87	228.22
361.25	228.40
361.63	228.60
362.01	228.71
362.39	228.66
362.77	228.73
363.15	228.69
363.53	228.75
363.91	228.85
364.29	228.93
364.67	228.48
365.05	228.44
365.43	228.57
365.81	228.69
366.19	228.69
366.57	228.93
366.95	228.98
367.33	228.89
367.71	228.84
368.09	228.91
368.47	228.91
368.85	228.93
369.23	229.01
369.61	228.81
369.99	228.99
370.37	229.11
370.75	229.36
371.13	229.29
371.51	229.15
371.89	229.20
372.27	229.24
372.65	229.24
373.03	229.36
373.41	229.24
373.78	229.18
374.16	228.85
374.54	228.65
374.92	228.56
375.30	228.47
375.68	228.36
376.06	228.34
376.44	228.26
376.82	228.21
377.19	228.01
377.57	228.03
377.95	227.80
378.33	227.64
378.71	227.30
379.09	227.30
379.47	227.34
379.84	227.20
380.22	227.10
380.60	226.97
380.98	226.81
381.36	226.72
381.73	226.55
382.11	226.56
382.49	226.52
382.87	226.42
383.25	226.40
383.62	226.87
384.00	226.64
384.38	226.57
384.76	226.58
385.13	226.74
385.51	226.72
385.89	226.67
386.27	226.66
386.64	226.67
387.02	226.52
387.40	226.44
387.78	226.42
388.15	226.38
388.53	226.35
388.91	226.29
389.29	226.26
389.66	226.40
390.04	226.33
390.42	226.48
390.79	226.45
391.17	226.45
391.55	225.96
391.92	225.99
392.30	226.07
392.68	225.95
393.05	225.95
393.43	225.92
393.81	225.93
394.18	225.86
394.56	225.92
394.94	226.16
395.31	226.17
395.69	226.38
396.06	226.51
396.44	226.59
396.82	226.62
397.19	226.97
397.57	226.90
397.95	227.05
398.32	226.90
398.70	227.07
399.07	227.20
399.45	227.21
399.82	227.35
400.20	227.47
400.58	227.59
400.95	227.46
401.33	227.65
401.70	228.15
402.08	228.35
402.45	228.45
402.83	228.60
403.20	228.80
403.58	228.82
403.95	229.02
404.33	229.25
404.71	229.52
405.08	229.90
405.46	230.06
405.83	230.26
406.21	230.52
406.58	230.74
406.96	231.00
407.33	231.42
407.70	231.80
408.08	232.48
408.45	232.88
408.83	233.40
409.20	233.77
409.58	233.90
409.95	234.36
410.33	234.94
410.70	235.31
411.08	235.88
411.45	236.50
411.82	237.00
412.20	237.76
412.57	238.74
412.95	238.99
413.32	239.92
413.69	240.74
414.07	241.63
414.44	242.60
414.82	243.54
415.19	244.66
415.56	245.76
415.94	246.68
416.31	248.09
416.68	249.41
417.06	250.95
417.43	252.51
417.81	254.21
418.18	255.94
418.55	257.83
418.93	259.81
419.30	261.84
419.67	264.10
420.04	266.19
420.42	268.39
420.79	271.43
421.16	274.07
421.54	276.96
421.91	279.84
422.28	282.77
422.66	285.99
423.03	289.24
423.40	292.45
423.77	295.88
424.15	299.31
424.52	302.98
424.89	307.01
425.26	310.86
425.64	314.58
426.01	318.68
426.38	322.93
426.75	327.20
427.13	331.53
427.50	336.12
427.87	340.89
428.24	345.69
428.61	350.01
428.99	355.12
429.36	360.42
429.73	365.80
430.10	371.15
430.47	376.60
430.85	382.12
431.22	388.22
431.59	394.92
431.96	401.02
432.33	407.73
432.70	414.21
433.08	421.84
433.45	428.89
433.82	435.84
434.19	443.66
434.56	451.54
434.93	459.09
435.30	466.55
435.68	474.96
436.05	482.95
436.42	491.06
436.79	498.56
437.16	506.67
437.53	515.18
437.90	523.71
438.27	532.03
438.64	540.52
439.01	548.54
439.38	555.28
439.75	562.22
440.13	570.11
440.50	577.40
440.87	583.25
441.24	589.57
441.61	596.59
441.98	601.66
442.35	607.23
442.72	613.08
443.09	618.79
443.46	622.10
443.83	624.42
444.20	626.36
444.57	628.86
444.94	629.97
445.31	631.04
445.68	632.39
446.05	632.63
446.42	631.45
446.79	630.09
447.16	628.58
447.53	627.34
447.90	623.71
448.27	620.29
448.64	615.63
449.01	612.08
449.37	606.10
449.74	600.17
450.11	593.63
450.48	586.10
450.85	578.28
451.22	571.65
451.59	565.31
451.96	559.14
452.33	551.51
452.70	544.37
453.07	536.05
453.43	527.11
453.80	518.93
454.17	511.24
454.54	503.74
454.91	496.05
455.28	488.33
455.65	481.04
456.02	474.31
456.38	468.14
456.75	460.60
457.12	454.21
457.49	448.21
457.86	442.04
458.23	437.07
458.59	431.59
458.96	426.05
459.33	421.00
459.70	416.12
460.07	412.02
460.43	407.52
460.80	403.39
461.17	399.75
461.54	395.84
461.91	392.16
462.27	388.42
462.64	385.12
463.01	381.70
463.38	378.60
463.74	374.72
464.11	371.83
464.48	369.27
464.85	366.50
465.21	364.36
465.58	362.20
465.95	359.48
466.32	357.25
466.68	354.98
467.05	352.99
467.42	350.74
467.78	348.70
468.15	346.60
468.52	344.96
468.88	342.81
469.25	341.02
469.62	339.59
469.98	338.08
470.35	336.66
470.72	335.24
471.08	333.53
471.45	332.28
471.82	331.03
472.18	329.61
472.55	328.68
472.92	327.37
473.28	326.27
473.65	325.10
474.02	324.13
474.38	323.35
474.75	322.62
475.11	321.85
475.48	321.06
475.85	320.38
476.21	319.79
476.58	319.42
476.94	319.01
477.31	318.47
477.67	318.08
478.04	317.70
478.41	317.55
478.77	317.81
479.14	317.53
479.50	317.42
479.87	317.53
480.23	317.36
480.60	317.40
480.96	317.35
481.33	317.83
481.69	318.10
482.06	318.33
482.42	318.54
482.79	318.93
483.15	319.36
483.52	320.09
483.88	320.53
484.25	321.00
484.61	321.63
484.98	322.30
485.34	323.26
485.71	324.13
486.07	324.96
486.44	325.65
486.80	326.81
487.17	327.90
487.53	329.28
487.90	330.90
488.26	332.60
488.62	334.31
488.99	335.77
489.35	337.44
489.72	339.17
490.08	341.10
490.44	343.09
490.81	345.29
491.17	347.42
491.54	349.97
491.90	352.69
492.26	355.38
492.63	358.27
492.99	360.91
493.36	364.01
493.72	367.35
494.08	370.73
494.45	374.30
494.81	378.20
495.17	381.99
495.54	385.93
495.90	390.05
496.26	394.37
496.63	398.97
496.99	403.76
497.35	408.89
497.72	414.10
498.08	419.53
498.44	425.18
498.80	431.24
499.17	437.13
499.53	443.20
499.89	449.72
500.26	456.37
500.62	463.38
500.98	470.69
501.34	477.98
501.71	485.53
502.07	493.37
502.43	501.48
502.79	509.64
503.16	518.30
503.52	527.18
503.88	536.30
504.24	545.89
504.60	555.71
504.97	565.84
505.33	576.19
505.69	587.09
506.05	597.80
506.41	608.69
506.78	620.10
507.14	632.02
507.50	644.08
507.86	656.45
508.22	669.18
508.59	681.89
508.95	695.40
509.31	709.36
509.67	723.27
510.03	737.11
510.39	751.64
510.75	766.33
511.12	781.24
511.48	796.58
511.84	811.88
512.20	827.31
512.56	843.14
512.92	859.63
513.28	876.14
513.64	893.10
514.00	910.27
514.37	927.60
514.73	945.27
515.09	963.12
515.45	981.01
515.81	999.00
516.17	1017.47
516.53	1035.50
516.89	1053.71
517.25	1072.60
517.61	1092.43
517.97	1112.11
518.33	1131.61
518.69	1151.27
519.05	1171.38
519.41	1191.49
519.77	1212.03
520.13	1232.42
520.49	1252.23
520.85	1272.70
521.21	1293.55
521.57	1314.02
521.93	1334.41
522.29	1354.75
522.65	1374.84
523.01	1394.94
523.37	1415.15
523.73	1435.65
524.09	1455.60
524.45	1475.71
524.81	1496.01
525.17	1515.93
525.53	1535.50
525.89	1555.67
526.25	1575.78
526.61	1595.18
526.97	1615.50
527.33	1636.00
527.68	1656.90
528.04	1677.66
528.40	1697.59
528.76	1717.87
529.12	1737.70
529.48	1757.73
529.84	1777.40
530.20	1797.73
530.56	1818.12
530.91	1837.95
531.27	1857.41
531.63	1877.23
531.99	1897.01
532.35	1916.01
532.71	1935.27
533.07	1955.39
533.42	1974.51
533.78	1993.67
534.14	2012.66
534.50	2030.97
534.86	2049.19
535.21	2066.04
535.57	2083.56
535.93	2100.58
536.29	2117.00
536.65	2134.32
537.00	2150.92
537.36	2167.55
537.72	2183.06
538.08	2199.09
538.44	2215.09
538.79	2230.73
539.15	2246.35
539.51	2261.12
539.87	2275.60
540.22	2288.63
540.58	2302.14
540.94	2314.68
541.29	2326.38
541.65	2338.43
542.01	2350.20
542.37	2359.90
542.72	2370.18
543.08	2380.00
543.44	2391.02
543.79	2400.25
544.15	2409.15
544.51	2418.42
544.87	2427.11
545.22	2435.28
545.58	2442.40
545.94	2448.75
546.29	2454.20
546.65	2459.58
547.01	2464.75
547.36	2469.83
547.72	2474.89
548.07	2478.19
548.43	2482.66
548.79	2486.57
549.14	2489.85
549.50	2492.68
549.86	2496.16
550.21	2499.18
550.57	2502.07
550.92	2502.55
551.28	2503.43
551.64	2505.04
551.99	2506.31
552.35	2507.41
552.70	2508.74
553.06	2509.64
553.41	2510.21
553.77	2511.69
554.13	2512.68
554.48	2513.70
554.84	2514.18
555.19	2514.59
555.55	2515.97
555.90	2515.01
556.26	2514.06
556.61	2512.05
556.97	2509.78
557.32	2508.85
557.68	2507.00
558.03	2504.95
558.39	2503.17
558.74	2502.09
559.10	2498.73
559.45	2494.89
559.81	2490.27
560.16	2485.02
560.52	2479.99
560.87	2475.78
561.23	2470.14
561.58	2464.09
561.94	2457.02
562.29	2449.74
562.64	2442.68
563.00	2433.86
563.35	2426.86
563.71	2420.15
564.06	2413.93
564.42	2407.03
564.77	2399.98
565.12	2392.64
565.48	2384.62
565.83	2377.03
566.19	2368.92
566.54	2361.00
566.89	2352.85
567.25	2344.87
567.60	2337.69
567.96	2330.16
568.31	2321.77
568.66	2313.23
569.02	2304.63
569.37	2296.49
569.72	2289.15
570.08	2280.19
570.43	2270.96
570.78	2262.09
571.14	2252.32
571.49	2242.18
571.84	2232.95
572.20	2222.20
572.55	2212.16
572.90	2201.84
573.26	2191.24
573.61	2180.15
573.96	2169.26
574.31	2157.45
574.67	2146.23
575.02	2133.85
575.37	2121.35
575.72	2108.80
576.08	2096.97
576.43	2084.51
576.78	2071.73
577.13	2058.02
577.49	2045.53
577.84	2034.01
578.19	2022.41
578.54	2010.80
578.90	1999.34
579.25	1987.19
579.60	1975.22
579.95	1962.75
580.30	1950.14
580.66	1937.16
581.01	1924.17
581.36	1910.87
581.71	1899.05
582.06	1886.31
582.42	1874.29
582.77	1862.29
583.12	1850.76
583.47	1838.85
583.82	1827.25
584.17	1815.76
584.53	1804.41
584.88	1792.16
585.23	1779.57
585.58	1765.79
585.93	1752.67
586.28	1739.88
586.63	1726.60
586.98	1712.94
587.34	1700.47
587.69	1687.65
588.04	1675.88
588.39	1664.59
588.74	1653.04
589.09	1641.51
589.44	1629.57
589.79	1617.90
590.14	1606.58
590.49	1594.67
590.84	1582.95
591.19	1571.64
591.54	1559.83
591.89	1548.17
592.25	1538.47
592.60	1527.72
592.95	1516.96
593.30	1505.95
593.65	1494.71
594.00	1483.51
594.35	1474.34
594.70	1462.83
595.05	1451.90
595.40	1440.36
595.75	1428.86
596.10	1417.84
596.45	1406.67
596.80	1396.29
597.15	1385.29
597.50	1373.94
597.85	1363.38
598.19	1352.63
598.54	1341.71
598.89	1331.20
599.24	1321.19
599.59	1310.23
599.94	1299.85
600.29	1289.90
600.64	1280.10
600.99	1269.67
601.34	1260.56
601.69	1250.02
602.04	1240.91
602.39	1231.85
602.74	1223.17
603.08	1214.33
603.43	1205.84
603.78	1196.58
604.13	1187.45
604.48	1178.44
604.83	1169.58
605.18	1160.35
605.53	1151.36
605.87	1142.74
606.22	1134.72
606.57	1126.04
606.92	1117.00
607.27	1108.55
607.62	1100.33
607.96	1092.05
608.31	1084.77
608.66	1076.78
609.01	1068.59
609.36	1060.25
609.70	1052.43
610.05	1044.35
610.40	1036.38
610.75	1027.95
611.10	1020.22
611.44	1011.95
611.79	1004.06
612.14	996.45
612.49	989.08
612.83	981.81
613.18	974.31
613.53	966.88
613.88	959.45
614.22	952.04
614.57	944.68
614.92	937.28
615.27	930.42
615.61	923.06
615.96	915.73
616.31	908.58
616.65	901.99
617.00	894.95
617.35	887.96
617.70	881.06
618.04	874.41
618.39	867.79
618.74	861.98
619.08	855.63
619.43	848.80
619.78	842.23
620.12	835.50
620.47	829.09
620.82	822.30
621.16	815.77
621.51	809.83
621.85	803.79
622.20	797.40
622.55	790.91
622.89	784.71
623.24	778.82
623.59	772.78
623.93	766.89
624.28	761.05
624.62	755.91
624.97	750.43
625.32	745.10
625.66	739.47
626.01	733.58
626.35	728.35
626.70	723.35
627.04	718.22
627.39	713.08
627.73	708.03
628.08	703.18
628.43	698.17
628.77	693.05
629.12	687.92
629.46	683.53
629.81	679.16
630.15	674.73
630.50	670.05
630.84	665.49
631.19	660.98
631.53	656.51
631.88	651.48
632.22	646.95
632.57	642.65
632.91	638.35
633.26	634.12
633.60	629.76
633.95	625.29
634.29	620.71
634.64	616.44
634.98	612.00
635.32	607.75
635.67	603.95
636.01	600.05
636.36	596.11
636.70	592.15
637.05	588.07
637.39	584.16
637.73	580.42
638.08	576.70
638.42	572.65
638.77	568.72
639.11	564.75
639.45	560.66
639.80	556.43
640.14	552.56
640.49	548.93
640.83	545.23
641.17	541.82
641.52	538.32
641.86	535.06
642.20	531.96
642.55	528.64
642.89	525.20
643.23	521.92
643.58	518.92
643.92	515.51
644.26	512.31
644.61	509.25
644.95	506.02
645.29	502.87
645.64	500.02
645.98	496.97
646.32	494.12
646.66	491.30
647.01	488.52
647.35	486.05
647.69	483.20
648.04	480.59
648.38	477.85
648.72	475.20
649.06	472.36
649.41	469.45
649.75	466.59
650.09	463.97
650.43	461.15
650.78	458.20
651.12	455.52
651.46	452.83
651.80	450.21
652.14	447.62
652.49	445.25
652.83	442.71
653.17	440.36
653.51	437.87
653.85	435.64
654.20	433.31
654.54	430.71
654.88	428.33
655.22	426.27
655.56	424.06
655.90	421.85
656.25	419.62
656.59	417.66
656.93	415.62
657.27	413.54
657.61	411.38
657.95	409.49
658.29	407.42
658.64	405.64
658.98	403.51
659.32	401.42
659.66	399.41
660.00	397.46
660.34	395.60
660.68	393.75
661.02	391.66
661.36	389.89
661.70	387.96
662.05	386.10
662.39	384.18
662.73	382.48
663.07	380.95
663.41	379.22
663.75	377.33
664.09	375.60
664.43	373.80
664.77	372.22
665.11	370.53
665.45	368.97
665.79	367.31
666.13	365.70
666.47	364.15
666.81	362.44
667.15	360.71
667.49	359.18
667.83	357.91
668.17	356.61
668.51	355.22
668.85	353.94
669.19	352.84
669.53	351.46
669.87	349.96
670.21	348.48
670.55	347.14
670.89	346.04
671.23	344.68
671.57	343.34
671.91	342.06
672.25	340.85
672.58	339.78
672.92	338.30
673.26	337.13
673.60	335.93
673.94	334.85
674.28	333.88
674.62	332.76
674.96	331.40
675.30	330.26
675.64	329.15
675.97	327.98
676.31	326.70
676.65	325.35
676.99	324.47
677.33	323.37
677.67	322.43
678.01	321.30
678.34	320.34
678.68	319.52
679.02	318.45
679.36	317.38
679.70	316.31
680.04	315.52
680.37	314.60
680.71	313.70
681.05	312.89
681.39	311.97
681.73	311.01
682.06	310.25
682.40	309.49
682.74	308.68
683.08	308.02
683.42	307.14
683.75	306.57
684.09	305.68
684.43	304.83
684.77	303.96
685.10	303.22
685.44	302.45
685.78	301.55
686.12	300.84
686.45	300.08
686.79	299.34
687.13	298.74
687.46	298.00
687.80	297.42
688.14	296.54
688.48	295.87
688.81	295.20
689.15	294.54
689.49	293.72
689.82	293.05
690.16	292.12
690.50	291.52
690.83	290.80
691.17	289.99
691.51	289.36
691.84	288.74
692.18	287.93
692.52	287.27
692.85	286.77
693.19	286.37
693.52	285.79
693.86	285.12
694.20	284.33
694.53	283.78
694.87	283.15
695.21	282.49
695.54	281.91
695.88	281.28
696.21	280.64
696.55	280.07
696.88	279.37
697.22	278.77
697.56	278.21
697.89	277.59
698.23	277.18
698.56	276.67
698.90	276.19
699.23	275.62
699.57	275.12
699.90	274.51
700.24	273.85
700.58	273.42
700.91	273.12
701.25	273.10
701.58	272.97
701.92	272.62
702.25	272.32
702.59	271.82
702.92	271.46
703.26	271.04
703.59	270.62
703.93	270.74
704.26	270.43
704.60	269.97
704.93	269.58
705.26	269.03
705.60	268.71
705.93	268.16
706.27	267.95
706.60	267.57
706.94	267.37
707.27	266.93
707.61	266.57
707.94	266.10
708.27	265.31
708.61	264.55
708.94	264.04
709.28	263.65
709.61	263.14
709.94	262.82
710.28	262.38
710.61	262.01
710.95	261.07
711.28	260.98
711.61	260.66
711.95	260.40
712.28	260.09
712.61	259.72
712.95	259.76
713.28	259.61
713.61	259.28
713.95	258.84
714.28	258.55
714.61	258.17
714.95	257.79
715.28	257.40
715.61	257.08
715.95	256.81
716.28	256.43
716.61	256.26
716.95	255.84
717.28	255.61
717.61	255.31
717.94	255.10
718.28	254.54
718.61	254.19
718.94	253.80
719.27	253.50
719.61	253.19
719.94	252.74
720.27	252.28
720.60	252.02
720.94	251.69
721.27	251.50
721.60	251.38
721.93	251.04
722.27	250.97
722.60	250.83
722.93	250.54
723.26	250.35
723.59	250.05
723.93	249.91
724.26	249.65
724.59	249.43
724.92	249.30
725.25	249.25
725.59	249.04
725.92	248.99
726.25	248.77
726.58	248.66
726.91	248.44
727.24	248.25
727.57	248.08
727.91	247.83
728.24	247.68
728.57	247.39
728.90	247.39
729.23	247.13
729.56	247.09
729.89	246.93
730.22	246.75
730.55	246.64
730.89	246.43
731.22	246.25
731.55	246.06
731.88	245.91
732.21	245.58
732.54	245.46
732.87	245.26
733.20	245.15
733.53	244.95
733.86	244.82
734.19	244.60
734.52	244.54
734.85	244.81
735.18	244.54
735.51	244.57
735.84	244.45
736.17	244.39
736.50	243.97
736.83	244.39
737.16	244.25
737.49	244.09
737.82	243.97
738.15	243.94
738.48	243.85
738.81	243.62
739.14	243.50
739.47	243.30
739.80	243.15
740.13	243.09
740.46	242.86
740.79	242.68
741.12	242.60
741.45	242.37
741.78	241.90
742.11	241.92
742.44	241.70
742.77	241.65
743.10	241.50
743.43	241.44
743.75	240.78
744.08	241.24
744.41	241.13
744.74	241.01
745.07	240.72
745.40	240.61
745.73	240.65
746.06	240.54
746.39	240.55
746.71	240.40
747.04	240.23
747.37	240.15
747.70	240.08
748.03	239.91
748.36	239.85
748.68	239.77
749.01	239.48
749.34	239.40
749.67	239.22
750.00	239.20
750.33	239.41
750.65	239.42
750.98	238.78
751.31	238.65
751.64	238.53
751.97	238.76
752.29	238.71
752.62	238.37
752.95	238.23
753.28	238.03
753.60	237.88
753.93	237.87
754.26	237.74
754.59	237.51
754.91	237.36
755.24	237.19
755.57	237.04
755.90	237.00
756.22	236.77
756.55	236.61
756.88	236.40
757.20	235.93
757.53	235.64
757.86	235.57
758.19	235.51
758.51	235.46
758.84	235.05
759.17	234.84
759.49	234.81
759.82	235.00
760.15	234.97
760.47	234.91
760.80	234.70
761.13	234.76
761.45	234.70
761.78	234.68
762.11	234.58
762.43	234.50
762.76	234.46
763.08	234.47
763.41	234.37
763.74	234.26
764.06	234.30
764.39	234.29
764.71	234.18
765.04	234.11
765.37	233.97
765.69	234.00
766.02	233.98
766.34	233.84
766.67	233.50
767.00	233.56
767.32	233.77
767.65	234.04
767.97	233.86
768.30	233.82
768.62	233.78
768.95	233.74
769.27	233.68
769.60	233.62
769.92	233.40
770.25	233.28
770.57	233.16
770.90	233.06
771.22	232.94
771.55	232.91
771.87	232.82
772.20	232.75
772.52	233.04
772.85	233.58
773.17	233.56
773.50	233.53
773.82	233.37
774.15	233.06
774.47	232.60
774.80	232.51
775.12	232.52
775.45	232.42
775.77	232.37
776.09	232.36
776.42	232.38
776.74	232.55
777.07	232.45
777.39	232.44
777.72	232.33
778.04	232.40
778.36	232.30
778.69	232.29
779.01	232.26
779.33	231.77
779.66	231.13
779.98	231.16
780.31	231.16
780.63	231.24
780.95	231.27
781.28	231.26
781.60	231.25
781.92	231.17
782.25	231.19
782.57	231.15
782.89	231.04
783.22	230.88
783.54	230.72
783.86	230.74
784.19	230.70
784.51	230.80
784.83	230.61
785.16	230.60
785.48	230.47
785.80	230.48
786.12	230.44
786.45	230.42
786.77	230.39
787.09	230.33
787.42	230.11
787.74	230.07
788.06	230.08
788.38	229.97
788.71	229.82
789.03	229.80
789.35	229.79
789.67	229.77
789.99	229.77
790.32	229.71
790.64	229.81
790.96	230.14
791.28	229.96
791.61	229.94
791.93	229.84
792.25	229.79
792.57	230.14
792.89	230.06
793.21	230.06
793.54	229.95
793.86	229.91
794.18	229.93
794.50	229.86
794.82	229.84
795.14	229.91
795.47	230.02
795.79	230.01
796.11	229.94
796.43	229.88
796.75	229.89
797.07	229.91
797.39	229.78
797.71	229.42
798.04	229.42
798.36	229.48
798.68	229.43
799.00	229.49
799.32	229.16
799.64	229.28
799.96	229.21
800.28	229.29
800.60	229.18
800.92	229.28
801.24	229.20
801.56	229.20
801.89	229.11
802.21	229.11
802.53	229.04
802.85	229.11
803.17	229.31
803.49	229.17
803.81	229.06
804.13	229.03
804.45	228.93
804.77	228.96
805.09	228.93
805.41	228.92
805.73	228.83
806.05	228.67
806.37	228.63
806.69	228.64
807.01	228.55
807.33	228.65
807.65	228.43
807.97	228.72
808.28	228.70
808.60	228.72
808.92	228.63
809.24	228.85
809.56	228.72
809.88	228.65
810.20	228.61
810.52	228.77
810.84	228.70
811.16	228.68
811.48	228.69
811.80	228.82
812.12	228.83
812.43	228.90
812.75	228.97
813.07	228.85
813.39	228.80
813.71	228.74
814.03	228.62
814.35	228.63
814.67	228.38
814.98	228.32
815.30	228.32
815.62	228.20
815.94	227.91
816.26	228.17
816.58	227.99
816.89	228.12
817.21	227.90
817.53	227.92
817.85	227.97
818.17	227.89
818.48	227.66
818.80	227.76
819.12	227.64
819.44	227.53
819.76	227.49
820.07	227.52
820.39	227.48
820.71	227.49
821.03	227.47
821.34	227.40
821.66	227.41
821.98	227.43
822.30	227.48
822.61	227.75
822.93	227.45
823.25	227.45
823.57	227.35
823.88	227.50
824.20	227.53
824.52	227.64
824.83	227.56
825.15	227.48
825.47	227.40
825.79	227.45
826.10	227.48
826.42	227.50
826.74	227.53
827.05	227.59
827.37	227.66
827.69	227.68
828.00	227.69
828.32	227.67
828.64	227.62
828.95	227.86
829.27	227.70
829.58	227.71
829.90	227.78
830.22	227.82
830.53	227.67
830.85	227.56
831.17	227.44
831.48	227.47
831.80	227.53
832.11	227.50
832.43	227.50
832.75	227.49
833.06	227.78
833.38	227.60
833.69	227.55
834.01	227.53
834.32	227.49
834.64	227.50
834.96	227.48
835.27	227.46
835.59	227.30
835.90	227.27
836.22	227.29
836.53	227.15
836.85	227.12
837.16	227.63
837.48	227.65
837.79	227.75
838.11	227.77
838.42	227.78
838.74	227.84
839.05	227.81
839.37	227.80
839.68	227.50
840.00	227.51
840.31	227.56
840.63	227.58
840.94	227.55
841.26	227.52
841.57	227.59
841.88	227.64
842.20	227.57
842.51	227.53
842.83	227.52
843.14	227.94
843.46	227.89
843.77	227.58
844.08	227.57
844.40	227.42
844.71	227.38
845.03	227.35
845.34	227.31
845.65	227.25
845.97	227.17
846.28	227.19
846.60	227.16
846.91	227.13
847.22	227.06
847.54	227.10
847.85	227.06
848.16	226.96
848.48	226.85
848.79	227.03
849.10	227.01
849.42	227.02
849.73	226.61
850.04	226.65
850.36	226.47
850.67	226.51
850.98	226.48
851.30	226.53
851.61	226.46
851.92	226.43
852.23	226.53
852.55	226.63
852.86	226.65
853.17	226.76
853.49	226.80
853.80	226.85
854.11	226.95
854.42	226.98
854.74	226.93
855.05	226.91
855.36	226.61
855.67	226.64
855.99	226.64
856.30	227.15
856.61	227.08
856.92	227.08
857.23	227.07
857.55	227.04
857.86	226.93
858.17	227.03
858.48	226.94
858.79	226.87
859.11	226.88
859.42	226.85
859.73	226.73
860.04	226.69
860.35	226.53
860.66	226.35
860.98	226.28
861.29	226.37
861.60	226.37
861.91	226.54
862.22	226.47
862.53	226.39
862.84	225.86
863.16	226.02
863.47	225.97
863.78	225.97
864.09	226.05
864.40	226.15
864.71	226.15
865.02	226.29
865.33	226.20
865.64	226.08
865.95	226.04
866.27	226.37
866.58	226.34
866.89	226.45
867.20	226.43
867.51	226.45
867.82	226.46
868.13	226.53
868.44	226.42
868.75	226.40
869.06	226.45
869.37	226.54
869.68	226.43
869.99	226.59
870.30	226.57
870.61	226.58
870.92	226.54
871.23	226.50
871.54	226.55
871.85	226.63
872.16	226.70
872.47	226.74
872.78	226.44
873.09	226.49
873.40	226.43
873.71	226.53
874.02	226.54
874.33	226.53
874.64	226.47
874.95	226.60
875.26	226.57
875.56	226.56
875.87	226.55
876.18	226.54
876.49	226.97
876.80	226.95
877.11	226.86
877.42	226.90
877.73	226.90
878.04	226.82
878.35	226.85
878.66	226.95
878.96	226.91
879.27	226.89
879.58	226.89
879.89	226.87
880.20	226.99
880.51	226.93
880.82	226.94
881.12	227.02
881.43	226.85
881.74	226.86
882.05	226.80
882.36	226.85
882.67	226.80
882.97	226.32
883.28	226.29
883.59	226.35
883.90	226.39
884.21	226.55
884.51	226.47
884.82	226.43
885.13	226.38
885.44	226.43
885.74	226.46
886.05	226.40
886.36	226.42
886.67	226.30
886.98	226.60
887.28	226.56
887.59	226.58
887.90	226.65
888.20	226.68
888.51	226.77
888.82	226.69
889.13	226.69
889.43	227.04
889.74	227.02
890.05	226.96
890.35	226.90
890.66	226.70
890.97	226.70
891.28	226.71
891.58	226.65
891.89	226.61
892.20	226.57
892.50	226.55
892.81	226.54
893.12	226.45
893.42	226.27
893.73	226.33
894.04	226.30
894.34	226.31
894.65	226.21
894.95	226.11
895.26	226.14
895.57	226.48
895.87	226.00
896.18	226.08
896.48	226.15
896.79	226.14
897.10	226.26
897.40	226.27
897.71	226.29
898.01	226.31
898.32	226.35
898.63	226.32
898.93	226.35
899.24	226.35
899.54	226.38
899.85	226.27
900.15	226.19
900.46	226.15
900.76	226.16
901.07	226.17
901.38	226.17
901.68	226.17
901.99	225.80
902.29	225.86
902.60	225.83
902.90	225.74
903.21	225.72
903.51	225.73
903.82	225.77
904.12	225.72
904.43	225.76
904.73	225.67
905.03	225.70
905.34	226.12
905.64	226.03
905.95	226.07
906.25	226.12
906.56	226.12
906.86	226.05
907.17	226.00
907.47	226.06
907.77	226.00
908.08	225.85
908.38	225.94
908.69	225.92
908.99	226.05
909.30	226.15
909.60	226.18
909.90	226.16
910.21	226.06
910.51	225.95
910.81	226.01
911.12	226.13
911.42	226.15
911.73	225.67
912.03	225.77
912.33	225.75
912.64	225.70
912.94	225.75
913.24	225.70
913.55	225.72
913.85	225.71
914.15	225.87
914.46	226.01
914.76	226.01
915.06	225.99
915.37	225.78
915.67	225.71
915.97	225.75
916.27	225.62
916.58	225.66
916.88	225.75
917.18	225.68
917.49	225.98
917.79	225.97
918.09	225.99
918.39	226.18
918.70	226.25
919.00	226.27
919.30	226.40
919.60	226.42
919.91	226.38
920.21	226.34
920.51	226.29
920.81	226.29
921.12	226.35
921.42	226.35
921.72	226.45
922.02	226.49
922.32	226.56
922.63	226.53
922.93	226.73
923.23	226.78
923.53	226.68
923.83	226.42
924.13	226.42
924.44	226.43
924.74	226.40
925.04	226.51
925.34	226.55
925.64	226.38
925.94	226.39
926.24	226.64
926.55	226.67
926.85	226.74
927.15	226.70
927.45	226.71
927.75	226.77
928.05	226.78
928.35	226.79
928.65	226.73
928.95	226.82
929.26	226.74
929.56	226.78
929.86	226.92
930.16	226.87
930.46	226.90
930.76	227.03
931.06	226.83
931.36	226.66
931.66	226.70
931.96	226.80
932.26	226.82
932.56	226.62
932.86	226.63
933.16	226.63
933.46	226.64
933.76	226.55
934.06	226.69
934.36	226.85
934.66	226.84
934.96	226.83
935.26	226.81
935.56	226.78
935.86	226.70
936.16	226.64
936.46	226.62
936.76	226.58
937.06	226.50
937.36	226.59
937.66	226.62
937.96	226.60
938.26	226.43
938.56	226.42
938.86	226.41
939.16	226.52
939.46	226.51
939.76	226.47
940.06	226.46
940.35	226.30
940.65	226.09
940.95	226.10
941.25	225.99
941.55	225.92
941.85	225.90
942.15	225.97
942.45	226.10
942.75	226.01
943.04	226.03
943.34	226.04
943.64	225.99
943.94	225.92
944.24	225.98
944.54	226.08
944.84	226.14
945.13	226.14
945.43	226.02
945.73	226.05
946.03	226.00
946.33	226.03
946.62	226.01
946.92	225.98
947.22	226.03
947.52	226.04
947.82	226.13
948.11	226.02
948.41	225.97
948.71	225.80
949.01	225.89
949.31	225.87
949.60	225.87
949.90	225.89
950.20	225.85
950.50	225.77
950.79	225.71
951.09	225.77
951.39	225.74
951.69	225.73
951.98	225.78
952.28	225.90
952.58	225.80
952.87	225.80
953.17	225.82
953.47	225.78
953.76	225.81
954.06	225.74
954.36	225.76
954.66	225.68
954.95	225.78
955.25	225.83
955.55	225.85
955.84	225.72
956.14	225.77
956.44	225.87
956.73	225.82
957.03	225.79
957.32	225.69
957.62	225.64
957.92	225.71
958.21	225.68
958.51	226.19
958.81	226.32
959.10	226.32
959.40	226.43
959.69	226.40
959.99	226.47
960.29	226.52
960.58	226.45
960.88	226.71
961.17	226.65
961.47	226.55
961.76	226.53
962.06	226.62
962.36	226.51
962.65	226.44
962.95	226.49
963.24	226.42
963.54	226.48
963.83	226.48
964.13	226.49
964.42	226.31
964.72	225.88
965.01	225.86
965.31	225.82
965.60	225.72
965.90	226.00
966.19	225.88
966.49	225.88
966.78	225.91
967.08	225.80
967.37	225.80
967.67	225.80
967.96	225.84
968.26	225.85
968.55	225.95
968.85	226.03
969.14	226.02
969.43	226.09
969.73	226.03
970.02	226.12
970.32	226.06
970.61	226.09
970.91	225.95
971.20	225.83
971.49	225.89
971.79	225.94
972.08	225.64
972.38	225.73
972.67	225.70
972.96	225.81
973.26	225.76
973.55	225.97
973.85	226.01
974.14	226.04
974.43	226.10
974.73	226.02
975.02	225.96
975.31	225.93
975.61	225.91
975.90	225.87
976.19	225.71
976.49	225.67
976.78	225.70
977.07	225.72
977.37	225.78
977.66	225.75
977.95	225.59
978.24	225.57
978.54	225.64
978.83	225.59
979.12	225.56
979.42	225.52
979.71	225.42
980.00	225.41
980.29	225.37
980.59	225.25
980.88	225.39
981.17	225.33
981.46	225.39
981.76	225.40
982.05	225.56
982.34	225.64
982.63	225.68
982.93	225.69
983.22	225.83
983.51	225.89
983.80	225.95
984.09	226.08
984.39	226.08
984.68	225.96
984.97	225.94
985.26	225.88
985.55	225.93
985.85	225.77
986.14	225.77
986.43	225.85
986.72	225.83
987.01	225.70
987.30	225.76
987.59	225.72
987.89	225.73
988.18	225.57
988.47	225.57
988.76	225.53
989.05	225.54
989.34	225.43
989.63	225.51
989.92	225.45
990.22	225.41
990.51	225.40
990.80	225.37
991.09	225.49
991.38	225.56
991.67	225.50
991.96	225.46
992.25	225.44
992.54	225.33
992.83	225.31
993.12	225.28
993.41	225.33
993.70	225.38
993.99	225.45
994.28	225.49
994.58	225.63
994.87	225.63
995.16	225.53
995.45	225.54
995.74	225.39
996.03	225.44
996.32	225.55
996.61	225.67
996.90	225.71
997.19	225.63
997.48	225.58
997.77	225.50
998.06	225.58
998.34	225.58
998.63	225.64
998.92	225.70
999.21	225.76
999.50	225.77
999.79	225.73
1000.08	225.77
1000.37	225.80
1000.66	225.70
1000.95	225.72
1001.24	225.82
1001.53	225.87
1001.82	225.85
1002.11	225.74
1002.40	225.84
1002.68	226.05
1002.97	226.37
1003.26	226.34
1003.55	226.33
1003.84	226.42
1004.13	226.57
1004.42	226.55
1004.71	226.44
1004.99	226.41
1005.28	226.54
1005.57	226.49
1005.86	226.44
1006.15	226.33
1006.44	226.30
1006.72	226.37
1007.01	226.33
1007.30	226.27
1007.59	226.23
1007.88	226.18
1008.17	226.24
1008.45	226.03
1008.74	225.77
1009.03	225.57
1009.32	225.58
1009.60	225.55
1009.89	225.56
1010.18	225.39
1010.47	225.36
1010.76	225.42
1011.04	225.40
1011.33	225.39
1011.62	225.42
1011.91	225.47
1012.19	225.53
1012.48	225.51
1012.77	225.48
1013.05	225.83
1013.34	225.82
1013.63	225.71
1013.92	225.80
1014.20	225.80
1014.49	225.81
1014.78	225.81
1015.06	225.65
1015.35	225.71
1015.64	225.83
1015.92	225.88
1016.21	225.84
1016.50	225.87
1016.78	225.91
1017.07	225.96
1017.36	225.87
1017.64	225.81
1017.93	225.85
1018.22	225.82
1018.50	225.85
1018.79	225.77
1019.08	225.40
1019.36	225.52
1019.65	225.58
1019.93	225.70
1020.22	225.75
1020.51	226.02
1020.79	225.98
1021.08	225.85
1021.36	225.35
1021.65	224.60
1021.94	224.05
1022.22	227.05
1022.51	225.50
1022.79	227.80
1023.08	226.65
1023.36	231.05
1023.65	224.80
>>>>>End Processed Spectral Data<<<<<
