SpectraSuite Data File
++++++++++++++++++++++++++++++++++++
Date: Wed Sep 04 18:00:31 EDT 2013
User: lab3
Dark Spectrum Present: Yes
Reference Spectrum Present: No
Number of Sampled Component Spectra: 1
Spectrometers: USB2E7196
Integration Time (usec): 170000 (USB2E7196)
Spectra Averaged: 20 (USB2E7196)
Boxcar Smoothing: 10 (USB2E7196)
Correct for Electrical Dark: No (USB2E7196)
Strobe/Lamp Enabled: No (USB2E7196)
Correct for Detector Non-linearity: No (USB2E7196)
Correct for Stray Light: No (USB2E7196)
Number of Pixels in Processed Spectrum: 2048
>>>>>Begin Processed Spectral Data<<<<<
339.09	0.00
339.48	211.80
339.86	215.65
340.24	216.55
340.63	217.45
341.01	226.50
341.39	221.25
341.78	221.60
342.16	223.05
342.54	224.20
342.93	212.56
343.31	223.28
343.69	223.91
344.07	224.31
344.46	224.71
344.84	225.16
345.22	225.12
345.60	225.32
345.99	225.51
346.37	225.66
346.75	225.75
347.13	225.76
347.52	225.88
347.90	226.02
348.28	226.01
348.66	226.16
349.05	226.10
349.43	226.16
349.81	226.15
350.19	226.22
350.57	226.33
350.96	226.44
351.34	226.55
351.72	226.66
352.10	226.81
352.48	226.89
352.87	226.89
353.25	226.99
353.63	227.03
354.01	227.09
354.39	227.19
354.77	227.24
355.15	227.53
355.54	227.49
355.92	227.44
356.30	227.48
356.68	227.83
357.06	227.91
357.44	227.90
357.82	228.02
358.20	228.41
358.58	228.46
358.97	228.49
359.35	228.65
359.73	228.79
360.11	228.84
360.49	228.92
360.87	228.86
361.25	228.97
361.63	229.18
362.01	229.27
362.39	229.26
362.77	229.33
363.15	229.35
363.53	229.42
363.91	229.51
364.29	229.69
364.67	229.21
365.05	229.30
365.43	229.39
365.81	229.47
366.19	229.39
366.57	229.55
366.95	229.58
367.33	229.49
367.71	229.49
368.09	229.57
368.47	229.52
368.85	229.60
369.23	229.69
369.61	229.53
369.99	229.74
370.37	229.79
370.75	230.03
371.13	229.86
371.51	229.71
371.89	229.72
372.27	229.60
372.65	229.69
373.03	229.68
373.41	229.50
373.78	229.40
374.16	229.07
374.54	228.87
374.92	228.77
375.30	228.72
375.68	228.50
376.06	228.43
376.44	228.41
376.82	228.44
377.19	228.26
377.57	228.21
377.95	227.94
378.33	227.81
378.71	227.41
379.09	227.45
379.47	227.49
379.84	227.27
380.22	227.11
380.60	226.96
380.98	226.85
381.36	226.91
381.73	226.84
382.11	226.90
382.49	226.82
382.87	226.74
383.25	226.62
383.62	227.19
384.00	227.03
384.38	226.94
384.76	226.96
385.13	227.09
385.51	227.04
385.89	226.93
386.27	226.93
386.64	226.94
387.02	226.81
387.40	226.76
387.78	226.80
388.15	226.85
388.53	226.81
388.91	226.73
389.29	226.66
389.66	226.76
390.04	226.62
390.42	226.73
390.79	226.70
391.17	226.67
391.55	226.11
391.92	226.10
392.30	226.19
392.68	226.04
393.05	226.09
393.43	226.12
393.81	226.13
394.18	226.10
394.56	226.19
394.94	226.32
395.31	226.27
395.69	226.44
396.06	226.54
396.44	226.67
396.82	226.64
397.19	226.91
397.57	226.78
397.95	226.98
398.32	226.93
398.70	227.06
399.07	227.28
399.45	227.36
399.82	227.51
400.20	227.57
400.58	227.70
400.95	227.60
401.33	227.73
401.70	228.19
402.08	228.33
402.45	228.47
402.83	228.73
403.20	228.95
403.58	229.12
403.95	229.32
404.33	229.52
404.71	229.81
405.08	230.26
405.46	230.52
405.83	230.80
406.21	231.00
406.58	231.27
406.96	231.52
407.33	231.84
407.70	232.23
408.08	232.92
408.45	233.41
408.83	233.91
409.20	234.32
409.58	234.45
409.95	234.99
410.33	235.54
410.70	235.94
411.08	236.56
411.45	237.13
411.82	237.68
412.20	238.40
412.57	239.40
412.95	239.72
413.32	240.67
413.69	241.46
414.07	242.42
414.44	243.44
414.82	244.52
415.19	245.81
415.56	246.99
415.94	248.03
416.31	249.43
416.68	250.81
417.06	252.47
417.43	254.09
417.81	255.91
418.18	257.70
418.55	259.60
418.93	261.67
419.30	263.83
419.67	266.17
420.04	268.44
420.42	270.71
420.79	273.85
421.16	276.60
421.54	279.67
421.91	282.62
422.28	285.74
422.66	289.00
423.03	292.40
423.40	295.84
423.77	299.45
424.15	303.08
424.52	306.87
424.89	311.10
425.26	315.11
425.64	318.85
426.01	323.15
426.38	327.59
426.75	332.06
427.13	336.60
427.50	341.33
427.87	346.32
428.24	351.34
428.61	355.85
428.99	361.18
429.36	366.73
429.73	372.30
430.10	377.84
430.47	383.45
430.85	389.02
431.22	395.13
431.59	401.84
431.96	408.09
432.33	415.06
432.70	421.66
433.08	429.63
433.45	437.06
433.82	444.50
434.19	452.74
434.56	461.00
434.93	468.68
435.30	476.59
435.68	485.27
436.05	493.81
436.42	502.33
436.79	510.03
437.16	518.46
437.53	527.48
437.90	536.23
438.27	545.16
438.64	554.30
439.01	562.78
439.38	570.14
439.75	577.31
440.13	585.41
440.50	593.16
440.87	599.24
441.24	605.84
441.61	612.80
441.98	617.88
442.35	623.62
442.72	629.58
443.09	635.40
443.46	638.65
443.83	640.89
444.20	642.66
444.57	645.51
444.94	646.55
445.31	647.54
445.68	648.88
446.05	648.71
446.42	647.34
446.79	645.76
447.16	644.13
447.53	642.92
447.90	639.18
448.27	635.31
448.64	630.40
449.01	626.56
449.37	620.18
449.74	614.13
450.11	607.28
450.48	599.65
450.85	591.51
451.22	584.76
451.59	578.06
451.96	571.78
452.33	563.57
452.70	556.21
453.07	547.42
453.43	538.32
453.80	530.03
454.17	521.93
454.54	514.21
454.91	505.90
455.28	497.75
455.65	490.15
456.02	483.32
456.38	477.00
456.75	469.27
457.12	462.81
457.49	456.45
457.86	449.99
458.23	444.74
458.59	439.09
458.96	433.24
459.33	428.06
459.70	422.80
460.07	418.66
460.43	413.85
460.80	409.62
461.17	405.77
461.54	401.65
461.91	397.75
462.27	393.87
462.64	390.61
463.01	387.13
463.38	383.95
463.74	379.93
464.11	376.84
464.48	374.10
464.85	371.32
465.21	369.24
465.58	366.94
465.95	364.09
466.32	361.77
466.68	359.46
467.05	357.35
467.42	355.25
467.78	352.98
468.15	350.91
468.52	349.30
468.88	347.12
469.25	345.23
469.62	343.85
469.98	342.26
470.35	340.70
470.72	339.16
471.08	337.37
471.45	336.04
471.82	334.82
472.18	333.35
472.55	332.25
472.92	330.84
473.28	329.75
473.65	328.69
474.02	327.52
474.38	326.71
474.75	325.80
475.11	324.86
475.48	324.13
475.85	323.43
476.21	322.62
476.58	322.15
476.94	321.77
477.31	321.25
477.67	320.73
478.04	320.39
478.41	320.22
478.77	320.56
479.14	320.32
479.50	320.11
479.87	320.17
480.23	320.15
480.60	320.14
480.96	320.08
481.33	320.46
481.69	320.82
482.06	320.99
482.42	321.34
482.79	321.69
483.15	322.06
483.52	322.65
483.88	323.27
484.25	323.84
484.61	324.49
484.98	325.02
485.34	325.89
485.71	326.85
486.07	327.81
486.44	328.30
486.80	329.29
487.17	330.31
487.53	331.66
487.90	333.08
488.26	334.68
488.62	336.43
488.99	337.85
489.35	339.56
489.72	341.48
490.08	343.47
490.44	345.60
490.81	347.92
491.17	350.10
491.54	352.51
491.90	355.07
492.26	357.70
492.63	360.67
492.99	363.66
493.36	366.73
493.72	370.05
494.08	373.55
494.45	377.40
494.81	381.42
495.17	385.38
495.54	389.64
495.90	393.91
496.26	398.32
496.63	403.08
496.99	407.98
497.35	413.10
497.72	418.39
498.08	423.83
498.44	429.64
498.80	435.81
499.17	441.95
499.53	448.27
499.89	454.98
500.26	461.87
500.62	468.87
500.98	476.33
501.34	483.80
501.71	491.53
502.07	499.39
502.43	507.58
502.79	515.93
503.16	524.49
503.52	533.59
503.88	542.96
504.24	552.58
504.60	562.60
504.97	572.96
505.33	583.51
505.69	594.70
506.05	605.62
506.41	616.87
506.78	628.65
507.14	640.71
507.50	653.21
507.86	665.92
508.22	678.99
508.59	692.07
508.95	705.84
509.31	720.12
509.67	734.43
510.03	748.81
510.39	763.71
510.75	778.91
511.12	794.12
511.48	809.87
511.84	825.88
512.20	841.92
512.56	858.25
512.92	874.90
513.28	891.76
513.64	909.08
514.00	926.70
514.37	944.41
514.73	962.44
515.09	980.42
515.45	998.82
515.81	1017.33
516.17	1036.23
516.53	1054.88
516.89	1073.51
517.25	1093.07
517.61	1113.15
517.97	1133.34
518.33	1153.49
518.69	1173.87
519.05	1194.35
519.41	1215.07
519.77	1236.12
520.13	1257.01
520.49	1277.76
520.85	1300.27
521.21	1321.64
521.57	1342.95
521.93	1363.98
522.29	1385.30
522.65	1406.16
523.01	1427.08
523.37	1447.85
523.73	1468.92
524.09	1489.83
524.45	1510.93
524.81	1531.83
525.17	1552.83
525.53	1573.54
525.89	1594.23
526.25	1615.34
526.61	1636.04
526.97	1657.06
527.33	1678.51
527.68	1700.20
528.04	1721.73
528.40	1741.11
528.76	1761.82
529.12	1782.27
529.48	1803.11
529.84	1823.18
530.20	1844.58
530.56	1865.66
530.91	1886.86
531.27	1907.45
531.63	1928.02
531.99	1948.73
532.35	1968.94
532.71	1989.25
533.07	2010.15
533.42	2030.41
533.78	2050.49
534.14	2070.49
534.50	2089.78
534.86	2108.91
535.21	2126.64
535.57	2145.09
535.93	2163.05
536.29	2181.27
536.65	2199.63
537.00	2217.37
537.36	2235.44
537.72	2252.16
538.08	2269.38
538.44	2285.97
538.79	2302.86
539.15	2319.27
539.51	2335.25
539.87	2350.40
540.22	2364.75
540.58	2378.95
540.94	2392.41
541.29	2405.03
541.65	2417.55
542.01	2430.40
542.37	2440.85
542.72	2451.65
543.08	2462.61
543.44	2474.35
543.79	2484.55
544.15	2494.39
544.51	2504.39
544.87	2514.12
545.22	2522.97
545.58	2530.33
545.94	2537.56
546.29	2543.92
546.65	2550.60
547.01	2556.02
547.36	2561.93
547.72	2567.13
548.07	2571.31
548.43	2576.93
548.79	2581.99
549.14	2586.03
549.50	2589.65
549.86	2594.12
550.21	2598.27
550.57	2601.59
550.92	2603.03
551.28	2604.22
551.64	2606.53
551.99	2608.61
552.35	2610.27
552.70	2612.45
553.06	2614.53
553.41	2615.71
553.77	2617.57
554.13	2619.20
554.48	2621.05
554.84	2622.38
555.19	2623.90
555.55	2625.58
555.90	2624.53
556.26	2623.34
556.61	2621.78
556.97	2619.68
557.32	2619.11
557.68	2617.82
558.03	2616.53
558.39	2615.21
558.74	2614.59
559.10	2611.54
559.45	2608.12
559.81	2603.45
560.16	2598.19
560.52	2593.01
560.87	2588.93
561.23	2583.27
561.58	2577.38
561.94	2570.40
562.29	2563.04
562.64	2555.73
563.00	2547.74
563.35	2541.53
563.71	2535.21
564.06	2529.13
564.42	2522.78
564.77	2515.76
565.12	2508.51
565.48	2500.61
565.83	2492.75
566.19	2484.68
566.54	2477.00
566.89	2468.86
567.25	2461.29
567.60	2454.01
567.96	2446.99
568.31	2439.03
568.66	2430.50
569.02	2421.40
569.37	2413.28
569.72	2406.01
570.08	2396.96
570.43	2387.24
570.78	2377.97
571.14	2368.39
571.49	2358.39
571.84	2348.54
572.20	2337.40
572.55	2327.28
572.90	2316.45
573.26	2306.10
573.61	2294.82
573.96	2283.56
574.31	2271.70
574.67	2260.01
575.02	2247.27
575.37	2234.21
575.72	2221.04
576.08	2208.75
576.43	2196.20
576.78	2183.12
577.13	2168.76
577.49	2156.11
577.84	2144.49
578.19	2132.32
578.54	2119.49
578.90	2107.33
579.25	2095.10
579.60	2082.80
579.95	2069.67
580.30	2056.44
580.66	2042.88
581.01	2029.43
581.36	2015.38
581.71	2002.45
582.06	1989.33
582.42	1976.70
582.77	1964.19
583.12	1952.15
583.47	1939.64
583.82	1927.64
584.17	1915.67
584.53	1903.91
584.88	1890.91
585.23	1877.33
585.58	1863.10
585.93	1849.86
586.28	1836.41
586.63	1822.20
586.98	1807.77
587.34	1794.55
587.69	1781.13
588.04	1768.94
588.39	1756.85
588.74	1744.70
589.09	1732.57
589.44	1719.86
589.79	1707.98
590.14	1695.94
590.49	1683.64
590.84	1671.50
591.19	1659.23
591.54	1646.75
591.89	1634.52
592.25	1624.18
592.60	1612.42
592.95	1600.86
593.30	1588.90
593.65	1576.64
594.00	1564.47
594.35	1554.62
594.70	1542.82
595.05	1531.39
595.40	1518.83
595.75	1506.59
596.10	1495.23
596.45	1483.62
596.80	1472.58
597.15	1460.58
597.50	1448.53
597.85	1436.88
598.19	1425.16
598.54	1413.33
598.89	1401.95
599.24	1391.42
599.59	1379.68
599.94	1368.97
600.29	1358.56
600.64	1348.25
600.99	1337.84
601.34	1328.59
601.69	1317.31
602.04	1307.44
602.39	1297.72
602.74	1288.76
603.08	1279.47
603.43	1269.96
603.78	1260.03
604.13	1250.29
604.48	1240.45
604.83	1230.98
605.18	1221.18
605.53	1211.79
605.87	1202.81
606.22	1194.18
606.57	1184.65
606.92	1174.91
607.27	1165.96
607.62	1157.09
607.96	1148.27
608.31	1140.16
608.66	1131.44
609.01	1122.85
609.36	1114.02
609.70	1105.49
610.05	1096.51
610.40	1087.96
610.75	1079.32
611.10	1070.99
611.44	1062.27
611.79	1054.33
612.14	1046.20
612.49	1038.21
612.83	1030.70
613.18	1022.81
613.53	1014.95
613.88	1006.93
614.22	999.38
614.57	991.34
614.92	983.30
615.27	975.80
615.61	967.85
615.96	960.27
616.31	952.70
616.65	945.51
617.00	938.02
617.35	930.80
617.70	923.49
618.04	916.09
618.39	909.12
618.74	902.76
619.08	895.85
619.43	888.93
619.78	881.92
620.12	874.72
620.47	867.70
620.82	860.63
621.16	853.72
621.51	847.22
621.85	840.76
622.20	834.17
622.55	827.54
622.89	821.07
623.24	814.58
623.59	808.23
623.93	801.92
624.28	795.88
624.62	790.15
624.97	784.37
625.32	778.81
625.66	772.89
626.01	766.65
626.35	761.03
626.70	755.41
627.04	750.29
627.39	744.54
627.73	739.36
628.08	733.96
628.43	728.60
628.77	723.09
629.12	717.78
629.46	713.00
629.81	708.11
630.15	703.50
630.50	698.40
630.84	693.42
631.19	688.49
631.53	683.83
631.88	678.49
632.22	673.64
632.57	668.87
632.91	664.09
633.26	659.57
633.60	654.86
633.95	650.10
634.29	645.14
634.64	640.70
634.98	635.85
635.32	631.44
635.67	627.39
636.01	623.05
636.36	618.70
636.70	614.56
637.05	610.32
637.39	605.97
637.73	602.00
638.08	598.06
638.42	593.82
638.77	589.45
639.11	585.19
639.45	580.71
639.80	576.35
640.14	572.10
640.49	568.03
640.83	564.28
641.17	560.56
641.52	556.83
641.86	553.30
642.20	550.03
642.55	546.40
642.89	542.69
643.23	539.38
643.58	536.18
643.92	532.52
644.26	529.10
644.61	525.77
644.95	522.30
645.29	518.99
645.64	515.86
645.98	512.72
646.32	509.90
646.66	506.76
647.01	503.89
647.35	501.18
647.69	498.28
648.04	495.47
648.38	492.60
648.72	489.72
649.06	486.65
649.41	483.56
649.75	480.55
650.09	477.77
650.43	474.83
650.78	471.97
651.12	469.10
651.46	466.09
651.80	463.30
652.14	460.59
652.49	457.87
652.83	455.25
653.17	452.55
653.51	449.72
653.85	447.37
654.20	444.79
654.54	442.19
654.88	439.68
655.22	437.38
655.56	434.99
655.90	432.55
656.25	430.27
656.59	427.98
656.93	425.77
657.27	423.63
657.61	421.18
657.95	418.96
658.29	416.72
658.64	414.74
658.98	412.46
659.32	410.23
659.66	408.04
660.00	405.93
660.34	403.93
660.68	401.95
661.02	399.87
661.36	397.93
661.70	395.80
662.05	393.80
662.39	391.68
662.73	389.85
663.07	388.30
663.41	386.36
663.75	384.44
664.09	382.59
664.43	380.62
664.77	379.02
665.11	377.23
665.45	375.55
665.79	373.92
666.13	372.30
666.47	370.60
666.81	369.04
667.15	367.32
667.49	365.79
667.83	364.34
668.17	362.82
668.51	361.34
668.85	360.10
669.19	358.96
669.53	357.45
669.87	355.89
670.21	354.25
670.55	352.92
670.89	351.82
671.23	350.40
671.57	348.95
671.91	347.48
672.25	346.12
672.58	344.96
672.92	343.53
673.26	342.22
673.60	341.08
673.94	339.88
674.28	338.81
674.62	337.72
674.96	336.40
675.30	335.24
675.64	334.05
675.97	332.84
676.31	331.42
676.65	330.21
676.99	329.29
677.33	328.16
677.67	327.08
678.01	325.69
678.34	324.70
678.68	323.86
679.02	322.90
679.36	321.92
679.70	320.85
680.04	319.91
680.37	318.94
680.71	317.93
681.05	317.00
681.39	316.02
681.73	314.95
682.06	314.11
682.40	313.27
682.74	312.39
683.08	311.69
683.42	310.85
683.75	310.02
684.09	308.97
684.43	308.21
684.77	307.45
685.10	306.71
685.44	305.88
685.78	304.95
686.12	304.15
686.45	303.34
686.79	302.49
687.13	301.80
687.46	300.96
687.80	300.33
688.14	299.41
688.48	298.72
688.81	297.99
689.15	297.33
689.49	296.55
689.82	295.83
690.16	294.94
690.50	294.15
690.83	293.55
691.17	292.80
691.51	292.12
691.84	291.38
692.18	290.62
692.52	290.03
692.85	289.40
693.19	288.88
693.52	288.24
693.86	287.56
694.20	286.81
694.53	286.23
694.87	285.64
695.21	284.97
695.54	284.28
695.88	283.62
696.21	282.79
696.55	282.14
696.88	281.56
697.22	280.93
697.56	280.48
697.89	279.76
698.23	279.24
698.56	278.60
698.90	278.17
699.23	277.64
699.57	277.02
699.90	276.46
700.24	275.85
700.58	275.32
700.91	274.86
701.25	274.75
701.58	274.59
701.92	274.11
702.25	273.77
702.59	273.23
702.92	272.83
703.26	272.45
703.59	272.01
703.93	271.97
704.26	271.55
704.60	271.13
704.93	270.69
705.26	270.20
705.60	269.81
705.93	269.21
706.27	268.98
706.60	268.67
706.94	268.46
707.27	268.04
707.61	267.66
707.94	267.28
708.27	266.51
708.61	265.75
708.94	265.32
709.28	264.93
709.61	264.55
709.94	264.19
710.28	263.87
710.61	263.59
710.95	262.76
711.28	262.76
711.61	262.23
711.95	262.05
712.28	261.61
712.61	261.22
712.95	261.10
713.28	260.99
713.61	260.58
713.95	260.13
714.28	259.75
714.61	259.48
714.95	259.21
715.28	258.86
715.61	258.59
715.95	258.28
716.28	257.90
716.61	257.73
716.95	257.41
717.28	257.10
717.61	256.75
717.94	256.53
718.28	255.95
718.61	255.77
718.94	255.41
719.27	255.22
719.61	255.04
719.94	254.68
720.27	254.09
720.60	253.82
720.94	253.59
721.27	253.36
721.60	253.14
721.93	252.81
722.27	252.82
722.60	252.69
722.93	252.40
723.26	252.32
723.59	252.08
723.93	251.93
724.26	251.78
724.59	251.55
724.92	251.33
725.25	251.20
725.59	250.98
725.92	250.78
726.25	250.69
726.58	250.48
726.91	250.30
727.24	250.25
727.57	250.04
727.91	249.76
728.24	249.63
728.57	249.38
728.90	249.30
729.23	248.90
729.56	248.95
729.89	248.80
730.22	248.56
730.55	248.32
730.89	248.10
731.22	247.86
731.55	247.75
731.88	247.60
732.21	247.34
732.54	247.10
732.87	246.90
733.20	246.71
733.53	246.56
733.86	246.44
734.19	246.10
734.52	246.04
734.85	246.21
735.18	246.00
735.51	245.98
735.84	245.77
736.17	245.80
736.50	245.27
736.83	245.66
737.16	245.55
737.49	245.44
737.82	245.29
738.15	245.21
738.48	245.00
738.81	244.75
739.14	244.58
739.47	244.45
739.80	244.32
740.13	244.18
740.46	243.93
740.79	243.69
741.12	243.63
741.45	243.30
741.78	242.89
742.11	242.90
742.44	242.66
742.77	242.59
743.10	242.31
743.43	242.22
743.75	241.51
744.08	241.93
744.41	241.80
744.74	241.63
745.07	241.38
745.40	241.33
745.73	241.40
746.06	241.25
746.39	241.19
746.71	241.03
747.04	240.83
747.37	240.73
747.70	240.67
748.03	240.49
748.36	240.54
748.68	240.41
749.01	240.19
749.34	240.06
749.67	239.92
750.00	239.89
750.33	240.08
750.65	240.06
750.98	239.35
751.31	239.18
751.64	239.09
751.97	239.17
752.29	239.06
752.62	238.79
752.95	238.65
753.28	238.44
753.60	238.29
753.93	238.30
754.26	238.24
754.59	237.96
754.91	237.83
755.24	237.63
755.57	237.51
755.90	237.38
756.22	237.21
756.55	237.04
756.88	236.87
757.20	236.51
757.53	236.30
757.86	236.18
758.19	236.14
758.51	236.03
758.84	235.76
759.17	235.55
759.49	235.52
759.82	235.66
760.15	235.66
760.47	235.55
760.80	235.36
761.13	235.28
761.45	235.27
761.78	235.22
762.11	235.16
762.43	235.04
762.76	234.92
763.08	234.89
763.41	234.97
763.74	234.91
764.06	234.82
764.39	234.69
764.71	234.75
765.04	234.62
765.37	234.50
765.69	234.42
766.02	234.38
766.34	234.18
766.67	233.91
767.00	233.89
767.32	234.14
767.65	234.35
767.97	234.24
768.30	234.15
768.62	234.14
768.95	234.03
769.27	234.00
769.60	234.04
769.92	233.94
770.25	233.68
770.57	233.51
770.90	233.43
771.22	233.36
771.55	233.22
771.87	233.21
772.20	233.17
772.52	233.57
772.85	234.10
773.17	234.05
773.50	233.97
773.82	233.88
774.15	233.56
774.47	233.23
774.80	233.16
775.12	233.10
775.45	233.04
775.77	233.07
776.09	233.05
776.42	232.91
776.74	232.99
777.07	232.95
777.39	232.98
777.72	233.00
778.04	233.04
778.36	232.90
778.69	232.82
779.01	232.84
779.33	232.39
779.66	231.83
779.98	231.85
780.31	231.83
780.63	232.00
780.95	232.10
781.28	232.04
781.60	232.02
781.92	231.99
782.25	231.91
782.57	231.93
782.89	231.84
783.22	231.78
783.54	231.65
783.86	231.63
784.19	231.58
784.51	231.65
784.83	231.54
785.16	231.60
785.48	231.63
785.80	231.57
786.12	231.55
786.45	231.50
786.77	231.50
787.09	231.42
787.42	231.18
787.74	231.16
788.06	231.18
788.38	231.12
788.71	231.00
789.03	230.99
789.35	230.95
789.67	230.84
789.99	230.86
790.32	230.74
790.64	230.79
790.96	231.11
791.28	230.94
791.61	230.88
791.93	230.86
792.25	230.75
792.57	231.06
792.89	230.92
793.21	230.97
793.54	230.86
793.86	230.83
794.18	230.85
794.50	230.73
794.82	230.72
795.14	230.80
795.47	230.95
795.79	230.95
796.11	230.84
796.43	230.89
796.75	230.94
797.07	230.97
797.39	230.91
797.71	230.58
798.04	230.57
798.36	230.59
798.68	230.56
799.00	230.58
799.32	230.25
799.64	230.28
799.96	230.17
800.28	230.22
800.60	230.21
800.92	230.24
801.24	230.14
801.56	230.06
801.89	229.96
802.21	229.91
802.53	229.79
802.85	229.81
803.17	229.93
803.49	229.78
803.81	229.73
804.13	229.66
804.45	229.56
804.77	229.51
805.09	229.42
805.41	229.25
805.73	229.17
806.05	229.06
806.37	229.02
806.69	228.98
807.01	228.89
807.33	228.86
807.65	228.60
807.97	228.84
808.28	228.79
808.60	228.71
808.92	228.59
809.24	228.82
809.56	228.71
809.88	228.51
810.20	228.50
810.52	228.55
810.84	228.51
811.16	228.38
811.48	228.36
811.80	228.51
812.12	228.55
812.43	228.61
812.75	228.65
813.07	228.57
813.39	228.57
813.71	228.52
814.03	228.54
814.35	228.55
814.67	228.31
814.98	228.22
815.30	228.20
815.62	228.15
815.94	227.89
816.26	228.15
816.58	228.09
816.89	228.10
817.21	228.01
817.53	228.00
817.85	228.09
818.17	228.07
818.48	227.90
818.80	227.95
819.12	227.89
819.44	227.83
819.76	227.79
820.07	227.90
820.39	227.92
820.71	227.90
821.03	227.94
821.34	227.94
821.66	228.05
821.98	228.07
822.30	227.98
822.61	228.29
822.93	228.01
823.25	228.01
823.57	228.03
823.88	228.13
824.20	228.13
824.52	228.20
824.83	228.13
825.15	228.22
825.47	228.18
825.79	228.21
826.10	228.16
826.42	228.16
826.74	228.08
827.05	228.11
827.37	228.18
827.69	228.19
828.00	228.20
828.32	228.24
828.64	228.25
828.95	228.61
829.27	228.44
829.58	228.45
829.90	228.53
830.22	228.46
830.53	228.37
830.85	228.30
831.17	228.24
831.48	228.27
831.80	228.19
832.11	228.21
832.43	228.15
832.75	228.13
833.06	228.49
833.38	228.37
833.69	228.30
834.01	228.20
834.32	228.21
834.64	228.17
834.96	228.12
835.27	228.05
835.59	227.83
835.90	227.82
836.22	227.81
836.53	227.78
836.85	227.81
837.16	228.22
837.48	228.25
837.79	228.32
838.11	228.35
838.42	228.33
838.74	228.37
839.05	228.38
839.37	228.40
839.68	228.01
840.00	227.95
840.31	227.95
840.63	227.87
840.94	227.74
841.26	227.67
841.57	227.62
841.88	227.72
842.20	227.64
842.51	227.54
842.83	227.50
843.14	227.84
843.46	227.79
843.77	227.48
844.08	227.45
844.40	227.29
844.71	227.21
845.03	227.14
845.34	227.02
845.65	226.95
845.97	226.91
846.28	226.95
846.60	227.00
846.91	226.93
847.22	226.90
847.54	227.04
847.85	227.11
848.16	227.06
848.48	226.96
848.79	227.17
849.10	227.19
849.42	227.28
849.73	226.85
850.04	226.85
850.36	226.73
850.67	226.78
850.98	226.86
851.30	226.91
851.61	226.90
851.92	226.96
852.23	227.09
852.55	227.11
852.86	227.14
853.17	227.19
853.49	227.31
853.80	227.43
854.11	227.46
854.42	227.56
854.74	227.60
855.05	227.58
855.36	227.33
855.67	227.32
855.99	227.30
856.30	227.84
856.61	227.81
856.92	227.84
857.23	227.86
857.55	227.80
857.86	227.71
858.17	227.80
858.48	227.73
858.79	227.58
859.11	227.63
859.42	227.60
859.73	227.53
860.04	227.53
860.35	227.46
860.66	227.27
860.98	227.10
861.29	227.11
861.60	227.09
861.91	227.19
862.22	227.10
862.53	227.00
862.84	226.46
863.16	226.61
863.47	226.49
863.78	226.41
864.09	226.45
864.40	226.55
864.71	226.54
865.02	226.62
865.33	226.56
865.64	226.55
865.95	226.54
866.27	226.84
866.58	226.82
866.89	226.87
867.20	226.90
867.51	226.88
867.82	226.91
868.13	227.03
868.44	226.97
868.75	227.11
869.06	227.18
869.37	227.20
869.68	227.00
869.99	227.04
870.30	227.06
870.61	227.10
870.92	226.98
871.23	226.96
871.54	227.03
871.85	227.20
872.16	227.22
872.47	227.23
872.78	226.99
873.09	227.01
873.40	226.95
873.71	226.95
874.02	226.99
874.33	226.85
874.64	226.73
874.95	226.76
875.26	226.62
875.56	226.64
875.87	226.62
876.18	226.62
876.49	227.11
876.80	227.09
877.11	227.03
877.42	227.09
877.73	227.12
878.04	227.05
878.35	227.00
878.66	227.03
878.96	227.00
879.27	226.98
879.58	226.94
879.89	226.90
880.20	227.09
880.51	227.10
880.82	227.21
881.12	227.28
881.43	227.19
881.74	227.23
882.05	227.21
882.36	227.21
882.67	227.29
882.97	226.79
883.28	226.79
883.59	226.71
883.90	226.75
884.21	226.78
884.51	226.70
884.82	226.65
885.13	226.54
885.44	226.52
885.74	226.50
886.05	226.55
886.36	226.57
886.67	226.44
886.98	226.66
887.28	226.65
887.59	226.62
887.90	226.72
888.20	226.64
888.51	226.60
888.82	226.60
889.13	226.58
889.43	226.93
889.74	226.89
890.05	226.88
890.35	226.86
890.66	226.79
890.97	226.82
891.28	226.79
891.58	226.79
891.89	226.81
892.20	226.78
892.50	226.71
892.81	226.65
893.12	226.60
893.42	226.33
893.73	226.33
894.04	226.39
894.34	226.43
894.65	226.47
894.95	226.50
895.26	226.45
895.57	226.71
895.87	226.28
896.18	226.38
896.48	226.48
896.79	226.44
897.10	226.54
897.40	226.52
897.71	226.64
898.01	226.65
898.32	226.75
898.63	226.75
898.93	226.78
899.24	226.83
899.54	226.79
899.85	226.85
900.15	226.80
900.46	226.78
900.76	226.78
901.07	226.70
901.38	226.77
901.68	226.96
901.99	226.74
902.29	226.83
902.60	226.81
902.90	226.78
903.21	226.83
903.51	226.79
903.82	226.90
904.12	226.87
904.43	226.95
904.73	226.93
905.03	227.00
905.34	227.42
905.64	227.45
905.95	227.48
906.25	227.45
906.56	227.48
906.86	227.46
907.17	227.41
907.47	227.50
907.77	227.42
908.08	227.24
908.38	227.31
908.69	227.33
908.99	227.40
909.30	227.44
909.60	227.43
909.90	227.44
910.21	227.36
910.51	227.30
910.81	227.35
911.12	227.39
911.42	227.37
911.73	226.95
912.03	227.00
912.33	227.15
912.64	227.15
912.94	227.17
913.24	227.14
913.55	227.09
913.85	227.01
914.15	227.15
914.46	227.17
914.76	227.12
915.06	227.12
915.37	227.01
915.67	227.01
915.97	226.98
916.27	226.86
916.58	226.84
916.88	226.82
917.18	226.74
917.49	227.03
917.79	227.02
918.09	227.04
918.39	227.12
918.70	227.05
919.00	227.11
919.30	227.24
919.60	227.25
919.91	227.22
920.21	227.28
920.51	227.09
920.81	227.07
921.12	227.07
921.42	227.02
921.72	227.08
922.02	227.07
922.32	227.15
922.63	227.21
922.93	227.43
923.23	227.41
923.53	227.34
923.83	227.00
924.13	227.02
924.44	227.00
924.74	227.06
925.04	227.11
925.34	227.02
925.64	226.88
925.94	226.76
926.24	227.04
926.55	227.03
926.85	227.13
927.15	227.17
927.45	227.21
927.75	227.22
928.05	227.25
928.35	227.21
928.65	227.23
928.95	227.25
929.26	227.11
929.56	227.31
929.86	227.38
930.16	227.35
930.46	227.31
930.76	227.29
931.06	227.09
931.36	226.97
931.66	227.08
931.96	227.13
932.26	227.21
932.56	227.00
932.86	227.07
933.16	227.03
933.46	226.97
933.76	226.94
934.06	227.08
934.36	227.26
934.66	227.25
934.96	227.23
935.26	227.29
935.56	227.30
935.86	227.11
936.16	227.05
936.46	227.02
936.76	227.02
937.06	227.02
937.36	227.02
937.66	227.06
937.96	227.06
938.26	226.99
938.56	226.96
938.86	226.97
939.16	227.05
939.46	227.08
939.76	227.16
940.06	227.12
940.35	226.98
940.65	226.74
940.95	226.81
941.25	226.70
941.55	226.58
941.85	226.52
942.15	226.63
942.45	226.76
942.75	226.77
943.04	226.77
943.34	226.79
943.64	226.70
943.94	226.66
944.24	226.65
944.54	226.66
944.84	226.66
945.13	226.59
945.43	226.50
945.73	226.50
946.03	226.42
946.33	226.37
946.62	226.36
946.92	226.28
947.22	226.30
947.52	226.32
947.82	226.39
948.11	226.46
948.41	226.40
948.71	226.28
949.01	226.30
949.31	226.25
949.60	226.19
949.90	226.32
950.20	226.32
950.50	226.33
950.79	226.26
951.09	226.32
951.39	226.33
951.69	226.36
951.98	226.44
952.28	226.44
952.58	226.43
952.87	226.36
953.17	226.51
953.47	226.40
953.76	226.36
954.06	226.32
954.36	226.17
954.66	226.14
954.95	226.24
955.25	226.30
955.55	226.36
955.84	226.34
956.14	226.27
956.44	226.26
956.73	226.22
957.03	226.24
957.32	226.24
957.62	226.21
957.92	226.12
958.21	226.05
958.51	226.63
958.81	226.64
959.10	226.76
959.40	226.77
959.69	226.83
959.99	226.91
960.29	226.85
960.58	226.86
960.88	227.02
961.17	226.94
961.47	226.89
961.76	226.85
962.06	226.87
962.36	226.86
962.65	226.89
962.95	226.90
963.24	226.80
963.54	226.82
963.83	226.83
964.13	226.89
964.42	226.70
964.72	226.36
965.01	226.40
965.31	226.32
965.60	226.21
965.90	226.52
966.19	226.40
966.49	226.50
966.78	226.45
967.08	226.37
967.37	226.36
967.67	226.33
967.96	226.31
968.26	226.29
968.55	226.36
968.85	226.32
969.14	226.28
969.43	226.34
969.73	226.27
970.02	226.28
970.32	226.20
970.61	226.25
970.91	226.05
971.20	225.97
971.49	225.89
971.79	225.97
972.08	225.60
972.38	225.76
972.67	225.71
972.96	225.85
973.26	225.82
973.55	226.00
973.85	225.96
974.14	226.07
974.43	226.19
974.73	226.15
975.02	226.09
975.31	226.17
975.61	226.17
975.90	226.13
976.19	226.20
976.49	226.29
976.78	226.41
977.07	226.36
977.37	226.46
977.66	226.56
977.95	226.53
978.24	226.60
978.54	226.60
978.83	226.61
979.12	226.54
979.42	226.56
979.71	226.51
980.00	226.50
980.29	226.48
980.59	226.40
980.88	226.52
981.17	226.57
981.46	226.57
981.76	226.61
982.05	226.80
982.34	226.83
982.63	226.90
982.93	226.83
983.22	227.06
983.51	227.08
983.80	227.27
984.09	227.29
984.39	227.24
984.68	227.19
984.97	227.18
985.26	227.18
985.55	227.15
985.85	227.01
986.14	227.16
986.43	227.22
986.72	227.23
987.01	227.06
987.30	227.02
987.59	227.00
987.89	227.01
988.18	226.83
988.47	226.79
988.76	226.70
989.05	226.69
989.34	226.57
989.63	226.64
989.92	226.43
990.22	226.36
990.51	226.31
990.80	226.28
991.09	226.25
991.38	226.36
991.67	226.37
991.96	226.38
992.25	226.31
992.54	226.19
992.83	226.13
993.12	226.11
993.41	226.22
993.70	226.36
993.99	226.39
994.28	226.43
994.58	226.44
994.87	226.31
995.16	226.25
995.45	226.20
995.74	226.03
996.03	226.07
996.32	226.19
996.61	226.30
996.90	226.38
997.19	226.42
997.48	226.34
997.77	226.23
998.06	226.27
998.34	226.20
998.63	226.20
998.92	226.23
999.21	226.37
999.50	226.30
999.79	226.17
1000.08	226.15
1000.37	226.21
1000.66	226.14
1000.95	226.32
1001.24	226.34
1001.53	226.41
1001.82	226.45
1002.11	226.40
1002.40	226.38
1002.68	226.55
1002.97	226.83
1003.26	226.71
1003.55	226.69
1003.84	226.75
1004.13	226.83
1004.42	226.82
1004.71	226.81
1004.99	226.85
1005.28	226.88
1005.57	226.88
1005.86	226.83
1006.15	226.84
1006.44	226.77
1006.72	226.82
1007.01	226.72
1007.30	226.81
1007.59	226.72
1007.88	226.72
1008.17	226.80
1008.45	226.69
1008.74	226.42
1009.03	226.14
1009.32	226.22
1009.60	226.14
1009.89	226.14
1010.18	225.93
1010.47	225.98
1010.76	225.94
1011.04	225.81
1011.33	225.85
1011.62	225.95
1011.91	225.94
1012.19	225.90
1012.48	225.91
1012.77	225.91
1013.05	226.16
1013.34	226.04
1013.63	226.04
1013.92	226.02
1014.20	225.91
1014.49	225.94
1014.78	226.00
1015.06	225.85
1015.35	225.81
1015.64	225.95
1015.92	226.00
1016.21	226.07
1016.50	226.03
1016.78	226.15
1017.07	226.23
1017.36	226.20
1017.64	226.10
1017.93	226.14
1018.22	226.16
1018.50	226.15
1018.79	226.04
1019.08	225.85
1019.36	226.00
1019.65	225.98
1019.93	226.16
1020.22	226.26
1020.51	226.57
1020.79	226.49
1021.08	226.20
1021.36	225.45
1021.65	224.00
1021.94	227.00
1022.22	227.20
1022.51	225.40
1022.79	229.35
1023.08	227.00
1023.36	232.55
1023.65	224.00
>>>>>End Processed Spectral Data<<<<<
