SpectraSuite Data File
++++++++++++++++++++++++++++++++++++
Date: Wed Sep 04 17:45:12 EDT 2013
User: lab3
Dark Spectrum Present: Yes
Reference Spectrum Present: No
Number of Sampled Component Spectra: 1
Spectrometers: USB2E7196
Integration Time (usec): 170000 (USB2E7196)
Spectra Averaged: 20 (USB2E7196)
Boxcar Smoothing: 10 (USB2E7196)
Correct for Electrical Dark: No (USB2E7196)
Strobe/Lamp Enabled: No (USB2E7196)
Correct for Detector Non-linearity: No (USB2E7196)
Correct for Stray Light: No (USB2E7196)
Number of Pixels in Processed Spectrum: 2048
>>>>>Begin Processed Spectral Data<<<<<
339.09	0.00
339.48	212.65
339.86	214.20
340.24	214.30
340.63	216.85
341.01	225.00
341.39	220.00
341.78	221.45
342.16	223.40
342.54	222.95
342.93	211.81
343.31	222.45
343.69	222.95
344.07	223.42
344.46	223.97
344.84	224.43
345.22	224.40
345.60	224.73
345.99	224.84
346.37	224.92
346.75	225.01
347.13	225.11
347.52	225.16
347.90	225.28
348.28	225.34
348.66	225.53
349.05	225.46
349.43	225.54
349.81	225.70
350.19	225.77
350.57	225.85
350.96	225.91
351.34	226.13
351.72	226.23
352.10	226.35
352.48	226.39
352.87	226.39
353.25	226.52
353.63	226.57
354.01	226.62
354.39	226.75
354.77	226.79
355.15	226.96
355.54	226.95
355.92	226.87
356.30	226.99
356.68	227.35
357.06	227.45
357.44	227.50
357.82	227.47
358.20	227.93
358.58	227.87
358.97	227.99
359.35	228.05
359.73	228.19
360.11	228.25
360.49	228.34
360.87	228.42
361.25	228.50
361.63	228.67
362.01	228.86
362.39	228.89
362.77	229.01
363.15	229.00
363.53	229.04
363.91	229.12
364.29	229.08
364.67	228.70
365.05	228.78
365.43	228.89
365.81	228.96
366.19	228.91
366.57	229.18
366.95	229.22
367.33	229.14
367.71	229.26
368.09	229.28
368.47	229.26
368.85	229.22
369.23	229.32
369.61	229.12
369.99	229.23
370.37	229.30
370.75	229.51
371.13	229.37
371.51	229.23
371.89	229.33
372.27	229.36
372.65	229.39
373.03	229.32
373.41	229.22
373.78	229.18
374.16	228.83
374.54	228.67
374.92	228.55
375.30	228.49
375.68	228.30
376.06	228.32
376.44	228.23
376.82	228.25
377.19	228.16
377.57	228.11
377.95	227.90
378.33	227.70
378.71	227.39
379.09	227.45
379.47	227.46
379.84	227.22
380.22	227.11
380.60	226.90
380.98	226.78
381.36	226.68
381.73	226.44
382.11	226.48
382.49	226.46
382.87	226.33
383.25	226.27
383.62	226.68
384.00	226.54
384.38	226.55
384.76	226.51
385.13	226.63
385.51	226.58
385.89	226.47
386.27	226.54
386.64	226.54
387.02	226.40
387.40	226.38
387.78	226.40
388.15	226.35
388.53	226.27
388.91	226.29
389.29	226.23
389.66	226.35
390.04	226.30
390.42	226.24
390.79	226.30
391.17	226.35
391.55	225.84
391.92	225.85
392.30	225.79
392.68	225.70
393.05	225.60
393.43	225.56
393.81	225.63
394.18	225.49
394.56	225.47
394.94	225.62
395.31	225.60
395.69	225.71
396.06	225.89
396.44	225.95
396.82	225.93
397.19	226.18
397.57	226.18
397.95	226.22
398.32	226.16
398.70	226.31
399.07	226.46
399.45	226.56
399.82	226.59
400.20	226.65
400.58	226.78
400.95	226.69
401.33	226.93
401.70	227.35
402.08	227.49
402.45	227.66
402.83	227.85
403.20	228.07
403.58	228.10
403.95	228.30
404.33	228.56
404.71	228.79
405.08	229.29
405.46	229.48
405.83	229.71
406.21	230.05
406.58	230.26
406.96	230.47
407.33	230.79
407.70	231.14
408.08	231.93
408.45	232.31
408.83	232.88
409.20	233.22
409.58	233.33
409.95	233.88
410.33	234.39
410.70	234.85
411.08	235.41
411.45	236.07
411.82	236.57
412.20	237.38
412.57	238.38
412.95	238.69
413.32	239.64
413.69	240.46
414.07	241.27
414.44	242.25
414.82	243.33
415.19	244.44
415.56	245.53
415.94	246.48
416.31	247.92
416.68	249.17
417.06	250.73
417.43	252.44
417.81	254.23
418.18	255.99
418.55	257.83
418.93	259.87
419.30	261.94
419.67	264.20
420.04	266.34
420.42	268.53
420.79	271.51
421.16	274.13
421.54	277.10
421.91	280.05
422.28	283.06
422.66	286.17
423.03	289.65
423.40	292.98
423.77	296.48
424.15	299.92
424.52	303.71
424.89	307.77
425.26	311.47
425.64	315.03
426.01	319.19
426.38	323.49
426.75	327.80
427.13	332.22
427.50	336.81
427.87	341.57
428.24	346.28
428.61	350.69
428.99	355.89
429.36	361.19
429.73	366.67
430.10	371.93
430.47	377.55
430.85	382.95
431.22	389.09
431.59	395.74
431.96	401.89
432.33	408.64
432.70	415.21
433.08	423.02
433.45	430.29
433.82	437.41
434.19	445.37
434.56	453.29
434.93	460.76
435.30	468.30
435.68	476.79
436.05	484.96
436.42	493.23
436.79	500.75
437.16	508.95
437.53	517.40
437.90	526.03
438.27	534.29
438.64	542.95
439.01	550.84
439.38	557.86
439.75	564.78
440.13	572.57
440.50	579.83
440.87	585.78
441.24	591.91
441.61	598.59
441.98	603.71
442.35	609.41
442.72	615.27
443.09	621.02
443.46	624.17
443.83	626.59
444.20	628.26
444.57	630.95
444.94	632.07
445.31	633.24
445.68	634.55
446.05	634.77
446.42	633.60
446.79	632.37
447.16	630.70
447.53	629.63
447.90	626.03
448.27	622.43
448.64	617.68
449.01	614.24
449.37	608.43
449.74	602.47
450.11	595.76
450.48	588.27
450.85	580.51
451.22	574.01
451.59	567.62
451.96	561.65
452.33	553.71
452.70	546.47
453.07	537.91
453.43	528.88
453.80	520.72
454.17	512.77
454.54	505.35
454.91	497.42
455.28	489.42
455.65	482.18
456.02	475.58
456.38	469.40
456.75	461.85
457.12	455.50
457.49	449.41
457.86	443.33
458.23	438.39
458.59	432.77
458.96	427.17
459.33	422.09
459.70	417.02
460.07	413.07
460.43	408.65
460.80	404.63
461.17	401.16
461.54	397.36
461.91	393.70
462.27	389.94
462.64	386.67
463.01	383.34
463.38	380.17
463.74	376.18
464.11	373.20
464.48	370.63
464.85	367.85
465.21	365.72
465.58	363.34
465.95	360.41
466.32	358.24
466.68	355.94
467.05	353.80
467.42	351.63
467.78	349.28
468.15	347.19
468.52	345.60
468.88	343.33
469.25	341.37
469.62	339.94
469.98	338.31
470.35	336.81
470.72	335.33
471.08	333.59
471.45	332.51
471.82	331.29
472.18	329.80
472.55	328.85
472.92	327.51
473.28	326.48
473.65	325.47
474.02	324.35
474.38	323.59
474.75	322.82
475.11	322.00
475.48	321.40
475.85	320.69
476.21	320.00
476.58	319.60
476.94	319.25
477.31	318.86
477.67	318.37
478.04	318.10
478.41	317.93
478.77	318.32
479.14	317.98
479.50	317.81
479.87	317.91
480.23	317.80
480.60	317.78
480.96	317.78
481.33	318.18
481.69	318.47
482.06	318.65
482.42	318.90
482.79	319.24
483.15	319.71
483.52	320.22
483.88	320.71
484.25	321.19
484.61	321.88
484.98	322.49
485.34	323.56
485.71	324.53
486.07	325.48
486.44	326.03
486.80	327.10
487.17	328.23
487.53	329.56
487.90	330.97
488.26	332.67
488.62	334.34
488.99	335.83
489.35	337.55
489.72	339.40
490.08	341.40
490.44	343.41
490.81	345.60
491.17	347.84
491.54	350.38
491.90	353.00
492.26	355.65
492.63	358.34
492.99	361.10
493.36	364.04
493.72	367.35
494.08	370.77
494.45	374.53
494.81	378.40
495.17	382.20
495.54	386.28
495.90	390.33
496.26	394.62
496.63	399.30
496.99	404.14
497.35	409.21
497.72	414.50
498.08	420.04
498.44	425.58
498.80	431.64
499.17	437.52
499.53	443.70
499.89	450.25
500.26	456.98
500.62	463.78
500.98	471.17
501.34	478.44
501.71	486.13
502.07	493.79
502.43	501.88
502.79	510.29
503.16	518.97
503.52	527.92
503.88	537.14
504.24	546.78
504.60	556.55
504.97	566.67
505.33	576.92
505.69	587.80
506.05	598.76
506.41	609.75
506.78	621.21
507.14	633.13
507.50	645.09
507.86	657.61
508.22	670.50
508.59	683.42
508.95	696.99
509.31	710.90
509.67	724.91
510.03	739.05
510.39	753.44
510.75	768.20
511.12	783.35
511.48	798.70
511.84	814.11
512.20	829.75
512.56	845.78
512.92	862.32
513.28	878.83
513.64	895.89
514.00	913.22
514.37	930.80
514.73	948.63
515.09	966.76
515.45	984.63
515.81	1002.67
516.17	1021.06
516.53	1039.47
516.89	1057.70
517.25	1076.84
517.61	1096.80
517.97	1116.66
518.33	1136.28
518.69	1156.05
519.05	1176.27
519.41	1196.41
519.77	1217.03
520.13	1237.39
520.49	1257.46
520.85	1278.00
521.21	1298.67
521.57	1319.40
521.93	1339.67
522.29	1360.44
522.65	1380.50
523.01	1401.09
523.37	1421.39
523.73	1441.84
524.09	1461.83
524.45	1481.95
524.81	1502.25
525.17	1522.04
525.53	1542.13
525.89	1562.48
526.25	1582.55
526.61	1602.27
526.97	1622.56
527.33	1643.27
527.68	1664.26
528.04	1684.99
528.40	1705.34
528.76	1725.61
529.12	1745.54
529.48	1765.80
529.84	1784.98
530.20	1805.61
530.56	1825.61
530.91	1845.90
531.27	1865.81
531.63	1885.81
531.99	1905.93
532.35	1925.18
532.71	1944.62
533.07	1964.59
533.42	1983.74
533.78	2002.99
534.14	2022.22
534.50	2040.70
534.86	2058.77
535.21	2075.80
535.57	2093.59
535.93	2110.29
536.29	2127.36
536.65	2144.67
537.00	2161.29
537.36	2178.24
537.72	2193.89
538.08	2210.52
538.44	2226.45
538.79	2242.03
539.15	2257.57
539.51	2272.91
539.87	2287.48
540.22	2300.90
540.58	2314.58
540.94	2327.28
541.29	2339.33
541.65	2351.19
542.01	2363.30
542.37	2373.47
542.72	2384.08
543.08	2394.08
543.44	2405.63
543.79	2415.17
544.15	2424.30
544.51	2433.78
544.87	2442.84
545.22	2450.82
545.58	2457.94
545.94	2464.37
546.29	2470.57
546.65	2476.29
547.01	2481.02
547.36	2485.69
547.72	2490.60
548.07	2493.92
548.43	2498.80
548.79	2502.67
549.14	2506.30
549.50	2509.33
549.86	2512.89
550.21	2515.92
550.57	2519.00
550.92	2519.66
551.28	2520.19
551.64	2522.01
551.99	2523.33
552.35	2524.00
552.70	2525.76
553.06	2526.83
553.41	2527.54
553.77	2528.66
554.13	2530.04
554.48	2531.06
554.84	2531.98
555.19	2532.60
555.55	2533.84
555.90	2532.38
556.26	2531.63
556.61	2529.55
556.97	2527.15
557.32	2526.11
557.68	2524.76
558.03	2522.78
558.39	2521.13
558.74	2520.00
559.10	2516.70
559.45	2513.02
559.81	2508.81
560.16	2503.20
560.52	2498.08
560.87	2493.87
561.23	2488.30
561.58	2482.14
561.94	2475.46
562.29	2468.39
562.64	2461.52
563.00	2452.93
563.35	2446.37
563.71	2439.56
564.06	2433.12
564.42	2426.48
564.77	2419.60
565.12	2411.51
565.48	2403.62
565.83	2395.59
566.19	2387.69
566.54	2379.87
566.89	2371.83
567.25	2364.12
567.60	2357.22
567.96	2350.23
568.31	2341.93
568.66	2333.20
569.02	2324.33
569.37	2316.20
569.72	2308.71
570.08	2299.58
570.43	2290.35
570.78	2281.52
571.14	2271.84
571.49	2261.86
571.84	2252.51
572.20	2241.80
572.55	2232.05
572.90	2221.25
573.26	2211.10
573.61	2200.01
573.96	2188.98
574.31	2177.50
574.67	2166.15
575.02	2153.49
575.37	2140.44
575.72	2127.87
576.08	2116.18
576.43	2103.57
576.78	2090.47
577.13	2076.96
577.49	2064.72
577.84	2053.52
578.19	2041.52
578.54	2029.72
578.90	2018.38
579.25	2006.20
579.60	1994.13
579.95	1981.58
580.30	1969.16
580.66	1956.06
581.01	1942.90
581.36	1929.40
581.71	1916.70
582.06	1903.91
582.42	1892.04
582.77	1879.96
583.12	1868.20
583.47	1856.07
583.82	1844.78
584.17	1833.66
584.53	1822.33
584.88	1809.87
585.23	1796.84
585.58	1783.04
585.93	1769.91
586.28	1756.79
586.63	1743.46
586.98	1729.59
587.34	1716.74
587.69	1704.01
588.04	1691.61
588.39	1680.22
588.74	1668.23
589.09	1656.95
589.44	1644.59
589.79	1632.83
590.14	1621.34
590.49	1609.66
590.84	1598.00
591.19	1586.30
591.54	1574.04
591.89	1562.39
592.25	1552.30
592.60	1541.19
592.95	1530.34
593.30	1519.15
593.65	1507.74
594.00	1496.11
594.35	1486.68
594.70	1475.42
595.05	1464.47
595.40	1453.29
595.75	1441.94
596.10	1431.17
596.45	1419.85
596.80	1409.61
597.15	1398.67
597.50	1387.34
597.85	1376.49
598.19	1365.43
598.54	1354.26
598.89	1343.58
599.24	1333.29
599.59	1322.14
599.94	1311.96
600.29	1302.10
600.64	1292.05
600.99	1282.18
601.34	1272.89
601.69	1262.26
602.04	1252.73
602.39	1243.22
602.74	1234.28
603.08	1225.25
603.43	1216.55
603.78	1207.35
604.13	1197.92
604.48	1188.72
604.83	1179.50
605.18	1170.14
605.53	1160.86
605.87	1152.15
606.22	1143.90
606.57	1134.87
606.92	1125.84
607.27	1117.24
607.62	1108.90
607.96	1100.98
608.31	1093.10
608.66	1085.25
609.01	1077.10
609.36	1069.11
609.70	1061.09
610.05	1052.76
610.40	1044.63
610.75	1036.29
611.10	1028.33
611.44	1020.21
611.79	1012.31
612.14	1004.92
612.49	997.40
612.83	990.35
613.18	982.94
613.53	975.66
613.88	968.24
614.22	961.00
614.57	953.52
614.92	945.74
615.27	938.37
615.61	931.04
615.96	923.65
616.31	916.40
616.65	909.49
617.00	902.47
617.35	895.62
617.70	888.73
618.04	881.88
618.39	875.17
618.74	869.04
619.08	862.68
619.43	855.64
619.78	848.82
620.12	841.85
620.47	835.38
620.82	828.74
621.16	822.28
621.51	816.21
621.85	810.18
622.20	804.12
622.55	797.67
622.89	791.43
623.24	785.37
623.59	779.35
623.93	773.43
624.28	767.56
624.62	762.35
624.97	756.57
625.32	750.98
625.66	745.41
626.01	739.55
626.35	734.03
626.70	728.92
627.04	724.12
627.39	718.93
627.73	713.74
628.08	708.66
628.43	703.42
628.77	698.13
629.12	693.16
629.46	688.58
629.81	684.28
630.15	679.74
630.50	675.20
630.84	670.43
631.19	665.87
631.53	661.52
631.88	656.33
632.22	651.75
632.57	647.59
632.91	643.13
633.26	638.94
633.60	634.52
633.95	630.02
634.29	625.33
634.64	621.15
634.98	616.52
635.32	612.32
635.67	608.51
636.01	604.51
636.36	600.15
636.70	596.31
637.05	592.07
637.39	588.10
637.73	584.01
638.08	580.35
638.42	576.41
638.77	572.35
639.11	568.41
639.45	564.33
639.80	560.13
640.14	556.26
640.49	552.42
640.83	548.80
641.17	545.42
641.52	541.76
641.86	538.45
642.20	535.55
642.55	531.87
642.89	528.28
643.23	524.97
643.58	522.09
643.92	518.48
644.26	515.35
644.61	512.14
644.95	508.95
645.29	505.70
645.64	502.62
645.98	499.65
646.32	496.79
646.66	493.99
647.01	491.20
647.35	488.51
647.69	485.86
648.04	483.13
648.38	480.47
648.72	477.68
649.06	474.84
649.41	471.77
649.75	469.05
650.09	466.39
650.43	463.60
650.78	460.73
651.12	458.12
651.46	455.37
651.80	452.78
652.14	450.35
652.49	448.02
652.83	445.41
653.17	442.86
653.51	440.35
653.85	438.00
654.20	435.62
654.54	433.23
654.88	430.80
655.22	428.65
655.56	426.20
655.90	424.10
656.25	421.78
656.59	419.71
656.93	417.61
657.27	415.66
657.61	413.47
657.95	411.33
658.29	409.21
658.64	407.16
658.98	405.01
659.32	402.83
659.66	400.65
660.00	398.73
660.34	396.74
660.68	394.80
661.02	392.92
661.36	390.99
661.70	388.97
662.05	387.08
662.39	385.12
662.73	383.45
663.07	381.86
663.41	380.16
663.75	378.38
664.09	376.56
664.43	374.61
664.77	372.96
665.11	371.25
665.45	369.63
665.79	368.11
666.13	366.44
666.47	364.90
666.81	363.37
667.15	361.68
667.49	360.35
667.83	359.09
668.17	357.50
668.51	356.14
668.85	354.93
669.19	353.77
669.53	352.35
669.87	350.88
670.21	349.36
670.55	347.89
670.89	346.73
671.23	345.51
671.57	344.28
671.91	342.98
672.25	341.71
672.58	340.55
672.92	339.10
673.26	338.01
673.60	336.86
673.94	335.61
674.28	334.62
674.62	333.46
674.96	332.10
675.30	331.06
675.64	329.85
675.97	328.55
676.31	327.20
676.65	326.12
676.99	325.26
677.33	324.12
677.67	323.20
678.01	321.99
678.34	320.95
678.68	320.02
679.02	318.98
679.36	318.02
679.70	316.93
680.04	316.15
680.37	315.19
680.71	314.20
681.05	313.40
681.39	312.45
681.73	311.46
682.06	310.57
682.40	309.78
682.74	309.09
683.08	308.40
683.42	307.53
683.75	306.66
684.09	305.64
684.43	304.95
684.77	304.12
685.10	303.41
685.44	302.66
685.78	301.84
686.12	301.09
686.45	300.33
686.79	299.62
687.13	298.89
687.46	298.14
687.80	297.47
688.14	296.67
688.48	295.93
688.81	295.23
689.15	294.67
689.49	293.90
689.82	293.10
690.16	292.23
690.50	291.62
690.83	290.96
691.17	290.18
691.51	289.52
691.84	288.99
692.18	288.28
692.52	287.60
692.85	286.96
693.19	286.60
693.52	285.99
693.86	285.44
694.20	284.80
694.53	284.29
694.87	283.63
695.21	283.01
695.54	282.41
695.88	281.74
696.21	281.00
696.55	280.38
696.88	279.83
697.22	279.29
697.56	278.70
697.89	278.15
698.23	277.70
698.56	277.15
698.90	276.57
699.23	276.01
699.57	275.56
699.90	274.98
700.24	274.29
700.58	273.83
700.91	273.29
701.25	273.20
701.58	272.97
701.92	272.64
702.25	272.23
702.59	271.75
702.92	271.42
703.26	271.02
703.59	270.66
703.93	270.60
704.26	270.24
704.60	269.92
704.93	269.49
705.26	269.00
705.60	268.63
705.93	268.09
706.27	267.88
706.60	267.57
706.94	267.46
707.27	267.02
707.61	266.68
707.94	266.30
708.27	265.54
708.61	264.80
708.94	264.39
709.28	264.03
709.61	263.66
709.94	263.26
710.28	262.95
710.61	262.59
710.95	261.85
711.28	261.75
711.61	261.37
711.95	261.17
712.28	260.86
712.61	260.55
712.95	260.49
713.28	260.31
713.61	259.84
713.95	259.34
714.28	259.13
714.61	258.71
714.95	258.37
715.28	257.95
715.61	257.71
715.95	257.42
716.28	257.06
716.61	256.84
716.95	256.47
717.28	256.11
717.61	255.76
717.94	255.46
718.28	254.87
718.61	254.60
718.94	254.20
719.27	253.95
719.61	253.73
719.94	253.43
720.27	252.93
720.60	252.67
720.94	252.42
721.27	252.20
721.60	252.08
721.93	251.82
722.27	251.80
722.60	251.61
722.93	251.27
723.26	251.10
723.59	250.76
723.93	250.66
724.26	250.47
724.59	250.30
724.92	250.16
725.25	250.09
725.59	249.84
725.92	249.71
726.25	249.51
726.58	249.19
726.91	248.86
727.24	248.66
727.57	248.46
727.91	248.23
728.24	248.04
728.57	247.75
728.90	247.68
729.23	247.34
729.56	247.40
729.89	247.25
730.22	246.99
730.55	246.82
730.89	246.57
731.22	246.40
731.55	246.21
731.88	245.99
732.21	245.69
732.54	245.43
732.87	245.17
733.20	245.03
733.53	244.98
733.86	244.89
734.19	244.71
734.52	244.65
734.85	244.80
735.18	244.59
735.51	244.61
735.84	244.45
736.17	244.45
736.50	243.95
736.83	244.36
737.16	244.21
737.49	244.12
737.82	244.00
738.15	243.87
738.48	243.74
738.81	243.66
739.14	243.52
739.47	243.44
739.80	243.34
740.13	243.21
740.46	242.88
740.79	242.66
741.12	242.49
741.45	242.30
741.78	241.90
742.11	241.92
742.44	241.62
742.77	241.55
743.10	241.31
743.43	241.13
743.75	240.56
744.08	241.12
744.41	241.00
744.74	240.83
745.07	240.58
745.40	240.45
745.73	240.45
746.06	240.32
746.39	240.24
746.71	240.13
747.04	239.97
747.37	239.94
747.70	239.94
748.03	239.91
748.36	239.85
748.68	239.72
749.01	239.40
749.34	239.36
749.67	239.12
750.00	239.06
750.33	239.39
750.65	239.28
750.98	238.46
751.31	238.39
751.64	238.34
751.97	238.59
752.29	238.49
752.62	238.18
752.95	238.06
753.28	237.86
753.60	237.69
753.93	237.75
754.26	237.61
754.59	237.35
754.91	237.17
755.24	237.01
755.57	236.93
755.90	236.82
756.22	236.64
756.55	236.55
756.88	236.38
757.20	235.99
757.53	235.70
757.86	235.67
758.19	235.55
758.51	235.46
758.84	235.01
759.17	234.90
759.49	234.81
759.82	234.95
760.15	234.92
760.47	234.84
760.80	234.56
761.13	234.59
761.45	234.49
761.78	234.46
762.11	234.41
762.43	234.31
762.76	234.27
763.08	234.26
763.41	234.26
763.74	234.20
764.06	234.07
764.39	234.10
764.71	234.01
765.04	233.89
765.37	233.72
765.69	233.73
766.02	233.65
766.34	233.57
766.67	233.34
767.00	233.37
767.32	233.54
767.65	233.79
767.97	233.73
768.30	233.69
768.62	233.61
768.95	233.45
769.27	233.37
769.60	233.42
769.92	233.28
770.25	233.07
770.57	233.01
770.90	232.95
771.22	232.84
771.55	232.74
771.87	232.70
772.20	232.74
772.52	233.05
772.85	233.58
773.17	233.58
773.50	233.46
773.82	233.32
774.15	233.07
774.47	232.69
774.80	232.56
775.12	232.57
775.45	232.50
775.77	232.54
776.09	232.54
776.42	232.44
776.74	232.58
777.07	232.51
777.39	232.41
777.72	232.33
778.04	232.30
778.36	232.28
778.69	232.23
779.01	232.13
779.33	231.70
779.66	231.12
779.98	230.97
780.31	230.95
780.63	231.12
780.95	231.10
781.28	231.05
781.60	231.08
781.92	230.97
782.25	230.85
782.57	230.82
782.89	230.72
783.22	230.68
783.54	230.48
783.86	230.56
784.19	230.57
784.51	230.76
784.83	230.69
785.16	230.62
785.48	230.64
785.80	230.65
786.12	230.70
786.45	230.65
786.77	230.70
787.09	230.66
787.42	230.44
787.74	230.46
788.06	230.43
788.38	230.28
788.71	230.28
789.03	230.31
789.35	230.32
789.67	230.18
789.99	230.09
790.32	229.99
790.64	230.00
790.96	230.33
791.28	230.05
791.61	229.96
791.93	230.00
792.25	229.90
792.57	230.16
792.89	229.97
793.21	229.97
793.54	229.83
793.86	229.80
794.18	229.88
794.50	229.78
794.82	229.71
795.14	229.81
795.47	229.79
795.79	229.82
796.11	229.69
796.43	229.69
796.75	229.68
797.07	229.73
797.39	229.64
797.71	229.19
798.04	229.28
798.36	229.35
798.68	229.32
799.00	229.39
799.32	229.14
799.64	229.26
799.96	229.18
800.28	229.29
800.60	229.24
800.92	229.19
801.24	229.07
801.56	229.19
801.89	229.10
802.21	229.17
802.53	229.05
802.85	229.14
803.17	229.36
803.49	229.27
803.81	229.20
804.13	229.17
804.45	229.20
804.77	229.18
805.09	229.08
805.41	229.06
805.73	228.97
806.05	228.89
806.37	228.89
806.69	228.90
807.01	228.88
807.33	228.87
807.65	228.75
807.97	229.05
808.28	229.03
808.60	229.00
808.92	228.91
809.24	229.21
809.56	229.13
809.88	228.88
810.20	228.95
810.52	229.00
810.84	228.93
811.16	228.81
811.48	228.79
811.80	229.05
812.12	229.00
812.43	229.09
812.75	229.14
813.07	229.04
813.39	229.07
813.71	228.91
814.03	228.90
814.35	228.92
814.67	228.69
814.98	228.56
815.30	228.59
815.62	228.55
815.94	228.19
816.26	228.33
816.58	228.28
816.89	228.24
817.21	228.10
817.53	228.10
817.85	228.16
818.17	228.10
818.48	227.88
818.80	227.90
819.12	227.79
819.44	227.69
819.76	227.65
820.07	227.56
820.39	227.55
820.71	227.60
821.03	227.55
821.34	227.48
821.66	227.52
821.98	227.52
822.30	227.46
822.61	227.75
822.93	227.56
823.25	227.56
823.57	227.52
823.88	227.64
824.20	227.68
824.52	227.71
824.83	227.68
825.15	227.60
825.47	227.60
825.79	227.60
826.10	227.53
826.42	227.47
826.74	227.55
827.05	227.52
827.37	227.50
827.69	227.51
828.00	227.58
828.32	227.62
828.64	227.51
828.95	227.82
829.27	227.74
829.58	227.72
829.90	227.85
830.22	227.86
830.53	227.76
830.85	227.70
831.17	227.55
831.48	227.61
831.80	227.60
832.11	227.60
832.43	227.53
832.75	227.54
833.06	227.80
833.38	227.69
833.69	227.65
834.01	227.59
834.32	227.54
834.64	227.41
834.96	227.36
835.27	227.36
835.59	227.16
835.90	227.02
836.22	226.97
836.53	226.85
836.85	226.81
837.16	227.24
837.48	227.24
837.79	227.46
838.11	227.39
838.42	227.40
838.74	227.42
839.05	227.37
839.37	227.41
839.68	227.11
840.00	227.04
840.31	227.21
840.63	227.23
840.94	227.14
841.26	227.11
841.57	227.11
841.88	227.11
842.20	226.99
842.51	226.95
842.83	227.00
843.14	227.44
843.46	227.42
843.77	227.19
844.08	227.11
844.40	226.88
844.71	226.82
845.03	226.72
845.34	226.59
845.65	226.60
845.97	226.56
846.28	226.60
846.60	226.67
846.91	226.55
847.22	226.50
847.54	226.60
847.85	226.66
848.16	226.58
848.48	226.56
848.79	226.72
849.10	226.73
849.42	226.70
849.73	226.25
850.04	226.30
850.36	226.13
850.67	226.27
850.98	226.34
851.30	226.40
851.61	226.46
851.92	226.52
852.23	226.68
852.55	226.65
852.86	226.73
853.17	226.79
853.49	226.82
853.80	226.97
854.11	227.03
854.42	227.06
854.74	227.00
855.05	226.97
855.36	226.71
855.67	226.70
855.99	226.75
856.30	227.24
856.61	227.11
856.92	227.11
857.23	227.05
857.55	226.98
857.86	226.95
858.17	226.98
858.48	226.86
858.79	226.79
859.11	226.80
859.42	226.68
859.73	226.53
860.04	226.55
860.35	226.35
860.66	226.21
860.98	226.17
861.29	226.33
861.60	226.32
861.91	226.46
862.22	226.37
862.53	226.27
862.84	225.74
863.16	225.96
863.47	225.89
863.78	225.87
864.09	225.94
864.40	225.95
864.71	225.96
865.02	226.10
865.33	225.99
865.64	225.91
865.95	225.95
866.27	226.29
866.58	226.25
866.89	226.34
867.20	226.36
867.51	226.36
867.82	226.26
868.13	226.43
868.44	226.40
868.75	226.60
869.06	226.65
869.37	226.70
869.68	226.54
869.99	226.57
870.30	226.56
870.61	226.60
870.92	226.50
871.23	226.46
871.54	226.51
871.85	226.64
872.16	226.77
872.47	226.68
872.78	226.37
873.09	226.42
873.40	226.37
873.71	226.37
874.02	226.31
874.33	226.26
874.64	226.17
874.95	226.24
875.26	226.16
875.56	226.16
875.87	226.14
876.18	226.13
876.49	226.65
876.80	226.68
877.11	226.61
877.42	226.67
877.73	226.68
878.04	226.67
878.35	226.68
878.66	226.64
878.96	226.69
879.27	226.74
879.58	226.69
879.89	226.70
880.20	226.83
880.51	226.87
880.82	226.92
881.12	226.94
881.43	226.81
881.74	226.69
882.05	226.65
882.36	226.76
882.67	226.83
882.97	226.32
883.28	226.25
883.59	226.24
883.90	226.33
884.21	226.41
884.51	226.37
884.82	226.30
885.13	226.29
885.44	226.34
885.74	226.30
886.05	226.31
886.36	226.27
886.67	226.10
886.98	226.39
887.28	226.43
887.59	226.37
887.90	226.42
888.20	226.43
888.51	226.44
888.82	226.31
889.13	226.31
889.43	226.67
889.74	226.68
890.05	226.68
890.35	226.60
890.66	226.52
890.97	226.39
891.28	226.36
891.58	226.39
891.89	226.38
892.20	226.35
892.50	226.29
892.81	226.32
893.12	226.34
893.42	226.00
893.73	226.00
894.04	225.98
894.34	226.00
894.65	225.93
894.95	225.89
895.26	225.85
895.57	226.02
895.87	225.61
896.18	225.65
896.48	225.65
896.79	225.63
897.10	225.70
897.40	225.80
897.71	225.80
898.01	225.75
898.32	225.78
898.63	225.73
898.93	225.79
899.24	225.76
899.54	225.66
899.85	225.66
900.15	225.64
900.46	225.59
900.76	225.64
901.07	225.69
901.38	225.70
901.68	225.75
901.99	225.50
902.29	225.50
902.60	225.44
902.90	225.42
903.21	225.44
903.51	225.44
903.82	225.51
904.12	225.56
904.43	225.59
904.73	225.61
905.03	225.65
905.34	226.16
905.64	226.11
905.95	226.08
906.25	226.12
906.56	226.14
906.86	226.23
907.17	226.11
907.47	226.18
907.77	226.17
908.08	226.01
908.38	226.11
908.69	226.20
908.99	226.27
909.30	226.25
909.60	226.25
909.90	226.19
910.21	225.98
910.51	225.91
910.81	225.88
911.12	225.86
911.42	225.94
911.73	225.41
912.03	225.53
912.33	225.75
912.64	225.72
912.94	225.68
913.24	225.53
913.55	225.49
913.85	225.31
914.15	225.42
914.46	225.61
914.76	225.54
915.06	225.41
915.37	225.40
915.67	225.40
915.97	225.46
916.27	225.43
916.58	225.50
916.88	225.44
917.18	225.48
917.49	225.83
917.79	225.75
918.09	225.81
918.39	225.90
918.70	225.89
919.00	225.96
919.30	226.20
919.60	226.23
919.91	226.31
920.21	226.45
920.51	226.33
920.81	226.26
921.12	226.33
921.42	226.41
921.72	226.42
922.02	226.43
922.32	226.41
922.63	226.46
922.93	226.77
923.23	226.83
923.53	226.72
923.83	226.36
924.13	226.42
924.44	226.44
924.74	226.48
925.04	226.49
925.34	226.40
925.64	226.21
925.94	226.20
926.24	226.44
926.55	226.38
926.85	226.40
927.15	226.38
927.45	226.35
927.75	226.30
928.05	226.27
928.35	226.30
928.65	226.44
928.95	226.36
929.26	226.19
929.56	226.32
929.86	226.41
930.16	226.40
930.46	226.37
930.76	226.37
931.06	226.08
931.36	225.94
931.66	226.00
931.96	226.05
932.26	226.13
932.56	225.93
932.86	225.98
933.16	226.07
933.46	226.03
933.76	225.97
934.06	226.11
934.36	226.29
934.66	226.26
934.96	226.18
935.26	226.23
935.56	226.27
935.86	226.15
936.16	226.07
936.46	226.05
936.76	226.03
937.06	225.87
937.36	225.92
937.66	225.97
937.96	225.94
938.26	225.88
938.56	225.79
938.86	225.80
939.16	225.88
939.46	225.93
939.76	225.99
940.06	226.00
940.35	225.85
940.65	225.66
940.95	225.67
941.25	225.51
941.55	225.50
941.85	225.38
942.15	225.48
942.45	225.62
942.75	225.53
943.04	225.57
943.34	225.73
943.64	225.73
943.94	225.64
944.24	225.71
944.54	225.67
944.84	225.67
945.13	225.57
945.43	225.43
945.73	225.40
946.03	225.34
946.33	225.36
946.62	225.35
946.92	225.31
947.22	225.34
947.52	225.40
947.82	225.46
948.11	225.46
948.41	225.30
948.71	225.20
949.01	225.32
949.31	225.19
949.60	225.13
949.90	225.27
950.20	225.33
950.50	225.27
950.79	225.31
951.09	225.36
951.39	225.39
951.69	225.40
951.98	225.43
952.28	225.45
952.58	225.40
952.87	225.42
953.17	225.45
953.47	225.36
953.76	225.38
954.06	225.29
954.36	225.24
954.66	225.31
954.95	225.42
955.25	225.43
955.55	225.54
955.84	225.46
956.14	225.48
956.44	225.55
956.73	225.55
957.03	225.49
957.32	225.56
957.62	225.59
957.92	225.68
958.21	225.67
958.51	226.24
958.81	226.29
959.10	226.35
959.40	226.55
959.69	226.59
959.99	226.62
960.29	226.60
960.58	226.62
960.88	226.75
961.17	226.62
961.47	226.71
961.76	226.67
962.06	226.79
962.36	226.69
962.65	226.69
962.95	226.70
963.24	226.69
963.54	226.63
963.83	226.66
964.13	226.62
964.42	226.47
964.72	226.08
965.01	226.17
965.31	226.08
965.60	225.92
965.90	226.26
966.19	226.14
966.49	226.14
966.78	226.10
967.08	226.03
967.37	226.13
967.67	226.00
967.96	226.04
968.26	225.95
968.55	226.00
968.85	225.93
969.14	225.91
969.43	225.90
969.73	225.89
970.02	225.82
970.32	225.80
970.61	225.81
970.91	225.70
971.20	225.58
971.49	225.54
971.79	225.56
972.08	225.14
972.38	225.24
972.67	225.26
972.96	225.38
973.26	225.25
973.55	225.40
973.85	225.34
974.14	225.37
974.43	225.49
974.73	225.44
975.02	225.41
975.31	225.42
975.61	225.43
975.90	225.38
976.19	225.37
976.49	225.48
976.78	225.55
977.07	225.51
977.37	225.54
977.66	225.64
977.95	225.67
978.24	225.75
978.54	225.89
978.83	225.89
979.12	225.88
979.42	225.91
979.71	225.77
980.00	225.80
980.29	225.77
980.59	225.65
980.88	225.74
981.17	225.80
981.46	225.77
981.76	225.84
982.05	225.96
982.34	226.00
982.63	225.97
982.93	225.87
983.22	226.01
983.51	225.99
983.80	226.03
984.09	226.03
984.39	225.97
984.68	225.86
984.97	225.85
985.26	225.80
985.55	225.85
985.85	225.81
986.14	225.86
986.43	225.91
986.72	225.94
987.01	225.81
987.30	225.75
987.59	225.78
987.89	225.83
988.18	225.69
988.47	225.64
988.76	225.55
989.05	225.58
989.34	225.49
989.63	225.67
989.92	225.62
990.22	225.64
990.51	225.69
990.80	225.68
991.09	225.74
991.38	225.83
991.67	225.87
991.96	225.84
992.25	225.88
992.54	225.81
992.83	225.78
993.12	225.80
993.41	225.90
993.70	226.15
993.99	226.15
994.28	226.25
994.58	226.30
994.87	226.24
995.16	226.32
995.45	226.30
995.74	226.12
996.03	226.16
996.32	226.15
996.61	226.27
996.90	226.21
997.19	226.22
997.48	226.16
997.77	226.05
998.06	226.08
998.34	226.00
998.63	225.98
998.92	226.01
999.21	226.06
999.50	226.03
999.79	225.75
1000.08	225.74
1000.37	225.70
1000.66	225.68
1000.95	225.85
1001.24	225.82
1001.53	225.83
1001.82	225.80
1002.11	225.77
1002.40	225.78
1002.68	225.84
1002.97	226.16
1003.26	226.06
1003.55	225.96
1003.84	225.99
1004.13	226.06
1004.42	226.01
1004.71	225.99
1004.99	225.94
1005.28	226.08
1005.57	226.05
1005.86	225.97
1006.15	225.83
1006.44	225.75
1006.72	225.79
1007.01	225.62
1007.30	225.60
1007.59	225.49
1007.88	225.46
1008.17	225.41
1008.45	225.29
1008.74	225.09
1009.03	224.88
1009.32	224.86
1009.60	224.89
1009.89	224.81
1010.18	224.62
1010.47	224.69
1010.76	224.62
1011.04	224.52
1011.33	224.44
1011.62	224.43
1011.91	224.43
1012.19	224.46
1012.48	224.45
1012.77	224.34
1013.05	224.61
1013.34	224.57
1013.63	224.61
1013.92	224.62
1014.20	224.52
1014.49	224.55
1014.78	224.63
1015.06	224.40
1015.35	224.33
1015.64	224.30
1015.92	224.40
1016.21	224.48
1016.50	224.39
1016.78	224.43
1017.07	224.51
1017.36	224.44
1017.64	224.36
1017.93	224.48
1018.22	224.48
1018.50	224.52
1018.79	224.63
1019.08	224.42
1019.36	224.49
1019.65	224.48
1019.93	224.65
1020.22	224.76
1020.51	225.01
1020.79	224.90
1021.08	223.85
1021.36	224.30
1021.65	226.05
1021.94	225.15
1022.22	225.85
1022.51	224.45
1022.79	227.75
1023.08	225.00
1023.36	230.75
1023.65	223.75
>>>>>End Processed Spectral Data<<<<<
