SpectraSuite Data File
++++++++++++++++++++++++++++++++++++
Date: Wed Sep 04 17:53:58 EDT 2013
User: lab3
Dark Spectrum Present: Yes
Reference Spectrum Present: No
Number of Sampled Component Spectra: 1
Spectrometers: USB2E7196
Integration Time (usec): 170000 (USB2E7196)
Spectra Averaged: 20 (USB2E7196)
Boxcar Smoothing: 10 (USB2E7196)
Correct for Electrical Dark: No (USB2E7196)
Strobe/Lamp Enabled: No (USB2E7196)
Correct for Detector Non-linearity: No (USB2E7196)
Correct for Stray Light: No (USB2E7196)
Number of Pixels in Processed Spectrum: 2048
>>>>>Begin Processed Spectral Data<<<<<
339.09	0.00
339.48	213.45
339.86	215.75
340.24	215.80
340.63	217.60
341.01	224.65
341.39	220.40
341.78	221.15
342.16	223.85
342.54	223.55
342.93	212.31
343.31	222.99
343.69	223.52
344.07	223.87
344.46	224.35
344.84	224.74
345.22	224.80
345.60	225.05
345.99	225.29
346.37	225.42
346.75	225.51
347.13	225.54
347.52	225.70
347.90	225.84
348.28	225.85
348.66	225.98
349.05	225.91
349.43	226.01
349.81	226.09
350.19	226.04
350.57	226.13
350.96	226.27
351.34	226.38
351.72	226.47
352.10	226.56
352.48	226.56
352.87	226.62
353.25	226.62
353.63	226.70
354.01	226.75
354.39	226.80
354.77	226.93
355.15	227.19
355.54	227.11
355.92	227.08
356.30	227.18
356.68	227.50
357.06	227.54
357.44	227.48
357.82	227.47
358.20	228.07
358.58	228.12
358.97	228.21
359.35	228.39
359.73	228.56
360.11	228.67
360.49	228.81
360.87	228.81
361.25	228.96
361.63	229.16
362.01	229.26
362.39	229.33
362.77	229.38
363.15	229.34
363.53	229.36
363.91	229.44
364.29	229.43
364.67	229.02
365.05	229.11
365.43	229.23
365.81	229.27
366.19	229.14
366.57	229.29
366.95	229.31
367.33	229.22
367.71	229.19
368.09	229.33
368.47	229.32
368.85	229.33
369.23	229.40
369.61	229.23
369.99	229.37
370.37	229.35
370.75	229.49
371.13	229.44
371.51	229.43
371.89	229.46
372.27	229.54
372.65	229.65
373.03	229.66
373.41	229.60
373.78	229.54
374.16	229.19
374.54	229.09
374.92	229.02
375.30	228.97
375.68	228.86
376.06	228.81
376.44	228.75
376.82	228.75
377.19	228.69
377.57	228.59
377.95	228.35
378.33	228.26
378.71	228.01
379.09	228.01
379.47	227.96
379.84	227.81
380.22	227.68
380.60	227.48
380.98	227.34
381.36	227.21
381.73	227.13
382.11	227.14
382.49	227.09
382.87	226.92
383.25	226.83
383.62	227.36
384.00	227.16
384.38	227.09
384.76	227.13
385.13	227.27
385.51	227.19
385.89	227.07
386.27	227.00
386.64	227.02
387.02	226.97
387.40	226.92
387.78	226.91
388.15	226.90
388.53	226.79
388.91	226.83
389.29	226.80
389.66	226.89
390.04	226.78
390.42	226.78
390.79	226.85
391.17	226.82
391.55	226.20
391.92	226.15
392.30	226.16
392.68	226.00
393.05	225.90
393.43	225.97
393.81	226.04
394.18	226.05
394.56	226.00
394.94	226.08
395.31	226.05
395.69	226.23
396.06	226.32
396.44	226.53
396.82	226.47
397.19	226.79
397.57	226.77
397.95	226.92
398.32	226.85
398.70	226.94
399.07	227.17
399.45	227.24
399.82	227.37
400.20	227.40
400.58	227.57
400.95	227.49
401.33	227.71
401.70	228.11
402.08	228.19
402.45	228.34
402.83	228.55
403.20	228.76
403.58	228.75
403.95	229.01
404.33	229.16
404.71	229.43
405.08	229.83
405.46	230.01
405.83	230.27
406.21	230.57
406.58	230.84
406.96	231.01
407.33	231.36
407.70	231.74
408.08	232.51
408.45	232.94
408.83	233.37
409.20	233.69
409.58	233.88
409.95	234.47
410.33	235.07
410.70	235.43
411.08	236.11
411.45	236.78
411.82	237.29
412.20	237.99
412.57	238.95
412.95	239.30
413.32	240.21
413.69	241.02
414.07	241.96
414.44	242.94
414.82	244.01
415.19	245.21
415.56	246.40
415.94	247.41
416.31	248.77
416.68	250.27
417.06	251.88
417.43	253.52
417.81	255.23
418.18	256.98
418.55	258.90
418.93	260.77
419.30	262.97
419.67	265.24
420.04	267.50
420.42	269.67
420.79	272.72
421.16	275.51
421.54	278.55
421.91	281.50
422.28	284.53
422.66	287.80
423.03	291.25
423.40	294.59
423.77	298.06
424.15	301.65
424.52	305.39
424.89	309.63
425.26	313.55
425.64	317.37
426.01	321.53
426.38	325.87
426.75	330.50
427.13	334.98
427.50	339.75
427.87	344.71
428.24	349.71
428.61	354.19
428.99	359.43
429.36	364.88
429.73	370.42
430.10	375.95
430.47	381.60
430.85	387.20
431.22	393.43
431.59	400.33
431.96	406.58
432.33	413.42
432.70	419.96
433.08	427.89
433.45	435.27
433.82	442.63
434.19	450.76
434.56	458.82
434.93	466.56
435.30	474.29
435.68	482.86
436.05	491.26
436.42	499.63
436.79	507.39
437.16	515.66
437.53	524.32
437.90	533.07
438.27	541.69
438.64	550.55
439.01	558.73
439.38	565.74
439.75	572.87
440.13	581.08
440.50	588.64
440.87	594.71
441.24	601.21
441.61	608.26
441.98	613.46
442.35	619.36
442.72	625.23
443.09	631.06
443.46	634.38
443.83	636.65
444.20	638.59
444.57	641.13
444.94	642.47
445.31	643.62
445.68	644.97
446.05	645.16
446.42	643.97
446.79	642.73
447.16	641.14
447.53	639.82
447.90	635.90
448.27	632.43
448.64	627.47
449.01	623.60
449.37	617.45
449.74	611.25
450.11	604.25
450.48	596.60
450.85	588.67
451.22	581.91
451.59	575.35
451.96	569.01
452.33	560.96
452.70	553.49
453.07	544.95
453.43	535.87
453.80	527.45
454.17	519.33
454.54	511.56
454.91	503.45
455.28	495.56
455.65	488.17
456.02	481.12
456.38	474.78
456.75	467.12
457.12	460.55
457.49	454.37
457.86	448.05
458.23	442.87
458.59	437.02
458.96	431.27
459.33	426.20
459.70	421.10
460.07	417.03
460.43	412.29
460.80	407.95
461.17	404.28
461.54	400.32
461.91	396.56
462.27	392.73
462.64	389.48
463.01	385.90
463.38	382.64
463.74	378.62
464.11	375.57
464.48	372.98
464.85	370.18
465.21	368.14
465.58	365.88
465.95	363.06
466.32	360.95
466.68	358.70
467.05	356.46
467.42	354.38
467.78	352.10
468.15	349.98
468.52	348.28
468.88	345.99
469.25	344.05
469.62	342.58
469.98	340.86
470.35	339.39
470.72	337.95
471.08	336.31
471.45	335.19
471.82	334.02
472.18	332.49
472.55	331.34
472.92	329.96
473.28	328.85
473.65	327.71
474.02	326.60
474.38	325.77
474.75	324.97
475.11	324.03
475.48	323.42
475.85	322.88
476.21	322.22
476.58	321.70
476.94	321.34
477.31	320.83
477.67	320.40
478.04	320.01
478.41	319.84
478.77	320.13
479.14	319.72
479.50	319.60
479.87	319.67
480.23	319.73
480.60	319.63
480.96	319.65
481.33	320.02
481.69	320.12
482.06	320.37
482.42	320.76
482.79	321.16
483.15	321.62
483.52	322.21
483.88	322.79
484.25	323.41
484.61	324.01
484.98	324.70
485.34	325.77
485.71	326.76
486.07	327.69
486.44	328.25
486.80	329.44
487.17	330.51
487.53	331.90
487.90	333.32
488.26	335.13
488.62	336.85
488.99	338.35
489.35	340.08
489.72	341.80
490.08	343.73
490.44	345.72
490.81	347.83
491.17	350.03
491.54	352.52
491.90	355.04
492.26	357.74
492.63	360.50
492.99	363.25
493.36	366.29
493.72	369.58
494.08	373.05
494.45	376.84
494.81	380.82
495.17	384.72
495.54	389.02
495.90	393.09
496.26	397.44
496.63	402.18
496.99	407.15
497.35	412.19
497.72	417.43
498.08	422.93
498.44	428.60
498.80	434.60
499.17	440.63
499.53	446.94
499.89	453.56
500.26	460.38
500.62	467.37
500.98	474.90
501.34	482.48
501.71	490.22
502.07	498.05
502.43	506.05
502.79	514.56
503.16	523.18
503.52	532.27
503.88	541.48
504.24	551.08
504.60	560.97
504.97	571.28
505.33	581.85
505.69	592.85
506.05	603.93
506.41	615.03
506.78	626.62
507.14	638.54
507.50	650.73
507.86	663.43
508.22	676.53
508.59	689.40
508.95	702.73
509.31	716.71
509.67	730.80
510.03	745.15
510.39	759.76
510.75	774.67
511.12	790.00
511.48	805.43
511.84	821.06
512.20	837.00
512.56	853.07
512.92	869.79
513.28	886.58
513.64	903.71
514.00	921.14
514.37	939.05
514.73	957.03
515.09	975.26
515.45	993.52
515.81	1011.57
516.17	1030.26
516.53	1048.95
516.89	1067.72
517.25	1087.10
517.61	1107.29
517.97	1127.46
518.33	1147.48
518.69	1167.39
519.05	1187.91
519.41	1208.68
519.77	1229.79
520.13	1250.70
520.49	1271.14
520.85	1293.32
521.21	1314.40
521.57	1335.79
521.93	1356.33
522.29	1377.57
522.65	1398.23
523.01	1419.16
523.37	1439.85
523.73	1460.93
524.09	1481.35
524.45	1501.88
524.81	1522.63
525.17	1543.15
525.53	1563.98
525.89	1584.77
526.25	1605.90
526.61	1626.27
526.97	1647.10
527.33	1667.85
527.68	1689.65
528.04	1711.07
528.40	1730.60
528.76	1751.59
529.12	1772.09
529.48	1792.91
529.84	1813.11
530.20	1834.32
530.56	1854.98
530.91	1876.14
531.27	1896.29
531.63	1916.85
531.99	1937.54
532.35	1957.41
532.71	1977.48
533.07	1997.78
533.42	2017.61
533.78	2037.10
534.14	2057.10
534.50	2075.75
534.86	2095.04
535.21	2112.47
535.57	2130.84
535.93	2148.92
536.29	2166.78
536.65	2184.72
537.00	2202.34
537.36	2219.72
537.72	2236.17
538.08	2253.38
538.44	2269.72
538.79	2286.24
539.15	2303.08
539.51	2318.78
539.87	2334.08
540.22	2348.03
540.58	2362.16
540.94	2375.37
541.29	2388.30
541.65	2400.56
542.01	2413.49
542.37	2423.87
542.72	2434.89
543.08	2445.18
543.44	2456.23
543.79	2466.33
544.15	2476.16
544.51	2485.98
544.87	2495.85
545.22	2504.34
545.58	2512.05
545.94	2519.12
546.29	2525.61
546.65	2531.69
547.01	2537.62
547.36	2543.15
547.72	2548.51
548.07	2552.28
548.43	2557.63
548.79	2562.38
549.14	2566.78
549.50	2570.89
549.86	2575.50
550.21	2579.29
550.57	2582.74
550.92	2584.41
551.28	2585.49
551.64	2587.75
551.99	2589.91
552.35	2591.12
552.70	2593.60
553.06	2595.31
553.41	2596.67
553.77	2598.27
554.13	2599.83
554.48	2601.07
554.84	2602.15
555.19	2603.58
555.55	2605.64
555.90	2604.67
556.26	2603.46
556.61	2601.65
556.97	2598.94
557.32	2597.96
557.68	2596.84
558.03	2595.47
558.39	2594.04
558.74	2593.38
559.10	2589.91
559.45	2586.10
559.81	2581.56
560.16	2575.84
560.52	2570.51
560.87	2565.89
561.23	2560.45
561.58	2554.61
561.94	2547.81
562.29	2540.62
562.64	2533.41
563.00	2525.11
563.35	2518.70
563.71	2512.00
564.06	2505.75
564.42	2499.60
564.77	2492.75
565.12	2485.02
565.48	2477.26
565.83	2469.22
566.19	2460.80
566.54	2452.82
566.89	2444.70
567.25	2437.23
567.60	2430.62
567.96	2423.32
568.31	2415.54
568.66	2406.84
569.02	2397.65
569.37	2389.50
569.72	2381.74
570.08	2372.63
570.43	2363.20
570.78	2354.05
571.14	2344.84
571.49	2334.80
571.84	2324.85
572.20	2313.61
572.55	2303.61
572.90	2292.60
573.26	2282.30
573.61	2271.61
573.96	2260.77
574.31	2248.86
574.67	2237.01
575.02	2223.83
575.37	2210.97
575.72	2197.72
576.08	2185.50
576.43	2173.21
576.78	2160.08
577.13	2146.51
577.49	2133.80
577.84	2121.84
578.19	2109.81
578.54	2097.09
578.90	2085.26
579.25	2073.21
579.60	2061.11
579.95	2047.98
580.30	2035.07
580.66	2021.82
581.01	2008.17
581.36	1994.30
581.71	1981.70
582.06	1968.84
582.42	1956.64
582.77	1944.35
583.12	1932.41
583.47	1920.47
583.82	1908.43
584.17	1896.54
584.53	1885.05
584.88	1871.93
585.23	1858.76
585.58	1844.85
585.93	1831.70
586.28	1818.45
586.63	1804.35
586.98	1789.98
587.34	1776.85
587.69	1763.61
588.04	1750.88
588.39	1739.02
588.74	1726.86
589.09	1714.82
589.44	1702.25
589.79	1690.01
590.14	1677.88
590.49	1665.83
590.84	1653.75
591.19	1641.78
591.54	1629.51
591.89	1617.29
592.25	1607.46
592.60	1595.99
592.95	1584.43
593.30	1572.63
593.65	1560.55
594.00	1548.82
594.35	1539.19
594.70	1527.36
595.05	1516.08
595.40	1504.33
595.75	1492.40
596.10	1481.18
596.45	1469.71
596.80	1458.75
597.15	1447.31
597.50	1435.76
597.85	1424.63
598.19	1412.97
598.54	1401.25
598.89	1390.16
599.24	1379.61
599.59	1367.93
599.94	1357.17
600.29	1346.77
600.64	1336.56
600.99	1325.84
601.34	1316.21
601.69	1304.93
602.04	1295.27
602.39	1285.47
602.74	1276.16
603.08	1266.60
603.43	1257.47
603.78	1247.69
604.13	1238.21
604.48	1228.71
604.83	1218.75
605.18	1208.83
605.53	1199.34
605.87	1190.29
606.22	1181.65
606.57	1172.25
606.92	1162.90
607.27	1154.01
607.62	1145.44
607.96	1136.89
608.31	1129.01
608.66	1120.69
609.01	1112.20
609.36	1103.77
609.70	1095.39
610.05	1086.68
610.40	1078.23
610.75	1069.53
611.10	1061.28
611.44	1052.63
611.79	1044.25
612.14	1036.73
612.49	1028.95
612.83	1021.55
613.18	1013.93
613.53	1006.08
613.88	998.00
614.22	990.33
614.57	982.32
614.92	974.23
615.27	966.54
615.61	958.73
615.96	950.93
616.31	943.45
616.65	936.40
617.00	929.02
617.35	921.97
617.70	914.69
618.04	907.34
618.39	900.20
618.74	893.89
619.08	887.09
619.43	879.94
619.78	872.84
620.12	865.64
620.47	858.58
620.82	851.43
621.16	844.88
621.51	838.42
621.85	832.29
622.20	825.95
622.55	819.52
622.89	813.22
623.24	807.16
623.59	800.67
623.93	794.19
624.28	788.14
624.62	782.48
624.97	777.02
625.32	771.54
625.66	765.70
626.01	759.47
626.35	754.06
626.70	748.63
627.04	743.64
627.39	738.16
627.73	732.91
628.08	727.81
628.43	722.57
628.77	716.96
629.12	711.72
629.46	706.83
629.81	702.09
630.15	697.32
630.50	692.32
630.84	687.73
631.19	682.96
631.53	678.41
631.88	673.31
632.22	668.33
632.57	663.79
632.91	659.28
633.26	654.80
633.60	650.16
633.95	645.53
634.29	640.65
634.64	636.23
634.98	631.43
635.32	627.14
635.67	623.00
636.01	619.04
636.36	614.72
636.70	610.50
637.05	606.30
637.39	602.15
637.73	598.02
638.08	593.98
638.42	589.75
638.77	585.34
639.11	581.09
639.45	576.82
639.80	572.35
640.14	568.36
640.49	564.52
640.83	560.70
641.17	557.11
641.52	553.45
641.86	549.91
642.20	546.81
642.55	543.23
642.89	539.60
643.23	536.09
643.58	532.99
643.92	529.53
644.26	526.02
644.61	522.68
644.95	519.49
645.29	516.11
645.64	513.11
645.98	510.16
646.32	507.25
646.66	504.16
647.01	501.32
647.35	498.61
647.69	495.61
648.04	492.80
648.38	489.99
648.72	487.08
649.06	484.07
649.41	480.92
649.75	477.81
650.09	475.00
650.43	472.26
650.78	469.20
651.12	466.38
651.46	463.59
651.80	460.80
652.14	457.98
652.49	455.59
652.83	452.96
653.17	450.23
653.51	447.40
653.85	445.10
654.20	442.55
654.54	439.82
654.88	437.31
655.22	435.06
655.56	432.57
655.90	430.27
656.25	428.02
656.59	425.86
656.93	423.73
657.27	421.60
657.61	419.08
657.95	416.87
658.29	414.58
658.64	412.50
658.98	410.36
659.32	408.08
659.66	405.75
660.00	403.64
660.34	401.71
660.68	399.67
661.02	397.45
661.36	395.49
661.70	393.57
662.05	391.64
662.39	389.65
662.73	387.80
663.07	386.18
663.41	384.32
663.75	382.36
664.09	380.56
664.43	378.43
664.77	376.86
665.11	375.12
665.45	373.52
665.79	371.95
666.13	370.28
666.47	368.69
666.81	367.06
667.15	365.32
667.49	363.80
667.83	362.49
668.17	361.07
668.51	359.68
668.85	358.32
669.19	357.25
669.53	355.73
669.87	354.19
670.21	352.63
670.55	351.31
670.89	350.27
671.23	348.90
671.57	347.75
671.91	346.45
672.25	345.10
672.58	343.91
672.92	342.44
673.26	341.20
673.60	340.02
673.94	338.89
674.28	337.94
674.62	336.72
674.96	335.49
675.30	334.36
675.64	333.16
675.97	331.95
676.31	330.49
676.65	329.20
676.99	328.34
677.33	327.25
677.67	326.17
678.01	324.86
678.34	323.85
678.68	322.85
679.02	321.71
679.36	320.74
679.70	319.67
680.04	318.79
680.37	317.89
680.71	316.95
681.05	316.15
681.39	315.19
681.73	314.33
682.06	313.37
682.40	312.46
682.74	311.61
683.08	310.89
683.42	310.01
683.75	309.32
684.09	308.25
684.43	307.45
684.77	306.62
685.10	305.86
685.44	305.06
685.78	304.24
686.12	303.53
686.45	302.80
686.79	302.00
687.13	301.31
687.46	300.51
687.80	299.83
688.14	298.90
688.48	298.12
688.81	297.33
689.15	296.73
689.49	296.03
689.82	295.37
690.16	294.47
690.50	293.75
690.83	293.01
691.17	292.29
691.51	291.53
691.84	290.83
692.18	290.17
692.52	289.41
692.85	288.78
693.19	288.33
693.52	287.64
693.86	287.05
694.20	286.43
694.53	285.88
694.87	285.23
695.21	284.65
695.54	284.05
695.88	283.39
696.21	282.66
696.55	282.00
696.88	281.32
697.22	280.67
697.56	280.17
697.89	279.49
698.23	278.96
698.56	278.40
698.90	277.89
699.23	277.20
699.57	276.78
699.90	276.12
700.24	275.43
700.58	274.97
700.91	274.53
701.25	274.30
701.58	274.07
701.92	273.70
702.25	273.23
702.59	272.74
702.92	272.30
703.26	271.88
703.59	271.49
703.93	271.57
704.26	271.31
704.60	270.87
704.93	270.53
705.26	270.08
705.60	269.76
705.93	269.28
706.27	269.04
706.60	268.67
706.94	268.51
707.27	268.13
707.61	267.82
707.94	267.33
708.27	266.69
708.61	265.95
708.94	265.45
709.28	265.14
709.61	264.70
709.94	264.41
710.28	264.08
710.61	263.75
710.95	262.90
711.28	262.80
711.61	262.47
711.95	262.23
712.28	261.83
712.61	261.47
712.95	261.40
713.28	261.25
713.61	260.88
713.95	260.40
714.28	260.07
714.61	259.64
714.95	259.29
715.28	258.86
715.61	258.55
715.95	258.30
716.28	257.93
716.61	257.72
716.95	257.32
717.28	256.96
717.61	256.59
717.94	256.35
718.28	255.71
718.61	255.44
718.94	255.04
719.27	254.84
719.61	254.61
719.94	254.22
720.27	253.83
720.60	253.49
720.94	253.29
721.27	253.08
721.60	253.00
721.93	252.80
722.27	252.68
722.60	252.56
722.93	252.30
723.26	252.12
723.59	251.86
723.93	251.71
724.26	251.50
724.59	251.27
724.92	251.01
725.25	250.92
725.59	250.75
725.92	250.67
726.25	250.47
726.58	250.25
726.91	250.01
727.24	249.83
727.57	249.69
727.91	249.34
728.24	249.20
728.57	248.93
728.90	248.81
729.23	248.47
729.56	248.52
729.89	248.35
730.22	248.15
730.55	247.99
730.89	247.85
731.22	247.73
731.55	247.54
731.88	247.40
732.21	247.15
732.54	246.87
732.87	246.70
733.20	246.52
733.53	246.37
733.86	246.32
734.19	246.10
734.52	246.01
734.85	246.30
735.18	246.07
735.51	246.02
735.84	245.90
736.17	245.90
736.50	245.39
736.83	245.79
737.16	245.60
737.49	245.40
737.82	245.18
738.15	245.09
738.48	244.97
738.81	244.80
739.14	244.63
739.47	244.49
739.80	244.25
740.13	244.15
740.46	243.90
740.79	243.65
741.12	243.50
741.45	243.26
741.78	242.80
742.11	242.80
742.44	242.59
742.77	242.54
743.10	242.23
743.43	242.12
743.75	241.51
744.08	242.02
744.41	241.86
744.74	241.72
745.07	241.49
745.40	241.46
745.73	241.51
746.06	241.34
746.39	241.27
746.71	241.16
747.04	240.92
747.37	240.76
747.70	240.67
748.03	240.52
748.36	240.53
748.68	240.38
749.01	240.08
749.34	239.96
749.67	239.76
750.00	239.88
750.33	240.10
750.65	239.99
750.98	239.28
751.31	239.22
751.64	239.08
751.97	239.21
752.29	239.09
752.62	238.80
752.95	238.65
753.28	238.42
753.60	238.26
753.93	238.33
754.26	238.37
754.59	238.17
754.91	238.03
755.24	237.81
755.57	237.73
755.90	237.62
756.22	237.47
756.55	237.27
756.88	236.96
757.20	236.55
757.53	236.30
757.86	236.15
758.19	236.05
758.51	235.95
758.84	235.63
759.17	235.45
759.49	235.37
759.82	235.56
760.15	235.59
760.47	235.55
760.80	235.32
761.13	235.21
761.45	235.05
761.78	235.01
762.11	234.93
762.43	234.77
762.76	234.68
763.08	234.60
763.41	234.61
763.74	234.64
764.06	234.57
764.39	234.49
764.71	234.43
765.04	234.33
765.37	234.21
765.69	234.10
766.02	233.96
766.34	233.78
766.67	233.54
767.00	233.46
767.32	233.66
767.65	233.87
767.97	233.77
768.30	233.82
768.62	233.74
768.95	233.63
769.27	233.63
769.60	233.72
769.92	233.58
770.25	233.36
770.57	233.14
770.90	233.03
771.22	232.95
771.55	232.87
771.87	232.72
772.20	232.71
772.52	233.07
772.85	233.64
773.17	233.68
773.50	233.54
773.82	233.50
774.15	233.15
774.47	232.76
774.80	232.66
775.12	232.50
775.45	232.46
775.77	232.45
776.09	232.40
776.42	232.26
776.74	232.40
777.07	232.43
777.39	232.50
777.72	232.51
778.04	232.51
778.36	232.47
778.69	232.48
779.01	232.48
779.33	232.03
779.66	231.49
779.98	231.50
780.31	231.50
780.63	231.62
780.95	231.70
781.28	231.69
781.60	231.62
781.92	231.62
782.25	231.61
782.57	231.59
782.89	231.56
783.22	231.55
783.54	231.35
783.86	231.35
784.19	231.27
784.51	231.28
784.83	231.24
785.16	231.20
785.48	231.21
785.80	231.16
786.12	231.15
786.45	231.04
786.77	230.95
787.09	230.91
787.42	230.61
787.74	230.55
788.06	230.56
788.38	230.51
788.71	230.45
789.03	230.39
789.35	230.43
789.67	230.32
789.99	230.34
790.32	230.29
790.64	230.30
790.96	230.62
791.28	230.43
791.61	230.34
791.93	230.31
792.25	230.30
792.57	230.53
792.89	230.42
793.21	230.45
793.54	230.34
793.86	230.26
794.18	230.32
794.50	230.25
794.82	230.15
795.14	230.18
795.47	230.26
795.79	230.25
796.11	230.05
796.43	230.02
796.75	229.98
797.07	229.88
797.39	229.75
797.71	229.37
798.04	229.39
798.36	229.47
798.68	229.52
799.00	229.49
799.32	229.28
799.64	229.33
799.96	229.25
800.28	229.40
800.60	229.37
800.92	229.34
801.24	229.24
801.56	229.26
801.89	229.22
802.21	229.19
802.53	229.06
802.85	229.14
803.17	229.28
803.49	229.16
803.81	229.25
804.13	229.26
804.45	229.22
804.77	229.25
805.09	229.25
805.41	229.12
805.73	228.95
806.05	228.81
806.37	228.75
806.69	228.75
807.01	228.60
807.33	228.60
807.65	228.48
807.97	228.64
808.28	228.69
808.60	228.66
808.92	228.57
809.24	228.84
809.56	228.80
809.88	228.65
810.20	228.63
810.52	228.68
810.84	228.60
811.16	228.56
811.48	228.49
811.80	228.58
812.12	228.51
812.43	228.60
812.75	228.64
813.07	228.53
813.39	228.61
813.71	228.53
814.03	228.44
814.35	228.44
814.67	228.32
814.98	228.22
815.30	228.22
815.62	228.21
815.94	227.96
816.26	228.15
816.58	228.07
816.89	228.10
817.21	227.99
817.53	228.03
817.85	228.10
818.17	228.13
818.48	227.94
818.80	228.14
819.12	228.16
819.44	228.05
819.76	228.05
820.07	227.91
820.39	227.95
820.71	228.02
821.03	228.08
821.34	227.98
821.66	228.05
821.98	228.10
822.30	228.10
822.61	228.40
822.93	228.13
823.25	228.10
823.57	228.00
823.88	228.07
824.20	228.03
824.52	228.10
824.83	228.02
825.15	228.01
825.47	227.93
825.79	227.98
826.10	228.00
826.42	228.04
826.74	228.17
827.05	228.23
827.37	228.18
827.69	228.08
828.00	228.08
828.32	228.06
828.64	228.01
828.95	228.19
829.27	228.05
829.58	228.08
829.90	228.10
830.22	228.17
830.53	228.05
830.85	228.01
831.17	227.81
831.48	227.83
831.80	227.83
832.11	227.82
832.43	227.68
832.75	227.65
833.06	227.88
833.38	227.68
833.69	227.61
834.01	227.67
834.32	227.67
834.64	227.68
834.96	227.64
835.27	227.52
835.59	227.34
835.90	227.30
836.22	227.28
836.53	227.26
836.85	227.31
837.16	227.79
837.48	227.76
837.79	227.92
838.11	227.94
838.42	227.88
838.74	227.85
839.05	227.84
839.37	227.81
839.68	227.54
840.00	227.55
840.31	227.55
840.63	227.53
840.94	227.50
841.26	227.41
841.57	227.45
841.88	227.54
842.20	227.49
842.51	227.36
842.83	227.33
843.14	227.82
843.46	227.74
843.77	227.40
844.08	227.38
844.40	227.17
844.71	227.06
845.03	226.99
845.34	227.00
845.65	226.98
845.97	226.98
846.28	227.02
846.60	227.05
846.91	227.04
847.22	226.97
847.54	227.04
847.85	227.13
848.16	227.00
848.48	226.89
848.79	227.05
849.10	227.02
849.42	227.07
849.73	226.55
850.04	226.53
850.36	226.41
850.67	226.53
850.98	226.57
851.30	226.65
851.61	226.67
851.92	226.61
852.23	226.75
852.55	226.78
852.86	226.72
853.17	226.76
853.49	226.86
853.80	226.98
854.11	227.02
854.42	227.08
854.74	227.08
855.05	227.16
855.36	226.98
855.67	226.99
855.99	226.94
856.30	227.47
856.61	227.52
856.92	227.54
857.23	227.49
857.55	227.47
857.86	227.46
858.17	227.61
858.48	227.55
858.79	227.41
859.11	227.45
859.42	227.43
859.73	227.35
860.04	227.30
860.35	227.15
860.66	227.04
860.98	226.98
861.29	227.05
861.60	226.98
861.91	227.06
862.22	227.08
862.53	227.01
862.84	226.45
863.16	226.51
863.47	226.48
863.78	226.47
864.09	226.52
864.40	226.57
864.71	226.52
865.02	226.65
865.33	226.66
865.64	226.70
865.95	226.76
866.27	227.06
866.58	227.02
866.89	227.06
867.20	227.05
867.51	226.97
867.82	226.97
868.13	227.12
868.44	226.98
868.75	227.05
869.06	227.13
869.37	227.28
869.68	227.11
869.99	227.05
870.30	227.11
870.61	227.17
870.92	227.06
871.23	227.00
871.54	227.01
871.85	227.09
872.16	227.05
872.47	227.04
872.78	226.78
873.09	226.78
873.40	226.76
873.71	226.81
874.02	226.87
874.33	226.81
874.64	226.77
874.95	226.90
875.26	226.83
875.56	226.85
875.87	226.71
876.18	226.74
876.49	227.26
876.80	227.15
877.11	227.01
877.42	227.05
877.73	227.11
878.04	227.08
878.35	227.08
878.66	227.10
878.96	227.11
879.27	227.03
879.58	227.11
879.89	227.10
880.20	227.22
880.51	227.12
880.82	227.08
881.12	227.09
881.43	227.06
881.74	227.03
882.05	227.05
882.36	227.16
882.67	227.24
882.97	226.72
883.28	226.78
883.59	226.79
883.90	226.86
884.21	226.83
884.51	226.80
884.82	226.75
885.13	226.72
885.44	226.64
885.74	226.74
886.05	226.62
886.36	226.61
886.67	226.48
886.98	226.76
887.28	226.86
887.59	226.87
887.90	226.90
888.20	226.83
888.51	226.85
888.82	226.71
889.13	226.76
889.43	227.16
889.74	227.08
890.05	227.05
890.35	227.00
890.66	226.97
890.97	226.87
891.28	226.82
891.58	226.79
891.89	226.85
892.20	226.77
892.50	226.71
892.81	226.72
893.12	226.63
893.42	226.44
893.73	226.54
894.04	226.50
894.34	226.47
894.65	226.46
894.95	226.37
895.26	226.37
895.57	226.55
895.87	226.14
896.18	226.21
896.48	226.25
896.79	226.29
897.10	226.36
897.40	226.39
897.71	226.38
898.01	226.39
898.32	226.44
898.63	226.42
898.93	226.49
899.24	226.55
899.54	226.62
899.85	226.61
900.15	226.48
900.46	226.50
900.76	226.55
901.07	226.62
901.38	226.69
901.68	226.76
901.99	226.45
902.29	226.49
902.60	226.46
902.90	226.47
903.21	226.44
903.51	226.46
903.82	226.67
904.12	226.75
904.43	226.75
904.73	226.74
905.03	226.84
905.34	227.35
905.64	227.25
905.95	227.25
906.25	227.25
906.56	227.27
906.86	227.27
907.17	227.30
907.47	227.26
907.77	227.15
908.08	227.12
908.38	227.24
908.69	227.21
908.99	227.33
909.30	227.39
909.60	227.32
909.90	227.35
910.21	227.16
910.51	227.04
910.81	227.03
911.12	227.05
911.42	227.00
911.73	226.48
912.03	226.48
912.33	226.60
912.64	226.52
912.94	226.46
913.24	226.36
913.55	226.24
913.85	226.24
914.15	226.41
914.46	226.47
914.76	226.40
915.06	226.42
915.37	226.36
915.67	226.29
915.97	226.41
916.27	226.31
916.58	226.38
916.88	226.31
917.18	226.31
917.49	226.64
917.79	226.58
918.09	226.62
918.39	226.83
918.70	226.78
919.00	226.85
919.30	227.04
919.60	226.99
919.91	226.96
920.21	226.95
920.51	226.83
920.81	226.73
921.12	226.81
921.42	226.76
921.72	226.71
922.02	226.72
922.32	226.74
922.63	226.79
922.93	226.98
923.23	227.04
923.53	227.03
923.83	226.67
924.13	226.78
924.44	226.78
924.74	226.83
925.04	227.00
925.34	226.96
925.64	226.80
925.94	226.81
926.24	227.04
926.55	227.01
926.85	227.00
927.15	227.01
927.45	227.02
927.75	227.00
928.05	227.06
928.35	227.02
928.65	227.07
928.95	227.07
929.26	226.89
929.56	226.98
929.86	226.99
930.16	226.92
930.46	226.81
930.76	226.87
931.06	226.63
931.36	226.45
931.66	226.50
931.96	226.48
932.26	226.59
932.56	226.38
932.86	226.45
933.16	226.59
933.46	226.60
933.76	226.56
934.06	226.68
934.36	226.83
934.66	226.88
934.96	226.80
935.26	226.81
935.56	226.86
935.86	226.75
936.16	226.68
936.46	226.71
936.76	226.76
937.06	226.60
937.36	226.63
937.66	226.61
937.96	226.58
938.26	226.54
938.56	226.47
938.86	226.50
939.16	226.58
939.46	226.55
939.76	226.64
940.06	226.56
940.35	226.51
940.65	226.31
940.95	226.26
941.25	226.18
941.55	226.08
941.85	226.03
942.15	226.18
942.45	226.29
942.75	226.25
943.04	226.19
943.34	226.28
943.64	226.20
943.94	226.07
944.24	226.06
944.54	226.12
944.84	226.01
945.13	225.92
945.43	225.80
945.73	225.81
946.03	225.69
946.33	225.66
946.62	225.60
946.92	225.57
947.22	225.59
947.52	225.55
947.82	225.60
948.11	225.48
948.41	225.37
948.71	225.24
949.01	225.21
949.31	225.18
949.60	225.19
949.90	225.26
950.20	225.27
950.50	225.30
950.79	225.24
951.09	225.36
951.39	225.39
951.69	225.30
951.98	225.26
952.28	225.29
952.58	225.26
952.87	225.21
953.17	225.20
953.47	225.19
953.76	225.25
954.06	225.13
954.36	225.10
954.66	225.08
954.95	225.25
955.25	225.35
955.55	225.45
955.84	225.32
956.14	225.34
956.44	225.42
956.73	225.40
957.03	225.37
957.32	225.43
957.62	225.42
957.92	225.55
958.21	225.50
958.51	226.06
958.81	226.13
959.10	226.24
959.40	226.36
959.69	226.37
959.99	226.45
960.29	226.49
960.58	226.49
960.88	226.66
961.17	226.60
961.47	226.55
961.76	226.49
962.06	226.65
962.36	226.65
962.65	226.68
962.95	226.65
963.24	226.65
963.54	226.57
963.83	226.57
964.13	226.54
964.42	226.52
964.72	226.11
965.01	226.10
965.31	226.10
965.60	225.98
965.90	226.27
966.19	226.19
966.49	226.32
966.78	226.36
967.08	226.30
967.37	226.29
967.67	226.30
967.96	226.46
968.26	226.43
968.55	226.47
968.85	226.48
969.14	226.53
969.43	226.62
969.73	226.56
970.02	226.59
970.32	226.50
970.61	226.55
970.91	226.38
971.20	226.38
971.49	226.34
971.79	226.46
972.08	226.11
972.38	226.12
972.67	226.01
972.96	226.15
973.26	226.16
973.55	226.36
973.85	226.35
974.14	226.22
974.43	226.27
974.73	226.18
975.02	226.11
975.31	226.10
975.61	226.02
975.90	226.06
976.19	226.04
976.49	226.20
976.78	226.17
977.07	226.20
977.37	226.22
977.66	226.25
977.95	226.20
978.24	226.18
978.54	226.31
978.83	226.32
979.12	226.18
979.42	226.18
979.71	226.00
980.00	226.02
980.29	226.07
980.59	225.95
980.88	226.09
981.17	226.11
981.46	226.10
981.76	226.10
982.05	226.21
982.34	226.14
982.63	226.09
982.93	226.04
983.22	226.14
983.51	226.15
983.80	226.17
984.09	226.19
984.39	226.21
984.68	226.05
984.97	226.06
985.26	226.09
985.55	226.08
985.85	225.98
986.14	225.93
986.43	225.93
986.72	225.90
987.01	225.74
987.30	225.82
987.59	225.73
987.89	225.75
988.18	225.57
988.47	225.58
988.76	225.51
989.05	225.47
989.34	225.41
989.63	225.55
989.92	225.47
990.22	225.39
990.51	225.44
990.80	225.49
991.09	225.46
991.38	225.52
991.67	225.49
991.96	225.50
992.25	225.59
992.54	225.55
992.83	225.58
993.12	225.59
993.41	225.54
993.70	225.79
993.99	225.92
994.28	226.01
994.58	226.13
994.87	226.05
995.16	226.10
995.45	226.03
995.74	225.80
996.03	225.90
996.32	226.03
996.61	226.09
996.90	226.04
997.19	226.08
997.48	226.04
997.77	225.92
998.06	226.00
998.34	225.93
998.63	225.96
998.92	225.95
999.21	226.02
999.50	226.05
999.79	225.88
1000.08	225.87
1000.37	226.00
1000.66	225.95
1000.95	226.15
1001.24	226.18
1001.53	226.33
1001.82	226.37
1002.11	226.26
1002.40	226.21
1002.68	226.35
1002.97	226.78
1003.26	226.72
1003.55	226.66
1003.84	226.72
1004.13	226.85
1004.42	226.86
1004.71	226.81
1004.99	226.83
1005.28	226.90
1005.57	226.87
1005.86	226.85
1006.15	226.84
1006.44	226.69
1006.72	226.79
1007.01	226.69
1007.30	226.75
1007.59	226.73
1007.88	226.75
1008.17	226.84
1008.45	226.79
1008.74	226.57
1009.03	226.34
1009.32	226.41
1009.60	226.41
1009.89	226.43
1010.18	226.25
1010.47	226.24
1010.76	226.22
1011.04	226.20
1011.33	226.27
1011.62	226.28
1011.91	226.31
1012.19	226.26
1012.48	226.32
1012.77	226.26
1013.05	226.51
1013.34	226.45
1013.63	226.40
1013.92	226.44
1014.20	226.31
1014.49	226.34
1014.78	226.43
1015.06	226.21
1015.35	226.13
1015.64	226.17
1015.92	226.20
1016.21	226.20
1016.50	226.18
1016.78	226.27
1017.07	226.34
1017.36	226.18
1017.64	226.12
1017.93	226.18
1018.22	226.13
1018.50	226.10
1018.79	226.12
1019.08	225.89
1019.36	225.84
1019.65	225.74
1019.93	225.79
1020.22	225.92
1020.51	226.13
1020.79	225.95
1021.08	225.10
1021.36	225.60
1021.65	226.95
1021.94	226.10
1022.22	224.70
1022.51	224.55
1022.79	227.30
1023.08	226.90
1023.36	231.00
1023.65	223.30
>>>>>End Processed Spectral Data<<<<<
