SpectraSuite Data File
++++++++++++++++++++++++++++++++++++
Date: Wed Sep 04 17:41:29 EDT 2013
User: lab3
Dark Spectrum Present: Yes
Reference Spectrum Present: No
Number of Sampled Component Spectra: 1
Spectrometers: USB2E7196
Integration Time (usec): 170000 (USB2E7196)
Spectra Averaged: 20 (USB2E7196)
Boxcar Smoothing: 10 (USB2E7196)
Correct for Electrical Dark: No (USB2E7196)
Strobe/Lamp Enabled: No (USB2E7196)
Correct for Detector Non-linearity: No (USB2E7196)
Correct for Stray Light: No (USB2E7196)
Number of Pixels in Processed Spectrum: 2048
>>>>>Begin Processed Spectral Data<<<<<
339.09	0.00
339.48	212.00
339.86	213.80
340.24	214.50
340.63	216.10
341.01	225.75
341.39	218.95
341.78	221.85
342.16	224.30
342.54	222.90
342.93	211.83
343.31	222.51
343.69	223.03
344.07	223.45
344.46	223.95
344.84	224.39
345.22	224.38
345.60	224.63
345.99	224.80
346.37	224.86
346.75	224.92
347.13	224.96
347.52	225.10
347.90	225.27
348.28	225.31
348.66	225.41
349.05	225.32
349.43	225.35
349.81	225.40
350.19	225.46
350.57	225.48
350.96	225.56
351.34	225.61
351.72	225.79
352.10	225.93
352.48	226.02
352.87	226.07
353.25	226.11
353.63	226.19
354.01	226.24
354.39	226.26
354.77	226.39
355.15	226.60
355.54	226.47
355.92	226.45
356.30	226.53
356.68	226.84
357.06	226.88
357.44	226.94
357.82	227.04
358.20	227.41
358.58	227.48
358.97	227.57
359.35	227.79
359.73	227.85
360.11	227.95
360.49	228.00
360.87	228.04
361.25	228.20
361.63	228.41
362.01	228.45
362.39	228.48
362.77	228.53
363.15	228.55
363.53	228.64
363.91	228.66
364.29	228.74
364.67	228.35
365.05	228.41
365.43	228.49
365.81	228.54
366.19	228.48
366.57	228.64
366.95	228.60
367.33	228.45
367.71	228.46
368.09	228.48
368.47	228.41
368.85	228.47
369.23	228.50
369.61	228.31
369.99	228.52
370.37	228.57
370.75	228.79
371.13	228.64
371.51	228.57
371.89	228.52
372.27	228.47
372.65	228.48
373.03	228.46
373.41	228.33
373.78	228.22
374.16	227.91
374.54	227.77
374.92	227.69
375.30	227.68
375.68	227.54
376.06	227.53
376.44	227.48
376.82	227.42
377.19	227.25
377.57	227.23
377.95	227.00
378.33	226.86
378.71	226.51
379.09	226.57
379.47	226.64
379.84	226.63
380.22	226.54
380.60	226.35
380.98	226.23
381.36	226.21
381.73	226.07
382.11	226.05
382.49	225.95
382.87	225.79
383.25	225.72
383.62	226.21
384.00	226.02
384.38	225.98
384.76	226.02
385.13	226.18
385.51	226.04
385.89	225.94
386.27	225.88
386.64	225.91
387.02	225.78
387.40	225.63
387.78	225.57
388.15	225.49
388.53	225.46
388.91	225.44
389.29	225.38
389.66	225.45
390.04	225.40
390.42	225.48
390.79	225.58
391.17	225.59
391.55	225.05
391.92	225.09
392.30	225.15
392.68	224.98
393.05	224.91
393.43	224.96
393.81	225.00
394.18	224.99
394.56	225.01
394.94	225.13
395.31	225.10
395.69	225.25
396.06	225.35
396.44	225.47
396.82	225.54
397.19	225.84
397.57	225.89
397.95	226.03
398.32	225.90
398.70	225.98
399.07	226.09
399.45	226.14
399.82	226.23
400.20	226.26
400.58	226.40
400.95	226.30
401.33	226.52
401.70	226.92
402.08	227.10
402.45	227.25
402.83	227.45
403.20	227.65
403.58	227.68
403.95	227.96
404.33	228.15
404.71	228.34
405.08	228.72
405.46	228.85
405.83	229.13
406.21	229.40
406.58	229.70
406.96	229.92
407.33	230.24
407.70	230.57
408.08	231.20
408.45	231.60
408.83	232.02
409.20	232.34
409.58	232.46
409.95	232.86
410.33	233.31
410.70	233.63
411.08	234.15
411.45	234.67
411.82	235.07
412.20	235.69
412.57	236.52
412.95	236.76
413.32	237.49
413.69	238.11
414.07	238.92
414.44	239.59
414.82	240.43
415.19	241.44
415.56	242.40
415.94	243.20
416.31	244.36
416.68	245.62
417.06	246.94
417.43	248.26
417.81	249.76
418.18	251.23
418.55	252.80
418.93	254.41
419.30	256.24
419.67	258.15
420.04	260.03
420.42	261.97
420.79	264.56
421.16	266.94
421.54	269.54
421.91	272.05
422.28	274.64
422.66	277.41
423.03	280.30
423.40	283.09
423.77	285.98
424.15	288.95
424.52	292.02
424.89	295.50
425.26	298.84
425.64	301.96
426.01	305.45
426.38	309.17
426.75	312.98
427.13	316.70
427.50	320.58
427.87	324.68
428.24	328.65
428.61	332.33
428.99	336.85
429.36	341.20
429.73	345.70
430.10	350.38
430.47	355.01
430.85	359.67
431.22	364.86
431.59	370.54
431.96	375.77
432.33	381.45
432.70	386.97
433.08	393.51
433.45	399.73
433.82	405.90
434.19	412.72
434.56	419.47
434.93	425.88
435.30	432.34
435.68	439.56
436.05	446.66
436.42	453.61
436.79	459.97
437.16	467.03
437.53	474.43
437.90	481.72
438.27	488.98
438.64	496.32
439.01	503.20
439.38	509.27
439.75	515.26
440.13	522.11
440.50	528.39
440.87	533.62
441.24	538.92
441.61	544.61
441.98	548.85
442.35	553.71
442.72	558.80
443.09	563.73
443.46	566.53
443.83	568.37
444.20	570.15
444.57	572.30
444.94	573.29
445.31	574.22
445.68	575.36
446.05	575.42
446.42	574.46
446.79	573.27
447.16	572.02
447.53	571.02
447.90	567.88
448.27	564.85
448.64	560.75
449.01	557.70
449.37	552.65
449.74	547.67
450.11	542.14
450.48	535.67
450.85	529.06
451.22	523.53
451.59	518.15
451.96	512.82
452.33	506.22
452.70	500.14
453.07	492.99
453.43	485.45
453.80	478.56
454.17	472.01
454.54	465.74
454.91	458.94
455.28	452.32
455.65	446.31
456.02	440.84
456.38	435.58
456.75	429.24
457.12	423.92
457.49	418.64
457.86	413.30
458.23	409.11
458.59	404.38
458.96	399.51
459.33	395.31
459.70	391.16
460.07	387.80
460.43	383.89
460.80	380.36
461.17	377.35
461.54	374.13
461.91	370.96
462.27	367.76
462.64	365.05
463.01	362.16
463.38	359.39
463.74	355.88
464.11	353.29
464.48	351.15
464.85	348.73
465.21	347.09
465.58	345.13
465.95	342.79
466.32	340.94
466.68	339.02
467.05	337.22
467.42	335.28
467.78	333.31
468.15	331.51
468.52	330.20
468.88	328.30
469.25	326.65
469.62	325.38
469.98	324.04
470.35	322.77
470.72	321.55
471.08	320.12
471.45	319.18
471.82	318.22
472.18	316.97
472.55	316.20
472.92	315.05
473.28	314.18
473.65	313.25
474.02	312.46
474.38	311.86
474.75	311.25
475.11	310.65
475.48	310.12
475.85	309.73
476.21	309.14
476.58	308.78
476.94	308.47
477.31	308.13
477.67	307.81
478.04	307.50
478.41	307.35
478.77	307.74
479.14	307.58
479.50	307.50
479.87	307.61
480.23	307.75
480.60	307.75
480.96	307.91
481.33	308.38
481.69	308.56
482.06	308.71
482.42	309.04
482.79	309.37
483.15	309.81
483.52	310.38
483.88	310.90
484.25	311.43
484.61	312.15
484.98	312.76
485.34	313.69
485.71	314.70
486.07	315.58
486.44	316.14
486.80	317.16
487.17	318.29
487.53	319.57
487.90	320.88
488.26	322.40
488.62	323.95
488.99	325.29
489.35	326.99
489.72	328.71
490.08	330.60
490.44	332.59
490.81	334.68
491.17	336.59
491.54	338.92
491.90	341.28
492.26	343.70
492.63	346.34
492.99	348.95
493.36	351.70
493.72	354.69
494.08	357.78
494.45	361.22
494.81	364.76
495.17	368.28
495.54	372.02
495.90	375.90
496.26	379.93
496.63	384.12
496.99	388.45
497.35	393.07
497.72	397.90
498.08	402.70
498.44	407.79
498.80	413.35
499.17	418.68
499.53	424.29
499.89	430.33
500.26	436.36
500.62	442.67
500.98	449.43
501.34	456.07
501.71	462.98
502.07	469.80
502.43	477.03
502.79	484.43
503.16	492.16
503.52	500.08
503.88	508.03
504.24	516.60
504.60	525.45
504.97	534.44
505.33	543.41
505.69	553.28
506.05	562.86
506.41	572.59
506.78	582.78
507.14	593.16
507.50	603.73
507.86	614.63
508.22	625.78
508.59	636.84
508.95	648.70
509.31	660.80
509.67	672.83
510.03	684.84
510.39	697.52
510.75	710.28
511.12	723.16
511.48	736.40
511.84	749.82
512.20	762.92
512.56	776.78
512.92	790.80
513.28	804.81
513.64	819.24
514.00	833.80
514.37	848.67
514.73	863.80
515.09	878.95
515.45	894.23
515.81	909.22
516.17	924.62
516.53	939.75
516.89	954.87
517.25	970.93
517.61	987.38
517.97	1003.78
518.33	1019.75
518.69	1036.28
519.05	1052.76
519.41	1069.06
519.77	1086.02
520.13	1102.39
520.49	1118.89
520.85	1136.55
521.21	1153.32
521.57	1170.02
521.93	1186.09
522.29	1202.75
522.65	1218.76
523.01	1234.89
523.37	1251.11
523.73	1267.42
524.09	1283.12
524.45	1299.00
524.81	1314.91
525.17	1330.58
525.53	1345.95
525.89	1361.85
526.25	1377.41
526.61	1392.86
526.97	1408.56
527.33	1424.60
527.68	1440.89
528.04	1456.86
528.40	1471.18
528.76	1486.54
529.12	1501.76
529.48	1517.03
529.84	1531.49
530.20	1546.90
530.56	1561.88
530.91	1576.82
531.27	1591.33
531.63	1606.16
531.99	1620.85
532.35	1635.02
532.71	1649.58
533.07	1664.21
533.42	1678.28
533.78	1692.07
534.14	1706.10
534.50	1719.17
534.86	1732.57
535.21	1744.40
535.57	1756.85
535.93	1769.00
536.29	1781.05
536.65	1793.00
537.00	1804.84
537.36	1816.44
537.72	1826.96
538.08	1838.04
538.44	1848.78
538.79	1859.45
539.15	1870.26
539.51	1880.69
539.87	1890.20
540.22	1898.67
540.58	1907.40
540.94	1915.40
541.29	1923.02
541.65	1930.15
542.01	1937.57
542.37	1942.85
542.72	1949.01
543.08	1954.47
543.44	1960.82
543.79	1965.87
544.15	1971.00
544.51	1976.22
544.87	1981.06
545.22	1985.27
545.58	1988.53
545.94	1991.60
546.29	1994.05
546.65	1995.93
547.01	1997.27
547.36	1998.80
547.72	2000.19
548.07	2000.77
548.43	2001.91
548.79	2002.43
549.14	2002.73
549.50	2002.86
549.86	2003.56
550.21	2003.68
550.57	2003.81
550.92	2002.10
551.28	2000.71
551.64	1999.84
551.99	1998.37
552.35	1997.15
552.70	1996.41
553.06	1995.82
553.41	1994.34
553.77	1993.48
554.13	1992.53
554.48	1991.75
554.84	1990.79
555.19	1989.60
555.55	1988.68
555.90	1986.19
556.26	1983.83
556.61	1980.71
556.97	1977.35
557.32	1974.68
557.68	1971.96
558.03	1968.79
558.39	1965.75
558.74	1963.00
559.10	1958.79
559.45	1954.46
559.81	1949.14
560.16	1943.40
560.52	1937.60
560.87	1932.59
561.23	1926.59
561.58	1920.66
561.94	1913.60
562.29	1906.33
562.64	1899.48
563.00	1891.47
563.35	1884.92
563.71	1878.27
564.06	1872.14
564.42	1865.65
564.77	1858.90
565.12	1851.75
565.48	1844.92
565.83	1838.12
566.19	1831.08
566.54	1824.21
566.89	1817.11
567.25	1810.54
567.60	1804.03
567.96	1797.76
568.31	1790.67
568.66	1783.28
569.02	1775.19
569.37	1768.33
569.72	1761.84
570.08	1754.06
570.43	1746.27
570.78	1738.38
571.14	1730.48
571.49	1722.17
571.84	1714.23
572.20	1705.65
572.55	1697.34
572.90	1688.51
573.26	1680.01
573.61	1671.01
573.96	1661.96
574.31	1652.50
574.67	1643.21
575.02	1633.25
575.37	1623.15
575.72	1612.93
576.08	1603.79
576.43	1594.34
576.78	1584.32
577.13	1574.05
577.49	1564.49
577.84	1555.45
578.19	1546.72
578.54	1537.32
578.90	1528.17
579.25	1518.85
579.60	1509.44
579.95	1500.12
580.30	1490.28
580.66	1480.34
581.01	1470.25
581.36	1459.98
581.71	1450.70
582.06	1441.20
582.42	1432.53
582.77	1423.28
583.12	1414.57
583.47	1405.24
583.82	1396.41
584.17	1387.76
584.53	1379.12
584.88	1369.71
585.23	1360.30
585.58	1350.01
585.93	1340.68
586.28	1331.07
586.63	1321.11
586.98	1311.03
587.34	1301.49
587.69	1292.15
588.04	1283.46
588.39	1275.07
588.74	1266.47
589.09	1257.93
589.44	1248.57
589.79	1239.50
590.14	1230.85
590.49	1222.32
590.84	1213.86
591.19	1205.52
591.54	1196.74
591.89	1188.05
592.25	1181.00
592.60	1172.95
592.95	1165.10
593.30	1156.70
593.65	1148.56
594.00	1140.48
594.35	1134.11
594.70	1125.84
595.05	1117.90
595.40	1109.33
595.75	1100.94
596.10	1093.15
596.45	1085.15
596.80	1077.83
597.15	1070.23
597.50	1062.40
597.85	1054.67
598.19	1046.72
598.54	1038.69
598.89	1031.00
599.24	1023.74
599.59	1015.76
599.94	1008.45
600.29	1001.31
600.64	994.16
600.99	986.92
601.34	980.39
601.69	972.36
602.04	965.69
602.39	958.95
602.74	952.69
603.08	946.48
603.43	940.25
603.78	933.72
604.13	927.32
604.48	920.58
604.83	913.89
605.18	907.28
605.53	900.89
605.87	894.72
606.22	888.96
606.57	882.56
606.92	876.10
607.27	870.07
607.62	864.15
607.96	858.72
608.31	853.24
608.66	847.45
609.01	841.60
609.36	835.89
609.70	830.21
610.05	824.19
610.40	818.48
610.75	812.61
611.10	807.03
611.44	801.04
611.79	795.54
612.14	790.21
612.49	784.88
612.83	779.71
613.18	774.59
613.53	769.19
613.88	763.94
614.22	758.65
614.57	753.23
614.92	747.86
615.27	742.65
615.61	737.47
615.96	732.33
616.31	727.19
616.65	722.34
617.00	717.47
617.35	712.68
617.70	707.82
618.04	702.89
618.39	698.13
618.74	693.80
619.08	689.29
619.43	684.64
619.78	679.85
620.12	674.92
620.47	670.20
620.82	665.39
621.16	660.85
621.51	656.73
621.85	652.59
622.20	648.12
622.55	643.48
622.89	639.09
623.24	634.78
623.59	630.57
623.93	626.29
624.28	622.13
624.62	618.51
624.97	614.53
625.32	610.61
625.66	606.43
626.01	602.30
626.35	598.47
626.70	594.70
627.04	591.06
627.39	587.51
627.73	583.88
628.08	580.43
628.43	576.78
628.77	573.00
629.12	569.29
629.46	566.01
629.81	562.95
630.15	559.79
630.50	556.50
630.84	553.29
631.19	550.04
631.53	546.91
631.88	543.20
632.22	539.76
632.57	536.80
632.91	533.79
633.26	530.96
633.60	527.83
633.95	524.63
634.29	521.41
634.64	518.41
634.98	515.16
635.32	512.17
635.67	509.28
636.01	506.40
636.36	503.42
636.70	500.68
637.05	497.62
637.39	494.71
637.73	491.91
638.08	489.22
638.42	486.41
638.77	483.47
639.11	480.62
639.45	477.77
639.80	474.73
640.14	471.92
640.49	469.12
640.83	466.56
641.17	464.02
641.52	461.59
641.86	459.09
642.20	457.03
642.55	454.54
642.89	452.07
643.23	449.65
643.58	447.49
643.92	444.90
644.26	442.67
644.61	440.39
644.95	438.14
645.29	435.76
645.64	433.55
645.98	431.37
646.32	429.42
646.66	427.29
647.01	425.28
647.35	423.28
647.69	421.15
648.04	419.18
648.38	417.22
648.72	415.18
649.06	413.00
649.41	410.74
649.75	408.74
650.09	406.83
650.43	404.89
650.78	402.81
651.12	400.97
651.46	398.95
651.80	397.11
652.14	395.18
652.49	393.51
652.83	391.74
653.17	390.00
653.51	388.07
653.85	386.54
654.20	384.77
654.54	383.06
654.88	381.43
655.22	379.89
655.56	378.26
655.90	376.69
656.25	375.19
656.59	373.65
656.93	372.04
657.27	370.56
657.61	368.88
657.95	367.40
658.29	365.80
658.64	364.36
658.98	362.80
659.32	361.25
659.66	359.61
660.00	358.14
660.34	356.65
660.68	355.21
661.02	353.72
661.36	352.40
661.70	351.12
662.05	349.68
662.39	348.22
662.73	347.02
663.07	345.99
663.41	344.75
663.75	343.41
664.09	342.22
664.43	340.87
664.77	339.76
665.11	338.50
665.45	337.44
665.79	336.42
666.13	335.26
666.47	334.07
666.81	332.90
667.15	331.61
667.49	330.62
667.83	329.64
668.17	328.61
668.51	327.55
668.85	326.48
669.19	325.79
669.53	324.66
669.87	323.49
670.21	322.22
670.55	321.26
670.89	320.52
671.23	319.62
671.57	318.70
671.91	317.65
672.25	316.81
672.58	315.93
672.92	314.84
673.26	313.91
673.60	313.09
673.94	312.38
674.28	311.65
674.62	310.80
674.96	309.90
675.30	309.05
675.64	308.20
675.97	307.37
676.31	306.30
676.65	305.43
676.99	304.79
677.33	303.93
677.67	303.13
678.01	302.16
678.34	301.37
678.68	300.66
679.02	299.87
679.36	299.01
679.70	298.22
680.04	297.59
680.37	296.94
680.71	296.20
681.05	295.49
681.39	294.74
681.73	293.98
682.06	293.28
682.40	292.67
682.74	292.11
683.08	291.67
683.42	290.94
683.75	290.43
684.09	289.73
684.43	289.24
684.77	288.55
685.10	287.99
685.44	287.31
685.78	286.71
686.12	286.22
686.45	285.70
686.79	285.05
687.13	284.61
687.46	284.13
687.80	283.74
688.14	283.11
688.48	282.65
688.81	282.21
689.15	281.93
689.49	281.32
689.82	280.83
690.16	280.03
690.50	279.59
690.83	279.08
691.17	278.50
691.51	277.91
691.84	277.60
692.18	277.02
692.52	276.59
692.85	276.21
693.19	275.98
693.52	275.58
693.86	275.17
694.20	274.59
694.53	274.02
694.87	273.50
695.21	272.99
695.54	272.55
695.88	271.96
696.21	271.28
696.55	270.87
696.88	270.35
697.22	269.92
697.56	269.55
697.89	269.11
698.23	268.78
698.56	268.44
698.90	268.05
699.23	267.66
699.57	267.26
699.90	266.71
700.24	266.17
700.58	265.88
700.91	265.55
701.25	265.60
701.58	265.63
701.92	265.44
702.25	265.17
702.59	264.77
702.92	264.56
703.26	264.23
703.59	263.90
703.93	263.97
704.26	263.72
704.60	263.43
704.93	263.11
705.26	262.69
705.60	262.40
705.93	261.92
706.27	261.78
706.60	261.59
706.94	261.46
707.27	261.10
707.61	260.73
707.94	260.42
708.27	259.71
708.61	259.06
708.94	258.76
709.28	258.42
709.61	258.15
709.94	257.94
710.28	257.71
710.61	257.43
710.95	256.75
711.28	256.81
711.61	256.47
711.95	256.30
712.28	256.02
712.61	255.74
712.95	255.73
713.28	255.65
713.61	255.28
713.95	254.89
714.28	254.71
714.61	254.37
714.95	254.05
715.28	253.78
715.61	253.52
715.95	253.26
716.28	252.96
716.61	252.79
716.95	252.34
717.28	252.07
717.61	251.91
717.94	251.66
718.28	251.07
718.61	250.82
718.94	250.44
719.27	250.28
719.61	250.08
719.94	249.77
720.27	249.33
720.60	249.18
720.94	249.02
721.27	248.76
721.60	248.65
721.93	248.54
722.27	248.48
722.60	248.40
722.93	248.09
723.26	247.98
723.59	247.79
723.93	247.70
724.26	247.56
724.59	247.26
724.92	247.11
725.25	247.07
725.59	246.90
725.92	246.85
726.25	246.69
726.58	246.52
726.91	246.34
727.24	246.22
727.57	245.97
727.91	245.71
728.24	245.64
728.57	245.46
728.90	245.31
729.23	245.03
729.56	245.03
729.89	244.88
730.22	244.74
730.55	244.51
730.89	244.29
731.22	244.11
731.55	243.95
731.88	243.79
732.21	243.51
732.54	243.32
732.87	243.11
733.20	242.93
733.53	242.79
733.86	242.68
734.19	242.45
734.52	242.45
734.85	242.65
735.18	242.36
735.51	242.44
735.84	242.30
736.17	242.24
736.50	241.88
736.83	242.31
737.16	242.19
737.49	242.09
737.82	242.01
738.15	241.94
738.48	241.84
738.81	241.79
739.14	241.64
739.47	241.50
739.80	241.43
740.13	241.42
740.46	241.27
740.79	241.09
741.12	241.00
741.45	240.77
741.78	240.35
742.11	240.43
742.44	240.09
742.77	240.09
743.10	239.91
743.43	239.77
743.75	239.12
744.08	239.64
744.41	239.46
744.74	239.34
745.07	239.06
745.40	239.04
745.73	239.02
746.06	238.90
746.39	238.84
746.71	238.67
747.04	238.38
747.37	238.20
747.70	238.10
748.03	237.98
748.36	237.89
748.68	237.81
749.01	237.56
749.34	237.47
749.67	237.32
750.00	237.27
750.33	237.54
750.65	237.41
750.98	236.67
751.31	236.54
751.64	236.41
751.97	236.70
752.29	236.54
752.62	236.26
752.95	236.14
753.28	235.97
753.60	235.87
753.93	235.99
754.26	235.97
754.59	235.76
754.91	235.59
755.24	235.49
755.57	235.40
755.90	235.31
756.22	235.14
756.55	234.94
756.88	234.77
757.20	234.37
757.53	234.17
757.86	234.08
758.19	234.10
758.51	234.06
758.84	233.70
759.17	233.62
759.49	233.61
759.82	233.79
760.15	233.81
760.47	233.67
760.80	233.41
761.13	233.40
761.45	233.30
761.78	233.33
762.11	233.21
762.43	233.05
762.76	232.90
763.08	232.88
763.41	232.89
763.74	232.89
764.06	232.73
764.39	232.77
764.71	232.73
765.04	232.62
765.37	232.51
765.69	232.44
766.02	232.36
766.34	232.18
766.67	231.91
767.00	231.88
767.32	232.22
767.65	232.51
767.97	232.43
768.30	232.42
768.62	232.33
768.95	232.24
769.27	232.21
769.60	232.25
769.92	232.15
770.25	231.95
770.57	231.76
770.90	231.77
771.22	231.65
771.55	231.58
771.87	231.48
772.20	231.44
772.52	231.77
772.85	232.28
773.17	232.33
773.50	232.27
773.82	232.19
774.15	231.80
774.47	231.47
774.80	231.39
775.12	231.41
775.45	231.38
775.77	231.39
776.09	231.43
776.42	231.48
776.74	231.58
777.07	231.51
777.39	231.55
777.72	231.49
778.04	231.47
778.36	231.36
778.69	231.39
779.01	231.48
779.33	231.13
779.66	230.57
779.98	230.43
780.31	230.45
780.63	230.60
780.95	230.70
781.28	230.58
781.60	230.52
781.92	230.42
782.25	230.31
782.57	230.32
782.89	230.28
783.22	230.13
783.54	230.03
783.86	230.10
784.19	230.02
784.51	230.08
784.83	230.02
785.16	230.03
785.48	230.03
785.80	229.91
786.12	229.88
786.45	229.80
786.77	229.84
787.09	229.72
787.42	229.47
787.74	229.47
788.06	229.57
788.38	229.49
788.71	229.49
789.03	229.55
789.35	229.60
789.67	229.44
789.99	229.49
790.32	229.39
790.64	229.45
790.96	229.84
791.28	229.66
791.61	229.65
791.93	229.64
792.25	229.58
792.57	229.87
792.89	229.70
793.21	229.73
793.54	229.63
793.86	229.68
794.18	229.72
794.50	229.58
794.82	229.48
795.14	229.57
795.47	229.57
795.79	229.54
796.11	229.35
796.43	229.35
796.75	229.30
797.07	229.30
797.39	229.22
797.71	228.83
798.04	228.87
798.36	228.85
798.68	228.80
799.00	228.77
799.32	228.53
799.64	228.63
799.96	228.57
800.28	228.73
800.60	228.61
800.92	228.59
801.24	228.51
801.56	228.57
801.89	228.41
802.21	228.47
802.53	228.36
802.85	228.48
803.17	228.66
803.49	228.55
803.81	228.60
804.13	228.46
804.45	228.33
804.77	228.31
805.09	228.25
805.41	228.20
805.73	228.13
806.05	227.99
806.37	227.93
806.69	227.84
807.01	227.74
807.33	227.82
807.65	227.70
807.97	227.98
808.28	227.85
808.60	227.87
808.92	227.73
809.24	228.00
809.56	227.95
809.88	227.81
810.20	227.83
810.52	227.88
810.84	227.90
811.16	227.90
811.48	227.91
811.80	228.13
812.12	228.13
812.43	228.22
812.75	228.22
813.07	228.13
813.39	228.20
813.71	228.11
814.03	228.09
814.35	228.10
814.67	227.83
814.98	227.79
815.30	227.76
815.62	227.74
815.94	227.44
816.26	227.62
816.58	227.55
816.89	227.56
817.21	227.42
817.53	227.48
817.85	227.58
818.17	227.55
818.48	227.33
818.80	227.46
819.12	227.35
819.44	227.23
819.76	227.21
820.07	227.23
820.39	227.21
820.71	227.20
821.03	227.17
821.34	227.17
821.66	227.23
821.98	227.33
822.30	227.28
822.61	227.57
822.93	227.29
823.25	227.24
823.57	227.20
823.88	227.30
824.20	227.22
824.52	227.24
824.83	227.22
825.15	227.23
825.47	227.14
825.79	227.19
826.10	227.25
826.42	227.23
826.74	227.16
827.05	227.19
827.37	227.17
827.69	227.20
828.00	227.18
828.32	227.19
828.64	227.04
828.95	227.27
829.27	227.15
829.58	227.13
829.90	227.24
830.22	227.28
830.53	227.10
830.85	227.06
831.17	226.90
831.48	226.99
831.80	226.98
832.11	226.94
832.43	226.84
832.75	226.79
833.06	227.10
833.38	227.03
833.69	227.00
834.01	226.99
834.32	226.91
834.64	226.93
834.96	226.91
835.27	226.91
835.59	226.72
835.90	226.66
836.22	226.76
836.53	226.65
836.85	226.56
837.16	227.05
837.48	227.06
837.79	227.26
838.11	227.21
838.42	227.21
838.74	227.29
839.05	227.33
839.37	227.31
839.68	226.98
840.00	227.03
840.31	227.05
840.63	227.02
840.94	227.03
841.26	226.97
841.57	226.95
841.88	227.05
842.20	226.96
842.51	226.85
842.83	226.76
843.14	227.13
843.46	227.15
843.77	226.92
844.08	226.94
844.40	226.79
844.71	226.75
845.03	226.65
845.34	226.55
845.65	226.49
845.97	226.50
846.28	226.53
846.60	226.52
846.91	226.41
847.22	226.37
847.54	226.44
847.85	226.41
848.16	226.40
848.48	226.30
848.79	226.53
849.10	226.62
849.42	226.68
849.73	226.29
850.04	226.25
850.36	226.06
850.67	226.15
850.98	226.12
851.30	226.16
851.61	226.15
851.92	226.19
852.23	226.35
852.55	226.36
852.86	226.39
853.17	226.37
853.49	226.48
853.80	226.60
854.11	226.53
854.42	226.60
854.74	226.50
855.05	226.45
855.36	226.21
855.67	226.14
855.99	226.09
856.30	226.58
856.61	226.61
856.92	226.63
857.23	226.57
857.55	226.53
857.86	226.44
858.17	226.59
858.48	226.47
858.79	226.35
859.11	226.38
859.42	226.40
859.73	226.35
860.04	226.39
860.35	226.22
860.66	226.17
860.98	226.24
861.29	226.35
861.60	226.31
861.91	226.43
862.22	226.34
862.53	226.36
862.84	225.87
863.16	225.99
863.47	225.91
863.78	225.89
864.09	225.90
864.40	226.02
864.71	225.99
865.02	226.17
865.33	226.15
865.64	226.13
865.95	226.12
866.27	226.45
866.58	226.36
866.89	226.51
867.20	226.49
867.51	226.35
867.82	226.31
868.13	226.49
868.44	226.40
868.75	226.50
869.06	226.44
869.37	226.53
869.68	226.42
869.99	226.50
870.30	226.54
870.61	226.63
870.92	226.51
871.23	226.45
871.54	226.48
871.85	226.60
872.16	226.60
872.47	226.59
872.78	226.25
873.09	226.33
873.40	226.23
873.71	226.33
874.02	226.32
874.33	226.28
874.64	226.19
874.95	226.24
875.26	226.16
875.56	226.17
875.87	226.05
876.18	225.94
876.49	226.47
876.80	226.43
877.11	226.35
877.42	226.35
877.73	226.39
878.04	226.25
878.35	226.20
878.66	226.28
878.96	226.27
879.27	226.29
879.58	226.24
879.89	226.23
880.20	226.35
880.51	226.45
880.82	226.42
881.12	226.47
881.43	226.33
881.74	226.25
882.05	226.26
882.36	226.23
882.67	226.33
882.97	225.70
883.28	225.62
883.59	225.55
883.90	225.54
884.21	225.49
884.51	225.49
884.82	225.37
885.13	225.29
885.44	225.27
885.74	225.26
886.05	225.26
886.36	225.21
886.67	225.01
886.98	225.21
887.28	225.27
887.59	225.25
887.90	225.28
888.20	225.28
888.51	225.31
888.82	225.33
889.13	225.33
889.43	225.74
889.74	225.79
890.05	225.84
890.35	225.85
890.66	225.83
890.97	225.74
891.28	225.72
891.58	225.68
891.89	225.65
892.20	225.59
892.50	225.49
892.81	225.49
893.12	225.46
893.42	225.10
893.73	225.14
894.04	225.06
894.34	225.12
894.65	225.13
894.95	225.05
895.26	225.13
895.57	225.35
895.87	224.88
896.18	224.92
896.48	224.91
896.79	224.94
897.10	225.05
897.40	225.18
897.71	225.26
898.01	225.33
898.32	225.43
898.63	225.44
898.93	225.51
899.24	225.59
899.54	225.60
899.85	225.66
900.15	225.64
900.46	225.66
900.76	225.73
901.07	225.73
901.38	225.76
901.68	225.82
901.99	225.58
902.29	225.76
902.60	225.77
902.90	225.78
903.21	225.77
903.51	225.72
903.82	225.75
904.12	225.77
904.43	225.82
904.73	225.73
905.03	225.78
905.34	226.30
905.64	226.20
905.95	226.24
906.25	226.30
906.56	226.31
906.86	226.37
907.17	226.34
907.47	226.44
907.77	226.46
908.08	226.34
908.38	226.43
908.69	226.43
908.99	226.50
909.30	226.50
909.60	226.50
909.90	226.53
910.21	226.42
910.51	226.40
910.81	226.36
911.12	226.41
911.42	226.47
911.73	225.95
912.03	226.09
912.33	226.13
912.64	226.05
912.94	226.01
913.24	225.98
913.55	225.93
913.85	225.89
914.15	225.91
914.46	226.01
914.76	225.89
915.06	225.83
915.37	225.72
915.67	225.70
915.97	225.71
916.27	225.64
916.58	225.65
916.88	225.72
917.18	225.69
917.49	226.05
917.79	226.00
918.09	226.02
918.39	226.06
918.70	226.03
919.00	226.08
919.30	226.29
919.60	226.31
919.91	226.27
920.21	226.28
920.51	226.17
920.81	226.10
921.12	226.20
921.42	226.23
921.72	226.25
922.02	226.28
922.32	226.36
922.63	226.33
922.93	226.55
923.23	226.43
923.53	226.40
923.83	226.07
924.13	226.09
924.44	226.10
924.74	226.20
925.04	226.31
925.34	226.29
925.64	226.00
925.94	225.92
926.24	226.22
926.55	226.22
926.85	226.35
927.15	226.34
927.45	226.25
927.75	226.21
928.05	226.20
928.35	226.18
928.65	226.23
928.95	226.25
929.26	226.09
929.56	226.19
929.86	226.23
930.16	226.18
930.46	226.15
930.76	226.21
931.06	225.98
931.36	225.86
931.66	226.00
931.96	226.05
932.26	226.09
932.56	225.84
932.86	225.86
933.16	225.84
933.46	225.80
933.76	225.77
934.06	225.87
934.36	225.99
934.66	225.98
934.96	225.92
935.26	225.91
935.56	225.93
935.86	225.82
936.16	225.73
936.46	225.62
936.76	225.57
937.06	225.49
937.36	225.52
937.66	225.58
937.96	225.48
938.26	225.52
938.56	225.48
938.86	225.51
939.16	225.55
939.46	225.64
939.76	225.73
940.06	225.76
940.35	225.68
940.65	225.46
940.95	225.51
941.25	225.45
941.55	225.44
941.85	225.46
942.15	225.55
942.45	225.73
942.75	225.81
943.04	225.85
943.34	225.95
943.64	225.94
943.94	225.83
944.24	225.89
944.54	225.89
944.84	225.90
945.13	225.86
945.43	225.84
945.73	225.80
946.03	225.76
946.33	225.76
946.62	225.73
946.92	225.82
947.22	225.86
947.52	225.84
947.82	225.91
948.11	225.92
948.41	225.87
948.71	225.72
949.01	225.85
949.31	225.81
949.60	225.78
949.90	225.87
950.20	225.90
950.50	225.90
950.79	225.90
951.09	225.96
951.39	225.97
951.69	225.93
951.98	225.96
952.28	225.95
952.58	226.02
952.87	226.03
953.17	226.04
953.47	225.96
953.76	226.01
954.06	225.97
954.36	225.88
954.66	225.78
954.95	225.94
955.25	225.92
955.55	225.90
955.84	225.83
956.14	225.86
956.44	225.87
956.73	225.75
957.03	225.71
957.32	225.70
957.62	225.65
957.92	225.79
958.21	225.79
958.51	226.26
958.81	226.27
959.10	226.33
959.40	226.49
959.69	226.54
959.99	226.59
960.29	226.61
960.58	226.58
960.88	226.82
961.17	226.80
961.47	226.82
961.76	226.86
962.06	226.92
962.36	226.86
962.65	226.90
962.95	226.90
963.24	226.85
963.54	226.89
963.83	226.94
964.13	226.78
964.42	226.66
964.72	226.37
965.01	226.34
965.31	226.23
965.60	226.02
965.90	226.24
966.19	226.19
966.49	226.17
966.78	226.18
967.08	226.12
967.37	226.02
967.67	225.85
967.96	225.92
968.26	225.90
968.55	225.95
968.85	225.90
969.14	225.94
969.43	225.97
969.73	225.85
970.02	225.80
970.32	225.81
970.61	225.75
970.91	225.55
971.20	225.43
971.49	225.43
971.79	225.50
972.08	225.23
972.38	225.18
972.67	225.09
972.96	225.17
973.26	225.04
973.55	225.22
973.85	225.23
974.14	225.19
974.43	225.25
974.73	225.20
975.02	225.21
975.31	225.26
975.61	225.28
975.90	225.32
976.19	225.35
976.49	225.40
976.78	225.51
977.07	225.54
977.37	225.61
977.66	225.56
977.95	225.51
978.24	225.58
978.54	225.75
978.83	225.80
979.12	225.71
979.42	225.75
979.71	225.71
980.00	225.79
980.29	225.82
980.59	225.64
980.88	225.73
981.17	225.65
981.46	225.60
981.76	225.62
982.05	225.72
982.34	225.75
982.63	225.72
982.93	225.75
983.22	225.83
983.51	225.89
983.80	226.07
984.09	226.19
984.39	226.07
984.68	225.99
984.97	226.00
985.26	226.00
985.55	226.06
985.85	225.90
986.14	225.91
986.43	226.05
986.72	226.04
987.01	225.88
987.30	225.94
987.59	225.94
987.89	225.93
988.18	225.85
988.47	225.79
988.76	225.83
989.05	225.68
989.34	225.68
989.63	225.77
989.92	225.70
990.22	225.63
990.51	225.70
990.80	225.65
991.09	225.69
991.38	225.84
991.67	225.83
991.96	225.71
992.25	225.77
992.54	225.60
992.83	225.66
993.12	225.68
993.41	225.78
993.70	225.96
993.99	226.08
994.28	226.10
994.58	226.13
994.87	226.09
995.16	226.14
995.45	226.11
995.74	225.94
996.03	225.97
996.32	225.97
996.61	226.08
996.90	226.07
997.19	226.07
997.48	225.98
997.77	225.91
998.06	226.03
998.34	226.00
998.63	226.02
998.92	226.04
999.21	226.12
999.50	226.14
999.79	225.91
1000.08	225.82
1000.37	225.78
1000.66	225.72
1000.95	225.77
1001.24	225.75
1001.53	225.74
1001.82	225.74
1002.11	225.68
1002.40	225.73
1002.68	225.76
1002.97	226.05
1003.26	225.99
1003.55	225.94
1003.84	225.99
1004.13	226.14
1004.42	226.08
1004.71	226.06
1004.99	226.00
1005.28	226.06
1005.57	225.92
1005.86	225.90
1006.15	225.91
1006.44	225.87
1006.72	225.98
1007.01	225.90
1007.30	225.99
1007.59	225.98
1007.88	225.95
1008.17	225.92
1008.45	225.85
1008.74	225.65
1009.03	225.45
1009.32	225.39
1009.60	225.37
1009.89	225.25
1010.18	225.07
1010.47	225.08
1010.76	225.18
1011.04	225.18
1011.33	225.18
1011.62	225.27
1011.91	225.33
1012.19	225.30
1012.48	225.32
1012.77	225.29
1013.05	225.56
1013.34	225.51
1013.63	225.47
1013.92	225.46
1014.20	225.46
1014.49	225.50
1014.78	225.51
1015.06	225.41
1015.35	225.44
1015.64	225.48
1015.92	225.60
1016.21	225.58
1016.50	225.55
1016.78	225.51
1017.07	225.49
1017.36	225.38
1017.64	225.30
1017.93	225.34
1018.22	225.31
1018.50	225.33
1018.79	225.38
1019.08	225.07
1019.36	225.05
1019.65	225.02
1019.93	225.19
1020.22	225.21
1020.51	225.42
1020.79	225.33
1021.08	224.65
1021.36	225.10
1021.65	226.30
1021.94	224.55
1022.22	224.55
1022.51	224.30
1022.79	227.55
1023.08	224.95
1023.36	230.90
1023.65	223.05
>>>>>End Processed Spectral Data<<<<<
