SpectraSuite Data File
++++++++++++++++++++++++++++++++++++
Date: Wed Sep 04 18:03:32 EDT 2013
User: lab3
Dark Spectrum Present: Yes
Reference Spectrum Present: No
Number of Sampled Component Spectra: 1
Spectrometers: USB2E7196
Integration Time (usec): 170000 (USB2E7196)
Spectra Averaged: 20 (USB2E7196)
Boxcar Smoothing: 10 (USB2E7196)
Correct for Electrical Dark: No (USB2E7196)
Strobe/Lamp Enabled: No (USB2E7196)
Correct for Detector Non-linearity: No (USB2E7196)
Correct for Stray Light: No (USB2E7196)
Number of Pixels in Processed Spectrum: 2048
>>>>>Begin Processed Spectral Data<<<<<
339.09	0.00
339.48	212.60
339.86	213.75
340.24	217.15
340.63	216.50
341.01	226.05
341.39	220.90
341.78	222.70
342.16	224.05
342.54	223.30
342.93	212.45
343.31	223.19
343.69	223.75
344.07	224.29
344.46	224.78
344.84	225.30
345.22	225.32
345.60	225.58
345.99	225.77
346.37	225.90
346.75	226.08
347.13	226.10
347.52	226.24
347.90	226.48
348.28	226.55
348.66	226.74
349.05	226.60
349.43	226.71
349.81	226.80
350.19	226.85
350.57	226.89
350.96	227.05
351.34	227.13
351.72	227.23
352.10	227.28
352.48	227.23
352.87	227.23
353.25	227.32
353.63	227.31
354.01	227.35
354.39	227.42
354.77	227.47
355.15	227.71
355.54	227.65
355.92	227.44
356.30	227.51
356.68	227.82
357.06	227.91
357.44	227.87
357.82	227.85
358.20	228.41
358.58	228.46
358.97	228.44
359.35	228.51
359.73	228.69
360.11	228.75
360.49	228.89
360.87	228.92
361.25	229.00
361.63	229.32
362.01	229.40
362.39	229.43
362.77	229.50
363.15	229.56
363.53	229.62
363.91	229.76
364.29	229.83
364.67	229.45
365.05	229.50
365.43	229.68
365.81	229.85
366.19	229.62
366.57	229.85
366.95	229.92
367.33	229.90
367.71	229.89
368.09	230.05
368.47	230.02
368.85	230.06
369.23	230.15
369.61	229.85
369.99	229.95
370.37	229.91
370.75	230.09
371.13	229.87
371.51	229.87
371.89	229.94
372.27	229.98
372.65	230.03
373.03	230.00
373.41	229.88
373.78	229.75
374.16	229.52
374.54	229.31
374.92	229.19
375.30	229.14
375.68	229.02
376.06	228.99
376.44	228.88
376.82	228.79
377.19	228.62
377.57	228.66
377.95	228.51
378.33	228.46
378.71	228.13
379.09	228.21
379.47	228.15
379.84	227.99
380.22	227.80
380.60	227.63
380.98	227.63
381.36	227.56
381.73	227.49
382.11	227.54
382.49	227.56
382.87	227.42
383.25	227.38
383.62	227.83
384.00	227.58
384.38	227.57
384.76	227.63
385.13	227.76
385.51	227.66
385.89	227.55
386.27	227.52
386.64	227.63
387.02	227.52
387.40	227.47
387.78	227.45
388.15	227.52
388.53	227.41
388.91	227.33
389.29	227.31
389.66	227.31
390.04	227.13
390.42	227.15
390.79	227.14
391.17	227.06
391.55	226.59
391.92	226.65
392.30	226.74
392.68	226.62
393.05	226.55
393.43	226.60
393.81	226.67
394.18	226.56
394.56	226.53
394.94	226.63
395.31	226.62
395.69	226.79
396.06	226.84
396.44	226.90
396.82	226.87
397.19	227.14
397.57	227.16
397.95	227.28
398.32	227.17
398.70	227.35
399.07	227.54
399.45	227.56
399.82	227.69
400.20	227.67
400.58	227.81
400.95	227.81
401.33	228.05
401.70	228.44
402.08	228.65
402.45	228.76
402.83	229.01
403.20	229.12
403.58	229.19
403.95	229.44
404.33	229.75
404.71	230.00
405.08	230.39
405.46	230.67
405.83	230.90
406.21	231.21
406.58	231.51
406.96	231.80
407.33	232.15
407.70	232.57
408.08	233.30
408.45	233.71
408.83	234.24
409.20	234.55
409.58	234.68
409.95	235.28
410.33	235.81
410.70	236.20
411.08	236.79
411.45	237.42
411.82	237.94
412.20	238.67
412.57	239.63
412.95	240.01
413.32	240.93
413.69	241.81
414.07	242.70
414.44	243.69
414.82	244.68
415.19	245.90
415.56	247.04
415.94	248.07
416.31	249.53
416.68	250.87
417.06	252.46
417.43	254.16
417.81	255.86
418.18	257.69
418.55	259.60
418.93	261.76
419.30	263.85
419.67	266.08
420.04	268.42
420.42	270.79
420.79	273.86
421.16	276.51
421.54	279.60
421.91	282.57
422.28	285.69
422.66	288.98
423.03	292.36
423.40	295.67
423.77	299.23
424.15	302.74
424.52	306.64
424.89	310.90
425.26	314.84
425.64	318.62
426.01	322.83
426.38	327.32
426.75	331.80
427.13	336.39
427.50	341.25
427.87	346.02
428.24	350.97
428.61	355.51
428.99	360.89
429.36	366.43
429.73	371.95
430.10	377.42
430.47	383.10
430.85	388.76
431.22	395.03
431.59	401.75
431.96	408.20
432.33	415.09
432.70	421.73
433.08	429.71
433.45	437.20
433.82	444.59
434.19	452.73
434.56	460.86
434.93	468.67
435.30	476.48
435.68	485.23
436.05	493.73
436.42	502.10
436.79	509.82
437.16	518.21
437.53	527.09
437.90	535.89
438.27	544.64
438.64	553.76
439.01	561.93
439.38	569.30
439.75	576.40
440.13	584.54
440.50	592.07
440.87	598.19
441.24	604.66
441.61	611.78
441.98	616.97
442.35	622.81
442.72	628.75
443.09	634.67
443.46	638.01
443.83	640.28
444.20	642.23
444.57	644.92
444.94	645.90
445.31	647.10
445.68	648.53
446.05	648.66
446.42	647.21
446.79	645.91
447.16	644.22
447.53	642.98
447.90	639.27
448.27	635.70
448.64	630.78
449.01	626.99
449.37	620.57
449.74	614.47
450.11	607.57
450.48	599.82
450.85	591.75
451.22	584.95
451.59	578.31
451.96	572.05
452.33	563.89
452.70	556.56
453.07	547.88
453.43	538.52
453.80	530.02
454.17	521.92
454.54	514.14
454.91	505.94
455.28	497.86
455.65	490.26
456.02	483.26
456.38	476.92
456.75	469.06
457.12	462.68
457.49	456.38
457.86	449.91
458.23	444.69
458.59	438.90
458.96	433.01
459.33	427.86
459.70	422.74
460.07	418.75
460.43	414.01
460.80	409.70
461.17	406.13
461.54	402.18
461.91	398.45
462.27	394.62
462.64	391.31
463.01	387.79
463.38	384.55
463.74	380.55
464.11	377.40
464.48	374.93
464.85	372.01
465.21	369.82
465.58	367.69
465.95	364.82
466.32	362.55
466.68	360.31
467.05	358.17
467.42	355.94
467.78	353.51
468.15	351.30
468.52	349.63
468.88	347.30
469.25	345.30
469.62	343.84
469.98	342.14
470.35	340.58
470.72	339.12
471.08	337.30
471.45	336.11
471.82	334.84
472.18	333.26
472.55	332.28
472.92	330.92
473.28	329.66
473.65	328.63
474.02	327.55
474.38	326.63
474.75	325.77
475.11	324.82
475.48	324.17
475.85	323.60
476.21	322.93
476.58	322.43
476.94	322.08
477.31	321.43
477.67	321.06
478.04	320.83
478.41	320.50
478.77	320.81
479.14	320.45
479.50	320.28
479.87	320.38
480.23	320.34
480.60	320.28
480.96	320.35
481.33	320.72
481.69	320.93
482.06	321.18
482.42	321.38
482.79	321.76
483.15	322.19
483.52	322.81
483.88	323.34
484.25	323.93
484.61	324.59
484.98	325.27
485.34	326.27
485.71	327.11
486.07	328.15
486.44	328.81
486.80	329.86
487.17	331.11
487.53	332.50
487.90	333.90
488.26	335.66
488.62	337.33
488.99	338.77
489.35	340.55
489.72	342.43
490.08	344.40
490.44	346.37
490.81	348.72
491.17	350.98
491.54	353.37
491.90	355.84
492.26	358.55
492.63	361.47
492.99	364.26
493.36	367.40
493.72	370.81
494.08	374.31
494.45	378.14
494.81	382.02
495.17	385.76
495.54	389.99
495.90	394.19
496.26	398.63
496.63	403.46
496.99	408.26
497.35	413.35
497.72	418.72
498.08	424.35
498.44	429.90
498.80	436.01
499.17	442.15
499.53	448.50
499.89	455.23
500.26	462.05
500.62	469.00
500.98	476.37
501.34	483.73
501.71	491.55
502.07	499.40
502.43	507.57
502.79	516.04
503.16	524.80
503.52	533.73
503.88	543.10
504.24	552.76
504.60	562.92
504.97	573.39
505.33	583.85
505.69	594.88
506.05	605.94
506.41	617.04
506.78	628.82
507.14	640.98
507.50	653.16
507.86	665.84
508.22	678.95
508.59	692.08
508.95	705.81
509.31	719.85
509.67	734.01
510.03	748.18
510.39	762.97
510.75	777.92
511.12	793.27
511.48	808.78
511.84	824.47
512.20	840.33
512.56	856.52
512.92	873.25
513.28	890.04
513.64	907.45
514.00	924.95
514.37	942.58
514.73	960.77
515.09	979.03
515.45	997.66
515.81	1016.04
516.17	1034.87
516.53	1053.47
516.89	1072.01
517.25	1091.59
517.61	1111.67
517.97	1131.87
518.33	1151.99
518.69	1172.42
519.05	1193.00
519.41	1213.55
519.77	1234.66
520.13	1255.47
520.49	1276.39
520.85	1298.83
521.21	1319.99
521.57	1341.70
521.93	1362.79
522.29	1384.25
522.65	1405.04
523.01	1425.89
523.37	1446.51
523.73	1467.71
524.09	1488.43
524.45	1509.59
524.81	1530.49
525.17	1551.69
525.53	1572.49
525.89	1593.46
526.25	1614.35
526.61	1634.70
526.97	1655.98
527.33	1677.30
527.68	1699.25
528.04	1720.54
528.40	1740.20
528.76	1761.30
529.12	1781.36
529.48	1802.04
529.84	1821.82
530.20	1843.00
530.56	1864.02
530.91	1885.56
531.27	1906.13
531.63	1926.82
531.99	1947.75
532.35	1967.96
532.71	1988.24
533.07	2009.10
533.42	2028.89
533.78	2048.93
534.14	2069.22
534.50	2088.22
534.86	2107.57
535.21	2125.17
535.57	2143.90
535.93	2162.00
536.29	2179.82
536.65	2198.32
537.00	2216.03
537.36	2233.98
537.72	2250.89
538.08	2268.03
538.44	2284.35
538.79	2300.86
539.15	2317.47
539.51	2333.30
539.87	2348.40
540.22	2362.48
540.58	2376.71
540.94	2390.17
541.29	2402.89
541.65	2415.44
542.01	2428.39
542.37	2439.11
542.72	2450.51
543.08	2461.32
543.44	2473.36
543.79	2483.80
544.15	2493.58
544.51	2503.82
544.87	2513.51
545.22	2522.55
545.58	2530.51
545.94	2538.43
546.29	2545.11
546.65	2551.71
547.01	2557.39
547.36	2563.28
547.72	2569.02
548.07	2573.40
548.43	2579.23
548.79	2584.04
549.14	2588.22
549.50	2592.22
549.86	2596.60
550.21	2600.41
550.57	2603.47
550.92	2604.45
551.28	2605.67
551.64	2608.44
551.99	2610.45
552.35	2611.93
552.70	2613.91
553.06	2615.55
553.41	2616.50
553.77	2618.40
554.13	2620.28
554.48	2621.82
554.84	2623.40
555.19	2624.65
555.55	2626.15
555.90	2625.10
556.26	2624.51
556.61	2623.34
556.97	2621.23
557.32	2620.39
557.68	2619.23
558.03	2618.12
558.39	2617.31
558.74	2616.60
559.10	2613.32
559.45	2609.98
559.81	2605.80
560.16	2600.65
560.52	2595.98
560.87	2591.82
561.23	2586.39
561.58	2580.02
561.94	2573.50
562.29	2565.88
562.64	2558.60
563.00	2550.47
563.35	2544.20
563.71	2537.59
564.06	2531.12
564.42	2524.63
564.77	2517.95
565.12	2510.30
565.48	2502.60
565.83	2494.68
566.19	2486.75
566.54	2478.80
566.89	2470.52
567.25	2462.79
567.60	2455.35
567.96	2447.41
568.31	2439.11
568.66	2430.32
569.02	2421.44
569.37	2413.12
569.72	2405.74
570.08	2396.78
570.43	2387.14
570.78	2377.90
571.14	2368.33
571.49	2358.45
571.84	2348.87
572.20	2337.50
572.55	2327.51
572.90	2316.57
573.26	2306.09
573.61	2294.82
573.96	2283.84
574.31	2271.81
574.67	2260.12
575.02	2247.75
575.37	2235.60
575.72	2222.68
576.08	2210.50
576.43	2197.98
576.78	2184.71
577.13	2171.04
577.49	2158.21
577.84	2146.44
578.19	2134.44
578.54	2121.80
578.90	2109.52
579.25	2097.11
579.60	2084.71
579.95	2071.51
580.30	2058.46
580.66	2044.89
581.01	2031.26
581.36	2016.92
581.71	2004.45
582.06	1991.20
582.42	1978.39
582.77	1965.23
583.12	1953.03
583.47	1940.62
583.82	1928.53
584.17	1916.43
584.53	1904.39
584.88	1891.44
585.23	1878.46
585.58	1864.05
585.93	1850.65
586.28	1837.11
586.63	1822.65
586.98	1808.35
587.34	1795.22
587.69	1781.91
588.04	1769.12
588.39	1757.04
588.74	1745.01
589.09	1732.62
589.44	1719.85
589.79	1707.82
590.14	1695.91
590.49	1683.75
590.84	1671.29
591.19	1659.10
591.54	1646.71
591.89	1634.37
592.25	1624.22
592.60	1612.55
592.95	1601.13
593.30	1589.20
593.65	1577.33
594.00	1565.67
594.35	1555.89
594.70	1543.93
595.05	1532.21
595.40	1520.14
595.75	1508.07
596.10	1496.87
596.45	1485.16
596.80	1474.37
597.15	1462.90
597.50	1450.98
597.85	1439.64
598.19	1428.07
598.54	1416.61
598.89	1405.60
599.24	1395.05
599.59	1382.95
599.94	1371.96
600.29	1361.38
600.64	1350.98
600.99	1340.19
601.34	1330.65
601.69	1319.43
602.04	1309.46
602.39	1299.90
602.74	1290.64
603.08	1281.36
603.43	1272.07
603.78	1262.33
604.13	1252.82
604.48	1242.96
604.83	1233.21
605.18	1223.35
605.53	1213.84
605.87	1204.30
606.22	1195.33
606.57	1185.96
606.92	1176.54
607.27	1167.49
607.62	1158.67
607.96	1150.07
608.31	1141.96
608.66	1133.44
609.01	1124.75
609.36	1116.29
609.70	1107.51
610.05	1098.66
610.40	1089.87
610.75	1081.03
611.10	1072.70
611.44	1063.63
611.79	1055.24
612.14	1047.31
612.49	1039.31
612.83	1031.85
613.18	1024.26
613.53	1016.41
613.88	1008.17
614.22	1000.50
614.57	992.37
614.92	984.46
615.27	976.89
615.61	969.18
615.96	961.25
616.31	953.59
616.65	946.35
617.00	938.97
617.35	931.68
617.70	924.46
618.04	917.09
618.39	910.13
618.74	903.95
619.08	897.26
619.43	890.13
619.78	882.73
620.12	875.61
620.47	868.54
620.82	861.45
621.16	854.78
621.51	848.34
621.85	842.00
622.20	835.50
622.55	828.57
622.89	822.08
623.24	815.71
623.59	809.40
623.93	802.96
624.28	796.93
624.62	791.18
624.97	785.31
625.32	779.53
625.66	773.58
626.01	767.16
626.35	761.35
626.70	755.61
627.04	750.63
627.39	744.91
627.73	739.64
628.08	734.34
628.43	728.89
628.77	723.18
629.12	717.82
629.46	712.73
629.81	708.03
630.15	703.09
630.50	698.25
630.84	693.22
631.19	688.33
631.53	683.54
631.88	678.23
632.22	673.30
632.57	668.83
632.91	664.05
633.26	659.61
633.60	654.97
633.95	650.30
634.29	645.35
634.64	640.96
634.98	636.07
635.32	631.63
635.67	627.45
636.01	623.36
636.36	619.05
636.70	615.04
637.05	610.70
637.39	606.55
637.73	602.31
638.08	598.29
638.42	594.16
638.77	589.85
639.11	585.59
639.45	581.22
639.80	576.76
640.14	572.60
640.49	568.54
640.83	564.71
641.17	561.12
641.52	557.35
641.86	553.60
642.20	550.38
642.55	546.66
642.89	543.17
643.23	539.70
643.58	536.52
643.92	532.75
644.26	529.45
644.61	526.15
644.95	522.74
645.29	519.27
645.64	516.05
645.98	512.95
646.32	510.03
646.66	506.98
647.01	503.99
647.35	501.19
647.69	498.33
648.04	495.43
648.38	492.58
648.72	489.67
649.06	486.60
649.41	483.50
649.75	480.53
650.09	477.56
650.43	474.55
650.78	471.61
651.12	468.85
651.46	466.04
651.80	463.34
652.14	460.73
652.49	458.40
652.83	455.77
653.17	453.01
653.51	450.32
653.85	447.91
654.20	445.40
654.54	442.78
654.88	440.08
655.22	437.78
655.56	435.35
655.90	433.00
656.25	430.78
656.59	428.54
656.93	426.35
657.27	424.25
657.61	421.84
657.95	419.55
658.29	417.31
658.64	415.16
658.98	412.82
659.32	410.46
659.66	408.10
660.00	405.85
660.34	403.83
660.68	401.78
661.02	399.76
661.36	397.78
661.70	395.78
662.05	393.90
662.39	391.96
662.73	390.15
663.07	388.51
663.41	386.59
663.75	384.61
664.09	382.79
664.43	380.70
664.77	379.15
665.11	377.40
665.45	375.80
665.79	374.06
666.13	372.32
666.47	370.57
666.81	368.84
667.15	367.17
667.49	365.65
667.83	364.28
668.17	362.69
668.51	361.22
668.85	359.89
669.19	358.71
669.53	356.99
669.87	355.33
670.21	353.80
670.55	352.54
670.89	351.47
671.23	350.06
671.57	348.79
671.91	347.41
672.25	346.05
672.58	344.79
672.92	343.38
673.26	342.23
673.60	341.12
673.94	340.08
674.28	338.98
674.62	337.85
674.96	336.50
675.30	335.37
675.64	334.07
675.97	332.80
676.31	331.44
676.65	330.30
676.99	329.43
677.33	328.20
677.67	326.99
678.01	325.63
678.34	324.49
678.68	323.52
679.02	322.36
679.36	321.37
679.70	320.30
680.04	319.41
680.37	318.34
680.71	317.41
681.05	316.48
681.39	315.51
681.73	314.52
682.06	313.65
682.40	312.75
682.74	311.97
683.08	311.30
683.42	310.38
683.75	309.70
684.09	308.70
684.43	307.93
684.77	307.16
685.10	306.45
685.44	305.82
685.78	305.06
686.12	304.35
686.45	303.49
686.79	302.65
687.13	301.91
687.46	301.22
687.80	300.60
688.14	299.75
688.48	299.00
688.81	298.22
689.15	297.62
689.49	296.86
689.82	296.20
690.16	295.34
690.50	294.66
690.83	293.88
691.17	293.10
691.51	292.38
691.84	291.76
692.18	291.06
692.52	290.24
692.85	289.65
693.19	289.26
693.52	288.69
693.86	288.11
694.20	287.47
694.53	286.79
694.87	286.03
695.21	285.39
695.54	284.92
695.88	284.24
696.21	283.38
696.55	282.77
696.88	282.09
697.22	281.43
697.56	280.87
697.89	280.30
698.23	279.82
698.56	279.25
698.90	278.63
699.23	278.06
699.57	277.55
699.90	276.86
700.24	276.15
700.58	275.78
700.91	275.30
701.25	275.22
701.58	275.10
701.92	274.77
702.25	274.38
702.59	273.83
702.92	273.40
703.26	273.07
703.59	272.56
703.93	272.47
704.26	272.07
704.60	271.67
704.93	271.16
705.26	270.64
705.60	270.30
705.93	269.80
706.27	269.52
706.60	269.27
706.94	269.08
707.27	268.62
707.61	268.10
707.94	267.71
708.27	266.94
708.61	266.17
708.94	265.64
709.28	265.22
709.61	264.75
709.94	264.38
710.28	263.99
710.61	263.77
710.95	263.03
711.28	263.06
711.61	262.67
711.95	262.45
712.28	262.13
712.61	261.76
712.95	261.66
713.28	261.52
713.61	261.08
713.95	260.64
714.28	260.42
714.61	260.06
714.95	259.69
715.28	259.27
715.61	258.97
715.95	258.71
716.28	258.32
716.61	258.16
716.95	257.88
717.28	257.58
717.61	257.20
717.94	256.96
718.28	256.26
718.61	255.90
718.94	255.49
719.27	255.22
719.61	255.03
719.94	254.61
720.27	254.07
720.60	253.80
720.94	253.56
721.27	253.33
721.60	253.18
721.93	252.93
722.27	252.91
722.60	252.69
722.93	252.45
723.26	252.37
723.59	252.09
723.93	251.96
724.26	251.80
724.59	251.62
724.92	251.43
725.25	251.39
725.59	251.24
725.92	251.12
726.25	250.92
726.58	250.69
726.91	250.54
727.24	250.45
727.57	250.29
727.91	249.96
728.24	249.85
728.57	249.66
728.90	249.52
729.23	249.20
729.56	249.29
729.89	249.03
730.22	248.77
730.55	248.62
730.89	248.41
731.22	248.17
731.55	248.02
731.88	247.96
732.21	247.64
732.54	247.39
732.87	247.22
733.20	247.08
733.53	246.93
733.86	246.83
734.19	246.55
734.52	246.45
734.85	246.67
735.18	246.45
735.51	246.40
735.84	246.31
736.17	246.28
736.50	245.88
736.83	246.40
737.16	246.29
737.49	246.06
737.82	245.93
738.15	245.85
738.48	245.59
738.81	245.35
739.14	245.20
739.47	245.06
739.80	244.94
740.13	244.90
740.46	244.73
740.79	244.50
741.12	244.31
741.45	244.05
741.78	243.61
742.11	243.60
742.44	243.34
742.77	243.19
743.10	242.92
743.43	242.75
743.75	242.07
744.08	242.60
744.41	242.50
744.74	242.28
745.07	242.05
745.40	242.09
745.73	242.14
746.06	242.06
746.39	242.05
746.71	241.85
747.04	241.55
747.37	241.36
747.70	241.34
748.03	241.24
748.36	241.26
748.68	241.10
749.01	240.68
749.34	240.48
749.67	240.38
750.00	240.35
750.33	240.60
750.65	240.49
750.98	239.71
751.31	239.59
751.64	239.53
751.97	239.58
752.29	239.40
752.62	239.01
752.95	238.79
753.28	238.55
753.60	238.34
753.93	238.35
754.26	238.26
754.59	237.94
754.91	237.73
755.24	237.52
755.57	237.41
755.90	237.31
756.22	237.22
756.55	236.97
756.88	236.70
757.20	236.22
757.53	235.95
757.86	235.82
758.19	235.73
758.51	235.55
758.84	235.24
759.17	235.06
759.49	235.02
759.82	235.13
760.15	235.05
760.47	235.04
760.80	234.78
761.13	234.68
761.45	234.61
761.78	234.58
762.11	234.46
762.43	234.31
762.76	234.20
763.08	234.14
763.41	234.10
763.74	234.05
764.06	233.98
764.39	233.92
764.71	233.88
765.04	233.72
765.37	233.63
765.69	233.55
766.02	233.45
766.34	233.30
766.67	233.12
767.00	233.14
767.32	233.36
767.65	233.61
767.97	233.57
768.30	233.57
768.62	233.50
768.95	233.44
769.27	233.41
769.60	233.45
769.92	233.33
770.25	233.15
770.57	232.97
770.90	232.96
771.22	232.89
771.55	232.79
771.87	232.76
772.20	232.75
772.52	233.16
772.85	233.79
773.17	233.81
773.50	233.71
773.82	233.62
774.15	233.26
774.47	232.92
774.80	232.84
775.12	232.83
775.45	232.82
775.77	232.78
776.09	232.82
776.42	232.80
776.74	232.94
777.07	232.97
777.39	233.06
777.72	232.94
778.04	233.02
778.36	232.97
778.69	232.90
779.01	232.92
779.33	232.44
779.66	231.80
779.98	231.71
780.31	231.70
780.63	231.84
780.95	231.94
781.28	231.91
781.60	231.84
781.92	231.77
782.25	231.74
782.57	231.74
782.89	231.68
783.22	231.63
783.54	231.44
783.86	231.35
784.19	231.31
784.51	231.34
784.83	231.18
785.16	231.14
785.48	231.19
785.80	231.09
786.12	231.11
786.45	231.07
786.77	231.05
787.09	231.03
787.42	230.85
787.74	230.84
788.06	230.87
788.38	230.80
788.71	230.67
789.03	230.65
789.35	230.65
789.67	230.55
789.99	230.55
790.32	230.49
790.64	230.55
790.96	230.83
791.28	230.71
791.61	230.67
791.93	230.66
792.25	230.56
792.57	230.98
792.89	230.88
793.21	230.98
793.54	230.94
793.86	230.81
794.18	230.73
794.50	230.62
794.82	230.54
795.14	230.63
795.47	230.77
795.79	230.75
796.11	230.54
796.43	230.46
796.75	230.43
797.07	230.43
797.39	230.38
797.71	230.09
798.04	230.10
798.36	230.12
798.68	230.08
799.00	230.20
799.32	229.85
799.64	229.89
799.96	229.77
800.28	229.85
800.60	229.85
800.92	229.92
801.24	229.86
801.56	229.97
801.89	229.87
802.21	229.86
802.53	229.78
802.85	229.96
803.17	230.22
803.49	230.08
803.81	230.05
804.13	230.07
804.45	229.99
804.77	230.01
805.09	230.01
805.41	229.97
805.73	229.83
806.05	229.65
806.37	229.59
806.69	229.58
807.01	229.52
807.33	229.55
807.65	229.33
807.97	229.52
808.28	229.40
808.60	229.44
808.92	229.36
809.24	229.61
809.56	229.50
809.88	229.26
810.20	229.38
810.52	229.52
810.84	229.39
811.16	229.31
811.48	229.35
811.80	229.50
812.12	229.47
812.43	229.57
812.75	229.62
813.07	229.61
813.39	229.63
813.71	229.54
814.03	229.54
814.35	229.55
814.67	229.34
814.98	229.28
815.30	229.30
815.62	229.15
815.94	228.85
816.26	229.09
816.58	229.07
816.89	229.08
817.21	228.90
817.53	229.01
817.85	229.06
818.17	228.91
818.48	228.72
818.80	228.88
819.12	228.70
819.44	228.68
819.76	228.65
820.07	228.57
820.39	228.61
820.71	228.61
821.03	228.57
821.34	228.52
821.66	228.61
821.98	228.53
822.30	228.63
822.61	228.92
822.93	228.68
823.25	228.62
823.57	228.52
823.88	228.62
824.20	228.55
824.52	228.66
824.83	228.73
825.15	228.60
825.47	228.47
825.79	228.68
826.10	228.63
826.42	228.62
826.74	228.68
827.05	228.69
827.37	228.70
827.69	228.78
828.00	228.84
828.32	228.79
828.64	228.77
828.95	228.97
829.27	228.86
829.58	228.85
829.90	228.93
830.22	228.93
830.53	228.78
830.85	228.82
831.17	228.60
831.48	228.57
831.80	228.72
832.11	228.74
832.43	228.60
832.75	228.64
833.06	228.90
833.38	228.80
833.69	228.68
834.01	228.68
834.32	228.64
834.64	228.61
834.96	228.58
835.27	228.60
835.59	228.43
835.90	228.33
836.22	228.26
836.53	228.21
836.85	228.17
837.16	228.68
837.48	228.57
837.79	228.83
838.11	228.82
838.42	228.79
838.74	228.80
839.05	228.73
839.37	228.68
839.68	228.32
840.00	228.27
840.31	228.42
840.63	228.40
840.94	228.32
841.26	228.24
841.57	228.23
841.88	228.29
842.20	228.20
842.51	228.10
842.83	228.10
843.14	228.47
843.46	228.45
843.77	228.17
844.08	228.25
844.40	228.02
844.71	228.04
845.03	228.00
845.34	227.96
845.65	228.00
845.97	227.99
846.28	228.07
846.60	228.08
846.91	227.96
847.22	227.87
847.54	228.01
847.85	228.11
848.16	228.07
848.48	227.97
848.79	228.18
849.10	228.26
849.42	228.33
849.73	227.91
850.04	227.91
850.36	227.73
850.67	227.74
850.98	227.80
851.30	227.80
851.61	227.72
851.92	227.75
852.23	227.85
852.55	227.93
852.86	227.95
853.17	228.04
853.49	228.17
853.80	228.37
854.11	228.38
854.42	228.40
854.74	228.44
855.05	228.40
855.36	228.18
855.67	228.21
855.99	228.24
856.30	228.85
856.61	228.86
856.92	228.87
857.23	228.91
857.55	228.90
857.86	228.82
858.17	228.94
858.48	228.80
858.79	228.59
859.11	228.59
859.42	228.50
859.73	228.39
860.04	228.32
860.35	228.10
860.66	228.00
860.98	227.98
861.29	228.00
861.60	227.98
861.91	228.05
862.22	227.90
862.53	227.78
862.84	227.19
863.16	227.32
863.47	227.30
863.78	227.13
864.09	227.11
864.40	227.20
864.71	227.19
865.02	227.26
865.33	227.25
865.64	227.12
865.95	227.20
866.27	227.53
866.58	227.47
866.89	227.48
867.20	227.44
867.51	227.31
867.82	227.22
868.13	227.40
868.44	227.28
868.75	227.30
869.06	227.32
869.37	227.33
869.68	227.17
869.99	227.21
870.30	227.29
870.61	227.35
870.92	227.29
871.23	227.29
871.54	227.36
871.85	227.53
872.16	227.58
872.47	227.51
872.78	227.18
873.09	227.24
873.40	227.27
873.71	227.28
874.02	227.35
874.33	227.36
874.64	227.22
874.95	227.26
875.26	227.20
875.56	227.20
875.87	227.20
876.18	227.19
876.49	227.63
876.80	227.65
877.11	227.51
877.42	227.49
877.73	227.42
878.04	227.28
878.35	227.25
878.66	227.29
878.96	227.25
879.27	227.29
879.58	227.28
879.89	227.21
880.20	227.32
880.51	227.27
880.82	227.27
881.12	227.34
881.43	227.33
881.74	227.33
882.05	227.25
882.36	227.30
882.67	227.32
882.97	226.80
883.28	226.68
883.59	226.71
883.90	226.72
884.21	226.77
884.51	226.70
884.82	226.66
885.13	226.60
885.44	226.68
885.74	226.56
886.05	226.54
886.36	226.53
886.67	226.35
886.98	226.65
887.28	226.68
887.59	226.60
887.90	226.65
888.20	226.62
888.51	226.75
888.82	226.60
889.13	226.61
889.43	227.05
889.74	227.07
890.05	227.04
890.35	227.01
890.66	226.96
890.97	226.99
891.28	226.89
891.58	226.94
891.89	226.79
892.20	226.82
892.50	226.74
892.81	226.66
893.12	226.66
893.42	226.38
893.73	226.38
894.04	226.40
894.34	226.40
894.65	226.30
894.95	226.24
895.26	226.27
895.57	226.50
895.87	226.00
896.18	226.06
896.48	226.08
896.79	226.07
897.10	226.11
897.40	226.06
897.71	226.14
898.01	226.04
898.32	226.14
898.63	226.19
898.93	226.25
899.24	226.39
899.54	226.38
899.85	226.40
900.15	226.40
900.46	226.40
900.76	226.48
901.07	226.53
901.38	226.51
901.68	226.60
901.99	226.27
902.29	226.34
902.60	226.32
902.90	226.28
903.21	226.29
903.51	226.25
903.82	226.39
904.12	226.31
904.43	226.35
904.73	226.30
905.03	226.26
905.34	226.68
905.64	226.64
905.95	226.61
906.25	226.60
906.56	226.54
906.86	226.55
907.17	226.45
907.47	226.49
907.77	226.48
908.08	226.35
908.38	226.37
908.69	226.35
908.99	226.40
909.30	226.40
909.60	226.39
909.90	226.43
910.21	226.38
910.51	226.38
910.81	226.41
911.12	226.43
911.42	226.47
911.73	226.06
912.03	226.05
912.33	226.22
912.64	226.22
912.94	226.15
913.24	226.08
913.55	226.08
913.85	226.10
914.15	226.20
914.46	226.28
914.76	226.32
915.06	226.35
915.37	226.31
915.67	226.35
915.97	226.42
916.27	226.37
916.58	226.41
916.88	226.40
917.18	226.41
917.49	226.78
917.79	226.80
918.09	226.81
918.39	226.93
918.70	226.84
919.00	226.90
919.30	227.15
919.60	227.15
919.91	227.14
920.21	227.20
920.51	227.09
920.81	227.08
921.12	227.15
921.42	227.11
921.72	227.13
922.02	227.13
922.32	227.18
922.63	227.13
922.93	227.28
923.23	227.32
923.53	227.27
923.83	227.00
924.13	227.05
924.44	227.08
924.74	227.17
925.04	227.25
925.34	227.22
925.64	227.01
925.94	227.03
926.24	227.24
926.55	227.12
926.85	227.21
927.15	227.21
927.45	227.22
927.75	227.33
928.05	227.35
928.35	227.30
928.65	227.39
928.95	227.48
929.26	227.33
929.56	227.42
929.86	227.42
930.16	227.40
930.46	227.30
930.76	227.25
931.06	227.05
931.36	226.96
931.66	227.01
931.96	227.10
932.26	227.08
932.56	226.92
932.86	226.98
933.16	226.98
933.46	226.95
933.76	226.81
934.06	226.86
934.36	226.99
934.66	227.02
934.96	226.91
935.26	226.99
935.56	227.11
935.86	226.96
936.16	226.92
936.46	226.84
936.76	226.86
937.06	226.90
937.36	226.95
937.66	226.99
937.96	226.96
938.26	226.87
938.56	226.84
938.86	226.83
939.16	226.96
939.46	227.01
939.76	227.06
940.06	227.17
940.35	227.02
940.65	226.82
940.95	226.90
941.25	226.81
941.55	226.69
941.85	226.66
942.15	226.76
942.45	226.90
942.75	226.90
943.04	226.89
943.34	226.92
943.64	226.85
943.94	226.75
944.24	226.69
944.54	226.71
944.84	226.74
945.13	226.60
945.43	226.52
945.73	226.50
946.03	226.39
946.33	226.25
946.62	226.22
946.92	226.22
947.22	226.24
947.52	226.24
947.82	226.38
948.11	226.31
948.41	226.23
948.71	226.11
949.01	226.16
949.31	226.06
949.60	226.00
949.90	226.11
950.20	226.07
950.50	226.12
950.79	226.03
951.09	226.15
951.39	226.24
951.69	226.14
951.98	226.18
952.28	226.21
952.58	226.26
952.87	226.28
953.17	226.35
953.47	226.24
953.76	226.21
954.06	226.05
954.36	226.03
954.66	226.04
954.95	226.10
955.25	226.16
955.55	226.26
955.84	226.20
956.14	226.29
956.44	226.36
956.73	226.35
957.03	226.43
957.32	226.37
957.62	226.34
957.92	226.41
958.21	226.31
958.51	226.84
958.81	226.93
959.10	226.98
959.40	227.08
959.69	227.15
959.99	227.22
960.29	227.17
960.58	227.02
960.88	227.20
961.17	227.16
961.47	227.19
961.76	227.15
962.06	227.24
962.36	227.17
962.65	227.17
962.95	227.21
963.24	227.19
963.54	227.19
963.83	227.19
964.13	227.19
964.42	227.15
964.72	226.80
965.01	226.77
965.31	226.75
965.60	226.60
965.90	226.85
966.19	226.79
966.49	226.95
966.78	227.05
967.08	226.92
967.37	226.97
967.67	226.83
967.96	227.00
968.26	227.00
968.55	227.03
968.85	227.03
969.14	226.96
969.43	226.95
969.73	226.89
970.02	226.89
970.32	226.85
970.61	226.85
970.91	226.74
971.20	226.62
971.49	226.52
971.79	226.57
972.08	226.25
972.38	226.32
972.67	226.25
972.96	226.30
973.26	226.25
973.55	226.38
973.85	226.40
974.14	226.28
974.43	226.32
974.73	226.19
975.02	226.14
975.31	226.12
975.61	226.13
975.90	226.16
976.19	226.10
976.49	226.21
976.78	226.21
977.07	226.18
977.37	226.24
977.66	226.37
977.95	226.27
978.24	226.32
978.54	226.37
978.83	226.32
979.12	226.26
979.42	226.24
979.71	226.10
980.00	226.05
980.29	226.16
980.59	226.00
980.88	226.18
981.17	226.18
981.46	226.22
981.76	226.24
982.05	226.35
982.34	226.47
982.63	226.39
982.93	226.42
983.22	226.54
983.51	226.54
983.80	226.59
984.09	226.68
984.39	226.67
984.68	226.59
984.97	226.64
985.26	226.64
985.55	226.72
985.85	226.65
986.14	226.73
986.43	226.66
986.72	226.70
987.01	226.52
987.30	226.50
987.59	226.37
987.89	226.36
988.18	226.23
988.47	226.15
988.76	226.14
989.05	226.11
989.34	226.03
989.63	226.18
989.92	226.11
990.22	226.00
990.51	225.97
990.80	225.97
991.09	226.00
991.38	226.11
991.67	226.04
991.96	226.03
992.25	226.01
992.54	225.94
992.83	225.95
993.12	225.96
993.41	226.06
993.70	226.38
993.99	226.49
994.28	226.56
994.58	226.57
994.87	226.56
995.16	226.55
995.45	226.52
995.74	226.37
996.03	226.43
996.32	226.54
996.61	226.63
996.90	226.64
997.19	226.61
997.48	226.61
997.77	226.58
998.06	226.61
998.34	226.69
998.63	226.78
998.92	226.78
999.21	226.89
999.50	226.95
999.79	226.77
1000.08	226.72
1000.37	226.67
1000.66	226.72
1000.95	226.85
1001.24	226.83
1001.53	226.88
1001.82	226.85
1002.11	226.73
1002.40	226.70
1002.68	226.81
1002.97	227.11
1003.26	227.00
1003.55	226.87
1003.84	226.89
1004.13	227.07
1004.42	226.95
1004.71	226.85
1004.99	226.88
1005.28	227.00
1005.57	226.92
1005.86	226.87
1006.15	226.83
1006.44	226.79
1006.72	226.84
1007.01	226.76
1007.30	226.82
1007.59	226.80
1007.88	226.79
1008.17	226.84
1008.45	226.79
1008.74	226.52
1009.03	226.34
1009.32	226.38
1009.60	226.40
1009.89	226.36
1010.18	226.15
1010.47	226.12
1010.76	226.13
1011.04	226.09
1011.33	225.97
1011.62	225.98
1011.91	226.00
1012.19	226.02
1012.48	226.00
1012.77	225.91
1013.05	226.09
1013.34	226.00
1013.63	225.96
1013.92	226.00
1014.20	225.94
1014.49	225.98
1014.78	226.05
1015.06	225.94
1015.35	225.94
1015.64	225.98
1015.92	226.06
1016.21	226.11
1016.50	226.12
1016.78	226.18
1017.07	226.16
1017.36	226.13
1017.64	226.13
1017.93	226.18
1018.22	226.10
1018.50	226.11
1018.79	226.06
1019.08	225.90
1019.36	226.00
1019.65	225.95
1019.93	226.06
1020.22	226.15
1020.51	226.39
1020.79	226.36
1021.08	224.80
1021.36	225.05
1021.65	225.00
1021.94	227.05
1022.22	226.70
1022.51	224.90
1022.79	227.60
1023.08	227.05
1023.36	231.70
1023.65	225.30
>>>>>End Processed Spectral Data<<<<<
