SpectraSuite Data File
++++++++++++++++++++++++++++++++++++
Date: Wed Sep 04 17:59:04 EDT 2013
User: lab3
Dark Spectrum Present: Yes
Reference Spectrum Present: No
Number of Sampled Component Spectra: 1
Spectrometers: USB2E7196
Integration Time (usec): 170000 (USB2E7196)
Spectra Averaged: 20 (USB2E7196)
Boxcar Smoothing: 10 (USB2E7196)
Correct for Electrical Dark: No (USB2E7196)
Strobe/Lamp Enabled: No (USB2E7196)
Correct for Detector Non-linearity: No (USB2E7196)
Correct for Stray Light: No (USB2E7196)
Number of Pixels in Processed Spectrum: 2048
>>>>>Begin Processed Spectral Data<<<<<
339.09	0.00
339.48	214.20
339.86	214.35
340.24	216.50
340.63	217.45
341.01	226.00
341.39	220.20
341.78	223.65
342.16	223.60
342.54	224.00
342.93	212.74
343.31	223.45
343.69	223.98
344.07	224.55
344.46	224.98
344.84	225.40
345.22	225.40
345.60	225.69
345.99	225.82
346.37	225.95
346.75	226.07
347.13	226.15
347.52	226.20
347.90	226.38
348.28	226.41
348.66	226.58
349.05	226.36
349.43	226.51
349.81	226.55
350.19	226.59
350.57	226.60
350.96	226.69
351.34	226.75
351.72	226.81
352.10	226.80
352.48	226.88
352.87	226.93
353.25	226.95
353.63	226.99
354.01	227.08
354.39	227.19
354.77	227.22
355.15	227.40
355.54	227.37
355.92	227.28
356.30	227.33
356.68	227.67
357.06	227.78
357.44	227.75
357.82	227.77
358.20	228.26
358.58	228.30
358.97	228.34
359.35	228.54
359.73	228.66
360.11	228.76
360.49	228.77
360.87	228.77
361.25	228.92
361.63	229.17
362.01	229.21
362.39	229.21
362.77	229.29
363.15	229.33
363.53	229.43
363.91	229.52
364.29	229.56
364.67	229.17
365.05	229.21
365.43	229.31
365.81	229.40
366.19	229.23
366.57	229.49
366.95	229.53
367.33	229.41
367.71	229.44
368.09	229.53
368.47	229.54
368.85	229.54
369.23	229.58
369.61	229.33
369.99	229.39
370.37	229.41
370.75	229.61
371.13	229.48
371.51	229.39
371.89	229.36
372.27	229.35
372.65	229.37
373.03	229.38
373.41	229.29
373.78	229.18
374.16	228.90
374.54	228.72
374.92	228.64
375.30	228.60
375.68	228.50
376.06	228.49
376.44	228.42
376.82	228.35
377.19	228.24
377.57	228.20
377.95	228.07
378.33	228.01
378.71	227.70
379.09	227.72
379.47	227.74
379.84	227.63
380.22	227.57
380.60	227.37
380.98	227.23
381.36	227.23
381.73	227.13
382.11	227.19
382.49	227.12
382.87	227.01
383.25	227.00
383.62	227.48
384.00	227.30
384.38	227.26
384.76	227.45
385.13	227.65
385.51	227.60
385.89	227.47
386.27	227.37
386.64	227.40
387.02	227.37
387.40	227.21
387.78	227.26
388.15	227.25
388.53	227.25
388.91	227.26
389.29	227.19
389.66	227.28
390.04	227.21
390.42	227.27
390.79	227.22
391.17	227.18
391.55	226.69
391.92	226.66
392.30	226.79
392.68	226.60
393.05	226.54
393.43	226.60
393.81	226.65
394.18	226.67
394.56	226.67
394.94	226.83
395.31	226.91
395.69	227.07
396.06	227.16
396.44	227.26
396.82	227.25
397.19	227.56
397.57	227.56
397.95	227.68
398.32	227.60
398.70	227.74
399.07	228.01
399.45	228.03
399.82	228.16
400.20	228.18
400.58	228.26
400.95	228.16
401.33	228.33
401.70	228.76
402.08	228.94
402.45	229.08
402.83	229.28
403.20	229.44
403.58	229.44
403.95	229.62
404.33	229.86
404.71	230.08
405.08	230.48
405.46	230.72
405.83	230.92
406.21	231.16
406.58	231.50
406.96	231.67
407.33	231.98
407.70	232.35
408.08	233.13
408.45	233.60
408.83	234.15
409.20	234.57
409.58	234.76
409.95	235.29
410.33	235.80
410.70	236.15
411.08	236.77
411.45	237.50
411.82	238.02
412.20	238.68
412.57	239.66
412.95	240.00
413.32	240.82
413.69	241.65
414.07	242.56
414.44	243.50
414.82	244.47
415.19	245.73
415.56	246.87
415.94	247.80
416.31	249.17
416.68	250.51
417.06	252.08
417.43	253.67
417.81	255.38
418.18	257.17
418.55	259.10
418.93	261.11
419.30	263.20
419.67	265.52
420.04	267.90
420.42	270.20
420.79	273.21
421.16	276.03
421.54	279.08
421.91	282.14
422.28	285.16
422.66	288.51
423.03	291.99
423.40	295.32
423.77	298.85
424.15	302.47
424.52	306.22
424.89	310.39
425.26	314.41
425.64	318.24
426.01	322.38
426.38	326.77
426.75	331.29
427.13	335.77
427.50	340.45
427.87	345.37
428.24	350.40
428.61	354.91
428.99	360.11
429.36	365.63
429.73	371.08
430.10	376.67
430.47	382.33
430.85	387.88
431.22	394.16
431.59	401.10
431.96	407.46
432.33	414.47
432.70	421.17
433.08	429.15
433.45	436.62
433.82	444.07
434.19	452.31
434.56	460.60
434.93	468.23
435.30	476.10
435.68	484.72
436.05	493.16
436.42	501.61
436.79	509.50
437.16	517.97
437.53	526.91
437.90	535.71
438.27	544.29
438.64	553.36
439.01	561.68
439.38	568.85
439.75	575.90
440.13	584.05
440.50	591.52
440.87	597.56
441.24	604.00
441.61	611.05
441.98	616.20
442.35	621.97
442.72	628.11
443.09	633.97
443.46	637.36
443.83	639.61
444.20	641.54
444.57	644.31
444.94	645.29
445.31	646.35
445.68	647.69
446.05	647.81
446.42	646.54
446.79	645.17
447.16	643.45
447.53	642.20
447.90	638.47
448.27	634.86
448.64	629.94
449.01	626.27
449.37	620.14
449.74	614.01
450.11	606.97
450.48	599.25
450.85	591.17
451.22	584.35
451.59	577.72
451.96	571.49
452.33	563.17
452.70	555.83
453.07	547.12
453.43	537.95
453.80	529.72
454.17	521.55
454.54	513.67
454.91	505.50
455.28	497.55
455.65	489.99
456.02	483.10
456.38	476.68
456.75	468.85
457.12	462.20
457.49	455.98
457.86	449.67
458.23	444.40
458.59	438.70
458.96	432.76
459.33	427.57
459.70	422.45
460.07	418.36
460.43	413.58
460.80	409.26
461.17	405.52
461.54	401.44
461.91	397.55
462.27	393.73
462.64	390.50
463.01	386.92
463.38	383.65
463.74	379.59
464.11	376.52
464.48	373.83
464.85	371.10
465.21	368.82
465.58	366.54
465.95	363.74
466.32	361.55
466.68	359.36
467.05	357.16
467.42	354.95
467.78	352.68
468.15	350.54
468.52	348.93
468.88	346.80
469.25	344.86
469.62	343.40
469.98	341.75
470.35	340.20
470.72	338.67
471.08	337.04
471.45	335.91
471.82	334.67
472.18	333.21
472.55	332.11
472.92	330.76
473.28	329.55
473.65	328.48
474.02	327.33
474.38	326.48
474.75	325.73
475.11	324.77
475.48	324.09
475.85	323.54
476.21	322.84
476.58	322.25
476.94	321.86
477.31	321.48
477.67	321.04
478.04	320.71
478.41	320.59
478.77	320.77
479.14	320.32
479.50	320.27
479.87	320.30
480.23	320.29
480.60	320.36
480.96	320.44
481.33	320.79
481.69	321.07
482.06	321.37
482.42	321.70
482.79	322.13
483.15	322.61
483.52	323.18
483.88	323.73
484.25	324.42
484.61	325.01
484.98	325.64
485.34	326.69
485.71	327.59
486.07	328.53
486.44	329.12
486.80	330.35
487.17	331.50
487.53	332.93
487.90	334.30
488.26	336.06
488.62	337.85
488.99	339.40
489.35	341.09
489.72	342.94
490.08	344.93
490.44	346.95
490.81	349.10
491.17	351.28
491.54	353.75
491.90	356.19
492.26	358.94
492.63	361.83
492.99	364.57
493.36	367.72
493.72	371.03
494.08	374.44
494.45	378.12
494.81	382.03
495.17	385.89
495.54	390.08
495.90	394.14
496.26	398.45
496.63	403.06
496.99	408.07
497.35	413.17
497.72	418.50
498.08	423.95
498.44	429.66
498.80	435.87
499.17	441.95
499.53	448.35
499.89	455.12
500.26	461.86
500.62	468.89
500.98	476.22
501.34	483.56
501.71	491.48
502.07	499.30
502.43	507.41
502.79	515.86
503.16	524.68
503.52	533.76
503.88	543.12
504.24	552.85
504.60	562.76
504.97	572.94
505.33	583.37
505.69	594.52
506.05	605.74
506.41	616.97
506.78	628.71
507.14	640.70
507.50	653.00
507.86	665.48
508.22	678.61
508.59	691.70
508.95	705.47
509.31	719.35
509.67	733.70
510.03	748.15
510.39	762.79
510.75	777.90
511.12	793.10
511.48	808.75
511.84	824.63
512.20	840.53
512.56	856.89
512.92	873.74
513.28	890.30
513.64	907.59
514.00	925.10
514.37	942.81
514.73	960.98
515.09	979.13
515.45	997.69
515.81	1016.01
516.17	1034.85
516.53	1053.78
516.89	1072.73
517.25	1092.17
517.61	1112.35
517.97	1132.71
518.33	1152.89
518.69	1173.17
519.05	1193.71
519.41	1214.29
519.77	1235.46
520.13	1256.17
520.49	1277.00
520.85	1299.54
521.21	1320.77
521.57	1342.05
521.93	1363.10
522.29	1384.53
522.65	1405.27
523.01	1426.38
523.37	1447.22
523.73	1468.32
524.09	1488.89
524.45	1509.58
524.81	1530.75
525.17	1551.36
525.53	1572.15
525.89	1593.15
526.25	1614.09
526.61	1634.54
526.97	1655.81
527.33	1677.18
527.68	1699.42
528.04	1720.82
528.40	1740.78
528.76	1761.88
529.12	1782.19
529.48	1803.34
529.84	1823.23
530.20	1844.68
530.56	1865.52
530.91	1886.63
531.27	1907.30
531.63	1927.99
531.99	1948.86
532.35	1969.04
532.71	1989.67
533.07	2010.24
533.42	2030.11
533.78	2050.29
534.14	2070.40
534.50	2089.65
534.86	2108.99
535.21	2126.26
535.57	2144.67
535.93	2162.45
536.29	2180.23
536.65	2198.74
537.00	2216.17
537.36	2234.24
537.72	2250.83
538.08	2268.18
538.44	2284.86
538.79	2301.42
539.15	2318.03
539.51	2333.98
539.87	2348.97
540.22	2362.78
540.58	2377.16
540.94	2390.41
541.29	2403.04
541.65	2415.86
542.01	2428.44
542.37	2439.06
542.72	2450.36
543.08	2460.99
543.44	2472.56
543.79	2482.80
544.15	2492.72
544.51	2502.53
544.87	2511.95
545.22	2520.72
545.58	2528.36
545.94	2535.55
546.29	2542.39
546.65	2548.68
547.01	2554.39
547.36	2560.36
547.72	2566.05
548.07	2569.95
548.43	2575.52
548.79	2580.49
549.14	2584.46
549.50	2588.14
549.86	2592.31
550.21	2595.78
550.57	2599.26
550.92	2600.96
551.28	2602.11
551.64	2604.38
551.99	2606.70
552.35	2608.65
552.70	2610.78
553.06	2612.65
553.41	2614.28
553.77	2615.74
554.13	2617.13
554.48	2618.67
554.84	2619.99
555.19	2621.06
555.55	2622.81
555.90	2621.84
556.26	2620.99
556.61	2619.18
556.97	2616.92
557.32	2616.13
557.68	2615.36
558.03	2613.95
558.39	2612.46
558.74	2611.77
559.10	2608.24
559.45	2604.70
559.81	2600.02
560.16	2594.56
560.52	2589.64
560.87	2585.03
561.23	2579.32
561.58	2573.74
561.94	2566.77
562.29	2559.18
562.64	2552.48
563.00	2544.14
563.35	2537.90
563.71	2531.40
564.06	2525.49
564.42	2518.86
564.77	2511.87
565.12	2504.31
565.48	2496.90
565.83	2489.00
566.19	2481.02
566.54	2473.57
566.89	2465.18
567.25	2457.73
567.60	2450.82
567.96	2443.17
568.31	2434.87
568.66	2426.60
569.02	2417.59
569.37	2409.80
569.72	2402.32
570.08	2393.05
570.43	2383.82
570.78	2374.43
571.14	2364.75
571.49	2354.43
571.84	2345.15
572.20	2334.20
572.55	2324.20
572.90	2312.79
573.26	2302.25
573.61	2291.12
573.96	2279.85
574.31	2268.12
574.67	2256.04
575.02	2243.02
575.37	2230.31
575.72	2217.50
576.08	2205.45
576.43	2193.04
576.78	2179.73
577.13	2165.95
577.49	2152.67
577.84	2140.80
578.19	2128.81
578.54	2116.42
578.90	2104.35
579.25	2091.77
579.60	2079.52
579.95	2066.22
580.30	2053.19
580.66	2040.11
581.01	2026.78
581.36	2013.07
581.71	2000.33
582.06	1987.27
582.42	1974.95
582.77	1962.16
583.12	1950.14
583.47	1937.56
583.82	1925.20
584.17	1913.09
584.53	1901.20
584.88	1888.46
585.23	1875.35
585.58	1860.99
585.93	1847.35
586.28	1834.07
586.63	1820.20
586.98	1805.69
587.34	1792.60
587.69	1779.37
588.04	1766.23
588.39	1753.77
588.74	1741.42
589.09	1729.20
589.44	1716.36
589.79	1704.01
590.14	1692.32
590.49	1680.11
590.84	1667.96
591.19	1655.91
591.54	1643.42
591.89	1631.24
592.25	1621.21
592.60	1609.65
592.95	1598.01
593.30	1586.08
593.65	1574.12
594.00	1562.12
594.35	1552.28
594.70	1540.54
595.05	1529.16
595.40	1516.85
595.75	1504.99
596.10	1493.60
596.45	1481.99
596.80	1471.21
597.15	1459.87
597.50	1447.72
597.85	1436.11
598.19	1424.17
598.54	1412.70
598.89	1401.60
599.24	1390.92
599.59	1378.85
599.94	1367.72
600.29	1357.52
600.64	1347.39
600.99	1336.46
601.34	1326.83
601.69	1315.50
602.04	1305.39
602.39	1295.39
602.74	1286.71
603.08	1277.06
603.43	1267.83
603.78	1258.15
604.13	1248.56
604.48	1238.84
604.83	1229.28
605.18	1219.55
605.53	1210.27
605.87	1200.90
606.22	1192.20
606.57	1182.76
606.92	1173.63
607.27	1164.73
607.62	1155.78
607.96	1146.94
608.31	1139.10
608.66	1130.77
609.01	1122.15
609.36	1113.46
609.70	1104.99
610.05	1096.23
610.40	1087.68
610.75	1079.00
611.10	1070.43
611.44	1061.72
611.79	1053.31
612.14	1045.31
612.49	1037.41
612.83	1029.67
613.18	1021.86
613.53	1014.06
613.88	1005.97
614.22	998.09
614.57	990.09
614.92	982.25
615.27	974.54
615.61	966.65
615.96	958.80
616.31	951.41
616.65	944.42
617.00	937.18
617.35	929.75
617.70	922.66
618.04	915.45
618.39	908.49
618.74	901.95
619.08	895.24
619.43	888.26
619.78	881.00
620.12	874.00
620.47	867.00
620.82	859.65
621.16	852.92
621.51	846.59
621.85	840.34
622.20	833.74
622.55	827.21
622.89	820.71
623.24	814.30
623.59	808.03
623.93	801.54
624.28	795.14
624.62	789.63
624.97	783.70
625.32	777.71
625.66	771.71
626.01	765.46
626.35	759.88
626.70	754.25
627.04	749.16
627.39	743.43
627.73	738.14
628.08	733.06
628.43	727.70
628.77	722.22
629.12	716.76
629.46	711.90
629.81	707.01
630.15	702.26
630.50	697.52
630.84	692.50
631.19	687.76
631.53	683.40
631.88	677.96
632.22	672.98
632.57	668.44
632.91	663.81
633.26	659.37
633.60	654.63
633.95	649.85
634.29	644.90
634.64	640.41
634.98	635.55
635.32	631.21
635.67	627.07
636.01	622.74
636.36	618.46
636.70	614.46
637.05	610.43
637.39	606.25
637.73	601.80
638.08	597.82
638.42	593.47
638.77	588.98
639.11	584.67
639.45	580.42
639.80	576.10
640.14	572.14
640.49	568.12
640.83	564.25
641.17	560.55
641.52	556.99
641.86	553.43
642.20	550.13
642.55	546.35
642.89	542.70
643.23	539.19
643.58	536.00
643.92	532.11
644.26	528.50
644.61	525.28
644.95	522.12
645.29	518.57
645.64	515.60
645.98	512.53
646.32	509.66
646.66	506.64
647.01	503.70
647.35	500.82
647.69	497.81
648.04	494.92
648.38	492.10
648.72	489.11
649.06	486.11
649.41	483.17
649.75	480.11
650.09	477.35
650.43	474.42
650.78	471.43
651.12	468.68
651.46	465.91
651.80	463.09
652.14	460.41
652.49	457.90
652.83	455.21
653.17	452.54
653.51	449.87
653.85	447.46
654.20	445.00
654.54	442.36
654.88	439.93
655.22	437.61
655.56	435.25
655.90	432.86
656.25	430.47
656.59	428.11
656.93	425.93
657.27	423.75
657.61	421.34
657.95	419.17
658.29	416.94
658.64	414.84
658.98	412.57
659.32	410.29
659.66	408.06
660.00	405.99
660.34	403.96
660.68	401.85
661.02	399.59
661.36	397.45
661.70	395.44
662.05	393.38
662.39	391.48
662.73	389.55
663.07	387.94
663.41	386.31
663.75	384.35
664.09	382.53
664.43	380.50
664.77	378.86
665.11	376.97
665.45	375.30
665.79	373.61
666.13	371.86
666.47	370.16
666.81	368.51
667.15	366.79
667.49	365.22
667.83	363.92
668.17	362.59
668.51	361.20
668.85	359.88
669.19	358.80
669.53	357.20
669.87	355.68
670.21	354.20
670.55	352.69
670.89	351.63
671.23	350.30
671.57	348.90
671.91	347.50
672.25	346.17
672.58	345.01
672.92	343.57
673.26	342.27
673.60	341.11
673.94	339.97
674.28	338.75
674.62	337.61
674.96	336.34
675.30	335.16
675.64	333.96
675.97	332.75
676.31	331.28
676.65	330.10
676.99	329.11
677.33	327.82
677.67	326.69
678.01	325.35
678.34	324.25
678.68	323.29
679.02	322.28
679.36	321.35
679.70	320.16
680.04	319.33
680.37	318.37
680.71	317.30
681.05	316.49
681.39	315.66
681.73	314.72
682.06	313.73
682.40	312.72
682.74	311.78
683.08	310.93
683.42	310.01
683.75	309.21
684.09	308.27
684.43	307.52
684.77	306.61
685.10	305.84
685.44	304.99
685.78	304.30
686.12	303.52
686.45	302.76
686.79	302.09
687.13	301.33
687.46	300.52
687.80	299.96
688.14	299.08
688.48	298.29
688.81	297.49
689.15	296.84
689.49	296.18
689.82	295.51
690.16	294.67
690.50	294.02
690.83	293.25
691.17	292.50
691.51	291.74
691.84	291.25
692.18	290.58
692.52	289.92
692.85	289.25
693.19	288.80
693.52	288.09
693.86	287.38
694.20	286.66
694.53	286.12
694.87	285.32
695.21	284.65
695.54	284.02
695.88	283.35
696.21	282.58
696.55	281.94
696.88	281.34
697.22	280.76
697.56	280.28
697.89	279.74
698.23	279.24
698.56	278.71
698.90	278.20
699.23	277.62
699.57	277.21
699.90	276.55
700.24	275.86
700.58	275.51
700.91	275.08
701.25	275.00
701.58	274.86
701.92	274.61
702.25	274.22
702.59	273.70
702.92	273.40
703.26	273.05
703.59	272.64
703.93	272.58
704.26	272.21
704.60	271.81
704.93	271.37
705.26	270.94
705.60	270.57
705.93	270.00
706.27	269.72
706.60	269.49
706.94	269.38
707.27	269.08
707.61	268.72
707.94	268.36
708.27	267.60
708.61	266.86
708.94	266.40
709.28	265.96
709.61	265.65
709.94	265.32
710.28	265.00
710.61	264.71
710.95	263.98
711.28	263.92
711.61	263.51
711.95	263.17
712.28	262.81
712.61	262.46
712.95	262.49
713.28	262.31
713.61	261.78
713.95	261.24
714.28	260.88
714.61	260.49
714.95	260.11
715.28	259.74
715.61	259.42
715.95	259.10
716.28	258.77
716.61	258.50
716.95	258.08
717.28	257.74
717.61	257.40
717.94	257.11
718.28	256.44
718.61	256.09
718.94	255.79
719.27	255.45
719.61	255.27
719.94	254.78
720.27	254.34
720.60	254.03
720.94	253.84
721.27	253.63
721.60	253.42
721.93	253.18
722.27	253.17
722.60	253.03
722.93	252.70
723.26	252.51
723.59	252.16
723.93	252.00
724.26	251.78
724.59	251.55
724.92	251.37
725.25	251.25
725.59	251.10
725.92	250.93
726.25	250.77
726.58	250.55
726.91	250.32
727.24	250.14
727.57	249.92
727.91	249.61
728.24	249.36
728.57	249.11
728.90	248.95
729.23	248.56
729.56	248.56
729.89	248.37
730.22	248.15
730.55	247.99
730.89	247.79
731.22	247.62
731.55	247.36
731.88	247.05
732.21	246.88
732.54	246.65
732.87	246.45
733.20	246.35
733.53	246.19
733.86	246.02
734.19	245.81
734.52	245.75
734.85	245.85
735.18	245.66
735.51	245.59
735.84	245.41
736.17	245.27
736.50	244.85
736.83	245.28
737.16	245.11
737.49	245.04
737.82	244.92
738.15	244.79
738.48	244.68
738.81	244.65
739.14	244.46
739.47	244.31
739.80	244.19
740.13	244.10
740.46	243.83
740.79	243.66
741.12	243.48
741.45	243.18
741.78	242.86
742.11	242.89
742.44	242.62
742.77	242.55
743.10	242.37
743.43	242.20
743.75	241.60
744.08	242.11
744.41	241.94
744.74	241.73
745.07	241.50
745.40	241.47
745.73	241.49
746.06	241.34
746.39	241.30
746.71	241.15
747.04	240.92
747.37	240.77
747.70	240.79
748.03	240.74
748.36	240.82
748.68	240.65
749.01	240.37
749.34	240.40
749.67	240.37
750.00	240.41
750.33	240.69
750.65	240.64
750.98	239.92
751.31	239.82
751.64	239.79
751.97	239.93
752.29	239.75
752.62	239.43
752.95	239.33
753.28	239.12
753.60	239.09
753.93	239.08
754.26	239.11
754.59	238.87
754.91	238.69
755.24	238.47
755.57	238.47
755.90	238.38
756.22	238.17
756.55	237.97
756.88	237.76
757.20	237.44
757.53	237.18
757.86	237.12
758.19	237.05
758.51	236.88
758.84	236.56
759.17	236.50
759.49	236.44
759.82	236.63
760.15	236.57
760.47	236.42
760.80	236.25
761.13	236.17
761.45	236.04
761.78	235.95
762.11	235.95
762.43	235.78
762.76	235.64
763.08	235.61
763.41	235.47
763.74	235.43
764.06	235.30
764.39	235.21
764.71	235.07
765.04	234.94
765.37	234.82
765.69	234.76
766.02	234.63
766.34	234.52
766.67	234.21
767.00	234.29
767.32	234.45
767.65	234.60
767.97	234.47
768.30	234.47
768.62	234.42
768.95	234.20
769.27	234.17
769.60	234.17
769.92	233.98
770.25	233.90
770.57	233.69
770.90	233.60
771.22	233.55
771.55	233.45
771.87	233.41
772.20	233.35
772.52	233.68
772.85	234.21
773.17	234.14
773.50	234.08
773.82	233.88
774.15	233.56
774.47	233.22
774.80	233.15
775.12	233.03
775.45	233.00
775.77	233.12
776.09	233.09
776.42	233.07
776.74	233.21
777.07	233.05
777.39	233.13
777.72	233.00
778.04	232.97
778.36	232.96
778.69	232.87
779.01	232.91
779.33	232.42
779.66	231.77
779.98	231.77
780.31	231.67
780.63	231.89
780.95	231.92
781.28	231.85
781.60	231.75
781.92	231.73
782.25	231.66
782.57	231.61
782.89	231.51
783.22	231.48
783.54	231.36
783.86	231.48
784.19	231.39
784.51	231.45
784.83	231.32
785.16	231.28
785.48	231.26
785.80	231.20
786.12	231.28
786.45	231.30
786.77	231.31
787.09	231.30
787.42	231.05
787.74	231.08
788.06	231.10
788.38	231.09
788.71	231.05
789.03	231.02
789.35	230.95
789.67	230.87
789.99	230.83
790.32	230.72
790.64	230.80
790.96	231.22
791.28	231.10
791.61	231.19
791.93	231.21
792.25	231.24
792.57	231.54
792.89	231.43
793.21	231.46
793.54	231.37
793.86	231.34
794.18	231.39
794.50	231.29
794.82	231.28
795.14	231.30
795.47	231.33
795.79	231.33
796.11	231.20
796.43	231.16
796.75	231.02
797.07	230.96
797.39	230.86
797.71	230.43
798.04	230.44
798.36	230.35
798.68	230.25
799.00	230.23
799.32	230.00
799.64	230.03
799.96	229.96
800.28	229.95
800.60	229.84
800.92	229.77
801.24	229.68
801.56	229.70
801.89	229.64
802.21	229.58
802.53	229.49
802.85	229.61
803.17	229.78
803.49	229.75
803.81	229.71
804.13	229.60
804.45	229.53
804.77	229.49
805.09	229.44
805.41	229.39
805.73	229.23
806.05	229.06
806.37	229.04
806.69	229.02
807.01	228.93
807.33	229.00
807.65	228.83
807.97	229.07
808.28	228.99
808.60	228.98
808.92	228.88
809.24	229.15
809.56	228.99
809.88	228.84
810.20	228.83
810.52	228.84
810.84	228.73
811.16	228.72
811.48	228.72
811.80	228.91
812.12	228.87
812.43	229.06
812.75	229.13
813.07	229.03
813.39	228.96
813.71	228.96
814.03	228.82
814.35	228.86
814.67	228.59
814.98	228.59
815.30	228.57
815.62	228.56
815.94	228.11
816.26	228.38
816.58	228.29
816.89	228.38
817.21	228.38
817.53	228.39
817.85	228.29
818.17	228.23
818.48	228.01
818.80	228.09
819.12	227.96
819.44	227.79
819.76	227.76
820.07	227.75
820.39	227.73
820.71	227.82
821.03	227.75
821.34	227.73
821.66	227.78
821.98	227.80
822.30	227.76
822.61	228.13
822.93	227.90
823.25	227.91
823.57	227.86
823.88	227.93
824.20	227.99
824.52	228.13
824.83	228.14
825.15	228.11
825.47	228.11
825.79	228.09
826.10	228.16
826.42	228.13
826.74	228.21
827.05	228.22
827.37	228.24
827.69	228.20
828.00	228.29
828.32	228.25
828.64	228.21
828.95	228.54
829.27	228.36
829.58	228.29
829.90	228.35
830.22	228.37
830.53	228.29
830.85	228.25
831.17	228.13
831.48	228.19
831.80	228.25
832.11	228.18
832.43	228.17
832.75	228.10
833.06	228.40
833.38	228.25
833.69	228.25
834.01	228.27
834.32	228.35
834.64	228.30
834.96	228.34
835.27	228.34
835.59	228.15
835.90	228.16
836.22	228.20
836.53	228.13
836.85	228.03
837.16	228.50
837.48	228.47
837.79	228.68
838.11	228.59
838.42	228.57
838.74	228.60
839.05	228.52
839.37	228.53
839.68	228.28
840.00	228.31
840.31	228.35
840.63	228.26
840.94	228.20
841.26	228.13
841.57	228.02
841.88	228.01
842.20	227.88
842.51	227.75
842.83	227.71
843.14	228.05
843.46	228.12
843.77	227.78
844.08	227.77
844.40	227.51
844.71	227.46
845.03	227.42
845.34	227.40
845.65	227.33
845.97	227.27
846.28	227.30
846.60	227.28
846.91	227.15
847.22	227.07
847.54	227.17
847.85	227.14
848.16	227.10
848.48	227.02
848.79	227.23
849.10	227.27
849.42	227.30
849.73	226.96
850.04	226.91
850.36	226.79
850.67	226.80
850.98	226.88
851.30	226.97
851.61	226.88
851.92	226.89
852.23	227.05
852.55	227.03
852.86	226.97
853.17	227.07
853.49	227.16
853.80	227.29
854.11	227.25
854.42	227.35
854.74	227.37
855.05	227.40
855.36	227.14
855.67	227.18
855.99	227.15
856.30	227.71
856.61	227.74
856.92	227.77
857.23	227.79
857.55	227.75
857.86	227.62
858.17	227.73
858.48	227.68
858.79	227.62
859.11	227.73
859.42	227.73
859.73	227.60
860.04	227.59
860.35	227.53
860.66	227.42
860.98	227.39
861.29	227.42
861.60	227.42
861.91	227.56
862.22	227.46
862.53	227.48
862.84	226.86
863.16	226.98
863.47	226.85
863.78	226.87
864.09	226.88
864.40	226.90
864.71	226.91
865.02	227.00
865.33	226.98
865.64	226.92
865.95	226.91
866.27	227.25
866.58	227.24
866.89	227.30
867.20	227.24
867.51	227.17
867.82	227.13
868.13	227.25
868.44	227.26
868.75	227.40
869.06	227.38
869.37	227.40
869.68	227.20
869.99	227.34
870.30	227.36
870.61	227.42
870.92	227.47
871.23	227.48
871.54	227.50
871.85	227.59
872.16	227.66
872.47	227.60
872.78	227.27
873.09	227.31
873.40	227.24
873.71	227.35
874.02	227.33
874.33	227.27
874.64	227.19
874.95	227.16
875.26	227.03
875.56	226.97
875.87	227.05
876.18	227.06
876.49	227.52
876.80	227.44
877.11	227.36
877.42	227.29
877.73	227.31
878.04	227.25
878.35	227.23
878.66	227.18
878.96	227.24
879.27	227.23
879.58	227.12
879.89	227.07
880.20	227.16
880.51	227.12
880.82	227.15
881.12	227.11
881.43	227.03
881.74	226.93
882.05	226.96
882.36	226.90
882.67	226.92
882.97	226.31
883.28	226.25
883.59	226.16
883.90	226.25
884.21	226.25
884.51	226.17
884.82	226.07
885.13	226.01
885.44	226.00
885.74	226.06
886.05	226.17
886.36	226.16
886.67	225.96
886.98	226.23
887.28	226.25
887.59	226.21
887.90	226.24
888.20	226.25
888.51	226.30
888.82	226.26
889.13	226.29
889.43	226.65
889.74	226.66
890.05	226.62
890.35	226.55
890.66	226.49
890.97	226.48
891.28	226.48
891.58	226.53
891.89	226.57
892.20	226.45
892.50	226.32
892.81	226.33
893.12	226.49
893.42	226.26
893.73	226.30
894.04	226.30
894.34	226.37
894.65	226.43
894.95	226.42
895.26	226.43
895.57	226.59
895.87	226.23
896.18	226.34
896.48	226.48
896.79	226.52
897.10	226.52
897.40	226.57
897.71	226.58
898.01	226.53
898.32	226.50
898.63	226.52
898.93	226.67
899.24	226.70
899.54	226.60
899.85	226.62
900.15	226.56
900.46	226.59
900.76	226.57
901.07	226.53
901.38	226.53
901.68	226.61
901.99	226.44
902.29	226.50
902.60	226.46
902.90	226.43
903.21	226.37
903.51	226.41
903.82	226.53
904.12	226.58
904.43	226.62
904.73	226.63
905.03	226.77
905.34	227.15
905.64	227.10
905.95	227.15
906.25	227.15
906.56	227.18
906.86	227.20
907.17	227.17
907.47	227.20
907.77	227.17
908.08	227.10
908.38	227.13
908.69	227.18
908.99	227.22
909.30	227.27
909.60	227.26
909.90	227.31
910.21	227.11
910.51	227.08
910.81	227.12
911.12	227.19
911.42	227.12
911.73	226.66
912.03	226.69
912.33	226.72
912.64	226.69
912.94	226.67
913.24	226.62
913.55	226.57
913.85	226.56
914.15	226.63
914.46	226.69
914.76	226.67
915.06	226.68
915.37	226.68
915.67	226.63
915.97	226.75
916.27	226.63
916.58	226.66
916.88	226.56
917.18	226.50
917.49	226.76
917.79	226.70
918.09	226.72
918.39	226.84
918.70	226.89
919.00	226.88
919.30	227.13
919.60	227.06
919.91	227.11
920.21	227.11
920.51	227.01
920.81	226.96
921.12	227.03
921.42	226.93
921.72	226.85
922.02	226.93
922.32	226.89
922.63	226.88
922.93	227.11
923.23	227.19
923.53	227.15
923.83	226.85
924.13	226.93
924.44	226.84
924.74	226.89
925.04	226.98
925.34	227.04
925.64	226.82
925.94	226.78
926.24	227.05
926.55	226.96
926.85	227.12
927.15	227.09
927.45	227.00
927.75	226.92
928.05	226.97
928.35	226.93
928.65	227.00
928.95	227.07
929.26	226.89
929.56	226.89
929.86	226.92
930.16	226.91
930.46	226.92
930.76	227.01
931.06	226.83
931.36	226.66
931.66	226.69
931.96	226.77
932.26	226.84
932.56	226.51
932.86	226.53
933.16	226.42
933.46	226.42
933.76	226.40
934.06	226.60
934.36	226.80
934.66	226.74
934.96	226.65
935.26	226.68
935.56	226.75
935.86	226.73
936.16	226.78
936.46	226.67
936.76	226.59
937.06	226.57
937.36	226.59
937.66	226.61
937.96	226.59
938.26	226.49
938.56	226.48
938.86	226.53
939.16	226.65
939.46	226.75
939.76	226.72
940.06	226.73
940.35	226.62
940.65	226.40
940.95	226.38
941.25	226.34
941.55	226.24
941.85	226.25
942.15	226.39
942.45	226.40
942.75	226.41
943.04	226.47
943.34	226.53
943.64	226.46
943.94	226.45
944.24	226.48
944.54	226.55
944.84	226.58
945.13	226.59
945.43	226.56
945.73	226.47
946.03	226.47
946.33	226.48
946.62	226.42
946.92	226.44
947.22	226.58
947.52	226.61
947.82	226.77
948.11	226.70
948.41	226.55
948.71	226.48
949.01	226.55
949.31	226.48
949.60	226.49
949.90	226.59
950.20	226.63
950.50	226.64
950.79	226.61
951.09	226.65
951.39	226.62
951.69	226.63
951.98	226.72
952.28	226.83
952.58	226.79
952.87	226.82
953.17	226.80
953.47	226.78
953.76	226.76
954.06	226.52
954.36	226.54
954.66	226.55
954.95	226.72
955.25	226.75
955.55	226.80
955.84	226.70
956.14	226.75
956.44	226.67
956.73	226.54
957.03	226.52
957.32	226.55
957.62	226.52
957.92	226.62
958.21	226.57
958.51	227.03
958.81	227.08
959.10	227.18
959.40	227.26
959.69	227.19
959.99	227.34
960.29	227.43
960.58	227.40
960.88	227.57
961.17	227.46
961.47	227.52
961.76	227.45
962.06	227.49
962.36	227.41
962.65	227.44
962.95	227.48
963.24	227.40
963.54	227.37
963.83	227.43
964.13	227.42
964.42	227.35
964.72	226.99
965.01	227.07
965.31	226.99
965.60	226.97
965.90	227.24
966.19	227.04
966.49	227.12
966.78	227.11
967.08	227.10
967.37	227.12
967.67	227.08
967.96	227.23
968.26	227.27
968.55	227.42
968.85	227.42
969.14	227.38
969.43	227.41
969.73	227.38
970.02	227.35
970.32	227.25
970.61	227.20
970.91	227.04
971.20	226.92
971.49	226.91
971.79	226.89
972.08	226.61
972.38	226.66
972.67	226.60
972.96	226.62
973.26	226.47
973.55	226.63
973.85	226.57
974.14	226.46
974.43	226.48
974.73	226.34
975.02	226.29
975.31	226.28
975.61	226.31
975.90	226.28
976.19	226.28
976.49	226.34
976.78	226.40
977.07	226.40
977.37	226.44
977.66	226.48
977.95	226.45
978.24	226.49
978.54	226.60
978.83	226.59
979.12	226.58
979.42	226.62
979.71	226.48
980.00	226.45
980.29	226.49
980.59	226.40
980.88	226.56
981.17	226.52
981.46	226.58
981.76	226.55
982.05	226.71
982.34	226.60
982.63	226.60
982.93	226.63
983.22	226.82
983.51	226.80
983.80	226.86
984.09	226.85
984.39	226.76
984.68	226.69
984.97	226.65
985.26	226.63
985.55	226.62
985.85	226.58
986.14	226.68
986.43	226.75
986.72	226.73
987.01	226.52
987.30	226.55
987.59	226.50
987.89	226.57
988.18	226.42
988.47	226.39
988.76	226.38
989.05	226.26
989.34	226.12
989.63	226.25
989.92	226.13
990.22	226.13
990.51	226.15
990.80	226.15
991.09	226.25
991.38	226.33
991.67	226.30
991.96	226.20
992.25	226.13
992.54	225.99
992.83	225.99
993.12	226.00
993.41	226.07
993.70	226.30
993.99	226.36
994.28	226.42
994.58	226.54
994.87	226.44
995.16	226.50
995.45	226.47
995.74	226.27
996.03	226.36
996.32	226.40
996.61	226.50
996.90	226.47
997.19	226.41
997.48	226.34
997.77	226.31
998.06	226.38
998.34	226.44
998.63	226.45
998.92	226.51
999.21	226.58
999.50	226.61
999.79	226.44
1000.08	226.40
1000.37	226.32
1000.66	226.30
1000.95	226.43
1001.24	226.45
1001.53	226.50
1001.82	226.50
1002.11	226.39
1002.40	226.42
1002.68	226.59
1002.97	226.92
1003.26	226.91
1003.55	226.93
1003.84	226.94
1004.13	227.08
1004.42	227.04
1004.71	227.03
1004.99	226.95
1005.28	227.06
1005.57	226.99
1005.86	226.90
1006.15	226.82
1006.44	226.85
1006.72	226.86
1007.01	226.77
1007.30	226.75
1007.59	226.78
1007.88	226.80
1008.17	226.80
1008.45	226.72
1008.74	226.43
1009.03	226.22
1009.32	226.20
1009.60	226.18
1009.89	226.09
1010.18	225.98
1010.47	225.95
1010.76	225.95
1011.04	226.04
1011.33	226.01
1011.62	226.05
1011.91	226.13
1012.19	226.18
1012.48	226.16
1012.77	226.21
1013.05	226.53
1013.34	226.50
1013.63	226.40
1013.92	226.51
1014.20	226.44
1014.49	226.48
1014.78	226.65
1015.06	226.49
1015.35	226.42
1015.64	226.48
1015.92	226.67
1016.21	226.67
1016.50	226.73
1016.78	226.81
1017.07	226.76
1017.36	226.70
1017.64	226.67
1017.93	226.69
1018.22	226.70
1018.50	226.75
1018.79	226.68
1019.08	226.45
1019.36	226.54
1019.65	226.45
1019.93	226.51
1020.22	226.64
1020.51	226.90
1020.79	226.82
1021.08	226.65
1021.36	226.10
1021.65	226.15
1021.94	227.60
1022.22	226.70
1022.51	224.60
1022.79	228.10
1023.08	226.80
1023.36	232.40
1023.65	226.50
>>>>>End Processed Spectral Data<<<<<
