SpectraSuite Data File
++++++++++++++++++++++++++++++++++++
Date: Wed Sep 04 17:57:20 EDT 2013
User: lab3
Dark Spectrum Present: Yes
Reference Spectrum Present: No
Number of Sampled Component Spectra: 1
Spectrometers: USB2E7196
Integration Time (usec): 170000 (USB2E7196)
Spectra Averaged: 20 (USB2E7196)
Boxcar Smoothing: 10 (USB2E7196)
Correct for Electrical Dark: No (USB2E7196)
Strobe/Lamp Enabled: No (USB2E7196)
Correct for Detector Non-linearity: No (USB2E7196)
Correct for Stray Light: No (USB2E7196)
Number of Pixels in Processed Spectrum: 2048
>>>>>Begin Processed Spectral Data<<<<<
339.09	0.00
339.48	214.05
339.86	214.55
340.24	216.05
340.63	216.55
341.01	226.10
341.39	219.65
341.78	221.90
342.16	224.50
342.54	223.50
342.93	212.44
343.31	223.15
343.69	223.66
344.07	224.18
344.46	224.73
344.84	225.19
345.22	225.13
345.60	225.38
345.99	225.55
346.37	225.68
346.75	225.72
347.13	225.79
347.52	225.82
347.90	226.13
348.28	226.12
348.66	226.19
349.05	226.03
349.43	226.05
349.81	226.12
350.19	226.25
350.57	226.33
350.96	226.41
351.34	226.52
351.72	226.61
352.10	226.63
352.48	226.56
352.87	226.66
353.25	226.75
353.63	226.88
354.01	226.96
354.39	227.06
354.77	227.20
355.15	227.47
355.54	227.42
355.92	227.20
356.30	227.35
356.68	227.71
357.06	227.79
357.44	227.82
357.82	227.87
358.20	228.28
358.58	228.30
358.97	228.41
359.35	228.57
359.73	228.70
360.11	228.84
360.49	228.92
360.87	228.90
361.25	228.96
361.63	229.10
362.01	229.23
362.39	229.20
362.77	229.26
363.15	229.14
363.53	229.23
363.91	229.33
364.29	229.35
364.67	228.94
365.05	228.99
365.43	229.03
365.81	229.11
366.19	228.90
366.57	229.14
366.95	229.10
367.33	229.04
367.71	229.03
368.09	229.07
368.47	229.10
368.85	229.13
369.23	229.29
369.61	229.18
369.99	229.24
370.37	229.26
370.75	229.45
371.13	229.40
371.51	229.31
371.89	229.35
372.27	229.39
372.65	229.41
373.03	229.32
373.41	229.34
373.78	229.26
374.16	229.06
374.54	228.86
374.92	228.80
375.30	228.71
375.68	228.59
376.06	228.50
376.44	228.38
376.82	228.33
377.19	228.21
377.57	228.13
377.95	227.90
378.33	227.74
378.71	227.43
379.09	227.40
379.47	227.39
379.84	227.24
380.22	227.04
380.60	226.88
380.98	226.83
381.36	226.73
381.73	226.59
382.11	226.64
382.49	226.57
382.87	226.41
383.25	226.30
383.62	226.73
384.00	226.64
384.38	226.56
384.76	226.55
385.13	226.62
385.51	226.60
385.89	226.53
386.27	226.46
386.64	226.51
387.02	226.39
387.40	226.32
387.78	226.30
388.15	226.34
388.53	226.34
388.91	226.32
389.29	226.19
389.66	226.14
390.04	225.99
390.42	226.05
390.79	226.07
391.17	226.11
391.55	225.58
391.92	225.53
392.30	225.59
392.68	225.57
393.05	225.51
393.43	225.44
393.81	225.44
394.18	225.48
394.56	225.46
394.94	225.59
395.31	225.64
395.69	225.80
396.06	225.84
396.44	225.86
396.82	225.79
397.19	226.15
397.57	226.22
397.95	226.35
398.32	226.33
398.70	226.40
399.07	226.53
399.45	226.66
399.82	226.75
400.20	226.80
400.58	226.87
400.95	226.79
401.33	227.02
401.70	227.57
402.08	227.74
402.45	227.87
402.83	228.15
403.20	228.33
403.58	228.42
403.95	228.73
404.33	229.01
404.71	229.33
405.08	229.76
405.46	230.04
405.83	230.31
406.21	230.48
406.58	230.81
406.96	231.11
407.33	231.45
407.70	231.91
408.08	232.65
408.45	233.15
408.83	233.72
409.20	234.15
409.58	234.25
409.95	234.83
410.33	235.38
410.70	235.72
411.08	236.34
411.45	236.97
411.82	237.49
412.20	238.25
412.57	239.22
412.95	239.57
413.32	240.44
413.69	241.34
414.07	242.30
414.44	243.35
414.82	244.30
415.19	245.55
415.56	246.69
415.94	247.73
416.31	249.15
416.68	250.49
417.06	252.10
417.43	253.86
417.81	255.57
418.18	257.41
418.55	259.38
418.93	261.34
419.30	263.48
419.67	265.74
420.04	267.98
420.42	270.30
420.79	273.38
421.16	276.17
421.54	279.15
421.91	282.14
422.28	285.18
422.66	288.53
423.03	291.90
423.40	295.20
423.77	298.74
424.15	302.31
424.52	306.18
424.89	310.40
425.26	314.24
425.64	317.94
426.01	322.12
426.38	326.57
426.75	331.16
427.13	335.77
427.50	340.54
427.87	345.56
428.24	350.47
428.61	354.99
428.99	360.34
429.36	365.94
429.73	371.54
430.10	377.12
430.47	382.72
430.85	388.39
431.22	394.66
431.59	401.42
431.96	407.72
432.33	414.68
432.70	421.28
433.08	429.31
433.45	436.84
433.82	444.34
434.19	452.61
434.56	460.68
434.93	468.50
435.30	476.35
435.68	484.96
436.05	493.50
436.42	501.95
436.79	509.67
437.16	518.01
437.53	526.83
437.90	535.70
438.27	544.36
438.64	553.40
439.01	561.89
439.38	569.21
439.75	576.28
440.13	584.40
440.50	591.98
440.87	598.10
441.24	604.53
441.61	611.46
441.98	616.53
442.35	622.43
442.72	628.29
443.09	634.11
443.46	637.41
443.83	639.64
444.20	641.52
444.57	644.25
444.94	645.36
445.31	646.46
445.68	647.59
446.05	647.95
446.42	646.67
446.79	645.03
447.16	643.29
447.53	642.11
447.90	638.26
448.27	634.63
448.64	629.58
449.01	625.91
449.37	619.75
449.74	613.65
450.11	606.83
450.48	599.08
450.85	590.97
451.22	584.20
451.59	577.57
451.96	571.31
452.33	563.14
452.70	555.74
453.07	547.05
453.43	537.94
453.80	529.40
454.17	521.26
454.54	513.61
454.91	505.44
455.28	497.34
455.65	489.91
456.02	482.97
456.38	476.61
456.75	468.72
457.12	462.15
457.49	455.86
457.86	449.44
458.23	444.22
458.59	438.53
458.96	432.73
459.33	427.67
459.70	422.52
460.07	418.45
460.43	413.71
460.80	409.40
461.17	405.73
461.54	401.73
461.91	397.85
462.27	393.94
462.64	390.67
463.01	387.22
463.38	383.95
463.74	379.97
464.11	377.01
464.48	374.42
464.85	371.55
465.21	369.38
465.58	366.96
465.95	364.15
466.32	361.96
466.68	359.65
467.05	357.30
467.42	355.07
467.78	352.68
468.15	350.52
468.52	348.94
468.88	346.63
469.25	344.64
469.62	343.20
469.98	341.53
470.35	340.11
470.72	338.57
471.08	336.79
471.45	335.55
471.82	334.19
472.18	332.82
472.55	331.79
472.92	330.51
473.28	329.39
473.65	328.34
474.02	327.17
474.38	326.32
474.75	325.70
475.11	324.83
475.48	324.19
475.85	323.60
476.21	322.90
476.58	322.52
476.94	322.30
477.31	321.85
477.67	321.43
478.04	321.09
478.41	320.88
478.77	321.15
479.14	320.75
479.50	320.75
479.87	320.80
480.23	320.78
480.60	320.79
480.96	320.91
481.33	321.28
481.69	321.57
482.06	321.86
482.42	322.07
482.79	322.36
483.15	322.75
483.52	323.43
483.88	323.92
484.25	324.44
484.61	325.01
484.98	325.62
485.34	326.57
485.71	327.38
486.07	328.41
486.44	329.07
486.80	330.27
487.17	331.32
487.53	332.65
487.90	334.09
488.26	335.69
488.62	337.39
488.99	338.95
489.35	340.73
489.72	342.57
490.08	344.69
490.44	346.80
490.81	349.07
491.17	351.20
491.54	353.67
491.90	356.20
492.26	358.84
492.63	361.75
492.99	364.62
493.36	367.71
493.72	370.99
494.08	374.46
494.45	378.07
494.81	381.99
495.17	385.80
495.54	389.96
495.90	394.17
496.26	398.57
496.63	403.17
496.99	407.90
497.35	412.96
497.72	418.17
498.08	423.72
498.44	429.42
498.80	435.43
499.17	441.49
499.53	447.73
499.89	454.29
500.26	460.96
500.62	468.00
500.98	475.45
501.34	482.84
501.71	490.59
502.07	498.56
502.43	506.65
502.79	515.06
503.16	523.68
503.52	532.67
503.88	541.93
504.24	551.54
504.60	561.58
504.97	571.86
505.33	582.16
505.69	593.17
506.05	604.28
506.41	615.77
506.78	627.46
507.14	639.50
507.50	651.98
507.86	664.82
508.22	677.82
508.59	690.81
508.95	704.54
509.31	718.64
509.67	732.91
510.03	747.17
510.39	761.94
510.75	777.01
511.12	792.20
511.48	808.03
511.84	823.93
512.20	839.89
512.56	856.08
512.92	872.93
513.28	889.72
513.64	907.08
514.00	924.41
514.37	942.22
514.73	960.61
515.09	978.80
515.45	997.18
515.81	1015.53
516.17	1034.36
516.53	1053.07
516.89	1071.77
517.25	1091.35
517.61	1111.72
517.97	1132.16
518.33	1152.46
518.69	1172.94
519.05	1193.35
519.41	1213.99
519.77	1235.19
520.13	1256.33
520.49	1277.10
520.85	1299.50
521.21	1320.39
521.57	1341.89
521.93	1362.75
522.29	1383.95
522.65	1404.66
523.01	1425.55
523.37	1446.43
523.73	1467.77
524.09	1488.49
524.45	1509.28
524.81	1530.04
525.17	1550.80
525.53	1571.28
525.89	1591.89
526.25	1612.82
526.61	1633.06
526.97	1654.46
527.33	1675.70
527.68	1697.37
528.04	1718.79
528.40	1738.57
528.76	1759.74
529.12	1780.23
529.48	1801.31
529.84	1821.11
530.20	1842.40
530.56	1863.35
530.91	1884.17
531.27	1904.61
531.63	1925.28
531.99	1945.92
532.35	1965.93
532.71	1986.35
533.07	2007.04
533.42	2027.25
533.78	2046.90
534.14	2067.09
534.50	2085.75
534.86	2105.04
535.21	2122.54
535.57	2141.05
535.93	2158.80
536.29	2176.78
536.65	2195.06
537.00	2212.61
537.36	2230.62
537.72	2246.92
538.08	2263.81
538.44	2280.93
538.79	2297.27
539.15	2313.87
539.51	2330.20
539.87	2345.44
540.22	2359.60
540.58	2373.78
540.94	2386.89
541.29	2399.78
541.65	2412.46
542.01	2425.09
542.37	2435.77
542.72	2447.16
543.08	2457.78
543.44	2469.27
543.79	2479.11
544.15	2488.90
544.51	2498.90
544.87	2508.37
545.22	2517.38
545.58	2525.39
545.94	2532.24
546.29	2538.89
546.65	2545.01
547.01	2550.34
547.36	2556.23
547.72	2561.55
548.07	2565.63
548.43	2571.30
548.79	2576.18
549.14	2580.17
549.50	2584.08
549.86	2588.15
550.21	2591.73
550.57	2595.44
550.92	2597.15
551.28	2598.85
551.64	2601.18
551.99	2603.07
552.35	2605.19
552.70	2607.06
553.06	2608.97
553.41	2610.62
553.77	2612.29
554.13	2614.00
554.48	2615.57
554.84	2616.74
555.19	2617.94
555.55	2619.74
555.90	2618.75
556.26	2618.01
556.61	2616.87
556.97	2614.69
557.32	2613.80
557.68	2612.45
558.03	2610.39
558.39	2608.70
558.74	2607.81
559.10	2604.38
559.45	2600.68
559.81	2595.75
560.16	2590.88
560.52	2585.80
560.87	2580.92
561.23	2575.53
561.58	2569.49
561.94	2562.55
562.29	2555.27
562.64	2547.85
563.00	2539.58
563.35	2533.25
563.71	2526.58
564.06	2519.80
564.42	2513.46
564.77	2506.64
565.12	2499.21
565.48	2491.77
565.83	2483.94
566.19	2475.43
566.54	2467.60
566.89	2459.77
567.25	2452.08
567.60	2445.14
567.96	2437.63
568.31	2430.05
568.66	2421.44
569.02	2412.65
569.37	2404.52
569.72	2397.00
570.08	2387.66
570.43	2378.23
570.78	2369.31
571.14	2359.95
571.49	2349.77
571.84	2340.16
572.20	2329.22
572.55	2319.33
572.90	2308.53
573.26	2298.26
573.61	2287.41
573.96	2276.43
574.31	2264.19
574.67	2252.71
575.02	2239.70
575.37	2226.86
575.72	2213.58
576.08	2201.52
576.43	2188.82
576.78	2175.68
577.13	2162.05
577.49	2149.68
577.84	2137.73
578.19	2125.32
578.54	2112.38
578.90	2100.46
579.25	2088.01
579.60	2075.50
579.95	2062.46
580.30	2049.29
580.66	2035.92
581.01	2022.55
581.36	2008.63
581.71	1995.99
582.06	1982.69
582.42	1970.13
582.77	1957.68
583.12	1945.56
583.47	1933.18
583.82	1921.16
584.17	1909.08
584.53	1897.14
584.88	1884.13
585.23	1870.76
585.58	1856.53
585.93	1843.42
586.28	1830.27
586.63	1816.07
586.98	1801.96
587.34	1788.56
587.69	1775.21
588.04	1762.41
588.39	1750.08
588.74	1737.80
589.09	1725.66
589.44	1712.95
589.79	1700.81
590.14	1688.71
590.49	1676.45
590.84	1664.20
591.19	1652.24
591.54	1640.12
591.89	1627.74
592.25	1618.00
592.60	1606.75
592.95	1595.26
593.30	1583.14
593.65	1571.05
594.00	1559.15
594.35	1549.34
594.70	1537.31
595.05	1525.99
595.40	1514.05
595.75	1502.15
596.10	1490.81
596.45	1479.25
596.80	1468.36
597.15	1456.75
597.50	1444.83
597.85	1433.60
598.19	1421.75
598.54	1409.88
598.89	1398.49
599.24	1387.87
599.59	1375.53
599.94	1364.56
600.29	1354.21
600.64	1343.96
600.99	1333.15
601.34	1323.89
601.69	1312.55
602.04	1302.92
602.39	1293.15
602.74	1283.97
603.08	1274.52
603.43	1265.17
603.78	1255.47
604.13	1245.93
604.48	1236.32
604.83	1226.79
605.18	1217.01
605.53	1207.87
605.87	1198.70
606.22	1190.08
606.57	1180.83
606.92	1171.65
607.27	1162.89
607.62	1154.15
607.96	1145.45
608.31	1137.57
608.66	1128.86
609.01	1120.15
609.36	1111.25
609.70	1102.68
610.05	1094.02
610.40	1085.36
610.75	1076.89
611.10	1068.60
611.44	1059.70
611.79	1051.40
612.14	1043.56
612.49	1035.49
612.83	1027.70
613.18	1020.00
613.53	1012.26
613.88	1004.07
614.22	996.46
614.57	988.19
614.92	980.23
615.27	972.82
615.61	964.99
615.96	957.30
616.31	949.87
616.65	943.08
617.00	935.69
617.35	928.29
617.70	921.30
618.04	913.97
618.39	907.09
618.74	900.86
619.08	893.96
619.43	886.85
619.78	879.75
620.12	872.58
620.47	865.70
620.82	858.43
621.16	851.85
621.51	845.35
621.85	839.15
622.20	832.51
622.55	825.72
622.89	819.14
623.24	812.78
623.59	806.44
623.93	799.93
624.28	793.84
624.62	788.24
624.97	782.37
625.32	776.49
625.66	770.21
626.01	763.92
626.35	758.49
626.70	752.71
627.04	747.37
627.39	741.85
627.73	736.48
628.08	731.59
628.43	725.94
628.77	720.34
629.12	714.81
629.46	709.89
629.81	705.38
630.15	700.67
630.50	695.67
630.84	690.80
631.19	686.08
631.53	681.30
631.88	675.93
632.22	671.02
632.57	666.46
632.91	661.94
633.26	657.57
633.60	652.88
633.95	648.26
634.29	643.58
634.64	639.06
634.98	634.33
635.32	629.70
635.67	625.81
636.01	621.68
636.36	617.62
636.70	613.51
637.05	609.15
637.39	604.89
637.73	600.95
638.08	596.91
638.42	592.73
638.77	588.41
639.11	584.20
639.45	579.91
639.80	575.65
640.14	571.58
640.49	567.47
640.83	563.54
641.17	559.88
641.52	556.17
641.86	552.65
642.20	549.35
642.55	545.57
642.89	541.81
643.23	538.37
643.58	535.17
643.92	531.57
644.26	528.18
644.61	524.99
644.95	521.48
645.29	517.94
645.64	514.67
645.98	511.54
646.32	508.55
646.66	505.46
647.01	502.47
647.35	499.70
647.69	496.77
648.04	493.99
648.38	491.13
648.72	488.31
649.06	485.32
649.41	482.25
649.75	479.30
650.09	476.66
650.43	473.59
650.78	470.67
651.12	467.71
651.46	464.76
651.80	461.83
652.14	459.26
652.49	456.89
652.83	454.31
653.17	451.67
653.51	449.05
653.85	446.69
654.20	444.14
654.54	441.52
654.88	438.94
655.22	436.70
655.56	434.21
655.90	431.74
656.25	429.37
656.59	427.15
656.93	424.97
657.27	422.76
657.61	420.50
657.95	418.22
658.29	416.15
658.64	414.16
658.98	412.07
659.32	409.71
659.66	407.57
660.00	405.56
660.34	403.55
660.68	401.51
661.02	399.36
661.36	397.44
661.70	395.41
662.05	393.59
662.39	391.57
662.73	389.78
663.07	388.30
663.41	386.55
663.75	384.65
664.09	382.85
664.43	380.83
664.77	379.09
665.11	377.28
665.45	375.67
665.79	373.98
666.13	372.27
666.47	370.67
666.81	368.99
667.15	367.19
667.49	365.76
667.83	364.45
668.17	363.12
668.51	361.61
668.85	360.25
669.19	359.08
669.53	357.52
669.87	355.96
670.21	354.22
670.55	352.74
670.89	351.65
671.23	350.30
671.57	349.00
671.91	347.79
672.25	346.49
672.58	345.17
672.92	343.70
673.26	342.49
673.60	341.24
673.94	339.98
674.28	338.89
674.62	337.69
674.96	336.36
675.30	335.20
675.64	333.97
675.97	332.79
676.31	331.30
676.65	330.07
676.99	329.18
677.33	327.99
677.67	326.97
678.01	325.59
678.34	324.47
678.68	323.46
679.02	322.23
679.36	321.25
679.70	320.19
680.04	319.30
680.37	318.29
680.71	317.33
681.05	316.36
681.39	315.47
681.73	314.47
682.06	313.54
682.40	312.54
682.74	311.70
683.08	310.89
683.42	310.00
683.75	309.21
684.09	308.23
684.43	307.46
684.77	306.57
685.10	305.84
685.44	305.06
685.78	304.24
686.12	303.51
686.45	302.65
686.79	301.88
687.13	301.10
687.46	300.27
687.80	299.66
688.14	298.84
688.48	298.02
688.81	297.31
689.15	296.67
689.49	295.91
689.82	295.16
690.16	294.29
690.50	293.69
690.83	292.94
691.17	292.18
691.51	291.51
691.84	290.88
692.18	290.18
692.52	289.50
692.85	288.86
693.19	288.52
693.52	287.89
693.86	287.15
694.20	286.56
694.53	286.07
694.87	285.30
695.21	284.71
695.54	284.11
695.88	283.37
696.21	282.64
696.55	282.13
696.88	281.50
697.22	280.94
697.56	280.36
697.89	279.77
698.23	279.26
698.56	278.70
698.90	278.27
699.23	277.63
699.57	277.08
699.90	276.55
700.24	275.77
700.58	275.31
700.91	274.98
701.25	274.82
701.58	274.66
701.92	274.39
702.25	273.99
702.59	273.56
702.92	273.25
703.26	272.85
703.59	272.39
703.93	272.42
704.26	272.00
704.60	271.63
704.93	271.20
705.26	270.80
705.60	270.42
705.93	269.88
706.27	269.68
706.60	269.42
706.94	269.23
707.27	268.87
707.61	268.53
707.94	268.08
708.27	267.36
708.61	266.66
708.94	266.19
709.28	265.74
709.61	265.30
709.94	264.96
710.28	264.59
710.61	264.19
710.95	263.42
711.28	263.44
711.61	262.96
711.95	262.83
712.28	262.36
712.61	261.98
712.95	261.87
713.28	261.68
713.61	261.30
713.95	260.73
714.28	260.39
714.61	259.90
714.95	259.54
715.28	259.10
715.61	258.72
715.95	258.43
716.28	258.12
716.61	257.88
716.95	257.43
717.28	257.12
717.61	256.84
717.94	256.50
718.28	255.77
718.61	255.57
718.94	255.14
719.27	254.90
719.61	254.73
719.94	254.35
720.27	253.78
720.60	253.43
720.94	253.20
721.27	253.01
721.60	252.95
721.93	252.74
722.27	252.67
722.60	252.46
722.93	252.14
723.26	251.87
723.59	251.52
723.93	251.37
724.26	251.18
724.59	250.90
724.92	250.71
725.25	250.65
725.59	250.32
725.92	250.15
726.25	249.99
726.58	249.65
726.91	249.43
727.24	249.37
727.57	249.14
727.91	248.92
728.24	248.67
728.57	248.34
728.90	248.12
729.23	247.81
729.56	247.87
729.89	247.70
730.22	247.54
730.55	247.41
730.89	247.23
731.22	246.98
731.55	246.79
731.88	246.61
732.21	246.39
732.54	246.20
732.87	246.02
733.20	245.82
733.53	245.77
733.86	245.60
734.19	245.30
734.52	245.28
734.85	245.38
735.18	245.16
735.51	245.16
735.84	245.11
736.17	245.08
736.50	244.60
736.83	245.00
737.16	244.86
737.49	244.76
737.82	244.62
738.15	244.55
738.48	244.44
738.81	244.24
739.14	244.10
739.47	243.99
739.80	243.85
740.13	243.77
740.46	243.52
740.79	243.29
741.12	243.19
741.45	242.95
741.78	242.53
742.11	242.53
742.44	242.33
742.77	242.19
743.10	242.03
743.43	241.90
743.75	241.22
744.08	241.80
744.41	241.64
744.74	241.50
745.07	241.30
745.40	241.25
745.73	241.36
746.06	241.18
746.39	241.13
746.71	240.90
747.04	240.72
747.37	240.60
747.70	240.57
748.03	240.42
748.36	240.38
748.68	240.37
749.01	240.18
749.34	240.05
749.67	239.94
750.00	239.77
750.33	240.06
750.65	240.01
750.98	239.26
751.31	239.15
751.64	239.02
751.97	239.13
752.29	238.94
752.62	238.63
752.95	238.50
753.28	238.37
753.60	238.26
753.93	238.31
754.26	238.22
754.59	238.09
754.91	237.97
755.24	237.85
755.57	237.70
755.90	237.61
756.22	237.45
756.55	237.30
756.88	237.20
757.20	236.72
757.53	236.50
757.86	236.40
758.19	236.30
758.51	236.21
758.84	235.88
759.17	235.78
759.49	235.72
759.82	235.94
760.15	235.85
760.47	235.82
760.80	235.54
761.13	235.55
761.45	235.46
761.78	235.38
762.11	235.34
762.43	235.24
762.76	235.19
763.08	235.24
763.41	235.17
763.74	235.07
764.06	235.08
764.39	235.00
764.71	234.88
765.04	234.77
765.37	234.66
765.69	234.61
766.02	234.51
766.34	234.40
766.67	234.14
767.00	234.18
767.32	234.41
767.65	234.66
767.97	234.60
768.30	234.58
768.62	234.58
768.95	234.39
769.27	234.34
769.60	234.34
769.92	234.15
770.25	234.02
770.57	233.97
770.90	233.85
771.22	233.79
771.55	233.81
771.87	233.83
772.20	233.79
772.52	234.16
772.85	234.68
773.17	234.63
773.50	234.55
773.82	234.36
774.15	234.02
774.47	233.70
774.80	233.55
775.12	233.46
775.45	233.38
775.77	233.44
776.09	233.35
776.42	233.22
776.74	233.24
777.07	233.19
777.39	233.12
777.72	233.06
778.04	233.12
778.36	233.01
778.69	232.90
779.01	232.84
779.33	232.39
779.66	231.81
779.98	231.80
780.31	231.73
780.63	231.93
780.95	231.93
781.28	231.89
781.60	231.81
781.92	231.73
782.25	231.70
782.57	231.65
782.89	231.65
783.22	231.59
783.54	231.55
783.86	231.54
784.19	231.41
784.51	231.46
784.83	231.32
785.16	231.22
785.48	231.20
785.80	231.17
786.12	231.10
786.45	231.03
786.77	230.95
787.09	230.80
787.42	230.58
787.74	230.54
788.06	230.51
788.38	230.46
788.71	230.31
789.03	230.30
789.35	230.31
789.67	230.14
789.99	230.13
790.32	230.05
790.64	230.10
790.96	230.50
791.28	230.36
791.61	230.27
791.93	230.25
792.25	230.18
792.57	230.48
792.89	230.41
793.21	230.45
793.54	230.37
793.86	230.35
794.18	230.30
794.50	230.21
794.82	230.19
795.14	230.26
795.47	230.36
795.79	230.30
796.11	230.09
796.43	230.06
796.75	230.00
797.07	229.92
797.39	229.81
797.71	229.44
798.04	229.40
798.36	229.46
798.68	229.49
799.00	229.50
799.32	229.24
799.64	229.28
799.96	229.19
800.28	229.27
800.60	229.27
800.92	229.26
801.24	229.22
801.56	229.19
801.89	229.13
802.21	229.18
802.53	229.11
802.85	229.22
803.17	229.44
803.49	229.38
803.81	229.36
804.13	229.33
804.45	229.25
804.77	229.20
805.09	229.11
805.41	229.01
805.73	228.98
806.05	228.84
806.37	228.81
806.69	228.84
807.01	228.76
807.33	228.77
807.65	228.61
807.97	228.82
808.28	228.83
808.60	228.78
808.92	228.72
809.24	229.01
809.56	228.92
809.88	228.72
810.20	228.75
810.52	228.81
810.84	228.67
811.16	228.69
811.48	228.79
811.80	228.99
812.12	229.05
812.43	229.15
812.75	229.17
813.07	229.15
813.39	229.18
813.71	229.15
814.03	229.11
814.35	229.15
814.67	228.96
814.98	228.89
815.30	228.92
815.62	228.79
815.94	228.54
816.26	228.82
816.58	228.78
816.89	228.85
817.21	228.81
817.53	228.91
817.85	228.98
818.17	228.95
818.48	228.72
818.80	228.78
819.12	228.67
819.44	228.67
819.76	228.64
820.07	228.66
820.39	228.69
820.71	228.69
821.03	228.67
821.34	228.61
821.66	228.68
821.98	228.71
822.30	228.75
822.61	228.91
822.93	228.60
823.25	228.56
823.57	228.45
823.88	228.51
824.20	228.49
824.52	228.54
824.83	228.51
825.15	228.46
825.47	228.43
825.79	228.38
826.10	228.32
826.42	228.22
826.74	228.16
827.05	228.08
827.37	228.19
827.69	228.17
828.00	228.20
828.32	228.15
828.64	228.06
828.95	228.22
829.27	228.09
829.58	228.10
829.90	228.22
830.22	228.22
830.53	228.12
830.85	228.07
831.17	227.98
831.48	227.95
831.80	228.05
832.11	228.02
832.43	228.01
832.75	227.97
833.06	228.32
833.38	228.19
833.69	228.18
834.01	228.12
834.32	228.13
834.64	228.02
834.96	228.04
835.27	228.01
835.59	227.89
835.90	227.85
836.22	227.81
836.53	227.66
836.85	227.61
837.16	228.08
837.48	228.08
837.79	228.15
838.11	228.17
838.42	228.13
838.74	228.11
839.05	228.11
839.37	228.17
839.68	227.81
840.00	227.89
840.31	227.97
840.63	227.97
840.94	227.97
841.26	227.95
841.57	227.95
841.88	228.00
842.20	227.95
842.51	227.93
842.83	228.00
843.14	228.46
843.46	228.51
843.77	228.21
844.08	228.20
844.40	228.01
844.71	227.99
845.03	227.97
845.34	227.95
845.65	227.90
845.97	227.89
846.28	227.89
846.60	227.82
846.91	227.71
847.22	227.72
847.54	227.72
847.85	227.80
848.16	227.70
848.48	227.65
848.79	227.82
849.10	227.82
849.42	227.80
849.73	227.29
850.04	227.26
850.36	227.10
850.67	227.13
850.98	227.24
851.30	227.29
851.61	227.20
851.92	227.21
852.23	227.41
852.55	227.44
852.86	227.50
853.17	227.60
853.49	227.65
853.80	227.67
854.11	227.79
854.42	227.83
854.74	227.82
855.05	227.82
855.36	227.54
855.67	227.52
855.99	227.57
856.30	228.29
856.61	228.24
856.92	228.26
857.23	228.28
857.55	228.13
857.86	228.05
858.17	228.17
858.48	228.12
858.79	227.99
859.11	228.00
859.42	228.00
859.73	227.90
860.04	227.93
860.35	227.82
860.66	227.66
860.98	227.61
861.29	227.71
861.60	227.73
861.91	227.89
862.22	227.80
862.53	227.65
862.84	226.97
863.16	227.14
863.47	227.05
863.78	227.00
864.09	227.09
864.40	227.14
864.71	227.18
865.02	227.17
865.33	227.09
865.64	227.04
865.95	226.97
866.27	227.27
866.58	227.25
866.89	227.28
867.20	227.23
867.51	227.20
867.82	227.17
868.13	227.28
868.44	227.13
868.75	227.30
869.06	227.35
869.37	227.34
869.68	227.11
869.99	227.14
870.30	227.11
870.61	227.15
870.92	227.00
871.23	226.91
871.54	226.93
871.85	227.03
872.16	227.06
872.47	227.08
872.78	226.77
873.09	226.73
873.40	226.64
873.71	226.68
874.02	226.72
874.33	226.63
874.64	226.48
874.95	226.54
875.26	226.43
875.56	226.43
875.87	226.48
876.18	226.53
876.49	227.07
876.80	227.09
877.11	227.00
877.42	227.12
877.73	227.15
878.04	227.16
878.35	227.10
878.66	227.07
878.96	227.04
879.27	227.08
879.58	227.16
879.89	227.12
880.20	227.29
880.51	227.25
880.82	227.29
881.12	227.33
881.43	227.25
881.74	227.17
882.05	227.15
882.36	227.16
882.67	227.22
882.97	226.66
883.28	226.68
883.59	226.67
883.90	226.66
884.21	226.67
884.51	226.63
884.82	226.58
885.13	226.59
885.44	226.54
885.74	226.49
886.05	226.44
886.36	226.54
886.67	226.36
886.98	226.52
887.28	226.50
887.59	226.46
887.90	226.49
888.20	226.50
888.51	226.57
888.82	226.52
889.13	226.55
889.43	226.98
889.74	226.86
890.05	226.81
890.35	226.75
890.66	226.73
890.97	226.67
891.28	226.62
891.58	226.64
891.89	226.73
892.20	226.70
892.50	226.67
892.81	226.64
893.12	226.61
893.42	226.40
893.73	226.44
894.04	226.50
894.34	226.56
894.65	226.58
894.95	226.56
895.26	226.58
895.57	226.75
895.87	226.30
896.18	226.49
896.48	226.57
896.79	226.55
897.10	226.64
897.40	226.70
897.71	226.83
898.01	226.75
898.32	226.76
898.63	226.79
898.93	226.80
899.24	226.85
899.54	226.86
899.85	226.90
900.15	226.90
900.46	226.86
900.76	226.93
901.07	226.87
901.38	226.81
901.68	226.87
901.99	226.67
902.29	226.70
902.60	226.61
902.90	226.59
903.21	226.66
903.51	226.53
903.82	226.60
904.12	226.56
904.43	226.62
904.73	226.67
905.03	226.72
905.34	227.20
905.64	227.08
905.95	227.11
906.25	227.03
906.56	226.99
906.86	227.03
907.17	226.97
907.47	227.01
907.77	227.04
908.08	226.93
908.38	226.90
908.69	226.96
908.99	227.04
909.30	226.99
909.60	227.01
909.90	227.04
910.21	226.88
910.51	226.84
910.81	226.86
911.12	226.80
911.42	226.76
911.73	226.25
912.03	226.32
912.33	226.39
912.64	226.49
912.94	226.45
913.24	226.30
913.55	226.21
913.85	226.21
914.15	226.30
914.46	226.39
914.76	226.35
915.06	226.32
915.37	226.27
915.67	226.30
915.97	226.26
916.27	226.18
916.58	226.28
916.88	226.19
917.18	226.10
917.49	226.52
917.79	226.52
918.09	226.61
918.39	226.73
918.70	226.78
919.00	226.68
919.30	226.97
919.60	226.99
919.91	226.97
920.21	227.01
920.51	226.91
920.81	226.89
921.12	226.95
921.42	227.00
921.72	227.03
922.02	227.10
922.32	227.17
922.63	227.21
922.93	227.41
923.23	227.53
923.53	227.46
923.83	227.12
924.13	227.16
924.44	227.16
924.74	227.19
925.04	227.24
925.34	227.30
925.64	227.05
925.94	227.08
926.24	227.36
926.55	227.30
926.85	227.32
927.15	227.32
927.45	227.34
927.75	227.26
928.05	227.24
928.35	227.21
928.65	227.28
928.95	227.32
929.26	227.14
929.56	227.26
929.86	227.40
930.16	227.25
930.46	227.19
930.76	227.15
931.06	226.98
931.36	226.81
931.66	226.84
931.96	226.93
932.26	226.95
932.56	226.68
932.86	226.77
933.16	226.82
933.46	226.73
933.76	226.68
934.06	226.76
934.36	226.88
934.66	226.85
934.96	226.80
935.26	226.83
935.56	226.88
935.86	226.74
936.16	226.69
936.46	226.71
936.76	226.70
937.06	226.63
937.36	226.67
937.66	226.75
937.96	226.77
938.26	226.67
938.56	226.67
938.86	226.80
939.16	226.83
939.46	226.86
939.76	226.89
940.06	226.90
940.35	226.78
940.65	226.62
940.95	226.65
941.25	226.53
941.55	226.46
941.85	226.39
942.15	226.48
942.45	226.61
942.75	226.58
943.04	226.56
943.34	226.73
943.64	226.74
943.94	226.59
944.24	226.64
944.54	226.64
944.84	226.61
945.13	226.60
945.43	226.53
945.73	226.47
946.03	226.43
946.33	226.35
946.62	226.32
946.92	226.26
947.22	226.26
947.52	226.25
947.82	226.33
948.11	226.32
948.41	226.17
948.71	225.98
949.01	226.07
949.31	226.04
949.60	225.93
949.90	225.99
950.20	225.97
950.50	225.93
950.79	225.89
951.09	225.92
951.39	225.83
951.69	225.73
951.98	225.75
952.28	225.80
952.58	225.82
952.87	225.85
953.17	225.96
953.47	225.88
953.76	225.97
954.06	225.80
954.36	225.78
954.66	225.81
954.95	225.96
955.25	225.92
955.55	226.00
955.84	225.89
956.14	225.85
956.44	225.89
956.73	225.79
957.03	225.84
957.32	225.88
957.62	225.87
957.92	226.00
958.21	226.02
958.51	226.59
958.81	226.67
959.10	226.64
959.40	226.73
959.69	226.77
959.99	226.88
960.29	226.98
960.58	226.97
960.88	227.22
961.17	227.14
961.47	227.27
961.76	227.21
962.06	227.32
962.36	227.36
962.65	227.40
962.95	227.44
963.24	227.37
963.54	227.38
963.83	227.43
964.13	227.45
964.42	227.40
964.72	227.00
965.01	226.97
965.31	227.01
965.60	226.93
965.90	227.28
966.19	227.10
966.49	227.16
966.78	227.10
967.08	227.09
967.37	227.11
967.67	226.99
967.96	227.13
968.26	227.15
968.55	227.17
968.85	227.17
969.14	227.22
969.43	227.23
969.73	227.24
970.02	227.20
970.32	227.14
970.61	227.10
970.91	226.94
971.20	226.84
971.49	226.83
971.79	226.85
972.08	226.53
972.38	226.64
972.67	226.55
972.96	226.65
973.26	226.43
973.55	226.57
973.85	226.55
974.14	226.46
974.43	226.49
974.73	226.38
975.02	226.41
975.31	226.41
975.61	226.39
975.90	226.23
976.19	226.18
976.49	226.23
976.78	226.29
977.07	226.29
977.37	226.32
977.66	226.34
977.95	226.25
978.24	226.23
978.54	226.28
978.83	226.23
979.12	226.21
979.42	226.21
979.71	226.15
980.00	226.15
980.29	226.14
980.59	226.05
980.88	226.15
981.17	226.03
981.46	225.97
981.76	226.06
982.05	226.30
982.34	226.33
982.63	226.22
982.93	226.19
983.22	226.27
983.51	226.31
983.80	226.38
984.09	226.45
984.39	226.39
984.68	226.34
984.97	226.40
985.26	226.29
985.55	226.32
985.85	226.17
986.14	226.26
986.43	226.30
986.72	226.25
987.01	226.12
987.30	226.15
987.59	226.12
987.89	226.03
988.18	225.86
988.47	225.86
988.76	225.87
989.05	225.82
989.34	225.78
989.63	225.94
989.92	225.84
990.22	225.80
990.51	225.75
990.80	225.73
991.09	225.71
991.38	225.80
991.67	225.83
991.96	225.80
992.25	225.76
992.54	225.69
992.83	225.71
993.12	225.74
993.41	225.89
993.70	226.11
993.99	226.23
994.28	226.28
994.58	226.32
994.87	226.31
995.16	226.31
995.45	226.32
995.74	226.09
996.03	226.16
996.32	226.20
996.61	226.40
996.90	226.36
997.19	226.40
997.48	226.45
997.77	226.37
998.06	226.37
998.34	226.29
998.63	226.36
998.92	226.40
999.21	226.45
999.50	226.39
999.79	226.25
1000.08	226.22
1000.37	226.21
1000.66	226.16
1000.95	226.29
1001.24	226.38
1001.53	226.43
1001.82	226.49
1002.11	226.44
1002.40	226.49
1002.68	226.56
1002.97	226.92
1003.26	226.84
1003.55	226.72
1003.84	226.77
1004.13	226.96
1004.42	227.03
1004.71	227.01
1004.99	226.96
1005.28	227.05
1005.57	226.98
1005.86	226.91
1006.15	226.90
1006.44	226.81
1006.72	226.88
1007.01	226.77
1007.30	226.74
1007.59	226.68
1007.88	226.62
1008.17	226.63
1008.45	226.56
1008.74	226.34
1009.03	226.11
1009.32	226.11
1009.60	226.08
1009.89	226.04
1010.18	225.83
1010.47	225.86
1010.76	225.80
1011.04	225.80
1011.33	225.87
1011.62	225.94
1011.91	225.98
1012.19	226.05
1012.48	226.03
1012.77	226.03
1013.05	226.30
1013.34	226.25
1013.63	226.20
1013.92	226.22
1014.20	226.23
1014.49	226.25
1014.78	226.26
1015.06	226.05
1015.35	226.08
1015.64	226.16
1015.92	226.15
1016.21	226.23
1016.50	226.15
1016.78	226.21
1017.07	226.25
1017.36	226.10
1017.64	225.99
1017.93	225.98
1018.22	225.83
1018.50	225.85
1018.79	225.88
1019.08	225.58
1019.36	225.58
1019.65	225.52
1019.93	225.64
1020.22	225.65
1020.51	225.93
1020.79	225.87
1021.08	224.30
1021.36	224.45
1021.65	227.20
1021.94	225.25
1022.22	225.25
1022.51	224.60
1022.79	227.30
1023.08	226.30
1023.36	233.05
1023.65	223.80
>>>>>End Processed Spectral Data<<<<<
