SpectraSuite Data File
++++++++++++++++++++++++++++++++++++
Date: Wed Sep 04 17:56:55 EDT 2013
User: lab3
Dark Spectrum Present: Yes
Reference Spectrum Present: No
Number of Sampled Component Spectra: 1
Spectrometers: USB2E7196
Integration Time (usec): 170000 (USB2E7196)
Spectra Averaged: 20 (USB2E7196)
Boxcar Smoothing: 10 (USB2E7196)
Correct for Electrical Dark: No (USB2E7196)
Strobe/Lamp Enabled: No (USB2E7196)
Correct for Detector Non-linearity: No (USB2E7196)
Correct for Stray Light: No (USB2E7196)
Number of Pixels in Processed Spectrum: 2048
>>>>>Begin Processed Spectral Data<<<<<
339.09	0.00
339.48	212.80
339.86	215.80
340.24	216.40
340.63	217.50
341.01	226.15
341.39	219.60
341.78	221.50
342.16	224.35
342.54	222.80
342.93	212.70
343.31	223.44
343.69	224.01
344.07	224.44
344.46	224.91
344.84	225.36
345.22	225.36
345.60	225.67
345.99	225.96
346.37	226.03
346.75	226.21
347.13	226.29
347.52	226.34
347.90	226.52
348.28	226.53
348.66	226.61
349.05	226.36
349.43	226.44
349.81	226.52
350.19	226.57
350.57	226.67
350.96	226.81
351.34	226.86
351.72	226.96
352.10	227.04
352.48	227.04
352.87	227.00
353.25	227.03
353.63	227.14
354.01	227.15
354.39	227.26
354.77	227.32
355.15	227.47
355.54	227.49
355.92	227.45
356.30	227.55
356.68	227.95
357.06	228.15
357.44	228.11
357.82	228.10
358.20	228.50
358.58	228.55
358.97	228.58
359.35	228.75
359.73	228.91
360.11	228.98
360.49	229.05
360.87	229.14
361.25	229.28
361.63	229.44
362.01	229.49
362.39	229.48
362.77	229.58
363.15	229.64
363.53	229.60
363.91	229.63
364.29	229.69
364.67	229.22
365.05	229.26
365.43	229.31
365.81	229.41
366.19	229.29
366.57	229.44
366.95	229.50
367.33	229.40
367.71	229.40
368.09	229.51
368.47	229.53
368.85	229.51
369.23	229.60
369.61	229.40
369.99	229.57
370.37	229.65
370.75	229.77
371.13	229.61
371.51	229.55
371.89	229.54
372.27	229.42
372.65	229.40
373.03	229.34
373.41	229.40
373.78	229.29
374.16	229.01
374.54	228.78
374.92	228.65
375.30	228.58
375.68	228.43
376.06	228.34
376.44	228.20
376.82	228.21
377.19	228.06
377.57	227.94
377.95	227.68
378.33	227.50
378.71	227.18
379.09	227.14
379.47	227.16
379.84	227.06
380.22	227.00
380.60	226.85
380.98	226.76
381.36	226.53
381.73	226.41
382.11	226.43
382.49	226.48
382.87	226.35
383.25	226.26
383.62	226.71
384.00	226.52
384.38	226.49
384.76	226.49
385.13	226.67
385.51	226.67
385.89	226.55
386.27	226.56
386.64	226.59
387.02	226.55
387.40	226.45
387.78	226.49
388.15	226.53
388.53	226.58
388.91	226.49
389.29	226.52
389.66	226.56
390.04	226.49
390.42	226.42
390.79	226.42
391.17	226.42
391.55	225.85
391.92	225.89
392.30	225.94
392.68	225.78
393.05	225.66
393.43	225.67
393.81	225.73
394.18	225.66
394.56	225.65
394.94	225.71
395.31	225.77
395.69	225.96
396.06	225.99
396.44	226.01
396.82	226.11
397.19	226.38
397.57	226.43
397.95	226.55
398.32	226.55
398.70	226.66
399.07	226.88
399.45	226.98
399.82	227.05
400.20	227.09
400.58	227.26
400.95	227.24
401.33	227.46
401.70	227.88
402.08	228.03
402.45	228.20
402.83	228.45
403.20	228.57
403.58	228.54
403.95	228.75
404.33	229.02
404.71	229.23
405.08	229.68
405.46	229.88
405.83	230.10
406.21	230.34
406.58	230.64
406.96	230.87
407.33	231.21
407.70	231.71
408.08	232.53
408.45	232.92
408.83	233.36
409.20	233.70
409.58	233.91
409.95	234.51
410.33	235.05
410.70	235.46
411.08	236.11
411.45	236.79
411.82	237.42
412.20	238.23
412.57	239.14
412.95	239.52
413.32	240.43
413.69	241.32
414.07	242.26
414.44	243.27
414.82	244.34
415.19	245.55
415.56	246.65
415.94	247.64
416.31	249.08
416.68	250.44
417.06	252.10
417.43	253.75
417.81	255.50
418.18	257.37
418.55	259.27
418.93	261.25
419.30	263.39
419.67	265.69
420.04	267.86
420.42	270.20
420.79	273.33
421.16	276.10
421.54	279.21
421.91	282.21
422.28	285.22
422.66	288.53
423.03	291.91
423.40	295.28
423.77	298.83
424.15	302.49
424.52	306.36
424.89	310.59
425.26	314.52
425.64	318.25
426.01	322.30
426.38	326.75
426.75	331.36
427.13	335.89
427.50	340.64
427.87	345.58
428.24	350.47
428.61	354.86
428.99	360.20
429.36	365.57
429.73	371.21
430.10	376.75
430.47	382.43
430.85	388.11
431.22	394.35
431.59	401.20
431.96	407.45
432.33	414.40
432.70	420.99
433.08	428.93
433.45	436.51
433.82	443.90
434.19	452.10
434.56	460.11
434.93	467.85
435.30	475.65
435.68	484.35
436.05	492.93
436.42	501.38
436.79	509.12
437.16	517.57
437.53	526.22
437.90	535.04
438.27	543.65
438.64	552.80
439.01	561.04
439.38	568.26
439.75	575.42
440.13	583.50
440.50	591.06
440.87	597.06
441.24	603.42
441.61	610.53
441.98	615.62
442.35	621.57
442.72	627.60
443.09	633.30
443.46	636.57
443.83	638.85
444.20	640.80
444.57	643.47
444.94	644.47
445.31	645.64
445.68	646.96
446.05	647.09
446.42	645.55
446.79	644.34
447.16	642.66
447.53	641.24
447.90	637.53
448.27	633.87
448.64	628.97
449.01	625.35
449.37	619.21
449.74	613.20
450.11	606.23
450.48	598.41
450.85	590.33
451.22	583.55
451.59	576.88
451.96	570.53
452.33	562.35
452.70	555.10
453.07	546.43
453.43	537.22
453.80	528.80
454.17	520.77
454.54	512.91
454.91	504.68
455.28	496.85
455.65	489.39
456.02	482.53
456.38	476.25
456.75	468.32
457.12	461.70
457.49	455.30
457.86	448.93
458.23	443.79
458.59	438.19
458.96	432.37
459.33	427.24
459.70	422.20
460.07	418.13
460.43	413.35
460.80	409.01
461.17	405.42
461.54	401.42
461.91	397.65
462.27	393.76
462.64	390.48
463.01	386.80
463.38	383.48
463.74	379.42
464.11	376.39
464.48	373.83
464.85	370.95
465.21	368.89
465.58	366.65
465.95	363.84
466.32	361.56
466.68	359.30
467.05	357.09
467.42	354.86
467.78	352.47
468.15	350.35
468.52	348.62
468.88	346.40
469.25	344.48
469.62	343.07
469.98	341.37
470.35	339.81
470.72	338.39
471.08	336.61
471.45	335.34
471.82	334.04
472.18	332.59
472.55	331.62
472.92	330.27
473.28	329.09
473.65	327.90
474.02	326.85
474.38	326.02
474.75	325.26
475.11	324.36
475.48	323.76
475.85	323.11
476.21	322.59
476.58	322.10
476.94	321.69
477.31	321.11
477.67	320.71
478.04	320.35
478.41	320.15
478.77	320.63
479.14	320.36
479.50	320.31
479.87	320.35
480.23	320.34
480.60	320.34
480.96	320.40
481.33	320.86
481.69	321.05
482.06	321.25
482.42	321.52
482.79	321.84
483.15	322.28
483.52	322.89
483.88	323.37
484.25	323.81
484.61	324.46
484.98	325.19
485.34	326.14
485.71	327.20
486.07	328.12
486.44	328.59
486.80	329.70
487.17	330.82
487.53	332.22
487.90	333.52
488.26	335.07
488.62	336.81
488.99	338.28
489.35	340.08
489.72	341.87
490.08	343.86
490.44	345.91
490.81	348.10
491.17	350.30
491.54	352.84
491.90	355.53
492.26	358.20
492.63	361.02
492.99	363.84
493.36	366.88
493.72	370.21
494.08	373.55
494.45	377.30
494.81	381.19
495.17	384.99
495.54	389.28
495.90	393.56
496.26	397.83
496.63	402.52
496.99	407.25
497.35	412.42
497.72	417.68
498.08	423.14
498.44	428.89
498.80	435.01
499.17	440.94
499.53	447.12
499.89	453.72
500.26	460.55
500.62	467.56
500.98	474.88
501.34	482.33
501.71	490.01
502.07	497.85
502.43	505.97
502.79	514.39
503.16	523.14
503.52	532.23
503.88	541.49
504.24	551.23
504.60	561.42
504.97	571.67
505.33	582.22
505.69	593.40
506.05	604.35
506.41	615.52
506.78	627.30
507.14	639.47
507.50	651.84
507.86	664.34
508.22	677.37
508.59	690.53
508.95	704.11
509.31	718.37
509.67	732.61
510.03	746.78
510.39	761.45
510.75	776.42
511.12	791.54
511.48	807.29
511.84	823.14
512.20	838.95
512.56	855.12
512.92	871.88
513.28	888.63
513.64	905.82
514.00	923.38
514.37	941.04
514.73	959.11
515.09	977.36
515.45	995.93
515.81	1014.34
516.17	1033.22
516.53	1052.04
516.89	1070.83
517.25	1090.26
517.61	1110.86
517.97	1131.18
518.33	1151.27
518.69	1171.45
519.05	1191.94
519.41	1212.62
519.77	1233.95
520.13	1254.77
520.49	1275.51
520.85	1297.88
521.21	1319.15
521.57	1340.40
521.93	1361.07
522.29	1382.22
522.65	1403.02
523.01	1423.93
523.37	1444.65
523.73	1465.60
524.09	1486.33
524.45	1507.03
524.81	1528.06
525.17	1548.73
525.53	1569.19
525.89	1589.95
526.25	1611.02
526.61	1631.38
526.97	1652.41
527.33	1673.81
527.68	1695.61
528.04	1717.08
528.40	1736.49
528.76	1757.64
529.12	1778.34
529.48	1799.47
529.84	1819.74
530.20	1841.00
530.56	1861.78
530.91	1882.93
531.27	1903.26
531.63	1924.00
531.99	1944.67
532.35	1964.55
532.71	1984.58
533.07	2005.17
533.42	2025.21
533.78	2045.16
534.14	2065.15
534.50	2084.10
534.86	2103.01
535.21	2120.40
535.57	2138.76
535.93	2156.72
536.29	2174.54
536.65	2192.45
537.00	2209.82
537.36	2227.36
537.72	2243.47
538.08	2260.65
538.44	2277.14
538.79	2293.86
539.15	2310.46
539.51	2326.37
539.87	2341.60
540.22	2355.52
540.58	2370.18
540.94	2383.38
541.29	2396.27
541.65	2408.92
542.01	2421.55
542.37	2432.09
542.72	2443.58
543.08	2454.16
543.44	2465.91
543.79	2475.69
544.15	2485.48
544.51	2495.93
544.87	2505.25
545.22	2514.58
545.58	2522.33
545.94	2529.51
546.29	2536.02
546.65	2542.19
547.01	2547.89
547.36	2553.52
547.72	2559.41
548.07	2563.38
548.43	2568.88
548.79	2573.37
549.14	2577.46
549.50	2581.31
549.86	2585.57
550.21	2589.11
550.57	2592.40
550.92	2593.84
551.28	2595.45
551.64	2598.22
551.99	2600.20
552.35	2602.14
552.70	2603.88
553.06	2605.48
553.41	2606.65
553.77	2608.35
554.13	2609.70
554.48	2611.47
554.84	2613.33
555.19	2614.42
555.55	2616.20
555.90	2615.64
556.26	2614.88
556.61	2613.32
556.97	2611.40
557.32	2610.40
557.68	2609.52
558.03	2607.94
558.39	2606.79
558.74	2605.97
559.10	2602.43
559.45	2598.70
559.81	2594.35
560.16	2589.13
560.52	2584.53
560.87	2580.30
561.23	2574.92
561.58	2568.82
561.94	2561.57
562.29	2553.69
562.64	2546.86
563.00	2538.56
563.35	2531.88
563.71	2525.24
564.06	2519.22
564.42	2512.39
564.77	2505.56
565.12	2498.05
565.48	2490.34
565.83	2482.27
566.19	2474.10
566.54	2466.33
566.89	2458.22
567.25	2450.32
567.60	2443.12
567.96	2435.39
568.31	2427.51
568.66	2418.77
569.02	2409.99
569.37	2401.91
569.72	2394.61
570.08	2384.72
570.43	2375.33
570.78	2366.04
571.14	2356.59
571.49	2346.37
571.84	2336.83
572.20	2325.84
572.55	2315.78
572.90	2304.91
573.26	2294.34
573.61	2283.19
573.96	2271.84
574.31	2260.13
574.67	2248.63
575.02	2236.22
575.37	2223.55
575.72	2210.34
576.08	2198.36
576.43	2185.83
576.78	2172.67
577.13	2158.59
577.49	2146.15
577.84	2134.08
578.19	2122.05
578.54	2109.62
578.90	2097.36
579.25	2084.89
579.60	2072.44
579.95	2059.65
580.30	2046.47
580.66	2033.15
581.01	2019.75
581.36	2006.07
581.71	1993.33
582.06	1980.09
582.42	1967.35
582.77	1954.57
583.12	1942.61
583.47	1929.97
583.82	1918.39
584.17	1906.53
584.53	1894.64
584.88	1881.57
585.23	1868.28
585.58	1853.91
585.93	1840.50
586.28	1827.15
586.63	1813.45
586.98	1799.27
587.34	1785.72
587.69	1772.78
588.04	1760.24
588.39	1748.08
588.74	1735.75
589.09	1723.42
589.44	1710.87
589.79	1698.85
590.14	1686.85
590.49	1674.37
590.84	1662.55
591.19	1650.16
591.54	1637.79
591.89	1625.78
592.25	1615.65
592.60	1604.41
592.95	1593.34
593.30	1581.27
593.65	1569.51
594.00	1557.50
594.35	1547.68
594.70	1535.53
595.05	1523.94
595.40	1511.84
595.75	1499.98
596.10	1488.79
596.45	1477.14
596.80	1466.26
597.15	1454.63
597.50	1443.14
597.85	1432.22
598.19	1420.21
598.54	1408.53
598.89	1397.26
599.24	1386.57
599.59	1374.87
599.94	1363.86
600.29	1353.06
600.64	1342.93
600.99	1331.91
601.34	1322.35
601.69	1311.32
602.04	1301.70
602.39	1291.99
602.74	1282.92
603.08	1273.46
603.43	1264.13
603.78	1254.29
604.13	1244.21
604.48	1234.60
604.83	1224.77
605.18	1214.73
605.53	1205.39
605.87	1196.26
606.22	1187.62
606.57	1178.31
606.92	1168.98
607.27	1159.88
607.62	1151.40
607.96	1142.80
608.31	1135.11
608.66	1126.49
609.01	1117.67
609.36	1109.06
609.70	1100.63
610.05	1091.67
610.40	1083.08
610.75	1074.44
611.10	1066.34
611.44	1057.87
611.79	1049.61
612.14	1041.65
612.49	1033.75
612.83	1026.47
613.18	1018.61
613.53	1010.78
613.88	1002.89
614.22	995.20
614.57	987.32
614.92	979.39
615.27	971.65
615.61	963.84
615.96	956.13
616.31	948.86
616.65	941.80
617.00	934.36
617.35	927.27
617.70	920.13
618.04	912.99
618.39	906.01
618.74	899.77
619.08	892.92
619.43	885.91
619.78	878.86
620.12	871.56
620.47	864.75
620.82	857.72
621.16	850.99
621.51	844.64
621.85	838.53
622.20	831.91
622.55	825.29
622.89	818.87
623.24	812.60
623.59	806.09
623.93	799.81
624.28	793.72
624.62	788.13
624.97	782.41
625.32	776.67
625.66	770.60
626.01	764.43
626.35	758.90
626.70	753.31
627.04	748.00
627.39	742.37
627.73	736.93
628.08	731.77
628.43	726.30
628.77	720.73
629.12	715.29
629.46	710.51
629.81	705.79
630.15	700.97
630.50	696.12
630.84	691.25
631.19	686.36
631.53	681.80
631.88	676.51
632.22	671.50
632.57	666.94
632.91	662.26
633.26	657.82
633.60	653.06
633.95	648.39
634.29	643.66
634.64	639.24
634.98	634.48
635.32	630.06
635.67	626.03
636.01	621.76
636.36	617.32
636.70	613.14
637.05	608.87
637.39	604.65
637.73	600.42
638.08	596.42
638.42	592.30
638.77	588.07
639.11	583.57
639.45	579.21
639.80	574.76
640.14	570.74
640.49	566.74
640.83	562.93
641.17	559.38
641.52	555.55
641.86	552.00
642.20	548.90
642.55	545.03
642.89	541.34
643.23	537.93
643.58	534.90
643.92	531.18
644.26	527.88
644.61	524.63
644.95	521.28
645.29	517.77
645.64	514.40
645.98	511.05
646.32	508.22
646.66	505.15
647.01	502.15
647.35	499.36
647.69	496.35
648.04	493.61
648.38	490.73
648.72	487.96
649.06	484.85
649.41	481.62
649.75	478.75
650.09	475.94
650.43	473.03
650.78	469.98
651.12	467.21
651.46	464.29
651.80	461.53
652.14	458.88
652.49	456.53
652.83	454.04
653.17	451.52
653.51	448.86
653.85	446.54
654.20	444.03
654.54	441.39
654.88	438.89
655.22	436.57
655.56	434.02
655.90	431.64
656.25	429.37
656.59	427.19
656.93	425.03
657.27	422.89
657.61	420.53
657.95	418.43
658.29	416.29
658.64	414.24
658.98	411.97
659.32	409.61
659.66	407.35
660.00	405.30
660.34	403.24
660.68	401.29
661.02	399.27
661.36	397.25
661.70	395.35
662.05	393.44
662.39	391.47
662.73	389.69
663.07	388.09
663.41	386.32
663.75	384.39
664.09	382.59
664.43	380.64
664.77	379.03
665.11	377.29
665.45	375.65
665.79	374.04
666.13	372.39
666.47	370.81
666.81	369.20
667.15	367.36
667.49	365.77
667.83	364.37
668.17	362.85
668.51	361.44
668.85	360.00
669.19	358.79
669.53	357.24
669.87	355.76
670.21	354.14
670.55	352.77
670.89	351.65
671.23	350.28
671.57	348.89
671.91	347.50
672.25	346.12
672.58	344.87
672.92	343.33
673.26	342.09
673.60	340.91
673.94	339.76
674.28	338.79
674.62	337.69
674.96	336.39
675.30	335.25
675.64	333.98
675.97	332.81
676.31	331.38
676.65	330.07
676.99	329.06
677.33	327.95
677.67	326.84
678.01	325.48
678.34	324.40
678.68	323.44
679.02	322.34
679.36	321.31
679.70	320.29
680.04	319.39
680.37	318.43
680.71	317.39
681.05	316.52
681.39	315.55
681.73	314.47
682.06	313.46
682.40	312.48
682.74	311.69
683.08	310.96
683.42	310.14
683.75	309.40
684.09	308.42
684.43	307.59
684.77	306.76
685.10	305.97
685.44	305.22
685.78	304.33
686.12	303.64
686.45	302.85
686.79	301.91
687.13	301.20
687.46	300.35
687.80	299.72
688.14	298.84
688.48	298.08
688.81	297.37
689.15	296.79
689.49	296.06
689.82	295.36
690.16	294.43
690.50	293.71
690.83	293.03
691.17	292.24
691.51	291.53
691.84	290.84
692.18	290.11
692.52	289.36
692.85	288.79
693.19	288.25
693.52	287.59
693.86	286.97
694.20	286.27
694.53	285.71
694.87	285.02
695.21	284.35
695.54	283.72
695.88	283.03
696.21	282.18
696.55	281.60
696.88	280.96
697.22	280.38
697.56	279.81
697.89	279.16
698.23	278.72
698.56	278.17
698.90	277.65
699.23	277.11
699.57	276.66
699.90	276.07
700.24	275.43
700.58	274.93
700.91	274.42
701.25	274.40
701.58	274.32
701.92	274.00
702.25	273.58
702.59	273.11
702.92	272.74
703.26	272.53
703.59	272.10
703.93	272.10
704.26	271.77
704.60	271.48
704.93	271.10
705.26	270.62
705.60	270.28
705.93	269.79
706.27	269.55
706.60	269.31
706.94	269.17
707.27	268.71
707.61	268.38
707.94	268.04
708.27	267.26
708.61	266.44
708.94	265.96
709.28	265.60
709.61	265.20
709.94	264.87
710.28	264.41
710.61	264.04
710.95	263.24
711.28	263.15
711.61	262.66
711.95	262.43
712.28	262.10
712.61	261.74
712.95	261.61
713.28	261.45
713.61	260.90
713.95	260.36
714.28	260.12
714.61	259.75
714.95	259.43
715.28	259.03
715.61	258.71
715.95	258.41
716.28	258.03
716.61	257.78
716.95	257.39
717.28	257.08
717.61	256.73
717.94	256.41
718.28	255.75
718.61	255.49
718.94	255.11
719.27	254.84
719.61	254.62
719.94	254.28
720.27	253.80
720.60	253.51
720.94	253.28
721.27	253.07
721.60	252.96
721.93	252.74
722.27	252.68
722.60	252.59
722.93	252.25
723.26	252.09
723.59	251.80
723.93	251.68
724.26	251.54
724.59	251.37
724.92	251.16
725.25	251.10
725.59	250.95
725.92	250.80
726.25	250.56
726.58	250.37
726.91	250.20
727.24	250.00
727.57	249.85
727.91	249.53
728.24	249.32
728.57	249.03
728.90	248.88
729.23	248.56
729.56	248.55
729.89	248.45
730.22	248.26
730.55	248.07
730.89	247.94
731.22	247.70
731.55	247.45
731.88	247.32
732.21	247.04
732.54	246.80
732.87	246.64
733.20	246.50
733.53	246.40
733.86	246.24
734.19	246.04
734.52	245.92
734.85	246.12
735.18	245.95
735.51	245.95
735.84	245.80
736.17	245.79
736.50	245.38
736.83	245.71
737.16	245.57
737.49	245.46
737.82	245.25
738.15	245.17
738.48	245.05
738.81	244.94
739.14	244.78
739.47	244.59
739.80	244.37
740.13	244.27
740.46	243.99
740.79	243.72
741.12	243.60
741.45	243.42
741.78	242.99
742.11	242.87
742.44	242.53
742.77	242.40
743.10	242.12
743.43	241.92
743.75	241.32
744.08	241.76
744.41	241.57
744.74	241.39
745.07	241.20
745.40	241.16
745.73	241.23
746.06	241.07
746.39	241.05
746.71	240.95
747.04	240.79
747.37	240.65
747.70	240.66
748.03	240.59
748.36	240.51
748.68	240.50
749.01	240.27
749.34	240.25
749.67	240.12
750.00	240.10
750.33	240.34
750.65	240.27
750.98	239.59
751.31	239.54
751.64	239.43
751.97	239.53
752.29	239.34
752.62	239.02
752.95	239.01
753.28	238.85
753.60	238.78
753.93	238.85
754.26	238.87
754.59	238.54
754.91	238.41
755.24	238.30
755.57	238.14
755.90	238.08
756.22	237.93
756.55	237.81
756.88	237.63
757.20	237.23
757.53	236.98
757.86	236.85
758.19	236.80
758.51	236.73
758.84	236.38
759.17	236.33
759.49	236.25
759.82	236.31
760.15	236.22
760.47	236.06
760.80	235.75
761.13	235.68
761.45	235.67
761.78	235.51
762.11	235.42
762.43	235.28
762.76	235.13
763.08	235.09
763.41	235.04
763.74	235.04
764.06	234.94
764.39	234.89
764.71	234.82
765.04	234.65
765.37	234.63
765.69	234.54
766.02	234.39
766.34	234.24
766.67	233.97
767.00	233.97
767.32	234.18
767.65	234.36
767.97	234.24
768.30	234.25
768.62	234.21
768.95	234.12
769.27	234.06
769.60	234.10
769.92	233.96
770.25	233.75
770.57	233.55
770.90	233.45
771.22	233.37
771.55	233.23
771.87	233.23
772.20	233.09
772.52	233.52
772.85	234.11
773.17	234.11
773.50	234.01
773.82	233.81
774.15	233.50
774.47	233.15
774.80	232.97
775.12	232.83
775.45	232.78
775.77	232.75
776.09	232.75
776.42	232.71
776.74	232.76
777.07	232.75
777.39	232.68
777.72	232.68
778.04	232.68
778.36	232.67
778.69	232.59
779.01	232.60
779.33	232.10
779.66	231.47
779.98	231.36
780.31	231.30
780.63	231.53
780.95	231.54
781.28	231.56
781.60	231.45
781.92	231.45
782.25	231.43
782.57	231.35
782.89	231.21
783.22	231.09
783.54	230.93
783.86	230.94
784.19	230.92
784.51	231.02
784.83	230.89
785.16	230.78
785.48	230.71
785.80	230.60
786.12	230.63
786.45	230.53
786.77	230.52
787.09	230.50
787.42	230.24
787.74	230.24
788.06	230.15
788.38	230.15
788.71	230.00
789.03	229.96
789.35	229.95
789.67	229.89
789.99	229.93
790.32	229.93
790.64	229.97
790.96	230.31
791.28	230.10
791.61	230.07
791.93	230.16
792.25	230.17
792.57	230.52
792.89	230.41
793.21	230.38
793.54	230.34
793.86	230.25
794.18	230.28
794.50	230.15
794.82	230.18
795.14	230.24
795.47	230.34
795.79	230.29
796.11	230.22
796.43	230.18
796.75	230.20
797.07	230.18
797.39	230.10
797.71	229.72
798.04	229.71
798.36	229.69
798.68	229.64
799.00	229.68
799.32	229.37
799.64	229.34
799.96	229.38
800.28	229.45
800.60	229.39
800.92	229.42
801.24	229.40
801.56	229.41
801.89	229.36
802.21	229.34
802.53	229.31
802.85	229.40
803.17	229.63
803.49	229.43
803.81	229.35
804.13	229.32
804.45	229.30
804.77	229.34
805.09	229.35
805.41	229.25
805.73	229.14
806.05	229.05
806.37	229.10
806.69	229.04
807.01	228.99
807.33	229.02
807.65	228.83
807.97	229.01
808.28	228.91
808.60	228.87
808.92	228.82
809.24	229.04
809.56	228.96
809.88	228.79
810.20	228.86
810.52	228.96
810.84	228.82
811.16	228.76
811.48	228.77
811.80	228.94
812.12	228.97
812.43	228.99
812.75	228.97
813.07	228.90
813.39	228.95
813.71	228.90
814.03	228.95
814.35	228.97
814.67	228.84
814.98	228.80
815.30	228.79
815.62	228.69
815.94	228.40
816.26	228.58
816.58	228.50
816.89	228.51
817.21	228.34
817.53	228.45
817.85	228.48
818.17	228.42
818.48	228.27
818.80	228.36
819.12	228.25
819.44	228.24
819.76	228.16
820.07	228.15
820.39	228.15
820.71	228.13
821.03	228.12
821.34	228.00
821.66	227.99
821.98	227.99
822.30	228.01
822.61	228.27
822.93	227.99
823.25	227.94
823.57	227.95
823.88	228.11
824.20	228.05
824.52	228.14
824.83	228.06
825.15	227.90
825.47	227.81
825.79	227.86
826.10	227.76
826.42	227.74
826.74	227.73
827.05	227.64
827.37	227.64
827.69	227.60
828.00	227.64
828.32	227.70
828.64	227.71
828.95	227.91
829.27	227.83
829.58	227.90
829.90	227.99
830.22	227.92
830.53	227.77
830.85	227.70
831.17	227.57
831.48	227.57
831.80	227.66
832.11	227.60
832.43	227.56
832.75	227.66
833.06	227.98
833.38	227.90
833.69	227.90
834.01	227.88
834.32	227.94
834.64	227.93
834.96	227.98
835.27	227.92
835.59	227.79
835.90	227.65
836.22	227.63
836.53	227.56
836.85	227.52
837.16	228.06
837.48	228.08
837.79	228.19
838.11	228.23
838.42	228.31
838.74	228.47
839.05	228.46
839.37	228.39
839.68	228.14
840.00	228.14
840.31	228.27
840.63	228.21
840.94	228.14
841.26	228.05
841.57	227.95
841.88	228.05
842.20	227.96
842.51	227.94
842.83	227.94
843.14	228.35
843.46	228.38
843.77	228.05
844.08	228.01
844.40	227.81
844.71	227.80
845.03	227.67
845.34	227.54
845.65	227.51
845.97	227.46
846.28	227.45
846.60	227.46
846.91	227.37
847.22	227.39
847.54	227.45
847.85	227.53
848.16	227.57
848.48	227.44
848.79	227.65
849.10	227.67
849.42	227.66
849.73	227.22
850.04	227.18
850.36	227.04
850.67	227.10
850.98	227.18
851.30	227.25
851.61	227.23
851.92	227.25
852.23	227.41
852.55	227.55
852.86	227.57
853.17	227.61
853.49	227.71
853.80	227.85
854.11	227.89
854.42	227.94
854.74	227.82
855.05	227.83
855.36	227.60
855.67	227.70
855.99	227.68
856.30	228.17
856.61	228.17
856.92	228.18
857.23	228.21
857.55	228.13
857.86	228.05
858.17	228.14
858.48	228.01
858.79	227.88
859.11	227.86
859.42	227.78
859.73	227.69
860.04	227.59
860.35	227.34
860.66	227.19
860.98	227.12
861.29	227.24
861.60	227.17
861.91	227.23
862.22	227.08
862.53	227.02
862.84	226.53
863.16	226.66
863.47	226.58
863.78	226.51
864.09	226.61
864.40	226.60
864.71	226.60
865.02	226.69
865.33	226.64
865.64	226.50
865.95	226.57
866.27	226.94
866.58	226.93
866.89	227.04
867.20	227.09
867.51	227.09
867.82	227.06
868.13	227.24
868.44	227.19
868.75	227.30
869.06	227.35
869.37	227.44
869.68	227.33
869.99	227.44
870.30	227.49
870.61	227.50
870.92	227.49
871.23	227.46
871.54	227.50
871.85	227.67
872.16	227.77
872.47	227.73
872.78	227.41
873.09	227.42
873.40	227.44
873.71	227.43
874.02	227.40
874.33	227.37
874.64	227.25
874.95	227.35
875.26	227.24
875.56	227.24
875.87	227.14
876.18	227.16
876.49	227.57
876.80	227.46
877.11	227.37
877.42	227.38
877.73	227.38
878.04	227.28
878.35	227.22
878.66	227.27
878.96	227.16
879.27	227.11
879.58	227.15
879.89	227.08
880.20	227.20
880.51	227.23
880.82	227.22
881.12	227.24
881.43	227.10
881.74	227.00
882.05	227.00
882.36	227.01
882.67	226.95
882.97	226.46
883.28	226.45
883.59	226.42
883.90	226.47
884.21	226.53
884.51	226.51
884.82	226.43
885.13	226.37
885.44	226.41
885.74	226.39
886.05	226.35
886.36	226.36
886.67	226.25
886.98	226.44
887.28	226.51
887.59	226.48
887.90	226.54
888.20	226.56
888.51	226.66
888.82	226.65
889.13	226.74
889.43	227.17
889.74	227.19
890.05	227.26
890.35	227.16
890.66	227.03
890.97	226.96
891.28	226.96
891.58	226.96
891.89	226.96
892.20	226.91
892.50	226.87
892.81	226.81
893.12	226.73
893.42	226.59
893.73	226.57
894.04	226.55
894.34	226.61
894.65	226.67
894.95	226.59
895.26	226.57
895.57	226.79
895.87	226.27
896.18	226.41
896.48	226.39
896.79	226.35
897.10	226.49
897.40	226.63
897.71	226.70
898.01	226.72
898.32	226.74
898.63	226.70
898.93	226.74
899.24	226.76
899.54	226.77
899.85	226.74
900.15	226.73
900.46	226.77
900.76	226.74
901.07	226.65
901.38	226.58
901.68	226.69
901.99	226.41
902.29	226.44
902.60	226.28
902.90	226.24
903.21	226.29
903.51	226.19
903.82	226.25
904.12	226.25
904.43	226.23
904.73	226.28
905.03	226.33
905.34	226.75
905.64	226.75
905.95	226.80
906.25	226.73
906.56	226.74
906.86	226.79
907.17	226.76
907.47	226.88
907.77	226.87
908.08	226.74
908.38	226.75
908.69	226.85
908.99	227.00
909.30	227.05
909.60	227.11
909.90	227.16
910.21	226.97
910.51	226.90
910.81	226.90
911.12	226.89
911.42	226.92
911.73	226.39
912.03	226.43
912.33	226.48
912.64	226.55
912.94	226.42
913.24	226.27
913.55	226.25
913.85	226.21
914.15	226.39
914.46	226.50
914.76	226.48
915.06	226.49
915.37	226.46
915.67	226.47
915.97	226.36
916.27	226.19
916.58	226.27
916.88	226.25
917.18	226.18
917.49	226.57
917.79	226.61
918.09	226.74
918.39	226.85
918.70	226.83
919.00	226.80
919.30	227.13
919.60	227.12
919.91	227.06
920.21	227.02
920.51	226.93
920.81	226.90
921.12	226.96
921.42	226.89
921.72	226.86
922.02	226.87
922.32	227.00
922.63	227.10
922.93	227.30
923.23	227.40
923.53	227.38
923.83	227.01
924.13	227.08
924.44	227.05
924.74	227.13
925.04	227.18
925.34	227.18
925.64	226.90
925.94	226.93
926.24	227.21
926.55	227.18
926.85	227.25
927.15	227.27
927.45	227.26
927.75	227.23
928.05	227.28
928.35	227.23
928.65	227.35
928.95	227.37
929.26	227.18
929.56	227.15
929.86	227.23
930.16	227.18
930.46	227.02
930.76	227.07
931.06	226.88
931.36	226.77
931.66	226.82
931.96	226.90
932.26	226.90
932.56	226.66
932.86	226.74
933.16	226.68
933.46	226.59
933.76	226.53
934.06	226.64
934.36	226.74
934.66	226.72
934.96	226.57
935.26	226.64
935.56	226.69
935.86	226.65
936.16	226.50
936.46	226.45
936.76	226.48
937.06	226.43
937.36	226.47
937.66	226.57
937.96	226.54
938.26	226.45
938.56	226.42
938.86	226.42
939.16	226.53
939.46	226.58
939.76	226.54
940.06	226.53
940.35	226.42
940.65	226.21
940.95	226.23
941.25	226.11
941.55	226.03
941.85	226.04
942.15	226.09
942.45	226.32
942.75	226.34
943.04	226.32
943.34	226.39
943.64	226.34
943.94	226.19
944.24	226.16
944.54	226.20
944.84	226.23
945.13	226.21
945.43	226.11
945.73	226.00
946.03	226.06
946.33	225.99
946.62	225.95
946.92	225.96
947.22	225.98
947.52	226.10
947.82	226.18
948.11	226.12
948.41	226.07
948.71	225.86
949.01	225.87
949.31	225.90
949.60	225.80
949.90	225.83
950.20	225.88
950.50	225.87
950.79	225.84
951.09	225.90
951.39	225.90
951.69	225.80
951.98	225.91
952.28	225.92
952.58	225.94
952.87	225.98
953.17	225.99
953.47	225.90
953.76	225.87
954.06	225.78
954.36	225.76
954.66	225.76
954.95	225.95
955.25	226.00
955.55	225.99
955.84	225.99
956.14	226.02
956.44	225.98
956.73	225.92
957.03	225.94
957.32	225.95
957.62	226.02
957.92	226.14
958.21	226.10
958.51	226.55
958.81	226.64
959.10	226.73
959.40	226.88
959.69	226.92
959.99	226.93
960.29	226.99
960.58	226.92
960.88	227.09
961.17	227.05
961.47	227.13
961.76	227.16
962.06	227.21
962.36	227.14
962.65	227.22
962.95	227.27
963.24	227.25
963.54	227.20
963.83	227.18
964.13	227.16
964.42	227.08
964.72	226.77
965.01	226.83
965.31	226.72
965.60	226.55
965.90	226.89
966.19	226.80
966.49	226.78
966.78	226.81
967.08	226.75
967.37	226.67
967.67	226.55
967.96	226.64
968.26	226.64
968.55	226.75
968.85	226.69
969.14	226.62
969.43	226.65
969.73	226.68
970.02	226.60
970.32	226.55
970.61	226.51
970.91	226.35
971.20	226.19
971.49	226.16
971.79	226.32
972.08	225.97
972.38	226.08
972.67	226.09
972.96	226.12
973.26	225.99
973.55	226.12
973.85	226.11
974.14	226.02
974.43	226.03
974.73	225.89
975.02	225.93
975.31	226.00
975.61	225.99
975.90	225.95
976.19	225.95
976.49	226.06
976.78	226.22
977.07	226.23
977.37	226.29
977.66	226.36
977.95	226.24
978.24	226.33
978.54	226.40
978.83	226.26
979.12	226.27
979.42	226.33
979.71	226.32
980.00	226.34
980.29	226.38
980.59	226.32
980.88	226.51
981.17	226.50
981.46	226.51
981.76	226.45
982.05	226.65
982.34	226.70
982.63	226.63
982.93	226.55
983.22	226.71
983.51	226.72
983.80	226.87
984.09	226.89
984.39	226.82
984.68	226.71
984.97	226.82
985.26	226.80
985.55	226.88
985.85	226.73
986.14	226.80
986.43	226.83
986.72	226.87
987.01	226.72
987.30	226.75
987.59	226.78
987.89	226.91
988.18	226.65
988.47	226.66
988.76	226.61
989.05	226.56
989.34	226.44
989.63	226.53
989.92	226.37
990.22	226.35
990.51	226.31
990.80	226.26
991.09	226.29
991.38	226.31
991.67	226.20
991.96	226.21
992.25	226.23
992.54	226.10
992.83	226.12
993.12	226.08
993.41	226.11
993.70	226.25
993.99	226.33
994.28	226.43
994.58	226.53
994.87	226.48
995.16	226.49
995.45	226.43
995.74	226.31
996.03	226.40
996.32	226.48
996.61	226.63
996.90	226.62
997.19	226.63
997.48	226.63
997.77	226.65
998.06	226.63
998.34	226.58
998.63	226.62
998.92	226.61
999.21	226.71
999.50	226.64
999.79	226.49
1000.08	226.42
1000.37	226.44
1000.66	226.34
1000.95	226.42
1001.24	226.50
1001.53	226.61
1001.82	226.59
1002.11	226.44
1002.40	226.47
1002.68	226.57
1002.97	226.92
1003.26	226.78
1003.55	226.65
1003.84	226.66
1004.13	226.85
1004.42	226.81
1004.71	226.86
1004.99	226.87
1005.28	226.99
1005.57	227.02
1005.86	226.95
1006.15	226.88
1006.44	226.75
1006.72	226.77
1007.01	226.73
1007.30	226.65
1007.59	226.58
1007.88	226.60
1008.17	226.70
1008.45	226.53
1008.74	226.30
1009.03	226.06
1009.32	226.11
1009.60	226.20
1009.89	226.16
1010.18	225.96
1010.47	225.98
1010.76	225.92
1011.04	225.87
1011.33	225.86
1011.62	225.90
1011.91	225.95
1012.19	226.02
1012.48	226.10
1012.77	226.13
1013.05	226.37
1013.34	226.41
1013.63	226.35
1013.92	226.35
1014.20	226.26
1014.49	226.33
1014.78	226.35
1015.06	226.23
1015.35	226.26
1015.64	226.32
1015.92	226.37
1016.21	226.35
1016.50	226.33
1016.78	226.39
1017.07	226.40
1017.36	226.25
1017.64	226.20
1017.93	226.18
1018.22	226.11
1018.50	226.04
1018.79	226.04
1019.08	225.79
1019.36	225.80
1019.65	225.78
1019.93	225.94
1020.22	226.10
1020.51	226.31
1020.79	226.29
1021.08	225.10
1021.36	224.65
1021.65	226.70
1021.94	225.70
1022.22	226.60
1022.51	224.85
1022.79	228.30
1023.08	227.95
1023.36	231.00
1023.65	225.05
>>>>>End Processed Spectral Data<<<<<
