SpectraSuite Data File
++++++++++++++++++++++++++++++++++++
Date: Wed Sep 04 18:01:03 EDT 2013
User: lab3
Dark Spectrum Present: Yes
Reference Spectrum Present: No
Number of Sampled Component Spectra: 1
Spectrometers: USB2E7196
Integration Time (usec): 170000 (USB2E7196)
Spectra Averaged: 20 (USB2E7196)
Boxcar Smoothing: 10 (USB2E7196)
Correct for Electrical Dark: No (USB2E7196)
Strobe/Lamp Enabled: No (USB2E7196)
Correct for Detector Non-linearity: No (USB2E7196)
Correct for Stray Light: No (USB2E7196)
Number of Pixels in Processed Spectrum: 2048
>>>>>Begin Processed Spectral Data<<<<<
339.09	0.00
339.48	213.70
339.86	215.20
340.24	215.70
340.63	218.20
341.01	226.15
341.39	220.15
341.78	221.90
342.16	225.45
342.54	223.25
342.93	212.55
343.31	223.27
343.69	223.85
344.07	224.29
344.46	224.75
344.84	225.09
345.22	225.04
345.60	225.35
345.99	225.55
346.37	225.61
346.75	225.75
347.13	225.78
347.52	225.93
347.90	226.18
348.28	226.22
348.66	226.32
349.05	226.21
349.43	226.25
349.81	226.38
350.19	226.51
350.57	226.58
350.96	226.63
351.34	226.73
351.72	226.80
352.10	226.88
352.48	226.96
352.87	227.07
353.25	227.11
353.63	227.19
354.01	227.25
354.39	227.27
354.77	227.35
355.15	227.59
355.54	227.64
355.92	227.55
356.30	227.55
356.68	227.91
357.06	228.04
357.44	228.09
357.82	228.07
358.20	228.45
358.58	228.51
358.97	228.61
359.35	228.75
359.73	228.88
360.11	229.02
360.49	229.10
360.87	229.16
361.25	229.30
361.63	229.49
362.01	229.59
362.39	229.64
362.77	229.68
363.15	229.68
363.53	229.67
363.91	229.73
364.29	229.83
364.67	229.45
365.05	229.47
365.43	229.57
365.81	229.73
366.19	229.61
366.57	229.84
366.95	229.81
367.33	229.72
367.71	229.73
368.09	229.76
368.47	229.76
368.85	229.72
369.23	229.82
369.61	229.66
369.99	229.73
370.37	229.76
370.75	229.99
371.13	229.89
371.51	229.83
371.89	229.88
372.27	229.83
372.65	229.89
373.03	229.79
373.41	229.58
373.78	229.43
374.16	229.10
374.54	228.86
374.92	228.77
375.30	228.71
375.68	228.53
376.06	228.53
376.44	228.36
376.82	228.34
377.19	228.22
377.57	228.09
377.95	227.86
378.33	227.78
378.71	227.40
379.09	227.37
379.47	227.24
379.84	227.09
380.22	227.00
380.60	226.80
380.98	226.75
381.36	226.74
381.73	226.59
382.11	226.62
382.49	226.58
382.87	226.45
383.25	226.37
383.62	226.85
384.00	226.60
384.38	226.56
384.76	226.62
385.13	226.77
385.51	226.72
385.89	226.65
386.27	226.58
386.64	226.59
387.02	226.50
387.40	226.46
387.78	226.46
388.15	226.41
388.53	226.36
388.91	226.29
389.29	226.21
389.66	226.31
390.04	226.28
390.42	226.34
390.79	226.42
391.17	226.43
391.55	225.88
391.92	225.96
392.30	226.04
392.68	225.91
393.05	225.90
393.43	226.00
393.81	225.98
394.18	225.94
394.56	226.00
394.94	226.11
395.31	226.15
395.69	226.29
396.06	226.41
396.44	226.51
396.82	226.58
397.19	226.95
397.57	226.90
397.95	227.09
398.32	227.00
398.70	227.05
399.07	227.28
399.45	227.38
399.82	227.49
400.20	227.56
400.58	227.63
400.95	227.46
401.33	227.61
401.70	228.13
402.08	228.30
402.45	228.51
402.83	228.82
403.20	229.00
403.58	229.12
403.95	229.40
404.33	229.63
404.71	229.89
405.08	230.28
405.46	230.58
405.83	230.76
406.21	231.07
406.58	231.41
406.96	231.60
407.33	231.91
407.70	232.38
408.08	233.13
408.45	233.62
408.83	234.20
409.20	234.60
409.58	234.77
409.95	235.37
410.33	235.91
410.70	236.20
411.08	236.83
411.45	237.41
411.82	237.95
412.20	238.80
412.57	239.73
412.95	240.12
413.32	241.01
413.69	241.85
414.07	242.75
414.44	243.72
414.82	244.72
415.19	245.99
415.56	247.10
415.94	248.08
416.31	249.51
416.68	250.90
417.06	252.55
417.43	254.20
417.81	255.97
418.18	257.70
418.55	259.77
418.93	261.80
419.30	263.98
419.67	266.30
420.04	268.47
420.42	270.82
420.79	273.94
421.16	276.73
421.54	279.86
421.91	282.90
422.28	285.93
422.66	289.18
423.03	292.63
423.40	295.97
423.77	299.58
424.15	303.12
424.52	306.93
424.89	311.13
425.26	315.06
425.64	318.73
426.01	322.94
426.38	327.39
426.75	331.93
427.13	336.51
427.50	341.22
427.87	346.14
428.24	351.18
428.61	355.59
428.99	360.94
429.36	366.34
429.73	371.86
430.10	377.51
430.47	383.22
430.85	388.85
431.22	395.04
431.59	401.82
431.96	408.15
432.33	415.05
432.70	421.61
433.08	429.52
433.45	437.14
433.82	444.60
434.19	452.72
434.56	460.78
434.93	468.38
435.30	476.11
435.68	484.92
436.05	493.40
436.42	501.79
436.79	509.48
437.16	517.95
437.53	526.90
437.90	535.62
438.27	544.16
438.64	553.10
439.01	561.45
439.38	568.68
439.75	575.97
440.13	584.16
440.50	591.78
440.87	597.92
441.24	604.25
441.61	611.30
441.98	616.42
442.35	622.35
442.72	628.52
443.09	634.37
443.46	637.60
443.83	639.76
444.20	641.92
444.57	644.65
444.94	645.78
445.31	646.77
445.68	648.19
446.05	648.43
446.42	647.13
446.79	645.76
447.16	644.17
447.53	642.87
447.90	639.13
448.27	635.40
448.64	630.46
449.01	626.74
449.37	620.59
449.74	614.47
450.11	607.60
450.48	599.82
450.85	591.76
451.22	584.95
451.59	578.37
451.96	571.89
452.33	563.71
452.70	556.24
453.07	547.47
453.43	538.17
453.80	529.87
454.17	521.83
454.54	514.01
454.91	505.81
455.28	497.74
455.65	490.17
456.02	483.37
456.38	476.99
456.75	469.21
457.12	462.60
457.49	456.21
457.86	449.78
458.23	444.60
458.59	439.01
458.96	433.20
459.33	428.11
459.70	423.03
460.07	418.87
460.43	414.11
460.80	409.87
461.17	406.24
461.54	402.16
461.91	398.37
462.27	394.60
462.64	391.28
463.01	387.65
463.38	384.39
463.74	380.33
464.11	377.33
464.48	374.72
464.85	371.76
465.21	369.75
465.58	367.35
465.95	364.46
466.32	362.12
466.68	359.91
467.05	357.66
467.42	355.40
467.78	353.06
468.15	350.92
468.52	349.36
468.88	347.10
469.25	345.21
469.62	343.77
469.98	342.03
470.35	340.45
470.72	339.06
471.08	337.40
471.45	336.14
471.82	334.88
472.18	333.39
472.55	332.47
472.92	331.07
473.28	329.96
473.65	328.88
474.02	327.78
474.38	326.92
474.75	326.24
475.11	325.38
475.48	324.74
475.85	324.11
476.21	323.44
476.58	323.02
476.94	322.67
477.31	322.08
477.67	321.71
478.04	321.33
478.41	321.07
478.77	321.23
479.14	320.93
479.50	320.70
479.87	320.65
480.23	320.59
480.60	320.59
480.96	320.63
481.33	321.06
481.69	321.31
482.06	321.60
482.42	321.74
482.79	322.06
483.15	322.54
483.52	323.20
483.88	323.67
484.25	324.15
484.61	324.69
484.98	325.35
485.34	326.29
485.71	327.44
486.07	328.31
486.44	328.94
486.80	330.11
487.17	331.33
487.53	332.83
487.90	334.24
488.26	335.89
488.62	337.64
488.99	339.08
489.35	340.86
489.72	342.66
490.08	344.61
490.44	346.59
490.81	348.89
491.17	351.04
491.54	353.45
491.90	356.04
492.26	358.76
492.63	361.64
492.99	364.52
493.36	367.54
493.72	370.92
494.08	374.35
494.45	377.99
494.81	381.93
495.17	385.81
495.54	389.99
495.90	394.29
496.26	398.75
496.63	403.49
496.99	408.32
497.35	413.38
497.72	418.71
498.08	424.40
498.44	430.03
498.80	436.20
499.17	442.33
499.53	448.51
499.89	455.32
500.26	462.01
500.62	469.20
500.98	476.52
501.34	484.09
501.71	492.02
502.07	499.95
502.43	508.00
502.79	516.32
503.16	525.06
503.52	534.19
503.88	543.35
504.24	552.91
504.60	562.97
504.97	573.26
505.33	583.87
505.69	594.90
506.05	605.97
506.41	617.20
506.78	628.84
507.14	640.92
507.50	653.15
507.86	665.90
508.22	678.81
508.59	692.07
508.95	705.68
509.31	719.74
509.67	734.18
510.03	748.33
510.39	763.21
510.75	778.26
511.12	793.33
511.48	809.02
511.84	824.89
512.20	840.73
512.56	857.14
512.92	873.90
513.28	890.69
513.64	907.87
514.00	925.38
514.37	943.12
514.73	961.32
515.09	979.70
515.45	998.11
515.81	1016.52
516.17	1035.25
516.53	1053.83
516.89	1072.50
517.25	1091.81
517.61	1112.26
517.97	1132.75
518.33	1152.95
518.69	1173.54
519.05	1194.17
519.41	1214.94
519.77	1236.26
520.13	1257.00
520.49	1277.77
520.85	1300.16
521.21	1321.54
521.57	1343.10
521.93	1364.01
522.29	1385.45
522.65	1406.21
523.01	1427.18
523.37	1447.81
523.73	1469.09
524.09	1489.81
524.45	1510.80
524.81	1531.86
525.17	1552.62
525.53	1573.28
525.89	1594.20
526.25	1614.69
526.61	1635.18
526.97	1656.36
527.33	1677.50
527.68	1699.49
528.04	1720.70
528.40	1740.30
528.76	1761.45
529.12	1781.81
529.48	1802.80
529.84	1822.82
530.20	1844.13
530.56	1865.18
530.91	1886.53
531.27	1906.82
531.63	1927.66
531.99	1948.12
532.35	1968.20
532.71	1988.40
533.07	2008.85
533.42	2028.75
533.78	2048.92
534.14	2068.66
534.50	2087.91
534.86	2107.22
535.21	2124.70
535.57	2143.47
535.93	2161.56
536.29	2179.61
536.65	2197.68
537.00	2215.59
537.36	2233.45
537.72	2250.19
538.08	2267.52
538.44	2284.05
538.79	2300.66
539.15	2317.27
539.51	2333.15
539.87	2348.52
540.22	2362.85
540.58	2377.36
540.94	2391.09
541.29	2403.64
541.65	2416.78
542.01	2429.16
542.37	2439.79
542.72	2450.87
543.08	2461.62
543.44	2473.18
543.79	2483.23
544.15	2493.50
544.51	2503.67
544.87	2513.27
545.22	2521.78
545.58	2529.34
545.94	2536.91
546.29	2543.71
546.65	2550.20
547.01	2556.06
547.36	2561.65
547.72	2567.15
548.07	2571.12
548.43	2576.09
548.79	2581.25
549.14	2585.30
549.50	2589.53
549.86	2593.88
550.21	2598.12
550.57	2601.30
550.92	2603.04
551.28	2604.32
551.64	2606.59
551.99	2608.69
552.35	2610.41
552.70	2612.50
553.06	2614.13
553.41	2615.26
553.77	2616.87
554.13	2618.53
554.48	2620.42
554.84	2621.99
555.19	2623.36
555.55	2624.90
555.90	2624.27
556.26	2623.73
556.61	2622.32
556.97	2619.97
557.32	2619.34
557.68	2618.00
558.03	2616.64
558.39	2615.41
558.74	2614.80
559.10	2611.70
559.45	2608.02
559.81	2603.62
560.16	2598.85
560.52	2594.06
560.87	2589.68
561.23	2584.22
561.58	2578.11
561.94	2571.25
562.29	2563.78
562.64	2556.85
563.00	2548.95
563.35	2542.74
563.71	2535.80
564.06	2529.59
564.42	2523.26
564.77	2516.43
565.12	2508.85
565.48	2501.46
565.83	2493.35
566.19	2485.20
566.54	2477.45
566.89	2469.38
567.25	2461.66
567.60	2454.09
567.96	2446.67
568.31	2438.86
568.66	2430.41
569.02	2421.77
569.37	2413.53
569.72	2406.14
570.08	2396.49
570.43	2386.90
570.78	2377.85
571.14	2368.69
571.49	2358.37
571.84	2348.33
572.20	2337.15
572.55	2327.12
572.90	2315.91
573.26	2305.77
573.61	2294.42
573.96	2283.15
574.31	2270.97
574.67	2259.13
575.02	2246.57
575.37	2233.73
575.72	2220.17
576.08	2208.14
576.43	2195.25
576.78	2182.05
577.13	2167.96
577.49	2155.46
577.84	2143.43
578.19	2130.83
578.54	2117.90
578.90	2106.00
579.25	2093.86
579.60	2081.40
579.95	2068.58
580.30	2055.26
580.66	2041.43
581.01	2028.05
581.36	2013.83
581.71	2000.93
582.06	1987.87
582.42	1975.39
582.77	1963.01
583.12	1951.28
583.47	1938.80
583.82	1926.53
584.17	1914.33
584.53	1902.52
584.88	1889.45
585.23	1876.46
585.58	1862.26
585.93	1849.16
586.28	1835.73
586.63	1821.54
586.98	1807.02
587.34	1793.49
587.69	1780.43
588.04	1767.87
588.39	1755.78
588.74	1743.64
589.09	1731.51
589.44	1718.67
589.79	1706.25
590.14	1693.94
590.49	1681.53
590.84	1669.30
591.19	1657.47
591.54	1645.05
591.89	1632.52
592.25	1622.30
592.60	1610.73
592.95	1599.28
593.30	1587.10
593.65	1575.01
594.00	1563.19
594.35	1553.48
594.70	1541.54
595.05	1530.17
595.40	1517.97
595.75	1505.74
596.10	1494.60
596.45	1483.05
596.80	1472.18
597.15	1460.80
597.50	1449.17
597.85	1437.72
598.19	1425.77
598.54	1414.08
598.89	1402.92
599.24	1392.43
599.59	1380.71
599.94	1369.76
600.29	1359.39
600.64	1348.92
600.99	1338.10
601.34	1328.72
601.69	1317.56
602.04	1307.72
602.39	1297.93
602.74	1289.09
603.08	1279.70
603.43	1270.43
603.78	1260.71
604.13	1251.03
604.48	1241.34
604.83	1231.54
605.18	1221.98
605.53	1212.42
605.87	1203.18
606.22	1194.63
606.57	1185.50
606.92	1176.04
607.27	1166.88
607.62	1157.92
607.96	1149.28
608.31	1141.33
608.66	1132.53
609.01	1123.92
609.36	1115.31
609.70	1106.66
610.05	1097.66
610.40	1089.13
610.75	1080.09
611.10	1071.71
611.44	1063.10
611.79	1054.72
612.14	1046.81
612.49	1038.60
612.83	1031.16
613.18	1023.32
613.53	1015.60
613.88	1007.40
614.22	999.54
614.57	991.76
614.92	984.02
615.27	976.62
615.61	968.73
615.96	961.13
616.31	953.50
616.65	946.25
617.00	938.78
617.35	931.43
617.70	924.30
618.04	917.17
618.39	910.17
618.74	903.65
619.08	896.71
619.43	889.58
619.78	882.57
620.12	875.39
620.47	868.49
620.82	861.15
621.16	854.46
621.51	848.01
621.85	841.55
622.20	834.77
622.55	827.85
622.89	821.25
623.24	814.78
623.59	808.35
623.93	802.05
624.28	795.91
624.62	790.27
624.97	784.33
625.32	778.55
625.66	772.42
626.01	766.28
626.35	760.75
626.70	755.05
627.04	749.84
627.39	744.23
627.73	738.88
628.08	733.66
628.43	728.09
628.77	722.78
629.12	717.52
629.46	712.68
629.81	708.00
630.15	703.32
630.50	698.32
630.84	693.50
631.19	688.56
631.53	683.91
631.88	678.56
632.22	673.65
632.57	669.09
632.91	664.53
633.26	660.09
633.60	655.32
633.95	650.69
634.29	645.72
634.64	641.23
634.98	636.40
635.32	631.92
635.67	627.98
636.01	623.69
636.36	619.25
636.70	615.13
637.05	610.91
637.39	606.55
637.73	602.49
638.08	598.43
638.42	594.20
638.77	589.75
639.11	585.40
639.45	580.97
639.80	576.60
640.14	572.55
640.49	568.43
640.83	564.68
641.17	560.87
641.52	557.15
641.86	553.55
642.20	550.30
642.55	546.53
642.89	542.78
643.23	539.22
643.58	536.06
643.92	532.44
644.26	528.92
644.61	525.70
644.95	522.33
645.29	518.80
645.64	515.75
645.98	512.76
646.32	509.90
646.66	506.94
647.01	503.90
647.35	501.02
647.69	498.08
648.04	495.21
648.38	492.49
648.72	489.50
649.06	486.48
649.41	483.40
649.75	480.61
650.09	477.82
650.43	474.92
650.78	471.84
651.12	469.05
651.46	466.23
651.80	463.57
652.14	460.83
652.49	458.31
652.83	455.59
653.17	453.00
653.51	450.31
653.85	447.78
654.20	445.26
654.54	442.55
654.88	440.14
655.22	437.89
655.56	435.36
655.90	433.00
656.25	430.70
656.59	428.36
656.93	426.13
657.27	423.89
657.61	421.37
657.95	419.29
658.29	417.07
658.64	414.93
658.98	412.56
659.32	410.29
659.66	408.20
660.00	406.00
660.34	403.85
660.68	401.75
661.02	399.75
661.36	397.76
661.70	395.79
662.05	393.69
662.39	391.58
662.73	389.86
663.07	388.21
663.41	386.31
663.75	384.51
664.09	382.64
664.43	380.62
664.77	379.15
665.11	377.31
665.45	375.53
665.79	373.89
666.13	372.24
666.47	370.60
666.81	368.97
667.15	367.43
667.49	365.96
667.83	364.62
668.17	363.00
668.51	361.47
668.85	360.29
669.19	359.24
669.53	357.78
669.87	356.12
670.21	354.59
670.55	353.17
670.89	352.00
671.23	350.55
671.57	349.23
671.91	347.77
672.25	346.45
672.58	345.35
672.92	343.92
673.26	342.72
673.60	341.50
673.94	340.23
674.28	339.05
674.62	337.87
674.96	336.54
675.30	335.49
675.64	334.28
675.97	332.87
676.31	331.35
676.65	330.02
676.99	329.07
677.33	327.92
677.67	326.88
678.01	325.54
678.34	324.50
678.68	323.57
679.02	322.50
679.36	321.44
679.70	320.28
680.04	319.37
680.37	318.30
680.71	317.30
681.05	316.42
681.39	315.47
681.73	314.46
682.06	313.59
682.40	312.64
682.74	311.81
683.08	311.15
683.42	310.17
683.75	309.50
684.09	308.62
684.43	307.77
684.77	306.95
685.10	306.22
685.44	305.40
685.78	304.55
686.12	303.81
686.45	303.04
686.79	302.19
687.13	301.50
687.46	300.70
687.80	300.02
688.14	299.20
688.48	298.39
688.81	297.65
689.15	297.00
689.49	296.29
689.82	295.64
690.16	294.59
690.50	294.04
690.83	293.31
691.17	292.53
691.51	291.88
691.84	291.22
692.18	290.44
692.52	289.80
692.85	289.18
693.19	288.68
693.52	288.14
693.86	287.55
694.20	286.94
694.53	286.41
694.87	285.80
695.21	285.12
695.54	284.60
695.88	283.93
696.21	283.16
696.55	282.58
696.88	281.92
697.22	281.45
697.56	281.00
697.89	280.34
698.23	279.92
698.56	279.32
698.90	278.83
699.23	278.33
699.57	277.83
699.90	277.23
700.24	276.63
700.58	276.12
700.91	275.67
701.25	275.51
701.58	275.29
701.92	274.96
702.25	274.64
702.59	274.17
702.92	273.75
703.26	273.32
703.59	272.84
703.93	272.78
704.26	272.45
704.60	271.95
704.93	271.55
705.26	271.08
705.60	270.74
705.93	270.22
706.27	269.98
706.60	269.67
706.94	269.59
707.27	269.12
707.61	268.71
707.94	268.33
708.27	267.58
708.61	266.91
708.94	266.39
709.28	265.96
709.61	265.54
709.94	265.22
710.28	264.88
710.61	264.50
710.95	263.77
711.28	263.63
711.61	263.17
711.95	262.87
712.28	262.40
712.61	262.01
712.95	261.94
713.28	261.76
713.61	261.34
713.95	260.80
714.28	260.49
714.61	260.12
714.95	259.77
715.28	259.37
715.61	259.00
715.95	258.69
716.28	258.36
716.61	257.96
716.95	257.55
717.28	257.21
717.61	256.98
717.94	256.70
718.28	256.06
718.61	255.83
718.94	255.49
719.27	255.23
719.61	255.00
719.94	254.64
720.27	254.10
720.60	253.79
720.94	253.51
721.27	253.33
721.60	253.15
721.93	252.89
722.27	252.83
722.60	252.72
722.93	252.47
723.26	252.23
723.59	252.08
723.93	251.96
724.26	251.73
724.59	251.47
724.92	251.20
725.25	251.14
725.59	250.90
725.92	250.79
726.25	250.54
726.58	250.37
726.91	250.18
727.24	250.02
727.57	249.90
727.91	249.65
728.24	249.51
728.57	249.20
728.90	249.08
729.23	248.72
729.56	248.64
729.89	248.47
730.22	248.29
730.55	248.11
730.89	247.95
731.22	247.78
731.55	247.56
731.88	247.40
732.21	247.11
732.54	246.96
732.87	246.79
733.20	246.68
733.53	246.54
733.86	246.35
734.19	246.13
734.52	246.05
734.85	246.23
735.18	245.98
735.51	246.10
735.84	245.98
736.17	246.04
736.50	245.71
736.83	246.14
737.16	246.02
737.49	245.91
737.82	245.81
738.15	245.67
738.48	245.54
738.81	245.51
739.14	245.37
739.47	245.19
739.80	244.98
740.13	244.87
740.46	244.66
740.79	244.40
741.12	244.25
741.45	243.95
741.78	243.59
742.11	243.65
742.44	243.32
742.77	243.30
743.10	243.02
743.43	242.90
743.75	242.14
744.08	242.57
744.41	242.41
744.74	242.13
745.07	241.99
745.40	241.89
745.73	241.87
746.06	241.80
746.39	241.69
746.71	241.59
747.04	241.44
747.37	241.30
747.70	241.32
748.03	241.25
748.36	241.24
748.68	241.15
749.01	240.80
749.34	240.71
749.67	240.52
750.00	240.47
750.33	240.68
750.65	240.70
750.98	239.98
751.31	239.89
751.64	239.86
751.97	240.02
752.29	239.94
752.62	239.60
752.95	239.36
753.28	239.20
753.60	238.98
753.93	238.98
754.26	238.91
754.59	238.61
754.91	238.36
755.24	238.16
755.57	237.95
755.90	237.87
756.22	237.68
756.55	237.46
756.88	237.18
757.20	236.76
757.53	236.48
757.86	236.40
758.19	236.27
758.51	236.12
758.84	235.69
759.17	235.54
759.49	235.44
759.82	235.61
760.15	235.59
760.47	235.47
760.80	235.17
761.13	235.06
761.45	234.97
761.78	234.96
762.11	234.87
762.43	234.75
762.76	234.68
763.08	234.70
763.41	234.73
763.74	234.73
764.06	234.57
764.39	234.53
764.71	234.44
765.04	234.28
765.37	234.25
765.69	234.26
766.02	234.04
766.34	233.86
766.67	233.61
767.00	233.60
767.32	233.82
767.65	234.07
767.97	233.93
768.30	233.89
768.62	233.79
768.95	233.70
769.27	233.67
769.60	233.61
769.92	233.43
770.25	233.21
770.57	233.05
770.90	233.02
771.22	232.87
771.55	232.85
771.87	232.80
772.20	232.66
772.52	233.01
772.85	233.64
773.17	233.64
773.50	233.52
773.82	233.35
774.15	233.09
774.47	232.79
774.80	232.77
775.12	232.63
775.45	232.62
775.77	232.60
776.09	232.54
776.42	232.47
776.74	232.62
777.07	232.53
777.39	232.51
777.72	232.47
778.04	232.48
778.36	232.35
778.69	232.41
779.01	232.46
779.33	231.93
779.66	231.37
779.98	231.32
780.31	231.34
780.63	231.52
780.95	231.54
781.28	231.54
781.60	231.48
781.92	231.50
782.25	231.41
782.57	231.40
782.89	231.36
783.22	231.36
783.54	231.15
783.86	231.23
784.19	231.20
784.51	231.35
784.83	231.23
785.16	231.27
785.48	231.27
785.80	231.19
786.12	231.21
786.45	231.22
786.77	231.30
787.09	231.25
787.42	231.06
787.74	230.99
788.06	230.95
788.38	230.93
788.71	230.82
789.03	230.81
789.35	230.85
789.67	230.64
789.99	230.66
790.32	230.62
790.64	230.54
790.96	230.88
791.28	230.68
791.61	230.72
791.93	230.67
792.25	230.61
792.57	230.91
792.89	230.80
793.21	230.76
793.54	230.67
793.86	230.55
794.18	230.60
794.50	230.54
794.82	230.50
795.14	230.45
795.47	230.54
795.79	230.58
796.11	230.44
796.43	230.50
796.75	230.47
797.07	230.45
797.39	230.55
797.71	230.17
798.04	230.18
798.36	230.12
798.68	230.02
799.00	229.93
799.32	229.69
799.64	229.76
799.96	229.72
800.28	229.72
800.60	229.71
800.92	229.69
801.24	229.70
801.56	229.70
801.89	229.73
802.21	229.74
802.53	229.66
802.85	229.78
803.17	230.05
803.49	229.89
803.81	229.89
804.13	229.78
804.45	229.71
804.77	229.66
805.09	229.67
805.41	229.70
805.73	229.68
806.05	229.53
806.37	229.50
806.69	229.42
807.01	229.42
807.33	229.53
807.65	229.38
807.97	229.57
808.28	229.50
808.60	229.44
808.92	229.39
809.24	229.59
809.56	229.47
809.88	229.31
810.20	229.38
810.52	229.46
810.84	229.35
811.16	229.30
811.48	229.31
811.80	229.53
812.12	229.46
812.43	229.56
812.75	229.62
813.07	229.59
813.39	229.63
813.71	229.52
814.03	229.35
814.35	229.38
814.67	229.19
814.98	229.15
815.30	229.13
815.62	229.01
815.94	228.72
816.26	228.94
816.58	228.80
816.89	228.85
817.21	228.65
817.53	228.74
817.85	228.84
818.17	228.78
818.48	228.56
818.80	228.72
819.12	228.62
819.44	228.46
819.76	228.34
820.07	228.33
820.39	228.35
820.71	228.55
821.03	228.52
821.34	228.42
821.66	228.51
821.98	228.55
822.30	228.56
822.61	228.84
822.93	228.60
823.25	228.55
823.57	228.46
823.88	228.65
824.20	228.59
824.52	228.64
824.83	228.62
825.15	228.51
825.47	228.40
825.79	228.40
826.10	228.47
826.42	228.49
826.74	228.53
827.05	228.56
827.37	228.45
827.69	228.41
828.00	228.48
828.32	228.44
828.64	228.37
828.95	228.65
829.27	228.58
829.58	228.53
829.90	228.66
830.22	228.66
830.53	228.47
830.85	228.47
831.17	228.27
831.48	228.23
831.80	228.29
832.11	228.27
832.43	228.17
832.75	228.12
833.06	228.39
833.38	228.25
833.69	228.16
834.01	228.18
834.32	228.11
834.64	228.02
834.96	227.99
835.27	227.98
835.59	227.82
835.90	227.68
836.22	227.74
836.53	227.65
836.85	227.56
837.16	228.03
837.48	228.03
837.79	228.24
838.11	228.31
838.42	228.31
838.74	228.26
839.05	228.19
839.37	228.21
839.68	227.92
840.00	227.87
840.31	227.93
840.63	227.85
840.94	227.89
841.26	227.84
841.57	227.86
841.88	227.85
842.20	227.71
842.51	227.68
842.83	227.57
843.14	227.98
843.46	228.03
843.77	227.78
844.08	227.70
844.40	227.52
844.71	227.42
845.03	227.36
845.34	227.42
845.65	227.43
845.97	227.40
846.28	227.46
846.60	227.56
846.91	227.47
847.22	227.53
847.54	227.54
847.85	227.59
848.16	227.56
848.48	227.53
848.79	227.78
849.10	227.80
849.42	227.84
849.73	227.41
850.04	227.35
850.36	227.21
850.67	227.35
850.98	227.36
851.30	227.45
851.61	227.41
851.92	227.44
852.23	227.61
852.55	227.63
852.86	227.65
853.17	227.66
853.49	227.78
853.80	227.81
854.11	227.89
854.42	227.98
854.74	227.95
855.05	227.95
855.36	227.69
855.67	227.71
855.99	227.74
856.30	228.25
856.61	228.28
856.92	228.30
857.23	228.32
857.55	228.28
857.86	228.27
858.17	228.42
858.48	228.31
858.79	228.29
859.11	228.36
859.42	228.29
859.73	228.25
860.04	228.24
860.35	228.16
860.66	228.03
860.98	227.97
861.29	228.01
861.60	227.98
861.91	228.08
862.22	227.98
862.53	227.86
862.84	227.32
863.16	227.45
863.47	227.39
863.78	227.27
864.09	227.30
864.40	227.37
864.71	227.29
865.02	227.39
865.33	227.31
865.64	227.17
865.95	227.20
866.27	227.51
866.58	227.45
866.89	227.53
867.20	227.46
867.51	227.43
867.82	227.38
868.13	227.53
868.44	227.43
868.75	227.58
869.06	227.67
869.37	227.72
869.68	227.61
869.99	227.67
870.30	227.65
870.61	227.68
870.92	227.51
871.23	227.50
871.54	227.51
871.85	227.63
872.16	227.71
872.47	227.67
872.78	227.36
873.09	227.42
873.40	227.32
873.71	227.42
874.02	227.42
874.33	227.39
874.64	227.28
874.95	227.32
875.26	227.19
875.56	227.16
875.87	227.08
876.18	227.09
876.49	227.53
876.80	227.49
877.11	227.42
877.42	227.50
877.73	227.52
878.04	227.46
878.35	227.45
878.66	227.43
878.96	227.45
879.27	227.40
879.58	227.36
879.89	227.40
880.20	227.50
880.51	227.46
880.82	227.46
881.12	227.54
881.43	227.52
881.74	227.53
882.05	227.47
882.36	227.52
882.67	227.50
882.97	226.95
883.28	226.98
883.59	226.95
883.90	226.99
884.21	227.05
884.51	226.99
884.82	226.93
885.13	226.98
885.44	226.99
885.74	227.04
886.05	227.06
886.36	227.03
886.67	226.87
886.98	227.20
887.28	227.22
887.59	227.23
887.90	227.23
888.20	227.18
888.51	227.29
888.82	227.27
889.13	227.30
889.43	227.78
889.74	227.69
890.05	227.75
890.35	227.71
890.66	227.60
890.97	227.57
891.28	227.50
891.58	227.46
891.89	227.43
892.20	227.34
892.50	227.15
892.81	227.06
893.12	227.11
893.42	226.84
893.73	226.83
894.04	226.76
894.34	226.78
894.65	226.88
894.95	226.76
895.26	226.80
895.57	227.00
895.87	226.47
896.18	226.60
896.48	226.65
896.79	226.55
897.10	226.61
897.40	226.66
897.71	226.75
898.01	226.76
898.32	226.75
898.63	226.79
898.93	226.93
899.24	227.02
899.54	226.99
899.85	226.99
900.15	226.97
900.46	227.01
900.76	227.00
901.07	226.89
901.38	226.94
901.68	226.92
901.99	226.67
902.29	226.70
902.60	226.69
902.90	226.63
903.21	226.66
903.51	226.68
903.82	226.78
904.12	226.74
904.43	226.71
904.73	226.72
905.03	226.76
905.34	227.16
905.64	227.08
905.95	227.08
906.25	226.99
906.56	226.97
906.86	226.95
907.17	226.96
907.47	226.94
907.77	226.92
908.08	226.82
908.38	226.85
908.69	226.95
908.99	226.95
909.30	226.99
909.60	226.96
909.90	226.91
910.21	226.76
910.51	226.75
910.81	226.76
911.12	226.83
911.42	226.80
911.73	226.33
912.03	226.38
912.33	226.49
912.64	226.61
912.94	226.55
913.24	226.45
913.55	226.42
913.85	226.51
914.15	226.62
914.46	226.67
914.76	226.63
915.06	226.53
915.37	226.50
915.67	226.42
915.97	226.43
916.27	226.33
916.58	226.35
916.88	226.29
917.18	226.25
917.49	226.53
917.79	226.53
918.09	226.63
918.39	226.82
918.70	226.74
919.00	226.67
919.30	226.92
919.60	226.91
919.91	226.83
920.21	226.84
920.51	226.80
920.81	226.79
921.12	226.88
921.42	226.91
921.72	226.89
922.02	226.97
922.32	227.02
922.63	227.11
922.93	227.35
923.23	227.42
923.53	227.42
923.83	227.14
924.13	227.21
924.44	227.22
924.74	227.30
925.04	227.35
925.34	227.45
925.64	227.36
925.94	227.40
926.24	227.71
926.55	227.62
926.85	227.62
927.15	227.66
927.45	227.61
927.75	227.60
928.05	227.58
928.35	227.55
928.65	227.66
928.95	227.61
929.26	227.36
929.56	227.37
929.86	227.40
930.16	227.27
930.46	227.24
930.76	227.19
931.06	226.92
931.36	226.82
931.66	226.79
931.96	226.80
932.26	226.84
932.56	226.59
932.86	226.65
933.16	226.60
933.46	226.53
933.76	226.52
934.06	226.61
934.36	226.86
934.66	226.82
934.96	226.78
935.26	226.86
935.56	227.05
935.86	226.95
936.16	226.87
936.46	226.88
936.76	226.80
937.06	226.73
937.36	226.75
937.66	226.75
937.96	226.79
938.26	226.60
938.56	226.59
938.86	226.62
939.16	226.70
939.46	226.83
939.76	226.93
940.06	226.91
940.35	226.84
940.65	226.63
940.95	226.65
941.25	226.51
941.55	226.47
941.85	226.41
942.15	226.57
942.45	226.73
942.75	226.72
943.04	226.75
943.34	226.86
943.64	226.84
943.94	226.84
944.24	226.78
944.54	226.89
944.84	226.82
945.13	226.82
945.43	226.75
945.73	226.68
946.03	226.52
946.33	226.50
946.62	226.46
946.92	226.45
947.22	226.46
947.52	226.49
947.82	226.54
948.11	226.48
948.41	226.41
948.71	226.16
949.01	226.21
949.31	226.23
949.60	226.18
949.90	226.21
950.20	226.16
950.50	226.17
950.79	226.12
951.09	226.21
951.39	226.16
951.69	226.14
951.98	226.15
952.28	226.27
952.58	226.24
952.87	226.26
953.17	226.36
953.47	226.34
953.76	226.31
954.06	226.18
954.36	226.16
954.66	226.06
954.95	226.27
955.25	226.31
955.55	226.39
955.84	226.33
956.14	226.40
956.44	226.47
956.73	226.43
957.03	226.42
957.32	226.46
957.62	226.42
957.92	226.51
958.21	226.50
958.51	226.97
958.81	227.02
959.10	227.02
959.40	227.10
959.69	227.03
959.99	227.13
960.29	227.19
960.58	227.14
960.88	227.39
961.17	227.32
961.47	227.26
961.76	227.17
962.06	227.20
962.36	227.11
962.65	227.06
962.95	227.05
963.24	227.04
963.54	226.95
963.83	227.04
964.13	226.96
964.42	226.91
964.72	226.57
965.01	226.52
965.31	226.50
965.60	226.33
965.90	226.75
966.19	226.72
966.49	226.77
966.78	226.76
967.08	226.67
967.37	226.74
967.67	226.68
967.96	226.79
968.26	226.81
968.55	226.87
968.85	226.89
969.14	226.91
969.43	226.98
969.73	227.01
970.02	226.97
970.32	226.90
970.61	226.88
970.91	226.75
971.20	226.75
971.49	226.74
971.79	226.85
972.08	226.43
972.38	226.38
972.67	226.30
972.96	226.38
973.26	226.24
973.55	226.40
973.85	226.41
974.14	226.34
974.43	226.42
974.73	226.39
975.02	226.36
975.31	226.35
975.61	226.27
975.90	226.22
976.19	226.16
976.49	226.22
976.78	226.28
977.07	226.27
977.37	226.33
977.66	226.33
977.95	226.26
978.24	226.29
978.54	226.47
978.83	226.56
979.12	226.56
979.42	226.64
979.71	226.51
980.00	226.55
980.29	226.58
980.59	226.43
980.88	226.50
981.17	226.47
981.46	226.55
981.76	226.55
982.05	226.73
982.34	226.80
982.63	226.87
982.93	226.80
983.22	226.97
983.51	226.97
983.80	227.11
984.09	227.21
984.39	227.26
984.68	227.16
984.97	227.06
985.26	227.05
985.55	227.13
985.85	226.99
986.14	227.06
986.43	227.13
986.72	227.13
987.01	227.01
987.30	227.05
987.59	227.00
987.89	227.05
988.18	226.94
988.47	226.85
988.76	226.73
989.05	226.72
989.34	226.60
989.63	226.64
989.92	226.57
990.22	226.49
990.51	226.45
990.80	226.36
991.09	226.45
991.38	226.48
991.67	226.41
991.96	226.41
992.25	226.34
992.54	226.19
992.83	226.21
993.12	226.19
993.41	226.26
993.70	226.42
993.99	226.48
994.28	226.50
994.58	226.60
994.87	226.63
995.16	226.60
995.45	226.56
995.74	226.50
996.03	226.56
996.32	226.62
996.61	226.72
996.90	226.78
997.19	226.83
997.48	226.80
997.77	226.74
998.06	226.76
998.34	226.76
998.63	226.72
998.92	226.73
999.21	226.79
999.50	226.75
999.79	226.52
1000.08	226.45
1000.37	226.48
1000.66	226.37
1000.95	226.43
1001.24	226.45
1001.53	226.50
1001.82	226.40
1002.11	226.21
1002.40	226.27
1002.68	226.32
1002.97	226.60
1003.26	226.45
1003.55	226.40
1003.84	226.47
1004.13	226.62
1004.42	226.62
1004.71	226.71
1004.99	226.68
1005.28	226.80
1005.57	226.75
1005.86	226.70
1006.15	226.70
1006.44	226.58
1006.72	226.66
1007.01	226.60
1007.30	226.59
1007.59	226.57
1007.88	226.62
1008.17	226.66
1008.45	226.49
1008.74	226.26
1009.03	226.06
1009.32	226.12
1009.60	226.10
1009.89	226.06
1010.18	225.96
1010.47	225.91
1010.76	225.91
1011.04	225.86
1011.33	225.88
1011.62	225.97
1011.91	226.12
1012.19	226.20
1012.48	226.22
1012.77	226.20
1013.05	226.41
1013.34	226.47
1013.63	226.42
1013.92	226.46
1014.20	226.52
1014.49	226.59
1014.78	226.70
1015.06	226.51
1015.35	226.53
1015.64	226.58
1015.92	226.62
1016.21	226.58
1016.50	226.67
1016.78	226.77
1017.07	226.90
1017.36	226.81
1017.64	226.69
1017.93	226.67
1018.22	226.56
1018.50	226.54
1018.79	226.59
1019.08	226.40
1019.36	226.38
1019.65	226.38
1019.93	226.54
1020.22	226.52
1020.51	226.76
1020.79	226.73
1021.08	225.35
1021.36	225.05
1021.65	227.55
1021.94	226.55
1022.22	226.00
1022.51	226.15
1022.79	229.30
1023.08	225.95
1023.36	232.45
1023.65	225.65
>>>>>End Processed Spectral Data<<<<<
