SpectraSuite Data File
++++++++++++++++++++++++++++++++++++
Date: Wed Sep 04 18:02:57 EDT 2013
User: lab3
Dark Spectrum Present: Yes
Reference Spectrum Present: No
Number of Sampled Component Spectra: 1
Spectrometers: USB2E7196
Integration Time (usec): 170000 (USB2E7196)
Spectra Averaged: 20 (USB2E7196)
Boxcar Smoothing: 10 (USB2E7196)
Correct for Electrical Dark: No (USB2E7196)
Strobe/Lamp Enabled: No (USB2E7196)
Correct for Detector Non-linearity: No (USB2E7196)
Correct for Stray Light: No (USB2E7196)
Number of Pixels in Processed Spectrum: 2048
>>>>>Begin Processed Spectral Data<<<<<
339.09	0.00
339.48	213.85
339.86	214.90
340.24	215.70
340.63	217.30
341.01	224.85
341.39	220.70
341.78	223.05
342.16	224.30
342.54	224.50
342.93	212.43
343.31	223.09
343.69	223.55
344.07	224.02
344.46	224.53
344.84	224.96
345.22	224.98
345.60	225.23
345.99	225.35
346.37	225.46
346.75	225.51
347.13	225.64
347.52	225.68
347.90	225.89
348.28	225.89
348.66	226.01
349.05	225.98
349.43	226.07
349.81	226.14
350.19	226.13
350.57	226.21
350.96	226.30
351.34	226.43
351.72	226.56
352.10	226.65
352.48	226.69
352.87	226.75
353.25	226.81
353.63	226.89
354.01	226.95
354.39	226.96
354.77	227.04
355.15	227.24
355.54	227.24
355.92	227.22
356.30	227.33
356.68	227.70
357.06	227.80
357.44	227.80
357.82	227.89
358.20	228.38
358.58	228.40
358.97	228.47
359.35	228.70
359.73	228.82
360.11	228.92
360.49	229.00
360.87	229.06
361.25	229.15
361.63	229.36
362.01	229.52
362.39	229.58
362.77	229.65
363.15	229.69
363.53	229.75
363.91	229.83
364.29	229.81
364.67	229.43
365.05	229.48
365.43	229.51
365.81	229.62
366.19	229.46
366.57	229.71
366.95	229.72
367.33	229.56
367.71	229.65
368.09	229.75
368.47	229.73
368.85	229.73
369.23	229.87
369.61	229.63
369.99	229.65
370.37	229.68
370.75	229.91
371.13	229.72
371.51	229.64
371.89	229.64
372.27	229.71
372.65	229.72
373.03	229.66
373.41	229.66
373.78	229.63
374.16	229.39
374.54	229.18
374.92	229.05
375.30	229.07
375.68	228.91
376.06	228.84
376.44	228.73
376.82	228.62
377.19	228.51
377.57	228.52
377.95	228.33
378.33	228.25
378.71	227.88
379.09	227.89
379.47	227.91
379.84	227.80
380.22	227.65
380.60	227.49
380.98	227.36
381.36	227.25
381.73	227.09
382.11	227.08
382.49	226.98
382.87	226.93
383.25	226.83
383.62	227.36
384.00	227.25
384.38	227.20
384.76	227.35
385.13	227.47
385.51	227.41
385.89	227.37
386.27	227.36
386.64	227.44
387.02	227.36
387.40	227.27
387.78	227.28
388.15	227.26
388.53	227.19
388.91	227.17
389.29	227.16
389.66	227.18
390.04	227.05
390.42	227.13
390.79	227.15
391.17	227.13
391.55	226.50
391.92	226.48
392.30	226.60
392.68	226.44
393.05	226.49
393.43	226.58
393.81	226.60
394.18	226.56
394.56	226.55
394.94	226.66
395.31	226.64
395.69	226.79
396.06	226.91
396.44	226.98
396.82	227.05
397.19	227.40
397.57	227.38
397.95	227.54
398.32	227.54
398.70	227.62
399.07	227.83
399.45	227.94
399.82	228.08
400.20	228.07
400.58	228.20
400.95	228.00
401.33	228.13
401.70	228.61
402.08	228.78
402.45	228.86
402.83	229.14
403.20	229.43
403.58	229.47
403.95	229.76
404.33	230.04
404.71	230.30
405.08	230.67
405.46	230.94
405.83	231.17
406.21	231.41
406.58	231.75
406.96	231.99
407.33	232.30
407.70	232.60
408.08	233.35
408.45	233.75
408.83	234.32
409.20	234.65
409.58	234.83
409.95	235.28
410.33	235.88
410.70	236.25
411.08	236.81
411.45	237.47
411.82	237.99
412.20	238.75
412.57	239.67
412.95	240.05
413.32	240.96
413.69	241.79
414.07	242.67
414.44	243.58
414.82	244.60
415.19	245.83
415.56	246.98
415.94	248.02
416.31	249.52
416.68	250.89
417.06	252.55
417.43	254.20
417.81	256.01
418.18	257.80
418.55	259.82
418.93	261.83
419.30	263.94
419.67	266.15
420.04	268.41
420.42	270.73
420.79	273.75
421.16	276.48
421.54	279.57
421.91	282.62
422.28	285.76
422.66	289.03
423.03	292.45
423.40	295.88
423.77	299.42
424.15	302.94
424.52	306.75
424.89	310.91
425.26	314.76
425.64	318.56
426.01	322.73
426.38	327.06
426.75	331.56
427.13	336.19
427.50	340.97
427.87	345.94
428.24	350.84
428.61	355.43
428.99	360.81
429.36	366.33
429.73	371.85
430.10	377.48
430.47	383.19
430.85	388.95
431.22	395.13
431.59	401.99
431.96	408.31
432.33	415.23
432.70	421.93
433.08	429.93
433.45	437.49
433.82	444.97
434.19	453.06
434.56	461.40
434.93	469.17
435.30	476.92
435.68	485.54
436.05	494.13
436.42	502.58
436.79	510.18
437.16	518.61
437.53	527.49
437.90	536.15
438.27	544.70
438.64	553.65
439.01	562.00
439.38	569.28
439.75	576.51
440.13	584.63
440.50	592.19
440.87	598.33
441.24	604.72
441.61	611.58
441.98	616.96
442.35	622.75
442.72	628.70
443.09	634.47
443.46	638.01
443.83	640.20
444.20	642.06
444.57	644.72
444.94	645.78
445.31	646.83
445.68	648.11
446.05	648.44
446.42	647.05
446.79	645.55
447.16	643.83
447.53	642.37
447.90	638.73
448.27	635.04
448.64	630.12
449.01	626.25
449.37	620.15
449.74	613.92
450.11	607.00
450.48	599.18
450.85	591.33
451.22	584.38
451.59	577.82
451.96	571.62
452.33	563.65
452.70	556.20
453.07	547.52
453.43	538.46
453.80	529.95
454.17	521.87
454.54	514.23
454.91	506.05
455.28	498.05
455.65	490.53
456.02	483.61
456.38	477.24
456.75	469.55
457.12	463.02
457.49	456.71
457.86	450.27
458.23	445.12
458.59	439.38
458.96	433.50
459.33	428.35
459.70	423.09
460.07	418.92
460.43	414.21
460.80	409.89
461.17	406.05
461.54	402.03
461.91	398.24
462.27	394.30
462.64	390.95
463.01	387.43
463.38	384.10
463.74	380.03
464.11	376.97
464.48	374.32
464.85	371.43
465.21	369.30
465.58	366.93
465.95	364.04
466.32	361.80
466.68	359.45
467.05	357.19
467.42	354.95
467.78	352.61
468.15	350.51
468.52	348.87
468.88	346.65
469.25	344.66
469.62	343.09
469.98	341.42
470.35	339.95
470.72	338.45
471.08	336.64
471.45	335.43
471.82	334.10
472.18	332.58
472.55	331.71
472.92	330.36
473.28	329.22
473.65	328.16
474.02	327.03
474.38	326.22
474.75	325.41
475.11	324.64
475.48	324.00
475.85	323.37
476.21	322.71
476.58	322.31
476.94	321.92
477.31	321.41
477.67	321.05
478.04	320.71
478.41	320.55
478.77	320.90
479.14	320.64
479.50	320.54
479.87	320.60
480.23	320.43
480.60	320.37
480.96	320.42
481.33	320.75
481.69	320.97
482.06	321.18
482.42	321.55
482.79	321.90
483.15	322.32
483.52	322.93
483.88	323.46
484.25	323.92
484.61	324.62
484.98	325.36
485.34	326.26
485.71	327.16
486.07	328.17
486.44	328.80
486.80	329.94
487.17	331.13
487.53	332.55
487.90	334.06
488.26	335.86
488.62	337.60
488.99	339.14
489.35	340.96
489.72	342.85
490.08	344.75
490.44	346.75
490.81	349.00
491.17	351.09
491.54	353.55
491.90	356.19
492.26	358.78
492.63	361.61
492.99	364.50
493.36	367.59
493.72	370.91
494.08	374.33
494.45	378.04
494.81	381.90
495.17	385.81
495.54	390.00
495.90	394.12
496.26	398.57
496.63	403.26
496.99	408.01
497.35	413.20
497.72	418.50
498.08	423.98
498.44	429.65
498.80	435.83
499.17	441.88
499.53	448.29
499.89	455.06
500.26	461.98
500.62	469.01
500.98	476.55
501.34	483.90
501.71	491.52
502.07	499.38
502.43	507.57
502.79	516.09
503.16	524.73
503.52	533.77
503.88	542.99
504.24	552.64
504.60	562.78
504.97	572.93
505.33	583.44
505.69	594.71
506.05	605.79
506.41	616.99
506.78	628.76
507.14	640.75
507.50	653.06
507.86	665.64
508.22	678.71
508.59	691.70
508.95	705.29
509.31	719.55
509.67	733.73
510.03	748.19
510.39	762.66
510.75	777.68
511.12	792.97
511.48	808.72
511.84	824.64
512.20	840.46
512.56	856.73
512.92	873.61
513.28	890.29
513.64	907.78
514.00	925.10
514.37	942.64
514.73	960.75
515.09	979.27
515.45	997.62
515.81	1015.90
516.17	1034.83
516.53	1053.86
516.89	1072.68
517.25	1092.14
517.61	1112.30
517.97	1132.79
518.33	1152.92
518.69	1173.23
519.05	1193.57
519.41	1214.34
519.77	1235.58
520.13	1256.52
520.49	1277.26
520.85	1299.84
521.21	1320.75
521.57	1342.57
521.93	1363.63
522.29	1384.83
522.65	1405.56
523.01	1426.75
523.37	1447.56
523.73	1468.47
524.09	1488.95
524.45	1509.73
524.81	1530.82
525.17	1551.51
525.53	1572.27
525.89	1593.45
526.25	1614.50
526.61	1635.29
526.97	1656.25
527.33	1677.45
527.68	1699.45
528.04	1720.42
528.40	1739.83
528.76	1760.89
529.12	1781.07
529.48	1802.25
529.84	1822.69
530.20	1843.84
530.56	1864.72
530.91	1885.80
531.27	1906.66
531.63	1927.56
531.99	1948.51
532.35	1968.59
532.71	1989.15
533.07	2009.59
533.42	2029.63
533.78	2049.76
534.14	2069.70
534.50	2088.99
534.86	2108.27
535.21	2125.78
535.57	2144.98
535.93	2162.99
536.29	2180.96
536.65	2199.59
537.00	2217.12
537.36	2234.81
537.72	2251.50
538.08	2268.60
538.44	2285.46
538.79	2301.77
539.15	2318.37
539.51	2334.18
539.87	2349.48
540.22	2363.52
540.58	2377.79
540.94	2391.07
541.29	2403.79
541.65	2416.47
542.01	2429.10
542.37	2439.99
542.72	2451.31
543.08	2461.97
543.44	2473.97
543.79	2484.29
544.15	2494.05
544.51	2504.57
544.87	2514.16
545.22	2523.04
545.58	2531.10
545.94	2538.60
546.29	2545.33
546.65	2551.59
547.01	2557.41
547.36	2563.20
547.72	2568.88
548.07	2573.35
548.43	2578.83
548.79	2583.70
549.14	2588.05
549.50	2592.04
549.86	2596.10
550.21	2599.90
550.57	2603.06
550.92	2604.42
551.28	2606.12
551.64	2608.66
551.99	2610.41
552.35	2612.32
552.70	2614.14
553.06	2616.06
553.41	2616.94
553.77	2618.95
554.13	2620.91
554.48	2622.39
554.84	2623.77
555.19	2624.95
555.55	2626.52
555.90	2625.70
556.26	2624.56
556.61	2622.96
556.97	2620.90
557.32	2620.40
557.68	2619.46
558.03	2618.35
558.39	2617.18
558.74	2616.19
559.10	2612.96
559.45	2609.36
559.81	2604.94
560.16	2600.02
560.52	2595.18
560.87	2591.35
561.23	2585.91
561.58	2579.63
561.94	2573.23
562.29	2565.84
562.64	2559.03
563.00	2550.84
563.35	2544.63
563.71	2538.41
564.06	2532.46
564.42	2525.99
564.77	2519.25
565.12	2511.64
565.48	2503.85
565.83	2496.15
566.19	2487.85
566.54	2479.94
566.89	2471.81
567.25	2463.86
567.60	2456.87
567.96	2449.21
568.31	2440.96
568.66	2432.22
569.02	2423.22
569.37	2414.72
569.72	2407.13
570.08	2397.70
570.43	2388.35
570.78	2378.84
571.14	2369.27
571.49	2359.08
571.84	2349.53
572.20	2338.10
572.55	2328.16
572.90	2317.16
573.26	2306.58
573.61	2295.74
573.96	2284.88
574.31	2273.17
574.67	2261.47
575.02	2248.38
575.37	2235.46
575.72	2222.24
576.08	2210.05
576.43	2197.65
576.78	2184.50
577.13	2170.81
577.49	2157.90
577.84	2146.06
578.19	2134.01
578.54	2121.31
578.90	2109.02
579.25	2096.61
579.60	2084.35
579.95	2070.94
580.30	2057.95
580.66	2044.35
581.01	2030.59
581.36	2016.20
581.71	2003.20
582.06	1990.25
582.42	1977.67
582.77	1965.08
583.12	1952.87
583.47	1940.23
583.82	1928.29
584.17	1916.13
584.53	1904.08
584.88	1891.25
585.23	1877.98
585.58	1863.78
585.93	1850.50
586.28	1837.05
586.63	1822.88
586.98	1808.45
587.34	1795.21
587.69	1781.92
588.04	1769.22
588.39	1757.03
588.74	1745.08
589.09	1732.93
589.44	1720.05
589.79	1708.25
590.14	1696.37
590.49	1684.07
590.84	1672.10
591.19	1659.89
591.54	1647.63
591.89	1635.64
592.25	1625.45
592.60	1614.00
592.95	1602.60
593.30	1590.72
593.65	1578.73
594.00	1566.70
594.35	1556.90
594.70	1544.89
595.05	1533.41
595.40	1521.11
595.75	1509.09
596.10	1497.59
596.45	1485.96
596.80	1474.96
597.15	1463.16
597.50	1450.88
597.85	1439.71
598.19	1427.92
598.54	1416.15
598.89	1404.83
599.24	1394.14
599.59	1382.20
599.94	1371.29
600.29	1360.52
600.64	1349.79
600.99	1339.03
601.34	1329.67
601.69	1318.47
602.04	1308.55
602.39	1298.85
602.74	1289.84
603.08	1280.44
603.43	1271.20
603.78	1261.41
604.13	1251.55
604.48	1241.85
604.83	1232.08
605.18	1222.13
605.53	1212.60
605.87	1203.49
606.22	1194.91
606.57	1185.50
606.92	1176.03
607.27	1166.81
607.62	1158.21
607.96	1149.59
608.31	1141.56
608.66	1132.77
609.01	1124.10
609.36	1115.60
609.70	1106.82
610.05	1097.88
610.40	1089.17
610.75	1080.30
611.10	1071.91
611.44	1063.41
611.79	1055.12
612.14	1047.43
612.49	1039.57
612.83	1032.06
613.18	1024.11
613.53	1016.04
613.88	1007.72
614.22	999.89
614.57	992.10
614.92	983.96
615.27	976.62
615.61	968.74
615.96	960.96
616.31	953.50
616.65	946.32
617.00	938.96
617.35	931.74
617.70	924.89
618.04	917.64
618.39	910.66
618.74	904.12
619.08	897.22
619.43	890.00
619.78	882.97
620.12	875.86
620.47	868.87
620.82	861.68
621.16	855.08
621.51	848.70
621.85	842.26
622.20	835.50
622.55	828.61
622.89	821.97
623.24	815.69
623.59	808.99
623.93	802.64
624.28	796.20
624.62	790.50
624.97	784.20
625.32	778.35
625.66	772.22
626.01	766.07
626.35	760.62
626.70	755.08
627.04	749.86
627.39	744.12
627.73	738.88
628.08	733.75
628.43	728.22
628.77	722.77
629.12	717.30
629.46	712.68
629.81	707.86
630.15	703.09
630.50	697.97
630.84	693.29
631.19	688.54
631.53	684.17
631.88	678.82
632.22	674.07
632.57	669.59
632.91	665.10
633.26	660.77
633.60	655.92
633.95	651.17
634.29	646.16
634.64	641.60
634.98	636.65
635.32	632.29
635.67	628.39
636.01	624.05
636.36	619.77
636.70	615.74
637.05	611.61
637.39	607.55
637.73	603.41
638.08	599.34
638.42	595.07
638.77	590.57
639.11	586.25
639.45	581.98
639.80	577.39
640.14	573.16
640.49	569.03
640.83	565.20
641.17	561.69
641.52	557.97
641.86	554.48
642.20	551.25
642.55	547.52
642.89	543.73
643.23	540.28
643.58	537.00
643.92	533.16
644.26	529.66
644.61	526.38
644.95	523.06
645.29	519.65
645.64	516.52
645.98	513.42
646.32	510.50
646.66	507.24
647.01	504.33
647.35	501.50
647.69	498.57
648.04	495.66
648.38	492.66
648.72	489.78
649.06	486.57
649.41	483.46
649.75	480.40
650.09	477.64
650.43	474.73
650.78	471.69
651.12	468.90
651.46	466.07
651.80	463.17
652.14	460.38
652.49	457.85
652.83	455.17
653.17	452.58
653.51	449.80
653.85	447.51
654.20	444.99
654.54	442.40
654.88	439.75
655.22	437.45
655.56	434.95
655.90	432.50
656.25	430.35
656.59	428.18
656.93	425.96
657.27	423.78
657.61	421.27
657.95	419.07
658.29	416.89
658.64	414.73
658.98	412.51
659.32	410.17
659.66	407.96
660.00	405.70
660.34	403.52
660.68	401.57
661.02	399.42
661.36	397.55
661.70	395.45
662.05	393.47
662.39	391.46
662.73	389.60
663.07	388.02
663.41	386.07
663.75	384.04
664.09	382.24
664.43	380.24
664.77	378.65
665.11	376.85
665.45	375.26
665.79	373.55
666.13	371.83
666.47	370.24
666.81	368.57
667.15	366.89
667.49	365.43
667.83	364.09
668.17	362.64
668.51	361.13
668.85	359.82
669.19	358.71
669.53	357.21
669.87	355.70
670.21	354.06
670.55	352.74
670.89	351.67
671.23	350.30
671.57	348.88
671.91	347.50
672.25	346.26
672.58	345.03
672.92	343.64
673.26	342.35
673.60	341.24
673.94	340.00
674.28	338.95
674.62	337.75
674.96	336.40
675.30	335.24
675.64	334.04
675.97	332.87
676.31	331.45
676.65	330.06
676.99	329.19
677.33	327.99
677.67	326.91
678.01	325.65
678.34	324.59
678.68	323.60
679.02	322.47
679.36	321.42
679.70	320.31
680.04	319.47
680.37	318.53
680.71	317.54
681.05	316.64
681.39	315.69
681.73	314.67
682.06	313.76
682.40	312.79
682.74	311.98
683.08	311.19
683.42	310.32
683.75	309.69
684.09	308.70
684.43	307.91
684.77	307.04
685.10	306.20
685.44	305.40
685.78	304.64
686.12	303.94
686.45	303.14
686.79	302.27
687.13	301.58
687.46	300.83
687.80	300.11
688.14	299.30
688.48	298.47
688.81	297.80
689.15	297.23
689.49	296.57
689.82	295.80
690.16	294.84
690.50	294.15
690.83	293.33
691.17	292.51
691.51	291.89
691.84	291.24
692.18	290.60
692.52	289.88
692.85	289.23
693.19	288.80
693.52	288.11
693.86	287.44
694.20	286.69
694.53	286.07
694.87	285.45
695.21	284.75
695.54	284.27
695.88	283.52
696.21	282.70
696.55	282.07
696.88	281.40
697.22	280.87
697.56	280.35
697.89	279.77
698.23	279.34
698.56	278.71
698.90	278.23
699.23	277.62
699.57	277.15
699.90	276.57
700.24	275.87
700.58	275.47
700.91	275.05
701.25	274.93
701.58	274.73
701.92	274.32
702.25	273.87
702.59	273.28
702.92	272.93
703.26	272.54
703.59	272.09
703.93	272.11
704.26	271.69
704.60	271.27
704.93	270.86
705.26	270.29
705.60	269.98
705.93	269.45
706.27	269.16
706.60	268.82
706.94	268.61
707.27	268.21
707.61	267.88
707.94	267.48
708.27	266.74
708.61	266.02
708.94	265.52
709.28	265.20
709.61	264.89
709.94	264.53
710.28	264.13
710.61	263.75
710.95	262.91
711.28	262.89
711.61	262.45
711.95	262.19
712.28	261.89
712.61	261.58
712.95	261.46
713.28	261.37
713.61	260.93
713.95	260.43
714.28	260.11
714.61	259.64
714.95	259.31
715.28	258.96
715.61	258.60
715.95	258.32
716.28	257.96
716.61	257.66
716.95	257.32
717.28	257.01
717.61	256.73
717.94	256.53
718.28	255.87
718.61	255.59
718.94	255.27
719.27	254.96
719.61	254.66
719.94	254.27
720.27	253.67
720.60	253.45
720.94	253.30
721.27	253.10
721.60	252.92
721.93	252.66
722.27	252.60
722.60	252.49
722.93	252.27
723.26	252.11
723.59	251.92
723.93	251.74
724.26	251.65
724.59	251.40
724.92	251.17
725.25	251.18
725.59	250.97
725.92	250.80
726.25	250.67
726.58	250.49
726.91	250.31
727.24	250.18
727.57	249.99
727.91	249.59
728.24	249.49
728.57	249.31
728.90	249.20
729.23	248.81
729.56	248.85
729.89	248.65
730.22	248.42
730.55	248.18
730.89	248.06
731.22	247.80
731.55	247.62
731.88	247.48
732.21	247.12
732.54	246.96
732.87	246.79
733.20	246.58
733.53	246.35
733.86	246.21
734.19	246.03
734.52	245.89
734.85	246.15
735.18	245.85
735.51	245.73
735.84	245.53
736.17	245.50
736.50	245.06
736.83	245.46
737.16	245.37
737.49	245.25
737.82	244.97
738.15	244.94
738.48	244.82
738.81	244.58
739.14	244.38
739.47	244.25
739.80	244.06
740.13	244.01
740.46	243.83
740.79	243.60
741.12	243.40
741.45	243.12
741.78	242.73
742.11	242.72
742.44	242.57
742.77	242.56
743.10	242.37
743.43	242.23
743.75	241.58
744.08	242.04
744.41	241.79
744.74	241.65
745.07	241.35
745.40	241.29
745.73	241.39
746.06	241.27
746.39	241.14
746.71	240.99
747.04	240.82
747.37	240.65
747.70	240.64
748.03	240.56
748.36	240.60
748.68	240.44
749.01	240.15
749.34	239.99
749.67	239.87
750.00	239.88
750.33	240.19
750.65	240.21
750.98	239.51
751.31	239.45
751.64	239.38
751.97	239.48
752.29	239.30
752.62	239.02
752.95	238.97
753.28	238.81
753.60	238.70
753.93	238.69
754.26	238.69
754.59	238.39
754.91	238.25
755.24	238.08
755.57	237.95
755.90	237.83
756.22	237.67
756.55	237.46
756.88	237.24
757.20	236.73
757.53	236.43
757.86	236.24
758.19	236.20
758.51	236.14
758.84	235.85
759.17	235.71
759.49	235.65
759.82	235.79
760.15	235.79
760.47	235.68
760.80	235.46
761.13	235.41
761.45	235.38
761.78	235.35
762.11	235.28
762.43	235.21
762.76	235.19
763.08	235.18
763.41	235.25
763.74	235.12
764.06	235.11
764.39	235.02
764.71	235.04
765.04	234.97
765.37	234.87
765.69	234.81
766.02	234.73
766.34	234.61
766.67	234.31
767.00	234.30
767.32	234.54
767.65	234.74
767.97	234.68
768.30	234.70
768.62	234.61
768.95	234.55
769.27	234.44
769.60	234.44
769.92	234.34
770.25	234.05
770.57	233.90
770.90	233.76
771.22	233.74
771.55	233.61
771.87	233.52
772.20	233.40
772.52	233.83
772.85	234.38
773.17	234.34
773.50	234.40
773.82	234.29
774.15	234.00
774.47	233.67
774.80	233.49
775.12	233.39
775.45	233.35
775.77	233.37
776.09	233.38
776.42	233.30
776.74	233.35
777.07	233.28
777.39	233.24
777.72	233.22
778.04	233.17
778.36	233.15
778.69	233.15
779.01	233.20
779.33	232.70
779.66	232.05
779.98	231.91
780.31	231.83
780.63	231.93
780.95	232.02
781.28	232.02
781.60	231.91
781.92	231.87
782.25	231.80
782.57	231.62
782.89	231.57
783.22	231.52
783.54	231.42
783.86	231.46
784.19	231.45
784.51	231.52
784.83	231.40
785.16	231.31
785.48	231.22
785.80	231.15
786.12	231.15
786.45	231.19
786.77	231.15
787.09	231.12
787.42	230.92
787.74	230.80
788.06	230.79
788.38	230.79
788.71	230.69
789.03	230.68
789.35	230.78
789.67	230.74
789.99	230.67
790.32	230.60
790.64	230.64
790.96	230.98
791.28	230.75
791.61	230.75
791.93	230.81
792.25	230.86
792.57	231.17
792.89	230.98
793.21	230.95
793.54	230.92
793.86	230.76
794.18	230.79
794.50	230.63
794.82	230.54
795.14	230.62
795.47	230.72
795.79	230.69
796.11	230.55
796.43	230.40
796.75	230.49
797.07	230.47
797.39	230.43
797.71	230.13
798.04	230.20
798.36	230.22
798.68	230.22
799.00	230.10
799.32	229.91
799.64	230.09
799.96	230.10
800.28	230.24
800.60	230.21
800.92	230.25
801.24	230.29
801.56	230.33
801.89	230.25
802.21	230.21
802.53	230.17
802.85	230.21
803.17	230.50
803.49	230.35
803.81	230.29
804.13	230.21
804.45	230.11
804.77	230.10
805.09	230.03
805.41	229.97
805.73	229.90
806.05	229.69
806.37	229.64
806.69	229.54
807.01	229.43
807.33	229.49
807.65	229.24
807.97	229.41
808.28	229.38
808.60	229.32
808.92	229.15
809.24	229.41
809.56	229.40
809.88	229.20
810.20	229.16
810.52	229.22
810.84	229.16
811.16	229.10
811.48	229.03
811.80	229.17
812.12	229.01
812.43	229.08
812.75	229.13
813.07	229.03
813.39	229.11
813.71	229.10
814.03	229.02
814.35	229.13
814.67	228.85
814.98	228.67
815.30	228.70
815.62	228.72
815.94	228.40
816.26	228.55
816.58	228.46
816.89	228.53
817.21	228.41
817.53	228.46
817.85	228.44
818.17	228.49
818.48	228.32
818.80	228.53
819.12	228.42
819.44	228.31
819.76	228.17
820.07	228.16
820.39	228.11
820.71	228.16
821.03	228.11
821.34	228.23
821.66	228.29
821.98	228.28
822.30	228.25
822.61	228.50
822.93	228.26
823.25	228.23
823.57	228.12
823.88	228.20
824.20	228.19
824.52	228.32
824.83	228.31
825.15	228.26
825.47	228.14
825.79	228.16
826.10	228.19
826.42	228.23
826.74	228.22
827.05	228.21
827.37	228.17
827.69	228.05
828.00	228.00
828.32	228.03
828.64	227.95
828.95	228.15
829.27	228.03
829.58	227.96
829.90	227.98
830.22	228.01
830.53	227.90
830.85	227.79
831.17	227.58
831.48	227.50
831.80	227.48
832.11	227.45
832.43	227.46
832.75	227.34
833.06	227.64
833.38	227.43
833.69	227.40
834.01	227.41
834.32	227.48
834.64	227.46
834.96	227.45
835.27	227.50
835.59	227.35
835.90	227.32
836.22	227.37
836.53	227.33
836.85	227.26
837.16	227.69
837.48	227.74
837.79	227.99
838.11	227.99
838.42	228.00
838.74	228.14
839.05	228.10
839.37	228.14
839.68	227.82
840.00	227.90
840.31	227.93
840.63	227.92
840.94	227.81
841.26	227.74
841.57	227.75
841.88	227.75
842.20	227.66
842.51	227.51
842.83	227.46
843.14	227.93
843.46	228.04
843.77	227.81
844.08	227.83
844.40	227.60
844.71	227.62
845.03	227.59
845.34	227.49
845.65	227.42
845.97	227.42
846.28	227.43
846.60	227.39
846.91	227.25
847.22	227.13
847.54	227.32
847.85	227.35
848.16	227.32
848.48	227.23
848.79	227.43
849.10	227.53
849.42	227.55
849.73	227.03
850.04	226.95
850.36	226.77
850.67	226.82
850.98	226.92
851.30	226.91
851.61	226.91
851.92	226.96
852.23	227.13
852.55	227.14
852.86	227.20
853.17	227.25
853.49	227.44
853.80	227.61
854.11	227.62
854.42	227.67
854.74	227.58
855.05	227.60
855.36	227.36
855.67	227.32
855.99	227.35
856.30	227.96
856.61	227.96
856.92	228.05
857.23	227.97
857.55	227.85
857.86	227.80
858.17	227.87
858.48	227.75
858.79	227.68
859.11	227.73
859.42	227.60
859.73	227.53
860.04	227.54
860.35	227.37
860.66	227.20
860.98	227.20
861.29	227.28
861.60	227.24
861.91	227.36
862.22	227.24
862.53	227.17
862.84	226.56
863.16	226.63
863.47	226.49
863.78	226.47
864.09	226.53
864.40	226.61
864.71	226.59
865.02	226.65
865.33	226.52
865.64	226.42
865.95	226.48
866.27	226.85
866.58	226.74
866.89	226.86
867.20	226.80
867.51	226.68
867.82	226.63
868.13	226.80
868.44	226.73
868.75	226.86
869.06	226.93
869.37	226.93
869.68	226.77
869.99	226.81
870.30	226.80
870.61	226.87
870.92	226.72
871.23	226.68
871.54	226.73
871.85	226.90
872.16	226.97
872.47	226.95
872.78	226.58
873.09	226.63
873.40	226.60
873.71	226.71
874.02	226.75
874.33	226.73
874.64	226.61
874.95	226.64
875.26	226.54
875.56	226.46
875.87	226.51
876.18	226.53
876.49	227.05
876.80	227.09
877.11	227.01
877.42	227.07
877.73	227.03
878.04	226.96
878.35	226.91
878.66	226.91
878.96	226.91
879.27	226.96
879.58	226.93
879.89	226.84
880.20	226.98
880.51	227.04
880.82	227.04
881.12	227.06
881.43	226.96
881.74	226.95
882.05	226.96
882.36	227.02
882.67	227.10
882.97	226.53
883.28	226.44
883.59	226.45
883.90	226.52
884.21	226.62
884.51	226.63
884.82	226.58
885.13	226.57
885.44	226.61
885.74	226.63
886.05	226.67
886.36	226.70
886.67	226.56
886.98	226.77
887.28	226.83
887.59	226.82
887.90	226.82
888.20	226.77
888.51	226.90
888.82	226.80
889.13	226.87
889.43	227.34
889.74	227.37
890.05	227.38
890.35	227.30
890.66	227.24
890.97	227.18
891.28	227.17
891.58	227.18
891.89	227.18
892.20	227.13
892.50	227.08
892.81	227.05
893.12	227.05
893.42	226.83
893.73	226.89
894.04	226.90
894.34	226.93
894.65	227.01
894.95	226.98
895.26	227.00
895.57	227.09
895.87	226.60
896.18	226.67
896.48	226.69
896.79	226.70
897.10	226.75
897.40	226.79
897.71	226.82
898.01	226.81
898.32	226.83
898.63	226.81
898.93	226.85
899.24	226.93
899.54	226.89
899.85	226.82
900.15	226.78
900.46	226.78
900.76	226.94
901.07	226.93
901.38	226.87
901.68	226.91
901.99	226.77
902.29	226.80
902.60	226.72
902.90	226.62
903.21	226.61
903.51	226.59
903.82	226.73
904.12	226.75
904.43	226.72
904.73	226.71
905.03	226.71
905.34	227.19
905.64	227.12
905.95	227.09
906.25	227.13
906.56	227.08
906.86	227.02
907.17	226.96
907.47	226.97
907.77	226.95
908.08	226.88
908.38	226.84
908.69	226.87
908.99	226.99
909.30	227.06
909.60	227.06
909.90	227.04
910.21	226.85
910.51	226.74
910.81	226.73
911.12	226.70
911.42	226.75
911.73	226.25
912.03	226.31
912.33	226.42
912.64	226.37
912.94	226.35
913.24	226.38
913.55	226.31
913.85	226.26
914.15	226.38
914.46	226.41
914.76	226.36
915.06	226.39
915.37	226.31
915.67	226.32
915.97	226.37
916.27	226.30
916.58	226.27
916.88	226.28
917.18	226.26
917.49	226.61
917.79	226.58
918.09	226.61
918.39	226.71
918.70	226.72
919.00	226.76
919.30	227.04
919.60	226.98
919.91	226.93
920.21	226.93
920.51	226.82
920.81	226.81
921.12	226.99
921.42	226.95
921.72	226.89
922.02	226.89
922.32	226.95
922.63	227.03
922.93	227.38
923.23	227.47
923.53	227.51
923.83	227.20
924.13	227.30
924.44	227.29
924.74	227.38
925.04	227.53
925.34	227.53
925.64	227.26
925.94	227.31
926.24	227.62
926.55	227.57
926.85	227.69
927.15	227.66
927.45	227.61
927.75	227.59
928.05	227.69
928.35	227.68
928.65	227.72
928.95	227.76
929.26	227.59
929.56	227.71
929.86	227.77
930.16	227.75
930.46	227.65
930.76	227.61
931.06	227.35
931.36	227.16
931.66	227.25
931.96	227.29
932.26	227.32
932.56	227.06
932.86	227.10
933.16	227.02
933.46	226.95
933.76	226.90
934.06	227.08
934.36	227.26
934.66	227.24
934.96	227.21
935.26	227.20
935.56	227.22
935.86	227.00
936.16	226.90
936.46	226.87
936.76	226.80
937.06	226.78
937.36	226.85
937.66	226.86
937.96	226.82
938.26	226.77
938.56	226.64
938.86	226.72
939.16	226.78
939.46	226.84
939.76	226.90
940.06	226.87
940.35	226.70
940.65	226.38
940.95	226.40
941.25	226.26
941.55	226.19
941.85	226.13
942.15	226.22
942.45	226.29
942.75	226.27
943.04	226.36
943.34	226.36
943.64	226.37
943.94	226.30
944.24	226.29
944.54	226.28
944.84	226.30
945.13	226.16
945.43	226.15
945.73	226.08
946.03	226.07
946.33	226.04
946.62	226.01
946.92	226.00
947.22	226.02
947.52	226.02
947.82	226.04
948.11	226.01
948.41	225.95
948.71	225.90
949.01	225.92
949.31	225.89
949.60	225.95
949.90	225.91
950.20	225.89
950.50	225.85
950.79	225.89
951.09	225.99
951.39	225.98
951.69	225.95
951.98	226.07
952.28	226.09
952.58	226.10
952.87	226.12
953.17	226.25
953.47	226.20
953.76	226.24
954.06	226.19
954.36	226.12
954.66	226.14
954.95	226.24
955.25	226.28
955.55	226.30
955.84	226.23
956.14	226.31
956.44	226.36
956.73	226.36
957.03	226.31
957.32	226.34
957.62	226.37
957.92	226.44
958.21	226.38
958.51	226.85
958.81	226.91
959.10	226.95
959.40	227.01
959.69	227.09
959.99	227.14
960.29	227.22
960.58	227.20
960.88	227.36
961.17	227.34
961.47	227.33
961.76	227.25
962.06	227.27
962.36	227.20
962.65	227.21
962.95	227.20
963.24	227.19
963.54	227.21
963.83	227.30
964.13	227.21
964.42	227.19
964.72	226.87
965.01	226.88
965.31	226.90
965.60	226.80
965.90	227.06
966.19	226.95
966.49	226.88
966.78	226.91
967.08	226.88
967.37	226.77
967.67	226.70
967.96	226.78
968.26	226.70
968.55	226.74
968.85	226.72
969.14	226.74
969.43	226.72
969.73	226.58
970.02	226.55
970.32	226.59
970.61	226.53
970.91	226.41
971.20	226.35
971.49	226.28
971.79	226.29
972.08	225.99
972.38	226.00
972.67	225.95
972.96	226.07
973.26	225.92
973.55	226.08
973.85	226.05
974.14	226.07
974.43	226.18
974.73	226.12
975.02	226.04
975.31	225.96
975.61	225.97
975.90	225.91
976.19	225.78
976.49	225.78
976.78	225.78
977.07	225.71
977.37	225.71
977.66	225.70
977.95	225.70
978.24	225.71
978.54	225.84
978.83	225.85
979.12	225.80
979.42	225.74
979.71	225.64
980.00	225.57
980.29	225.54
980.59	225.43
980.88	225.59
981.17	225.57
981.46	225.62
981.76	225.61
982.05	225.85
982.34	225.93
982.63	225.88
982.93	225.92
983.22	226.06
983.51	226.05
983.80	226.16
984.09	226.15
984.39	226.08
984.68	225.96
984.97	226.07
985.26	225.99
985.55	226.10
985.85	226.07
986.14	226.16
986.43	226.24
986.72	226.26
987.01	226.07
987.30	226.13
987.59	226.05
987.89	226.05
988.18	225.90
988.47	225.90
988.76	225.90
989.05	225.83
989.34	225.75
989.63	225.94
989.92	225.88
990.22	225.82
990.51	225.82
990.80	225.77
991.09	225.76
991.38	225.85
991.67	225.84
991.96	225.83
992.25	225.92
992.54	225.83
992.83	225.86
993.12	225.83
993.41	225.83
993.70	226.08
993.99	226.17
994.28	226.22
994.58	226.33
994.87	226.30
995.16	226.35
995.45	226.35
995.74	226.12
996.03	226.16
996.32	226.23
996.61	226.36
996.90	226.42
997.19	226.40
997.48	226.45
997.77	226.42
998.06	226.45
998.34	226.44
998.63	226.48
998.92	226.50
999.21	226.60
999.50	226.67
999.79	226.52
1000.08	226.58
1000.37	226.58
1000.66	226.46
1000.95	226.63
1001.24	226.60
1001.53	226.67
1001.82	226.74
1002.11	226.65
1002.40	226.72
1002.68	226.80
1002.97	227.12
1003.26	227.06
1003.55	226.96
1003.84	226.97
1004.13	227.07
1004.42	226.99
1004.71	226.91
1004.99	226.88
1005.28	226.93
1005.57	226.86
1005.86	226.81
1006.15	226.74
1006.44	226.65
1006.72	226.72
1007.01	226.59
1007.30	226.61
1007.59	226.50
1007.88	226.50
1008.17	226.56
1008.45	226.48
1008.74	226.32
1009.03	226.14
1009.32	226.10
1009.60	226.11
1009.89	226.05
1010.18	225.86
1010.47	225.87
1010.76	225.97
1011.04	225.90
1011.33	225.97
1011.62	226.01
1011.91	226.09
1012.19	226.07
1012.48	226.07
1012.77	226.15
1013.05	226.38
1013.34	226.38
1013.63	226.40
1013.92	226.42
1014.20	226.40
1014.49	226.46
1014.78	226.46
1015.06	226.23
1015.35	226.24
1015.64	226.26
1015.92	226.34
1016.21	226.33
1016.50	226.28
1016.78	226.28
1017.07	226.40
1017.36	226.28
1017.64	226.19
1017.93	226.23
1018.22	226.23
1018.50	226.21
1018.79	226.12
1019.08	225.96
1019.36	225.94
1019.65	225.89
1019.93	225.99
1020.22	226.07
1020.51	226.15
1020.79	226.15
1021.08	226.15
1021.36	224.60
1021.65	226.20
1021.94	227.15
1022.22	225.75
1022.51	225.20
1022.79	228.40
1023.08	227.70
1023.36	229.30
1023.65	225.45
>>>>>End Processed Spectral Data<<<<<
