SpectraSuite Data File
++++++++++++++++++++++++++++++++++++
Date: Wed Sep 04 17:44:20 EDT 2013
User: lab3
Dark Spectrum Present: Yes
Reference Spectrum Present: No
Number of Sampled Component Spectra: 1
Spectrometers: USB2E7196
Integration Time (usec): 170000 (USB2E7196)
Spectra Averaged: 20 (USB2E7196)
Boxcar Smoothing: 10 (USB2E7196)
Correct for Electrical Dark: No (USB2E7196)
Strobe/Lamp Enabled: No (USB2E7196)
Correct for Detector Non-linearity: No (USB2E7196)
Correct for Stray Light: No (USB2E7196)
Number of Pixels in Processed Spectrum: 2048
>>>>>Begin Processed Spectral Data<<<<<
339.09	0.00
339.48	212.95
339.86	213.90
340.24	215.40
340.63	216.85
341.01	225.15
341.39	218.35
341.78	222.55
342.16	223.55
342.54	222.80
342.93	211.68
343.31	222.41
343.69	222.90
344.07	223.41
344.46	223.90
344.84	224.26
345.22	224.27
345.60	224.62
345.99	224.71
346.37	224.81
346.75	224.94
347.13	224.99
347.52	225.05
347.90	225.31
348.28	225.40
348.66	225.55
349.05	225.38
349.43	225.48
349.81	225.60
350.19	225.66
350.57	225.81
350.96	225.93
351.34	225.96
351.72	226.08
352.10	226.12
352.48	226.09
352.87	226.19
353.25	226.26
353.63	226.32
354.01	226.40
354.39	226.54
354.77	226.57
355.15	226.75
355.54	226.80
355.92	226.68
356.30	226.66
356.68	227.08
357.06	227.20
357.44	227.24
357.82	227.34
358.20	227.80
358.58	227.82
358.97	227.91
359.35	228.10
359.73	228.27
360.11	228.40
360.49	228.51
360.87	228.56
361.25	228.68
361.63	228.89
362.01	228.90
362.39	228.87
362.77	228.95
363.15	228.90
363.53	228.96
363.91	229.11
364.29	229.20
364.67	228.77
365.05	228.83
365.43	228.92
365.81	228.97
366.19	228.88
366.57	229.11
366.95	229.12
367.33	229.03
367.71	229.08
368.09	229.14
368.47	229.14
368.85	229.11
369.23	229.15
369.61	229.00
369.99	229.17
370.37	229.30
370.75	229.61
371.13	229.59
371.51	229.54
371.89	229.51
372.27	229.52
372.65	229.56
373.03	229.57
373.41	229.50
373.78	229.43
374.16	229.10
374.54	228.89
374.92	228.81
375.30	228.82
375.68	228.62
376.06	228.54
376.44	228.48
376.82	228.49
377.19	228.41
377.57	228.32
377.95	228.11
378.33	227.90
378.71	227.53
379.09	227.53
379.47	227.44
379.84	227.27
380.22	227.11
380.60	227.01
380.98	226.90
381.36	226.85
381.73	226.71
382.11	226.85
382.49	226.75
382.87	226.60
383.25	226.48
383.62	226.96
384.00	226.83
384.38	226.77
384.76	226.84
385.13	226.97
385.51	226.85
385.89	226.76
386.27	226.80
386.64	226.81
387.02	226.69
387.40	226.63
387.78	226.68
388.15	226.60
388.53	226.50
388.91	226.48
389.29	226.40
389.66	226.42
390.04	226.32
390.42	226.42
390.79	226.42
391.17	226.36
391.55	225.80
391.92	225.84
392.30	225.87
392.68	225.66
393.05	225.61
393.43	225.74
393.81	225.79
394.18	225.70
394.56	225.68
394.94	225.78
395.31	225.80
395.69	225.90
396.06	226.02
396.44	226.05
396.82	225.97
397.19	226.27
397.57	226.26
397.95	226.26
398.32	226.13
398.70	226.27
399.07	226.46
399.45	226.57
399.82	226.63
400.20	226.78
400.58	226.90
400.95	226.81
401.33	226.98
401.70	227.40
402.08	227.55
402.45	227.62
402.83	227.87
403.20	228.02
403.58	228.18
403.95	228.43
404.33	228.67
404.71	228.91
405.08	229.33
405.46	229.53
405.83	229.85
406.21	230.14
406.58	230.42
406.96	230.65
407.33	230.95
407.70	231.29
408.08	232.00
408.45	232.41
408.83	232.91
409.20	233.17
409.58	233.34
409.95	233.85
410.33	234.40
410.70	234.73
411.08	235.37
411.45	235.85
411.82	236.37
412.20	237.14
412.57	238.17
412.95	238.44
413.32	239.28
413.69	240.05
414.07	241.00
414.44	241.91
414.82	242.96
415.19	244.23
415.56	245.37
415.94	246.30
416.31	247.72
416.68	249.08
417.06	250.75
417.43	252.32
417.81	254.04
418.18	255.82
418.55	257.68
418.93	259.61
419.30	261.81
419.67	264.04
420.04	266.17
420.42	268.46
420.79	271.46
421.16	274.23
421.54	277.18
421.91	280.07
422.28	283.05
422.66	286.23
423.03	289.51
423.40	292.75
423.77	296.21
424.15	299.66
424.52	303.35
424.89	307.39
425.26	311.30
425.64	314.97
426.01	318.97
426.38	323.35
426.75	327.70
427.13	332.05
427.50	336.67
427.87	341.44
428.24	346.10
428.61	350.46
428.99	355.55
429.36	360.91
429.73	366.24
430.10	371.54
430.47	377.01
430.85	382.43
431.22	388.40
431.59	395.07
431.96	401.15
432.33	407.96
432.70	414.32
433.08	421.87
433.45	428.91
433.82	436.10
434.19	444.00
434.56	451.82
434.93	459.33
435.30	466.78
435.68	475.04
436.05	483.25
436.42	491.32
436.79	498.63
437.16	506.75
437.53	515.23
437.90	523.88
438.27	532.25
438.64	540.79
439.01	548.79
439.38	555.53
439.75	562.48
440.13	570.09
440.50	577.48
440.87	583.39
441.24	589.65
441.61	596.45
441.98	601.34
442.35	606.98
442.72	612.72
443.09	618.58
443.46	622.05
443.83	624.15
444.20	626.19
444.57	628.88
444.94	629.87
445.31	630.95
445.68	632.12
446.05	632.19
446.42	631.00
446.79	629.75
447.16	628.30
447.53	627.10
447.90	623.54
448.27	620.05
448.64	615.39
449.01	611.93
449.37	606.01
449.74	600.22
450.11	593.67
450.48	586.17
450.85	578.21
451.22	571.46
451.59	565.12
451.96	558.87
452.33	551.02
452.70	543.95
453.07	535.59
453.43	526.91
453.80	518.85
454.17	511.20
454.54	503.66
454.91	495.61
455.28	487.79
455.65	480.63
456.02	473.84
456.38	467.63
456.75	460.00
457.12	453.63
457.49	447.49
457.86	441.28
458.23	436.31
458.59	430.86
458.96	425.37
459.33	420.43
459.70	415.54
460.07	411.60
460.43	407.06
460.80	402.83
461.17	399.14
461.54	395.32
461.91	391.53
462.27	387.87
462.64	384.79
463.01	381.43
463.38	378.19
463.74	374.41
464.11	371.44
464.48	368.97
464.85	366.19
465.21	364.09
465.58	361.89
465.95	359.19
466.32	356.90
466.68	354.69
467.05	352.53
467.42	350.27
467.78	348.07
468.15	345.95
468.52	344.44
468.88	342.24
469.25	340.34
469.62	338.94
469.98	337.27
470.35	335.80
470.72	334.32
471.08	332.77
471.45	331.51
471.82	330.36
472.18	329.00
472.55	328.02
472.92	326.74
473.28	325.60
473.65	324.59
474.02	323.68
474.38	322.89
474.75	322.23
475.11	321.48
475.48	320.85
475.85	320.22
476.21	319.67
476.58	319.25
476.94	318.84
477.31	318.50
477.67	318.07
478.04	317.75
478.41	317.60
478.77	317.80
479.14	317.56
479.50	317.47
479.87	317.43
480.23	317.46
480.60	317.44
480.96	317.53
481.33	317.93
481.69	318.05
482.06	318.28
482.42	318.65
482.79	318.99
483.15	319.35
483.52	319.99
483.88	320.46
484.25	320.99
484.61	321.67
484.98	322.15
485.34	323.19
485.71	324.12
486.07	325.12
486.44	325.90
486.80	327.00
487.17	328.06
487.53	329.46
487.90	330.82
488.26	332.53
488.62	334.24
488.99	335.61
489.35	337.41
489.72	339.21
490.08	341.06
490.44	343.08
490.81	345.44
491.17	347.65
491.54	350.16
491.90	352.75
492.26	355.35
492.63	358.27
492.99	361.06
493.36	364.12
493.72	367.47
494.08	370.70
494.45	374.43
494.81	378.22
495.17	382.16
495.54	386.26
495.90	390.37
496.26	394.77
496.63	399.44
496.99	404.06
497.35	409.12
497.72	414.45
498.08	419.85
498.44	425.38
498.80	431.29
499.17	437.26
499.53	443.41
499.89	450.02
500.26	456.63
500.62	463.61
500.98	470.93
501.34	478.16
501.71	485.71
502.07	493.34
502.43	501.53
502.79	509.61
503.16	518.09
503.52	526.93
503.88	536.01
504.24	545.45
504.60	555.56
504.97	565.63
505.33	575.70
505.69	586.62
506.05	597.57
506.41	608.51
506.78	620.01
507.14	631.66
507.50	643.71
507.86	655.87
508.22	668.46
508.59	681.01
508.95	694.43
509.31	708.47
509.67	722.63
510.03	736.67
510.39	751.24
510.75	766.21
511.12	781.17
511.48	796.51
511.84	811.95
512.20	827.27
512.56	843.19
512.92	859.64
513.28	876.00
513.64	892.88
514.00	910.12
514.37	927.30
514.73	944.96
515.09	962.84
515.45	981.01
515.81	999.07
516.17	1017.55
516.53	1035.67
516.89	1053.90
517.25	1072.60
517.61	1092.01
517.97	1111.33
518.33	1130.76
518.69	1150.48
519.05	1170.08
519.41	1190.17
519.77	1210.85
520.13	1231.01
520.49	1250.88
520.85	1271.17
521.21	1291.53
521.57	1312.03
521.93	1332.05
522.29	1352.72
522.65	1372.76
523.01	1393.17
523.37	1412.98
523.73	1433.27
524.09	1453.32
524.45	1473.16
524.81	1493.18
525.17	1513.33
525.53	1533.40
525.89	1553.39
526.25	1573.52
526.61	1593.28
526.97	1613.34
527.33	1633.54
527.68	1654.33
528.04	1674.69
528.40	1695.01
528.76	1715.15
529.12	1735.02
529.48	1755.41
529.84	1774.67
530.20	1794.85
530.56	1814.77
530.91	1835.06
531.27	1854.60
531.63	1873.95
531.99	1893.53
532.35	1912.73
532.71	1932.08
533.07	1952.04
533.42	1970.76
533.78	1989.38
534.14	2008.50
534.50	2026.64
534.86	2044.89
535.21	2061.53
535.57	2079.51
535.93	2096.22
536.29	2113.20
536.65	2130.14
537.00	2146.40
537.36	2162.92
537.72	2178.11
538.08	2194.05
538.44	2209.72
538.79	2225.17
539.15	2240.90
539.51	2256.04
539.87	2270.52
540.22	2283.25
540.58	2296.40
540.94	2309.30
541.29	2321.28
541.65	2333.00
542.01	2344.81
542.37	2354.32
542.72	2364.35
543.08	2373.69
543.44	2384.49
543.79	2393.39
544.15	2402.18
544.51	2411.57
544.87	2420.38
545.22	2428.56
545.58	2435.42
545.94	2441.83
546.29	2447.58
546.65	2453.05
547.01	2458.02
547.36	2462.62
547.72	2467.70
548.07	2470.79
548.43	2475.05
548.79	2478.88
549.14	2482.05
549.50	2485.05
549.86	2488.51
550.21	2492.02
550.57	2494.78
550.92	2495.44
551.28	2496.33
551.64	2498.44
551.99	2499.44
552.35	2500.35
552.70	2502.10
553.06	2503.34
553.41	2503.88
553.77	2505.05
554.13	2505.90
554.48	2506.66
554.84	2507.53
555.19	2507.97
555.55	2509.51
555.90	2508.64
556.26	2507.34
556.61	2505.56
556.97	2503.05
557.32	2502.20
557.68	2500.50
558.03	2498.51
558.39	2496.96
558.74	2495.70
559.10	2492.18
559.45	2488.35
559.81	2483.86
560.16	2478.25
560.52	2473.19
560.87	2468.60
561.23	2462.99
561.58	2457.17
561.94	2449.94
562.29	2442.17
562.64	2434.94
563.00	2426.45
563.35	2419.48
563.71	2412.61
564.06	2406.35
564.42	2399.76
564.77	2392.48
565.12	2384.99
565.48	2377.51
565.83	2369.33
566.19	2361.25
566.54	2353.14
566.89	2345.04
567.25	2337.33
567.60	2329.97
567.96	2322.14
568.31	2314.36
568.66	2305.67
569.02	2296.65
569.37	2288.65
569.72	2281.41
570.08	2272.39
570.43	2263.02
570.78	2254.10
571.14	2244.96
571.49	2234.75
571.84	2225.35
572.20	2214.66
572.55	2204.37
572.90	2193.55
573.26	2183.53
573.61	2172.89
573.96	2161.96
574.31	2150.38
574.67	2138.76
575.02	2126.67
575.37	2114.72
575.72	2101.83
576.08	2090.20
576.43	2078.05
576.78	2065.45
577.13	2052.32
577.49	2040.25
577.84	2028.84
578.19	2017.17
578.54	2005.08
578.90	1993.31
579.25	1981.49
579.60	1969.60
579.95	1957.30
580.30	1944.71
580.66	1931.78
581.01	1918.46
581.36	1905.09
581.71	1892.92
582.06	1880.73
582.42	1868.58
582.77	1856.23
583.12	1844.75
583.47	1832.94
583.82	1821.56
584.17	1810.01
584.53	1798.63
584.88	1786.07
585.23	1773.56
585.58	1760.03
585.93	1747.39
586.28	1734.87
586.63	1721.38
586.98	1707.87
587.34	1695.13
587.69	1682.70
588.04	1670.85
588.39	1659.72
588.74	1648.12
589.09	1636.82
589.44	1624.53
589.79	1612.96
590.14	1601.65
590.49	1589.94
590.84	1578.34
591.19	1567.02
591.54	1555.48
591.89	1543.75
592.25	1534.10
592.60	1523.02
592.95	1512.31
593.30	1500.99
593.65	1489.52
594.00	1478.30
594.35	1469.25
594.70	1458.13
595.05	1447.25
595.40	1435.55
595.75	1424.00
596.10	1413.49
596.45	1402.41
596.80	1392.20
597.15	1381.33
597.50	1370.20
597.85	1359.70
598.19	1348.77
598.54	1337.49
598.89	1326.93
599.24	1316.78
599.59	1305.91
599.94	1295.84
600.29	1285.95
600.64	1276.36
600.99	1266.38
601.34	1257.38
601.69	1246.53
602.04	1237.42
602.39	1228.27
602.74	1219.79
603.08	1210.84
603.43	1202.21
603.78	1193.33
604.13	1184.28
604.48	1175.29
604.83	1166.13
605.18	1156.78
605.53	1148.07
605.87	1139.56
606.22	1131.35
606.57	1122.82
606.92	1113.68
607.27	1105.15
607.62	1096.80
607.96	1088.85
608.31	1081.52
608.66	1073.68
609.01	1065.69
609.36	1057.71
609.70	1049.61
610.05	1041.49
610.40	1033.78
610.75	1025.36
611.10	1017.19
611.44	1009.20
611.79	1001.61
612.14	994.16
612.49	986.80
612.83	979.61
613.18	972.23
613.53	965.04
613.88	957.49
614.22	950.40
614.57	942.92
614.92	935.41
615.27	928.09
615.61	920.72
615.96	913.40
616.31	906.38
616.65	899.56
617.00	892.84
617.35	885.85
617.70	878.96
618.04	872.40
618.39	866.04
618.74	859.84
619.08	853.25
619.43	846.65
619.78	839.94
620.12	833.24
620.47	826.76
620.82	820.04
621.16	813.73
621.51	807.66
621.85	801.58
622.20	795.60
622.55	789.54
622.89	783.54
623.24	777.55
623.59	771.63
623.93	765.68
624.28	759.94
624.62	754.81
624.97	749.39
625.32	744.00
625.66	738.28
626.01	732.62
626.35	727.55
626.70	722.52
627.04	717.64
627.39	712.22
627.73	707.34
628.08	702.57
628.43	697.42
628.77	692.36
629.12	687.70
629.46	683.05
629.81	678.48
630.15	673.99
630.50	669.37
630.84	664.76
631.19	660.29
631.53	656.01
631.88	650.90
632.22	646.34
632.57	641.95
632.91	637.71
633.26	633.58
633.60	629.07
633.95	624.63
634.29	620.02
634.64	615.99
634.98	611.47
635.32	607.30
635.67	603.70
636.01	599.81
636.36	595.61
636.70	591.86
637.05	587.91
637.39	584.05
637.73	580.28
638.08	576.54
638.42	572.62
638.77	568.40
639.11	564.43
639.45	560.42
639.80	556.35
640.14	552.54
640.49	548.78
640.83	545.22
641.17	541.73
641.52	538.28
641.86	534.87
642.20	531.83
642.55	528.36
642.89	524.90
643.23	521.53
643.58	518.52
643.92	514.97
644.26	511.68
644.61	508.56
644.95	505.38
645.29	502.19
645.64	499.21
645.98	496.41
646.32	493.94
646.66	490.98
647.01	488.14
647.35	485.46
647.69	482.58
648.04	479.88
648.38	477.19
648.72	474.50
649.06	471.75
649.41	468.94
649.75	466.09
650.09	463.17
650.43	460.50
650.78	457.72
651.12	454.94
651.46	452.38
651.80	449.71
652.14	447.08
652.49	444.61
652.83	442.12
653.17	439.60
653.51	436.87
653.85	434.65
654.20	432.35
654.54	429.95
654.88	427.56
655.22	425.47
655.56	423.19
655.90	421.01
656.25	418.74
656.59	416.52
656.93	414.41
657.27	412.66
657.61	410.43
657.95	408.33
658.29	406.38
658.64	404.39
658.98	402.31
659.32	400.23
659.66	398.25
660.00	396.37
660.34	394.45
660.68	392.57
661.02	390.50
661.36	388.64
661.70	386.67
662.05	384.92
662.39	382.97
662.73	381.31
663.07	379.85
663.41	378.13
663.75	376.37
664.09	374.71
664.43	372.66
664.77	371.17
665.11	369.50
665.45	367.87
665.79	366.41
666.13	364.78
666.47	363.16
666.81	361.51
667.15	359.89
667.49	358.45
667.83	357.23
668.17	355.87
668.51	354.55
668.85	353.32
669.19	352.15
669.53	350.63
669.87	349.12
670.21	347.65
670.55	346.40
670.89	345.44
671.23	344.24
671.57	343.11
671.91	341.77
672.25	340.48
672.58	339.45
672.92	337.99
673.26	336.81
673.60	335.75
673.94	334.59
674.28	333.44
674.62	332.42
674.96	331.03
675.30	329.94
675.64	328.76
675.97	327.59
676.31	326.24
676.65	325.10
676.99	324.17
677.33	322.94
677.67	321.93
678.01	320.54
678.34	319.41
678.68	318.42
679.02	317.33
679.36	316.47
679.70	315.44
680.04	314.57
680.37	313.70
680.71	312.77
681.05	311.93
681.39	311.10
681.73	310.10
682.06	309.37
682.40	308.62
682.74	307.85
683.08	307.16
683.42	306.26
683.75	305.58
684.09	304.64
684.43	303.98
684.77	303.21
685.10	302.50
685.44	301.74
685.78	300.98
686.12	300.29
686.45	299.49
686.79	298.70
687.13	298.04
687.46	297.30
687.80	296.68
688.14	295.93
688.48	295.25
688.81	294.49
689.15	293.80
689.49	292.97
689.82	292.34
690.16	291.51
690.50	290.92
690.83	290.19
691.17	289.54
691.51	288.80
691.84	288.17
692.18	287.44
692.52	286.82
692.85	286.25
693.19	285.76
693.52	285.10
693.86	284.50
694.20	283.84
694.53	283.24
694.87	282.57
695.21	281.94
695.54	281.30
695.88	280.68
696.21	279.95
696.55	279.44
696.88	278.84
697.22	278.22
697.56	277.69
697.89	277.17
698.23	276.70
698.56	276.22
698.90	275.66
699.23	275.22
699.57	274.73
699.90	274.08
700.24	273.52
700.58	273.11
700.91	272.66
701.25	272.63
701.58	272.51
701.92	272.16
702.25	271.77
702.59	271.30
702.92	270.95
703.26	270.68
703.59	270.20
703.93	270.19
704.26	269.83
704.60	269.54
704.93	269.15
705.26	268.75
705.60	268.44
705.93	267.98
706.27	267.72
706.60	267.50
706.94	267.39
707.27	266.94
707.61	266.64
707.94	266.29
708.27	265.54
708.61	264.81
708.94	264.36
709.28	263.98
709.61	263.59
709.94	263.31
710.28	262.99
710.61	262.67
710.95	261.89
711.28	261.91
711.61	261.48
711.95	261.27
712.28	260.78
712.61	260.35
712.95	260.32
713.28	260.14
713.61	259.70
713.95	259.28
714.28	259.05
714.61	258.65
714.95	258.32
715.28	257.94
715.61	257.65
715.95	257.41
716.28	257.09
716.61	256.94
716.95	256.54
717.28	256.18
717.61	255.89
717.94	255.63
718.28	254.98
718.61	254.69
718.94	254.26
719.27	254.05
719.61	253.90
719.94	253.46
720.27	253.02
720.60	252.78
720.94	252.49
721.27	252.20
721.60	252.00
721.93	251.66
722.27	251.59
722.60	251.46
722.93	251.17
723.26	251.15
723.59	250.78
723.93	250.64
724.26	250.44
724.59	250.10
724.92	249.89
725.25	249.78
725.59	249.55
725.92	249.51
726.25	249.28
726.58	249.07
726.91	248.79
727.24	248.66
727.57	248.36
727.91	248.14
728.24	248.05
728.57	247.84
728.90	247.85
729.23	247.58
729.56	247.57
729.89	247.34
730.22	246.95
730.55	246.73
730.89	246.55
731.22	246.36
731.55	246.18
731.88	246.00
732.21	245.82
732.54	245.57
732.87	245.32
733.20	245.23
733.53	245.04
733.86	245.04
734.19	244.85
734.52	244.86
734.85	244.97
735.18	244.65
735.51	244.67
735.84	244.42
736.17	244.35
736.50	243.92
736.83	244.36
737.16	244.26
737.49	244.23
737.82	244.04
738.15	243.95
738.48	243.91
738.81	243.76
739.14	243.53
739.47	243.37
739.80	243.22
740.13	243.14
740.46	242.88
740.79	242.71
741.12	242.59
741.45	242.30
741.78	241.98
742.11	242.12
742.44	241.86
742.77	241.84
743.10	241.62
743.43	241.50
743.75	240.86
744.08	241.32
744.41	241.12
744.74	241.00
745.07	240.78
745.40	240.76
745.73	240.89
746.06	240.75
746.39	240.77
746.71	240.65
747.04	240.50
747.37	240.46
747.70	240.35
748.03	240.23
748.36	240.26
748.68	240.18
749.01	239.84
749.34	239.78
749.67	239.64
750.00	239.62
750.33	239.82
750.65	239.78
750.98	239.10
751.31	239.03
751.64	238.95
751.97	239.20
752.29	239.00
752.62	238.65
752.95	238.47
753.28	238.27
753.60	238.10
753.93	238.05
754.26	238.02
754.59	237.81
754.91	237.63
755.24	237.53
755.57	237.33
755.90	237.27
756.22	237.11
756.55	236.94
756.88	236.70
757.20	236.32
757.53	236.09
757.86	235.97
758.19	235.87
758.51	235.74
758.84	235.35
759.17	235.25
759.49	235.21
759.82	235.39
760.15	235.39
760.47	235.29
760.80	235.06
761.13	234.96
761.45	234.80
761.78	234.76
762.11	234.52
762.43	234.44
762.76	234.25
763.08	234.24
763.41	234.26
763.74	234.20
764.06	234.10
764.39	233.99
764.71	233.93
765.04	233.79
765.37	233.66
765.69	233.57
766.02	233.47
766.34	233.27
766.67	233.07
767.00	233.03
767.32	233.24
767.65	233.47
767.97	233.35
768.30	233.36
768.62	233.23
768.95	233.17
769.27	233.06
769.60	233.11
769.92	232.91
770.25	232.67
770.57	232.56
770.90	232.49
771.22	232.43
771.55	232.36
771.87	232.33
772.20	232.31
772.52	232.68
772.85	233.10
773.17	233.09
773.50	232.89
773.82	232.74
774.15	232.49
774.47	232.15
774.80	232.02
775.12	231.95
775.45	231.89
775.77	231.90
776.09	231.89
776.42	231.90
776.74	232.02
777.07	231.96
777.39	231.97
777.72	231.95
778.04	231.93
778.36	231.94
778.69	231.90
779.01	231.87
779.33	231.35
779.66	230.87
779.98	230.79
780.31	230.88
780.63	231.06
780.95	231.05
781.28	231.03
781.60	231.01
781.92	230.97
782.25	230.95
782.57	230.92
782.89	230.86
783.22	230.73
783.54	230.58
783.86	230.58
784.19	230.50
784.51	230.61
784.83	230.51
785.16	230.40
785.48	230.44
785.80	230.39
786.12	230.44
786.45	230.40
786.77	230.50
787.09	230.45
787.42	230.26
787.74	230.25
788.06	230.23
788.38	230.22
788.71	230.20
789.03	230.17
789.35	230.20
789.67	230.13
789.99	230.17
790.32	230.12
790.64	230.14
790.96	230.49
791.28	230.31
791.61	230.35
791.93	230.31
792.25	230.27
792.57	230.63
792.89	230.46
793.21	230.41
793.54	230.29
793.86	230.23
794.18	230.24
794.50	230.13
794.82	230.15
795.14	230.22
795.47	230.28
795.79	230.31
796.11	230.12
796.43	230.02
796.75	229.95
797.07	229.97
797.39	229.93
797.71	229.55
798.04	229.48
798.36	229.50
798.68	229.54
799.00	229.55
799.32	229.21
799.64	229.35
799.96	229.31
800.28	229.36
800.60	229.29
800.92	229.27
801.24	229.21
801.56	229.13
801.89	229.02
802.21	229.02
802.53	228.87
802.85	228.99
803.17	229.26
803.49	229.13
803.81	229.00
804.13	228.90
804.45	228.90
804.77	228.94
805.09	228.85
805.41	228.76
805.73	228.65
806.05	228.51
806.37	228.37
806.69	228.36
807.01	228.29
807.33	228.26
807.65	228.09
807.97	228.28
808.28	228.24
808.60	228.19
808.92	228.11
809.24	228.44
809.56	228.39
809.88	228.18
810.20	228.20
810.52	228.30
810.84	228.27
811.16	228.18
811.48	228.17
811.80	228.33
812.12	228.23
812.43	228.35
812.75	228.37
813.07	228.36
813.39	228.43
813.71	228.39
814.03	228.43
814.35	228.45
814.67	228.24
814.98	228.23
815.30	228.19
815.62	228.11
815.94	227.65
816.26	227.84
816.58	227.65
816.89	227.75
817.21	227.65
817.53	227.71
817.85	227.75
818.17	227.67
818.48	227.50
818.80	227.61
819.12	227.46
819.44	227.38
819.76	227.30
820.07	227.18
820.39	227.12
820.71	227.14
821.03	227.19
821.34	227.20
821.66	227.34
821.98	227.39
822.30	227.30
822.61	227.67
822.93	227.41
823.25	227.49
823.57	227.40
823.88	227.47
824.20	227.35
824.52	227.35
824.83	227.26
825.15	227.18
825.47	227.14
825.79	227.19
826.10	227.24
826.42	227.21
826.74	227.29
827.05	227.33
827.37	227.33
827.69	227.23
828.00	227.24
828.32	227.16
828.64	227.15
828.95	227.48
829.27	227.32
829.58	227.31
829.90	227.45
830.22	227.44
830.53	227.30
830.85	227.34
831.17	227.21
831.48	227.32
831.80	227.36
832.11	227.34
832.43	227.26
832.75	227.23
833.06	227.54
833.38	227.37
833.69	227.33
834.01	227.31
834.32	227.30
834.64	227.15
834.96	227.08
835.27	227.06
835.59	226.82
835.90	226.81
836.22	226.80
836.53	226.63
836.85	226.66
837.16	227.14
837.48	227.17
837.79	227.37
838.11	227.37
838.42	227.34
838.74	227.40
839.05	227.34
839.37	227.35
839.68	227.00
840.00	227.11
840.31	227.12
840.63	227.11
840.94	227.05
841.26	227.13
841.57	227.10
841.88	227.11
842.20	227.08
842.51	226.98
842.83	227.01
843.14	227.50
843.46	227.49
843.77	227.21
844.08	227.17
844.40	227.00
844.71	226.96
845.03	226.95
845.34	226.88
845.65	226.88
845.97	226.88
846.28	226.90
846.60	226.88
846.91	226.87
847.22	226.85
847.54	226.93
847.85	226.95
848.16	226.99
848.48	226.96
848.79	227.11
849.10	227.15
849.42	227.13
849.73	226.68
850.04	226.58
850.36	226.47
850.67	226.55
850.98	226.62
851.30	226.67
851.61	226.66
851.92	226.70
852.23	226.89
852.55	226.83
852.86	226.87
853.17	226.97
853.49	227.01
853.80	227.07
854.11	227.12
854.42	227.10
854.74	227.00
855.05	227.00
855.36	226.82
855.67	226.76
855.99	226.75
856.30	227.29
856.61	227.29
856.92	227.25
857.23	227.18
857.55	227.06
857.86	227.03
858.17	227.09
858.48	226.96
858.79	226.80
859.11	226.88
859.42	226.80
859.73	226.63
860.04	226.61
860.35	226.47
860.66	226.36
860.98	226.40
861.29	226.49
861.60	226.48
861.91	226.58
862.22	226.55
862.53	226.52
862.84	226.00
863.16	226.13
863.47	226.05
863.78	226.08
864.09	226.17
864.40	226.15
864.71	226.14
865.02	226.25
865.33	226.19
865.64	226.13
865.95	226.23
866.27	226.56
866.58	226.55
866.89	226.61
867.20	226.59
867.51	226.52
867.82	226.45
868.13	226.59
868.44	226.40
868.75	226.57
869.06	226.62
869.37	226.63
869.68	226.49
869.99	226.63
870.30	226.69
870.61	226.69
870.92	226.65
871.23	226.63
871.54	226.70
871.85	226.88
872.16	226.92
872.47	226.85
872.78	226.54
873.09	226.49
873.40	226.53
873.71	226.49
874.02	226.50
874.33	226.51
874.64	226.36
874.95	226.50
875.26	226.27
875.56	226.21
875.87	226.20
876.18	226.14
876.49	226.60
876.80	226.49
877.11	226.41
877.42	226.45
877.73	226.44
878.04	226.36
878.35	226.25
878.66	226.27
878.96	226.25
879.27	226.23
879.58	226.30
879.89	226.25
880.20	226.52
880.51	226.52
880.82	226.50
881.12	226.62
881.43	226.54
881.74	226.64
882.05	226.65
882.36	226.69
882.67	226.83
882.97	226.33
883.28	226.28
883.59	226.27
883.90	226.29
884.21	226.35
884.51	226.33
884.82	226.33
885.13	226.33
885.44	226.38
885.74	226.45
886.05	226.48
886.36	226.42
886.67	226.19
886.98	226.44
887.28	226.55
887.59	226.50
887.90	226.61
888.20	226.52
888.51	226.59
888.82	226.48
889.13	226.43
889.43	226.78
889.74	226.77
890.05	226.76
890.35	226.76
890.66	226.68
890.97	226.68
891.28	226.67
891.58	226.62
891.89	226.56
892.20	226.50
892.50	226.36
892.81	226.34
893.12	226.30
893.42	226.06
893.73	226.01
894.04	225.94
894.34	225.89
894.65	225.90
894.95	225.77
895.26	225.79
895.57	226.05
895.87	225.58
896.18	225.76
896.48	225.80
896.79	225.74
897.10	225.86
897.40	225.88
897.71	225.87
898.01	225.87
898.32	225.93
898.63	225.83
898.93	225.89
899.24	225.92
899.54	225.93
899.85	225.90
900.15	225.89
900.46	225.99
900.76	226.04
901.07	226.11
901.38	226.14
901.68	226.24
901.99	225.97
902.29	225.96
902.60	225.79
902.90	225.79
903.21	225.80
903.51	225.69
903.82	225.81
904.12	225.80
904.43	225.89
904.73	225.82
905.03	225.95
905.34	226.45
905.64	226.43
905.95	226.47
906.25	226.42
906.56	226.37
906.86	226.25
907.17	226.16
907.47	226.13
907.77	226.15
908.08	225.96
908.38	226.08
908.69	226.20
908.99	226.33
909.30	226.34
909.60	226.37
909.90	226.42
910.21	226.22
910.51	226.15
910.81	226.10
911.12	226.22
911.42	226.25
911.73	225.73
912.03	225.80
912.33	225.84
912.64	225.94
912.94	225.90
913.24	225.92
913.55	225.90
913.85	225.89
914.15	225.96
914.46	226.11
914.76	226.00
915.06	225.92
915.37	225.86
915.67	225.90
915.97	225.88
916.27	225.77
916.58	225.87
916.88	225.86
917.18	225.81
917.49	226.05
917.79	225.97
918.09	226.06
918.39	226.16
918.70	226.19
919.00	226.20
919.30	226.44
919.60	226.40
919.91	226.35
920.21	226.34
920.51	226.20
920.81	226.16
921.12	226.26
921.42	226.30
921.72	226.39
922.02	226.35
922.32	226.44
922.63	226.44
922.93	226.63
923.23	226.63
923.53	226.61
923.83	226.36
924.13	226.47
924.44	226.38
924.74	226.40
925.04	226.45
925.34	226.36
925.64	226.12
925.94	226.11
926.24	226.48
926.55	226.47
926.85	226.60
927.15	226.60
927.45	226.61
927.75	226.59
928.05	226.56
928.35	226.55
928.65	226.64
928.95	226.73
929.26	226.54
929.56	226.74
929.86	226.76
930.16	226.67
930.46	226.60
930.76	226.66
931.06	226.46
931.36	226.36
931.66	226.50
931.96	226.64
932.26	226.60
932.56	226.34
932.86	226.40
933.16	226.38
933.46	226.35
933.76	226.17
934.06	226.23
934.36	226.35
934.66	226.34
934.96	226.18
935.26	226.18
935.56	226.20
935.86	226.05
936.16	225.98
936.46	225.99
936.76	226.03
937.06	226.02
937.36	226.02
937.66	226.07
937.96	226.01
938.26	225.92
938.56	225.97
938.86	225.95
939.16	226.00
939.46	225.99
939.76	226.04
940.06	226.11
940.35	226.05
940.65	225.75
940.95	225.77
941.25	225.69
941.55	225.69
941.85	225.71
942.15	225.80
942.45	225.93
942.75	225.92
943.04	225.93
943.34	226.03
943.64	226.03
943.94	225.92
944.24	225.91
944.54	225.96
944.84	225.99
945.13	225.93
945.43	225.82
945.73	225.87
946.03	225.77
946.33	225.73
946.62	225.67
946.92	225.76
947.22	225.80
947.52	225.89
947.82	225.92
948.11	225.82
948.41	225.71
948.71	225.62
949.01	225.67
949.31	225.62
949.60	225.58
949.90	225.70
950.20	225.71
950.50	225.65
950.79	225.60
951.09	225.64
951.39	225.62
951.69	225.67
951.98	225.74
952.28	225.80
952.58	225.80
952.87	225.90
953.17	225.96
953.47	225.89
953.76	225.86
954.06	225.73
954.36	225.68
954.66	225.71
954.95	225.87
955.25	225.88
955.55	225.87
955.84	225.76
956.14	225.79
956.44	225.82
956.73	225.72
957.03	225.69
957.32	225.65
957.62	225.76
957.92	225.79
958.21	225.73
958.51	226.18
958.81	226.26
959.10	226.27
959.40	226.34
959.69	226.36
959.99	226.41
960.29	226.45
960.58	226.51
960.88	226.62
961.17	226.51
961.47	226.48
961.76	226.38
962.06	226.48
962.36	226.36
962.65	226.31
962.95	226.39
963.24	226.36
963.54	226.28
963.83	226.21
964.13	226.20
964.42	226.06
964.72	225.72
965.01	225.68
965.31	225.57
965.60	225.42
965.90	225.73
966.19	225.56
966.49	225.60
966.78	225.58
967.08	225.59
967.37	225.52
967.67	225.47
967.96	225.63
968.26	225.54
968.55	225.60
968.85	225.58
969.14	225.53
969.43	225.54
969.73	225.57
970.02	225.54
970.32	225.45
970.61	225.35
970.91	225.18
971.20	225.13
971.49	225.13
971.79	225.21
972.08	224.77
972.38	224.85
972.67	224.80
972.96	224.81
973.26	224.68
973.55	224.87
973.85	224.92
974.14	224.85
974.43	224.90
974.73	224.80
975.02	224.79
975.31	224.82
975.61	224.84
975.90	224.84
976.19	224.83
976.49	224.91
976.78	225.01
977.07	225.00
977.37	224.96
977.66	225.01
977.95	224.88
978.24	224.96
978.54	225.07
978.83	225.01
979.12	225.04
979.42	225.04
979.71	224.99
980.00	224.91
980.29	224.98
980.59	224.92
980.88	225.10
981.17	225.15
981.46	225.18
981.76	225.12
982.05	225.26
982.34	225.30
982.63	225.28
982.93	225.27
983.22	225.50
983.51	225.56
983.80	225.65
984.09	225.81
984.39	225.85
984.68	225.79
984.97	225.90
985.26	225.86
985.55	225.88
985.85	225.78
986.14	225.88
986.43	225.94
986.72	225.94
987.01	225.76
987.30	225.76
987.59	225.71
987.89	225.83
988.18	225.70
988.47	225.67
988.76	225.63
989.05	225.66
989.34	225.51
989.63	225.69
989.92	225.61
990.22	225.47
990.51	225.39
990.80	225.33
991.09	225.36
991.38	225.46
991.67	225.47
991.96	225.45
992.25	225.47
992.54	225.30
992.83	225.30
993.12	225.31
993.41	225.38
993.70	225.61
993.99	225.62
994.28	225.70
994.58	225.76
994.87	225.74
995.16	225.72
995.45	225.67
995.74	225.46
996.03	225.58
996.32	225.71
996.61	225.92
996.90	225.98
997.19	225.94
997.48	225.87
997.77	225.85
998.06	225.85
998.34	225.75
998.63	225.80
998.92	225.84
999.21	225.89
999.50	225.89
999.79	225.75
1000.08	225.78
1000.37	225.75
1000.66	225.70
1000.95	225.88
1001.24	225.94
1001.53	225.97
1001.82	225.99
1002.11	225.84
1002.40	225.86
1002.68	225.91
1002.97	226.19
1003.26	226.16
1003.55	226.07
1003.84	226.10
1004.13	226.31
1004.42	226.31
1004.71	226.31
1004.99	226.30
1005.28	226.41
1005.57	226.36
1005.86	226.22
1006.15	226.24
1006.44	226.15
1006.72	226.26
1007.01	226.11
1007.30	226.15
1007.59	226.16
1007.88	226.16
1008.17	226.27
1008.45	226.22
1008.74	225.96
1009.03	225.77
1009.32	225.73
1009.60	225.84
1009.89	225.79
1010.18	225.56
1010.47	225.57
1010.76	225.57
1011.04	225.56
1011.33	225.57
1011.62	225.63
1011.91	225.70
1012.19	225.71
1012.48	225.75
1012.77	225.69
1013.05	225.98
1013.34	225.94
1013.63	225.95
1013.92	226.01
1014.20	225.91
1014.49	225.88
1014.78	226.03
1015.06	225.88
1015.35	225.93
1015.64	225.96
1015.92	225.99
1016.21	226.08
1016.50	226.07
1016.78	226.09
1017.07	226.05
1017.36	225.92
1017.64	225.84
1017.93	225.93
1018.22	225.83
1018.50	225.81
1018.79	225.80
1019.08	225.51
1019.36	225.55
1019.65	225.46
1019.93	225.53
1020.22	225.60
1020.51	225.86
1020.79	225.78
1021.08	225.00
1021.36	224.90
1021.65	225.25
1021.94	224.95
1022.22	226.25
1022.51	224.60
1022.79	227.25
1023.08	226.70
1023.36	231.20
1023.65	224.75
>>>>>End Processed Spectral Data<<<<<
