SpectraSuite Data File
++++++++++++++++++++++++++++++++++++
Date: Wed Sep 04 17:48:17 EDT 2013
User: lab3
Dark Spectrum Present: Yes
Reference Spectrum Present: No
Number of Sampled Component Spectra: 1
Spectrometers: USB2E7196
Integration Time (usec): 170000 (USB2E7196)
Spectra Averaged: 20 (USB2E7196)
Boxcar Smoothing: 10 (USB2E7196)
Correct for Electrical Dark: No (USB2E7196)
Strobe/Lamp Enabled: No (USB2E7196)
Correct for Detector Non-linearity: No (USB2E7196)
Correct for Stray Light: No (USB2E7196)
Number of Pixels in Processed Spectrum: 2048
>>>>>Begin Processed Spectral Data<<<<<
339.09	0.00
339.48	213.10
339.86	213.50
340.24	215.40
340.63	216.95
341.01	225.00
341.39	219.35
341.78	222.45
342.16	223.20
342.54	224.05
342.93	212.22
343.31	222.87
343.69	223.38
344.07	223.89
344.46	224.38
344.84	224.75
345.22	224.73
345.60	225.08
345.99	225.24
346.37	225.37
346.75	225.47
347.13	225.49
347.52	225.49
347.90	225.69
348.28	225.71
348.66	225.79
349.05	225.69
349.43	225.76
349.81	225.86
350.19	225.81
350.57	225.92
350.96	225.96
351.34	226.13
351.72	226.16
352.10	226.31
352.48	226.34
352.87	226.39
353.25	226.45
353.63	226.36
354.01	226.34
354.39	226.45
354.77	226.47
355.15	226.63
355.54	226.66
355.92	226.61
356.30	226.63
356.68	227.12
357.06	227.16
357.44	227.15
357.82	227.11
358.20	227.61
358.58	227.61
358.97	227.72
359.35	227.82
359.73	228.07
360.11	228.01
360.49	228.11
360.87	228.18
361.25	228.37
361.63	228.64
362.01	228.77
362.39	228.78
362.77	228.87
363.15	228.95
363.53	229.02
363.91	229.00
364.29	229.01
364.67	228.48
365.05	228.57
365.43	228.68
365.81	228.84
366.19	228.68
366.57	228.91
366.95	228.82
367.33	228.68
367.71	228.65
368.09	228.82
368.47	228.83
368.85	228.82
369.23	228.85
369.61	228.66
369.99	228.80
370.37	228.80
370.75	229.02
371.13	228.89
371.51	228.80
371.89	228.83
372.27	228.95
372.65	228.98
373.03	229.00
373.41	229.01
373.78	228.98
374.16	228.69
374.54	228.55
374.92	228.48
375.30	228.52
375.68	228.41
376.06	228.38
376.44	228.26
376.82	228.29
377.19	228.14
377.57	228.12
377.95	227.87
378.33	227.77
378.71	227.43
379.09	227.45
379.47	227.49
379.84	227.34
380.22	227.17
380.60	227.05
380.98	227.00
381.36	226.86
381.73	226.67
382.11	226.75
382.49	226.68
382.87	226.55
383.25	226.46
383.62	226.95
384.00	226.78
384.38	226.74
384.76	226.75
385.13	226.93
385.51	226.85
385.89	226.76
386.27	226.81
386.64	226.81
387.02	226.68
387.40	226.54
387.78	226.57
388.15	226.61
388.53	226.55
388.91	226.52
389.29	226.48
389.66	226.54
390.04	226.41
390.42	226.45
390.79	226.50
391.17	226.42
391.55	225.87
391.92	225.86
392.30	225.91
392.68	225.73
393.05	225.67
393.43	225.75
393.81	225.79
394.18	225.62
394.56	225.63
394.94	225.72
395.31	225.67
395.69	225.85
396.06	225.90
396.44	226.00
396.82	225.85
397.19	226.15
397.57	226.19
397.95	226.26
398.32	226.20
398.70	226.37
399.07	226.53
399.45	226.57
399.82	226.66
400.20	226.67
400.58	226.88
400.95	226.76
401.33	226.95
401.70	227.36
402.08	227.54
402.45	227.65
402.83	227.94
403.20	228.15
403.58	228.23
403.95	228.46
404.33	228.68
404.71	228.96
405.08	229.43
405.46	229.68
405.83	229.95
406.21	230.27
406.58	230.60
406.96	230.90
407.33	231.25
407.70	231.59
408.08	232.30
408.45	232.71
408.83	233.26
409.20	233.63
409.58	233.83
409.95	234.42
410.33	234.98
410.70	235.37
411.08	235.99
411.45	236.57
411.82	237.09
412.20	237.93
412.57	238.91
412.95	239.18
413.32	240.03
413.69	240.86
414.07	241.67
414.44	242.54
414.82	243.54
415.19	244.80
415.56	246.00
415.94	247.08
416.31	248.49
416.68	249.85
417.06	251.45
417.43	253.10
417.81	254.72
418.18	256.49
418.55	258.35
418.93	260.32
419.30	262.45
419.67	264.69
420.04	266.87
420.42	269.17
420.79	272.24
421.16	274.95
421.54	277.96
421.91	280.90
422.28	283.96
422.66	287.25
423.03	290.57
423.40	293.87
423.77	297.39
424.15	300.98
424.52	304.80
424.89	308.91
425.26	312.75
425.64	316.52
426.01	320.77
426.38	325.07
426.75	329.68
427.13	334.17
427.50	338.91
427.87	343.73
428.24	348.56
428.61	352.94
428.99	358.11
429.36	363.47
429.73	368.87
430.10	374.28
430.47	379.85
430.85	385.55
431.22	391.69
431.59	398.39
431.96	404.46
432.33	411.33
432.70	417.79
433.08	425.60
433.45	432.96
433.82	440.17
434.19	448.34
434.56	456.22
434.93	463.78
435.30	471.43
435.68	479.94
436.05	488.20
436.42	496.39
436.79	504.07
437.16	512.39
437.53	521.25
437.90	529.87
438.27	538.38
438.64	547.04
439.01	555.27
439.38	562.21
439.75	569.42
440.13	577.22
440.50	584.73
440.87	590.81
441.24	597.08
441.61	604.00
441.98	608.99
442.35	614.77
442.72	620.77
443.09	626.57
443.46	629.74
443.83	632.08
444.20	634.09
444.57	636.70
444.94	637.75
445.31	638.77
445.68	640.15
446.05	640.30
446.42	639.04
446.79	637.61
447.16	636.25
447.53	634.86
447.90	631.24
448.27	627.50
448.64	622.67
449.01	619.14
449.37	613.00
449.74	607.12
450.11	600.50
450.48	592.84
450.85	584.87
451.22	578.25
451.59	571.73
451.96	565.55
452.33	557.62
452.70	550.25
453.07	541.67
453.43	532.65
453.80	524.45
454.17	516.39
454.54	508.82
454.91	500.62
455.28	492.77
455.65	485.35
456.02	478.82
456.38	472.55
456.75	464.85
457.12	458.43
457.49	452.07
457.86	445.69
458.23	440.53
458.59	434.76
458.96	429.14
459.33	424.13
459.70	419.08
460.07	415.03
460.43	410.53
460.80	406.34
461.17	402.68
461.54	398.59
461.91	395.02
462.27	391.14
462.64	387.90
463.01	384.42
463.38	381.25
463.74	377.20
464.11	374.20
464.48	371.57
464.85	368.73
465.21	366.62
465.58	364.30
465.95	361.50
466.32	359.42
466.68	357.20
467.05	355.02
467.42	352.83
467.78	350.51
468.15	348.40
468.52	346.91
468.88	344.75
469.25	342.90
469.62	341.42
469.98	339.89
470.35	338.40
470.72	336.94
471.08	335.28
471.45	334.06
471.82	332.78
472.18	331.37
472.55	330.45
472.92	329.22
473.28	328.08
473.65	327.03
474.02	325.92
474.38	325.03
474.75	324.33
475.11	323.51
475.48	322.92
475.85	322.26
476.21	321.46
476.58	321.05
476.94	320.76
477.31	320.25
477.67	319.77
478.04	319.46
478.41	319.28
478.77	319.55
479.14	319.33
479.50	319.24
479.87	319.30
480.23	319.29
480.60	319.24
480.96	319.31
481.33	319.69
481.69	320.00
482.06	320.30
482.42	320.48
482.79	320.85
483.15	321.22
483.52	321.92
483.88	322.45
484.25	322.94
484.61	323.54
484.98	324.21
485.34	325.15
485.71	326.08
486.07	327.03
486.44	327.59
486.80	328.67
487.17	329.80
487.53	331.22
487.90	332.60
488.26	334.35
488.62	336.13
488.99	337.63
489.35	339.31
489.72	341.08
490.08	343.11
490.44	345.12
490.81	347.35
491.17	349.46
491.54	351.91
491.90	354.51
492.26	357.17
492.63	360.09
492.99	362.90
493.36	365.98
493.72	369.25
494.08	372.70
494.45	376.38
494.81	380.23
495.17	384.09
495.54	388.18
495.90	392.29
496.26	396.55
496.63	401.14
496.99	405.95
497.35	410.99
497.72	416.18
498.08	421.59
498.44	427.30
498.80	433.47
499.17	439.62
499.53	445.72
499.89	452.33
500.26	459.07
500.62	465.92
500.98	473.32
501.34	480.73
501.71	488.40
502.07	496.05
502.43	504.13
502.79	512.45
503.16	521.10
503.52	529.97
503.88	539.06
504.24	548.71
504.60	558.72
504.97	568.89
505.33	579.24
505.69	590.33
506.05	601.38
506.41	612.34
506.78	623.80
507.14	635.75
507.50	648.03
507.86	660.42
508.22	673.29
508.59	686.13
508.95	699.79
509.31	713.81
509.67	727.97
510.03	742.13
510.39	756.65
510.75	771.60
511.12	786.88
511.48	802.44
511.84	818.06
512.20	833.70
512.56	849.91
512.92	866.59
513.28	883.19
513.64	900.21
514.00	917.64
514.37	935.30
514.73	953.38
515.09	971.48
515.45	989.84
515.81	1008.25
516.17	1027.07
516.53	1045.24
516.89	1063.78
517.25	1083.05
517.61	1102.97
517.97	1123.11
518.33	1143.10
518.69	1163.22
519.05	1183.23
519.41	1203.59
519.77	1224.47
520.13	1244.96
520.49	1265.56
520.85	1287.41
521.21	1308.42
521.57	1329.40
521.93	1349.72
522.29	1370.73
522.65	1390.91
523.01	1411.70
523.37	1432.22
523.73	1452.76
524.09	1473.44
524.45	1493.81
524.81	1514.58
525.17	1534.89
525.53	1554.97
525.89	1575.35
526.25	1595.99
526.61	1616.51
526.97	1637.26
527.33	1658.21
527.68	1679.64
528.04	1700.45
528.40	1719.75
528.76	1740.34
529.12	1760.73
529.48	1781.44
529.84	1801.13
530.20	1822.13
530.56	1842.66
530.91	1863.49
531.27	1883.37
531.63	1903.75
531.99	1924.05
532.35	1943.55
532.71	1963.53
533.07	1984.11
533.42	2003.85
533.78	2022.96
534.14	2042.73
534.50	2061.50
534.86	2080.39
535.21	2097.62
535.57	2115.77
535.93	2133.49
536.29	2150.97
536.65	2168.52
537.00	2186.05
537.36	2203.34
537.72	2219.38
538.08	2236.15
538.44	2252.12
538.79	2268.21
539.15	2284.16
539.51	2299.64
539.87	2314.52
540.22	2328.34
540.58	2342.40
540.94	2355.09
541.29	2367.72
541.65	2379.85
542.01	2392.13
542.37	2402.34
542.72	2412.98
543.08	2423.34
543.44	2434.37
543.79	2443.90
544.15	2453.49
544.51	2463.07
544.87	2472.26
545.22	2480.83
545.58	2487.93
545.94	2494.88
546.29	2501.37
546.65	2507.22
547.01	2512.65
547.36	2517.89
547.72	2522.97
548.07	2526.49
548.43	2531.77
548.79	2536.10
549.14	2539.77
549.50	2543.42
549.86	2547.12
550.21	2550.70
550.57	2553.72
550.92	2554.75
551.28	2556.25
551.64	2558.41
551.99	2559.60
552.35	2560.93
552.70	2562.87
553.06	2564.57
553.41	2565.53
553.77	2567.06
554.13	2568.30
554.48	2569.77
554.84	2570.95
555.19	2571.99
555.55	2573.42
555.90	2572.35
556.26	2571.24
556.61	2569.56
556.97	2567.21
557.32	2566.21
557.68	2565.14
558.03	2563.42
558.39	2561.91
558.74	2560.62
559.10	2557.20
559.45	2553.46
559.81	2548.83
560.16	2543.31
560.52	2537.88
560.87	2533.34
561.23	2527.65
561.58	2522.13
561.94	2515.10
562.29	2507.68
562.64	2500.48
563.00	2492.47
563.35	2486.04
563.71	2479.39
564.06	2472.84
564.42	2466.30
564.77	2459.30
565.12	2451.58
565.48	2444.04
565.83	2436.24
566.19	2428.10
566.54	2420.16
566.89	2412.49
567.25	2405.00
567.60	2398.01
567.96	2390.73
568.31	2382.73
568.66	2374.41
569.02	2365.25
569.37	2357.11
569.72	2349.61
570.08	2340.65
570.43	2330.97
570.78	2321.91
571.14	2312.47
571.49	2302.60
571.84	2292.91
572.20	2282.32
572.55	2272.30
572.90	2261.51
573.26	2251.52
573.61	2240.50
573.96	2229.45
574.31	2217.31
574.67	2205.46
575.02	2192.67
575.37	2180.10
575.72	2167.01
576.08	2154.80
576.43	2142.30
576.78	2129.35
577.13	2115.84
577.49	2103.07
577.84	2091.32
578.19	2079.25
578.54	2067.05
578.90	2055.22
579.25	2042.95
579.60	2030.88
579.95	2017.78
580.30	2004.56
580.66	1991.03
581.01	1977.70
581.36	1963.86
581.71	1951.65
582.06	1939.09
582.42	1926.86
582.77	1914.17
583.12	1902.69
583.47	1890.59
583.82	1878.69
584.17	1866.63
584.53	1855.26
584.88	1842.51
585.23	1829.40
585.58	1815.38
585.93	1802.37
586.28	1789.12
586.63	1775.59
586.98	1761.29
587.34	1748.42
587.69	1735.67
588.04	1723.59
588.39	1711.93
588.74	1700.02
589.09	1688.15
589.44	1675.74
589.79	1663.75
590.14	1652.23
590.49	1639.99
590.84	1628.03
591.19	1616.47
591.54	1604.60
591.89	1592.31
592.25	1582.51
592.60	1571.49
592.95	1560.44
593.30	1548.59
593.65	1536.87
594.00	1525.07
594.35	1515.69
594.70	1504.05
595.05	1492.89
595.40	1480.93
595.75	1468.90
596.10	1457.96
596.45	1446.73
596.80	1436.04
597.15	1425.04
597.50	1413.63
597.85	1402.74
598.19	1391.41
598.54	1379.83
598.89	1368.80
599.24	1358.44
599.59	1346.98
599.94	1336.34
600.29	1326.30
600.64	1316.28
600.99	1305.93
601.34	1296.52
601.69	1285.50
602.04	1276.20
602.39	1266.66
602.74	1257.96
603.08	1249.08
603.43	1240.08
603.78	1230.48
604.13	1220.88
604.48	1211.31
604.83	1201.61
605.18	1191.90
605.53	1182.68
605.87	1174.02
606.22	1165.77
606.57	1156.78
606.92	1147.45
607.27	1138.59
607.62	1129.82
607.96	1121.34
608.31	1113.62
608.66	1105.45
609.01	1096.96
609.36	1088.46
609.70	1080.07
610.05	1071.47
610.40	1062.82
610.75	1054.18
611.10	1045.90
611.44	1037.35
611.79	1029.35
612.14	1021.80
612.49	1014.16
612.83	1006.88
613.18	999.14
613.53	991.41
613.88	983.51
614.22	975.95
614.57	968.47
614.92	960.78
615.27	953.55
615.61	945.99
615.96	938.52
616.31	931.33
616.65	924.49
617.00	917.42
617.35	910.24
617.70	903.49
618.04	896.67
618.39	889.85
618.74	883.94
619.08	877.37
619.43	870.50
619.78	863.50
620.12	856.27
620.47	849.56
620.82	842.55
621.16	835.98
621.51	829.86
621.85	823.46
622.20	817.11
622.55	810.55
622.89	804.13
623.24	797.91
623.59	791.62
623.93	785.26
624.28	779.25
624.62	773.75
624.97	768.06
625.32	762.21
625.66	756.59
626.01	750.42
626.35	744.86
626.70	739.46
627.04	734.40
627.39	729.10
627.73	723.88
628.08	718.96
628.43	713.65
628.77	708.31
629.12	703.13
629.46	698.29
629.81	693.59
630.15	688.95
630.50	684.04
630.84	679.39
631.19	674.80
631.53	670.18
631.88	665.07
632.22	660.18
632.57	656.04
632.91	651.37
633.26	646.92
633.60	642.25
633.95	637.65
634.29	632.95
634.64	628.76
634.98	624.03
635.32	619.65
635.67	615.73
636.01	611.61
636.36	607.51
636.70	603.53
637.05	599.47
637.39	595.33
637.73	591.48
638.08	587.52
638.42	583.41
638.77	579.28
639.11	575.06
639.45	570.94
639.80	566.57
640.14	562.73
640.49	558.96
640.83	555.37
641.17	551.75
641.52	548.22
641.86	544.64
642.20	541.56
642.55	538.00
642.89	534.48
643.23	531.04
643.58	527.89
643.92	524.13
644.26	520.77
644.61	517.72
644.95	514.46
645.29	511.10
645.64	508.05
645.98	505.03
646.32	502.25
646.66	499.33
647.01	496.45
647.35	493.60
647.69	490.63
648.04	487.89
648.38	485.22
648.72	482.36
649.06	479.37
649.41	476.39
649.75	473.54
650.09	470.72
650.43	467.90
650.78	464.88
651.12	462.31
651.46	459.57
651.80	456.89
652.14	454.21
652.49	451.82
652.83	449.21
653.17	446.67
653.51	443.96
653.85	441.63
654.20	439.20
654.54	436.75
654.88	434.42
655.22	432.19
655.56	429.78
655.90	427.55
656.25	425.39
656.59	423.20
656.93	421.06
657.27	419.13
657.61	416.91
657.95	414.83
658.29	412.74
658.64	410.72
658.98	408.59
659.32	406.33
659.66	404.24
660.00	402.24
660.34	400.31
660.68	398.39
661.02	396.32
661.36	394.39
661.70	392.44
662.05	390.46
662.39	388.47
662.73	386.75
663.07	385.24
663.41	383.44
663.75	381.57
664.09	379.79
664.43	377.81
664.77	376.16
665.11	374.54
665.45	372.88
665.79	371.26
666.13	369.49
666.47	367.88
666.81	366.25
667.15	364.51
667.49	362.93
667.83	361.64
668.17	360.13
668.51	358.68
668.85	357.37
669.19	356.25
669.53	354.83
669.87	353.25
670.21	351.60
670.55	350.24
670.89	349.15
671.23	347.77
671.57	346.41
671.91	345.16
672.25	343.85
672.58	342.66
672.92	341.19
673.26	340.00
673.60	338.90
673.94	337.71
674.28	336.63
674.62	335.52
674.96	334.08
675.30	332.98
675.64	331.86
675.97	330.54
676.31	329.17
676.65	327.91
676.99	327.01
677.33	325.86
677.67	324.82
678.01	323.41
678.34	322.45
678.68	321.54
679.02	320.43
679.36	319.35
679.70	318.28
680.04	317.47
680.37	316.48
680.71	315.47
681.05	314.56
681.39	313.71
681.73	312.75
682.06	311.92
682.40	311.03
682.74	310.15
683.08	309.46
683.42	308.65
683.75	307.82
684.09	306.85
684.43	306.05
684.77	305.16
685.10	304.56
685.44	303.76
685.78	302.90
686.12	302.14
686.45	301.32
686.79	300.43
687.13	299.69
687.46	299.05
687.80	298.45
688.14	297.65
688.48	296.87
688.81	296.11
689.15	295.52
689.49	294.77
689.82	294.01
690.16	293.15
690.50	292.42
690.83	291.79
691.17	291.05
691.51	290.35
691.84	289.83
692.18	289.02
692.52	288.21
692.85	287.64
693.19	287.25
693.52	286.67
693.86	286.08
694.20	285.46
694.53	284.83
694.87	284.10
695.21	283.46
695.54	282.87
695.88	282.23
696.21	281.48
696.55	280.91
696.88	280.31
697.22	279.71
697.56	279.20
697.89	278.60
698.23	278.11
698.56	277.59
698.90	276.98
699.23	276.42
699.57	276.02
699.90	275.41
700.24	274.73
700.58	274.39
700.91	274.00
701.25	273.88
701.58	273.76
701.92	273.50
702.25	273.06
702.59	272.59
702.92	272.22
703.26	271.90
703.59	271.44
703.93	271.41
704.26	271.10
704.60	270.78
704.93	270.32
705.26	269.86
705.60	269.45
705.93	268.96
706.27	268.73
706.60	268.42
706.94	268.20
707.27	267.82
707.61	267.37
707.94	267.01
708.27	266.25
708.61	265.50
708.94	264.98
709.28	264.69
709.61	264.34
709.94	263.97
710.28	263.51
710.61	263.21
710.95	262.46
711.28	262.45
711.61	262.01
711.95	261.86
712.28	261.47
712.61	261.15
712.95	261.07
713.28	260.98
713.61	260.56
713.95	260.04
714.28	259.66
714.61	259.33
714.95	258.94
715.28	258.61
715.61	258.25
715.95	257.98
716.28	257.58
716.61	257.34
716.95	256.94
717.28	256.73
717.61	256.40
717.94	256.13
718.28	255.43
718.61	255.06
718.94	254.66
719.27	254.45
719.61	254.22
719.94	253.83
720.27	253.26
720.60	253.03
720.94	252.84
721.27	252.63
721.60	252.44
721.93	252.21
722.27	252.10
722.60	251.97
722.93	251.68
723.26	251.45
723.59	251.12
723.93	251.00
724.26	250.83
724.59	250.58
724.92	250.38
725.25	250.26
725.59	250.11
725.92	249.93
726.25	249.73
726.58	249.61
726.91	249.38
727.24	249.29
727.57	249.06
727.91	248.81
728.24	248.72
728.57	248.47
728.90	248.32
729.23	247.96
729.56	247.94
729.89	247.80
730.22	247.62
730.55	247.46
730.89	247.27
731.22	247.05
731.55	246.92
731.88	246.80
732.21	246.60
732.54	246.39
732.87	246.20
733.20	246.09
733.53	245.86
733.86	245.75
734.19	245.48
734.52	245.34
734.85	245.49
735.18	245.25
735.51	245.21
735.84	245.08
736.17	245.10
736.50	244.80
736.83	245.22
737.16	245.05
737.49	244.85
737.82	244.65
738.15	244.54
738.48	244.39
738.81	244.24
739.14	244.08
739.47	243.98
739.80	243.87
740.13	243.81
740.46	243.58
740.79	243.32
741.12	243.14
741.45	242.95
741.78	242.57
742.11	242.57
742.44	242.30
742.77	242.25
743.10	242.01
743.43	241.85
743.75	241.07
744.08	241.60
744.41	241.49
744.74	241.39
745.07	241.15
745.40	241.09
745.73	241.12
746.06	240.95
746.39	240.88
746.71	240.71
747.04	240.44
747.37	240.30
747.70	240.34
748.03	240.22
748.36	240.19
748.68	240.00
749.01	239.74
749.34	239.62
749.67	239.42
750.00	239.41
750.33	239.58
750.65	239.64
750.98	238.91
751.31	238.77
751.64	238.65
751.97	238.81
752.29	238.60
752.62	238.22
752.95	238.03
753.28	237.88
753.60	237.74
753.93	237.73
754.26	237.69
754.59	237.41
754.91	237.25
755.24	237.14
755.57	237.05
755.90	236.93
756.22	236.84
756.55	236.64
756.88	236.42
757.20	235.98
757.53	235.72
757.86	235.62
758.19	235.54
758.51	235.43
758.84	235.11
759.17	234.99
759.49	235.03
759.82	235.28
760.15	235.17
760.47	235.11
760.80	234.87
761.13	234.87
761.45	234.76
761.78	234.78
762.11	234.61
762.43	234.47
762.76	234.28
763.08	234.21
763.41	234.25
763.74	234.15
764.06	234.11
764.39	234.04
764.71	233.92
765.04	233.85
765.37	233.76
765.69	233.60
766.02	233.55
766.34	233.35
766.67	232.95
767.00	232.95
767.32	233.12
767.65	233.38
767.97	233.28
768.30	233.28
768.62	233.15
768.95	233.08
769.27	233.09
769.60	233.18
769.92	233.06
770.25	232.93
770.57	232.79
770.90	232.71
771.22	232.62
771.55	232.59
771.87	232.59
772.20	232.50
772.52	232.95
772.85	233.43
773.17	233.45
773.50	233.50
773.82	233.42
774.15	233.15
774.47	232.77
774.80	232.63
775.12	232.57
775.45	232.57
775.77	232.62
776.09	232.60
776.42	232.61
776.74	232.80
777.07	232.68
777.39	232.71
777.72	232.65
778.04	232.63
778.36	232.58
778.69	232.47
779.01	232.48
779.33	231.96
779.66	231.41
779.98	231.31
780.31	231.30
780.63	231.47
780.95	231.45
781.28	231.42
781.60	231.34
781.92	231.28
782.25	231.21
782.57	231.13
782.89	230.94
783.22	230.82
783.54	230.59
783.86	230.61
784.19	230.48
784.51	230.53
784.83	230.40
785.16	230.27
785.48	230.23
785.80	230.21
786.12	230.20
786.45	230.21
786.77	230.20
787.09	230.13
787.42	229.85
787.74	229.83
788.06	229.84
788.38	229.77
788.71	229.65
789.03	229.62
789.35	229.64
789.67	229.67
789.99	229.67
790.32	229.59
790.64	229.63
790.96	230.03
791.28	229.86
791.61	229.82
791.93	229.84
792.25	229.78
792.57	230.06
792.89	229.97
793.21	229.90
793.54	229.81
793.86	229.72
794.18	229.77
794.50	229.60
794.82	229.54
795.14	229.59
795.47	229.69
795.79	229.63
796.11	229.45
796.43	229.37
796.75	229.31
797.07	229.30
797.39	229.21
797.71	228.82
798.04	228.83
798.36	228.91
798.68	228.91
799.00	228.92
799.32	228.60
799.64	228.65
799.96	228.70
800.28	228.79
800.60	228.72
800.92	228.77
801.24	228.90
801.56	228.95
801.89	228.94
802.21	228.96
802.53	228.87
802.85	228.98
803.17	229.20
803.49	229.12
803.81	229.05
804.13	229.04
804.45	228.99
804.77	229.05
805.09	228.96
805.41	228.89
805.73	228.87
806.05	228.84
806.37	228.83
806.69	228.75
807.01	228.64
807.33	228.69
807.65	228.40
807.97	228.45
808.28	228.38
808.60	228.30
808.92	228.23
809.24	228.56
809.56	228.47
809.88	228.34
810.20	228.29
810.52	228.39
810.84	228.32
811.16	228.25
811.48	228.16
811.80	228.37
812.12	228.35
812.43	228.36
812.75	228.40
813.07	228.31
813.39	228.26
813.71	228.24
814.03	228.20
814.35	228.31
814.67	228.12
814.98	228.07
815.30	228.09
815.62	228.01
815.94	227.65
816.26	227.86
816.58	227.74
816.89	227.85
817.21	227.75
817.53	227.82
817.85	227.83
818.17	227.82
818.48	227.65
818.80	227.72
819.12	227.66
819.44	227.51
819.76	227.48
820.07	227.50
820.39	227.47
820.71	227.48
821.03	227.42
821.34	227.40
821.66	227.44
821.98	227.43
822.30	227.38
822.61	227.67
822.93	227.35
823.25	227.33
823.57	227.26
823.88	227.28
824.20	227.27
824.52	227.40
824.83	227.37
825.15	227.31
825.47	227.24
825.79	227.24
826.10	227.30
826.42	227.29
826.74	227.35
827.05	227.31
827.37	227.34
827.69	227.33
828.00	227.45
828.32	227.46
828.64	227.43
828.95	227.72
829.27	227.60
829.58	227.61
829.90	227.69
830.22	227.65
830.53	227.60
830.85	227.41
831.17	227.28
831.48	227.30
831.80	227.38
832.11	227.38
832.43	227.40
832.75	227.32
833.06	227.65
833.38	227.47
833.69	227.52
834.01	227.50
834.32	227.47
834.64	227.39
834.96	227.35
835.27	227.39
835.59	227.15
835.90	227.10
836.22	227.11
836.53	226.98
836.85	226.92
837.16	227.40
837.48	227.45
837.79	227.53
838.11	227.53
838.42	227.49
838.74	227.54
839.05	227.47
839.37	227.48
839.68	227.16
840.00	227.17
840.31	227.17
840.63	227.12
840.94	227.10
841.26	227.02
841.57	227.03
841.88	227.01
842.20	227.02
842.51	226.89
842.83	226.92
843.14	227.37
843.46	227.46
843.77	227.21
844.08	227.21
844.40	227.15
844.71	227.16
845.03	227.10
845.34	227.02
845.65	226.96
845.97	226.98
846.28	227.06
846.60	227.10
846.91	227.05
847.22	227.01
847.54	227.04
847.85	227.12
848.16	227.11
848.48	227.03
848.79	227.15
849.10	227.24
849.42	227.27
849.73	226.75
850.04	226.70
850.36	226.45
850.67	226.60
850.98	226.53
851.30	226.55
851.61	226.47
851.92	226.42
852.23	226.57
852.55	226.51
852.86	226.45
853.17	226.40
853.49	226.40
853.80	226.60
854.11	226.67
854.42	226.73
854.74	226.63
855.05	226.63
855.36	226.42
855.67	226.46
855.99	226.42
856.30	227.07
856.61	227.03
856.92	227.08
857.23	227.10
857.55	227.10
857.86	227.04
858.17	227.15
858.48	227.15
858.79	227.04
859.11	227.14
859.42	227.10
859.73	227.11
860.04	227.15
860.35	226.94
860.66	226.78
860.98	226.72
861.29	226.79
861.60	226.72
861.91	226.83
862.22	226.73
862.53	226.68
862.84	226.08
863.16	226.25
863.47	226.20
863.78	226.09
864.09	226.14
864.40	226.14
864.71	226.17
865.02	226.24
865.33	226.12
865.64	226.00
865.95	226.02
866.27	226.31
866.58	226.27
866.89	226.38
867.20	226.37
867.51	226.29
867.82	226.31
868.13	226.49
868.44	226.37
868.75	226.43
869.06	226.48
869.37	226.55
869.68	226.40
869.99	226.45
870.30	226.42
870.61	226.50
870.92	226.42
871.23	226.38
871.54	226.42
871.85	226.68
872.16	226.80
872.47	226.76
872.78	226.53
873.09	226.62
873.40	226.55
873.71	226.66
874.02	226.67
874.33	226.58
874.64	226.48
874.95	226.55
875.26	226.47
875.56	226.39
875.87	226.34
876.18	226.34
876.49	226.73
876.80	226.71
877.11	226.56
877.42	226.59
877.73	226.57
878.04	226.52
878.35	226.45
878.66	226.41
878.96	226.39
879.27	226.31
879.58	226.23
879.89	226.20
880.20	226.29
880.51	226.35
880.82	226.35
881.12	226.35
881.43	226.27
881.74	226.23
882.05	226.29
882.36	226.31
882.67	226.34
882.97	225.89
883.28	225.86
883.59	225.80
883.90	225.84
884.21	225.91
884.51	225.94
884.82	225.87
885.13	225.87
885.44	225.88
885.74	225.93
886.05	225.95
886.36	225.92
886.67	225.74
886.98	225.99
887.28	226.06
887.59	226.11
887.90	226.20
888.20	226.22
888.51	226.32
888.82	226.25
889.13	226.25
889.43	226.59
889.74	226.58
890.05	226.67
890.35	226.66
890.66	226.56
890.97	226.50
891.28	226.49
891.58	226.49
891.89	226.51
892.20	226.44
892.50	226.29
892.81	226.29
893.12	226.30
893.42	225.95
893.73	225.96
894.04	226.00
894.34	225.94
894.65	225.88
894.95	225.73
895.26	225.79
895.57	226.01
895.87	225.62
896.18	225.72
896.48	225.73
896.79	225.70
897.10	225.85
897.40	225.85
897.71	225.87
898.01	225.81
898.32	225.83
898.63	225.87
898.93	226.08
899.24	226.08
899.54	226.05
899.85	226.13
900.15	226.12
900.46	226.05
900.76	226.13
901.07	226.19
901.38	226.23
901.68	226.28
901.99	226.09
902.29	226.12
902.60	226.09
902.90	226.04
903.21	226.08
903.51	225.98
903.82	226.10
904.12	226.13
904.43	226.26
904.73	226.30
905.03	226.30
905.34	226.73
905.64	226.77
905.95	226.80
906.25	226.75
906.56	226.68
906.86	226.74
907.17	226.76
907.47	226.75
907.77	226.70
908.08	226.64
908.38	226.60
908.69	226.60
908.99	226.73
909.30	226.81
909.60	226.76
909.90	226.82
910.21	226.74
910.51	226.59
910.81	226.54
911.12	226.53
911.42	226.55
911.73	225.97
912.03	225.99
912.33	226.10
912.64	226.08
912.94	226.07
913.24	225.99
913.55	225.92
913.85	225.86
914.15	225.96
914.46	226.03
914.76	226.01
915.06	225.98
915.37	225.76
915.67	225.71
915.97	225.68
916.27	225.58
916.58	225.51
916.88	225.56
917.18	225.45
917.49	225.72
917.79	225.70
918.09	225.74
918.39	225.79
918.70	225.74
919.00	225.73
919.30	225.94
919.60	225.84
919.91	225.77
920.21	225.81
920.51	225.67
920.81	225.56
921.12	225.68
921.42	225.66
921.72	225.70
922.02	225.67
922.32	225.80
922.63	225.78
922.93	226.00
923.23	226.00
923.53	225.97
923.83	225.64
924.13	225.67
924.44	225.67
924.74	225.74
925.04	225.84
925.34	225.87
925.64	225.66
925.94	225.66
926.24	225.87
926.55	225.82
926.85	225.96
927.15	226.03
927.45	225.95
927.75	225.94
928.05	226.02
928.35	226.00
928.65	226.08
928.95	226.13
929.26	225.94
929.56	226.06
929.86	226.14
930.16	226.12
930.46	226.10
930.76	226.16
931.06	225.92
931.36	225.80
931.66	225.85
931.96	226.01
932.26	226.11
932.56	225.99
932.86	226.09
933.16	226.10
933.46	225.99
933.76	225.98
934.06	226.16
934.36	226.34
934.66	226.38
934.96	226.25
935.26	226.31
935.56	226.43
935.86	226.25
936.16	226.15
936.46	226.16
936.76	226.10
937.06	226.03
937.36	226.08
937.66	226.15
937.96	226.17
938.26	226.04
938.56	226.04
938.86	226.08
939.16	226.18
939.46	226.18
939.76	226.26
940.06	226.27
940.35	226.15
940.65	225.92
940.95	225.92
941.25	225.83
941.55	225.73
941.85	225.65
942.15	225.82
942.45	225.99
942.75	225.98
943.04	226.11
943.34	226.26
943.64	226.25
943.94	226.17
944.24	226.20
944.54	226.25
944.84	226.24
945.13	226.18
945.43	226.10
945.73	226.13
946.03	226.14
946.33	226.12
946.62	226.12
946.92	226.18
947.22	226.20
947.52	226.30
947.82	226.36
948.11	226.35
948.41	226.28
948.71	226.20
949.01	226.27
949.31	226.20
949.60	226.07
949.90	226.19
950.20	226.14
950.50	226.08
950.79	226.04
951.09	226.03
951.39	226.00
951.69	225.96
951.98	226.02
952.28	226.05
952.58	226.04
952.87	226.03
953.17	226.04
953.47	226.03
953.76	226.01
954.06	225.98
954.36	225.94
954.66	225.95
954.95	226.06
955.25	226.05
955.55	225.97
955.84	225.89
956.14	225.91
956.44	225.94
956.73	225.86
957.03	225.85
957.32	225.93
957.62	225.95
957.92	226.01
958.21	225.92
958.51	226.33
958.81	226.45
959.10	226.44
959.40	226.49
959.69	226.54
959.99	226.58
960.29	226.55
960.58	226.54
960.88	226.69
961.17	226.59
961.47	226.65
961.76	226.63
962.06	226.75
962.36	226.67
962.65	226.67
962.95	226.63
963.24	226.55
963.54	226.52
963.83	226.51
964.13	226.50
964.42	226.40
964.72	226.10
965.01	226.12
965.31	226.14
965.60	225.99
965.90	226.29
966.19	226.18
966.49	226.25
966.78	226.19
967.08	226.15
967.37	226.10
967.67	225.97
967.96	226.08
968.26	226.00
968.55	226.07
968.85	226.07
969.14	226.07
969.43	226.16
969.73	226.11
970.02	226.07
970.32	225.99
970.61	226.03
970.91	225.84
971.20	225.68
971.49	225.62
971.79	225.71
972.08	225.27
972.38	225.26
972.67	225.24
972.96	225.33
973.26	225.22
973.55	225.45
973.85	225.48
974.14	225.43
974.43	225.57
974.73	225.51
975.02	225.42
975.31	225.50
975.61	225.52
975.90	225.51
976.19	225.49
976.49	225.63
976.78	225.61
977.07	225.56
977.37	225.67
977.66	225.76
977.95	225.78
978.24	225.86
978.54	226.03
978.83	226.03
979.12	226.04
979.42	226.03
979.71	225.93
980.00	225.88
980.29	225.91
980.59	225.79
980.88	225.95
981.17	226.02
981.46	225.99
981.76	225.91
982.05	226.12
982.34	226.21
982.63	226.11
982.93	226.15
983.22	226.37
983.51	226.29
983.80	226.32
984.09	226.38
984.39	226.36
984.68	226.26
984.97	226.16
985.26	226.14
985.55	226.14
985.85	226.06
986.14	226.17
986.43	226.27
986.72	226.23
987.01	226.00
987.30	225.94
987.59	225.88
987.89	225.94
988.18	225.71
988.47	225.61
988.76	225.56
989.05	225.56
989.34	225.41
989.63	225.57
989.92	225.52
990.22	225.39
990.51	225.36
990.80	225.37
991.09	225.46
991.38	225.53
991.67	225.49
991.96	225.40
992.25	225.40
992.54	225.29
992.83	225.24
993.12	225.29
993.41	225.37
993.70	225.59
993.99	225.65
994.28	225.69
994.58	225.78
994.87	225.71
995.16	225.63
995.45	225.59
995.74	225.37
996.03	225.36
996.32	225.42
996.61	225.51
996.90	225.44
997.19	225.36
997.48	225.31
997.77	225.28
998.06	225.30
998.34	225.25
998.63	225.22
998.92	225.27
999.21	225.33
999.50	225.36
999.79	225.23
1000.08	225.19
1000.37	225.21
1000.66	225.08
1000.95	225.20
1001.24	225.17
1001.53	225.19
1001.82	225.20
1002.11	225.17
1002.40	225.18
1002.68	225.26
1002.97	225.60
1003.26	225.61
1003.55	225.54
1003.84	225.57
1004.13	225.74
1004.42	225.71
1004.71	225.73
1004.99	225.65
1005.28	225.79
1005.57	225.76
1005.86	225.68
1006.15	225.67
1006.44	225.59
1006.72	225.72
1007.01	225.63
1007.30	225.71
1007.59	225.75
1007.88	225.75
1008.17	225.74
1008.45	225.69
1008.74	225.49
1009.03	225.30
1009.32	225.32
1009.60	225.29
1009.89	225.27
1010.18	225.11
1010.47	225.13
1010.76	225.22
1011.04	225.23
1011.33	225.18
1011.62	225.24
1011.91	225.29
1012.19	225.35
1012.48	225.40
1012.77	225.35
1013.05	225.63
1013.34	225.63
1013.63	225.59
1013.92	225.63
1014.20	225.65
1014.49	225.69
1014.78	225.74
1015.06	225.52
1015.35	225.50
1015.64	225.57
1015.92	225.65
1016.21	225.72
1016.50	225.70
1016.78	225.62
1017.07	225.69
1017.36	225.57
1017.64	225.47
1017.93	225.48
1018.22	225.36
1018.50	225.40
1018.79	225.37
1019.08	225.15
1019.36	225.18
1019.65	225.14
1019.93	225.29
1020.22	225.29
1020.51	225.54
1020.79	225.48
1021.08	224.60
1021.36	225.60
1021.65	224.80
1021.94	225.15
1022.22	225.45
1022.51	224.70
1022.79	228.20
1023.08	225.10
1023.36	231.65
1023.65	224.20
>>>>>End Processed Spectral Data<<<<<
