SpectraSuite Data File
++++++++++++++++++++++++++++++++++++
Date: Wed Sep 04 17:45:05 EDT 2013
User: lab3
Dark Spectrum Present: Yes
Reference Spectrum Present: No
Number of Sampled Component Spectra: 1
Spectrometers: USB2E7196
Integration Time (usec): 170000 (USB2E7196)
Spectra Averaged: 20 (USB2E7196)
Boxcar Smoothing: 10 (USB2E7196)
Correct for Electrical Dark: No (USB2E7196)
Strobe/Lamp Enabled: No (USB2E7196)
Correct for Detector Non-linearity: No (USB2E7196)
Correct for Stray Light: No (USB2E7196)
Number of Pixels in Processed Spectrum: 2048
>>>>>Begin Processed Spectral Data<<<<<
339.09	0.00
339.48	213.75
339.86	214.35
340.24	215.55
340.63	217.45
341.01	225.70
341.39	219.65
341.78	221.65
342.16	222.75
342.54	223.65
342.93	212.31
343.31	223.04
343.69	223.53
344.07	223.99
344.46	224.49
344.84	224.95
345.22	224.93
345.60	225.24
345.99	225.37
346.37	225.44
346.75	225.53
347.13	225.53
347.52	225.56
347.90	225.65
348.28	225.56
348.66	225.69
349.05	225.56
349.43	225.63
349.81	225.70
350.19	225.72
350.57	225.77
350.96	225.84
351.34	225.94
351.72	226.07
352.10	226.16
352.48	226.20
352.87	226.11
353.25	226.10
353.63	226.01
354.01	226.08
354.39	226.25
354.77	226.28
355.15	226.52
355.54	226.53
355.92	226.59
356.30	226.82
356.68	227.16
357.06	227.17
357.44	227.16
357.82	227.19
358.20	227.64
358.58	227.73
358.97	227.75
359.35	227.85
359.73	227.99
360.11	228.10
360.49	228.16
360.87	228.19
361.25	228.33
361.63	228.63
362.01	228.77
362.39	228.78
362.77	228.91
363.15	228.83
363.53	228.91
363.91	229.00
364.29	228.98
364.67	228.53
365.05	228.60
365.43	228.68
365.81	228.78
366.19	228.63
366.57	228.75
366.95	228.84
367.33	228.75
367.71	228.70
368.09	228.73
368.47	228.71
368.85	228.79
369.23	228.91
369.61	228.69
369.99	228.68
370.37	228.71
370.75	228.88
371.13	228.75
371.51	228.71
371.89	228.70
372.27	228.68
372.65	228.82
373.03	228.80
373.41	228.73
373.78	228.70
374.16	228.47
374.54	228.30
374.92	228.18
375.30	228.09
375.68	227.92
376.06	227.88
376.44	227.73
376.82	227.66
377.19	227.61
377.57	227.58
377.95	227.45
378.33	227.33
378.71	226.96
379.09	227.00
379.47	226.95
379.84	226.77
380.22	226.65
380.60	226.49
380.98	226.35
381.36	226.21
381.73	226.01
382.11	226.04
382.49	225.98
382.87	225.81
383.25	225.84
383.62	226.39
384.00	226.23
384.38	226.25
384.76	226.29
385.13	226.39
385.51	226.34
385.89	226.25
386.27	226.23
386.64	226.30
387.02	226.24
387.40	226.12
387.78	226.16
388.15	226.17
388.53	226.10
388.91	226.16
389.29	226.17
389.66	226.25
390.04	226.10
390.42	226.15
390.79	226.17
391.17	226.10
391.55	225.50
391.92	225.56
392.30	225.60
392.68	225.43
393.05	225.35
393.43	225.30
393.81	225.32
394.18	225.32
394.56	225.36
394.94	225.51
395.31	225.53
395.69	225.57
396.06	225.73
396.44	225.71
396.82	225.72
397.19	226.05
397.57	226.04
397.95	226.17
398.32	226.13
398.70	226.30
399.07	226.49
399.45	226.63
399.82	226.71
400.20	226.73
400.58	226.89
400.95	226.79
401.33	227.08
401.70	227.60
402.08	227.70
402.45	227.81
402.83	227.96
403.20	228.13
403.58	228.29
403.95	228.40
404.33	228.73
404.71	228.97
405.08	229.39
405.46	229.69
405.83	229.94
406.21	230.21
406.58	230.46
406.96	230.67
407.33	231.01
407.70	231.40
408.08	232.21
408.45	232.70
408.83	233.30
409.20	233.63
409.58	233.70
409.95	234.29
410.33	234.82
410.70	235.24
411.08	235.87
411.45	236.53
411.82	237.15
412.20	237.85
412.57	238.75
412.95	239.08
413.32	239.87
413.69	240.65
414.07	241.55
414.44	242.52
414.82	243.56
415.19	244.78
415.56	245.91
415.94	246.85
416.31	248.18
416.68	249.51
417.06	251.10
417.43	252.80
417.81	254.51
418.18	256.28
418.55	258.16
418.93	260.11
419.30	262.07
419.67	264.24
420.04	266.45
420.42	268.70
420.79	271.71
421.16	274.42
421.54	277.38
421.91	280.30
422.28	283.37
422.66	286.59
423.03	289.81
423.40	293.01
423.77	296.45
424.15	299.98
424.52	303.68
424.89	307.71
425.26	311.43
425.64	315.05
426.01	319.16
426.38	323.36
426.75	327.74
427.13	332.24
427.50	336.76
427.87	341.50
428.24	346.25
428.61	350.60
428.99	355.84
429.36	361.24
429.73	366.65
430.10	371.97
430.47	377.45
430.85	383.04
431.22	389.03
431.59	395.73
431.96	401.65
432.33	408.28
432.70	414.72
433.08	422.43
433.45	429.65
433.82	436.77
434.19	444.80
434.56	452.72
434.93	460.23
435.30	467.78
435.68	476.15
436.05	484.52
436.42	492.55
436.79	499.93
437.16	508.05
437.53	516.55
437.90	524.99
438.27	533.29
438.64	541.78
439.01	549.84
439.38	556.77
439.75	563.88
440.13	571.74
440.50	579.08
440.87	584.96
441.24	591.24
441.61	598.02
441.98	603.15
442.35	608.81
442.72	614.56
443.09	620.40
443.46	623.85
443.83	626.05
444.20	628.00
444.57	630.78
444.94	631.76
445.31	632.73
445.68	634.16
446.05	634.43
446.42	633.25
446.79	632.00
447.16	630.52
447.53	629.40
447.90	625.83
448.27	622.33
448.64	617.71
449.01	614.17
449.37	608.19
449.74	602.20
450.11	595.51
450.48	588.29
450.85	580.47
451.22	573.67
451.59	567.25
451.96	561.31
452.33	553.38
452.70	546.22
453.07	537.86
453.43	528.84
453.80	520.66
454.17	512.95
454.54	505.45
454.91	497.45
455.28	489.53
455.65	482.27
456.02	475.65
456.38	469.41
456.75	461.82
457.12	455.47
457.49	449.39
457.86	443.21
458.23	438.00
458.59	432.40
458.96	426.83
459.33	421.90
459.70	416.85
460.07	412.86
460.43	408.40
460.80	404.27
461.17	400.75
461.54	396.78
461.91	393.04
462.27	389.13
462.64	385.81
463.01	382.38
463.38	379.25
463.74	375.28
464.11	372.35
464.48	369.81
464.85	366.97
465.21	364.82
465.58	362.52
465.95	359.74
466.32	357.63
466.68	355.45
467.05	353.24
467.42	351.10
467.78	348.79
468.15	346.72
468.52	345.15
468.88	342.91
469.25	341.19
469.62	339.78
469.98	338.30
470.35	336.90
470.72	335.53
471.08	333.79
471.45	332.56
471.82	331.33
472.18	329.84
472.55	328.92
472.92	327.53
473.28	326.51
473.65	325.43
474.02	324.33
474.38	323.49
474.75	322.63
475.11	321.74
475.48	321.12
475.85	320.43
476.21	319.82
476.58	319.32
476.94	318.86
477.31	318.27
477.67	317.95
478.04	317.63
478.41	317.36
478.77	317.69
479.14	317.43
479.50	317.33
479.87	317.39
480.23	317.35
480.60	317.41
480.96	317.38
481.33	317.78
481.69	318.03
482.06	318.23
482.42	318.54
482.79	318.93
483.15	319.41
483.52	320.07
483.88	320.59
484.25	321.21
484.61	321.89
484.98	322.64
485.34	323.60
485.71	324.58
486.07	325.60
486.44	326.18
486.80	327.25
487.17	328.36
487.53	329.70
487.90	331.19
488.26	332.86
488.62	334.52
488.99	336.03
489.35	337.77
489.72	339.63
490.08	341.66
490.44	343.61
490.81	345.80
491.17	347.94
491.54	350.39
491.90	352.97
492.26	355.61
492.63	358.44
492.99	361.24
493.36	364.21
493.72	367.51
494.08	370.90
494.45	374.56
494.81	378.40
495.17	382.35
495.54	386.52
495.90	390.66
496.26	395.17
496.63	399.78
496.99	404.61
497.35	409.70
497.72	414.86
498.08	420.29
498.44	425.91
498.80	431.86
499.17	437.79
499.53	443.96
499.89	450.57
500.26	457.35
500.62	464.20
500.98	471.65
501.34	479.03
501.71	486.76
502.07	494.53
502.43	502.76
502.79	511.03
503.16	519.70
503.52	528.57
503.88	537.52
504.24	547.03
504.60	556.72
504.97	566.78
505.33	577.06
505.69	587.97
506.05	598.92
506.41	610.06
506.78	621.62
507.14	633.53
507.50	645.62
507.86	658.00
508.22	670.70
508.59	683.29
508.95	696.63
509.31	710.41
509.67	724.55
510.03	738.53
510.39	753.08
510.75	767.84
511.12	782.81
511.48	798.19
511.84	813.60
512.20	829.32
512.56	845.41
512.92	861.92
513.28	878.41
513.64	895.38
514.00	912.73
514.37	929.87
514.73	947.60
515.09	965.59
515.45	983.54
515.81	1001.66
516.17	1020.17
516.53	1038.41
516.89	1056.64
517.25	1075.55
517.61	1095.39
517.97	1114.97
518.33	1134.52
518.69	1154.33
519.05	1174.49
519.41	1194.74
519.77	1215.46
520.13	1235.76
520.49	1255.95
520.85	1276.41
521.21	1296.90
521.57	1317.52
521.93	1338.00
522.29	1358.64
522.65	1378.61
523.01	1399.01
523.37	1419.28
523.73	1439.81
524.09	1459.75
524.45	1480.25
524.81	1500.60
525.17	1520.68
525.53	1540.82
525.89	1560.98
526.25	1581.40
526.61	1601.30
526.97	1621.57
527.33	1641.97
527.68	1663.11
528.04	1683.87
528.40	1704.13
528.76	1724.58
529.12	1744.28
529.48	1764.62
529.84	1783.84
530.20	1804.43
530.56	1824.65
530.91	1844.88
531.27	1864.54
531.63	1884.51
531.99	1904.12
532.35	1923.40
532.71	1942.54
533.07	1962.51
533.42	1981.78
533.78	2000.84
534.14	2019.77
534.50	2038.33
534.86	2056.92
535.21	2073.71
535.57	2091.48
535.93	2108.86
536.29	2125.84
536.65	2143.49
537.00	2160.45
537.36	2177.61
537.72	2193.19
538.08	2209.48
538.44	2225.30
538.79	2241.08
539.15	2257.00
539.51	2272.17
539.87	2286.59
540.22	2300.22
540.58	2313.63
540.94	2325.98
541.29	2337.93
541.65	2349.97
542.01	2361.68
542.37	2371.52
542.72	2381.94
543.08	2391.73
543.44	2402.28
543.79	2411.81
544.15	2420.81
544.51	2430.20
544.87	2438.98
545.22	2447.33
545.58	2454.41
545.94	2460.94
546.29	2467.11
546.65	2472.77
547.01	2478.13
547.36	2483.26
547.72	2487.94
548.07	2491.41
548.43	2496.47
548.79	2500.55
549.14	2504.05
549.50	2507.29
549.86	2510.93
550.21	2513.74
550.57	2516.57
550.92	2517.76
551.28	2518.36
551.64	2520.39
551.99	2521.73
552.35	2522.74
552.70	2524.33
553.06	2525.55
553.41	2526.11
553.77	2526.94
554.13	2528.01
554.48	2528.79
554.84	2529.66
555.19	2530.60
555.55	2531.86
555.90	2530.49
556.26	2529.75
556.61	2527.92
556.97	2525.69
557.32	2524.72
557.68	2523.75
558.03	2521.99
558.39	2520.11
558.74	2519.01
559.10	2515.25
559.45	2510.94
559.81	2506.32
560.16	2500.86
560.52	2495.80
560.87	2491.54
561.23	2486.06
561.58	2480.06
561.94	2473.06
562.29	2465.49
562.64	2458.26
563.00	2449.94
563.35	2443.65
563.71	2436.68
564.06	2430.43
564.42	2423.68
564.77	2416.27
565.12	2408.72
565.48	2400.92
565.83	2393.02
566.19	2385.00
566.54	2377.45
566.89	2369.71
567.25	2362.27
567.60	2355.06
567.96	2347.67
568.31	2339.54
568.66	2330.90
569.02	2321.90
569.37	2313.76
569.72	2306.45
570.08	2297.26
570.43	2287.91
570.78	2278.85
571.14	2269.46
571.49	2259.08
571.84	2249.48
572.20	2238.86
572.55	2228.66
572.90	2218.11
573.26	2207.82
573.61	2197.03
573.96	2186.04
574.31	2174.32
574.67	2162.67
575.02	2150.28
575.37	2137.52
575.72	2124.75
576.08	2113.22
576.43	2101.00
576.78	2088.46
577.13	2074.82
577.49	2062.58
577.84	2051.22
578.19	2039.39
578.54	2026.91
578.90	2015.55
579.25	2003.52
579.60	1991.40
579.95	1978.71
580.30	1965.99
580.66	1953.06
581.01	1939.79
581.36	1925.86
581.71	1913.60
582.06	1900.92
582.42	1888.92
582.77	1876.97
583.12	1865.36
583.47	1853.11
583.82	1841.48
584.17	1829.54
584.53	1818.24
584.88	1805.63
585.23	1792.78
585.58	1778.99
585.93	1766.38
586.28	1753.38
586.63	1740.14
586.98	1726.51
587.34	1713.82
587.69	1700.91
588.04	1688.94
588.39	1677.31
588.74	1665.85
589.09	1654.21
589.44	1641.70
589.79	1629.73
590.14	1618.16
590.49	1606.39
590.84	1595.07
591.19	1583.34
591.54	1571.77
591.89	1560.04
592.25	1550.44
592.60	1539.24
592.95	1528.20
593.30	1516.90
593.65	1505.57
594.00	1494.03
594.35	1484.72
594.70	1473.26
595.05	1462.42
595.40	1450.82
595.75	1439.35
596.10	1428.62
596.45	1417.55
596.80	1407.33
597.15	1396.54
597.50	1385.23
597.85	1374.53
598.19	1363.15
598.54	1352.29
598.89	1341.54
599.24	1331.47
599.59	1320.13
599.94	1309.85
600.29	1299.96
600.64	1289.82
600.99	1279.37
601.34	1270.11
601.69	1259.37
602.04	1250.19
602.39	1240.76
602.74	1232.00
603.08	1223.08
603.43	1214.32
603.78	1204.92
604.13	1195.99
604.48	1186.60
604.83	1177.32
605.18	1167.91
605.53	1158.78
605.87	1149.93
606.22	1141.64
606.57	1132.67
606.92	1123.54
607.27	1115.07
607.62	1106.60
607.96	1098.55
608.31	1091.22
608.66	1083.33
609.01	1075.08
609.36	1066.76
609.70	1058.80
610.05	1050.56
610.40	1042.48
610.75	1034.15
611.10	1026.38
611.44	1018.05
611.79	1010.39
612.14	1003.05
612.49	995.68
612.83	988.70
613.18	981.33
613.53	974.14
613.88	966.54
614.22	959.47
614.57	951.95
614.92	944.33
615.27	937.04
615.61	929.69
615.96	922.43
616.31	915.31
616.65	908.70
617.00	901.51
617.35	894.59
617.70	887.82
618.04	880.83
618.39	874.13
618.74	868.31
619.08	861.88
619.43	854.98
619.78	848.10
620.12	841.24
620.47	834.73
620.82	827.74
621.16	821.31
621.51	815.27
621.85	809.12
622.20	803.05
622.55	796.90
622.89	790.52
623.24	784.36
623.59	778.34
623.93	772.31
624.28	766.79
624.62	761.54
624.97	755.90
625.32	750.35
625.66	744.68
626.01	738.66
626.35	733.22
626.70	728.17
627.04	723.24
627.39	717.92
627.73	712.88
628.08	708.00
628.43	702.88
628.77	697.52
629.12	692.54
629.46	687.95
629.81	683.43
630.15	678.99
630.50	674.47
630.84	669.90
631.19	665.27
631.53	660.70
631.88	655.60
632.22	651.08
632.57	646.81
632.91	642.45
633.26	638.25
633.60	633.86
633.95	629.21
634.29	624.52
634.64	620.38
634.98	615.67
635.32	611.60
635.67	607.71
636.01	603.83
636.36	599.74
636.70	595.86
637.05	591.72
637.39	587.69
637.73	583.78
638.08	580.00
638.42	576.07
638.77	572.06
639.11	567.96
639.45	563.77
639.80	559.74
640.14	555.94
640.49	552.07
640.83	548.56
641.17	545.25
641.52	541.80
641.86	538.39
642.20	535.43
642.55	531.81
642.89	528.31
643.23	524.87
643.58	521.87
643.92	518.32
644.26	515.06
644.61	512.00
644.95	508.81
645.29	505.51
645.64	502.61
645.98	499.56
646.32	496.74
646.66	493.85
647.01	490.87
647.35	488.02
647.69	485.24
648.04	482.40
648.38	479.54
648.72	476.85
649.06	473.97
649.41	471.02
649.75	468.29
650.09	465.70
650.43	463.02
650.78	460.20
651.12	457.47
651.46	454.81
651.80	452.21
652.14	449.75
652.49	447.42
652.83	444.76
653.17	442.18
653.51	439.70
653.85	437.50
654.20	435.31
654.54	432.94
654.88	430.53
655.22	428.46
655.56	426.21
655.90	423.95
656.25	421.74
656.59	419.58
656.93	417.51
657.27	415.58
657.61	413.28
657.95	411.11
658.29	409.20
658.64	407.35
658.98	405.16
659.32	402.85
659.66	400.68
660.00	398.71
660.34	396.80
660.68	394.74
661.02	392.69
661.36	390.64
661.70	388.61
662.05	386.77
662.39	384.75
662.73	382.97
663.07	381.46
663.41	379.72
663.75	377.90
664.09	376.06
664.43	374.07
664.77	372.49
665.11	370.83
665.45	369.08
665.79	367.44
666.13	365.82
666.47	364.22
666.81	362.71
667.15	361.12
667.49	359.69
667.83	358.46
668.17	357.10
668.51	355.73
668.85	354.56
669.19	353.51
669.53	352.13
669.87	350.75
670.21	349.23
670.55	347.94
670.89	346.91
671.23	345.66
671.57	344.37
671.91	343.17
672.25	341.86
672.58	340.74
672.92	339.23
673.26	338.15
673.60	337.05
673.94	335.89
674.28	334.91
674.62	333.83
674.96	332.54
675.30	331.39
675.64	330.33
675.97	329.04
676.31	327.64
676.65	326.42
676.99	325.44
677.33	324.32
677.67	323.31
678.01	321.94
678.34	320.98
678.68	320.09
679.02	319.04
679.36	318.05
679.70	317.04
680.04	316.23
680.37	315.25
680.71	314.30
681.05	313.43
681.39	312.48
681.73	311.54
682.06	310.69
682.40	309.81
682.74	308.95
683.08	308.27
683.42	307.40
683.75	306.57
684.09	305.64
684.43	304.80
684.77	303.92
685.10	303.25
685.44	302.34
685.78	301.44
686.12	300.65
686.45	299.98
686.79	299.22
687.13	298.62
687.46	297.84
687.80	297.22
688.14	296.36
688.48	295.52
688.81	294.75
689.15	294.13
689.49	293.41
689.82	292.68
690.16	291.86
690.50	291.26
690.83	290.56
691.17	289.85
691.51	289.26
691.84	288.64
692.18	287.84
692.52	287.24
692.85	286.69
693.19	286.24
693.52	285.53
693.86	284.90
694.20	284.16
694.53	283.60
694.87	282.87
695.21	282.26
695.54	281.62
695.88	281.00
696.21	280.19
696.55	279.59
696.88	279.04
697.22	278.48
697.56	277.90
697.89	277.32
698.23	276.87
698.56	276.25
698.90	275.77
699.23	275.28
699.57	274.87
699.90	274.25
700.24	273.54
700.58	273.15
700.91	272.75
701.25	272.69
701.58	272.52
701.92	272.19
702.25	271.81
702.59	271.45
702.92	271.04
703.26	270.75
703.59	270.40
703.93	270.37
704.26	269.98
704.60	269.64
704.93	269.29
705.26	268.79
705.60	268.50
705.93	268.03
706.27	267.90
706.60	267.60
706.94	267.50
707.27	267.24
707.61	266.94
707.94	266.60
708.27	265.82
708.61	265.11
708.94	264.74
709.28	264.30
709.61	263.89
709.94	263.58
710.28	263.18
710.61	262.76
710.95	262.09
711.28	262.05
711.61	261.69
711.95	261.49
712.28	261.16
712.61	260.74
712.95	260.66
713.28	260.44
713.61	260.00
713.95	259.48
714.28	259.11
714.61	258.63
714.95	258.23
715.28	257.86
715.61	257.56
715.95	257.24
716.28	256.93
716.61	256.64
716.95	256.35
717.28	256.02
717.61	255.73
717.94	255.42
718.28	254.82
718.61	254.45
718.94	254.09
719.27	253.80
719.61	253.63
719.94	253.19
720.27	252.72
720.60	252.46
720.94	252.22
721.27	251.94
721.60	251.85
721.93	251.63
722.27	251.63
722.60	251.46
722.93	251.11
723.26	251.00
723.59	250.77
723.93	250.60
724.26	250.48
724.59	250.27
724.92	250.06
725.25	249.95
725.59	249.77
725.92	249.59
726.25	249.42
726.58	249.19
726.91	249.01
727.24	248.87
727.57	248.63
727.91	248.31
728.24	248.29
728.57	248.04
728.90	247.90
729.23	247.52
729.56	247.52
729.89	247.40
730.22	247.16
730.55	247.00
730.89	246.81
731.22	246.61
731.55	246.43
731.88	246.25
732.21	246.00
732.54	245.77
732.87	245.58
733.20	245.49
733.53	245.38
733.86	245.18
734.19	244.95
734.52	244.84
734.85	245.07
735.18	244.69
735.51	244.68
735.84	244.45
736.17	244.41
736.50	244.09
736.83	244.48
737.16	244.30
737.49	244.10
737.82	243.86
738.15	243.78
738.48	243.65
738.81	243.46
739.14	243.23
739.47	243.07
739.80	242.93
740.13	242.75
740.46	242.53
740.79	242.32
741.12	242.12
741.45	241.89
741.78	241.44
742.11	241.55
742.44	241.29
742.77	241.26
743.10	241.10
743.43	240.94
743.75	240.26
744.08	240.73
744.41	240.60
744.74	240.47
745.07	240.30
745.40	240.24
745.73	240.37
746.06	240.26
746.39	240.23
746.71	240.05
747.04	239.86
747.37	239.73
747.70	239.70
748.03	239.62
748.36	239.60
748.68	239.50
749.01	239.21
749.34	239.10
749.67	238.98
750.00	238.91
750.33	239.09
750.65	239.04
750.98	238.38
751.31	238.37
751.64	238.30
751.97	238.46
752.29	238.30
752.62	237.90
752.95	237.82
753.28	237.63
753.60	237.51
753.93	237.54
754.26	237.46
754.59	237.36
754.91	237.20
755.24	237.14
755.57	237.03
755.90	236.89
756.22	236.76
756.55	236.62
756.88	236.40
757.20	236.04
757.53	235.84
757.86	235.71
758.19	235.64
758.51	235.60
758.84	235.21
759.17	235.16
759.49	235.15
759.82	235.30
760.15	235.31
760.47	235.24
760.80	235.08
761.13	235.14
761.45	234.95
761.78	234.94
762.11	234.83
762.43	234.69
762.76	234.68
763.08	234.71
763.41	234.63
763.74	234.66
764.06	234.48
764.39	234.46
764.71	234.43
765.04	234.26
765.37	234.13
765.69	234.03
766.02	233.85
766.34	233.73
766.67	233.45
767.00	233.42
767.32	233.66
767.65	233.87
767.97	233.68
768.30	233.70
768.62	233.61
768.95	233.50
769.27	233.46
769.60	233.41
769.92	233.26
770.25	233.15
770.57	232.95
770.90	232.94
771.22	232.74
771.55	232.69
771.87	232.61
772.20	232.51
772.52	232.95
772.85	233.52
773.17	233.47
773.50	233.39
773.82	233.26
774.15	232.95
774.47	232.58
774.80	232.49
775.12	232.35
775.45	232.30
775.77	232.28
776.09	232.27
776.42	232.25
776.74	232.28
777.07	232.21
777.39	232.28
777.72	232.21
778.04	232.25
778.36	232.16
778.69	232.14
779.01	232.12
779.33	231.58
779.66	230.92
779.98	230.87
780.31	230.80
780.63	230.94
780.95	230.93
781.28	230.91
781.60	230.82
781.92	230.77
782.25	230.69
782.57	230.61
782.89	230.57
783.22	230.47
783.54	230.37
783.86	230.34
784.19	230.20
784.51	230.32
784.83	230.24
785.16	230.14
785.48	230.11
785.80	230.08
786.12	230.16
786.45	230.16
786.77	230.13
787.09	230.09
787.42	229.89
787.74	229.90
788.06	229.89
788.38	229.87
788.71	229.83
789.03	229.78
789.35	229.80
789.67	229.63
789.99	229.65
790.32	229.54
790.64	229.56
790.96	229.89
791.28	229.68
791.61	229.73
791.93	229.74
792.25	229.69
792.57	230.00
792.89	229.85
793.21	229.89
793.54	229.85
793.86	229.87
794.18	229.90
794.50	229.78
794.82	229.79
795.14	229.84
795.47	229.98
795.79	229.97
796.11	229.86
796.43	229.94
796.75	229.89
797.07	229.89
797.39	229.91
797.71	229.55
798.04	229.59
798.36	229.58
798.68	229.60
799.00	229.67
799.32	229.35
799.64	229.47
799.96	229.38
800.28	229.42
800.60	229.33
800.92	229.37
801.24	229.29
801.56	229.34
801.89	229.27
802.21	229.23
802.53	229.14
802.85	229.28
803.17	229.42
803.49	229.38
803.81	229.36
804.13	229.34
804.45	229.33
804.77	229.29
805.09	229.27
805.41	229.20
805.73	229.07
806.05	228.96
806.37	228.85
806.69	228.83
807.01	228.86
807.33	228.86
807.65	228.63
807.97	228.91
808.28	228.70
808.60	228.68
808.92	228.59
809.24	228.93
809.56	228.82
809.88	228.65
810.20	228.64
810.52	228.71
810.84	228.64
811.16	228.56
811.48	228.52
811.80	228.63
812.12	228.55
812.43	228.63
812.75	228.64
813.07	228.58
813.39	228.54
813.71	228.36
814.03	228.32
814.35	228.38
814.67	228.15
814.98	228.21
815.30	228.16
815.62	228.02
815.94	227.64
816.26	227.82
816.58	227.68
816.89	227.66
817.21	227.43
817.53	227.34
817.85	227.32
818.17	227.29
818.48	227.12
818.80	227.20
819.12	227.10
819.44	227.02
819.76	226.99
820.07	226.96
820.39	226.97
820.71	227.00
821.03	226.89
821.34	226.81
821.66	226.74
821.98	226.76
822.30	226.78
822.61	227.15
822.93	226.88
823.25	226.93
823.57	226.83
823.88	226.97
824.20	227.00
824.52	227.06
824.83	227.11
825.15	227.01
825.47	226.97
825.79	226.95
826.10	226.91
826.42	226.87
826.74	226.95
827.05	226.89
827.37	226.91
827.69	226.94
828.00	226.91
828.32	226.98
828.64	226.94
828.95	227.18
829.27	227.01
829.58	227.01
829.90	227.08
830.22	227.17
830.53	227.14
830.85	227.02
831.17	226.92
831.48	226.86
831.80	226.90
832.11	226.92
832.43	226.92
832.75	226.98
833.06	227.31
833.38	227.23
833.69	227.28
834.01	227.33
834.32	227.34
834.64	227.39
834.96	227.45
835.27	227.46
835.59	227.30
835.90	227.23
836.22	227.25
836.53	227.09
836.85	227.04
837.16	227.48
837.48	227.60
837.79	227.76
838.11	227.84
838.42	227.84
838.74	227.90
839.05	227.83
839.37	227.87
839.68	227.56
840.00	227.56
840.31	227.64
840.63	227.58
840.94	227.57
841.26	227.51
841.57	227.43
841.88	227.48
842.20	227.46
842.51	227.35
842.83	227.37
843.14	227.88
843.46	227.86
843.77	227.56
844.08	227.51
844.40	227.43
844.71	227.36
845.03	227.31
845.34	227.23
845.65	227.25
845.97	227.14
846.28	227.15
846.60	227.13
846.91	226.99
847.22	227.01
847.54	227.09
847.85	227.10
848.16	227.08
848.48	227.00
848.79	227.15
849.10	227.23
849.42	227.27
849.73	226.78
850.04	226.76
850.36	226.65
850.67	226.75
850.98	226.66
851.30	226.69
851.61	226.72
851.92	226.77
852.23	226.89
852.55	226.96
852.86	227.02
853.17	227.05
853.49	227.16
853.80	227.20
854.11	227.21
854.42	227.25
854.74	227.15
855.05	227.14
855.36	226.88
855.67	226.87
855.99	226.84
856.30	227.45
856.61	227.51
856.92	227.44
857.23	227.38
857.55	227.34
857.86	227.29
858.17	227.35
858.48	227.15
858.79	227.05
859.11	227.06
859.42	226.95
859.73	226.92
860.04	226.90
860.35	226.73
860.66	226.62
860.98	226.59
861.29	226.70
861.60	226.66
861.91	226.80
862.22	226.77
862.53	226.65
862.84	226.07
863.16	226.11
863.47	226.10
863.78	226.10
864.09	226.14
864.40	226.19
864.71	226.20
865.02	226.42
865.33	226.37
865.64	226.34
865.95	226.29
866.27	226.55
866.58	226.46
866.89	226.53
867.20	226.50
867.51	226.43
867.82	226.39
868.13	226.47
868.44	226.34
868.75	226.41
869.06	226.53
869.37	226.55
869.68	226.50
869.99	226.60
870.30	226.55
870.61	226.58
870.92	226.52
871.23	226.40
871.54	226.36
871.85	226.45
872.16	226.46
872.47	226.49
872.78	226.29
873.09	226.39
873.40	226.32
873.71	226.39
874.02	226.45
874.33	226.41
874.64	226.40
874.95	226.46
875.26	226.33
875.56	226.22
875.87	226.20
876.18	226.11
876.49	226.54
876.80	226.51
877.11	226.52
877.42	226.48
877.73	226.55
878.04	226.47
878.35	226.54
878.66	226.48
878.96	226.48
879.27	226.44
879.58	226.37
879.89	226.35
880.20	226.45
880.51	226.40
880.82	226.47
881.12	226.46
881.43	226.36
881.74	226.38
882.05	226.41
882.36	226.47
882.67	226.57
882.97	226.02
883.28	225.99
883.59	225.92
883.90	225.99
884.21	226.07
884.51	226.02
884.82	225.95
885.13	226.07
885.44	226.07
885.74	226.05
886.05	226.07
886.36	226.16
886.67	226.00
886.98	226.28
887.28	226.29
887.59	226.28
887.90	226.33
888.20	226.33
888.51	226.47
888.82	226.33
889.13	226.33
889.43	226.75
889.74	226.76
890.05	226.73
890.35	226.73
890.66	226.65
890.97	226.61
891.28	226.54
891.58	226.48
891.89	226.42
892.20	226.37
892.50	226.33
892.81	226.24
893.12	226.21
893.42	225.93
893.73	225.94
894.04	225.94
894.34	225.94
894.65	225.88
894.95	225.76
895.26	225.86
895.57	226.07
895.87	225.63
896.18	225.73
896.48	225.82
896.79	225.76
897.10	225.78
897.40	225.83
897.71	225.89
898.01	225.80
898.32	225.87
898.63	225.80
898.93	225.81
899.24	225.80
899.54	225.81
899.85	225.84
900.15	225.75
900.46	225.71
900.76	225.78
901.07	225.78
901.38	225.76
901.68	225.76
901.99	225.46
902.29	225.45
902.60	225.35
902.90	225.26
903.21	225.27
903.51	225.25
903.82	225.41
904.12	225.40
904.43	225.49
904.73	225.55
905.03	225.64
905.34	226.08
905.64	226.08
905.95	226.06
906.25	226.00
906.56	226.02
906.86	226.03
907.17	226.04
907.47	226.08
907.77	226.02
908.08	225.95
908.38	225.98
908.69	226.04
908.99	226.14
909.30	226.25
909.60	226.24
909.90	226.25
910.21	226.06
910.51	225.97
910.81	226.02
911.12	226.01
911.42	226.00
911.73	225.54
912.03	225.64
912.33	225.78
912.64	225.82
912.94	225.79
913.24	225.74
913.55	225.69
913.85	225.70
914.15	225.85
914.46	225.90
914.76	225.91
915.06	225.92
915.37	225.75
915.67	225.65
915.97	225.67
916.27	225.62
916.58	225.73
916.88	225.77
917.18	225.66
917.49	226.04
917.79	226.02
918.09	226.09
918.39	226.17
918.70	226.09
919.00	226.13
919.30	226.37
919.60	226.40
919.91	226.35
920.21	226.38
920.51	226.25
920.81	226.28
921.12	226.34
921.42	226.40
921.72	226.51
922.02	226.61
922.32	226.77
922.63	226.83
922.93	226.98
923.23	227.02
923.53	227.04
923.83	226.69
924.13	226.76
924.44	226.78
924.74	226.86
925.04	227.03
925.34	227.07
925.64	226.83
925.94	226.85
926.24	227.17
926.55	227.17
926.85	227.24
927.15	227.22
927.45	227.23
927.75	227.20
928.05	227.30
928.35	227.18
928.65	227.13
928.95	227.11
929.26	226.96
929.56	227.05
929.86	227.14
930.16	227.08
930.46	227.06
930.76	227.06
931.06	226.80
931.36	226.66
931.66	226.73
931.96	226.81
932.26	226.81
932.56	226.50
932.86	226.46
933.16	226.49
933.46	226.42
933.76	226.28
934.06	226.40
934.36	226.45
934.66	226.49
934.96	226.47
935.26	226.50
935.56	226.50
935.86	226.31
936.16	226.17
936.46	226.13
936.76	226.12
937.06	226.06
937.36	226.10
937.66	226.03
937.96	225.92
938.26	225.81
938.56	225.68
938.86	225.73
939.16	225.83
939.46	225.80
939.76	225.82
940.06	225.81
940.35	225.67
940.65	225.48
940.95	225.45
941.25	225.31
941.55	225.18
941.85	225.08
942.15	225.24
942.45	225.37
942.75	225.40
943.04	225.35
943.34	225.46
943.64	225.41
943.94	225.37
944.24	225.38
944.54	225.48
944.84	225.57
945.13	225.49
945.43	225.39
945.73	225.41
946.03	225.38
946.33	225.31
946.62	225.23
946.92	225.23
947.22	225.28
947.52	225.33
947.82	225.46
948.11	225.52
948.41	225.38
948.71	225.19
949.01	225.21
949.31	225.16
949.60	225.11
949.90	225.13
950.20	225.19
950.50	225.17
950.79	225.11
951.09	225.16
951.39	225.10
951.69	225.05
951.98	225.13
952.28	225.16
952.58	225.20
952.87	225.30
953.17	225.31
953.47	225.25
953.76	225.27
954.06	225.24
954.36	225.17
954.66	225.21
954.95	225.39
955.25	225.40
955.55	225.50
955.84	225.41
956.14	225.45
956.44	225.46
956.73	225.41
957.03	225.46
957.32	225.42
957.62	225.45
957.92	225.61
958.21	225.56
958.51	226.02
958.81	226.13
959.10	226.13
959.40	226.33
959.69	226.42
959.99	226.43
960.29	226.42
960.58	226.42
960.88	226.60
961.17	226.51
961.47	226.57
961.76	226.55
962.06	226.66
962.36	226.69
962.65	226.72
962.95	226.75
963.24	226.72
963.54	226.78
963.83	226.85
964.13	226.80
964.42	226.64
964.72	226.35
965.01	226.29
965.31	226.31
965.60	226.14
965.90	226.35
966.19	226.25
966.49	226.26
966.78	226.28
967.08	226.25
967.37	226.30
967.67	226.24
967.96	226.30
968.26	226.23
968.55	226.26
968.85	226.19
969.14	226.19
969.43	226.15
969.73	226.11
970.02	226.11
970.32	226.04
970.61	226.10
970.91	225.93
971.20	225.87
971.49	225.77
971.79	225.75
972.08	225.48
972.38	225.54
972.67	225.47
972.96	225.52
973.26	225.39
973.55	225.54
973.85	225.54
974.14	225.51
974.43	225.47
974.73	225.41
975.02	225.43
975.31	225.39
975.61	225.42
975.90	225.38
976.19	225.31
976.49	225.36
976.78	225.32
977.07	225.30
977.37	225.38
977.66	225.44
977.95	225.42
978.24	225.47
978.54	225.54
978.83	225.53
979.12	225.46
979.42	225.45
979.71	225.33
980.00	225.27
980.29	225.24
980.59	225.19
980.88	225.25
981.17	225.23
981.46	225.27
981.76	225.17
982.05	225.29
982.34	225.32
982.63	225.34
982.93	225.37
983.22	225.55
983.51	225.55
983.80	225.59
984.09	225.62
984.39	225.55
984.68	225.53
984.97	225.52
985.26	225.51
985.55	225.55
985.85	225.48
986.14	225.52
986.43	225.57
986.72	225.57
987.01	225.50
987.30	225.48
987.59	225.45
987.89	225.53
988.18	225.47
988.47	225.40
988.76	225.38
989.05	225.35
989.34	225.29
989.63	225.43
989.92	225.40
990.22	225.40
990.51	225.41
990.80	225.41
991.09	225.45
991.38	225.59
991.67	225.54
991.96	225.53
992.25	225.59
992.54	225.57
992.83	225.64
993.12	225.55
993.41	225.64
993.70	225.95
993.99	226.05
994.28	226.01
994.58	226.12
994.87	226.04
995.16	226.11
995.45	226.04
995.74	225.84
996.03	225.93
996.32	225.98
996.61	226.12
996.90	226.10
997.19	226.18
997.48	226.10
997.77	226.06
998.06	226.06
998.34	226.04
998.63	226.01
998.92	226.01
999.21	226.13
999.50	226.08
999.79	225.83
1000.08	225.83
1000.37	225.88
1000.66	225.87
1000.95	226.01
1001.24	225.98
1001.53	226.04
1001.82	226.11
1002.11	226.03
1002.40	226.03
1002.68	226.12
1002.97	226.46
1003.26	226.39
1003.55	226.38
1003.84	226.45
1004.13	226.57
1004.42	226.52
1004.71	226.52
1004.99	226.48
1005.28	226.57
1005.57	226.51
1005.86	226.42
1006.15	226.36
1006.44	226.29
1006.72	226.28
1007.01	226.22
1007.30	226.25
1007.59	226.19
1007.88	226.11
1008.17	226.01
1008.45	225.89
1008.74	225.65
1009.03	225.36
1009.32	225.30
1009.60	225.27
1009.89	225.23
1010.18	225.10
1010.47	225.12
1010.76	225.04
1011.04	225.04
1011.33	225.07
1011.62	225.16
1011.91	225.22
1012.19	225.23
1012.48	225.20
1012.77	225.16
1013.05	225.42
1013.34	225.40
1013.63	225.39
1013.92	225.40
1014.20	225.42
1014.49	225.50
1014.78	225.60
1015.06	225.43
1015.35	225.39
1015.64	225.42
1015.92	225.51
1016.21	225.53
1016.50	225.51
1016.78	225.58
1017.07	225.61
1017.36	225.47
1017.64	225.35
1017.93	225.36
1018.22	225.33
1018.50	225.31
1018.79	225.33
1019.08	225.02
1019.36	225.03
1019.65	224.96
1019.93	225.09
1020.22	225.19
1020.51	225.40
1020.79	225.30
1021.08	224.95
1021.36	223.85
1021.65	225.55
1021.94	224.55
1022.22	225.50
1022.51	224.10
1022.79	227.30
1023.08	225.90
1023.36	231.05
1023.65	224.10
>>>>>End Processed Spectral Data<<<<<
