SpectraSuite Data File
++++++++++++++++++++++++++++++++++++
Date: Wed Sep 04 18:01:13 EDT 2013
User: lab3
Dark Spectrum Present: Yes
Reference Spectrum Present: No
Number of Sampled Component Spectra: 1
Spectrometers: USB2E7196
Integration Time (usec): 170000 (USB2E7196)
Spectra Averaged: 20 (USB2E7196)
Boxcar Smoothing: 10 (USB2E7196)
Correct for Electrical Dark: No (USB2E7196)
Strobe/Lamp Enabled: No (USB2E7196)
Correct for Detector Non-linearity: No (USB2E7196)
Correct for Stray Light: No (USB2E7196)
Number of Pixels in Processed Spectrum: 2048
>>>>>Begin Processed Spectral Data<<<<<
339.09	0.00
339.48	213.55
339.86	214.70
340.24	216.10
340.63	217.85
341.01	225.25
341.39	221.65
341.78	222.65
342.16	224.55
342.54	225.00
342.93	212.83
343.31	223.53
343.69	224.10
344.07	224.56
344.46	225.09
344.84	225.55
345.22	225.57
345.60	225.81
345.99	225.97
346.37	226.10
346.75	226.15
347.13	226.20
347.52	226.20
347.90	226.40
348.28	226.34
348.66	226.51
349.05	226.39
349.43	226.44
349.81	226.52
350.19	226.58
350.57	226.66
350.96	226.79
351.34	226.95
351.72	227.05
352.10	227.23
352.48	227.20
352.87	227.14
353.25	227.15
353.63	227.15
354.01	227.25
354.39	227.29
354.77	227.38
355.15	227.58
355.54	227.63
355.92	227.54
356.30	227.66
356.68	227.96
357.06	228.13
357.44	228.07
357.82	228.10
358.20	228.58
358.58	228.70
358.97	228.74
359.35	228.94
359.73	229.06
360.11	229.12
360.49	229.20
360.87	229.27
361.25	229.50
361.63	229.78
362.01	229.89
362.39	229.92
362.77	230.03
363.15	230.02
363.53	230.03
363.91	230.14
364.29	230.20
364.67	229.89
365.05	229.86
365.43	229.98
365.81	230.04
366.19	229.94
366.57	230.07
366.95	230.08
367.33	229.94
367.71	229.87
368.09	229.96
368.47	229.96
368.85	229.98
369.23	230.04
369.61	229.75
369.99	229.85
370.37	229.85
370.75	230.04
371.13	229.94
371.51	229.85
371.89	229.81
372.27	229.82
372.65	229.81
373.03	229.82
373.41	229.78
373.78	229.74
374.16	229.47
374.54	229.26
374.92	229.18
375.30	229.05
375.68	228.98
376.06	228.86
376.44	228.78
376.82	228.72
377.19	228.55
377.57	228.56
377.95	228.35
378.33	228.29
378.71	227.95
379.09	227.96
379.47	228.01
379.84	227.88
380.22	227.73
380.60	227.49
380.98	227.44
381.36	227.33
381.73	227.19
382.11	227.20
382.49	227.09
382.87	226.98
383.25	226.97
383.62	227.43
384.00	227.25
384.38	227.21
384.76	227.24
385.13	227.35
385.51	227.29
385.89	227.10
386.27	227.05
386.64	226.99
387.02	226.86
387.40	226.69
387.78	226.72
388.15	226.69
388.53	226.69
388.91	226.63
389.29	226.57
389.66	226.59
390.04	226.46
390.42	226.57
390.79	226.60
391.17	226.54
391.55	225.97
391.92	226.02
392.30	226.08
392.68	226.07
393.05	226.02
393.43	226.08
393.81	226.18
394.18	226.18
394.56	226.26
394.94	226.43
395.31	226.45
395.69	226.64
396.06	226.80
396.44	226.86
396.82	226.84
397.19	227.12
397.57	227.17
397.95	227.29
398.32	227.24
398.70	227.35
399.07	227.55
399.45	227.58
399.82	227.64
400.20	227.62
400.58	227.51
400.95	227.50
401.33	227.65
401.70	228.10
402.08	228.20
402.45	228.31
402.83	228.55
403.20	228.81
403.58	228.86
403.95	229.02
404.33	229.27
404.71	229.50
405.08	229.98
405.46	230.19
405.83	230.41
406.21	230.67
406.58	230.95
406.96	231.17
407.33	231.58
407.70	231.97
408.08	232.78
408.45	233.36
408.83	233.86
409.20	234.22
409.58	234.36
409.95	234.91
410.33	235.45
410.70	235.80
411.08	236.41
411.45	237.05
411.82	237.66
412.20	238.46
412.57	239.49
412.95	239.83
413.32	240.73
413.69	241.59
414.07	242.61
414.44	243.60
414.82	244.64
415.19	245.89
415.56	247.07
415.94	248.04
416.31	249.48
416.68	250.85
417.06	252.56
417.43	254.31
417.81	256.06
418.18	257.90
418.55	259.85
418.93	261.90
419.30	264.06
419.67	266.35
420.04	268.57
420.42	270.87
420.79	273.92
421.16	276.77
421.54	279.94
421.91	282.88
422.28	285.96
422.66	289.26
423.03	292.75
423.40	296.19
423.77	299.77
424.15	303.42
424.52	307.15
424.89	311.41
425.26	315.34
425.64	319.10
426.01	323.30
426.38	327.81
426.75	332.28
427.13	336.82
427.50	341.51
427.87	346.48
428.24	351.35
428.61	355.84
428.99	361.14
429.36	366.60
429.73	372.09
430.10	377.65
430.47	383.28
430.85	388.90
431.22	395.03
431.59	401.93
431.96	408.14
432.33	415.08
432.70	421.64
433.08	429.42
433.45	436.93
433.82	444.31
434.19	452.53
434.56	460.67
434.93	468.39
435.30	476.26
435.68	484.98
436.05	493.61
436.42	502.16
436.79	509.92
437.16	518.25
437.53	527.23
437.90	536.14
438.27	544.90
438.64	553.87
439.01	562.33
439.38	569.52
439.75	576.68
440.13	584.98
440.50	592.63
440.87	598.93
441.24	605.41
441.61	612.48
441.98	617.55
442.35	623.45
442.72	629.41
443.09	635.37
443.46	638.72
443.83	640.91
444.20	642.85
444.57	645.57
444.94	646.66
445.31	647.67
445.68	648.86
446.05	648.97
446.42	647.61
446.79	646.04
447.16	644.23
447.53	643.10
447.90	639.29
448.27	635.52
448.64	630.60
449.01	626.79
449.37	620.64
449.74	614.54
450.11	607.63
450.48	599.98
450.85	591.75
451.22	584.85
451.59	578.20
451.96	571.83
452.33	563.63
452.70	556.41
453.07	547.65
453.43	538.59
453.80	530.24
454.17	522.12
454.54	514.47
454.91	506.34
455.28	498.23
455.65	490.72
456.02	483.82
456.38	477.32
456.75	469.61
457.12	462.98
457.49	456.59
457.86	450.10
458.23	444.85
458.59	439.16
458.96	433.35
459.33	428.24
459.70	423.00
460.07	418.88
460.43	414.05
460.80	409.77
461.17	405.95
461.54	401.91
461.91	398.10
462.27	394.10
462.64	390.85
463.01	387.27
463.38	384.06
463.74	380.09
464.11	377.16
464.48	374.47
464.85	371.59
465.21	369.47
465.58	367.26
465.95	364.41
466.32	362.17
466.68	359.88
467.05	357.67
467.42	355.48
467.78	353.20
468.15	350.93
468.52	349.28
468.88	346.99
469.25	345.03
469.62	343.63
469.98	341.99
470.35	340.50
470.72	339.08
471.08	337.29
471.45	336.03
471.82	334.64
472.18	333.19
472.55	332.17
472.92	330.81
473.28	329.62
473.65	328.42
474.02	327.29
474.38	326.47
474.75	325.68
475.11	324.74
475.48	324.00
475.85	323.34
476.21	322.75
476.58	322.31
476.94	321.91
477.31	321.42
477.67	321.07
478.04	320.67
478.41	320.36
478.77	320.65
479.14	320.18
479.50	320.03
479.87	320.10
480.23	320.11
480.60	320.09
480.96	320.08
481.33	320.54
481.69	320.80
482.06	321.04
482.42	321.35
482.79	321.80
483.15	322.23
483.52	322.90
483.88	323.36
484.25	323.82
484.61	324.41
484.98	325.03
485.34	325.94
485.71	326.89
486.07	327.98
486.44	328.59
486.80	329.82
487.17	331.04
487.53	332.33
487.90	333.76
488.26	335.50
488.62	337.30
488.99	338.84
489.35	340.60
489.72	342.41
490.08	344.35
490.44	346.32
490.81	348.53
491.17	350.74
491.54	353.19
491.90	355.85
492.26	358.56
492.63	361.41
492.99	364.26
493.36	367.28
493.72	370.58
494.08	373.95
494.45	377.74
494.81	381.61
495.17	385.48
495.54	389.72
495.90	394.00
496.26	398.35
496.63	403.08
496.99	407.82
497.35	412.84
497.72	418.01
498.08	423.48
498.44	429.21
498.80	435.31
499.17	441.49
499.53	447.82
499.89	454.45
500.26	461.22
500.62	468.30
500.98	475.82
501.34	483.27
501.71	491.13
502.07	498.82
502.43	506.95
502.79	515.39
503.16	524.00
503.52	532.95
503.88	542.34
504.24	551.91
504.60	561.88
504.97	572.31
505.33	582.92
505.69	594.23
506.05	605.32
506.41	616.54
506.78	628.32
507.14	640.64
507.50	653.12
507.86	665.70
508.22	678.73
508.59	691.92
508.95	705.53
509.31	719.80
509.67	734.26
510.03	748.60
510.39	763.29
510.75	778.56
511.12	793.69
511.48	809.40
511.84	825.25
512.20	841.35
512.56	857.53
512.92	874.38
513.28	890.99
513.64	908.29
514.00	925.76
514.37	943.30
514.73	961.17
515.09	979.26
515.45	997.82
515.81	1016.27
516.17	1035.10
516.53	1053.76
516.89	1072.38
517.25	1091.67
517.61	1112.11
517.97	1132.84
518.33	1152.74
518.69	1173.25
519.05	1193.86
519.41	1214.60
519.77	1235.79
520.13	1256.61
520.49	1277.45
520.85	1300.10
521.21	1321.27
521.57	1342.89
521.93	1363.68
522.29	1385.17
522.65	1405.87
523.01	1427.10
523.37	1448.15
523.73	1469.40
524.09	1489.94
524.45	1510.78
524.81	1531.85
525.17	1552.57
525.53	1572.77
525.89	1593.91
526.25	1614.76
526.61	1634.98
526.97	1656.04
527.33	1677.15
527.68	1699.31
528.04	1720.70
528.40	1740.35
528.76	1761.54
529.12	1782.05
529.48	1802.90
529.84	1822.92
530.20	1844.36
530.56	1865.03
530.91	1886.09
531.27	1906.60
531.63	1927.80
531.99	1948.55
532.35	1968.83
532.71	1989.19
533.07	2010.11
533.42	2029.77
533.78	2049.90
534.14	2070.02
534.50	2089.28
534.86	2108.71
535.21	2126.05
535.57	2144.60
535.93	2162.15
536.29	2179.79
536.65	2198.09
537.00	2216.15
537.36	2233.82
537.72	2250.56
538.08	2268.04
538.44	2284.39
538.79	2300.78
539.15	2317.34
539.51	2333.42
539.87	2349.06
540.22	2363.34
540.58	2377.67
540.94	2391.53
541.29	2404.11
541.65	2416.89
542.01	2429.76
542.37	2440.38
542.72	2451.87
543.08	2462.61
543.44	2474.18
543.79	2484.79
544.15	2494.87
544.51	2505.12
544.87	2514.69
545.22	2523.23
545.58	2530.95
545.94	2538.68
546.29	2545.40
546.65	2551.60
547.01	2557.12
547.36	2562.38
547.72	2567.39
548.07	2571.75
548.43	2577.05
548.79	2582.13
549.14	2586.21
549.50	2589.95
549.86	2594.40
550.21	2598.31
550.57	2601.60
550.92	2603.67
551.28	2605.10
551.64	2607.62
551.99	2609.63
552.35	2611.74
552.70	2614.14
553.06	2615.60
553.41	2616.82
553.77	2618.66
554.13	2620.74
554.48	2622.47
554.84	2624.23
555.19	2625.75
555.55	2627.26
555.90	2626.22
556.26	2625.55
556.61	2624.23
556.97	2622.30
557.32	2621.72
557.68	2620.33
558.03	2618.83
558.39	2617.54
558.74	2616.37
559.10	2613.11
559.45	2609.73
559.81	2605.06
560.16	2599.97
560.52	2595.33
560.87	2591.15
561.23	2585.28
561.58	2579.26
561.94	2572.25
562.29	2564.59
562.64	2557.78
563.00	2549.48
563.35	2543.21
563.71	2536.30
564.06	2530.07
564.42	2523.41
564.77	2516.42
565.12	2508.96
565.48	2501.31
565.83	2493.16
566.19	2485.06
566.54	2476.84
566.89	2468.46
567.25	2460.70
567.60	2453.79
567.96	2446.20
568.31	2437.87
568.66	2429.25
569.02	2419.89
569.37	2412.19
569.72	2404.49
570.08	2394.98
570.43	2385.65
570.78	2376.75
571.14	2367.24
571.49	2357.17
571.84	2347.45
572.20	2336.22
572.55	2326.29
572.90	2315.30
573.26	2305.17
573.61	2294.36
573.96	2283.32
574.31	2271.44
574.67	2259.76
575.02	2246.84
575.37	2234.01
575.72	2220.48
576.08	2208.50
576.43	2196.14
576.78	2182.49
577.13	2168.79
577.49	2156.24
577.84	2144.42
578.19	2131.91
578.54	2119.53
578.90	2107.31
579.25	2094.93
579.60	2082.40
579.95	2069.27
580.30	2056.01
580.66	2042.41
581.01	2028.48
581.36	2014.35
581.71	2001.93
582.06	1988.82
582.42	1976.19
582.77	1963.58
583.12	1952.00
583.47	1939.42
583.82	1927.26
584.17	1915.43
584.53	1903.46
584.88	1890.45
585.23	1877.02
585.58	1862.74
585.93	1849.09
586.28	1835.59
586.63	1821.50
586.98	1807.22
587.34	1793.88
587.69	1780.95
588.04	1768.50
588.39	1756.39
588.74	1744.45
589.09	1731.81
589.44	1718.95
589.79	1706.62
590.14	1694.57
590.49	1682.44
590.84	1670.63
591.19	1658.39
591.54	1645.91
591.89	1633.68
592.25	1623.44
592.60	1611.92
592.95	1600.63
593.30	1588.66
593.65	1576.72
594.00	1564.83
594.35	1555.17
594.70	1543.28
595.05	1531.77
595.40	1519.40
595.75	1507.59
596.10	1496.07
596.45	1484.57
596.80	1473.65
597.15	1462.05
597.50	1450.20
597.85	1438.45
598.19	1426.53
598.54	1414.95
598.89	1403.47
599.24	1393.02
599.59	1381.15
599.94	1370.38
600.29	1359.83
600.64	1349.60
600.99	1338.86
601.34	1329.19
601.69	1317.94
602.04	1307.98
602.39	1298.20
602.74	1289.13
603.08	1279.73
603.43	1270.24
603.78	1260.52
604.13	1250.85
604.48	1241.15
604.83	1231.44
605.18	1221.77
605.53	1212.18
605.87	1203.01
606.22	1194.64
606.57	1185.04
606.92	1175.56
607.27	1166.31
607.62	1157.48
607.96	1148.77
608.31	1140.77
608.66	1132.25
609.01	1123.45
609.36	1114.79
609.70	1106.25
610.05	1097.23
610.40	1088.62
610.75	1079.89
611.10	1071.39
611.44	1062.74
611.79	1054.54
612.14	1046.68
612.49	1038.59
612.83	1031.03
613.18	1023.07
613.53	1015.14
613.88	1007.13
614.22	999.43
614.57	991.54
614.92	983.60
615.27	976.05
615.61	968.10
615.96	960.37
616.31	952.82
616.65	945.59
617.00	938.06
617.35	930.65
617.70	923.43
618.04	916.37
618.39	909.16
618.74	902.62
619.08	895.63
619.43	888.32
619.78	881.13
620.12	873.95
620.47	866.94
620.82	859.72
621.16	852.94
621.51	846.58
621.85	840.21
622.20	833.65
622.55	826.91
622.89	820.36
623.24	813.96
623.59	807.61
623.93	801.40
624.28	795.24
624.62	789.79
624.97	783.91
625.32	778.08
625.66	772.27
626.01	766.20
626.35	760.80
626.70	755.25
627.04	750.11
627.39	744.62
627.73	739.29
628.08	734.12
628.43	728.63
628.77	722.92
629.12	717.56
629.46	712.73
629.81	707.81
630.15	702.99
630.50	698.10
630.84	693.22
631.19	688.25
631.53	683.75
631.88	678.30
632.22	673.31
632.57	668.68
632.91	664.01
633.26	659.56
633.60	654.68
633.95	650.10
634.29	645.23
634.64	640.72
634.98	636.00
635.32	631.56
635.67	627.47
636.01	623.41
636.36	619.06
636.70	614.88
637.05	610.76
637.39	606.65
637.73	602.57
638.08	598.50
638.42	594.26
638.77	589.68
639.11	585.42
639.45	581.14
639.80	576.77
640.14	572.66
640.49	568.55
640.83	564.70
641.17	561.00
641.52	557.25
641.86	553.66
642.20	550.41
642.55	546.74
642.89	543.14
643.23	539.63
643.58	536.45
643.92	532.61
644.26	529.18
644.61	525.91
644.95	522.45
645.29	519.02
645.64	515.98
645.98	512.98
646.32	510.10
646.66	506.99
647.01	503.92
647.35	501.10
647.69	498.09
648.04	495.30
648.38	492.30
648.72	489.45
649.06	486.51
649.41	483.43
649.75	480.38
650.09	477.40
650.43	474.38
650.78	471.41
651.12	468.68
651.46	465.90
651.80	463.04
652.14	460.28
652.49	457.82
652.83	455.14
653.17	452.43
653.51	449.63
653.85	447.17
654.20	444.70
654.54	442.11
654.88	439.61
655.22	437.40
655.56	434.98
655.90	432.61
656.25	430.31
656.59	428.06
656.93	425.96
657.27	423.88
657.61	421.45
657.95	419.18
658.29	417.05
658.64	414.95
658.98	412.68
659.32	410.48
659.66	408.09
660.00	405.98
660.34	403.92
660.68	401.86
661.02	399.74
661.36	397.78
661.70	395.74
662.05	393.77
662.39	391.75
662.73	389.97
663.07	388.34
663.41	386.47
663.75	384.50
664.09	382.62
664.43	380.69
664.77	379.13
665.11	377.34
665.45	375.63
665.79	373.88
666.13	372.22
666.47	370.60
666.81	369.02
667.15	367.27
667.49	365.80
667.83	364.53
668.17	363.08
668.51	361.65
668.85	360.23
669.19	359.02
669.53	357.31
669.87	355.85
670.21	354.12
670.55	352.69
670.89	351.56
671.23	350.15
671.57	348.78
671.91	347.42
672.25	346.21
672.58	344.98
672.92	343.58
673.26	342.35
673.60	341.15
673.94	340.07
674.28	339.01
674.62	337.83
674.96	336.53
675.30	335.34
675.64	334.05
675.97	332.86
676.31	331.62
676.65	330.51
676.99	329.52
677.33	328.47
677.67	327.37
678.01	326.06
678.34	324.95
678.68	323.93
679.02	322.79
679.36	321.67
679.70	320.57
680.04	319.61
680.37	318.61
680.71	317.50
681.05	316.55
681.39	315.57
681.73	314.64
682.06	313.72
682.40	312.93
682.74	312.13
683.08	311.41
683.42	310.48
683.75	309.78
684.09	308.80
684.43	307.96
684.77	307.04
685.10	306.31
685.44	305.57
685.78	304.73
686.12	304.03
686.45	303.27
686.79	302.48
687.13	301.83
687.46	301.13
687.80	300.56
688.14	299.61
688.48	298.84
688.81	298.01
689.15	297.34
689.49	296.52
689.82	295.82
690.16	294.95
690.50	294.19
690.83	293.35
691.17	292.58
691.51	291.93
691.84	291.35
692.18	290.59
692.52	289.97
692.85	289.38
693.19	288.95
693.52	288.28
693.86	287.60
694.20	286.93
694.53	286.26
694.87	285.53
695.21	284.90
695.54	284.27
695.88	283.61
696.21	282.85
696.55	282.26
696.88	281.65
697.22	280.99
697.56	280.52
697.89	279.92
698.23	279.42
698.56	278.78
698.90	278.27
699.23	277.70
699.57	277.15
699.90	276.55
700.24	275.90
700.58	275.47
700.91	275.12
701.25	274.96
701.58	274.79
701.92	274.31
702.25	274.00
702.59	273.49
702.92	273.04
703.26	272.62
703.59	272.19
703.93	272.08
704.26	271.72
704.60	271.24
704.93	270.80
705.26	270.40
705.60	270.07
705.93	269.60
706.27	269.33
706.60	269.02
706.94	268.92
707.27	268.48
707.61	268.13
707.94	267.74
708.27	267.01
708.61	266.23
708.94	265.93
709.28	265.50
709.61	265.12
709.94	264.83
710.28	264.55
710.61	264.15
710.95	263.32
711.28	263.27
711.61	262.86
711.95	262.62
712.28	262.17
712.61	261.75
712.95	261.64
713.28	261.50
713.61	260.96
713.95	260.42
714.28	260.06
714.61	259.57
714.95	259.24
715.28	258.91
715.61	258.68
715.95	258.33
716.28	258.01
716.61	257.75
716.95	257.42
717.28	257.04
717.61	256.70
717.94	256.53
718.28	255.84
718.61	255.64
718.94	255.27
719.27	255.05
719.61	254.91
719.94	254.51
720.27	253.99
720.60	253.85
720.94	253.60
721.27	253.41
721.60	253.26
721.93	252.97
722.27	252.88
722.60	252.72
722.93	252.42
723.26	252.33
723.59	252.05
723.93	251.92
724.26	251.74
724.59	251.55
724.92	251.39
725.25	251.29
725.59	250.99
725.92	250.86
726.25	250.62
726.58	250.38
726.91	250.25
727.24	250.13
727.57	249.85
727.91	249.57
728.24	249.39
728.57	249.24
728.90	249.09
729.23	248.79
729.56	248.86
729.89	248.78
730.22	248.47
730.55	248.31
730.89	248.10
731.22	247.92
731.55	247.73
731.88	247.59
732.21	247.39
732.54	247.22
732.87	247.05
733.20	246.90
733.53	246.72
733.86	246.56
734.19	246.29
734.52	246.22
734.85	246.32
735.18	246.06
735.51	245.93
735.84	245.82
736.17	245.72
736.50	245.19
736.83	245.58
737.16	245.44
737.49	245.35
737.82	245.16
738.15	245.09
738.48	245.00
738.81	244.79
739.14	244.60
739.47	244.46
739.80	244.26
740.13	244.12
740.46	243.95
740.79	243.60
741.12	243.50
741.45	243.32
741.78	243.00
742.11	243.08
742.44	242.87
742.77	242.70
743.10	242.47
743.43	242.33
743.75	241.65
744.08	242.11
744.41	241.89
744.74	241.70
745.07	241.47
745.40	241.38
745.73	241.44
746.06	241.34
746.39	241.26
746.71	241.13
747.04	240.97
747.37	240.80
747.70	240.88
748.03	240.78
748.36	240.73
748.68	240.56
749.01	240.23
749.34	240.17
749.67	240.14
750.00	240.12
750.33	240.42
750.65	240.35
750.98	239.65
751.31	239.55
751.64	239.49
751.97	239.64
752.29	239.55
752.62	239.20
752.95	239.09
753.28	238.86
753.60	238.74
753.93	238.77
754.26	238.79
754.59	238.53
754.91	238.41
755.24	238.21
755.57	238.15
755.90	238.13
756.22	237.90
756.55	237.67
756.88	237.51
757.20	237.07
757.53	236.80
757.86	236.79
758.19	236.74
758.51	236.69
758.84	236.35
759.17	236.15
759.49	236.09
759.82	236.30
760.15	236.31
760.47	236.27
760.80	236.02
761.13	235.92
761.45	235.85
761.78	235.72
762.11	235.70
762.43	235.54
762.76	235.41
763.08	235.45
763.41	235.44
763.74	235.38
764.06	235.24
764.39	235.23
764.71	235.05
765.04	234.94
765.37	234.73
765.69	234.65
766.02	234.63
766.34	234.56
766.67	234.21
767.00	234.20
767.32	234.35
767.65	234.65
767.97	234.51
768.30	234.45
768.62	234.40
768.95	234.24
769.27	234.16
769.60	234.12
769.92	233.97
770.25	233.82
770.57	233.62
770.90	233.61
771.22	233.50
771.55	233.43
771.87	233.39
772.20	233.35
772.52	233.70
772.85	234.19
773.17	234.16
773.50	234.11
773.82	233.97
774.15	233.66
774.47	233.28
774.80	233.22
775.12	233.15
775.45	233.06
775.77	233.02
776.09	233.07
776.42	233.09
776.74	233.18
777.07	233.10
777.39	233.15
777.72	233.06
778.04	233.06
778.36	233.01
778.69	233.00
779.01	233.04
779.33	232.56
779.66	231.97
779.98	231.89
780.31	231.84
780.63	232.04
780.95	232.07
781.28	232.00
781.60	231.88
781.92	231.81
782.25	231.81
782.57	231.80
782.89	231.70
783.22	231.56
783.54	231.43
783.86	231.44
784.19	231.37
784.51	231.50
784.83	231.41
785.16	231.35
785.48	231.31
785.80	231.25
786.12	231.32
786.45	231.22
786.77	231.28
787.09	231.22
787.42	231.02
787.74	230.98
788.06	230.99
788.38	231.05
788.71	230.99
789.03	230.97
789.35	231.03
789.67	230.88
789.99	230.92
790.32	230.86
790.64	230.92
790.96	231.23
791.28	231.01
791.61	230.94
791.93	230.94
792.25	230.89
792.57	231.19
792.89	231.05
793.21	231.11
793.54	230.94
793.86	230.87
794.18	230.87
794.50	230.75
794.82	230.75
795.14	230.70
795.47	230.77
795.79	230.79
796.11	230.63
796.43	230.69
796.75	230.68
797.07	230.63
797.39	230.55
797.71	230.20
798.04	230.22
798.36	230.28
798.68	230.26
799.00	230.24
799.32	229.96
799.64	230.06
799.96	230.02
800.28	230.06
800.60	230.00
800.92	230.01
801.24	230.01
801.56	229.96
801.89	229.98
802.21	230.07
802.53	229.91
802.85	229.96
803.17	230.20
803.49	230.02
803.81	230.06
804.13	229.98
804.45	229.97
804.77	229.95
805.09	229.92
805.41	229.88
805.73	229.71
806.05	229.62
806.37	229.52
806.69	229.45
807.01	229.41
807.33	229.51
807.65	229.24
807.97	229.50
808.28	229.49
808.60	229.48
808.92	229.29
809.24	229.58
809.56	229.51
809.88	229.27
810.20	229.36
810.52	229.36
810.84	229.24
811.16	229.10
811.48	229.12
811.80	229.25
812.12	229.24
812.43	229.45
812.75	229.45
813.07	229.37
813.39	229.39
813.71	229.36
814.03	229.25
814.35	229.32
814.67	229.01
814.98	228.90
815.30	228.82
815.62	228.70
815.94	228.42
816.26	228.71
816.58	228.60
816.89	228.60
817.21	228.42
817.53	228.45
817.85	228.46
818.17	228.38
818.48	228.16
818.80	228.24
819.12	228.10
819.44	227.99
819.76	227.99
820.07	227.95
820.39	227.90
820.71	227.93
821.03	227.96
821.34	227.98
821.66	228.07
821.98	228.06
822.30	228.11
822.61	228.35
822.93	228.06
823.25	228.10
823.57	228.00
823.88	228.06
824.20	228.07
824.52	228.18
824.83	228.15
825.15	228.14
825.47	228.09
825.79	228.12
826.10	228.14
826.42	228.00
826.74	228.03
827.05	228.07
827.37	228.05
827.69	227.98
828.00	227.99
828.32	227.94
828.64	227.97
828.95	228.20
829.27	228.04
829.58	228.04
829.90	228.07
830.22	228.12
830.53	228.08
830.85	228.13
831.17	228.00
831.48	228.05
831.80	228.09
832.11	228.03
832.43	227.96
832.75	227.97
833.06	228.37
833.38	228.27
833.69	228.15
834.01	228.20
834.32	228.18
834.64	228.17
834.96	228.19
835.27	228.11
835.59	227.95
835.90	227.95
836.22	227.88
836.53	227.82
836.85	227.78
837.16	228.23
837.48	228.18
837.79	228.34
838.11	228.32
838.42	228.25
838.74	228.35
839.05	228.33
839.37	228.29
839.68	227.92
840.00	227.90
840.31	227.98
840.63	227.93
840.94	227.88
841.26	227.79
841.57	227.75
841.88	227.74
842.20	227.62
842.51	227.53
842.83	227.48
843.14	227.83
843.46	227.78
843.77	227.51
844.08	227.46
844.40	227.31
844.71	227.29
845.03	227.30
845.34	227.22
845.65	227.11
845.97	227.10
846.28	227.22
846.60	227.22
846.91	227.15
847.22	227.12
847.54	227.18
847.85	227.24
848.16	227.22
848.48	227.21
848.79	227.45
849.10	227.48
849.42	227.52
849.73	227.04
850.04	227.12
850.36	226.94
850.67	227.03
850.98	227.03
851.30	227.09
851.61	227.08
851.92	227.04
852.23	227.25
852.55	227.25
852.86	227.21
853.17	227.30
853.49	227.42
853.80	227.54
854.11	227.59
854.42	227.64
854.74	227.59
855.05	227.60
855.36	227.28
855.67	227.28
855.99	227.38
856.30	228.00
856.61	227.95
856.92	227.97
857.23	227.91
857.55	227.79
857.86	227.68
858.17	227.77
858.48	227.67
858.79	227.54
859.11	227.58
859.42	227.51
859.73	227.42
860.04	227.36
860.35	227.16
860.66	227.02
860.98	227.01
861.29	227.05
861.60	226.97
861.91	227.20
862.22	227.13
862.53	227.05
862.84	226.53
863.16	226.61
863.47	226.56
863.78	226.60
864.09	226.73
864.40	226.78
864.71	226.76
865.02	226.86
865.33	226.83
865.64	226.79
865.95	226.76
866.27	227.05
866.58	227.05
866.89	227.15
867.20	227.13
867.51	227.02
867.82	227.08
868.13	227.26
868.44	227.13
868.75	227.22
869.06	227.18
869.37	227.23
869.68	227.14
869.99	227.20
870.30	227.18
870.61	227.19
870.92	227.08
871.23	227.05
871.54	227.15
871.85	227.23
872.16	227.32
872.47	227.39
872.78	227.13
873.09	227.18
873.40	227.10
873.71	227.20
874.02	227.25
874.33	227.16
874.64	227.05
874.95	227.11
875.26	227.04
875.56	227.02
875.87	227.04
876.18	227.07
876.49	227.58
876.80	227.61
877.11	227.55
877.42	227.67
877.73	227.65
878.04	227.56
878.35	227.67
878.66	227.65
878.96	227.58
879.27	227.60
879.58	227.53
879.89	227.60
880.20	227.76
880.51	227.76
880.82	227.77
881.12	227.85
881.43	227.80
881.74	227.75
882.05	227.71
882.36	227.73
882.67	227.65
882.97	227.09
883.28	227.05
883.59	227.05
883.90	226.99
884.21	227.10
884.51	227.14
884.82	226.97
885.13	227.00
885.44	227.11
885.74	227.07
886.05	227.09
886.36	227.03
886.67	226.75
886.98	226.99
887.28	226.99
887.59	226.92
887.90	226.88
888.20	226.87
888.51	226.95
888.82	226.83
889.13	226.84
889.43	227.30
889.74	227.20
890.05	227.13
890.35	227.12
890.66	226.97
890.97	226.83
891.28	226.76
891.58	226.70
891.89	226.62
892.20	226.55
892.50	226.47
892.81	226.44
893.12	226.45
893.42	226.18
893.73	226.20
894.04	226.21
894.34	226.20
894.65	226.18
894.95	226.12
895.26	226.12
895.57	226.40
895.87	225.87
896.18	225.95
896.48	226.03
896.79	226.05
897.10	226.12
897.40	226.11
897.71	226.21
898.01	226.15
898.32	226.14
898.63	226.18
898.93	226.21
899.24	226.26
899.54	226.28
899.85	226.24
900.15	226.21
900.46	226.18
900.76	226.24
901.07	226.25
901.38	226.23
901.68	226.29
901.99	226.04
902.29	226.12
902.60	226.09
902.90	225.99
903.21	225.98
903.51	225.90
903.82	226.01
904.12	226.03
904.43	226.12
904.73	226.15
905.03	226.16
905.34	226.59
905.64	226.51
905.95	226.51
906.25	226.49
906.56	226.54
906.86	226.54
907.17	226.51
907.47	226.52
907.77	226.57
908.08	226.52
908.38	226.59
908.69	226.58
908.99	226.72
909.30	226.82
909.60	226.91
909.90	227.00
910.21	226.90
910.51	226.86
910.81	226.82
911.12	226.88
911.42	226.90
911.73	226.52
912.03	226.60
912.33	226.74
912.64	226.81
912.94	226.78
913.24	226.78
913.55	226.76
913.85	226.78
914.15	226.87
914.46	226.97
914.76	226.93
915.06	226.90
915.37	226.85
915.67	226.81
915.97	226.72
916.27	226.64
916.58	226.68
916.88	226.61
917.18	226.65
917.49	226.93
917.79	226.96
918.09	226.95
918.39	227.11
918.70	227.10
919.00	227.15
919.30	227.38
919.60	227.33
919.91	227.33
920.21	227.36
920.51	227.25
920.81	227.21
921.12	227.29
921.42	227.33
921.72	227.27
922.02	227.25
922.32	227.36
922.63	227.40
922.93	227.62
923.23	227.70
923.53	227.68
923.83	227.36
924.13	227.40
924.44	227.42
924.74	227.49
925.04	227.55
925.34	227.50
925.64	227.29
925.94	227.32
926.24	227.58
926.55	227.57
926.85	227.62
927.15	227.59
927.45	227.55
927.75	227.50
928.05	227.49
928.35	227.50
928.65	227.55
928.95	227.57
929.26	227.41
929.56	227.52
929.86	227.55
930.16	227.45
930.46	227.35
930.76	227.36
931.06	227.07
931.36	226.92
931.66	227.09
931.96	227.15
932.26	227.16
932.56	226.97
932.86	226.98
933.16	227.02
933.46	226.95
933.76	226.85
934.06	227.05
934.36	227.18
934.66	227.14
934.96	227.02
935.26	227.03
935.56	227.09
935.86	226.94
936.16	226.80
936.46	226.81
936.76	226.82
937.06	226.73
937.36	226.75
937.66	226.78
937.96	226.56
938.26	226.43
938.56	226.44
938.86	226.43
939.16	226.48
939.46	226.41
939.76	226.46
940.06	226.46
940.35	226.23
940.65	226.05
940.95	226.05
941.25	225.99
941.55	225.87
941.85	225.78
942.15	225.88
942.45	226.07
942.75	226.02
943.04	226.08
943.34	226.19
943.64	226.17
943.94	226.04
944.24	226.11
944.54	226.12
944.84	226.02
945.13	225.99
945.43	225.89
945.73	225.93
946.03	225.83
946.33	225.86
946.62	225.86
946.92	225.79
947.22	225.86
947.52	225.86
947.82	225.98
948.11	225.94
948.41	225.84
948.71	225.64
949.01	225.71
949.31	225.62
949.60	225.51
949.90	225.62
950.20	225.65
950.50	225.61
950.79	225.57
951.09	225.70
951.39	225.74
951.69	225.80
951.98	225.86
952.28	225.93
952.58	225.88
952.87	225.94
953.17	226.09
953.47	226.08
953.76	226.15
954.06	226.07
954.36	226.01
954.66	226.06
954.95	226.31
955.25	226.35
955.55	226.47
955.84	226.43
956.14	226.46
956.44	226.55
956.73	226.55
957.03	226.63
957.32	226.61
957.62	226.58
957.92	226.64
958.21	226.63
958.51	227.23
958.81	227.35
959.10	227.38
959.40	227.49
959.69	227.53
959.99	227.58
960.29	227.60
960.58	227.65
960.88	227.82
961.17	227.71
961.47	227.77
961.76	227.65
962.06	227.78
962.36	227.74
962.65	227.74
962.95	227.78
963.24	227.72
963.54	227.78
963.83	227.82
964.13	227.78
964.42	227.68
964.72	227.30
965.01	227.23
965.31	227.22
965.60	227.09
965.90	227.34
966.19	227.27
966.49	227.29
966.78	227.28
967.08	227.21
967.37	227.26
967.67	227.12
967.96	227.21
968.26	227.17
968.55	227.29
968.85	227.30
969.14	227.26
969.43	227.24
969.73	227.20
970.02	227.11
970.32	227.03
970.61	227.00
970.91	226.82
971.20	226.78
971.49	226.73
971.79	226.79
972.08	226.47
972.38	226.54
972.67	226.52
972.96	226.60
973.26	226.48
973.55	226.60
973.85	226.62
974.14	226.55
974.43	226.56
974.73	226.41
975.02	226.42
975.31	226.42
975.61	226.43
975.90	226.37
976.19	226.42
976.49	226.54
976.78	226.54
977.07	226.55
977.37	226.60
977.66	226.62
977.95	226.57
978.24	226.60
978.54	226.63
978.83	226.64
979.12	226.57
979.42	226.60
979.71	226.54
980.00	226.57
980.29	226.58
980.59	226.49
980.88	226.58
981.17	226.51
981.46	226.53
981.76	226.53
982.05	226.67
982.34	226.69
982.63	226.65
982.93	226.68
983.22	226.85
983.51	226.89
983.80	226.97
984.09	227.02
984.39	226.96
984.68	226.82
984.97	226.82
985.26	226.80
985.55	226.79
985.85	226.68
986.14	226.66
986.43	226.71
986.72	226.69
987.01	226.55
987.30	226.50
987.59	226.53
987.89	226.48
988.18	226.33
988.47	226.28
988.76	226.19
989.05	226.15
989.34	225.99
989.63	226.01
989.92	225.99
990.22	225.89
990.51	225.92
990.80	225.90
991.09	225.91
991.38	225.94
991.67	225.88
991.96	225.82
992.25	225.90
992.54	225.86
992.83	225.87
993.12	225.91
993.41	226.10
993.70	226.23
993.99	226.40
994.28	226.47
994.58	226.49
994.87	226.46
995.16	226.47
995.45	226.44
995.74	226.30
996.03	226.31
996.32	226.41
996.61	226.56
996.90	226.66
997.19	226.65
997.48	226.61
997.77	226.53
998.06	226.54
998.34	226.50
998.63	226.47
998.92	226.49
999.21	226.49
999.50	226.43
999.79	226.27
1000.08	226.21
1000.37	226.19
1000.66	226.15
1000.95	226.30
1001.24	226.33
1001.53	226.39
1001.82	226.38
1002.11	226.32
1002.40	226.44
1002.68	226.50
1002.97	226.79
1003.26	226.70
1003.55	226.70
1003.84	226.84
1004.13	227.07
1004.42	227.05
1004.71	227.06
1004.99	227.02
1005.28	227.25
1005.57	227.23
1005.86	227.16
1006.15	227.19
1006.44	227.12
1006.72	227.20
1007.01	227.10
1007.30	227.14
1007.59	227.07
1007.88	227.10
1008.17	227.09
1008.45	226.79
1008.74	226.55
1009.03	226.39
1009.32	226.41
1009.60	226.40
1009.89	226.34
1010.18	226.11
1010.47	226.11
1010.76	226.09
1011.04	226.11
1011.33	226.07
1011.62	226.14
1011.91	226.14
1012.19	226.12
1012.48	226.18
1012.77	226.16
1013.05	226.37
1013.34	226.33
1013.63	226.29
1013.92	226.37
1014.20	226.33
1014.49	226.37
1014.78	226.50
1015.06	226.28
1015.35	226.30
1015.64	226.31
1015.92	226.35
1016.21	226.40
1016.50	226.33
1016.78	226.42
1017.07	226.48
1017.36	226.33
1017.64	226.19
1017.93	226.28
1018.22	226.23
1018.50	226.16
1018.79	226.17
1019.08	226.04
1019.36	226.09
1019.65	226.07
1019.93	226.10
1020.22	226.21
1020.51	226.54
1020.79	226.41
1021.08	225.60
1021.36	224.90
1021.65	226.55
1021.94	228.05
1022.22	226.75
1022.51	224.75
1022.79	227.85
1023.08	227.40
1023.36	231.85
1023.65	225.00
>>>>>End Processed Spectral Data<<<<<
