SpectraSuite Data File
++++++++++++++++++++++++++++++++++++
Date: Wed Sep 04 17:42:22 EDT 2013
User: lab3
Dark Spectrum Present: Yes
Reference Spectrum Present: No
Number of Sampled Component Spectra: 1
Spectrometers: USB2E7196
Integration Time (usec): 170000 (USB2E7196)
Spectra Averaged: 20 (USB2E7196)
Boxcar Smoothing: 10 (USB2E7196)
Correct for Electrical Dark: No (USB2E7196)
Strobe/Lamp Enabled: No (USB2E7196)
Correct for Detector Non-linearity: No (USB2E7196)
Correct for Stray Light: No (USB2E7196)
Number of Pixels in Processed Spectrum: 2048
>>>>>Begin Processed Spectral Data<<<<<
339.09	0.00
339.48	212.05
339.86	212.80
340.24	215.80
340.63	216.85
341.01	225.20
341.39	217.75
341.78	222.50
342.16	223.55
342.54	222.80
342.93	211.69
343.31	222.37
343.69	222.94
344.07	223.40
344.46	223.90
344.84	224.30
345.22	224.31
345.60	224.70
345.99	224.87
346.37	224.96
346.75	225.02
347.13	225.09
347.52	225.17
347.90	225.44
348.28	225.43
348.66	225.58
349.05	225.41
349.43	225.54
349.81	225.63
350.19	225.63
350.57	225.75
350.96	225.86
351.34	225.96
351.72	226.10
352.10	226.27
352.48	226.30
352.87	226.30
353.25	226.37
353.63	226.33
354.01	226.35
354.39	226.45
354.77	226.56
355.15	226.77
355.54	226.75
355.92	226.53
356.30	226.59
356.68	226.94
357.06	227.09
357.44	227.06
357.82	227.07
358.20	227.58
358.58	227.65
358.97	227.76
359.35	227.95
359.73	228.03
360.11	228.05
360.49	228.10
360.87	228.17
361.25	228.26
361.63	228.55
362.01	228.62
362.39	228.52
362.77	228.62
363.15	228.57
363.53	228.66
363.91	228.81
364.29	228.85
364.67	228.46
365.05	228.53
365.43	228.56
365.81	228.68
366.19	228.51
366.57	228.68
366.95	228.66
367.33	228.51
367.71	228.54
368.09	228.67
368.47	228.65
368.85	228.67
369.23	228.67
369.61	228.45
369.99	228.63
370.37	228.81
370.75	229.01
371.13	229.00
371.51	228.89
371.89	228.88
372.27	228.89
372.65	228.88
373.03	228.83
373.41	228.78
373.78	228.66
374.16	228.39
374.54	228.20
374.92	228.08
375.30	228.07
375.68	227.95
376.06	227.90
376.44	227.80
376.82	227.73
377.19	227.72
377.57	227.71
377.95	227.52
378.33	227.37
378.71	226.96
379.09	226.96
379.47	226.95
379.84	226.76
380.22	226.63
380.60	226.50
380.98	226.36
381.36	226.25
381.73	226.07
382.11	226.08
382.49	226.04
382.87	225.89
383.25	225.77
383.62	226.21
384.00	226.06
384.38	225.99
384.76	226.01
385.13	226.13
385.51	226.00
385.89	225.80
386.27	225.71
386.64	225.86
387.02	225.70
387.40	225.62
387.78	225.71
388.15	225.73
388.53	225.66
388.91	225.68
389.29	225.65
389.66	225.77
390.04	225.67
390.42	225.68
390.79	225.73
391.17	225.71
391.55	225.16
391.92	225.18
392.30	225.26
392.68	225.18
393.05	225.06
393.43	225.10
393.81	225.17
394.18	225.13
394.56	225.09
394.94	225.25
395.31	225.22
395.69	225.36
396.06	225.49
396.44	225.57
396.82	225.48
397.19	225.78
397.57	225.84
397.95	226.07
398.32	226.02
398.70	226.10
399.07	226.29
399.45	226.33
399.82	226.37
400.20	226.36
400.58	226.45
400.95	226.36
401.33	226.54
401.70	226.92
402.08	227.06
402.45	227.14
402.83	227.32
403.20	227.40
403.58	227.45
403.95	227.59
404.33	227.79
404.71	228.09
405.08	228.53
405.46	228.60
405.83	228.71
406.21	228.91
406.58	229.20
406.96	229.44
407.33	229.79
407.70	230.12
408.08	230.84
408.45	231.26
408.83	231.68
409.20	231.99
409.58	232.12
409.95	232.65
410.33	233.05
410.70	233.32
411.08	233.94
411.45	234.46
411.82	234.91
412.20	235.63
412.57	236.38
412.95	236.59
413.32	237.39
413.69	238.10
414.07	238.88
414.44	239.72
414.82	240.59
415.19	241.58
415.56	242.55
415.94	243.33
416.31	244.51
416.68	245.77
417.06	247.16
417.43	248.54
417.81	250.00
418.18	251.64
418.55	253.29
418.93	255.01
419.30	256.74
419.67	258.64
420.04	260.51
420.42	262.50
420.79	265.03
421.16	267.33
421.54	269.89
421.91	272.40
422.28	274.93
422.66	277.61
423.03	280.45
423.40	283.36
423.77	286.31
424.15	289.30
424.52	292.39
424.89	295.84
425.26	299.13
425.64	302.29
426.01	305.65
426.38	309.27
426.75	313.03
427.13	316.88
427.50	320.80
427.87	324.87
428.24	328.89
428.61	332.69
428.99	337.21
429.36	341.86
429.73	346.40
430.10	350.91
430.47	355.58
430.85	360.33
431.22	365.32
431.59	370.99
431.96	376.10
432.33	381.82
432.70	387.35
433.08	393.88
433.45	400.02
433.82	406.21
434.19	413.10
434.56	419.87
434.93	426.25
435.30	432.82
435.68	440.07
436.05	447.01
436.42	453.89
436.79	460.17
437.16	466.97
437.53	474.22
437.90	481.54
438.27	488.63
438.64	496.00
439.01	502.88
439.38	508.77
439.75	514.90
440.13	521.64
440.50	527.95
440.87	533.12
441.24	538.34
441.61	544.07
441.98	548.30
442.35	553.08
442.72	558.23
443.09	563.00
443.46	565.65
443.83	567.68
444.20	569.40
444.57	571.59
444.94	572.46
445.31	573.55
445.68	574.83
446.05	575.16
446.42	574.12
446.79	573.10
447.16	571.87
447.53	570.82
447.90	567.79
448.27	564.80
448.64	560.78
449.01	557.94
449.37	552.95
449.74	547.91
450.11	542.48
450.48	535.85
450.85	529.27
451.22	523.79
451.59	518.41
451.96	513.28
452.33	506.68
452.70	500.75
453.07	493.69
453.43	486.07
453.80	479.21
454.17	472.58
454.54	466.24
454.91	459.48
455.28	452.87
455.65	446.70
456.02	441.08
456.38	435.84
456.75	429.34
457.12	423.90
457.49	418.72
457.86	413.33
458.23	409.22
458.59	404.40
458.96	399.60
459.33	395.29
459.70	391.02
460.07	387.66
460.43	383.75
460.80	380.19
461.17	377.16
461.54	373.83
461.91	370.68
462.27	367.46
462.64	364.75
463.01	361.75
463.38	359.08
463.74	355.74
464.11	353.14
464.48	351.05
464.85	348.73
465.21	347.00
465.58	345.15
465.95	342.80
466.32	341.10
466.68	339.19
467.05	337.39
467.42	335.63
467.78	333.70
468.15	331.96
468.52	330.55
468.88	328.65
469.25	326.98
469.62	325.81
469.98	324.48
470.35	323.29
470.72	322.15
471.08	320.77
471.45	319.73
471.82	318.75
472.18	317.51
472.55	316.69
472.92	315.62
473.28	314.64
473.65	313.68
474.02	312.81
474.38	312.19
474.75	311.63
475.11	310.94
475.48	310.58
475.85	310.04
476.21	309.51
476.58	309.20
476.94	308.93
477.31	308.52
477.67	308.17
478.04	307.85
478.41	307.77
478.77	308.09
479.14	307.95
479.50	307.98
479.87	308.06
480.23	308.18
480.60	308.20
480.96	308.28
481.33	308.73
481.69	308.95
482.06	309.19
482.42	309.50
482.79	309.85
483.15	310.20
483.52	310.89
483.88	311.41
484.25	311.89
484.61	312.61
484.98	313.20
485.34	314.18
485.71	315.13
486.07	315.98
486.44	316.46
486.80	317.50
487.17	318.47
487.53	319.73
487.90	321.00
488.26	322.58
488.62	324.16
488.99	325.53
489.35	327.11
489.72	328.83
490.08	330.59
490.44	332.39
490.81	334.45
491.17	336.45
491.54	338.77
491.90	341.24
492.26	343.61
492.63	346.39
492.99	348.97
493.36	351.83
493.72	354.93
494.08	358.15
494.45	361.48
494.81	365.02
495.17	368.63
495.54	372.37
495.90	376.18
496.26	380.21
496.63	384.42
496.99	388.73
497.35	393.19
497.72	397.95
498.08	402.78
498.44	407.81
498.80	413.24
499.17	418.51
499.53	423.99
499.89	430.02
500.26	435.93
500.62	442.14
500.98	448.70
501.34	455.20
501.71	462.03
502.07	468.97
502.43	476.11
502.79	483.39
503.16	491.17
503.52	498.95
503.88	506.99
504.24	515.41
504.60	524.18
504.97	533.21
505.33	542.26
505.69	551.95
506.05	561.57
506.41	571.30
506.78	581.50
507.14	591.96
507.50	602.42
507.86	613.45
508.22	624.60
508.59	635.75
508.95	647.49
509.31	659.61
509.67	671.78
510.03	684.07
510.39	696.76
510.75	709.40
511.12	722.39
511.48	735.49
511.84	748.93
512.20	762.30
512.56	775.91
512.92	790.12
513.28	804.32
513.64	818.78
514.00	833.28
514.37	847.98
514.73	863.02
515.09	878.15
515.45	893.37
515.81	908.49
516.17	923.73
516.53	938.82
516.89	953.89
517.25	969.62
517.61	985.89
517.97	1002.17
518.33	1018.40
518.69	1034.52
519.05	1051.17
519.41	1067.69
519.77	1084.46
520.13	1101.16
520.49	1117.41
520.85	1135.22
521.21	1151.96
521.57	1168.64
521.93	1185.01
522.29	1201.75
522.65	1217.84
523.01	1234.17
523.37	1250.32
523.73	1266.72
524.09	1282.76
524.45	1298.75
524.81	1314.70
525.17	1330.51
525.53	1346.18
525.89	1362.10
526.25	1377.77
526.61	1393.05
526.97	1408.85
527.33	1424.71
527.68	1441.05
528.04	1456.93
528.40	1471.17
528.76	1486.56
529.12	1501.65
529.48	1517.05
529.84	1531.38
530.20	1547.00
530.56	1561.95
530.91	1577.29
531.27	1591.84
531.63	1606.58
531.99	1621.20
532.35	1635.19
532.71	1649.54
533.07	1664.22
533.42	1678.10
533.78	1692.39
534.14	1706.39
534.50	1719.15
534.86	1732.81
535.21	1744.38
535.57	1757.09
535.93	1769.06
536.29	1781.12
536.65	1793.35
537.00	1804.96
537.36	1816.64
537.72	1827.27
538.08	1838.45
538.44	1848.90
538.79	1859.57
539.15	1870.10
539.51	1880.23
539.87	1890.19
540.22	1898.82
540.58	1907.49
540.94	1915.33
541.29	1922.69
541.65	1929.95
542.01	1937.64
542.37	1942.97
542.72	1949.12
543.08	1954.37
543.44	1960.89
543.79	1965.92
544.15	1970.94
544.51	1976.02
544.87	1980.81
545.22	1984.77
545.58	1988.00
545.94	1991.00
546.29	1993.45
546.65	1995.44
547.01	1997.38
547.36	1998.69
547.72	2000.33
548.07	2000.72
548.43	2002.26
548.79	2003.19
549.14	2003.77
549.50	2003.95
549.86	2004.41
550.21	2004.97
550.57	2005.37
550.92	2003.80
551.28	2002.34
551.64	2001.48
551.99	2000.42
552.35	1999.14
552.70	1998.51
553.06	1997.75
553.41	1996.12
553.77	1995.04
554.13	1993.89
554.48	1992.88
554.84	1991.69
555.19	1990.16
555.55	1989.14
555.90	1986.29
556.26	1983.42
556.61	1979.77
556.97	1976.03
557.32	1973.50
557.68	1970.46
558.03	1967.30
558.39	1964.14
558.74	1961.66
559.10	1957.43
559.45	1952.73
559.81	1947.64
560.16	1941.69
560.52	1935.84
560.87	1930.94
561.23	1925.27
561.58	1919.46
561.94	1912.46
562.29	1905.50
562.64	1898.75
563.00	1891.01
563.35	1884.60
563.71	1878.25
564.06	1872.30
564.42	1866.01
564.77	1859.25
565.12	1852.40
565.48	1845.48
565.83	1838.35
566.19	1831.29
566.54	1824.25
566.89	1817.29
567.25	1810.43
567.60	1804.12
567.96	1797.55
568.31	1790.56
568.66	1783.22
569.02	1775.59
569.37	1768.60
569.72	1762.01
570.08	1754.48
570.43	1746.65
570.78	1739.21
571.14	1731.31
571.49	1723.32
571.84	1715.35
572.20	1706.75
572.55	1698.35
572.90	1689.51
573.26	1681.41
573.61	1672.23
573.96	1663.55
574.31	1654.15
574.67	1644.86
575.02	1634.76
575.37	1624.84
575.72	1614.76
576.08	1605.33
576.43	1595.72
576.78	1585.69
577.13	1575.11
577.49	1565.21
577.84	1556.28
578.19	1546.84
578.54	1537.35
578.90	1528.01
579.25	1519.05
579.60	1509.89
579.95	1500.13
580.30	1490.39
580.66	1480.29
581.01	1470.35
581.36	1459.82
581.71	1450.37
582.06	1440.83
582.42	1431.87
582.77	1422.79
583.12	1413.90
583.47	1404.92
583.82	1396.14
584.17	1387.37
584.53	1378.99
584.88	1369.40
585.23	1359.80
585.58	1349.77
585.93	1340.47
586.28	1331.07
586.63	1320.67
586.98	1310.58
587.34	1301.13
587.69	1291.50
588.04	1282.62
588.39	1274.13
588.74	1265.55
589.09	1257.09
589.44	1248.16
589.79	1239.66
590.14	1230.94
590.49	1222.38
590.84	1213.71
591.19	1205.43
591.54	1196.84
591.89	1188.35
592.25	1181.46
592.60	1173.53
592.95	1165.75
593.30	1157.28
593.65	1148.90
594.00	1140.84
594.35	1134.34
594.70	1126.25
595.05	1118.54
595.40	1110.13
595.75	1101.91
596.10	1094.18
596.45	1086.06
596.80	1078.54
597.15	1070.54
597.50	1062.39
597.85	1054.72
598.19	1046.65
598.54	1038.42
598.89	1030.63
599.24	1023.19
599.59	1015.07
599.94	1007.75
600.29	1000.51
600.64	993.52
600.99	986.22
601.34	979.74
601.69	971.52
602.04	964.96
602.39	958.28
602.74	951.90
603.08	945.58
603.43	939.23
603.78	932.84
604.13	926.32
604.48	919.79
604.83	913.40
605.18	906.70
605.53	900.32
605.87	894.25
606.22	888.33
606.57	882.15
606.92	875.95
607.27	869.92
607.62	864.06
607.96	858.40
608.31	853.13
608.66	847.38
609.01	841.77
609.36	835.99
609.70	830.28
610.05	824.61
610.40	818.67
610.75	812.77
611.10	807.01
611.44	801.27
611.79	795.96
612.14	790.53
612.49	785.31
612.83	780.35
613.18	775.10
613.53	770.05
613.88	764.69
614.22	759.29
614.57	753.72
614.92	748.27
615.27	743.04
615.61	737.63
615.96	732.45
616.31	727.24
616.65	722.29
617.00	717.25
617.35	712.21
617.70	707.39
618.04	702.65
618.39	698.00
618.74	693.71
619.08	688.98
619.43	684.37
619.78	679.48
620.12	674.66
620.47	669.85
620.82	664.89
621.16	660.31
621.51	656.12
621.85	651.96
622.20	647.64
622.55	643.13
622.89	638.85
623.24	634.60
623.59	630.35
623.93	626.07
624.28	621.94
624.62	618.40
624.97	614.60
625.32	610.62
625.66	606.66
626.01	602.44
626.35	598.59
626.70	594.79
627.04	591.34
627.39	587.54
627.73	584.03
628.08	580.73
628.43	576.96
628.77	573.30
629.12	569.69
629.46	566.36
629.81	563.15
630.15	559.71
630.50	556.34
630.84	553.05
631.19	549.86
631.53	546.73
631.88	542.97
632.22	539.44
632.57	536.51
632.91	533.24
633.26	530.36
633.60	527.19
633.95	524.09
634.29	520.75
634.64	517.81
634.98	514.59
635.32	511.55
635.67	508.97
636.01	506.00
636.36	503.01
636.70	500.24
637.05	497.36
637.39	494.58
637.73	491.77
638.08	489.12
638.42	486.22
638.77	483.36
639.11	480.42
639.45	477.43
639.80	474.25
640.14	471.58
640.49	468.65
640.83	466.05
641.17	463.51
641.52	460.95
641.86	458.47
642.20	456.28
642.55	453.69
642.89	451.07
643.23	448.67
643.58	446.67
643.92	444.02
644.26	441.66
644.61	439.50
644.95	437.23
645.29	434.88
645.64	432.85
645.98	430.66
646.32	428.76
646.66	426.75
647.01	424.80
647.35	422.83
647.69	420.96
648.04	418.96
648.38	416.92
648.72	414.98
649.06	412.83
649.41	410.67
649.75	408.67
650.09	406.71
650.43	404.72
650.78	402.47
651.12	400.53
651.46	398.65
651.80	396.73
652.14	394.95
652.49	393.19
652.83	391.25
653.17	389.45
653.51	387.55
653.85	385.92
654.20	384.18
654.54	382.33
654.88	380.42
655.22	378.90
655.56	377.27
655.90	375.60
656.25	374.11
656.59	372.58
656.93	371.05
657.27	369.66
657.61	368.07
657.95	366.66
658.29	365.22
658.64	363.87
658.98	362.31
659.32	360.70
659.66	359.25
660.00	357.85
660.34	356.51
660.68	355.08
661.02	353.66
661.36	352.34
661.70	350.98
662.05	349.69
662.39	348.35
662.73	347.15
663.07	346.12
663.41	344.77
663.75	343.47
664.09	342.29
664.43	340.86
664.77	339.76
665.11	338.47
665.45	337.33
665.79	336.06
666.13	334.84
666.47	333.61
666.81	332.36
667.15	331.08
667.49	330.00
667.83	329.08
668.17	328.03
668.51	326.94
668.85	325.99
669.19	325.28
669.53	324.09
669.87	323.01
670.21	321.83
670.55	320.88
670.89	320.04
671.23	318.99
671.57	318.10
671.91	317.09
672.25	316.20
672.58	315.40
672.92	314.45
673.26	313.60
673.60	312.85
673.94	312.06
674.28	311.31
674.62	310.50
674.96	309.65
675.30	308.86
675.64	308.12
675.97	307.23
676.31	306.25
676.65	305.38
676.99	304.74
677.33	303.91
677.67	303.16
678.01	302.21
678.34	301.50
678.68	300.85
679.02	300.13
679.36	299.41
679.70	298.58
680.04	297.88
680.37	297.21
680.71	296.44
681.05	295.75
681.39	295.16
681.73	294.43
682.06	293.75
682.40	293.17
682.74	292.48
683.08	292.12
683.42	291.39
683.75	290.99
684.09	290.29
684.43	289.76
684.77	289.13
685.10	288.62
685.44	288.02
685.78	287.31
686.12	286.75
686.45	286.13
686.79	285.59
687.13	285.17
687.46	284.65
687.80	284.33
688.14	283.76
688.48	283.21
688.81	282.70
689.15	282.33
689.49	281.73
689.82	281.29
690.16	280.52
690.50	280.06
690.83	279.52
691.17	278.88
691.51	278.37
691.84	277.95
692.18	277.40
692.52	276.90
692.85	276.55
693.19	276.19
693.52	275.75
693.86	275.30
694.20	274.75
694.53	274.35
694.87	273.77
695.21	273.24
695.54	272.80
695.88	272.29
696.21	271.67
696.55	271.26
696.88	270.81
697.22	270.38
697.56	270.02
697.89	269.56
698.23	269.26
698.56	268.81
698.90	268.44
699.23	268.00
699.57	267.66
699.90	267.16
700.24	266.71
700.58	266.36
700.91	266.08
701.25	266.03
701.58	265.93
701.92	265.69
702.25	265.42
702.59	265.01
702.92	264.74
703.26	264.42
703.59	264.11
703.93	264.24
704.26	263.97
704.60	263.60
704.93	263.25
705.26	262.85
705.60	262.50
705.93	262.03
706.27	261.87
706.60	261.61
706.94	261.54
707.27	261.24
707.61	260.96
707.94	260.60
708.27	259.98
708.61	259.34
708.94	258.98
709.28	258.75
709.61	258.43
709.94	258.14
710.28	257.85
710.61	257.47
710.95	256.63
711.28	256.59
711.61	256.30
711.95	256.16
712.28	255.88
712.61	255.65
712.95	255.65
713.28	255.56
713.61	255.13
713.95	254.69
714.28	254.35
714.61	254.02
714.95	253.80
715.28	253.41
715.61	253.03
715.95	252.79
716.28	252.43
716.61	252.26
716.95	251.93
717.28	251.68
717.61	251.49
717.94	251.33
718.28	250.76
718.61	250.53
718.94	250.21
719.27	249.95
719.61	249.76
719.94	249.40
720.27	248.90
720.60	248.69
720.94	248.43
721.27	248.32
721.60	248.24
721.93	247.91
722.27	247.90
722.60	247.92
722.93	247.70
723.26	247.58
723.59	247.28
723.93	247.19
724.26	247.05
724.59	246.86
724.92	246.70
725.25	246.66
725.59	246.41
725.92	246.24
726.25	246.03
726.58	245.91
726.91	245.74
727.24	245.66
727.57	245.56
727.91	245.30
728.24	245.17
728.57	244.88
728.90	244.77
729.23	244.46
729.56	244.41
729.89	244.24
730.22	244.05
730.55	243.91
730.89	243.76
731.22	243.55
731.55	243.47
731.88	243.34
732.21	243.05
732.54	242.90
732.87	242.82
733.20	242.77
733.53	242.66
733.86	242.61
734.19	242.38
734.52	242.28
734.85	242.52
735.18	242.23
735.51	242.25
735.84	242.21
736.17	242.31
736.50	242.01
736.83	242.48
737.16	242.39
737.49	242.26
737.82	242.05
738.15	242.01
738.48	241.78
738.81	241.63
739.14	241.47
739.47	241.37
739.80	241.17
740.13	241.11
740.46	240.85
740.79	240.71
741.12	240.65
741.45	240.47
741.78	240.12
742.11	240.19
742.44	240.06
742.77	239.95
743.10	239.74
743.43	239.53
743.75	238.87
744.08	239.28
744.41	239.14
744.74	239.02
745.07	238.82
745.40	238.85
745.73	238.87
746.06	238.84
746.39	238.77
746.71	238.60
747.04	238.35
747.37	238.24
747.70	238.15
748.03	238.06
748.36	238.06
748.68	237.91
749.01	237.62
749.34	237.41
749.67	237.25
750.00	237.21
750.33	237.49
750.65	237.42
750.98	236.78
751.31	236.70
751.64	236.63
751.97	236.80
752.29	236.57
752.62	236.25
752.95	236.10
753.28	235.97
753.60	235.93
753.93	235.99
754.26	235.97
754.59	235.75
754.91	235.59
755.24	235.42
755.57	235.40
755.90	235.29
756.22	235.19
756.55	235.03
756.88	234.77
757.20	234.36
757.53	234.20
757.86	234.09
758.19	234.07
758.51	233.99
758.84	233.65
759.17	233.60
759.49	233.59
759.82	233.76
760.15	233.73
760.47	233.58
760.80	233.39
761.13	233.29
761.45	233.18
761.78	233.18
762.11	233.06
762.43	232.90
762.76	232.83
763.08	232.89
763.41	232.90
763.74	232.86
764.06	232.85
764.39	232.73
764.71	232.65
765.04	232.54
765.37	232.50
765.69	232.38
766.02	232.28
766.34	232.16
766.67	231.90
767.00	231.91
767.32	232.09
767.65	232.28
767.97	232.22
768.30	232.14
768.62	232.03
768.95	231.97
769.27	231.96
769.60	232.04
769.92	231.82
770.25	231.61
770.57	231.52
770.90	231.45
771.22	231.33
771.55	231.36
771.87	231.35
772.20	231.18
772.52	231.55
772.85	232.07
773.17	232.00
773.50	231.91
773.82	231.75
774.15	231.51
774.47	231.18
774.80	231.18
775.12	231.11
775.45	230.99
775.77	230.99
776.09	230.91
776.42	230.81
776.74	230.93
777.07	230.93
777.39	230.93
777.72	230.75
778.04	230.83
778.36	230.74
778.69	230.64
779.01	230.66
779.33	230.26
779.66	229.65
779.98	229.70
780.31	229.70
780.63	229.89
780.95	230.01
781.28	230.01
781.60	229.93
781.92	229.95
782.25	230.03
782.57	229.98
782.89	229.98
783.22	230.00
783.54	229.89
783.86	229.95
784.19	229.86
784.51	230.06
784.83	229.89
785.16	229.81
785.48	229.84
785.80	229.82
786.12	229.84
786.45	229.84
786.77	229.78
787.09	229.71
787.42	229.49
787.74	229.44
788.06	229.43
788.38	229.36
788.71	229.32
789.03	229.22
789.35	229.36
789.67	229.30
789.99	229.25
790.32	229.12
790.64	229.12
790.96	229.51
791.28	229.32
791.61	229.41
791.93	229.37
792.25	229.31
792.57	229.61
792.89	229.50
793.21	229.47
793.54	229.46
793.86	229.39
794.18	229.35
794.50	229.24
794.82	229.27
795.14	229.27
795.47	229.33
795.79	229.35
796.11	229.15
796.43	229.13
796.75	229.18
797.07	229.19
797.39	229.08
797.71	228.77
798.04	228.79
798.36	228.72
798.68	228.72
799.00	228.75
799.32	228.47
799.64	228.55
799.96	228.64
800.28	228.66
800.60	228.63
800.92	228.70
801.24	228.61
801.56	228.53
801.89	228.51
802.21	228.52
802.53	228.45
802.85	228.56
803.17	228.73
803.49	228.54
803.81	228.43
804.13	228.50
804.45	228.41
804.77	228.39
805.09	228.44
805.41	228.34
805.73	228.30
806.05	228.15
806.37	228.05
806.69	227.87
807.01	227.81
807.33	227.81
807.65	227.57
807.97	227.80
808.28	227.76
808.60	227.80
808.92	227.70
809.24	228.03
809.56	227.94
809.88	227.77
810.20	227.82
810.52	227.92
810.84	227.81
811.16	227.71
811.48	227.71
811.80	227.75
812.12	227.75
812.43	227.82
812.75	227.87
813.07	227.78
813.39	227.84
813.71	227.74
814.03	227.73
814.35	227.75
814.67	227.53
814.98	227.44
815.30	227.37
815.62	227.29
815.94	226.95
816.26	227.09
816.58	226.98
816.89	226.97
817.21	226.87
817.53	226.89
817.85	226.92
818.17	226.91
818.48	226.76
818.80	226.89
819.12	226.75
819.44	226.72
819.76	226.74
820.07	226.75
820.39	226.78
820.71	226.80
821.03	226.81
821.34	226.80
821.66	226.94
821.98	226.95
822.30	226.92
822.61	227.20
822.93	226.95
823.25	226.96
823.57	226.91
823.88	227.01
824.20	226.95
824.52	227.05
824.83	227.07
825.15	227.05
825.47	227.00
825.79	227.10
826.10	227.10
826.42	227.11
826.74	227.12
827.05	227.09
827.37	227.13
827.69	227.15
828.00	227.20
828.32	227.16
828.64	227.17
828.95	227.46
829.27	227.28
829.58	227.34
829.90	227.37
830.22	227.43
830.53	227.25
830.85	227.24
831.17	227.12
831.48	227.09
831.80	227.08
832.11	227.04
832.43	226.94
832.75	226.96
833.06	227.24
833.38	227.17
833.69	227.18
834.01	227.23
834.32	227.22
834.64	227.15
834.96	227.13
835.27	227.12
835.59	226.95
835.90	226.92
836.22	226.90
836.53	226.82
836.85	226.76
837.16	227.32
837.48	227.30
837.79	227.48
838.11	227.52
838.42	227.58
838.74	227.60
839.05	227.50
839.37	227.40
839.68	227.07
840.00	227.03
840.31	227.10
840.63	226.99
840.94	227.03
841.26	227.02
841.57	227.04
841.88	227.04
842.20	226.95
842.51	226.85
842.83	226.86
843.14	227.36
843.46	227.42
843.77	227.19
844.08	227.17
844.40	227.00
844.71	226.92
845.03	226.82
845.34	226.87
845.65	226.92
845.97	227.01
846.28	227.05
846.60	227.06
846.91	226.96
847.22	226.97
847.54	227.01
847.85	227.05
848.16	226.99
848.48	226.88
848.79	227.03
849.10	227.13
849.42	227.10
849.73	226.62
850.04	226.61
850.36	226.36
850.67	226.47
850.98	226.49
851.30	226.52
851.61	226.55
851.92	226.45
852.23	226.58
852.55	226.56
852.86	226.57
853.17	226.61
853.49	226.73
853.80	226.83
854.11	226.86
854.42	226.91
854.74	226.85
855.05	226.90
855.36	226.76
855.67	226.74
855.99	226.75
856.30	227.30
856.61	227.23
856.92	227.32
857.23	227.32
857.55	227.19
857.86	227.15
858.17	227.25
858.48	227.24
858.79	227.23
859.11	227.33
859.42	227.26
859.73	227.24
860.04	227.15
860.35	226.96
860.66	226.80
860.98	226.75
861.29	226.84
861.60	226.80
861.91	226.83
862.22	226.80
862.53	226.69
862.84	226.13
863.16	226.24
863.47	226.11
863.78	226.05
864.09	226.14
864.40	226.21
864.71	226.20
865.02	226.21
865.33	226.17
865.64	226.01
865.95	226.05
866.27	226.38
866.58	226.42
866.89	226.52
867.20	226.51
867.51	226.45
867.82	226.43
868.13	226.60
868.44	226.51
868.75	226.62
869.06	226.66
869.37	226.76
869.68	226.55
869.99	226.74
870.30	226.79
870.61	226.88
870.92	226.78
871.23	226.73
871.54	226.79
871.85	226.91
872.16	226.99
872.47	226.97
872.78	226.63
873.09	226.64
873.40	226.61
873.71	226.70
874.02	226.73
874.33	226.65
874.64	226.48
874.95	226.56
875.26	226.45
875.56	226.50
875.87	226.43
876.18	226.46
876.49	226.84
876.80	226.74
877.11	226.61
877.42	226.61
877.73	226.58
878.04	226.51
878.35	226.40
878.66	226.40
878.96	226.33
879.27	226.31
879.58	226.22
879.89	226.18
880.20	226.25
880.51	226.25
880.82	226.27
881.12	226.34
881.43	226.23
881.74	226.10
882.05	226.02
882.36	226.10
882.67	226.11
882.97	225.65
883.28	225.63
883.59	225.63
883.90	225.62
884.21	225.70
884.51	225.66
884.82	225.56
885.13	225.50
885.44	225.56
885.74	225.55
886.05	225.60
886.36	225.64
886.67	225.49
886.98	225.69
887.28	225.77
887.59	225.77
887.90	225.85
888.20	225.93
888.51	226.00
888.82	225.90
889.13	225.97
889.43	226.31
889.74	226.31
890.05	226.37
890.35	226.43
890.66	226.31
890.97	226.28
891.28	226.31
891.58	226.38
891.89	226.42
892.20	226.37
892.50	226.29
892.81	226.26
893.12	226.30
893.42	226.06
893.73	226.07
894.04	226.01
894.34	226.09
894.65	226.07
894.95	226.02
895.26	226.03
895.57	226.30
895.87	225.88
896.18	226.01
896.48	226.03
896.79	225.95
897.10	226.01
897.40	226.04
897.71	226.11
898.01	225.97
898.32	225.97
898.63	226.01
898.93	226.10
899.24	226.14
899.54	226.12
899.85	226.11
900.15	226.04
900.46	226.15
900.76	226.11
901.07	226.09
901.38	226.12
901.68	226.18
901.99	225.90
902.29	225.86
902.60	225.77
902.90	225.70
903.21	225.73
903.51	225.75
903.82	225.91
904.12	225.89
904.43	225.97
904.73	225.95
905.03	225.90
905.34	226.27
905.64	226.18
905.95	226.11
906.25	226.16
906.56	226.14
906.86	226.08
907.17	226.08
907.47	226.08
907.77	226.05
908.08	225.94
908.38	225.96
908.69	226.05
908.99	226.16
909.30	226.20
909.60	226.15
909.90	226.18
910.21	225.96
910.51	225.85
910.81	225.85
911.12	225.84
911.42	225.89
911.73	225.40
912.03	225.46
912.33	225.59
912.64	225.61
912.94	225.66
913.24	225.62
913.55	225.55
913.85	225.59
914.15	225.69
914.46	225.78
914.76	225.75
915.06	225.74
915.37	225.63
915.67	225.56
915.97	225.52
916.27	225.38
916.58	225.46
916.88	225.50
917.18	225.50
917.49	225.84
917.79	225.84
918.09	225.89
918.39	226.00
918.70	225.96
919.00	225.93
919.30	226.11
919.60	226.01
919.91	225.99
920.21	225.96
920.51	225.85
920.81	225.75
921.12	225.85
921.42	225.82
921.72	225.92
922.02	225.93
922.32	226.15
922.63	226.17
922.93	226.38
923.23	226.42
923.53	226.37
923.83	226.18
924.13	226.22
924.44	226.28
924.74	226.34
925.04	226.51
925.34	226.48
925.64	226.25
925.94	226.30
926.24	226.56
926.55	226.56
926.85	226.67
927.15	226.69
927.45	226.68
927.75	226.70
928.05	226.65
928.35	226.67
928.65	226.72
928.95	226.78
929.26	226.60
929.56	226.68
929.86	226.68
930.16	226.51
930.46	226.49
930.76	226.52
931.06	226.28
931.36	226.08
931.66	226.12
931.96	226.17
932.26	226.24
932.56	226.03
932.86	226.09
933.16	226.09
933.46	226.05
933.76	225.97
934.06	226.12
934.36	226.29
934.66	226.29
934.96	226.20
935.26	226.28
935.56	226.36
935.86	226.23
936.16	226.17
936.46	226.21
936.76	226.15
937.06	226.09
937.36	226.12
937.66	226.19
937.96	226.17
938.26	226.11
938.56	226.08
938.86	226.05
939.16	226.12
939.46	226.11
939.76	226.19
940.06	226.21
940.35	226.06
940.65	225.84
940.95	225.85
941.25	225.70
941.55	225.67
941.85	225.60
942.15	225.71
942.45	225.90
942.75	225.85
943.04	225.93
943.34	226.03
943.64	225.95
943.94	225.88
944.24	225.88
944.54	225.86
944.84	225.83
945.13	225.85
945.43	225.72
945.73	225.74
946.03	225.75
946.33	225.63
946.62	225.63
946.92	225.61
947.22	225.61
947.52	225.64
947.82	225.65
948.11	225.57
948.41	225.41
948.71	225.29
949.01	225.34
949.31	225.26
949.60	225.19
949.90	225.38
950.20	225.35
950.50	225.39
950.79	225.43
951.09	225.50
951.39	225.49
951.69	225.45
951.98	225.49
952.28	225.42
952.58	225.44
952.87	225.46
953.17	225.57
953.47	225.52
953.76	225.52
954.06	225.48
954.36	225.55
954.66	225.55
954.95	225.65
955.25	225.64
955.55	225.73
955.84	225.65
956.14	225.61
956.44	225.64
956.73	225.43
957.03	225.43
957.32	225.41
957.62	225.34
957.92	225.47
958.21	225.38
958.51	225.95
958.81	225.95
959.10	225.91
959.40	225.94
959.69	225.99
959.99	226.09
960.29	226.07
960.58	225.99
960.88	226.23
961.17	226.16
961.47	226.26
961.76	226.16
962.06	226.27
962.36	226.19
962.65	226.23
962.95	226.33
963.24	226.31
963.54	226.40
963.83	226.43
964.13	226.38
964.42	226.29
964.72	225.90
965.01	225.93
965.31	225.88
965.60	225.83
965.90	226.20
966.19	226.09
966.49	226.08
966.78	226.05
967.08	226.06
967.37	226.01
967.67	225.94
967.96	226.04
968.26	226.02
968.55	226.13
968.85	226.15
969.14	226.15
969.43	226.17
969.73	226.06
970.02	226.10
970.32	226.11
970.61	226.13
970.91	225.98
971.20	225.94
971.49	226.00
971.79	226.00
972.08	225.58
972.38	225.65
972.67	225.68
972.96	225.70
973.26	225.54
973.55	225.69
973.85	225.64
974.14	225.63
974.43	225.66
974.73	225.52
975.02	225.43
975.31	225.45
975.61	225.41
975.90	225.39
976.19	225.31
976.49	225.34
976.78	225.39
977.07	225.40
977.37	225.41
977.66	225.44
977.95	225.36
978.24	225.42
978.54	225.50
978.83	225.45
979.12	225.54
979.42	225.61
979.71	225.55
980.00	225.56
980.29	225.48
980.59	225.37
980.88	225.58
981.17	225.56
981.46	225.56
981.76	225.64
982.05	225.80
982.34	225.86
982.63	225.74
982.93	225.77
983.22	225.87
983.51	225.94
983.80	225.98
984.09	226.07
984.39	226.02
984.68	225.93
984.97	226.00
985.26	225.90
985.55	225.86
985.85	225.79
986.14	225.85
986.43	225.96
986.72	225.91
987.01	225.73
987.30	225.81
987.59	225.77
987.89	225.69
988.18	225.51
988.47	225.49
988.76	225.55
989.05	225.48
989.34	225.42
989.63	225.49
989.92	225.40
990.22	225.35
990.51	225.40
990.80	225.28
991.09	225.24
991.38	225.28
991.67	225.22
991.96	225.21
992.25	225.21
992.54	225.09
992.83	225.15
993.12	225.13
993.41	225.21
993.70	225.41
993.99	225.52
994.28	225.60
994.58	225.63
994.87	225.58
995.16	225.54
995.45	225.46
995.74	225.36
996.03	225.49
996.32	225.55
996.61	225.66
996.90	225.73
997.19	225.69
997.48	225.74
997.77	225.67
998.06	225.68
998.34	225.69
998.63	225.68
998.92	225.70
999.21	225.82
999.50	225.77
999.79	225.64
1000.08	225.57
1000.37	225.59
1000.66	225.57
1000.95	225.65
1001.24	225.71
1001.53	225.80
1001.82	225.81
1002.11	225.62
1002.40	225.70
1002.68	225.79
1002.97	226.21
1003.26	226.19
1003.55	226.09
1003.84	226.18
1004.13	226.28
1004.42	226.25
1004.71	226.31
1004.99	226.23
1005.28	226.33
1005.57	226.28
1005.86	226.21
1006.15	226.18
1006.44	226.06
1006.72	226.09
1007.01	226.06
1007.30	226.08
1007.59	226.02
1007.88	225.98
1008.17	225.96
1008.45	225.80
1008.74	225.58
1009.03	225.25
1009.32	225.26
1009.60	225.33
1009.89	225.26
1010.18	225.12
1010.47	225.04
1010.76	225.06
1011.04	225.07
1011.33	225.09
1011.62	225.14
1011.91	225.30
1012.19	225.33
1012.48	225.44
1012.77	225.43
1013.05	225.70
1013.34	225.73
1013.63	225.65
1013.92	225.68
1014.20	225.75
1014.49	225.78
1014.78	225.79
1015.06	225.70
1015.35	225.70
1015.64	225.79
1015.92	225.90
1016.21	225.92
1016.50	225.97
1016.78	225.96
1017.07	226.06
1017.36	225.92
1017.64	225.85
1017.93	225.80
1018.22	225.77
1018.50	225.69
1018.79	225.65
1019.08	225.32
1019.36	225.40
1019.65	225.41
1019.93	225.51
1020.22	225.57
1020.51	225.80
1020.79	225.79
1021.08	225.10
1021.36	224.15
1021.65	225.00
1021.94	224.55
1022.22	227.40
1022.51	224.15
1022.79	227.45
1023.08	226.45
1023.36	230.55
1023.65	224.55
>>>>>End Processed Spectral Data<<<<<
