SpectraSuite Data File
++++++++++++++++++++++++++++++++++++
Date: Wed Sep 04 17:47:59 EDT 2013
User: lab3
Dark Spectrum Present: Yes
Reference Spectrum Present: No
Number of Sampled Component Spectra: 1
Spectrometers: USB2E7196
Integration Time (usec): 170000 (USB2E7196)
Spectra Averaged: 20 (USB2E7196)
Boxcar Smoothing: 10 (USB2E7196)
Correct for Electrical Dark: No (USB2E7196)
Strobe/Lamp Enabled: No (USB2E7196)
Correct for Detector Non-linearity: No (USB2E7196)
Correct for Stray Light: No (USB2E7196)
Number of Pixels in Processed Spectrum: 2048
>>>>>Begin Processed Spectral Data<<<<<
339.09	0.00
339.48	211.35
339.86	213.70
340.24	215.15
340.63	216.60
341.01	225.55
341.39	221.40
341.78	221.75
342.16	223.80
342.54	222.90
342.93	211.95
343.31	222.60
343.69	223.25
344.07	223.73
344.46	224.25
344.84	224.64
345.22	224.66
345.60	224.87
345.99	225.07
346.37	225.18
346.75	225.34
347.13	225.36
347.52	225.45
347.90	225.70
348.28	225.75
348.66	225.89
349.05	225.77
349.43	225.75
349.81	225.77
350.19	225.76
350.57	225.80
350.96	225.93
351.34	226.07
351.72	226.13
352.10	226.21
352.48	226.18
352.87	226.32
353.25	226.35
353.63	226.41
354.01	226.48
354.39	226.47
354.77	226.49
355.15	226.73
355.54	226.78
355.92	226.65
356.30	226.72
356.68	227.10
357.06	227.25
357.44	227.29
357.82	227.35
358.20	227.86
358.58	227.90
358.97	227.99
359.35	228.13
359.73	228.33
360.11	228.42
360.49	228.54
360.87	228.57
361.25	228.70
361.63	228.89
362.01	228.95
362.39	229.06
362.77	229.14
363.15	229.15
363.53	229.14
363.91	229.23
364.29	229.28
364.67	228.84
365.05	228.87
365.43	229.00
365.81	229.15
366.19	229.02
366.57	229.26
366.95	229.27
367.33	229.20
367.71	229.13
368.09	229.31
368.47	229.31
368.85	229.34
369.23	229.43
369.61	229.25
369.99	229.40
370.37	229.43
370.75	229.61
371.13	229.53
371.51	229.44
371.89	229.42
372.27	229.36
372.65	229.40
373.03	229.35
373.41	229.32
373.78	229.21
374.16	228.90
374.54	228.73
374.92	228.68
375.30	228.60
375.68	228.51
376.06	228.46
376.44	228.34
376.82	228.25
377.19	228.07
377.57	228.04
377.95	227.82
378.33	227.72
378.71	227.40
379.09	227.41
379.47	227.40
379.84	227.30
380.22	227.23
380.60	227.05
380.98	226.94
381.36	226.79
381.73	226.67
382.11	226.76
382.49	226.67
382.87	226.51
383.25	226.50
383.62	227.02
384.00	226.77
384.38	226.80
384.76	226.82
385.13	226.95
385.51	226.84
385.89	226.65
386.27	226.61
386.64	226.64
387.02	226.50
387.40	226.40
387.78	226.44
388.15	226.40
388.53	226.37
388.91	226.40
389.29	226.36
389.66	226.38
390.04	226.25
390.42	226.35
390.79	226.38
391.17	226.32
391.55	225.75
391.92	225.73
392.30	225.72
392.68	225.62
393.05	225.61
393.43	225.61
393.81	225.66
394.18	225.61
394.56	225.61
394.94	225.73
395.31	225.73
395.69	225.88
396.06	225.95
396.44	226.00
396.82	225.99
397.19	226.29
397.57	226.31
397.95	226.45
398.32	226.44
398.70	226.50
399.07	226.66
399.45	226.70
399.82	226.82
400.20	226.84
400.58	226.86
400.95	226.79
401.33	226.95
401.70	227.46
402.08	227.58
402.45	227.69
402.83	227.93
403.20	228.13
403.58	228.12
403.95	228.35
404.33	228.60
404.71	228.84
405.08	229.28
405.46	229.47
405.83	229.67
406.21	229.83
406.58	230.16
406.96	230.37
407.33	230.76
407.70	231.15
408.08	231.87
408.45	232.38
408.83	232.86
409.20	233.30
409.58	233.44
409.95	234.04
410.33	234.58
410.70	234.97
411.08	235.59
411.45	236.28
411.82	236.85
412.20	237.67
412.57	238.57
412.95	238.93
413.32	239.77
413.69	240.62
414.07	241.51
414.44	242.49
414.82	243.50
415.19	244.64
415.56	245.76
415.94	246.76
416.31	248.21
416.68	249.59
417.06	251.25
417.43	252.89
417.81	254.59
418.18	256.43
418.55	258.35
418.93	260.40
419.30	262.53
419.67	264.71
420.04	266.90
420.42	269.28
420.79	272.32
421.16	275.10
421.54	278.03
421.91	281.01
422.28	283.97
422.66	287.18
423.03	290.65
423.40	293.98
423.77	297.61
424.15	301.15
424.52	304.87
424.89	308.97
425.26	312.85
425.64	316.56
426.01	320.62
426.38	324.94
426.75	329.33
427.13	333.72
427.50	338.51
427.87	343.35
428.24	348.15
428.61	352.60
428.99	357.79
429.36	363.28
429.73	368.71
430.10	374.15
430.47	379.77
430.85	385.35
431.22	391.48
431.59	398.06
431.96	404.15
432.33	411.13
432.70	417.67
433.08	425.43
433.45	432.77
433.82	440.02
434.19	448.10
434.56	456.19
434.93	463.75
435.30	471.40
435.68	479.91
436.05	488.21
436.42	496.32
436.79	503.95
437.16	512.16
437.53	520.88
437.90	529.66
438.27	538.12
438.64	546.77
439.01	554.93
439.38	561.99
439.75	569.12
440.13	576.86
440.50	584.32
440.87	590.50
441.24	596.82
441.61	603.75
441.98	608.77
442.35	614.50
442.72	620.54
443.09	626.30
443.46	629.60
443.83	631.88
444.20	633.87
444.57	636.68
444.94	637.78
445.31	638.92
445.68	640.10
446.05	640.39
446.42	639.19
446.79	637.84
447.16	636.33
447.53	635.21
447.90	631.58
448.27	627.99
448.64	623.01
449.01	619.45
449.37	613.31
449.74	607.29
450.11	600.62
450.48	593.01
450.85	585.05
451.22	578.30
451.59	571.85
451.96	565.63
452.33	557.51
452.70	550.21
453.07	541.51
453.43	532.69
453.80	524.40
454.17	516.52
454.54	508.90
454.91	500.74
455.28	492.72
455.65	485.45
456.02	478.64
456.38	472.35
456.75	464.61
457.12	458.32
457.49	452.22
457.86	445.87
458.23	440.70
458.59	435.18
458.96	429.53
459.33	424.39
459.70	419.39
460.07	415.25
460.43	410.53
460.80	406.41
461.17	402.68
461.54	398.66
461.91	394.84
462.27	391.02
462.64	387.82
463.01	384.29
463.38	381.03
463.74	377.07
464.11	374.13
464.48	371.56
464.85	368.77
465.21	366.66
465.58	364.27
465.95	361.51
466.32	359.25
466.68	357.03
467.05	354.94
467.42	352.75
467.78	350.44
468.15	348.46
468.52	346.83
468.88	344.65
469.25	342.80
469.62	341.36
469.98	339.70
470.35	338.20
470.72	336.79
471.08	335.13
471.45	333.86
471.82	332.65
472.18	331.23
472.55	330.15
472.92	328.74
473.28	327.67
473.65	326.53
474.02	325.40
474.38	324.51
474.75	323.71
475.11	322.90
475.48	322.31
475.85	321.77
476.21	321.11
476.58	320.58
476.94	320.18
477.31	319.70
477.67	319.31
478.04	319.01
478.41	318.81
478.77	319.08
479.14	318.85
479.50	318.60
479.87	318.58
480.23	318.58
480.60	318.61
480.96	318.61
481.33	318.96
481.69	319.28
482.06	319.46
482.42	319.80
482.79	320.08
483.15	320.54
483.52	321.03
483.88	321.46
484.25	321.98
484.61	322.65
484.98	323.33
485.34	324.38
485.71	325.28
486.07	326.13
486.44	326.69
486.80	327.73
487.17	329.04
487.53	330.46
487.90	331.95
488.26	333.64
488.62	335.44
488.99	336.95
489.35	338.65
489.72	340.64
490.08	342.53
490.44	344.63
490.81	346.95
491.17	349.15
491.54	351.75
491.90	354.28
492.26	356.91
492.63	359.71
492.99	362.46
493.36	365.56
493.72	369.08
494.08	372.50
494.45	376.28
494.81	380.13
495.17	383.86
495.54	387.86
495.90	391.99
496.26	396.31
496.63	401.02
496.99	405.82
497.35	410.80
497.72	416.12
498.08	421.53
498.44	427.13
498.80	433.27
499.17	439.04
499.53	445.29
499.89	451.93
500.26	458.69
500.62	465.59
500.98	472.99
501.34	480.18
501.71	487.82
502.07	495.58
502.43	503.55
502.79	511.94
503.16	520.71
503.52	529.64
503.88	538.85
504.24	548.36
504.60	558.35
504.97	568.57
505.33	579.00
505.69	590.06
506.05	600.97
506.41	612.05
506.78	623.85
507.14	635.82
507.50	648.02
507.86	660.39
508.22	673.34
508.59	686.24
508.95	700.03
509.31	714.07
509.67	728.21
510.03	742.38
510.39	756.96
510.75	771.79
511.12	787.06
511.48	802.45
511.84	818.16
512.20	833.92
512.56	850.02
512.92	866.60
513.28	882.99
513.64	899.98
514.00	917.25
514.37	935.00
514.73	952.98
515.09	971.04
515.45	989.50
515.81	1007.72
516.17	1026.26
516.53	1044.73
516.89	1063.28
517.25	1082.33
517.61	1102.27
517.97	1122.42
518.33	1142.29
518.69	1162.13
519.05	1182.61
519.41	1203.08
519.77	1223.89
520.13	1244.40
520.49	1264.80
520.85	1287.02
521.21	1308.05
521.57	1329.32
521.93	1349.47
522.29	1370.25
522.65	1390.62
523.01	1411.32
523.37	1431.68
523.73	1452.57
524.09	1472.80
524.45	1493.24
524.81	1513.81
525.17	1534.22
525.53	1554.37
525.89	1574.67
526.25	1595.47
526.61	1615.24
526.97	1635.68
527.33	1656.37
527.68	1677.65
528.04	1698.57
528.40	1717.71
528.76	1738.12
529.12	1757.94
529.48	1778.44
529.84	1798.46
530.20	1819.34
530.56	1839.58
530.91	1860.06
531.27	1879.97
531.63	1900.19
531.99	1920.16
532.35	1940.10
532.71	1959.98
533.07	1980.11
533.42	1999.86
533.78	2019.24
534.14	2038.82
534.50	2057.86
534.86	2076.95
535.21	2094.43
535.57	2112.53
535.93	2130.21
536.29	2147.87
536.65	2165.70
537.00	2182.93
537.36	2200.07
537.72	2216.19
538.08	2233.10
538.44	2249.30
538.79	2265.42
539.15	2281.22
539.51	2296.95
539.87	2311.62
540.22	2325.02
540.58	2339.13
540.94	2351.93
541.29	2364.24
541.65	2376.42
542.01	2388.33
542.37	2398.45
542.72	2408.80
543.08	2418.91
543.44	2430.11
543.79	2439.70
544.15	2449.62
544.51	2459.58
544.87	2468.48
545.22	2476.60
545.58	2483.97
545.94	2490.94
546.29	2496.97
546.65	2503.23
547.01	2508.57
547.36	2513.89
547.72	2519.30
548.07	2522.88
548.43	2528.09
548.79	2532.39
549.14	2536.36
549.50	2539.85
549.86	2543.43
550.21	2547.18
550.57	2550.19
550.92	2551.36
551.28	2552.56
551.64	2554.32
551.99	2555.57
552.35	2556.97
552.70	2558.91
553.06	2560.11
553.41	2561.40
553.77	2562.94
554.13	2564.30
554.48	2565.56
554.84	2566.90
555.19	2567.61
555.55	2569.36
555.90	2568.71
556.26	2567.83
556.61	2566.32
556.97	2564.15
557.32	2563.56
557.68	2562.27
558.03	2560.95
558.39	2559.33
558.74	2558.11
559.10	2554.38
559.45	2550.92
559.81	2546.50
560.16	2541.16
560.52	2536.42
560.87	2531.76
561.23	2526.39
561.58	2520.48
561.94	2513.24
562.29	2505.61
562.64	2499.00
563.00	2490.32
563.35	2483.31
563.71	2476.50
564.06	2470.14
564.42	2463.60
564.77	2456.19
565.12	2448.38
565.48	2440.62
565.83	2432.53
566.19	2424.52
566.54	2417.04
566.89	2409.30
567.25	2401.71
567.60	2394.77
567.96	2386.89
568.31	2378.89
568.66	2370.65
569.02	2361.43
569.37	2353.63
569.72	2345.94
570.08	2336.40
570.43	2327.40
570.78	2318.46
571.14	2309.00
571.49	2298.64
571.84	2288.95
572.20	2278.32
572.55	2268.40
572.90	2257.61
573.26	2247.51
573.61	2236.49
573.96	2225.24
574.31	2213.02
574.67	2201.26
575.02	2188.36
575.37	2175.85
575.72	2162.73
576.08	2150.54
576.43	2138.31
576.78	2125.43
577.13	2112.05
577.49	2099.84
577.84	2088.14
578.19	2076.26
578.54	2063.97
578.90	2052.32
579.25	2040.36
579.60	2028.17
579.95	2015.47
580.30	2002.52
580.66	1989.36
581.01	1975.92
581.36	1962.30
581.71	1949.73
582.06	1937.12
582.42	1925.35
582.77	1913.23
583.12	1901.63
583.47	1889.17
583.82	1877.42
584.17	1865.60
584.53	1854.03
584.88	1841.16
585.23	1828.06
585.58	1813.93
585.93	1800.90
586.28	1787.76
586.63	1773.90
586.98	1759.81
587.34	1746.73
587.69	1733.93
588.04	1721.79
588.39	1710.12
588.74	1698.33
589.09	1686.84
589.44	1673.94
589.79	1661.65
590.14	1649.94
590.49	1638.10
590.84	1626.31
591.19	1614.54
591.54	1602.62
591.89	1590.60
592.25	1580.62
592.60	1569.43
592.95	1558.44
593.30	1546.65
593.65	1535.12
594.00	1523.50
594.35	1514.11
594.70	1502.67
595.05	1491.38
595.40	1479.31
595.75	1467.68
596.10	1456.49
596.45	1445.08
596.80	1434.69
597.15	1423.53
597.50	1411.75
597.85	1400.65
598.19	1389.28
598.54	1377.63
598.89	1366.53
599.24	1356.10
599.59	1344.76
599.94	1334.22
600.29	1323.97
600.64	1314.15
600.99	1303.64
601.34	1294.33
601.69	1283.36
602.04	1273.72
602.39	1264.26
602.74	1255.30
603.08	1246.29
603.43	1237.19
603.78	1227.48
604.13	1218.39
604.48	1209.06
604.83	1199.69
605.18	1189.89
605.53	1180.93
605.87	1172.29
606.22	1163.93
606.57	1154.77
606.92	1145.54
607.27	1136.69
607.62	1128.20
607.96	1119.77
608.31	1111.92
608.66	1103.74
609.01	1095.38
609.36	1086.91
609.70	1078.42
610.05	1070.01
610.40	1061.60
610.75	1053.19
611.10	1045.17
611.44	1036.54
611.79	1028.33
612.14	1020.52
612.49	1012.99
612.83	1005.51
613.18	997.72
613.53	990.21
613.88	982.59
614.22	974.92
614.57	967.29
614.92	959.35
615.27	952.08
615.61	944.44
615.96	936.93
616.31	929.65
616.65	922.83
617.00	915.74
617.35	908.55
617.70	901.53
618.04	894.67
618.39	888.06
618.74	881.93
619.08	875.43
619.43	868.69
619.78	861.79
620.12	854.73
620.47	848.03
620.82	840.98
621.16	834.45
621.51	828.40
621.85	822.11
622.20	815.77
622.55	809.05
622.89	802.96
623.24	796.77
623.59	790.49
623.93	784.19
624.28	778.25
624.62	773.00
624.97	767.43
625.32	761.71
625.66	755.63
626.01	749.57
626.35	744.05
626.70	738.81
627.04	733.74
627.39	728.35
627.73	723.30
628.08	718.24
628.43	712.89
628.77	707.37
629.12	702.28
629.46	697.70
629.81	693.34
630.15	688.50
630.50	683.55
630.84	678.89
631.19	674.45
631.53	669.94
631.88	664.81
632.22	659.99
632.57	655.57
632.91	651.31
633.26	647.09
633.60	642.68
633.95	637.97
634.29	633.19
634.64	628.88
634.98	624.18
635.32	620.00
635.67	616.15
636.01	612.25
636.36	608.00
636.70	603.92
637.05	599.73
637.39	595.61
637.73	591.67
638.08	587.84
638.42	583.60
638.77	579.36
639.11	575.00
639.45	570.67
639.80	566.35
640.14	562.40
640.49	558.32
640.83	554.61
641.17	551.17
641.52	547.72
641.86	544.22
642.20	541.17
642.55	537.51
642.89	533.83
643.23	530.39
643.58	527.36
643.92	523.79
644.26	520.38
644.61	517.33
644.95	514.15
645.29	510.75
645.64	507.78
645.98	504.73
646.32	501.96
646.66	499.19
647.01	496.43
647.35	493.65
647.69	490.91
648.04	488.15
648.38	485.43
648.72	482.57
649.06	479.59
649.41	476.47
649.75	473.50
650.09	470.82
650.43	467.96
650.78	465.00
651.12	462.36
651.46	459.59
651.80	456.78
652.14	454.15
652.49	451.81
652.83	449.24
653.17	446.74
653.51	444.06
653.85	441.64
654.20	439.14
654.54	436.55
654.88	434.21
655.22	432.00
655.56	429.60
655.90	427.37
656.25	425.25
656.59	423.13
656.93	421.06
657.27	418.97
657.61	416.63
657.95	414.51
658.29	412.32
658.64	410.38
658.98	408.32
659.32	406.16
659.66	403.84
660.00	401.77
660.34	399.77
660.68	397.81
661.02	395.77
661.36	393.96
661.70	392.01
662.05	389.94
662.39	387.96
662.73	386.11
663.07	384.43
663.41	382.52
663.75	380.63
664.09	378.86
664.43	376.88
664.77	375.27
665.11	373.50
665.45	371.82
665.79	370.12
666.13	368.39
666.47	366.77
666.81	365.25
667.15	363.53
667.49	362.04
667.83	360.70
668.17	359.21
668.51	357.64
668.85	356.31
669.19	355.10
669.53	353.52
669.87	352.11
670.21	350.64
670.55	349.33
670.89	348.29
671.23	346.99
671.57	345.71
671.91	344.45
672.25	343.17
672.58	342.18
672.92	340.71
673.26	339.49
673.60	338.40
673.94	337.23
674.28	336.17
674.62	335.06
674.96	333.78
675.30	332.68
675.64	331.51
675.97	330.28
676.31	329.08
676.65	327.92
676.99	326.95
677.33	325.76
677.67	324.74
678.01	323.39
678.34	322.33
678.68	321.40
679.02	320.35
679.36	319.30
679.70	318.12
680.04	317.35
680.37	316.48
680.71	315.43
681.05	314.62
681.39	313.65
681.73	312.78
682.06	311.90
682.40	310.97
682.74	310.17
683.08	309.43
683.42	308.50
683.75	307.70
684.09	306.68
684.43	305.88
684.77	305.03
685.10	304.29
685.44	303.41
685.78	302.56
686.12	301.74
686.45	301.01
686.79	300.17
687.13	299.43
687.46	298.69
687.80	298.01
688.14	297.16
688.48	296.42
688.81	295.52
689.15	294.89
689.49	294.20
689.82	293.54
690.16	292.72
690.50	292.09
690.83	291.46
691.17	290.71
691.51	290.05
691.84	289.37
692.18	288.75
692.52	288.06
692.85	287.49
693.19	287.11
693.52	286.52
693.86	285.96
694.20	285.35
694.53	284.68
694.87	284.03
695.21	283.32
695.54	282.76
695.88	282.26
696.21	281.54
696.55	280.93
696.88	280.26
697.22	279.63
697.56	279.09
697.89	278.45
698.23	277.98
698.56	277.42
698.90	277.02
699.23	276.41
699.57	276.01
699.90	275.36
700.24	274.63
700.58	274.15
700.91	273.67
701.25	273.48
701.58	273.39
701.92	273.13
702.25	272.77
702.59	272.30
702.92	271.81
703.26	271.40
703.59	270.92
703.93	271.00
704.26	270.67
704.60	270.22
704.93	269.71
705.26	269.25
705.60	268.94
705.93	268.39
706.27	268.15
706.60	267.85
706.94	267.70
707.27	267.37
707.61	267.07
707.94	266.75
708.27	266.01
708.61	265.20
708.94	264.61
709.28	264.25
709.61	263.88
709.94	263.57
710.28	263.26
710.61	263.00
710.95	262.15
711.28	262.06
711.61	261.73
711.95	261.65
712.28	261.25
712.61	260.83
712.95	260.78
713.28	260.67
713.61	260.21
713.95	259.73
714.28	259.40
714.61	258.99
714.95	258.56
715.28	258.26
715.61	257.92
715.95	257.65
716.28	257.27
716.61	257.04
716.95	256.71
717.28	256.36
717.61	256.02
717.94	255.72
718.28	255.21
718.61	254.87
718.94	254.48
719.27	254.27
719.61	254.07
719.94	253.69
720.27	253.09
720.60	252.82
720.94	252.56
721.27	252.36
721.60	252.21
721.93	251.98
722.27	251.84
722.60	251.73
722.93	251.46
723.26	251.30
723.59	251.02
723.93	250.78
724.26	250.59
724.59	250.33
724.92	250.15
725.25	249.97
725.59	249.72
725.92	249.57
726.25	249.38
726.58	249.14
726.91	248.83
727.24	248.67
727.57	248.47
727.91	248.20
728.24	248.00
728.57	247.74
728.90	247.66
729.23	247.36
729.56	247.36
729.89	247.18
730.22	247.00
730.55	246.78
730.89	246.57
731.22	246.32
731.55	246.13
731.88	245.97
732.21	245.79
732.54	245.65
732.87	245.45
733.20	245.23
733.53	245.09
733.86	245.03
734.19	244.85
734.52	244.86
734.85	245.06
735.18	244.84
735.51	244.79
735.84	244.57
736.17	244.57
736.50	244.22
736.83	244.69
737.16	244.49
737.49	244.38
737.82	244.25
738.15	244.32
738.48	244.19
738.81	244.06
739.14	243.82
739.47	243.65
739.80	243.49
740.13	243.50
740.46	243.28
740.79	243.03
741.12	242.90
741.45	242.61
741.78	242.21
742.11	242.19
742.44	241.91
742.77	241.95
743.10	241.73
743.43	241.63
743.75	240.95
744.08	241.49
744.41	241.35
744.74	241.24
745.07	240.94
745.40	240.92
745.73	240.99
746.06	240.93
746.39	240.89
746.71	240.75
747.04	240.53
747.37	240.33
747.70	240.30
748.03	240.22
748.36	240.17
748.68	240.09
749.01	239.82
749.34	239.82
749.67	239.66
750.00	239.59
750.33	239.79
750.65	239.71
750.98	238.94
751.31	238.83
751.64	238.74
751.97	238.90
752.29	238.79
752.62	238.43
752.95	238.28
753.28	238.09
753.60	237.95
753.93	238.00
754.26	238.05
754.59	237.80
754.91	237.57
755.24	237.41
755.57	237.30
755.90	237.19
756.22	236.93
756.55	236.73
756.88	236.51
757.20	236.12
757.53	235.95
757.86	235.89
758.19	235.87
758.51	235.79
758.84	235.40
759.17	235.22
759.49	235.15
759.82	235.33
760.15	235.24
760.47	235.22
760.80	234.95
761.13	235.01
761.45	234.92
761.78	234.88
762.11	234.84
762.43	234.73
762.76	234.69
763.08	234.72
763.41	234.70
763.74	234.70
764.06	234.55
764.39	234.50
764.71	234.46
765.04	234.25
765.37	234.20
765.69	234.14
766.02	234.11
766.34	234.05
766.67	233.75
767.00	233.80
767.32	233.97
767.65	234.18
767.97	233.95
768.30	233.91
768.62	233.84
768.95	233.74
769.27	233.69
769.60	233.65
769.92	233.53
770.25	233.41
770.57	233.24
770.90	233.23
771.22	233.09
771.55	233.01
771.87	233.03
772.20	232.85
772.52	233.31
772.85	233.83
773.17	233.80
773.50	233.73
773.82	233.61
774.15	233.30
774.47	233.02
774.80	232.98
775.12	232.93
775.45	232.85
775.77	232.82
776.09	232.76
776.42	232.73
776.74	232.81
777.07	232.69
777.39	232.66
777.72	232.58
778.04	232.61
778.36	232.50
778.69	232.43
779.01	232.52
779.33	232.05
779.66	231.48
779.98	231.41
780.31	231.37
780.63	231.48
780.95	231.56
781.28	231.50
781.60	231.40
781.92	231.35
782.25	231.40
782.57	231.30
782.89	231.23
783.22	231.19
783.54	231.03
783.86	230.96
784.19	230.84
784.51	230.85
784.83	230.73
785.16	230.71
785.48	230.66
785.80	230.56
786.12	230.48
786.45	230.40
786.77	230.36
787.09	230.27
787.42	230.16
787.74	230.07
788.06	230.02
788.38	230.02
788.71	229.90
789.03	229.82
789.35	229.88
789.67	229.80
789.99	229.81
790.32	229.77
790.64	229.85
790.96	230.25
791.28	230.07
791.61	230.03
791.93	230.00
792.25	229.95
792.57	230.26
792.89	230.19
793.21	230.23
793.54	230.11
793.86	230.10
794.18	230.02
794.50	229.93
794.82	229.86
795.14	229.82
795.47	229.94
795.79	229.90
796.11	229.72
796.43	229.64
796.75	229.59
797.07	229.58
797.39	229.51
797.71	229.10
798.04	229.16
798.36	229.14
798.68	229.11
799.00	229.13
799.32	228.86
799.64	228.91
799.96	228.80
800.28	228.91
800.60	228.87
800.92	228.90
801.24	228.82
801.56	228.89
801.89	228.78
802.21	228.74
802.53	228.62
802.85	228.81
803.17	229.07
803.49	229.00
803.81	228.95
804.13	228.90
804.45	228.85
804.77	228.85
805.09	228.85
805.41	228.80
805.73	228.68
806.05	228.49
806.37	228.43
806.69	228.35
807.01	228.29
807.33	228.29
807.65	228.06
807.97	228.27
808.28	228.22
808.60	228.24
808.92	228.20
809.24	228.56
809.56	228.41
809.88	228.19
810.20	228.22
810.52	228.28
810.84	228.20
811.16	228.10
811.48	228.02
811.80	228.12
812.12	228.09
812.43	228.24
812.75	228.29
813.07	228.22
813.39	228.28
813.71	228.27
814.03	228.19
814.35	228.24
814.67	227.98
814.98	227.89
815.30	227.93
815.62	227.88
815.94	227.52
816.26	227.75
816.58	227.64
816.89	227.62
817.21	227.57
817.53	227.68
817.85	227.74
818.17	227.77
818.48	227.60
818.80	227.69
819.12	227.60
819.44	227.56
819.76	227.56
820.07	227.53
820.39	227.45
820.71	227.53
821.03	227.56
821.34	227.51
821.66	227.57
821.98	227.47
822.30	227.50
822.61	227.81
822.93	227.53
823.25	227.55
823.57	227.46
823.88	227.50
824.20	227.44
824.52	227.52
824.83	227.54
825.15	227.55
825.47	227.58
825.79	227.58
826.10	227.58
826.42	227.59
826.74	227.66
827.05	227.62
827.37	227.61
827.69	227.56
828.00	227.67
828.32	227.66
828.64	227.75
828.95	227.93
829.27	227.76
829.58	227.73
829.90	227.80
830.22	227.81
830.53	227.69
830.85	227.66
831.17	227.55
831.48	227.49
831.80	227.42
832.11	227.39
832.43	227.32
832.75	227.27
833.06	227.52
833.38	227.38
833.69	227.38
834.01	227.41
834.32	227.37
834.64	227.30
834.96	227.36
835.27	227.34
835.59	227.18
835.90	227.11
836.22	227.12
836.53	227.00
836.85	226.96
837.16	227.46
837.48	227.52
837.79	227.68
838.11	227.70
838.42	227.79
838.74	227.80
839.05	227.80
839.37	227.75
839.68	227.50
840.00	227.42
840.31	227.51
840.63	227.38
840.94	227.35
841.26	227.35
841.57	227.26
841.88	227.21
842.20	227.09
842.51	226.98
842.83	227.03
843.14	227.45
843.46	227.47
843.77	227.14
844.08	227.03
844.40	226.80
844.71	226.72
845.03	226.68
845.34	226.65
845.65	226.64
845.97	226.63
846.28	226.55
846.60	226.64
846.91	226.57
847.22	226.52
847.54	226.75
847.85	226.69
848.16	226.70
848.48	226.67
848.79	226.87
849.10	226.95
849.42	226.91
849.73	226.50
850.04	226.47
850.36	226.28
850.67	226.41
850.98	226.52
851.30	226.49
851.61	226.42
851.92	226.37
852.23	226.44
852.55	226.46
852.86	226.47
853.17	226.45
853.49	226.55
853.80	226.66
854.11	226.57
854.42	226.65
854.74	226.60
855.05	226.58
855.36	226.41
855.67	226.39
855.99	226.38
856.30	226.95
856.61	226.98
856.92	227.04
857.23	226.96
857.55	226.87
857.86	226.93
858.17	227.11
858.48	227.05
858.79	227.02
859.11	227.19
859.42	227.20
859.73	227.13
860.04	227.09
860.35	226.94
860.66	226.75
860.98	226.73
861.29	226.78
861.60	226.78
861.91	226.86
862.22	226.82
862.53	226.74
862.84	226.15
863.16	226.23
863.47	226.13
863.78	226.13
864.09	226.28
864.40	226.29
864.71	226.20
865.02	226.27
865.33	226.23
865.64	226.11
865.95	226.12
866.27	226.45
866.58	226.41
866.89	226.61
867.20	226.60
867.51	226.53
867.82	226.56
868.13	226.73
868.44	226.67
868.75	226.78
869.06	226.87
869.37	226.91
869.68	226.80
869.99	226.94
870.30	227.02
870.61	226.96
870.92	226.90
871.23	226.87
871.54	226.93
871.85	227.02
872.16	227.06
872.47	227.05
872.78	226.82
873.09	226.87
873.40	226.82
873.71	226.92
874.02	226.96
874.33	226.92
874.64	226.73
874.95	226.84
875.26	226.77
875.56	226.69
875.87	226.65
876.18	226.68
876.49	227.14
876.80	227.03
877.11	226.93
877.42	226.95
877.73	226.93
878.04	226.91
878.35	226.89
878.66	226.87
878.96	226.85
879.27	226.82
879.58	226.77
879.89	226.74
880.20	226.89
880.51	226.87
880.82	226.87
881.12	226.98
881.43	226.81
881.74	226.73
882.05	226.75
882.36	226.81
882.67	226.84
882.97	226.24
883.28	226.18
883.59	226.17
883.90	226.20
884.21	226.27
884.51	226.21
884.82	226.10
885.13	226.06
885.44	226.04
885.74	225.95
886.05	225.92
886.36	225.85
886.67	225.62
886.98	225.83
887.28	225.85
887.59	225.73
887.90	225.77
888.20	225.79
888.51	225.86
888.82	225.83
889.13	225.85
889.43	226.26
889.74	226.27
890.05	226.33
890.35	226.28
890.66	226.17
890.97	226.13
891.28	226.19
891.58	226.16
891.89	226.20
892.20	226.17
892.50	226.19
892.81	226.19
893.12	226.20
893.42	225.97
893.73	225.98
894.04	226.04
894.34	226.09
894.65	226.04
894.95	226.00
895.26	225.95
895.57	226.16
895.87	225.70
896.18	225.79
896.48	225.81
896.79	225.75
897.10	225.86
897.40	225.90
897.71	225.86
898.01	225.86
898.32	225.90
898.63	225.91
898.93	225.93
899.24	225.95
899.54	225.91
899.85	225.90
900.15	225.86
900.46	225.88
900.76	225.88
901.07	225.86
901.38	225.88
901.68	225.96
901.99	225.67
902.29	225.73
902.60	225.67
902.90	225.55
903.21	225.58
903.51	225.45
903.82	225.54
904.12	225.60
904.43	225.64
904.73	225.58
905.03	225.62
905.34	226.11
905.64	226.11
905.95	226.11
906.25	226.05
906.56	226.07
906.86	226.05
907.17	225.97
907.47	226.00
907.77	225.90
908.08	225.83
908.38	225.95
908.69	225.96
908.99	226.05
909.30	226.13
909.60	226.15
909.90	226.30
910.21	226.17
910.51	226.11
910.81	226.10
911.12	226.17
911.42	226.22
911.73	225.73
912.03	225.72
912.33	225.86
912.64	225.88
912.94	225.77
913.24	225.68
913.55	225.72
913.85	225.74
914.15	225.86
914.46	225.91
914.76	225.86
915.06	225.80
915.37	225.75
915.67	225.73
915.97	225.77
916.27	225.60
916.58	225.68
916.88	225.65
917.18	225.60
917.49	225.87
917.79	225.79
918.09	225.91
918.39	226.09
918.70	226.03
919.00	226.03
919.30	226.24
919.60	226.25
919.91	226.20
920.21	226.15
920.51	225.97
920.81	225.90
921.12	225.94
921.42	226.08
921.72	226.10
922.02	226.14
922.32	226.20
922.63	226.23
922.93	226.38
923.23	226.35
923.53	226.31
923.83	226.07
924.13	226.13
924.44	226.02
924.74	226.08
925.04	226.20
925.34	226.23
925.64	226.03
925.94	226.03
926.24	226.30
926.55	226.30
926.85	226.40
927.15	226.39
927.45	226.37
927.75	226.27
928.05	226.28
928.35	226.18
928.65	226.19
928.95	226.25
929.26	226.07
929.56	226.23
929.86	226.35
930.16	226.29
930.46	226.28
930.76	226.25
931.06	225.97
931.36	225.75
931.66	225.76
931.96	225.94
932.26	225.92
932.56	225.74
932.86	225.79
933.16	225.80
933.46	225.83
933.76	225.70
934.06	225.82
934.36	225.99
934.66	226.06
934.96	226.06
935.26	226.10
935.56	226.16
935.86	226.00
936.16	225.97
936.46	225.92
936.76	225.91
937.06	225.90
937.36	225.99
937.66	226.12
937.96	226.13
938.26	226.01
938.56	226.05
938.86	226.02
939.16	226.14
939.46	226.22
939.76	226.18
940.06	226.25
940.35	226.09
940.65	225.86
940.95	225.89
941.25	225.74
941.55	225.67
941.85	225.66
942.15	225.86
942.45	225.87
942.75	225.92
943.04	226.00
943.34	226.11
943.64	226.01
943.94	225.95
944.24	225.97
944.54	225.97
944.84	225.98
945.13	225.94
945.43	225.86
945.73	225.87
946.03	225.85
946.33	225.85
946.62	225.95
946.92	225.91
947.22	225.88
947.52	225.98
947.82	226.08
948.11	226.03
948.41	225.82
948.71	225.80
949.01	225.75
949.31	225.62
949.60	225.57
949.90	225.75
950.20	225.68
950.50	225.67
950.79	225.65
951.09	225.62
951.39	225.62
951.69	225.59
951.98	225.62
952.28	225.75
952.58	225.67
952.87	225.66
953.17	225.75
953.47	225.75
953.76	225.70
954.06	225.57
954.36	225.58
954.66	225.55
954.95	225.68
955.25	225.74
955.55	225.79
955.84	225.71
956.14	225.70
956.44	225.82
956.73	225.78
957.03	225.86
957.32	225.96
957.62	225.98
957.92	226.09
958.21	226.03
958.51	226.53
958.81	226.61
959.10	226.65
959.40	226.77
959.69	226.75
959.99	226.85
960.29	226.93
960.58	226.89
960.88	227.15
961.17	227.09
961.47	227.09
961.76	227.07
962.06	227.20
962.36	227.11
962.65	227.14
962.95	227.13
963.24	227.09
963.54	227.04
963.83	227.11
964.13	227.01
964.42	226.94
964.72	226.51
965.01	226.53
965.31	226.46
965.60	226.29
965.90	226.62
966.19	226.49
966.49	226.47
966.78	226.44
967.08	226.38
967.37	226.35
967.67	226.26
967.96	226.39
968.26	226.35
968.55	226.36
968.85	226.36
969.14	226.45
969.43	226.43
969.73	226.36
970.02	226.26
970.32	226.24
970.61	226.21
970.91	226.05
971.20	225.99
971.49	225.96
971.79	226.09
972.08	225.78
972.38	225.83
972.67	225.75
972.96	225.83
973.26	225.71
973.55	225.89
973.85	225.92
974.14	225.83
974.43	225.88
974.73	225.82
975.02	225.70
975.31	225.61
975.61	225.60
975.90	225.65
976.19	225.63
976.49	225.74
976.78	225.73
977.07	225.78
977.37	225.75
977.66	225.78
977.95	225.72
978.24	225.78
978.54	225.86
978.83	225.87
979.12	225.84
979.42	225.88
979.71	225.78
980.00	225.75
980.29	225.78
980.59	225.65
980.88	225.78
981.17	225.83
981.46	225.83
981.76	225.81
982.05	225.94
982.34	225.99
982.63	226.00
982.93	226.08
983.22	226.24
983.51	226.31
983.80	226.37
984.09	226.37
984.39	226.31
984.68	226.21
984.97	226.28
985.26	226.22
985.55	226.24
985.85	226.17
986.14	226.28
986.43	226.36
986.72	226.31
987.01	226.16
987.30	226.22
987.59	226.17
987.89	226.25
988.18	226.10
988.47	226.06
988.76	225.90
989.05	225.90
989.34	225.72
989.63	225.87
989.92	225.82
990.22	225.74
990.51	225.76
990.80	225.80
991.09	225.80
991.38	225.88
991.67	225.84
991.96	225.82
992.25	225.80
992.54	225.69
992.83	225.76
993.12	225.79
993.41	225.79
993.70	226.07
993.99	226.10
994.28	226.21
994.58	226.28
994.87	226.38
995.16	226.26
995.45	226.30
995.74	226.13
996.03	226.16
996.32	226.27
996.61	226.36
996.90	226.34
997.19	226.33
997.48	226.32
997.77	226.28
998.06	226.27
998.34	226.26
998.63	226.24
998.92	226.24
999.21	226.28
999.50	226.30
999.79	226.04
1000.08	226.03
1000.37	225.98
1000.66	225.89
1000.95	225.88
1001.24	225.91
1001.53	226.00
1001.82	225.88
1002.11	225.80
1002.40	225.88
1002.68	225.98
1002.97	226.29
1003.26	226.21
1003.55	226.19
1003.84	226.22
1004.13	226.34
1004.42	226.22
1004.71	226.26
1004.99	226.21
1005.28	226.33
1005.57	226.29
1005.86	226.30
1006.15	226.24
1006.44	226.18
1006.72	226.25
1007.01	226.23
1007.30	226.21
1007.59	226.12
1007.88	226.23
1008.17	226.23
1008.45	226.09
1008.74	225.89
1009.03	225.69
1009.32	225.74
1009.60	225.70
1009.89	225.69
1010.18	225.60
1010.47	225.63
1010.76	225.55
1011.04	225.57
1011.33	225.58
1011.62	225.56
1011.91	225.60
1012.19	225.65
1012.48	225.67
1012.77	225.68
1013.05	225.85
1013.34	225.91
1013.63	225.89
1013.92	225.88
1014.20	225.93
1014.49	225.96
1014.78	225.99
1015.06	225.83
1015.35	225.80
1015.64	225.90
1015.92	225.94
1016.21	225.97
1016.50	225.96
1016.78	226.05
1017.07	226.05
1017.36	225.92
1017.64	225.83
1017.93	225.83
1018.22	225.83
1018.50	225.84
1018.79	225.82
1019.08	225.56
1019.36	225.57
1019.65	225.56
1019.93	225.68
1020.22	225.69
1020.51	225.92
1020.79	225.79
1021.08	226.20
1021.36	225.80
1021.65	225.45
1021.94	224.25
1022.22	226.05
1022.51	224.85
1022.79	228.10
1023.08	225.75
1023.36	231.30
1023.65	223.60
>>>>>End Processed Spectral Data<<<<<
