SpectraSuite Data File
++++++++++++++++++++++++++++++++++++
Date: Wed Sep 04 17:51:04 EDT 2013
User: lab3
Dark Spectrum Present: Yes
Reference Spectrum Present: No
Number of Sampled Component Spectra: 1
Spectrometers: USB2E7196
Integration Time (usec): 170000 (USB2E7196)
Spectra Averaged: 20 (USB2E7196)
Boxcar Smoothing: 10 (USB2E7196)
Correct for Electrical Dark: No (USB2E7196)
Strobe/Lamp Enabled: No (USB2E7196)
Correct for Detector Non-linearity: No (USB2E7196)
Correct for Stray Light: No (USB2E7196)
Number of Pixels in Processed Spectrum: 2048
>>>>>Begin Processed Spectral Data<<<<<
339.09	0.00
339.48	212.40
339.86	213.70
340.24	215.60
340.63	216.35
341.01	225.15
341.39	220.15
341.78	221.65
342.16	223.65
342.54	223.65
342.93	211.85
343.31	222.58
343.69	223.13
344.07	223.65
344.46	224.14
344.84	224.64
345.22	224.63
345.60	224.91
345.99	225.06
346.37	225.13
346.75	225.25
347.13	225.38
347.52	225.48
347.90	225.67
348.28	225.73
348.66	225.90
349.05	225.77
349.43	225.89
349.81	225.87
350.19	225.94
350.57	225.97
350.96	226.09
351.34	226.13
351.72	226.22
352.10	226.25
352.48	226.27
352.87	226.26
353.25	226.35
353.63	226.39
354.01	226.44
354.39	226.49
354.77	226.50
355.15	226.68
355.54	226.71
355.92	226.68
356.30	226.71
356.68	227.07
357.06	227.17
357.44	227.11
357.82	227.21
358.20	227.71
358.58	227.80
358.97	227.86
359.35	228.06
359.73	228.19
360.11	228.21
360.49	228.28
360.87	228.34
361.25	228.45
361.63	228.67
362.01	228.84
362.39	228.90
362.77	228.95
363.15	228.96
363.53	228.96
363.91	228.90
364.29	228.98
364.67	228.51
365.05	228.55
365.43	228.70
365.81	228.85
366.19	228.62
366.57	228.81
366.95	228.88
367.33	228.71
367.71	228.78
368.09	228.98
368.47	229.03
368.85	229.05
369.23	229.12
369.61	228.89
369.99	228.99
370.37	229.09
370.75	229.36
371.13	229.27
371.51	229.25
371.89	229.38
372.27	229.36
372.65	229.43
373.03	229.44
373.41	229.36
373.78	229.30
374.16	229.13
374.54	228.95
374.92	228.80
375.30	228.80
375.68	228.61
376.06	228.63
376.44	228.50
376.82	228.52
377.19	228.37
377.57	228.35
377.95	228.17
378.33	228.05
378.71	227.68
379.09	227.72
379.47	227.65
379.84	227.53
380.22	227.41
380.60	227.26
380.98	227.15
381.36	227.05
381.73	226.86
382.11	226.90
382.49	226.90
382.87	226.80
383.25	226.71
383.62	227.21
384.00	226.96
384.38	226.95
384.76	226.92
385.13	227.13
385.51	227.05
385.89	226.85
386.27	226.78
386.64	226.83
387.02	226.70
387.40	226.65
387.78	226.68
388.15	226.70
388.53	226.60
388.91	226.61
389.29	226.50
389.66	226.57
390.04	226.40
390.42	226.36
390.79	226.33
391.17	226.31
391.55	225.73
391.92	225.69
392.30	225.69
392.68	225.60
393.05	225.55
393.43	225.54
393.81	225.60
394.18	225.53
394.56	225.55
394.94	225.64
395.31	225.64
395.69	225.75
396.06	225.78
396.44	225.91
396.82	225.88
397.19	226.25
397.57	226.23
397.95	226.41
398.32	226.36
398.70	226.52
399.07	226.73
399.45	226.79
399.82	226.90
400.20	227.05
400.58	227.08
400.95	226.95
401.33	227.20
401.70	227.70
402.08	227.89
402.45	228.00
402.83	228.17
403.20	228.37
403.58	228.49
403.95	228.75
404.33	228.96
404.71	229.17
405.08	229.58
405.46	229.87
405.83	230.09
406.21	230.37
406.58	230.65
406.96	230.93
407.33	231.39
407.70	231.77
408.08	232.49
408.45	232.93
408.83	233.46
409.20	233.76
409.58	233.91
409.95	234.49
410.33	234.97
410.70	235.45
411.08	236.07
411.45	236.62
411.82	237.13
412.20	237.90
412.57	238.93
412.95	239.28
413.32	240.13
413.69	241.00
414.07	241.86
414.44	242.86
414.82	243.88
415.19	245.04
415.56	246.26
415.94	247.21
416.31	248.61
416.68	249.95
417.06	251.63
417.43	253.25
417.81	254.99
418.18	256.78
418.55	258.67
418.93	260.78
419.30	262.87
419.67	265.09
420.04	267.40
420.42	269.68
420.79	272.75
421.16	275.57
421.54	278.54
421.91	281.59
422.28	284.67
422.66	287.95
423.03	291.37
423.40	294.67
423.77	298.17
424.15	301.85
424.52	305.72
424.89	309.88
425.26	313.74
425.64	317.47
426.01	321.70
426.38	326.03
426.75	330.44
427.13	335.00
427.50	339.85
427.87	344.62
428.24	349.52
428.61	353.97
428.99	359.17
429.36	364.63
429.73	370.07
430.10	375.55
430.47	381.19
430.85	386.77
431.22	392.91
431.59	399.62
431.96	405.70
432.33	412.55
432.70	419.17
433.08	427.06
433.45	434.43
433.82	441.72
434.19	449.93
434.56	458.00
434.93	465.61
435.30	473.16
435.68	481.69
436.05	489.95
436.42	498.28
436.79	505.93
437.16	514.40
437.53	523.13
437.90	531.78
438.27	540.37
438.64	549.22
439.01	557.40
439.38	564.61
439.75	571.74
440.13	579.78
440.50	587.21
440.87	593.20
441.24	599.61
441.61	606.57
441.98	611.50
442.35	617.19
442.72	623.26
443.09	629.22
443.46	632.61
443.83	635.02
444.20	636.94
444.57	639.54
444.94	640.50
445.31	641.47
445.68	642.68
446.05	642.72
446.42	641.44
446.79	640.10
447.16	638.54
447.53	637.40
447.90	633.54
448.27	629.84
448.64	625.09
449.01	621.35
449.37	615.23
449.74	609.45
450.11	602.65
450.48	594.91
450.85	586.78
451.22	580.03
451.59	573.47
451.96	567.20
452.33	559.10
452.70	551.75
453.07	543.19
453.43	534.21
453.80	525.82
454.17	517.75
454.54	510.02
454.91	501.81
455.28	493.76
455.65	486.58
456.02	479.88
456.38	473.53
456.75	465.84
457.12	459.45
457.49	453.04
457.86	446.67
458.23	441.62
458.59	436.11
458.96	430.35
459.33	425.28
459.70	420.19
460.07	416.25
460.43	411.54
460.80	407.27
461.17	403.67
461.54	399.75
461.91	396.07
462.27	392.34
462.64	389.03
463.01	385.57
463.38	382.28
463.74	378.25
464.11	375.26
464.48	372.68
464.85	369.84
465.21	367.84
465.58	365.65
465.95	362.75
466.32	360.37
466.68	358.18
467.05	355.90
467.42	353.66
467.78	351.29
468.15	349.16
468.52	347.66
468.88	345.47
469.25	343.57
469.62	342.10
469.98	340.44
470.35	338.95
470.72	337.52
471.08	335.74
471.45	334.48
471.82	333.17
472.18	331.70
472.55	330.68
472.92	329.29
473.28	328.18
473.65	327.01
474.02	326.07
474.38	325.18
474.75	324.47
475.11	323.63
475.48	323.12
475.85	322.51
476.21	321.90
476.58	321.37
476.94	321.04
477.31	320.59
477.67	320.23
478.04	319.94
478.41	319.68
478.77	319.95
479.14	319.65
479.50	319.58
479.87	319.58
480.23	319.51
480.60	319.37
480.96	319.31
481.33	319.79
481.69	319.92
482.06	320.14
482.42	320.40
482.79	320.77
483.15	321.04
483.52	321.70
483.88	322.10
484.25	322.70
484.61	323.27
484.98	323.83
485.34	324.70
485.71	325.66
486.07	326.58
486.44	327.13
486.80	328.15
487.17	329.33
487.53	330.76
487.90	332.14
488.26	333.89
488.62	335.59
488.99	337.02
489.35	338.80
489.72	340.69
490.08	342.66
490.44	344.69
490.81	347.07
491.17	349.19
491.54	351.70
491.90	354.27
492.26	356.95
492.63	359.75
492.99	362.56
493.36	365.49
493.72	368.85
494.08	372.35
494.45	376.18
494.81	379.98
495.17	383.78
495.54	388.09
495.90	392.27
496.26	396.76
496.63	401.48
496.99	406.27
497.35	411.27
497.72	416.56
498.08	422.03
498.44	427.63
498.80	433.78
499.17	439.83
499.53	446.00
499.89	452.60
500.26	459.44
500.62	466.35
500.98	473.81
501.34	481.14
501.71	488.83
502.07	496.56
502.43	504.51
502.79	513.01
503.16	521.64
503.52	530.53
503.88	539.68
504.24	549.37
504.60	559.33
504.97	569.66
505.33	579.96
505.69	591.16
506.05	602.01
506.41	613.16
506.78	624.81
507.14	636.81
507.50	649.01
507.86	661.67
508.22	674.77
508.59	687.94
508.95	701.77
509.31	715.79
509.67	730.06
510.03	744.54
510.39	759.03
510.75	773.94
511.12	789.26
511.48	804.81
511.84	820.32
512.20	836.21
512.56	852.49
512.92	869.39
513.28	885.92
513.64	903.17
514.00	920.63
514.37	938.21
514.73	956.25
515.09	974.48
515.45	992.86
515.81	1011.07
516.17	1029.69
516.53	1048.19
516.89	1066.83
517.25	1086.02
517.61	1106.24
517.97	1126.31
518.33	1146.36
518.69	1166.61
519.05	1187.21
519.41	1207.67
519.77	1228.70
520.13	1249.14
520.49	1269.64
520.85	1291.95
521.21	1312.93
521.57	1333.87
521.93	1354.61
522.29	1375.78
522.65	1396.29
523.01	1417.34
523.37	1438.10
523.73	1458.81
524.09	1479.23
524.45	1499.69
524.81	1520.51
525.17	1540.77
525.53	1561.26
525.89	1582.09
526.25	1602.72
526.61	1622.99
526.97	1644.16
527.33	1664.94
527.68	1686.76
528.04	1707.85
528.40	1727.20
528.76	1748.29
529.12	1768.81
529.48	1789.48
529.84	1809.13
530.20	1830.22
530.56	1850.40
530.91	1871.32
531.27	1891.48
531.63	1911.79
531.99	1932.10
532.35	1952.01
532.71	1972.48
533.07	1993.08
533.42	2012.49
533.78	2032.23
534.14	2051.80
534.50	2070.65
534.86	2090.19
535.21	2107.41
535.57	2125.74
535.93	2143.10
536.29	2160.52
536.65	2178.49
537.00	2195.84
537.36	2213.59
537.72	2229.66
538.08	2246.63
538.44	2262.74
538.79	2279.20
539.15	2295.80
539.51	2312.08
539.87	2327.10
540.22	2340.60
540.58	2354.74
540.94	2367.99
541.29	2380.25
541.65	2392.40
542.01	2404.66
542.37	2414.79
542.72	2425.72
543.08	2436.22
543.44	2448.10
543.79	2458.21
544.15	2467.98
544.51	2478.05
544.87	2487.43
545.22	2496.37
545.58	2504.09
545.94	2511.41
546.29	2517.58
546.65	2523.52
547.01	2528.84
547.36	2534.21
547.72	2539.47
548.07	2543.50
548.43	2548.76
548.79	2553.66
549.14	2557.76
549.50	2561.33
549.86	2565.19
550.21	2569.03
550.57	2572.13
550.92	2573.40
551.28	2574.52
551.64	2576.62
551.99	2578.35
552.35	2579.76
552.70	2581.66
553.06	2583.40
553.41	2584.32
553.77	2586.30
554.13	2588.02
554.48	2589.23
554.84	2590.60
555.19	2591.98
555.55	2593.30
555.90	2592.22
556.26	2590.84
556.61	2589.51
556.97	2587.63
557.32	2586.75
557.68	2585.18
558.03	2583.75
558.39	2582.08
558.74	2581.00
559.10	2577.66
559.45	2573.90
559.81	2569.42
560.16	2563.59
560.52	2558.49
560.87	2554.19
561.23	2548.42
561.58	2542.23
561.94	2535.70
562.29	2527.97
562.64	2520.74
563.00	2512.45
563.35	2506.07
563.71	2499.53
564.06	2493.08
564.42	2486.38
564.77	2479.41
565.12	2472.07
565.48	2464.21
565.83	2456.42
566.19	2448.29
566.54	2440.61
566.89	2432.64
567.25	2425.15
567.60	2418.59
567.96	2410.98
568.31	2402.72
568.66	2394.42
569.02	2385.40
569.37	2376.84
569.72	2369.55
570.08	2360.26
570.43	2350.63
570.78	2341.53
571.14	2332.14
571.49	2321.79
571.84	2312.25
572.20	2301.37
572.55	2291.21
572.90	2280.39
573.26	2270.12
573.61	2259.03
573.96	2247.55
574.31	2235.70
574.67	2223.87
575.02	2211.01
575.37	2198.34
575.72	2185.35
576.08	2173.33
576.43	2161.03
576.78	2148.03
577.13	2134.31
577.49	2121.62
577.84	2109.90
578.19	2097.64
578.54	2085.25
578.90	2073.65
579.25	2061.19
579.60	2048.86
579.95	2036.15
580.30	2023.18
580.66	2009.64
581.01	1996.32
581.36	1982.44
581.71	1969.73
582.06	1956.54
582.42	1944.19
582.77	1931.68
583.12	1919.86
583.47	1907.33
583.82	1895.33
584.17	1883.39
584.53	1871.76
584.88	1858.94
585.23	1846.06
585.58	1832.05
585.93	1818.78
586.28	1805.68
586.63	1792.08
586.98	1778.05
587.34	1764.52
587.69	1751.35
588.04	1739.12
588.39	1727.37
588.74	1715.57
589.09	1703.63
589.44	1691.13
589.79	1679.27
590.14	1667.20
590.49	1655.11
590.84	1643.26
591.19	1631.36
591.54	1619.20
591.89	1607.18
592.25	1597.18
592.60	1585.72
592.95	1574.74
593.30	1563.00
593.65	1550.89
594.00	1538.93
594.35	1529.32
594.70	1517.64
595.05	1506.52
595.40	1494.33
595.75	1482.20
596.10	1471.04
596.45	1459.66
596.80	1449.03
597.15	1437.81
597.50	1426.47
597.85	1415.35
598.19	1403.82
598.54	1392.17
598.89	1381.29
599.24	1370.82
599.59	1359.45
599.94	1348.80
600.29	1338.45
600.64	1328.56
600.99	1317.94
601.34	1308.61
601.69	1297.47
602.04	1287.85
602.39	1278.37
602.74	1269.48
603.08	1260.48
603.43	1251.28
603.78	1241.64
604.13	1232.13
604.48	1222.28
604.83	1212.42
605.18	1202.76
605.53	1193.44
605.87	1184.45
606.22	1175.98
606.57	1166.67
606.92	1156.93
607.27	1147.96
607.62	1139.13
607.96	1130.36
608.31	1122.53
608.66	1114.08
609.01	1105.60
609.36	1097.36
609.70	1088.62
610.05	1080.03
610.40	1071.61
610.75	1062.90
611.10	1054.72
611.44	1046.26
611.79	1038.29
612.14	1030.64
612.49	1022.67
612.83	1015.06
613.18	1007.31
613.53	999.55
613.88	991.79
614.22	984.34
614.57	976.56
614.92	968.91
615.27	961.68
615.61	954.10
615.96	946.46
616.31	939.18
616.65	932.10
617.00	924.88
617.35	917.74
617.70	910.41
618.04	903.26
618.39	896.39
618.74	890.06
619.08	883.25
619.43	876.40
619.78	869.38
620.12	862.32
620.47	855.62
620.82	848.49
621.16	841.66
621.51	835.45
621.85	829.23
622.20	822.45
622.55	815.86
622.89	809.45
623.24	803.31
623.59	796.97
623.93	790.52
624.28	784.45
624.62	778.88
624.97	773.25
625.32	767.81
625.66	761.86
626.01	755.57
626.35	750.01
626.70	744.56
627.04	739.49
627.39	734.06
627.73	728.85
628.08	723.80
628.43	718.57
628.77	713.18
629.12	708.15
629.46	703.62
629.81	698.82
630.15	694.14
630.50	689.25
630.84	684.50
631.19	679.89
631.53	675.33
631.88	670.20
632.22	665.45
632.57	660.90
632.91	656.30
633.26	651.98
633.60	647.40
633.95	642.79
634.29	638.17
634.64	634.01
634.98	629.24
635.32	624.89
635.67	620.97
636.01	616.89
636.36	612.45
636.70	608.46
637.05	604.27
637.39	600.15
637.73	596.04
638.08	591.99
638.42	587.88
638.77	583.69
639.11	579.40
639.45	575.15
639.80	570.78
640.14	566.85
640.49	562.91
640.83	559.24
641.17	555.65
641.52	551.98
641.86	548.30
642.20	545.15
642.55	541.45
642.89	537.65
643.23	534.15
643.58	531.05
643.92	527.28
644.26	523.92
644.61	520.74
644.95	517.44
645.29	514.17
645.64	511.12
645.98	508.10
646.32	505.23
646.66	502.14
647.01	499.27
647.35	496.56
647.69	493.77
648.04	490.94
648.38	488.06
648.72	485.14
649.06	482.14
649.41	479.15
649.75	476.39
650.09	473.70
650.43	470.89
650.78	467.98
651.12	465.24
651.46	462.52
651.80	459.83
652.14	457.28
652.49	454.81
652.83	452.24
653.17	449.54
653.51	446.85
653.85	444.49
654.20	442.10
654.54	439.37
654.88	436.77
655.22	434.57
655.56	432.34
655.90	430.00
656.25	427.81
656.59	425.52
656.93	423.37
657.27	421.24
657.61	418.79
657.95	416.49
658.29	414.40
658.64	412.28
658.98	409.91
659.32	407.69
659.66	405.53
660.00	403.47
660.34	401.58
660.68	399.65
661.02	397.70
661.36	395.71
661.70	393.85
662.05	391.92
662.39	389.91
662.73	387.96
663.07	386.39
663.41	384.57
663.75	382.71
664.09	380.84
664.43	378.90
664.77	377.39
665.11	375.75
665.45	374.09
665.79	372.38
666.13	370.75
666.47	368.90
666.81	367.18
667.15	365.38
667.49	363.84
667.83	362.45
668.17	360.95
668.51	359.56
668.85	358.17
669.19	357.06
669.53	355.43
669.87	353.87
670.21	352.26
670.55	350.90
670.89	349.81
671.23	348.45
671.57	347.05
671.91	345.63
672.25	344.25
672.58	343.03
672.92	341.58
673.26	340.39
673.60	339.38
673.94	338.21
674.28	337.17
674.62	335.94
674.96	334.66
675.30	333.48
675.64	332.21
675.97	330.99
676.31	329.53
676.65	328.38
676.99	327.41
677.33	326.23
677.67	325.04
678.01	323.74
678.34	322.71
678.68	321.76
679.02	320.66
679.36	319.73
679.70	318.65
680.04	317.86
680.37	316.76
680.71	315.78
681.05	314.82
681.39	313.86
681.73	312.93
682.06	312.06
682.40	311.09
682.74	310.30
683.08	309.59
683.42	308.77
683.75	308.02
684.09	307.01
684.43	306.31
684.77	305.44
685.10	304.58
685.44	303.83
685.78	303.10
686.12	302.39
686.45	301.57
686.79	300.77
687.13	300.05
687.46	299.38
687.80	298.71
688.14	297.93
688.48	297.32
688.81	296.65
689.15	296.08
689.49	295.36
689.82	294.64
690.16	293.73
690.50	293.14
690.83	292.36
691.17	291.70
691.51	291.01
691.84	290.52
692.18	289.86
692.52	289.12
692.85	288.49
693.19	288.09
693.52	287.49
693.86	286.85
694.20	286.16
694.53	285.60
694.87	284.90
695.21	284.27
695.54	283.60
695.88	282.90
696.21	282.07
696.55	281.52
696.88	280.91
697.22	280.23
697.56	279.64
697.89	279.10
698.23	278.59
698.56	277.98
698.90	277.43
699.23	276.87
699.57	276.40
699.90	275.78
700.24	275.08
700.58	274.59
700.91	274.11
701.25	273.96
701.58	273.83
701.92	273.50
702.25	273.07
702.59	272.52
702.92	272.08
703.26	271.69
703.59	271.27
703.93	271.23
704.26	270.99
704.60	270.68
704.93	270.28
705.26	269.79
705.60	269.50
705.93	269.01
706.27	268.81
706.60	268.50
706.94	268.36
707.27	267.87
707.61	267.51
707.94	267.17
708.27	266.44
708.61	265.70
708.94	265.34
709.28	265.00
709.61	264.65
709.94	264.35
710.28	263.99
710.61	263.62
710.95	262.83
711.28	262.72
711.61	262.19
711.95	261.95
712.28	261.61
712.61	261.23
712.95	261.13
713.28	260.95
713.61	260.53
713.95	260.05
714.28	259.79
714.61	259.42
714.95	259.05
715.28	258.59
715.61	258.25
715.95	257.85
716.28	257.39
716.61	257.16
716.95	256.83
717.28	256.46
717.61	256.20
717.94	255.94
718.28	255.32
718.61	255.11
718.94	254.74
719.27	254.49
719.61	254.20
719.94	253.81
720.27	253.28
720.60	252.95
720.94	252.68
721.27	252.47
721.60	252.36
721.93	252.17
722.27	252.29
722.60	252.17
722.93	251.95
723.26	251.84
723.59	251.48
723.93	251.29
724.26	251.12
724.59	250.86
724.92	250.67
725.25	250.59
725.59	250.32
725.92	250.21
726.25	250.06
726.58	249.92
726.91	249.68
727.24	249.52
727.57	249.33
727.91	249.07
728.24	248.90
728.57	248.65
728.90	248.48
729.23	248.08
729.56	248.06
729.89	247.94
730.22	247.79
730.55	247.66
730.89	247.46
731.22	247.37
731.55	247.21
731.88	247.09
732.21	246.81
732.54	246.58
732.87	246.33
733.20	246.16
733.53	246.00
733.86	245.93
734.19	245.78
734.52	245.64
734.85	245.77
735.18	245.59
735.51	245.51
735.84	245.37
736.17	245.36
736.50	244.95
736.83	245.31
737.16	245.17
737.49	245.04
737.82	244.88
738.15	244.87
738.48	244.71
738.81	244.47
739.14	244.28
739.47	244.19
739.80	244.04
740.13	243.93
740.46	243.68
740.79	243.48
741.12	243.29
741.45	243.18
741.78	242.84
742.11	242.85
742.44	242.64
742.77	242.65
743.10	242.43
743.43	242.32
743.75	241.68
744.08	242.09
744.41	241.86
744.74	241.78
745.07	241.48
745.40	241.40
745.73	241.51
746.06	241.47
746.39	241.40
746.71	241.20
747.04	241.00
747.37	240.82
747.70	240.75
748.03	240.66
748.36	240.60
748.68	240.45
749.01	240.14
749.34	240.00
749.67	239.75
750.00	239.75
750.33	239.97
750.65	239.89
750.98	239.20
751.31	239.13
751.64	238.95
751.97	239.03
752.29	238.92
752.62	238.56
752.95	238.44
753.28	238.19
753.60	238.14
753.93	238.16
754.26	238.14
754.59	237.87
754.91	237.74
755.24	237.60
755.57	237.47
755.90	237.39
756.22	237.24
756.55	237.07
756.88	236.72
757.20	236.24
757.53	235.96
757.86	235.85
758.19	235.81
758.51	235.74
758.84	235.41
759.17	235.23
759.49	235.16
759.82	235.25
760.15	235.27
760.47	235.19
760.80	234.96
761.13	234.95
761.45	234.81
761.78	234.71
762.11	234.52
762.43	234.35
762.76	234.28
763.08	234.20
763.41	234.18
763.74	234.24
764.06	234.12
764.39	234.07
764.71	234.01
765.04	233.90
765.37	233.76
765.69	233.60
766.02	233.56
766.34	233.44
766.67	233.09
767.00	233.14
767.32	233.35
767.65	233.54
767.97	233.41
768.30	233.39
768.62	233.37
768.95	233.31
769.27	233.33
769.60	233.36
769.92	233.31
770.25	233.15
770.57	232.98
770.90	232.97
771.22	232.87
771.55	232.82
771.87	232.80
772.20	232.78
772.52	233.23
772.85	233.69
773.17	233.66
773.50	233.58
773.82	233.43
774.15	233.10
774.47	232.77
774.80	232.64
775.12	232.63
775.45	232.51
775.77	232.56
776.09	232.52
776.42	232.46
776.74	232.52
777.07	232.48
777.39	232.43
777.72	232.39
778.04	232.40
778.36	232.32
778.69	232.24
779.01	232.16
779.33	231.64
779.66	231.11
779.98	231.10
780.31	231.15
780.63	231.26
780.95	231.34
781.28	231.34
781.60	231.31
781.92	231.22
782.25	231.21
782.57	231.14
782.89	231.07
783.22	230.98
783.54	230.81
783.86	230.82
784.19	230.81
784.51	230.92
784.83	230.85
785.16	230.84
785.48	230.85
785.80	230.85
786.12	230.89
786.45	230.86
786.77	230.83
787.09	230.80
787.42	230.61
787.74	230.58
788.06	230.58
788.38	230.57
788.71	230.57
789.03	230.58
789.35	230.63
789.67	230.57
789.99	230.56
790.32	230.49
790.64	230.46
790.96	230.84
791.28	230.67
791.61	230.68
791.93	230.56
792.25	230.45
792.57	230.82
792.89	230.71
793.21	230.76
793.54	230.62
793.86	230.52
794.18	230.60
794.50	230.45
794.82	230.32
795.14	230.31
795.47	230.34
795.79	230.25
796.11	230.11
796.43	230.02
796.75	230.02
797.07	230.09
797.39	230.04
797.71	229.65
798.04	229.56
798.36	229.52
798.68	229.58
799.00	229.64
799.32	229.31
799.64	229.36
799.96	229.31
800.28	229.45
800.60	229.42
800.92	229.32
801.24	229.32
801.56	229.42
801.89	229.35
802.21	229.35
802.53	229.15
802.85	229.25
803.17	229.47
803.49	229.27
803.81	229.11
804.13	229.10
804.45	228.98
804.77	229.09
805.09	229.09
805.41	229.01
805.73	228.94
806.05	228.81
806.37	228.84
806.69	228.73
807.01	228.63
807.33	228.63
807.65	228.49
807.97	228.64
808.28	228.46
808.60	228.39
808.92	228.28
809.24	228.65
809.56	228.49
809.88	228.28
810.20	228.35
810.52	228.49
810.84	228.40
811.16	228.35
811.48	228.23
811.80	228.33
812.12	228.31
812.43	228.38
812.75	228.45
813.07	228.32
813.39	228.32
813.71	228.32
814.03	228.28
814.35	228.21
814.67	228.00
814.98	228.06
815.30	228.07
815.62	227.95
815.94	227.56
816.26	227.81
816.58	227.76
816.89	227.71
817.21	227.58
817.53	227.62
817.85	227.67
818.17	227.66
818.48	227.49
818.80	227.58
819.12	227.48
819.44	227.35
819.76	227.30
820.07	227.27
820.39	227.20
820.71	227.22
821.03	227.28
821.34	227.21
821.66	227.25
821.98	227.33
822.30	227.40
822.61	227.79
822.93	227.58
823.25	227.59
823.57	227.61
823.88	227.70
824.20	227.66
824.52	227.70
824.83	227.65
825.15	227.60
825.47	227.51
825.79	227.56
826.10	227.56
826.42	227.55
826.74	227.62
827.05	227.62
827.37	227.73
827.69	227.75
828.00	227.90
828.32	227.84
828.64	227.85
828.95	228.02
829.27	227.92
829.58	227.90
829.90	227.98
830.22	228.06
830.53	227.94
830.85	227.88
831.17	227.82
831.48	227.88
831.80	227.88
832.11	227.91
832.43	227.89
832.75	227.86
833.06	228.22
833.38	228.10
833.69	228.10
834.01	228.08
834.32	228.01
834.64	227.90
834.96	228.01
835.27	227.95
835.59	227.82
835.90	227.76
836.22	227.72
836.53	227.61
836.85	227.57
837.16	228.07
837.48	228.14
837.79	228.29
838.11	228.28
838.42	228.32
838.74	228.42
839.05	228.32
839.37	228.29
839.68	227.93
840.00	227.98
840.31	228.05
840.63	228.02
840.94	228.05
841.26	228.04
841.57	228.01
841.88	228.06
842.20	228.10
842.51	227.96
842.83	227.95
843.14	228.33
843.46	228.32
843.77	228.03
844.08	228.00
844.40	227.88
844.71	227.82
845.03	227.71
845.34	227.61
845.65	227.60
845.97	227.59
846.28	227.66
846.60	227.65
846.91	227.54
847.22	227.41
847.54	227.38
847.85	227.33
848.16	227.21
848.48	227.11
848.79	227.23
849.10	227.31
849.42	227.31
849.73	226.86
850.04	226.77
850.36	226.57
850.67	226.64
850.98	226.53
851.30	226.58
851.61	226.61
851.92	226.55
852.23	226.70
852.55	226.69
852.86	226.62
853.17	226.60
853.49	226.71
853.80	226.86
854.11	227.01
854.42	227.10
854.74	227.10
855.05	227.10
855.36	226.84
855.67	226.79
855.99	226.85
856.30	227.40
856.61	227.35
856.92	227.39
857.23	227.30
857.55	227.31
857.86	227.29
858.17	227.33
858.48	227.29
858.79	227.23
859.11	227.32
859.42	227.32
859.73	227.28
860.04	227.25
860.35	227.09
860.66	226.90
860.98	226.86
861.29	226.90
861.60	226.90
861.91	227.03
862.22	226.99
862.53	226.87
862.84	226.30
863.16	226.48
863.47	226.41
863.78	226.38
864.09	226.44
864.40	226.46
864.71	226.43
865.02	226.44
865.33	226.32
865.64	226.22
865.95	226.24
866.27	226.53
866.58	226.45
866.89	226.45
867.20	226.46
867.51	226.41
867.82	226.33
868.13	226.42
868.44	226.33
868.75	226.41
869.06	226.43
869.37	226.50
869.68	226.34
869.99	226.45
870.30	226.54
870.61	226.56
870.92	226.46
871.23	226.51
871.54	226.60
871.85	226.74
872.16	226.83
872.47	226.80
872.78	226.54
873.09	226.59
873.40	226.62
873.71	226.64
874.02	226.64
874.33	226.64
874.64	226.61
874.95	226.71
875.26	226.62
875.56	226.64
875.87	226.64
876.18	226.65
876.49	227.15
876.80	227.08
877.11	227.10
877.42	227.12
877.73	227.02
878.04	226.95
878.35	226.91
878.66	226.86
878.96	226.77
879.27	226.72
879.58	226.79
879.89	226.74
880.20	226.87
880.51	226.84
880.82	226.82
881.12	226.82
881.43	226.70
881.74	226.63
882.05	226.66
882.36	226.65
882.67	226.68
882.97	226.13
883.28	226.02
883.59	225.99
883.90	226.05
884.21	226.20
884.51	226.14
884.82	226.03
885.13	226.12
885.44	226.20
885.74	226.19
886.05	226.07
886.36	226.03
886.67	225.90
886.98	226.13
887.28	226.24
887.59	226.22
887.90	226.29
888.20	226.28
888.51	226.31
888.82	226.26
889.13	226.27
889.43	226.64
889.74	226.74
890.05	226.71
890.35	226.70
890.66	226.57
890.97	226.50
891.28	226.48
891.58	226.37
891.89	226.38
892.20	226.33
892.50	226.35
892.81	226.43
893.12	226.40
893.42	226.24
893.73	226.21
894.04	226.24
894.34	226.21
894.65	226.24
894.95	226.23
895.26	226.24
895.57	226.50
895.87	226.06
896.18	226.10
896.48	226.15
896.79	226.12
897.10	226.21
897.40	226.32
897.71	226.43
898.01	226.44
898.32	226.44
898.63	226.35
898.93	226.36
899.24	226.30
899.54	226.27
899.85	226.25
900.15	226.25
900.46	226.28
900.76	226.33
901.07	226.36
901.38	226.38
901.68	226.45
901.99	226.08
902.29	226.16
902.60	226.05
902.90	225.98
903.21	226.00
903.51	225.98
903.82	226.08
904.12	226.08
904.43	226.06
904.73	226.12
905.03	226.26
905.34	226.76
905.64	226.76
905.95	226.83
906.25	226.75
906.56	226.68
906.86	226.68
907.17	226.61
907.47	226.62
907.77	226.48
908.08	226.47
908.38	226.52
908.69	226.52
908.99	226.63
909.30	226.64
909.60	226.60
909.90	226.56
910.21	226.41
910.51	226.26
910.81	226.33
911.12	226.31
911.42	226.33
911.73	225.77
912.03	225.86
912.33	225.97
912.64	226.01
912.94	226.02
913.24	225.92
913.55	225.91
913.85	225.80
914.15	225.89
914.46	225.88
914.76	225.92
915.06	225.84
915.37	225.79
915.67	225.73
915.97	225.77
916.27	225.70
916.58	225.78
916.88	225.78
917.18	225.75
917.49	226.11
917.79	226.12
918.09	226.22
918.39	226.24
918.70	226.15
919.00	226.10
919.30	226.37
919.60	226.32
919.91	226.20
920.21	226.25
920.51	226.14
920.81	226.05
921.12	226.07
921.42	226.09
921.72	226.09
922.02	226.11
922.32	226.11
922.63	226.06
922.93	226.24
923.23	226.25
923.53	226.15
923.83	225.76
924.13	225.75
924.44	225.71
924.74	225.84
925.04	225.85
925.34	225.82
925.64	225.60
925.94	225.62
926.24	225.95
926.55	225.94
926.85	226.05
927.15	226.05
927.45	226.13
927.75	226.13
928.05	226.13
928.35	226.11
928.65	226.26
928.95	226.37
929.26	226.21
929.56	226.36
929.86	226.36
930.16	226.41
930.46	226.39
930.76	226.37
931.06	226.16
931.36	226.05
931.66	226.19
931.96	226.22
932.26	226.24
932.56	226.04
932.86	226.07
933.16	226.10
933.46	226.05
933.76	225.97
934.06	226.10
934.36	226.29
934.66	226.30
934.96	226.27
935.26	226.31
935.56	226.43
935.86	226.31
936.16	226.36
936.46	226.33
936.76	226.27
937.06	226.30
937.36	226.35
937.66	226.47
937.96	226.39
938.26	226.33
938.56	226.35
938.86	226.34
939.16	226.46
939.46	226.45
939.76	226.62
940.06	226.65
940.35	226.53
940.65	226.32
940.95	226.32
941.25	226.17
941.55	226.18
941.85	226.10
942.15	226.15
942.45	226.32
942.75	226.29
943.04	226.37
943.34	226.49
943.64	226.40
943.94	226.23
944.24	226.33
944.54	226.34
944.84	226.28
945.13	226.22
945.43	226.16
945.73	226.14
946.03	226.08
946.33	225.98
946.62	225.97
946.92	225.90
947.22	225.97
947.52	226.03
947.82	226.01
948.11	225.95
948.41	225.87
948.71	225.67
949.01	225.70
949.31	225.57
949.60	225.47
949.90	225.53
950.20	225.64
950.50	225.64
950.79	225.64
951.09	225.78
951.39	225.76
951.69	225.70
951.98	225.81
952.28	225.83
952.58	225.78
952.87	225.73
953.17	225.86
953.47	225.80
953.76	225.78
954.06	225.68
954.36	225.61
954.66	225.61
954.95	225.74
955.25	225.76
955.55	225.85
955.84	225.77
956.14	225.80
956.44	225.78
956.73	225.65
957.03	225.64
957.32	225.59
957.62	225.60
957.92	225.68
958.21	225.61
958.51	226.06
958.81	226.21
959.10	226.27
959.40	226.34
959.69	226.32
959.99	226.34
960.29	226.37
960.58	226.35
960.88	226.51
961.17	226.46
961.47	226.47
961.76	226.39
962.06	226.46
962.36	226.41
962.65	226.40
962.95	226.49
963.24	226.41
963.54	226.40
963.83	226.45
964.13	226.44
964.42	226.35
964.72	226.02
965.01	226.01
965.31	225.91
965.60	225.82
965.90	226.18
966.19	226.12
966.49	226.18
966.78	226.15
967.08	226.14
967.37	226.18
967.67	226.10
967.96	226.31
968.26	226.29
968.55	226.33
968.85	226.35
969.14	226.23
969.43	226.30
969.73	226.22
970.02	226.17
970.32	226.13
970.61	226.14
970.91	226.00
971.20	225.97
971.49	226.00
971.79	226.11
972.08	225.77
972.38	225.79
972.67	225.74
972.96	225.90
973.26	225.80
973.55	225.93
973.85	225.89
974.14	225.73
974.43	225.83
974.73	225.78
975.02	225.74
975.31	225.85
975.61	225.77
975.90	225.80
976.19	225.82
976.49	225.87
976.78	225.87
977.07	225.93
977.37	225.93
977.66	226.01
977.95	225.91
978.24	225.97
978.54	226.14
978.83	226.14
979.12	226.09
979.42	226.13
979.71	226.02
980.00	226.03
980.29	226.08
980.59	225.99
980.88	226.12
981.17	226.19
981.46	226.17
981.76	226.22
982.05	226.37
982.34	226.38
982.63	226.33
982.93	226.47
983.22	226.58
983.51	226.61
983.80	226.64
984.09	226.69
984.39	226.64
984.68	226.47
984.97	226.47
985.26	226.37
985.55	226.42
985.85	226.34
986.14	226.44
986.43	226.51
986.72	226.44
987.01	226.26
987.30	226.24
987.59	226.19
987.89	226.22
988.18	226.00
988.47	225.92
988.76	225.99
989.05	225.82
989.34	225.63
989.63	225.75
989.92	225.69
990.22	225.59
990.51	225.57
990.80	225.55
991.09	225.60
991.38	225.68
991.67	225.58
991.96	225.50
992.25	225.51
992.54	225.40
992.83	225.35
993.12	225.36
993.41	225.44
993.70	225.61
993.99	225.69
994.28	225.88
994.58	226.00
994.87	225.92
995.16	225.91
995.45	225.87
995.74	225.70
996.03	225.73
996.32	225.78
996.61	225.85
996.90	225.80
997.19	225.70
997.48	225.74
997.77	225.70
998.06	225.74
998.34	225.73
998.63	225.73
998.92	225.82
999.21	225.91
999.50	225.93
999.79	225.72
1000.08	225.65
1000.37	225.58
1000.66	225.49
1000.95	225.51
1001.24	225.49
1001.53	225.61
1001.82	225.59
1002.11	225.51
1002.40	225.60
1002.68	225.70
1002.97	226.12
1003.26	226.13
1003.55	226.05
1003.84	226.14
1004.13	226.31
1004.42	226.28
1004.71	226.40
1004.99	226.36
1005.28	226.41
1005.57	226.30
1005.86	226.37
1006.15	226.36
1006.44	226.24
1006.72	226.27
1007.01	226.28
1007.30	226.35
1007.59	226.34
1007.88	226.34
1008.17	226.38
1008.45	226.25
1008.74	226.09
1009.03	225.87
1009.32	225.83
1009.60	225.84
1009.89	225.78
1010.18	225.50
1010.47	225.44
1010.76	225.37
1011.04	225.34
1011.33	225.45
1011.62	225.50
1011.91	225.48
1012.19	225.57
1012.48	225.62
1012.77	225.70
1013.05	225.94
1013.34	225.89
1013.63	225.79
1013.92	225.84
1014.20	225.80
1014.49	225.84
1014.78	225.87
1015.06	225.70
1015.35	225.70
1015.64	225.81
1015.92	225.90
1016.21	226.05
1016.50	226.07
1016.78	226.14
1017.07	226.24
1017.36	226.09
1017.64	226.07
1017.93	226.15
1018.22	226.03
1018.50	226.08
1018.79	225.96
1019.08	225.67
1019.36	225.72
1019.65	225.69
1019.93	225.77
1020.22	225.82
1020.51	226.08
1020.79	226.08
1021.08	225.00
1021.36	225.95
1021.65	224.60
1021.94	224.95
1022.22	225.80
1022.51	224.00
1022.79	227.55
1023.08	225.50
1023.36	231.70
1023.65	225.75
>>>>>End Processed Spectral Data<<<<<
