SpectraSuite Data File
++++++++++++++++++++++++++++++++++++
Date: Wed Sep 04 17:46:57 EDT 2013
User: lab3
Dark Spectrum Present: Yes
Reference Spectrum Present: No
Number of Sampled Component Spectra: 1
Spectrometers: USB2E7196
Integration Time (usec): 170000 (USB2E7196)
Spectra Averaged: 20 (USB2E7196)
Boxcar Smoothing: 10 (USB2E7196)
Correct for Electrical Dark: No (USB2E7196)
Strobe/Lamp Enabled: No (USB2E7196)
Correct for Detector Non-linearity: No (USB2E7196)
Correct for Stray Light: No (USB2E7196)
Number of Pixels in Processed Spectrum: 2048
>>>>>Begin Processed Spectral Data<<<<<
339.09	0.00
339.48	213.55
339.86	214.20
340.24	214.20
340.63	216.65
341.01	226.30
341.39	220.10
341.78	222.20
342.16	224.15
342.54	223.70
342.93	212.15
343.31	222.81
343.69	223.38
344.07	223.87
344.46	224.39
344.84	224.76
345.22	224.72
345.60	224.98
345.99	225.17
346.37	225.25
346.75	225.36
347.13	225.49
347.52	225.65
347.90	225.98
348.28	225.90
348.66	226.06
349.05	225.96
349.43	226.01
349.81	226.03
350.19	226.03
350.57	226.09
350.96	226.20
351.34	226.33
351.72	226.35
352.10	226.38
352.48	226.49
352.87	226.55
353.25	226.65
353.63	226.65
354.01	226.66
354.39	226.73
354.77	226.70
355.15	226.80
355.54	226.65
355.92	226.46
356.30	226.56
356.68	226.90
357.06	227.03
357.44	227.00
357.82	227.06
358.20	227.56
358.58	227.58
358.97	227.65
359.35	227.83
359.73	227.97
360.11	228.05
360.49	228.10
360.87	228.17
361.25	228.19
361.63	228.45
362.01	228.57
362.39	228.60
362.77	228.73
363.15	228.71
363.53	228.90
363.91	229.01
364.29	229.08
364.67	228.72
365.05	228.69
365.43	228.79
365.81	228.84
366.19	228.66
366.57	228.95
366.95	228.98
367.33	228.85
367.71	228.91
368.09	229.02
368.47	229.00
368.85	229.03
369.23	229.17
369.61	228.96
369.99	229.08
370.37	229.16
370.75	229.42
371.13	229.39
371.51	229.30
371.89	229.33
372.27	229.23
372.65	229.18
373.03	229.29
373.41	229.24
373.78	229.26
374.16	229.00
374.54	228.73
374.92	228.65
375.30	228.58
375.68	228.49
376.06	228.50
376.44	228.40
376.82	228.39
377.19	228.28
377.57	228.26
377.95	227.99
378.33	227.86
378.71	227.58
379.09	227.59
379.47	227.63
379.84	227.54
380.22	227.48
380.60	227.28
380.98	227.09
381.36	226.98
381.73	226.87
382.11	226.94
382.49	226.85
382.87	226.67
383.25	226.58
383.62	227.05
384.00	226.83
384.38	226.80
384.76	226.82
385.13	226.94
385.51	226.84
385.89	226.77
386.27	226.69
386.64	226.57
387.02	226.45
387.40	226.29
387.78	226.25
388.15	226.23
388.53	226.23
388.91	226.23
389.29	226.20
389.66	226.20
390.04	226.08
390.42	226.14
390.79	226.14
391.17	226.17
391.55	225.57
391.92	225.56
392.30	225.61
392.68	225.44
393.05	225.41
393.43	225.46
393.81	225.49
394.18	225.45
394.56	225.56
394.94	225.64
395.31	225.67
395.69	225.84
396.06	225.92
396.44	225.99
396.82	225.97
397.19	226.17
397.57	226.15
397.95	226.32
398.32	226.30
398.70	226.43
399.07	226.60
399.45	226.63
399.82	226.75
400.20	226.80
400.58	226.94
400.95	226.88
401.33	227.08
401.70	227.58
402.08	227.70
402.45	227.80
402.83	228.09
403.20	228.28
403.58	228.30
403.95	228.58
404.33	228.81
404.71	229.15
405.08	229.73
405.46	229.95
405.83	230.18
406.21	230.43
406.58	230.80
406.96	231.02
407.33	231.48
407.70	231.77
408.08	232.45
408.45	232.88
408.83	233.38
409.20	233.72
409.58	233.85
409.95	234.50
410.33	235.05
410.70	235.37
411.08	235.97
411.45	236.64
411.82	237.07
412.20	237.93
412.57	238.80
412.95	239.01
413.32	239.91
413.69	240.63
414.07	241.57
414.44	242.51
414.82	243.58
415.19	244.75
415.56	245.95
415.94	246.95
416.31	248.39
416.68	249.72
417.06	251.30
417.43	252.89
417.81	254.53
418.18	256.35
418.55	258.30
418.93	260.24
419.30	262.26
419.67	264.60
420.04	266.83
420.42	269.08
420.79	272.15
421.16	274.87
421.54	278.01
421.91	280.98
422.28	284.02
422.66	287.25
423.03	290.58
423.40	293.90
423.77	297.39
424.15	300.95
424.52	304.71
424.89	308.92
425.26	312.83
425.64	316.59
426.01	320.62
426.38	324.87
426.75	329.48
427.13	334.10
427.50	338.70
427.87	343.48
428.24	348.27
428.61	352.73
428.99	358.09
429.36	363.36
429.73	368.74
430.10	374.18
430.47	379.80
430.85	385.28
431.22	391.45
431.59	398.08
431.96	404.16
432.33	410.95
432.70	417.41
433.08	425.12
433.45	432.40
433.82	439.61
434.19	447.79
434.56	455.65
434.93	463.04
435.30	470.62
435.68	478.97
436.05	487.40
436.42	495.51
436.79	502.93
437.16	511.20
437.53	519.82
437.90	528.34
438.27	536.60
438.64	545.45
439.01	553.58
439.38	560.72
439.75	567.76
440.13	575.63
440.50	582.93
440.87	588.87
441.24	595.20
441.61	602.15
441.98	607.06
442.35	612.62
442.72	618.57
443.09	624.28
443.46	627.63
443.83	629.95
444.20	631.91
444.57	634.58
444.94	635.61
445.31	636.66
445.68	638.04
446.05	638.41
446.42	637.08
446.79	635.66
447.16	634.19
447.53	632.89
447.90	629.34
448.27	625.95
448.64	621.29
449.01	617.74
449.37	611.72
449.74	605.71
450.11	599.19
450.48	591.60
450.85	583.83
451.22	577.12
451.59	570.53
451.96	564.43
452.33	556.49
452.70	549.29
453.07	540.89
453.43	531.88
453.80	523.59
454.17	515.70
454.54	508.12
454.91	499.96
455.28	492.23
455.65	484.82
456.02	478.01
456.38	471.79
456.75	464.06
457.12	457.63
457.49	451.57
457.86	445.19
458.23	440.14
458.59	434.48
458.96	428.87
459.33	423.84
459.70	418.75
460.07	414.73
460.43	410.08
460.80	405.85
461.17	402.27
461.54	398.32
461.91	394.55
462.27	390.75
462.64	387.53
463.01	383.93
463.38	380.76
463.74	376.81
464.11	373.74
464.48	371.21
464.85	368.43
465.21	366.27
465.58	364.05
465.95	361.26
466.32	359.11
466.68	356.91
467.05	354.84
467.42	352.60
467.78	350.28
468.15	348.21
468.52	346.62
468.88	344.40
469.25	342.45
469.62	341.10
469.98	339.52
470.35	337.97
470.72	336.53
471.08	334.76
471.45	333.53
471.82	332.29
472.18	330.74
472.55	329.65
472.92	328.33
473.28	327.22
473.65	326.07
474.02	325.08
474.38	324.20
474.75	323.39
475.11	322.61
475.48	322.01
475.85	321.40
476.21	320.71
476.58	320.15
476.94	319.85
477.31	319.22
477.67	318.81
478.04	318.55
478.41	318.38
478.77	318.77
479.14	318.50
479.50	318.36
479.87	318.51
480.23	318.70
480.60	318.71
480.96	318.69
481.33	319.15
481.69	319.25
482.06	319.44
482.42	319.60
482.79	319.98
483.15	320.34
483.52	320.90
483.88	321.43
484.25	322.04
484.61	322.62
484.98	323.32
485.34	324.29
485.71	325.23
486.07	326.21
486.44	326.85
486.80	327.94
487.17	329.08
487.53	330.41
487.90	331.70
488.26	333.36
488.62	335.07
488.99	336.60
489.35	338.29
489.72	340.16
490.08	342.13
490.44	344.07
490.81	346.36
491.17	348.54
491.54	350.96
491.90	353.48
492.26	356.11
492.63	359.01
492.99	361.68
493.36	364.62
493.72	367.96
494.08	371.36
494.45	375.00
494.81	378.92
495.17	382.75
495.54	386.80
495.90	390.93
496.26	395.33
496.63	399.91
496.99	404.68
497.35	409.70
497.72	414.86
498.08	420.39
498.44	425.98
498.80	432.03
499.17	438.12
499.53	444.46
499.89	451.16
500.26	457.86
500.62	464.83
500.98	472.33
501.34	479.64
501.71	487.21
502.07	495.02
502.43	503.04
502.79	511.42
503.16	520.23
503.52	529.11
503.88	538.22
504.24	547.73
504.60	557.64
504.97	567.67
505.33	578.16
505.69	589.16
506.05	600.23
506.41	611.24
506.78	622.76
507.14	634.74
507.50	646.87
507.86	659.25
508.22	672.22
508.59	684.97
508.95	698.50
509.31	712.37
509.67	726.42
510.03	740.61
510.39	755.02
510.75	769.80
511.12	784.90
511.48	800.27
511.84	815.99
512.20	831.96
512.56	848.22
512.92	864.65
513.28	881.29
513.64	898.35
514.00	915.72
514.37	933.26
514.73	951.17
515.09	969.29
515.45	987.48
515.81	1005.57
516.17	1024.23
516.53	1042.57
516.89	1061.09
517.25	1080.31
517.61	1100.38
517.97	1120.38
518.33	1140.10
518.69	1160.35
519.05	1180.76
519.41	1200.97
519.77	1221.80
520.13	1242.46
520.49	1262.89
520.85	1284.72
521.21	1305.20
521.57	1325.97
521.93	1346.15
522.29	1366.81
522.65	1387.17
523.01	1407.75
523.37	1428.12
523.73	1448.78
524.09	1469.14
524.45	1489.50
524.81	1509.87
525.17	1529.84
525.53	1550.30
525.89	1570.85
526.25	1590.94
526.61	1610.68
526.97	1631.38
527.33	1652.18
527.68	1673.32
528.04	1694.26
528.40	1713.68
528.76	1734.48
529.12	1754.77
529.48	1775.45
529.84	1794.91
530.20	1815.49
530.56	1836.00
530.91	1856.54
531.27	1876.39
531.63	1896.30
531.99	1916.60
532.35	1936.17
532.71	1955.89
533.07	1975.99
533.42	1995.57
533.78	2015.17
534.14	2035.03
534.50	2053.60
534.86	2072.03
535.21	2089.15
535.57	2106.87
535.93	2123.85
536.29	2141.12
536.65	2158.74
537.00	2175.95
537.36	2193.39
537.72	2209.74
538.08	2226.19
538.44	2242.54
538.79	2258.60
539.15	2274.81
539.51	2290.16
539.87	2304.79
540.22	2318.56
540.58	2332.31
540.94	2344.97
541.29	2356.98
541.65	2369.06
542.01	2381.53
542.37	2391.66
542.72	2402.05
543.08	2412.51
543.44	2423.59
543.79	2433.20
544.15	2442.53
544.51	2452.13
544.87	2461.30
545.22	2469.25
545.58	2477.09
545.94	2483.67
546.29	2490.28
546.65	2496.27
547.01	2501.52
547.36	2506.72
547.72	2512.13
548.07	2515.66
548.43	2520.78
548.79	2525.45
549.14	2529.12
549.50	2532.19
549.86	2535.92
550.21	2539.49
550.57	2542.69
550.92	2543.76
551.28	2545.02
551.64	2547.05
551.99	2548.33
552.35	2549.47
552.70	2551.34
553.06	2552.32
553.41	2553.28
553.77	2554.42
554.13	2555.73
554.48	2556.86
554.84	2558.09
555.19	2558.64
555.55	2560.08
555.90	2558.89
556.26	2557.67
556.61	2555.74
556.97	2553.26
557.32	2552.25
557.68	2551.08
558.03	2549.26
558.39	2548.30
558.74	2547.16
559.10	2543.75
559.45	2540.05
559.81	2535.60
560.16	2530.57
560.52	2525.70
560.87	2521.25
561.23	2515.27
561.58	2509.34
561.94	2502.70
562.29	2495.35
562.64	2488.21
563.00	2479.93
563.35	2473.48
563.71	2466.62
564.06	2460.35
564.42	2454.07
564.77	2447.14
565.12	2439.65
565.48	2431.72
565.83	2423.46
566.19	2415.45
566.54	2407.58
566.89	2399.77
567.25	2392.15
567.60	2384.88
567.96	2377.44
568.31	2369.79
568.66	2361.50
569.02	2352.30
569.37	2343.94
569.72	2336.38
570.08	2327.11
570.43	2317.77
570.78	2308.53
571.14	2299.20
571.49	2289.22
571.84	2279.59
572.20	2269.07
572.55	2258.84
572.90	2248.19
573.26	2238.05
573.61	2226.78
573.96	2215.61
574.31	2203.74
574.67	2192.10
575.02	2179.27
575.37	2166.62
575.72	2153.20
576.08	2141.39
576.43	2129.36
576.78	2116.62
577.13	2103.05
577.49	2090.72
577.84	2079.12
578.19	2067.31
578.54	2055.37
578.90	2043.83
579.25	2032.16
579.60	2019.87
579.95	2007.09
580.30	1994.23
580.66	1981.01
581.01	1967.86
581.36	1954.53
581.71	1941.89
582.06	1928.90
582.42	1916.83
582.77	1904.22
583.12	1892.70
583.47	1880.30
583.82	1868.38
584.17	1856.61
584.53	1845.18
584.88	1832.34
585.23	1819.19
585.58	1805.39
585.93	1791.84
586.28	1778.70
586.63	1764.50
586.98	1750.49
587.34	1737.72
587.69	1724.85
588.04	1712.53
588.39	1700.87
588.74	1688.97
589.09	1677.69
589.44	1665.28
589.79	1653.19
590.14	1641.55
590.49	1629.48
590.84	1617.86
591.19	1606.24
591.54	1594.22
591.89	1582.29
592.25	1572.62
592.60	1561.63
592.95	1550.41
593.30	1539.05
593.65	1527.00
594.00	1515.52
594.35	1506.21
594.70	1494.79
595.05	1483.50
595.40	1471.80
595.75	1460.13
596.10	1449.04
596.45	1437.61
596.80	1427.15
597.15	1416.15
597.50	1404.83
597.85	1393.86
598.19	1382.59
598.54	1370.86
598.89	1359.78
599.24	1349.38
599.59	1338.05
599.94	1327.34
600.29	1317.38
600.64	1307.40
600.99	1297.32
601.34	1288.14
601.69	1276.88
602.04	1267.29
602.39	1258.02
602.74	1249.16
603.08	1240.15
603.43	1231.16
603.78	1221.67
604.13	1212.38
604.48	1203.15
604.83	1193.67
605.18	1184.00
605.53	1174.94
605.87	1166.31
606.22	1158.05
606.57	1148.98
606.92	1139.78
607.27	1131.29
607.62	1122.75
607.96	1114.47
608.31	1106.62
608.66	1098.17
609.01	1090.11
609.36	1081.74
609.70	1073.49
610.05	1065.11
610.40	1056.85
610.75	1048.32
611.10	1040.23
611.44	1031.96
611.79	1023.75
612.14	1016.31
612.49	1008.78
612.83	1001.44
613.18	993.95
613.53	986.38
613.88	978.90
614.22	971.44
614.57	963.77
614.92	956.02
615.27	948.55
615.61	941.00
615.96	933.64
616.31	926.38
616.65	919.59
617.00	912.44
617.35	905.34
617.70	898.39
618.04	891.70
618.39	884.90
618.74	878.64
619.08	872.04
619.43	865.17
619.78	858.26
620.12	851.27
620.47	844.42
620.82	837.67
621.16	831.03
621.51	824.87
621.85	818.76
622.20	812.36
622.55	806.20
622.89	800.05
623.24	794.08
623.59	787.87
623.93	781.59
624.28	775.60
624.62	770.09
624.97	764.50
625.32	758.78
625.66	753.14
626.01	747.19
626.35	741.94
626.70	736.47
627.04	731.57
627.39	726.16
627.73	721.25
628.08	716.29
628.43	711.11
628.77	705.82
629.12	700.62
629.46	696.11
629.81	691.50
630.15	686.83
630.50	681.86
630.84	677.15
631.19	672.58
631.53	668.31
631.88	663.17
632.22	658.44
632.57	654.13
632.91	649.55
633.26	645.20
633.60	640.65
633.95	636.13
634.29	631.49
634.64	627.16
634.98	622.40
635.32	617.97
635.67	614.08
636.01	609.96
636.36	605.76
636.70	601.73
637.05	597.56
637.39	593.57
637.73	589.65
638.08	585.86
638.42	581.82
638.77	577.45
639.11	573.35
639.45	569.06
639.80	564.74
640.14	560.82
640.49	557.00
640.83	553.29
641.17	549.82
641.52	546.27
641.86	542.87
642.20	539.82
642.55	536.33
642.89	532.76
643.23	529.45
643.58	526.53
643.92	522.95
644.26	519.61
644.61	516.45
644.95	513.23
645.29	509.88
645.64	506.73
645.98	503.86
646.32	501.10
646.66	498.19
647.01	495.36
647.35	492.64
647.69	489.79
648.04	487.09
648.38	484.28
648.72	481.51
649.06	478.44
649.41	475.40
649.75	472.50
650.09	469.63
650.43	466.78
650.78	463.71
651.12	460.96
651.46	458.19
651.80	455.58
652.14	452.84
652.49	450.50
652.83	448.07
653.17	445.51
653.51	442.84
653.85	440.46
654.20	438.09
654.54	435.57
654.88	433.17
655.22	430.90
655.56	428.54
655.90	426.12
656.25	423.99
656.59	421.82
656.93	419.73
657.27	417.64
657.61	415.29
657.95	413.24
658.29	411.12
658.64	409.07
658.98	406.85
659.32	404.67
659.66	402.44
660.00	400.35
660.34	398.30
660.68	396.36
661.02	394.22
661.36	392.22
661.70	390.32
662.05	388.32
662.39	386.38
662.73	384.62
663.07	383.21
663.41	381.44
663.75	379.57
664.09	377.75
664.43	375.94
664.77	374.29
665.11	372.52
665.45	370.88
665.79	369.28
666.13	367.52
666.47	366.03
666.81	364.37
667.15	362.76
667.49	361.37
667.83	360.09
668.17	358.73
668.51	357.28
668.85	355.92
669.19	354.87
669.53	353.37
669.87	351.90
670.21	350.24
670.55	348.94
670.89	347.88
671.23	346.55
671.57	345.25
671.91	343.99
672.25	342.70
672.58	341.60
672.92	340.23
673.26	339.07
673.60	337.88
673.94	336.68
674.28	335.64
674.62	334.42
674.96	333.11
675.30	331.98
675.64	330.83
675.97	329.66
676.31	328.21
676.65	327.02
676.99	326.06
677.33	324.90
677.67	323.81
678.01	322.54
678.34	321.60
678.68	320.69
679.02	319.58
679.36	318.56
679.70	317.39
680.04	316.51
680.37	315.64
680.71	314.71
681.05	313.92
681.39	312.95
681.73	311.98
682.06	311.07
682.40	310.19
682.74	309.37
683.08	308.64
683.42	307.82
683.75	307.07
684.09	306.06
684.43	305.36
684.77	304.43
685.10	303.67
685.44	302.89
685.78	302.02
686.12	301.36
686.45	300.60
686.79	299.88
687.13	299.15
687.46	298.37
687.80	297.76
688.14	296.93
688.48	296.21
688.81	295.52
689.15	294.98
689.49	294.33
689.82	293.70
690.16	292.87
690.50	292.22
690.83	291.50
691.17	290.84
691.51	290.24
691.84	289.66
692.18	289.00
692.52	288.29
692.85	287.70
693.19	287.24
693.52	286.65
693.86	286.05
694.20	285.46
694.53	284.91
694.87	284.20
695.21	283.60
695.54	282.99
695.88	282.33
696.21	281.55
696.55	280.90
696.88	280.26
697.22	279.68
697.56	279.17
697.89	278.61
698.23	278.22
698.56	277.59
698.90	277.11
699.23	276.48
699.57	275.99
699.90	275.44
700.24	274.78
700.58	274.35
700.91	273.95
701.25	273.82
701.58	273.63
701.92	273.27
702.25	272.83
702.59	272.42
702.92	272.08
703.26	271.72
703.59	271.32
703.93	271.28
704.26	270.92
704.60	270.48
704.93	270.06
705.26	269.47
705.60	269.20
705.93	268.73
706.27	268.58
706.60	268.34
706.94	268.20
707.27	267.85
707.61	267.50
707.94	267.07
708.27	266.26
708.61	265.57
708.94	265.19
709.28	264.83
709.61	264.29
709.94	263.88
710.28	263.53
710.61	263.17
710.95	262.41
711.28	262.38
711.61	261.97
711.95	261.74
712.28	261.45
712.61	261.04
712.95	260.95
713.28	260.71
713.61	260.21
713.95	259.57
714.28	259.22
714.61	258.85
714.95	258.49
715.28	258.22
715.61	257.86
715.95	257.52
716.28	257.21
716.61	256.98
716.95	256.62
717.28	256.35
717.61	256.02
717.94	255.77
718.28	255.16
718.61	254.95
718.94	254.60
719.27	254.30
719.61	253.99
719.94	253.58
720.27	253.08
720.60	252.84
720.94	252.69
721.27	252.48
721.60	252.25
721.93	251.96
722.27	251.83
722.60	251.65
722.93	251.37
723.26	251.18
723.59	250.92
723.93	250.85
724.26	250.64
724.59	250.47
724.92	250.22
725.25	250.08
725.59	249.82
725.92	249.66
726.25	249.52
726.58	249.40
726.91	249.17
727.24	249.14
727.57	248.95
727.91	248.64
728.24	248.53
728.57	248.35
728.90	248.28
729.23	247.95
729.56	247.95
729.89	247.83
730.22	247.59
730.55	247.51
730.89	247.27
731.22	247.05
731.55	246.88
731.88	246.71
732.21	246.51
732.54	246.29
732.87	246.13
733.20	245.94
733.53	245.76
733.86	245.63
734.19	245.32
734.52	245.24
734.85	245.49
735.18	245.16
735.51	245.20
735.84	245.01
736.17	245.00
736.50	244.67
736.83	245.09
737.16	244.93
737.49	244.73
737.82	244.53
738.15	244.41
738.48	244.23
738.81	244.08
739.14	243.85
739.47	243.73
739.80	243.57
740.13	243.43
740.46	243.13
740.79	242.96
741.12	242.85
741.45	242.60
741.78	242.17
742.11	242.22
742.44	241.90
742.77	241.87
743.10	241.60
743.43	241.43
743.75	240.72
744.08	241.26
744.41	241.03
744.74	240.88
745.07	240.64
745.40	240.60
745.73	240.72
746.06	240.58
746.39	240.48
746.71	240.28
747.04	240.16
747.37	240.03
747.70	239.98
748.03	239.82
748.36	239.79
748.68	239.70
749.01	239.40
749.34	239.27
749.67	239.09
750.00	239.10
750.33	239.35
750.65	239.38
750.98	238.64
751.31	238.61
751.64	238.49
751.97	238.65
752.29	238.49
752.62	238.08
752.95	237.97
753.28	237.79
753.60	237.67
753.93	237.68
754.26	237.68
754.59	237.40
754.91	237.29
755.24	237.15
755.57	237.02
755.90	236.90
756.22	236.78
756.55	236.65
756.88	236.44
757.20	236.02
757.53	235.72
757.86	235.60
758.19	235.48
758.51	235.42
758.84	235.13
759.17	234.95
759.49	234.97
759.82	235.10
760.15	235.08
760.47	235.00
760.80	234.77
761.13	234.70
761.45	234.65
761.78	234.60
762.11	234.52
762.43	234.32
762.76	234.27
763.08	234.20
763.41	234.21
763.74	234.15
764.06	234.12
764.39	234.04
764.71	233.99
765.04	233.88
765.37	233.78
765.69	233.70
766.02	233.59
766.34	233.43
766.67	233.14
767.00	233.14
767.32	233.31
767.65	233.51
767.97	233.38
768.30	233.32
768.62	233.23
768.95	233.18
769.27	233.12
769.60	233.16
769.92	232.96
770.25	232.75
770.57	232.60
770.90	232.44
771.22	232.39
771.55	232.35
771.87	232.40
772.20	232.33
772.52	232.62
772.85	233.20
773.17	233.15
773.50	233.10
773.82	233.03
774.15	232.72
774.47	232.35
774.80	232.31
775.12	232.30
775.45	232.22
775.77	232.11
776.09	232.17
776.42	232.08
776.74	232.20
777.07	232.17
777.39	232.11
777.72	232.06
778.04	232.10
778.36	232.02
778.69	231.92
779.01	231.91
779.33	231.55
779.66	230.96
779.98	230.86
780.31	230.85
780.63	230.99
780.95	231.05
781.28	231.03
781.60	230.91
781.92	230.80
782.25	230.75
782.57	230.72
782.89	230.61
783.22	230.55
783.54	230.45
783.86	230.52
784.19	230.49
784.51	230.62
784.83	230.45
785.16	230.39
785.48	230.38
785.80	230.33
786.12	230.28
786.45	230.22
786.77	230.26
787.09	230.23
787.42	229.97
787.74	229.99
788.06	230.01
788.38	229.96
788.71	229.94
789.03	229.91
789.35	229.89
789.67	229.81
789.99	229.74
790.32	229.63
790.64	229.58
790.96	230.01
791.28	229.78
791.61	229.71
791.93	229.76
792.25	229.67
792.57	230.02
792.89	229.90
793.21	229.93
793.54	229.86
793.86	229.74
794.18	229.82
794.50	229.64
794.82	229.54
795.14	229.64
795.47	229.73
795.79	229.69
796.11	229.57
796.43	229.50
796.75	229.53
797.07	229.62
797.39	229.55
797.71	229.14
798.04	229.16
798.36	229.22
798.68	229.17
799.00	229.25
799.32	228.94
799.64	229.00
799.96	228.95
800.28	229.06
800.60	229.08
800.92	229.03
801.24	229.06
801.56	229.14
801.89	229.04
802.21	229.02
802.53	228.98
802.85	229.11
803.17	229.37
803.49	229.24
803.81	229.13
804.13	229.07
804.45	229.00
804.77	228.99
805.09	228.93
805.41	228.78
805.73	228.65
806.05	228.51
806.37	228.47
806.69	228.45
807.01	228.36
807.33	228.33
807.65	228.15
807.97	228.33
808.28	228.27
808.60	228.24
808.92	228.10
809.24	228.34
809.56	228.19
809.88	228.00
810.20	228.07
810.52	228.20
810.84	228.18
811.16	228.16
811.48	228.18
811.80	228.34
812.12	228.43
812.43	228.50
812.75	228.55
813.07	228.47
813.39	228.56
813.71	228.54
814.03	228.52
814.35	228.56
814.67	228.35
814.98	228.28
815.30	228.29
815.62	228.24
815.94	227.94
816.26	228.19
816.58	228.15
816.89	228.18
817.21	227.98
817.53	228.02
817.85	228.01
818.17	228.00
818.48	227.79
818.80	227.84
819.12	227.74
819.44	227.63
819.76	227.58
820.07	227.49
820.39	227.42
820.71	227.43
821.03	227.49
821.34	227.37
821.66	227.42
821.98	227.42
822.30	227.41
822.61	227.66
822.93	227.42
823.25	227.38
823.57	227.27
823.88	227.36
824.20	227.27
824.52	227.40
824.83	227.33
825.15	227.26
825.47	227.19
825.79	227.23
826.10	227.21
826.42	227.14
826.74	227.15
827.05	227.13
827.37	227.16
827.69	227.08
828.00	227.14
828.32	227.09
828.64	227.08
828.95	227.34
829.27	227.26
829.58	227.22
829.90	227.26
830.22	227.32
830.53	227.29
830.85	227.24
831.17	227.00
831.48	227.03
831.80	227.08
832.11	227.11
832.43	227.05
832.75	227.03
833.06	227.36
833.38	227.23
833.69	227.22
834.01	227.22
834.32	227.21
834.64	227.17
834.96	227.26
835.27	227.20
835.59	227.03
835.90	226.92
836.22	226.95
836.53	226.87
836.85	226.81
837.16	227.33
837.48	227.39
837.79	227.62
838.11	227.63
838.42	227.57
838.74	227.58
839.05	227.58
839.37	227.62
839.68	227.34
840.00	227.36
840.31	227.42
840.63	227.40
840.94	227.35
841.26	227.32
841.57	227.27
841.88	227.28
842.20	227.20
842.51	227.12
842.83	227.15
843.14	227.59
843.46	227.60
843.77	227.24
844.08	227.23
844.40	227.06
844.71	226.96
845.03	226.97
845.34	226.88
845.65	226.85
845.97	226.79
846.28	226.90
846.60	226.95
846.91	226.87
847.22	226.87
847.54	227.02
847.85	227.07
848.16	227.05
848.48	226.99
848.79	227.18
849.10	227.34
849.42	227.29
849.73	226.81
850.04	226.80
850.36	226.66
850.67	226.74
850.98	226.79
851.30	226.90
851.61	226.91
851.92	226.99
852.23	227.08
852.55	227.17
852.86	227.15
853.17	227.18
853.49	227.31
853.80	227.37
854.11	227.32
854.42	227.40
854.74	227.30
855.05	227.33
855.36	227.09
855.67	226.96
855.99	227.03
856.30	227.61
856.61	227.64
856.92	227.59
857.23	227.56
857.55	227.49
857.86	227.40
858.17	227.40
858.48	227.26
858.79	227.25
859.11	227.29
859.42	227.30
859.73	227.18
860.04	227.12
860.35	226.95
860.66	226.83
860.98	226.84
861.29	226.89
861.60	226.90
861.91	227.03
862.22	227.03
862.53	226.92
862.84	226.37
863.16	226.40
863.47	226.40
863.78	226.40
864.09	226.41
864.40	226.48
864.71	226.52
865.02	226.61
865.33	226.49
865.64	226.33
865.95	226.24
866.27	226.54
866.58	226.52
866.89	226.60
867.20	226.56
867.51	226.47
867.82	226.43
868.13	226.52
868.44	226.44
868.75	226.54
869.06	226.57
869.37	226.63
869.68	226.51
869.99	226.59
870.30	226.48
870.61	226.58
870.92	226.48
871.23	226.45
871.54	226.49
871.85	226.64
872.16	226.72
872.47	226.68
872.78	226.41
873.09	226.44
873.40	226.31
873.71	226.33
874.02	226.29
874.33	226.29
874.64	226.14
874.95	226.19
875.26	226.03
875.56	226.01
875.87	225.99
876.18	226.02
876.49	226.44
876.80	226.47
877.11	226.34
877.42	226.42
877.73	226.43
878.04	226.39
878.35	226.37
878.66	226.44
878.96	226.44
879.27	226.41
879.58	226.39
879.89	226.45
880.20	226.60
880.51	226.65
880.82	226.60
881.12	226.70
881.43	226.64
881.74	226.62
882.05	226.60
882.36	226.60
882.67	226.57
882.97	226.05
883.28	226.03
883.59	226.05
883.90	226.07
884.21	226.10
884.51	226.08
884.82	225.99
885.13	225.95
885.44	225.98
885.74	225.98
886.05	225.94
886.36	225.90
886.67	225.78
886.98	226.01
887.28	226.16
887.59	226.09
887.90	226.11
888.20	226.05
888.51	226.20
888.82	226.15
889.13	226.24
889.43	226.68
889.74	226.62
890.05	226.66
890.35	226.61
890.66	226.49
890.97	226.46
891.28	226.38
891.58	226.41
891.89	226.39
892.20	226.41
892.50	226.33
892.81	226.44
893.12	226.39
893.42	226.19
893.73	226.13
894.04	226.20
894.34	226.25
894.65	226.34
894.95	226.21
895.26	226.25
895.57	226.47
895.87	226.04
896.18	226.22
896.48	226.17
896.79	226.16
897.10	226.30
897.40	226.32
897.71	226.44
898.01	226.45
898.32	226.47
898.63	226.45
898.93	226.56
899.24	226.48
899.54	226.50
899.85	226.44
900.15	226.45
900.46	226.42
900.76	226.47
901.07	226.38
901.38	226.42
901.68	226.50
901.99	226.22
902.29	226.26
902.60	226.14
902.90	226.12
903.21	226.10
903.51	225.99
903.82	226.05
904.12	226.00
904.43	226.00
904.73	226.02
905.03	226.10
905.34	226.46
905.64	226.47
905.95	226.53
906.25	226.55
906.56	226.52
906.86	226.53
907.17	226.42
907.47	226.46
907.77	226.33
908.08	226.21
908.38	226.26
908.69	226.29
908.99	226.40
909.30	226.35
909.60	226.37
909.90	226.42
910.21	226.29
910.51	226.30
910.81	226.26
911.12	226.25
911.42	226.20
911.73	225.75
912.03	225.74
912.33	225.82
912.64	225.76
912.94	225.67
913.24	225.66
913.55	225.68
913.85	225.59
914.15	225.78
914.46	225.79
914.76	225.69
915.06	225.70
915.37	225.59
915.67	225.65
915.97	225.65
916.27	225.59
916.58	225.68
916.88	225.71
917.18	225.66
917.49	225.99
917.79	226.02
918.09	226.09
918.39	226.27
918.70	226.16
919.00	226.16
919.30	226.42
919.60	226.32
919.91	226.21
920.21	226.36
920.51	226.20
920.81	226.20
921.12	226.28
921.42	226.21
921.72	226.31
922.02	226.35
922.32	226.38
922.63	226.38
922.93	226.58
923.23	226.55
923.53	226.56
923.83	226.24
924.13	226.20
924.44	226.24
924.74	226.24
925.04	226.36
925.34	226.33
925.64	226.09
925.94	226.13
926.24	226.46
926.55	226.34
926.85	226.45
927.15	226.47
927.45	226.42
927.75	226.41
928.05	226.35
928.35	226.27
928.65	226.40
928.95	226.46
929.26	226.25
929.56	226.35
929.86	226.42
930.16	226.36
930.46	226.27
930.76	226.20
931.06	225.99
931.36	225.88
931.66	225.99
931.96	226.13
932.26	226.12
932.56	225.89
932.86	225.99
933.16	225.91
933.46	225.82
933.76	225.75
934.06	225.86
934.36	226.13
934.66	226.10
934.96	225.97
935.26	225.90
935.56	225.96
935.86	225.80
936.16	225.70
936.46	225.73
936.76	225.82
937.06	225.77
937.36	225.83
937.66	225.90
937.96	225.86
938.26	225.74
938.56	225.73
938.86	225.78
939.16	225.79
939.46	225.96
939.76	226.05
940.06	226.09
940.35	226.00
940.65	225.64
940.95	225.77
941.25	225.70
941.55	225.71
941.85	225.68
942.15	225.79
942.45	225.89
942.75	225.85
943.04	225.80
943.34	225.90
943.64	225.87
943.94	225.75
944.24	225.74
944.54	225.72
944.84	225.71
945.13	225.59
945.43	225.54
945.73	225.41
946.03	225.37
946.33	225.32
946.62	225.35
946.92	225.40
947.22	225.42
947.52	225.48
947.82	225.53
948.11	225.50
948.41	225.38
948.71	225.26
949.01	225.32
949.31	225.29
949.60	225.24
949.90	225.31
950.20	225.27
950.50	225.32
950.79	225.32
951.09	225.35
951.39	225.42
951.69	225.42
951.98	225.53
952.28	225.56
952.58	225.59
952.87	225.53
953.17	225.55
953.47	225.40
953.76	225.40
954.06	225.34
954.36	225.31
954.66	225.36
954.95	225.48
955.25	225.55
955.55	225.59
955.84	225.53
956.14	225.57
956.44	225.61
956.73	225.49
957.03	225.55
957.32	225.60
957.62	225.53
957.92	225.74
958.21	225.66
958.51	226.19
958.81	226.25
959.10	226.27
959.40	226.37
959.69	226.52
959.99	226.57
960.29	226.54
960.58	226.47
960.88	226.69
961.17	226.69
961.47	226.70
961.76	226.74
962.06	226.88
962.36	226.80
962.65	226.87
962.95	226.92
963.24	226.78
963.54	226.83
963.83	226.83
964.13	226.64
964.42	226.55
964.72	226.17
965.01	226.16
965.31	226.14
965.60	226.07
965.90	226.28
966.19	226.10
966.49	226.16
966.78	226.14
967.08	226.00
967.37	225.97
967.67	225.86
967.96	225.90
968.26	225.90
968.55	225.97
968.85	225.92
969.14	225.90
969.43	225.95
969.73	225.84
970.02	225.84
970.32	225.84
970.61	225.82
970.91	225.67
971.20	225.55
971.49	225.56
971.79	225.58
972.08	225.22
972.38	225.27
972.67	225.20
972.96	225.37
973.26	225.33
973.55	225.47
973.85	225.46
974.14	225.34
974.43	225.32
974.73	225.23
975.02	225.19
975.31	225.24
975.61	225.24
975.90	225.29
976.19	225.28
976.49	225.27
976.78	225.30
977.07	225.28
977.37	225.35
977.66	225.31
977.95	225.23
978.24	225.30
978.54	225.39
978.83	225.37
979.12	225.27
979.42	225.20
979.71	225.06
980.00	225.06
980.29	225.15
980.59	225.08
980.88	225.17
981.17	225.15
981.46	225.05
981.76	225.11
982.05	225.16
982.34	225.15
982.63	225.20
982.93	225.22
983.22	225.42
983.51	225.50
983.80	225.57
984.09	225.67
984.39	225.64
984.68	225.66
984.97	225.76
985.26	225.80
985.55	225.88
985.85	225.84
986.14	225.85
986.43	225.85
986.72	225.79
987.01	225.60
987.30	225.62
987.59	225.69
987.89	225.64
988.18	225.53
988.47	225.53
988.76	225.53
989.05	225.55
989.34	225.43
989.63	225.49
989.92	225.44
990.22	225.38
990.51	225.41
990.80	225.35
991.09	225.36
991.38	225.36
991.67	225.32
991.96	225.28
992.25	225.34
992.54	225.30
992.83	225.37
993.12	225.38
993.41	225.51
993.70	225.69
993.99	225.74
994.28	225.85
994.58	225.93
994.87	225.85
995.16	225.82
995.45	225.67
995.74	225.56
996.03	225.59
996.32	225.61
996.61	225.69
996.90	225.69
997.19	225.63
997.48	225.65
997.77	225.62
998.06	225.66
998.34	225.59
998.63	225.59
998.92	225.62
999.21	225.76
999.50	225.66
999.79	225.46
1000.08	225.53
1000.37	225.49
1000.66	225.43
1000.95	225.45
1001.24	225.45
1001.53	225.60
1001.82	225.49
1002.11	225.40
1002.40	225.47
1002.68	225.55
1002.97	225.83
1003.26	225.78
1003.55	225.63
1003.84	225.72
1004.13	225.91
1004.42	225.87
1004.71	225.85
1004.99	225.79
1005.28	225.88
1005.57	225.89
1005.86	225.91
1006.15	225.82
1006.44	225.72
1006.72	225.74
1007.01	225.73
1007.30	225.75
1007.59	225.65
1007.88	225.70
1008.17	225.74
1008.45	225.70
1008.74	225.56
1009.03	225.43
1009.32	225.36
1009.60	225.46
1009.89	225.40
1010.18	225.14
1010.47	225.14
1010.76	225.15
1011.04	225.15
1011.33	225.17
1011.62	225.20
1011.91	225.20
1012.19	225.22
1012.48	225.22
1012.77	225.23
1013.05	225.44
1013.34	225.47
1013.63	225.45
1013.92	225.56
1014.20	225.56
1014.49	225.55
1014.78	225.52
1015.06	225.29
1015.35	225.34
1015.64	225.37
1015.92	225.44
1016.21	225.48
1016.50	225.44
1016.78	225.53
1017.07	225.55
1017.36	225.48
1017.64	225.38
1017.93	225.42
1018.22	225.36
1018.50	225.41
1018.79	225.36
1019.08	225.13
1019.36	225.13
1019.65	225.14
1019.93	225.22
1020.22	225.22
1020.51	225.42
1020.79	225.32
1021.08	224.45
1021.36	224.60
1021.65	224.25
1021.94	225.20
1022.22	225.65
1022.51	224.60
1022.79	227.90
1023.08	224.95
1023.36	230.55
1023.65	222.65
>>>>>End Processed Spectral Data<<<<<
