SpectraSuite Data File
++++++++++++++++++++++++++++++++++++
Date: Wed Sep 04 17:58:19 EDT 2013
User: lab3
Dark Spectrum Present: Yes
Reference Spectrum Present: No
Number of Sampled Component Spectra: 1
Spectrometers: USB2E7196
Integration Time (usec): 170000 (USB2E7196)
Spectra Averaged: 20 (USB2E7196)
Boxcar Smoothing: 10 (USB2E7196)
Correct for Electrical Dark: No (USB2E7196)
Strobe/Lamp Enabled: No (USB2E7196)
Correct for Detector Non-linearity: No (USB2E7196)
Correct for Stray Light: No (USB2E7196)
Number of Pixels in Processed Spectrum: 2048
>>>>>Begin Processed Spectral Data<<<<<
339.09	0.00
339.48	214.35
339.86	213.80
340.24	215.50
340.63	218.05
341.01	225.50
341.39	220.15
341.78	221.90
342.16	223.35
342.54	223.05
342.93	212.35
343.31	223.04
343.69	223.50
344.07	224.05
344.46	224.63
344.84	225.03
345.22	225.03
345.60	225.37
345.99	225.57
346.37	225.70
346.75	225.83
347.13	225.92
347.52	226.03
347.90	226.23
348.28	226.29
348.66	226.37
349.05	226.20
349.43	226.24
349.81	226.31
350.19	226.39
350.57	226.38
350.96	226.41
351.34	226.47
351.72	226.57
352.10	226.66
352.48	226.63
352.87	226.67
353.25	226.71
353.63	226.65
354.01	226.74
354.39	226.83
354.77	226.93
355.15	227.09
355.54	227.02
355.92	226.90
356.30	226.99
356.68	227.33
357.06	227.42
357.44	227.43
357.82	227.45
358.20	227.90
358.58	227.97
358.97	228.10
359.35	228.30
359.73	228.44
360.11	228.51
360.49	228.51
360.87	228.58
361.25	228.71
361.63	229.04
362.01	229.03
362.39	229.02
362.77	229.08
363.15	229.11
363.53	229.20
363.91	229.31
364.29	229.39
364.67	229.06
365.05	229.14
365.43	229.25
365.81	229.33
366.19	229.13
366.57	229.41
366.95	229.42
367.33	229.30
367.71	229.41
368.09	229.53
368.47	229.59
368.85	229.58
369.23	229.71
369.61	229.50
369.99	229.69
370.37	229.81
370.75	230.03
371.13	229.95
371.51	229.82
371.89	229.83
372.27	229.81
372.65	229.79
373.03	229.79
373.41	229.75
373.78	229.66
374.16	229.45
374.54	229.27
374.92	229.19
375.30	229.20
375.68	229.01
376.06	228.97
376.44	228.90
376.82	228.85
377.19	228.74
377.57	228.64
377.95	228.42
378.33	228.27
378.71	227.90
379.09	227.91
379.47	227.97
379.84	227.86
380.22	227.71
380.60	227.51
380.98	227.36
381.36	227.31
381.73	227.18
382.11	227.20
382.49	227.10
382.87	227.02
383.25	226.90
383.62	227.44
384.00	227.22
384.38	227.18
384.76	227.31
385.13	227.37
385.51	227.33
385.89	227.26
386.27	227.16
386.64	227.27
387.02	227.14
387.40	227.03
387.78	227.02
388.15	226.99
388.53	226.96
388.91	227.05
389.29	226.92
389.66	226.98
390.04	226.84
390.42	226.88
390.79	226.82
391.17	226.87
391.55	226.27
391.92	226.23
392.30	226.30
392.68	226.10
393.05	226.09
393.43	226.10
393.81	226.13
394.18	226.14
394.56	226.07
394.94	226.21
395.31	226.25
395.69	226.39
396.06	226.48
396.44	226.57
396.82	226.51
397.19	226.85
397.57	226.94
397.95	227.06
398.32	227.01
398.70	227.19
399.07	227.37
399.45	227.41
399.82	227.58
400.20	227.60
400.58	227.69
400.95	227.59
401.33	227.75
401.70	228.20
402.08	228.32
402.45	228.41
402.83	228.64
403.20	228.80
403.58	228.83
403.95	229.08
404.33	229.31
404.71	229.54
405.08	229.95
405.46	230.12
405.83	230.41
406.21	230.70
406.58	231.00
406.96	231.21
407.33	231.52
407.70	231.92
408.08	232.64
408.45	233.08
408.83	233.59
409.20	233.96
409.58	234.12
409.95	234.70
410.33	235.22
410.70	235.60
411.08	236.28
411.45	236.89
411.82	237.45
412.20	238.23
412.57	239.26
412.95	239.72
413.32	240.62
413.69	241.48
414.07	242.40
414.44	243.33
414.82	244.40
415.19	245.59
415.56	246.79
415.94	247.76
416.31	249.20
416.68	250.61
417.06	252.22
417.43	253.87
417.81	255.60
418.18	257.46
418.55	259.46
418.93	261.43
419.30	263.63
419.67	265.88
420.04	268.10
420.42	270.30
420.79	273.31
421.16	276.09
421.54	279.14
421.91	282.15
422.28	285.24
422.66	288.49
423.03	292.00
423.40	295.33
423.77	299.01
424.15	302.68
424.52	306.59
424.89	310.86
425.26	314.83
425.64	318.67
426.01	322.91
426.38	327.32
426.75	331.86
427.13	336.43
427.50	341.23
427.87	346.29
428.24	351.44
428.61	355.88
428.99	361.28
429.36	366.86
429.73	372.41
430.10	378.00
430.47	383.88
430.85	389.49
431.22	395.75
431.59	402.60
431.96	408.78
432.33	415.75
432.70	422.55
433.08	430.50
433.45	438.04
433.82	445.47
434.19	453.70
434.56	461.85
434.93	469.56
435.30	477.32
435.68	485.82
436.05	494.14
436.42	502.65
436.79	510.32
437.16	518.68
437.53	527.59
437.90	536.22
438.27	544.72
438.64	553.75
439.01	562.06
439.38	569.24
439.75	576.47
440.13	584.51
440.50	591.85
440.87	597.93
441.24	604.29
441.61	611.30
441.98	616.40
442.35	622.23
442.72	628.22
443.09	634.01
443.46	637.43
443.83	639.71
444.20	641.60
444.57	644.26
444.94	645.28
445.31	646.28
445.68	647.76
446.05	647.80
446.42	646.53
446.79	645.14
447.16	643.40
447.53	642.10
447.90	638.24
448.27	634.65
448.64	629.70
449.01	625.94
449.37	619.65
449.74	613.49
450.11	606.65
450.48	598.88
450.85	590.79
451.22	583.93
451.59	577.40
451.96	571.11
452.33	562.96
452.70	555.55
453.07	546.87
453.43	537.76
453.80	529.35
454.17	521.20
454.54	513.27
454.91	505.08
455.28	497.01
455.65	489.58
456.02	482.67
456.38	476.23
456.75	468.40
457.12	461.84
457.49	455.59
457.86	449.16
458.23	443.90
458.59	438.20
458.96	432.45
459.33	427.27
459.70	422.08
460.07	417.93
460.43	413.20
460.80	408.93
461.17	405.12
461.54	401.12
461.91	397.18
462.27	393.40
462.64	390.09
463.01	386.50
463.38	383.19
463.74	379.21
464.11	376.28
464.48	373.67
464.85	370.79
465.21	368.69
465.58	366.35
465.95	363.61
466.32	361.38
466.68	359.07
467.05	356.82
467.42	354.62
467.78	352.36
468.15	350.25
468.52	348.58
468.88	346.25
469.25	344.38
469.62	343.05
469.98	341.35
470.35	339.79
470.72	338.37
471.08	336.72
471.45	335.46
471.82	334.24
472.18	332.85
472.55	331.89
472.92	330.49
473.28	329.36
473.65	328.27
474.02	327.19
474.38	326.42
474.75	325.70
475.11	324.87
475.48	324.28
475.85	323.63
476.21	323.00
476.58	322.61
476.94	322.21
477.31	321.71
477.67	321.30
478.04	321.03
478.41	320.82
478.77	321.08
479.14	320.75
479.50	320.61
479.87	320.60
480.23	320.61
480.60	320.50
480.96	320.53
481.33	320.87
481.69	321.22
482.06	321.46
482.42	321.70
482.79	322.02
483.15	322.48
483.52	323.15
483.88	323.54
484.25	324.05
484.61	324.73
484.98	325.36
485.34	326.37
485.71	327.36
486.07	328.25
486.44	328.79
486.80	329.92
487.17	331.01
487.53	332.38
487.90	333.83
488.26	335.55
488.62	337.25
488.99	338.80
489.35	340.50
489.72	342.31
490.08	344.26
490.44	346.37
490.81	348.48
491.17	350.66
491.54	353.22
491.90	355.89
492.26	358.50
492.63	361.44
492.99	364.29
493.36	367.30
493.72	370.63
494.08	374.04
494.45	377.66
494.81	381.55
495.17	385.48
495.54	389.57
495.90	393.82
496.26	398.28
496.63	403.02
496.99	407.75
497.35	412.74
497.72	418.17
498.08	423.56
498.44	429.28
498.80	435.27
499.17	441.36
499.53	447.50
499.89	454.22
500.26	461.02
500.62	467.97
500.98	475.34
501.34	482.78
501.71	490.63
502.07	498.56
502.43	506.75
502.79	515.07
503.16	523.82
503.52	532.83
503.88	542.05
504.24	551.69
504.60	561.83
504.97	572.30
505.33	582.57
505.69	593.65
506.05	604.76
506.41	616.00
506.78	627.89
507.14	640.13
507.50	652.45
507.86	664.98
508.22	677.96
508.59	691.10
508.95	704.93
509.31	719.15
509.67	733.45
510.03	747.68
510.39	762.49
510.75	777.48
511.12	792.79
511.48	808.45
511.84	824.28
512.20	840.26
512.56	856.41
512.92	873.28
513.28	890.17
513.64	907.61
514.00	925.21
514.37	942.71
514.73	960.83
515.09	979.16
515.45	997.83
515.81	1016.35
516.17	1035.29
516.53	1053.93
516.89	1072.41
517.25	1091.85
517.61	1112.30
517.97	1132.66
518.33	1152.85
518.69	1173.07
519.05	1193.80
519.41	1214.33
519.77	1235.51
520.13	1256.76
520.49	1277.55
520.85	1299.95
521.21	1320.89
521.57	1342.18
521.93	1363.00
522.29	1384.25
522.65	1404.98
523.01	1425.84
523.37	1446.76
523.73	1467.64
524.09	1488.37
524.45	1509.43
524.81	1530.42
525.17	1551.04
525.53	1571.70
525.89	1592.58
526.25	1613.59
526.61	1633.90
526.97	1655.09
527.33	1676.46
527.68	1698.01
528.04	1719.14
528.40	1738.85
528.76	1760.12
529.12	1780.74
529.48	1801.92
529.84	1822.11
530.20	1843.32
530.56	1864.04
530.91	1885.17
531.27	1905.88
531.63	1926.47
531.99	1947.61
532.35	1967.66
532.71	1987.52
533.07	2008.14
533.42	2028.37
533.78	2048.21
534.14	2068.06
534.50	2087.55
534.86	2106.68
535.21	2124.45
535.57	2143.47
535.93	2161.38
536.29	2178.92
536.65	2197.25
537.00	2214.95
537.36	2232.76
537.72	2249.41
538.08	2266.98
538.44	2283.58
538.79	2300.00
539.15	2316.77
539.51	2331.77
539.87	2346.90
540.22	2361.33
540.58	2375.62
540.94	2388.94
541.29	2401.89
541.65	2414.59
542.01	2427.00
542.37	2437.26
542.72	2448.34
543.08	2458.70
543.44	2470.43
543.79	2481.03
544.15	2491.09
544.51	2501.23
544.87	2510.88
545.22	2519.62
545.58	2527.11
545.94	2534.05
546.29	2540.71
546.65	2546.89
547.01	2553.04
547.36	2559.05
547.72	2565.00
548.07	2569.03
548.43	2574.35
548.79	2579.15
549.14	2583.29
549.50	2587.04
549.86	2591.61
550.21	2595.38
550.57	2598.50
550.92	2599.94
551.28	2601.20
551.64	2603.46
551.99	2605.30
552.35	2606.92
552.70	2608.78
553.06	2610.49
553.41	2612.17
553.77	2614.06
554.13	2615.98
554.48	2617.64
554.84	2618.82
555.19	2619.92
555.55	2622.10
555.90	2621.54
556.26	2620.53
556.61	2619.37
556.97	2617.39
557.32	2616.52
557.68	2615.32
558.03	2614.10
558.39	2612.67
558.74	2611.72
559.10	2608.03
559.45	2604.52
559.81	2599.92
560.16	2595.12
560.52	2590.63
560.87	2586.35
561.23	2580.71
561.58	2574.75
561.94	2567.72
562.29	2560.35
562.64	2553.38
563.00	2544.53
563.35	2537.97
563.71	2531.35
564.06	2525.10
564.42	2518.63
564.77	2511.99
565.12	2504.55
565.48	2497.00
565.83	2489.44
566.19	2481.62
566.54	2474.16
566.89	2466.08
567.25	2458.44
567.60	2451.52
567.96	2443.82
568.31	2435.57
568.66	2427.09
569.02	2417.83
569.37	2409.64
569.72	2402.20
570.08	2392.45
570.43	2383.25
570.78	2373.75
571.14	2364.32
571.49	2353.95
571.84	2343.74
572.20	2332.54
572.55	2322.13
572.90	2311.28
573.26	2300.64
573.61	2289.25
573.96	2277.90
574.31	2266.10
574.67	2254.25
575.02	2240.97
575.37	2228.04
575.72	2214.93
576.08	2202.79
576.43	2190.40
576.78	2177.31
577.13	2163.48
577.49	2150.91
577.84	2138.86
578.19	2126.89
578.54	2114.18
578.90	2102.12
579.25	2090.20
579.60	2077.53
579.95	2064.62
580.30	2051.52
580.66	2038.15
581.01	2024.70
581.36	2010.77
581.71	1997.74
582.06	1984.50
582.42	1972.07
582.77	1959.67
583.12	1947.56
583.47	1935.17
583.82	1922.87
584.17	1910.96
584.53	1899.34
584.88	1886.60
585.23	1873.50
585.58	1859.18
585.93	1846.15
586.28	1832.62
586.63	1818.57
586.98	1804.52
587.34	1791.35
587.69	1777.94
588.04	1765.09
588.39	1752.99
588.74	1740.97
589.09	1728.77
589.44	1716.17
589.79	1704.10
590.14	1691.89
590.49	1679.47
590.84	1667.25
591.19	1655.24
591.54	1642.95
591.89	1630.35
592.25	1619.65
592.60	1608.19
592.95	1596.91
593.30	1584.96
593.65	1573.09
594.00	1561.13
594.35	1551.35
594.70	1539.30
595.05	1527.93
595.40	1515.78
595.75	1503.59
596.10	1492.32
596.45	1480.74
596.80	1469.86
597.15	1458.37
597.50	1446.55
597.85	1435.23
598.19	1423.55
598.54	1411.99
598.89	1400.60
599.24	1390.05
599.59	1378.54
599.94	1367.68
600.29	1357.07
600.64	1346.59
600.99	1335.95
601.34	1326.24
601.69	1314.86
602.04	1304.93
602.39	1295.00
602.74	1285.83
603.08	1276.60
603.43	1266.95
603.78	1257.46
604.13	1247.62
604.48	1237.90
604.83	1227.97
605.18	1218.45
605.53	1208.78
605.87	1199.58
606.22	1190.92
606.57	1181.41
606.92	1172.00
607.27	1162.77
607.62	1154.10
607.96	1145.40
608.31	1137.30
608.66	1128.82
609.01	1120.14
609.36	1111.73
609.70	1103.17
610.05	1094.50
610.40	1085.84
610.75	1077.29
611.10	1068.65
611.44	1060.24
611.79	1051.78
612.14	1043.88
612.49	1035.77
612.83	1028.34
613.18	1020.31
613.53	1012.54
613.88	1004.63
614.22	996.90
614.57	989.06
614.92	980.95
615.27	973.36
615.61	965.56
615.96	957.92
616.31	950.50
616.65	943.51
617.00	936.18
617.35	928.82
617.70	921.53
618.04	914.31
618.39	907.38
618.74	900.86
619.08	894.16
619.43	887.26
619.78	880.09
620.12	872.87
620.47	865.99
620.82	858.74
621.16	852.00
621.51	845.42
621.85	839.00
622.20	832.41
622.55	825.79
622.89	819.22
623.24	812.73
623.59	806.26
623.93	799.85
624.28	793.60
624.62	788.00
624.97	782.16
625.32	776.37
625.66	770.45
626.01	764.23
626.35	758.60
626.70	753.07
627.04	747.81
627.39	742.32
627.73	737.04
628.08	731.86
628.43	726.37
628.77	721.13
629.12	715.96
629.46	711.18
629.81	706.30
630.15	701.49
630.50	696.62
630.84	691.86
631.19	686.96
631.53	682.49
631.88	677.13
632.22	672.33
632.57	667.81
632.91	663.07
633.26	658.57
633.60	653.80
633.95	648.97
634.29	644.19
634.64	639.53
634.98	634.75
635.32	630.47
635.67	626.41
636.01	622.11
636.36	617.72
636.70	613.64
637.05	609.56
637.39	605.44
637.73	601.30
638.08	597.25
638.42	592.96
638.77	588.60
639.11	584.31
639.45	579.90
639.80	575.31
640.14	571.28
640.49	567.24
640.83	563.61
641.17	560.04
641.52	556.25
641.86	552.76
642.20	549.49
642.55	545.72
642.89	542.17
643.23	538.68
643.58	535.54
643.92	531.72
644.26	528.29
644.61	524.95
644.95	521.69
645.29	518.25
645.64	515.11
645.98	511.93
646.32	509.08
646.66	506.10
647.01	503.20
647.35	500.33
647.69	497.45
648.04	494.40
648.38	491.51
648.72	488.68
649.06	485.72
649.41	482.56
649.75	479.50
650.09	476.48
650.43	473.68
650.78	470.57
651.12	467.88
651.46	464.89
651.80	462.24
652.14	459.44
652.49	456.98
652.83	454.36
653.17	451.86
653.51	449.14
653.85	446.75
654.20	444.34
654.54	441.78
654.88	439.25
655.22	437.06
655.56	434.55
655.90	432.24
656.25	429.95
656.59	427.84
656.93	425.69
657.27	423.69
657.61	421.19
657.95	418.99
658.29	416.80
658.64	414.75
658.98	412.47
659.32	410.22
659.66	408.04
660.00	405.96
660.34	403.77
660.68	401.73
661.02	399.59
661.36	397.58
661.70	395.52
662.05	393.55
662.39	391.56
662.73	389.84
663.07	388.16
663.41	386.26
663.75	384.38
664.09	382.64
664.43	380.69
664.77	379.11
665.11	377.32
665.45	375.74
665.79	374.09
666.13	372.44
666.47	370.81
666.81	369.12
667.15	367.39
667.49	365.83
667.83	364.49
668.17	362.95
668.51	361.45
668.85	360.16
669.19	359.03
669.53	357.49
669.87	355.86
670.21	354.28
670.55	352.99
670.89	351.86
671.23	350.47
671.57	349.05
671.91	347.65
672.25	346.43
672.58	345.06
672.92	343.59
673.26	342.24
673.60	340.98
673.94	339.88
674.28	338.67
674.62	337.63
674.96	336.31
675.30	335.15
675.64	334.00
675.97	332.70
676.31	331.39
676.65	330.17
676.99	329.20
677.33	328.09
677.67	326.94
678.01	325.61
678.34	324.40
678.68	323.47
679.02	322.30
679.36	321.28
679.70	320.28
680.04	319.37
680.37	318.35
680.71	317.32
681.05	316.29
681.39	315.37
681.73	314.34
682.06	313.37
682.40	312.49
682.74	311.64
683.08	310.91
683.42	309.90
683.75	309.08
684.09	308.10
684.43	307.27
684.77	306.36
685.10	305.55
685.44	304.86
685.78	303.95
686.12	303.25
686.45	302.35
686.79	301.51
687.13	300.86
687.46	300.20
687.80	299.63
688.14	298.85
688.48	298.20
688.81	297.41
689.15	296.77
689.49	296.05
689.82	295.33
690.16	294.50
690.50	293.73
690.83	292.96
691.17	292.30
691.51	291.60
691.84	290.96
692.18	290.19
692.52	289.46
692.85	288.87
693.19	288.42
693.52	287.86
693.86	287.15
694.20	286.50
694.53	285.93
694.87	285.30
695.21	284.63
695.54	283.97
695.88	283.30
696.21	282.59
696.55	281.96
696.88	281.29
697.22	280.59
697.56	280.14
697.89	279.56
698.23	279.05
698.56	278.55
698.90	278.09
699.23	277.55
699.57	277.08
699.90	276.48
700.24	275.86
700.58	275.41
700.91	275.10
701.25	274.91
701.58	274.70
701.92	274.31
702.25	273.93
702.59	273.48
702.92	273.10
703.26	272.69
703.59	272.32
703.93	272.42
704.26	272.13
704.60	271.74
704.93	271.36
705.26	270.92
705.60	270.44
705.93	269.96
706.27	269.76
706.60	269.43
706.94	269.29
707.27	268.85
707.61	268.49
707.94	267.97
708.27	267.30
708.61	266.58
708.94	266.13
709.28	265.77
709.61	265.37
709.94	265.07
710.28	264.69
710.61	264.31
710.95	263.38
711.28	263.31
711.61	262.98
711.95	262.70
712.28	262.24
712.61	261.95
712.95	261.84
713.28	261.62
713.61	261.23
713.95	260.77
714.28	260.46
714.61	260.08
714.95	259.81
715.28	259.40
715.61	259.02
715.95	258.72
716.28	258.31
716.61	258.05
716.95	257.66
717.28	257.39
717.61	257.09
717.94	256.80
718.28	256.14
718.61	255.83
718.94	255.54
719.27	255.27
719.61	255.05
719.94	254.56
720.27	254.03
720.60	253.77
720.94	253.43
721.27	253.15
721.60	252.99
721.93	252.63
722.27	252.64
722.60	252.46
722.93	252.25
723.26	252.10
723.59	251.82
723.93	251.65
724.26	251.39
724.59	251.16
724.92	251.06
725.25	251.00
725.59	250.68
725.92	250.41
726.25	250.26
726.58	250.03
726.91	249.87
727.24	249.81
727.57	249.55
727.91	249.31
728.24	249.19
728.57	248.92
728.90	248.85
729.23	248.45
729.56	248.54
729.89	248.27
730.22	247.98
730.55	247.83
730.89	247.67
731.22	247.53
731.55	247.31
731.88	247.14
732.21	246.82
732.54	246.68
732.87	246.59
733.20	246.41
733.53	246.25
733.86	246.11
734.19	245.88
734.52	245.82
734.85	245.94
735.18	245.71
735.51	245.71
735.84	245.52
736.17	245.43
736.50	245.00
736.83	245.38
737.16	245.33
737.49	245.21
737.82	245.02
738.15	244.89
738.48	244.75
738.81	244.59
739.14	244.45
739.47	244.24
739.80	244.14
740.13	244.08
740.46	243.87
740.79	243.66
741.12	243.40
741.45	243.18
741.78	242.80
742.11	242.81
742.44	242.53
742.77	242.49
743.10	242.36
743.43	242.21
743.75	241.62
744.08	242.01
744.41	241.78
744.74	241.63
745.07	241.47
745.40	241.45
745.73	241.42
746.06	241.32
746.39	241.32
746.71	241.07
747.04	240.93
747.37	240.76
747.70	240.76
748.03	240.72
748.36	240.75
748.68	240.65
749.01	240.36
749.34	240.30
749.67	240.17
750.00	240.11
750.33	240.34
750.65	240.30
750.98	239.65
751.31	239.63
751.64	239.52
751.97	239.74
752.29	239.55
752.62	239.32
752.95	239.16
753.28	238.97
753.60	238.85
753.93	238.80
754.26	238.82
754.59	238.61
754.91	238.45
755.24	238.32
755.57	238.26
755.90	238.20
756.22	238.04
756.55	237.94
756.88	237.73
757.20	237.32
757.53	237.03
757.86	236.92
758.19	236.85
758.51	236.74
758.84	236.29
759.17	236.16
759.49	236.04
759.82	236.19
760.15	236.17
760.47	236.13
760.80	235.91
761.13	235.82
761.45	235.75
761.78	235.65
762.11	235.49
762.43	235.31
762.76	235.21
763.08	235.15
763.41	235.01
763.74	235.00
764.06	234.92
764.39	234.85
764.71	234.80
765.04	234.55
765.37	234.47
765.69	234.44
766.02	234.38
766.34	234.24
766.67	233.96
767.00	233.97
767.32	234.08
767.65	234.33
767.97	234.20
768.30	234.18
768.62	234.10
768.95	233.99
769.27	233.83
769.60	233.76
769.92	233.55
770.25	233.37
770.57	233.20
770.90	233.04
771.22	233.05
771.55	232.89
771.87	232.93
772.20	232.82
772.52	233.15
772.85	233.71
773.17	233.73
773.50	233.67
773.82	233.52
774.15	233.24
774.47	232.87
774.80	232.76
775.12	232.61
775.45	232.55
775.77	232.55
776.09	232.65
776.42	232.70
776.74	232.92
777.07	232.91
777.39	232.90
777.72	232.86
778.04	232.81
778.36	232.77
778.69	232.75
779.01	232.77
779.33	232.29
779.66	231.70
779.98	231.65
780.31	231.59
780.63	231.70
780.95	231.73
781.28	231.62
781.60	231.54
781.92	231.56
782.25	231.47
782.57	231.44
782.89	231.33
783.22	231.20
783.54	230.99
783.86	230.98
784.19	230.90
784.51	231.05
784.83	230.93
785.16	230.94
785.48	230.87
785.80	230.83
786.12	230.89
786.45	230.81
786.77	230.75
787.09	230.76
787.42	230.54
787.74	230.49
788.06	230.47
788.38	230.47
788.71	230.38
789.03	230.45
789.35	230.49
789.67	230.41
789.99	230.46
790.32	230.47
790.64	230.53
790.96	230.90
791.28	230.69
791.61	230.65
791.93	230.62
792.25	230.61
792.57	230.90
792.89	230.81
793.21	230.86
793.54	230.78
793.86	230.72
794.18	230.80
794.50	230.77
794.82	230.79
795.14	230.84
795.47	230.89
795.79	230.90
796.11	230.78
796.43	230.69
796.75	230.63
797.07	230.55
797.39	230.48
797.71	230.10
798.04	230.15
798.36	230.20
798.68	230.13
799.00	230.13
799.32	229.94
799.64	230.04
799.96	229.98
800.28	230.06
800.60	230.03
800.92	229.98
801.24	229.91
801.56	229.95
801.89	229.83
802.21	229.78
802.53	229.65
802.85	229.68
803.17	229.93
803.49	229.86
803.81	229.85
804.13	229.76
804.45	229.72
804.77	229.65
805.09	229.60
805.41	229.56
805.73	229.43
806.05	229.22
806.37	229.13
806.69	229.06
807.01	229.08
807.33	229.09
807.65	228.95
807.97	229.16
808.28	229.10
808.60	229.14
808.92	229.11
809.24	229.40
809.56	229.31
809.88	229.17
810.20	229.12
810.52	229.19
810.84	229.14
811.16	229.04
811.48	229.03
811.80	229.18
812.12	229.15
812.43	229.27
812.75	229.33
813.07	229.26
813.39	229.31
813.71	229.19
814.03	229.08
814.35	229.09
814.67	228.86
814.98	228.77
815.30	228.77
815.62	228.68
815.94	228.38
816.26	228.54
816.58	228.36
816.89	228.39
817.21	228.23
817.53	228.21
817.85	228.24
818.17	228.25
818.48	228.04
818.80	228.19
819.12	228.14
819.44	227.95
819.76	227.89
820.07	227.83
820.39	227.79
820.71	227.82
821.03	227.83
821.34	227.85
821.66	227.97
821.98	227.95
822.30	227.94
822.61	228.22
822.93	228.00
823.25	228.08
823.57	228.04
823.88	228.15
824.20	228.18
824.52	228.29
824.83	228.22
825.15	228.22
825.47	228.12
825.79	228.12
826.10	228.21
826.42	228.19
826.74	228.24
827.05	228.26
827.37	228.38
827.69	228.31
828.00	228.25
828.32	228.20
828.64	228.17
828.95	228.40
829.27	228.20
829.58	228.27
829.90	228.36
830.22	228.38
830.53	228.30
830.85	228.29
831.17	228.11
831.48	228.11
831.80	228.11
832.11	228.10
832.43	228.03
832.75	227.94
833.06	228.30
833.38	228.17
833.69	228.09
834.01	228.02
834.32	228.02
834.64	228.04
834.96	228.07
835.27	228.10
835.59	227.96
835.90	227.88
836.22	227.80
836.53	227.71
836.85	227.62
837.16	228.06
837.48	228.05
837.79	228.16
838.11	228.20
838.42	228.17
838.74	228.23
839.05	228.17
839.37	228.20
839.68	227.82
840.00	227.83
840.31	227.90
840.63	227.91
840.94	227.90
841.26	227.81
841.57	227.79
841.88	227.76
842.20	227.70
842.51	227.68
842.83	227.72
843.14	228.06
843.46	228.12
843.77	227.90
844.08	227.85
844.40	227.74
844.71	227.65
845.03	227.69
845.34	227.62
845.65	227.62
845.97	227.66
846.28	227.65
846.60	227.63
846.91	227.60
847.22	227.48
847.54	227.56
847.85	227.62
848.16	227.53
848.48	227.42
848.79	227.56
849.10	227.63
849.42	227.56
849.73	227.15
850.04	227.22
850.36	227.00
850.67	227.08
850.98	227.11
851.30	227.20
851.61	227.13
851.92	227.12
852.23	227.28
852.55	227.28
852.86	227.27
853.17	227.33
853.49	227.45
853.80	227.59
854.11	227.66
854.42	227.69
854.74	227.61
855.05	227.67
855.36	227.39
855.67	227.43
855.99	227.52
856.30	228.10
856.61	228.01
856.92	227.99
857.23	228.00
857.55	228.00
857.86	227.93
858.17	228.03
858.48	228.00
858.79	227.90
859.11	227.88
859.42	227.95
859.73	227.78
860.04	227.69
860.35	227.51
860.66	227.28
860.98	227.27
861.29	227.34
861.60	227.33
861.91	227.44
862.22	227.23
862.53	227.11
862.84	226.49
863.16	226.64
863.47	226.57
863.78	226.56
864.09	226.56
864.40	226.61
864.71	226.52
865.02	226.55
865.33	226.46
865.64	226.42
865.95	226.36
866.27	226.75
866.58	226.68
866.89	226.78
867.20	226.80
867.51	226.71
867.82	226.70
868.13	226.83
868.44	226.78
868.75	226.92
869.06	226.99
869.37	226.99
869.68	226.77
869.99	226.85
870.30	226.83
870.61	226.87
870.92	226.85
871.23	226.95
871.54	226.99
871.85	227.14
872.16	227.18
872.47	227.23
872.78	226.98
873.09	227.01
873.40	226.97
873.71	226.98
874.02	227.01
874.33	226.94
874.64	226.81
874.95	226.95
875.26	226.84
875.56	226.80
875.87	226.82
876.18	226.83
876.49	227.25
876.80	227.21
877.11	227.14
877.42	227.12
877.73	227.03
878.04	226.97
878.35	226.87
878.66	226.91
878.96	226.82
879.27	226.81
879.58	226.80
879.89	226.80
880.20	227.00
880.51	227.00
880.82	227.04
881.12	227.06
881.43	226.92
881.74	226.89
882.05	226.91
882.36	227.03
882.67	227.11
882.97	226.62
883.28	226.56
883.59	226.53
883.90	226.56
884.21	226.60
884.51	226.62
884.82	226.58
885.13	226.54
885.44	226.55
885.74	226.54
886.05	226.55
886.36	226.58
886.67	226.37
886.98	226.67
887.28	226.74
887.59	226.77
887.90	226.81
888.20	226.78
888.51	226.94
888.82	226.82
889.13	226.81
889.43	227.24
889.74	227.28
890.05	227.32
890.35	227.29
890.66	227.30
890.97	227.17
891.28	227.13
891.58	227.15
891.89	227.16
892.20	227.08
892.50	227.06
892.81	227.04
893.12	227.04
893.42	226.73
893.73	226.69
894.04	226.62
894.34	226.60
894.65	226.61
894.95	226.51
895.26	226.57
895.57	226.77
895.87	226.32
896.18	226.37
896.48	226.33
896.79	226.31
897.10	226.34
897.40	226.42
897.71	226.48
898.01	226.43
898.32	226.49
898.63	226.53
898.93	226.50
899.24	226.42
899.54	226.42
899.85	226.45
900.15	226.47
900.46	226.55
900.76	226.67
901.07	226.64
901.38	226.61
901.68	226.61
901.99	226.37
902.29	226.43
902.60	226.41
902.90	226.37
903.21	226.40
903.51	226.39
903.82	226.51
904.12	226.54
904.43	226.62
904.73	226.63
905.03	226.61
905.34	227.14
905.64	227.15
905.95	227.13
906.25	227.11
906.56	227.03
906.86	226.99
907.17	226.94
907.47	226.99
907.77	226.92
908.08	226.83
908.38	226.94
908.69	226.90
908.99	226.96
909.30	227.05
909.60	227.03
909.90	227.03
910.21	226.86
910.51	226.81
910.81	226.81
911.12	226.80
911.42	226.87
911.73	226.38
912.03	226.45
912.33	226.58
912.64	226.56
912.94	226.62
913.24	226.52
913.55	226.44
913.85	226.44
914.15	226.59
914.46	226.70
914.76	226.60
915.06	226.60
915.37	226.45
915.67	226.40
915.97	226.41
916.27	226.35
916.58	226.36
916.88	226.32
917.18	226.29
917.49	226.63
917.79	226.54
918.09	226.60
918.39	226.69
918.70	226.66
919.00	226.67
919.30	226.90
919.60	226.88
919.91	226.82
920.21	226.82
920.51	226.68
920.81	226.66
921.12	226.73
921.42	226.70
921.72	226.83
922.02	226.87
922.32	226.93
922.63	226.98
922.93	227.23
923.23	227.30
923.53	227.34
923.83	227.01
924.13	227.09
924.44	227.08
924.74	227.19
925.04	227.22
925.34	227.22
925.64	227.01
925.94	227.08
926.24	227.36
926.55	227.33
926.85	227.42
927.15	227.36
927.45	227.35
927.75	227.39
928.05	227.42
928.35	227.36
928.65	227.46
928.95	227.45
929.26	227.23
929.56	227.34
929.86	227.30
930.16	227.27
930.46	227.26
930.76	227.28
931.06	227.05
931.36	227.00
931.66	227.19
931.96	227.25
932.26	227.28
932.56	227.15
932.86	227.17
933.16	227.15
933.46	227.16
933.76	227.06
934.06	227.16
934.36	227.34
934.66	227.31
934.96	227.25
935.26	227.30
935.56	227.39
935.86	227.24
936.16	227.15
936.46	227.10
936.76	227.06
937.06	227.00
937.36	227.02
937.66	226.97
937.96	226.77
938.26	226.60
938.56	226.60
938.86	226.56
939.16	226.66
939.46	226.67
939.76	226.71
940.06	226.74
940.35	226.66
940.65	226.45
940.95	226.53
941.25	226.41
941.55	226.29
941.85	226.24
942.15	226.38
942.45	226.53
942.75	226.47
943.04	226.50
943.34	226.65
943.64	226.54
943.94	226.52
944.24	226.61
944.54	226.71
944.84	226.68
945.13	226.66
945.43	226.62
945.73	226.56
946.03	226.47
946.33	226.45
946.62	226.38
946.92	226.35
947.22	226.32
947.52	226.31
947.82	226.43
948.11	226.44
948.41	226.29
948.71	226.17
949.01	226.21
949.31	226.19
949.60	226.08
949.90	226.21
950.20	226.15
950.50	226.09
950.79	226.10
951.09	226.21
951.39	226.15
951.69	226.11
951.98	226.29
952.28	226.34
952.58	226.38
952.87	226.45
953.17	226.47
953.47	226.49
953.76	226.53
954.06	226.40
954.36	226.27
954.66	226.27
954.95	226.42
955.25	226.45
955.55	226.51
955.84	226.49
956.14	226.53
956.44	226.58
956.73	226.49
957.03	226.47
957.32	226.45
957.62	226.47
957.92	226.52
958.21	226.42
958.51	227.02
958.81	227.00
959.10	227.08
959.40	227.17
959.69	227.16
959.99	227.26
960.29	227.34
960.58	227.37
960.88	227.55
961.17	227.49
961.47	227.55
961.76	227.49
962.06	227.54
962.36	227.44
962.65	227.50
962.95	227.60
963.24	227.57
963.54	227.58
963.83	227.60
964.13	227.56
964.42	227.43
964.72	227.01
965.01	227.03
965.31	226.89
965.60	226.79
965.90	227.08
966.19	226.92
966.49	226.91
966.78	226.93
967.08	226.90
967.37	226.89
967.67	226.82
967.96	226.94
968.26	226.91
968.55	226.97
968.85	226.92
969.14	226.86
969.43	226.85
969.73	226.80
970.02	226.76
970.32	226.73
970.61	226.81
970.91	226.74
971.20	226.65
971.49	226.62
971.79	226.63
972.08	226.29
972.38	226.32
972.67	226.31
972.96	226.37
973.26	226.30
973.55	226.49
973.85	226.40
974.14	226.24
974.43	226.31
974.73	226.23
975.02	226.22
975.31	226.25
975.61	226.20
975.90	226.18
976.19	226.15
976.49	226.21
976.78	226.21
977.07	226.12
977.37	226.19
977.66	226.25
977.95	226.21
978.24	226.23
978.54	226.34
978.83	226.22
979.12	226.15
979.42	226.14
979.71	225.98
980.00	226.01
980.29	226.11
980.59	226.03
980.88	226.17
981.17	226.12
981.46	226.10
981.76	226.18
982.05	226.22
982.34	226.25
982.63	226.21
982.93	226.16
983.22	226.35
983.51	226.30
983.80	226.36
984.09	226.42
984.39	226.34
984.68	226.26
984.97	226.30
985.26	226.23
985.55	226.22
985.85	226.08
986.14	226.21
986.43	226.20
986.72	226.06
987.01	225.84
987.30	225.90
987.59	225.83
987.89	225.75
988.18	225.67
988.47	225.62
988.76	225.54
989.05	225.56
989.34	225.49
989.63	225.60
989.92	225.50
990.22	225.43
990.51	225.45
990.80	225.38
991.09	225.39
991.38	225.54
991.67	225.49
991.96	225.48
992.25	225.37
992.54	225.30
992.83	225.32
993.12	225.41
993.41	225.44
993.70	225.70
993.99	225.86
994.28	225.92
994.58	226.02
994.87	226.09
995.16	225.94
995.45	225.83
995.74	225.68
996.03	225.83
996.32	225.91
996.61	226.02
996.90	226.05
997.19	226.02
997.48	225.98
997.77	225.90
998.06	226.00
998.34	226.01
998.63	226.01
998.92	226.19
999.21	226.29
999.50	226.32
999.79	226.21
1000.08	226.15
1000.37	226.15
1000.66	226.10
1000.95	226.19
1001.24	226.36
1001.53	226.43
1001.82	226.40
1002.11	226.24
1002.40	226.29
1002.68	226.48
1002.97	226.80
1003.26	226.84
1003.55	226.80
1003.84	226.90
1004.13	227.03
1004.42	226.97
1004.71	227.04
1004.99	226.94
1005.28	227.00
1005.57	226.95
1005.86	226.88
1006.15	226.86
1006.44	226.80
1006.72	226.85
1007.01	226.78
1007.30	226.71
1007.59	226.70
1007.88	226.70
1008.17	226.76
1008.45	226.67
1008.74	226.43
1009.03	226.28
1009.32	226.24
1009.60	226.20
1009.89	226.17
1010.18	226.04
1010.47	226.06
1010.76	226.04
1011.04	226.06
1011.33	226.05
1011.62	226.10
1011.91	226.09
1012.19	226.08
1012.48	226.14
1012.77	226.13
1013.05	226.30
1013.34	226.31
1013.63	226.23
1013.92	226.33
1014.20	226.26
1014.49	226.24
1014.78	226.28
1015.06	226.02
1015.35	226.00
1015.64	226.14
1015.92	226.22
1016.21	226.22
1016.50	226.26
1016.78	226.30
1017.07	226.33
1017.36	226.21
1017.64	226.13
1017.93	226.20
1018.22	226.19
1018.50	226.13
1018.79	226.05
1019.08	225.80
1019.36	225.83
1019.65	225.79
1019.93	225.89
1020.22	226.01
1020.51	226.31
1020.79	226.27
1021.08	225.50
1021.36	225.30
1021.65	224.85
1021.94	224.85
1022.22	226.00
1022.51	224.55
1022.79	228.65
1023.08	227.10
1023.36	232.25
1023.65	224.85
>>>>>End Processed Spectral Data<<<<<
