SpectraSuite Data File
++++++++++++++++++++++++++++++++++++
Date: Wed Sep 04 17:58:16 EDT 2013
User: lab3
Dark Spectrum Present: Yes
Reference Spectrum Present: No
Number of Sampled Component Spectra: 1
Spectrometers: USB2E7196
Integration Time (usec): 170000 (USB2E7196)
Spectra Averaged: 20 (USB2E7196)
Boxcar Smoothing: 10 (USB2E7196)
Correct for Electrical Dark: No (USB2E7196)
Strobe/Lamp Enabled: No (USB2E7196)
Correct for Detector Non-linearity: No (USB2E7196)
Correct for Stray Light: No (USB2E7196)
Number of Pixels in Processed Spectrum: 2048
>>>>>Begin Processed Spectral Data<<<<<
339.09	0.00
339.48	213.05
339.86	214.70
340.24	215.60
340.63	216.50
341.01	225.35
341.39	219.95
341.78	221.80
342.16	225.55
342.54	224.65
342.93	212.55
343.31	223.25
343.69	223.82
344.07	224.31
344.46	224.83
344.84	225.31
345.22	225.36
345.60	225.64
345.99	225.89
346.37	225.95
346.75	226.02
347.13	226.05
347.52	226.08
347.90	226.29
348.28	226.32
348.66	226.58
349.05	226.48
349.43	226.54
349.81	226.66
350.19	226.71
350.57	226.81
350.96	226.97
351.34	227.12
351.72	227.16
352.10	227.23
352.48	227.23
352.87	227.18
353.25	227.20
353.63	227.26
354.01	227.21
354.39	227.23
354.77	227.26
355.15	227.48
355.54	227.53
355.92	227.43
356.30	227.53
356.68	227.85
357.06	227.96
357.44	227.96
357.82	228.03
358.20	228.47
358.58	228.49
358.97	228.50
359.35	228.65
359.73	228.84
360.11	228.93
360.49	229.07
360.87	229.18
361.25	229.27
361.63	229.46
362.01	229.58
362.39	229.65
362.77	229.79
363.15	229.79
363.53	229.78
363.91	229.84
364.29	229.87
364.67	229.42
365.05	229.42
365.43	229.59
365.81	229.63
366.19	229.50
366.57	229.69
366.95	229.61
367.33	229.50
367.71	229.52
368.09	229.59
368.47	229.63
368.85	229.63
369.23	229.76
369.61	229.64
369.99	229.80
370.37	229.83
370.75	230.00
371.13	229.87
371.51	229.85
371.89	229.84
372.27	229.85
372.65	229.95
373.03	229.91
373.41	229.80
373.78	229.78
374.16	229.44
374.54	229.22
374.92	229.25
375.30	229.18
375.68	229.01
376.06	228.97
376.44	228.85
376.82	228.85
377.19	228.79
377.57	228.70
377.95	228.44
378.33	228.38
378.71	228.03
379.09	228.06
379.47	228.09
379.84	228.06
380.22	227.92
380.60	227.76
380.98	227.69
381.36	227.63
381.73	227.45
382.11	227.53
382.49	227.55
382.87	227.50
383.25	227.47
383.62	228.05
384.00	227.90
384.38	227.89
384.76	227.89
385.13	227.97
385.51	227.94
385.89	227.88
386.27	227.85
386.64	227.96
387.02	227.89
387.40	227.75
387.78	227.70
388.15	227.68
388.53	227.55
388.91	227.53
389.29	227.41
389.66	227.49
390.04	227.41
390.42	227.43
390.79	227.33
391.17	227.30
391.55	226.70
391.92	226.68
392.30	226.71
392.68	226.68
393.05	226.68
393.43	226.75
393.81	226.74
394.18	226.70
394.56	226.66
394.94	226.76
395.31	226.74
395.69	226.92
396.06	226.94
396.44	227.10
396.82	227.14
397.19	227.49
397.57	227.49
397.95	227.58
398.32	227.50
398.70	227.64
399.07	227.81
399.45	227.91
399.82	228.02
400.20	228.09
400.58	228.15
400.95	228.02
401.33	228.14
401.70	228.62
402.08	228.78
402.45	228.85
402.83	229.11
403.20	229.26
403.58	229.30
403.95	229.64
404.33	229.86
404.71	230.00
405.08	230.40
405.46	230.61
405.83	230.91
406.21	231.17
406.58	231.45
406.96	231.68
407.33	232.02
407.70	232.42
408.08	233.04
408.45	233.40
408.83	233.93
409.20	234.26
409.58	234.39
409.95	234.86
410.33	235.36
410.70	235.71
411.08	236.42
411.45	237.04
411.82	237.60
412.20	238.33
412.57	239.30
412.95	239.64
413.32	240.49
413.69	241.28
414.07	242.16
414.44	243.15
414.82	244.20
415.19	245.33
415.56	246.54
415.94	247.66
416.31	249.13
416.68	250.51
417.06	252.12
417.43	253.81
417.81	255.58
418.18	257.46
418.55	259.39
418.93	261.36
419.30	263.44
419.67	265.63
420.04	267.90
420.42	270.19
420.79	273.25
421.16	276.10
421.54	279.06
421.91	282.07
422.28	285.13
422.66	288.47
423.03	291.98
423.40	295.35
423.77	298.84
424.15	302.45
424.52	306.25
424.89	310.55
425.26	314.47
425.64	318.38
426.01	322.55
426.38	326.92
426.75	331.50
427.13	336.13
427.50	340.90
427.87	345.64
428.24	350.67
428.61	355.21
428.99	360.50
429.36	366.15
429.73	371.63
430.10	377.17
430.47	382.84
430.85	388.53
431.22	394.66
431.59	401.48
431.96	407.73
432.33	414.57
432.70	421.15
433.08	429.19
433.45	436.41
433.82	443.85
434.19	452.24
434.56	460.40
434.93	468.08
435.30	475.86
435.68	484.69
436.05	493.04
436.42	501.42
436.79	509.09
437.16	517.36
437.53	526.37
437.90	534.99
438.27	543.61
438.64	552.50
439.01	560.92
439.38	568.19
439.75	575.38
440.13	583.64
440.50	591.33
440.87	597.29
441.24	603.85
441.61	610.90
441.98	616.01
442.35	621.84
442.72	628.04
443.09	633.93
443.46	637.51
443.83	639.88
444.20	641.91
444.57	644.66
444.94	645.71
445.31	646.81
445.68	648.19
446.05	648.31
446.42	646.95
446.79	645.50
447.16	643.81
447.53	642.54
447.90	638.78
448.27	635.03
448.64	630.15
449.01	626.49
449.37	620.25
449.74	614.10
450.11	607.18
450.48	599.11
450.85	590.95
451.22	583.91
451.59	577.26
451.96	570.91
452.33	562.77
452.70	555.47
453.07	546.75
453.43	537.69
453.80	529.21
454.17	521.11
454.54	513.39
454.91	505.19
455.28	497.10
455.65	489.58
456.02	482.76
456.38	476.36
456.75	468.50
457.12	461.93
457.49	455.58
457.86	449.11
458.23	444.11
458.59	438.47
458.96	432.77
459.33	427.65
459.70	422.53
460.07	418.40
460.43	413.67
460.80	409.33
461.17	405.70
461.54	401.77
461.91	397.95
462.27	394.00
462.64	390.71
463.01	387.15
463.38	383.85
463.74	379.68
464.11	376.62
464.48	374.02
464.85	371.12
465.21	368.96
465.58	366.76
465.95	363.95
466.32	361.81
466.68	359.45
467.05	357.27
467.42	354.92
467.78	352.58
468.15	350.42
468.52	348.80
468.88	346.41
469.25	344.49
469.62	343.04
469.98	341.34
470.35	339.77
470.72	338.27
471.08	336.52
471.45	335.33
471.82	334.12
472.18	332.62
472.55	331.65
472.92	330.39
473.28	329.21
473.65	328.09
474.02	326.89
474.38	326.06
474.75	325.25
475.11	324.47
475.48	323.86
475.85	323.20
476.21	322.52
476.58	322.14
476.94	321.72
477.31	321.24
477.67	320.84
478.04	320.47
478.41	320.30
478.77	320.58
479.14	320.25
479.50	320.22
479.87	320.34
480.23	320.43
480.60	320.33
480.96	320.36
481.33	320.75
481.69	321.04
482.06	321.23
482.42	321.51
482.79	321.85
483.15	322.30
483.52	323.06
483.88	323.56
484.25	324.09
484.61	324.71
484.98	325.45
485.34	326.52
485.71	327.57
486.07	328.60
486.44	329.23
486.80	330.34
487.17	331.39
487.53	332.74
487.90	334.12
488.26	335.74
488.62	337.48
488.99	338.89
489.35	340.62
489.72	342.59
490.08	344.54
490.44	346.58
490.81	348.84
491.17	350.99
491.54	353.51
491.90	356.06
492.26	358.84
492.63	361.69
492.99	364.40
493.36	367.44
493.72	370.66
494.08	374.18
494.45	377.90
494.81	381.80
495.17	385.64
495.54	389.78
495.90	393.99
496.26	398.44
496.63	403.19
496.99	407.95
497.35	412.99
497.72	418.41
498.08	423.86
498.44	429.47
498.80	435.56
499.17	441.60
499.53	447.96
499.89	454.56
500.26	461.37
500.62	468.42
500.98	475.92
501.34	483.50
501.71	491.12
502.07	498.95
502.43	507.15
502.79	515.59
503.16	524.23
503.52	533.35
503.88	542.69
504.24	552.36
504.60	562.46
504.97	572.70
505.33	583.11
505.69	594.32
506.05	605.48
506.41	616.70
506.78	628.53
507.14	640.60
507.50	652.98
507.86	665.51
508.22	678.52
508.59	691.43
508.95	705.01
509.31	719.32
509.67	733.72
510.03	747.93
510.39	762.51
510.75	777.62
511.12	792.73
511.48	808.25
511.84	824.05
512.20	839.83
512.56	856.22
512.92	873.07
513.28	889.85
513.64	907.11
514.00	924.48
514.37	942.29
514.73	960.47
515.09	978.79
515.45	997.38
515.81	1015.89
516.17	1034.75
516.53	1053.64
516.89	1072.40
517.25	1091.83
517.61	1112.24
517.97	1132.62
518.33	1152.82
518.69	1173.17
519.05	1193.71
519.41	1214.55
519.77	1235.87
520.13	1256.76
520.49	1277.51
520.85	1299.93
521.21	1321.03
521.57	1342.40
521.93	1363.25
522.29	1384.26
522.65	1405.21
523.01	1426.17
523.37	1446.83
523.73	1468.13
524.09	1488.57
524.45	1509.28
524.81	1530.14
525.17	1550.90
525.53	1571.60
525.89	1592.35
526.25	1613.16
526.61	1633.72
526.97	1654.88
527.33	1676.01
527.68	1697.76
528.04	1719.40
528.40	1739.01
528.76	1760.02
529.12	1780.69
529.48	1801.67
529.84	1822.19
530.20	1843.11
530.56	1864.05
530.91	1885.54
531.27	1905.86
531.63	1926.66
531.99	1947.42
532.35	1967.42
532.71	1987.48
533.07	2008.44
533.42	2028.48
533.78	2048.75
534.14	2068.63
534.50	2087.64
534.86	2107.18
535.21	2124.83
535.57	2142.69
535.93	2160.82
536.29	2178.88
536.65	2197.21
537.00	2215.08
537.36	2232.46
537.72	2249.49
538.08	2266.28
538.44	2282.66
538.79	2299.19
539.15	2315.62
539.51	2331.58
539.87	2347.04
540.22	2361.27
540.58	2375.50
540.94	2389.00
541.29	2401.71
541.65	2414.37
542.01	2427.05
542.37	2437.73
542.72	2448.58
543.08	2459.55
543.44	2471.06
543.79	2481.03
544.15	2490.66
544.51	2500.40
544.87	2510.23
545.22	2518.63
545.58	2526.60
545.94	2534.01
546.29	2540.90
546.65	2547.54
547.01	2553.31
547.36	2558.90
547.72	2564.48
548.07	2568.55
548.43	2574.06
548.79	2578.73
549.14	2582.90
549.50	2586.79
549.86	2590.42
550.21	2594.64
550.57	2598.25
550.92	2599.60
551.28	2601.11
551.64	2603.75
551.99	2605.65
552.35	2607.14
552.70	2609.47
553.06	2611.39
553.41	2612.49
553.77	2614.00
554.13	2615.50
554.48	2616.89
554.84	2618.30
555.19	2619.50
555.55	2621.25
555.90	2620.59
556.26	2620.04
556.61	2618.15
556.97	2615.86
557.32	2615.30
557.68	2613.88
558.03	2612.46
558.39	2611.25
558.74	2610.47
559.10	2607.06
559.45	2603.30
559.81	2598.97
560.16	2593.46
560.52	2588.42
560.87	2584.37
561.23	2578.96
561.58	2572.91
561.94	2566.16
562.29	2558.89
562.64	2552.00
563.00	2543.49
563.35	2536.66
563.71	2529.95
564.06	2524.49
564.42	2518.23
564.77	2511.46
565.12	2504.06
565.48	2496.12
565.83	2488.16
566.19	2479.83
566.54	2471.86
566.89	2463.74
567.25	2455.98
567.60	2448.84
567.96	2441.62
568.31	2433.25
568.66	2424.78
569.02	2415.91
569.37	2407.70
569.72	2400.27
570.08	2390.54
570.43	2381.10
570.78	2372.15
571.14	2362.69
571.49	2352.10
571.84	2342.29
572.20	2331.27
572.55	2321.25
572.90	2310.42
573.26	2300.18
573.61	2289.26
573.96	2278.33
574.31	2266.48
574.67	2254.90
575.02	2242.11
575.37	2229.32
575.72	2216.35
576.08	2204.21
576.43	2191.77
576.78	2178.64
577.13	2164.57
577.49	2152.21
577.84	2140.42
578.19	2127.98
578.54	2115.03
578.90	2103.17
579.25	2090.76
579.60	2078.48
579.95	2065.32
580.30	2051.89
580.66	2038.42
581.01	2024.75
581.36	2010.74
581.71	1998.36
582.06	1985.19
582.42	1972.95
582.77	1960.02
583.12	1947.95
583.47	1935.53
583.82	1923.25
584.17	1911.12
584.53	1899.18
584.88	1886.21
585.23	1872.98
585.58	1858.98
585.93	1845.96
586.28	1832.59
586.63	1818.73
586.98	1804.33
587.34	1790.97
587.69	1777.89
588.04	1765.11
588.39	1753.23
588.74	1741.12
589.09	1728.85
589.44	1715.87
589.79	1703.47
590.14	1691.67
590.49	1679.29
590.84	1667.12
591.19	1655.17
591.54	1642.99
591.89	1630.90
592.25	1620.70
592.60	1609.20
592.95	1597.72
593.30	1585.55
593.65	1573.30
594.00	1561.10
594.35	1551.23
594.70	1539.36
595.05	1528.03
595.40	1515.83
595.75	1503.77
596.10	1492.32
596.45	1480.63
596.80	1469.94
597.15	1458.49
597.50	1446.22
597.85	1434.85
598.19	1423.10
598.54	1411.29
598.89	1399.99
599.24	1389.47
599.59	1377.76
599.94	1366.66
600.29	1356.28
600.64	1346.14
600.99	1335.45
601.34	1325.89
601.69	1314.83
602.04	1304.93
602.39	1295.18
602.74	1286.04
603.08	1276.47
603.43	1267.20
603.78	1257.44
604.13	1247.76
604.48	1237.98
604.83	1228.72
605.18	1218.84
605.53	1209.31
605.87	1200.19
606.22	1191.38
606.57	1181.88
606.92	1172.24
607.27	1163.47
607.62	1154.50
607.96	1145.70
608.31	1137.78
608.66	1129.29
609.01	1120.69
609.36	1112.11
609.70	1103.56
610.05	1094.91
610.40	1086.65
610.75	1077.94
611.10	1069.70
611.44	1061.10
611.79	1052.98
612.14	1045.09
612.49	1037.22
612.83	1029.44
613.18	1021.55
613.53	1013.76
613.88	1005.97
614.22	998.27
614.57	990.26
614.92	982.40
615.27	974.80
615.61	966.95
615.96	959.37
616.31	951.71
616.65	944.60
617.00	937.17
617.35	929.72
617.70	922.33
618.04	915.07
618.39	907.89
618.74	901.45
619.08	894.45
619.43	887.18
619.78	880.08
620.12	872.99
620.47	866.09
620.82	858.95
621.16	852.04
621.51	845.45
621.85	838.91
622.20	832.31
622.55	825.60
622.89	819.15
623.24	812.74
623.59	806.34
623.93	799.98
624.28	793.88
624.62	788.50
624.97	782.56
625.32	776.87
625.66	771.03
626.01	764.76
626.35	759.23
626.70	753.68
627.04	748.58
627.39	743.09
627.73	737.76
628.08	732.59
628.43	727.04
628.77	721.63
629.12	716.50
629.46	711.66
629.81	706.98
630.15	702.15
630.50	697.09
630.84	692.24
631.19	687.44
631.53	682.76
631.88	677.34
632.22	672.50
632.57	667.92
632.91	663.16
633.26	658.71
633.60	653.90
633.95	649.13
634.29	644.12
634.64	639.68
634.98	634.90
635.32	630.55
635.67	626.59
636.01	622.58
636.36	618.24
636.70	614.10
637.05	609.84
637.39	605.70
637.73	601.53
638.08	597.58
638.42	593.30
638.77	588.96
639.11	584.61
639.45	580.27
639.80	575.85
640.14	571.79
640.49	567.78
640.83	564.04
641.17	560.51
641.52	556.80
641.86	553.16
642.20	549.96
642.55	546.12
642.89	542.39
643.23	538.78
643.58	535.57
643.92	531.92
644.26	528.48
644.61	525.16
644.95	521.86
645.29	518.33
645.64	515.22
645.98	512.16
646.32	509.34
646.66	506.32
647.01	503.39
647.35	500.59
647.69	497.70
648.04	494.74
648.38	491.91
648.72	489.07
649.06	486.05
649.41	483.02
649.75	480.13
650.09	477.30
650.43	474.45
650.78	471.36
651.12	468.59
651.46	465.81
651.80	463.05
652.14	460.31
652.49	457.85
652.83	455.23
653.17	452.53
653.51	449.72
653.85	447.34
654.20	444.73
654.54	442.12
654.88	439.52
655.22	437.34
655.56	434.77
655.90	432.39
656.25	430.10
656.59	427.79
656.93	425.61
657.27	423.50
657.61	421.04
657.95	418.85
658.29	416.50
658.64	414.50
658.98	412.21
659.32	410.04
659.66	407.75
660.00	405.63
660.34	403.73
660.68	401.80
661.02	399.75
661.36	397.83
661.70	395.78
662.05	393.82
662.39	391.79
662.73	390.01
663.07	388.41
663.41	386.63
663.75	384.66
664.09	382.78
664.43	380.80
664.77	379.24
665.11	377.54
665.45	375.90
665.79	374.18
666.13	372.44
666.47	370.75
666.81	369.12
667.15	367.40
667.49	365.76
667.83	364.36
668.17	362.78
668.51	361.38
668.85	360.03
669.19	358.93
669.53	357.35
669.87	355.78
670.21	354.17
670.55	352.80
670.89	351.70
671.23	350.34
671.57	348.95
671.91	347.56
672.25	346.26
672.58	345.09
672.92	343.58
673.26	342.46
673.60	341.29
673.94	340.07
674.28	339.02
674.62	337.90
674.96	336.48
675.30	335.33
675.64	334.05
675.97	332.80
676.31	331.43
676.65	330.22
676.99	329.28
677.33	328.16
677.67	327.02
678.01	325.70
678.34	324.65
678.68	323.76
679.02	322.65
679.36	321.62
679.70	320.48
680.04	319.53
680.37	318.53
680.71	317.54
681.05	316.65
681.39	315.70
681.73	314.68
682.06	313.81
682.40	312.92
682.74	312.20
683.08	311.48
683.42	310.52
683.75	309.76
684.09	308.81
684.43	307.95
684.77	307.03
685.10	306.24
685.44	305.42
685.78	304.51
686.12	303.79
686.45	302.90
686.79	302.14
687.13	301.44
687.46	300.70
687.80	300.02
688.14	299.26
688.48	298.53
688.81	297.76
689.15	297.20
689.49	296.42
689.82	295.65
690.16	294.79
690.50	294.16
690.83	293.37
691.17	292.64
691.51	291.85
691.84	291.26
692.18	290.48
692.52	289.84
692.85	289.28
693.19	288.78
693.52	288.25
693.86	287.56
694.20	286.91
694.53	286.30
694.87	285.59
695.21	284.90
695.54	284.21
695.88	283.52
696.21	282.71
696.55	282.10
696.88	281.52
697.22	280.91
697.56	280.31
697.89	279.79
698.23	279.33
698.56	278.89
698.90	278.42
699.23	277.92
699.57	277.38
699.90	276.77
700.24	276.10
700.58	275.58
700.91	275.23
701.25	275.18
701.58	275.01
701.92	274.66
702.25	274.18
702.59	273.77
702.92	273.41
703.26	273.11
703.59	272.66
703.93	272.51
704.26	272.17
704.60	271.83
704.93	271.42
705.26	270.87
705.60	270.49
705.93	269.93
706.27	269.68
706.60	269.45
706.94	269.26
707.27	268.77
707.61	268.42
707.94	267.97
708.27	267.17
708.61	266.44
708.94	266.06
709.28	265.74
709.61	265.31
709.94	264.87
710.28	264.40
710.61	263.95
710.95	263.23
711.28	263.14
711.61	262.65
711.95	262.39
712.28	261.95
712.61	261.60
712.95	261.54
713.28	261.41
713.61	260.83
713.95	260.37
714.28	260.22
714.61	259.91
714.95	259.53
715.28	259.14
715.61	258.79
715.95	258.42
716.28	258.02
716.61	257.84
716.95	257.55
717.28	257.20
717.61	256.94
717.94	256.62
718.28	255.97
718.61	255.73
718.94	255.35
719.27	255.15
719.61	254.93
719.94	254.49
720.27	254.01
720.60	253.76
720.94	253.38
721.27	253.09
721.60	252.92
721.93	252.65
722.27	252.63
722.60	252.46
722.93	252.19
723.26	252.04
723.59	251.70
723.93	251.62
724.26	251.47
724.59	251.26
724.92	251.07
725.25	251.00
725.59	250.75
725.92	250.64
726.25	250.50
726.58	250.22
726.91	250.01
727.24	249.89
727.57	249.77
727.91	249.58
728.24	249.42
728.57	249.16
728.90	249.07
729.23	248.67
729.56	248.76
729.89	248.57
730.22	248.34
730.55	248.20
730.89	247.99
731.22	247.76
731.55	247.56
731.88	247.36
732.21	247.05
732.54	246.91
732.87	246.72
733.20	246.54
733.53	246.45
733.86	246.37
734.19	246.04
734.52	245.93
734.85	246.14
735.18	245.87
735.51	245.82
735.84	245.68
736.17	245.67
736.50	245.24
736.83	245.66
737.16	245.54
737.49	245.36
737.82	245.11
738.15	245.04
738.48	244.93
738.81	244.76
739.14	244.56
739.47	244.39
739.80	244.23
740.13	244.08
740.46	243.90
740.79	243.70
741.12	243.55
741.45	243.35
741.78	242.91
742.11	242.99
742.44	242.77
742.77	242.70
743.10	242.47
743.43	242.30
743.75	241.62
744.08	242.09
744.41	241.92
744.74	241.73
745.07	241.55
745.40	241.51
745.73	241.63
746.06	241.57
746.39	241.54
746.71	241.34
747.04	241.19
747.37	241.00
747.70	240.90
748.03	240.84
748.36	240.79
748.68	240.72
749.01	240.44
749.34	240.28
749.67	240.11
750.00	240.13
750.33	240.28
750.65	240.24
750.98	239.58
751.31	239.45
751.64	239.48
751.97	239.58
752.29	239.43
752.62	239.07
752.95	239.00
753.28	238.82
753.60	238.76
753.93	238.78
754.26	238.75
754.59	238.49
754.91	238.40
755.24	238.23
755.57	238.09
755.90	237.95
756.22	237.83
756.55	237.64
756.88	237.47
757.20	237.16
757.53	236.89
757.86	236.77
758.19	236.73
758.51	236.57
758.84	236.31
759.17	236.18
759.49	236.17
759.82	236.28
760.15	236.23
760.47	236.16
760.80	235.91
761.13	235.88
761.45	235.88
761.78	235.80
762.11	235.77
762.43	235.62
762.76	235.57
763.08	235.61
763.41	235.59
763.74	235.53
764.06	235.37
764.39	235.42
764.71	235.32
765.04	235.26
765.37	235.11
765.69	234.97
766.02	234.90
766.34	234.75
766.67	234.48
767.00	234.48
767.32	234.65
767.65	234.95
767.97	234.86
768.30	234.76
768.62	234.74
768.95	234.61
769.27	234.60
769.60	234.56
769.92	234.30
770.25	234.16
770.57	233.96
770.90	233.93
771.22	233.82
771.55	233.70
771.87	233.65
772.20	233.64
772.52	234.01
772.85	234.47
773.17	234.45
773.50	234.36
773.82	234.21
774.15	233.89
774.47	233.51
774.80	233.38
775.12	233.27
775.45	233.17
775.77	233.15
776.09	233.08
776.42	233.01
776.74	233.19
777.07	233.10
777.39	233.15
777.72	233.04
778.04	233.04
778.36	232.99
778.69	232.90
779.01	232.89
779.33	232.40
779.66	231.89
779.98	231.86
780.31	231.80
780.63	231.98
780.95	232.06
781.28	231.98
781.60	231.88
781.92	231.90
782.25	231.85
782.57	231.76
782.89	231.72
783.22	231.67
783.54	231.51
783.86	231.53
784.19	231.42
784.51	231.46
784.83	231.33
785.16	231.29
785.48	231.27
785.80	231.29
786.12	231.31
786.45	231.25
786.77	231.22
787.09	231.19
787.42	230.98
787.74	230.85
788.06	230.87
788.38	230.88
788.71	230.78
789.03	230.62
789.35	230.63
789.67	230.51
789.99	230.53
790.32	230.41
790.64	230.39
790.96	230.81
791.28	230.66
791.61	230.68
791.93	230.57
792.25	230.52
792.57	230.74
792.89	230.62
793.21	230.58
793.54	230.47
793.86	230.34
794.18	230.40
794.50	230.25
794.82	230.26
795.14	230.31
795.47	230.36
795.79	230.48
796.11	230.31
796.43	230.33
796.75	230.27
797.07	230.41
797.39	230.40
797.71	229.99
798.04	230.06
798.36	230.04
798.68	230.14
799.00	230.20
799.32	229.91
799.64	229.98
799.96	230.04
800.28	230.14
800.60	230.16
800.92	230.05
801.24	230.07
801.56	230.05
801.89	229.93
802.21	229.97
802.53	229.88
802.85	230.05
803.17	230.20
803.49	230.10
803.81	229.90
804.13	229.78
804.45	229.68
804.77	229.65
805.09	229.59
805.41	229.49
805.73	229.35
806.05	229.30
806.37	229.27
806.69	229.11
807.01	229.05
807.33	229.07
807.65	228.98
807.97	229.15
808.28	229.08
808.60	229.07
808.92	228.98
809.24	229.21
809.56	229.01
809.88	228.87
810.20	228.87
810.52	229.02
810.84	229.03
811.16	228.91
811.48	228.97
811.80	229.15
812.12	229.14
812.43	229.23
812.75	229.23
813.07	229.12
813.39	229.08
813.71	228.98
814.03	228.87
814.35	228.84
814.67	228.70
814.98	228.62
815.30	228.59
815.62	228.48
815.94	228.15
816.26	228.40
816.58	228.32
816.89	228.34
817.21	228.22
817.53	228.21
817.85	228.29
818.17	228.21
818.48	227.99
818.80	228.11
819.12	227.96
819.44	227.87
819.76	227.83
820.07	227.92
820.39	227.92
820.71	228.07
821.03	228.08
821.34	228.13
821.66	228.20
821.98	228.27
822.30	228.28
822.61	228.57
822.93	228.27
823.25	228.24
823.57	228.20
823.88	228.31
824.20	228.36
824.52	228.48
824.83	228.47
825.15	228.47
825.47	228.46
825.79	228.53
826.10	228.56
826.42	228.55
826.74	228.54
827.05	228.52
827.37	228.50
827.69	228.47
828.00	228.37
828.32	228.30
828.64	228.19
828.95	228.37
829.27	228.27
829.58	228.29
829.90	228.29
830.22	228.31
830.53	228.18
830.85	228.06
831.17	227.87
831.48	227.90
831.80	227.90
832.11	227.81
832.43	227.70
832.75	227.66
833.06	227.94
833.38	227.72
833.69	227.74
834.01	227.68
834.32	227.67
834.64	227.65
834.96	227.61
835.27	227.65
835.59	227.54
835.90	227.45
836.22	227.50
836.53	227.40
836.85	227.40
837.16	227.85
837.48	227.90
837.79	228.04
838.11	227.95
838.42	227.98
838.74	228.02
839.05	228.09
839.37	228.04
839.68	227.73
840.00	227.85
840.31	227.93
840.63	227.89
840.94	227.82
841.26	227.76
841.57	227.84
841.88	227.83
842.20	227.80
842.51	227.74
842.83	227.73
843.14	228.26
843.46	228.25
843.77	227.90
844.08	227.87
844.40	227.76
844.71	227.71
845.03	227.59
845.34	227.50
845.65	227.42
845.97	227.44
846.28	227.49
846.60	227.49
846.91	227.38
847.22	227.37
847.54	227.48
847.85	227.60
848.16	227.54
848.48	227.45
848.79	227.62
849.10	227.71
849.42	227.72
849.73	227.22
850.04	227.24
850.36	227.09
850.67	227.14
850.98	227.11
851.30	227.14
851.61	227.19
851.92	227.23
852.23	227.46
852.55	227.49
852.86	227.52
853.17	227.56
853.49	227.64
853.80	227.76
854.11	227.74
854.42	227.74
854.74	227.67
855.05	227.66
855.36	227.45
855.67	227.40
855.99	227.40
856.30	227.92
856.61	227.85
856.92	227.91
857.23	227.93
857.55	227.90
857.86	227.85
858.17	227.85
858.48	227.73
858.79	227.50
859.11	227.52
859.42	227.46
859.73	227.35
860.04	227.33
860.35	227.21
860.66	227.16
860.98	227.13
861.29	227.22
861.60	227.21
861.91	227.28
862.22	227.24
862.53	227.25
862.84	226.73
863.16	226.87
863.47	226.83
863.78	226.75
864.09	226.82
864.40	226.88
864.71	226.89
865.02	227.05
865.33	227.00
865.64	227.01
865.95	227.02
866.27	227.28
866.58	227.19
866.89	227.25
867.20	227.24
867.51	227.19
867.82	227.12
868.13	227.32
868.44	227.27
868.75	227.30
869.06	227.25
869.37	227.30
869.68	227.23
869.99	227.31
870.30	227.46
870.61	227.44
870.92	227.43
871.23	227.41
871.54	227.52
871.85	227.70
872.16	227.73
872.47	227.74
872.78	227.53
873.09	227.59
873.40	227.53
873.71	227.58
874.02	227.63
874.33	227.68
874.64	227.54
874.95	227.57
875.26	227.49
875.56	227.51
875.87	227.54
876.18	227.50
876.49	227.94
876.80	227.79
877.11	227.76
877.42	227.73
877.73	227.77
878.04	227.66
878.35	227.60
878.66	227.61
878.96	227.59
879.27	227.56
879.58	227.53
879.89	227.53
880.20	227.64
880.51	227.59
880.82	227.55
881.12	227.67
881.43	227.65
881.74	227.64
882.05	227.58
882.36	227.59
882.67	227.56
882.97	227.03
883.28	227.03
883.59	227.03
883.90	227.02
884.21	227.10
884.51	226.99
884.82	226.92
885.13	226.92
885.44	226.89
885.74	226.85
886.05	226.90
886.36	226.91
886.67	226.72
886.98	227.01
887.28	227.03
887.59	226.97
887.90	226.96
888.20	226.94
888.51	227.04
888.82	226.90
889.13	226.95
889.43	227.35
889.74	227.31
890.05	227.24
890.35	227.28
890.66	227.20
890.97	227.13
891.28	227.08
891.58	226.99
891.89	227.01
892.20	227.04
892.50	226.90
892.81	226.80
893.12	226.78
893.42	226.47
893.73	226.46
894.04	226.44
894.34	226.40
894.65	226.38
894.95	226.27
895.26	226.38
895.57	226.58
895.87	226.17
896.18	226.26
896.48	226.33
896.79	226.31
897.10	226.27
897.40	226.31
897.71	226.33
898.01	226.34
898.32	226.36
898.63	226.35
898.93	226.40
899.24	226.50
899.54	226.50
899.85	226.52
900.15	226.47
900.46	226.45
900.76	226.49
901.07	226.49
901.38	226.54
901.68	226.52
901.99	226.27
902.29	226.24
902.60	226.18
902.90	226.13
903.21	226.12
903.51	226.14
903.82	226.33
904.12	226.37
904.43	226.42
904.73	226.40
905.03	226.44
905.34	227.00
905.64	226.95
905.95	227.00
906.25	226.87
906.56	226.92
906.86	226.93
907.17	226.91
907.47	226.99
907.77	226.91
908.08	226.83
908.38	226.89
908.69	227.02
908.99	227.10
909.30	227.20
909.60	227.19
909.90	227.25
910.21	227.05
910.51	226.95
910.81	226.93
911.12	226.98
911.42	226.99
911.73	226.43
912.03	226.40
912.33	226.53
912.64	226.63
912.94	226.52
913.24	226.47
913.55	226.45
913.85	226.41
914.15	226.53
914.46	226.65
914.76	226.54
915.06	226.45
915.37	226.36
915.67	226.31
915.97	226.30
916.27	226.16
916.58	226.18
916.88	226.20
917.18	226.15
917.49	226.47
917.79	226.46
918.09	226.50
918.39	226.69
918.70	226.54
919.00	226.56
919.30	226.87
919.60	226.82
919.91	226.75
920.21	226.72
920.51	226.60
920.81	226.56
921.12	226.68
921.42	226.63
921.72	226.70
922.02	226.72
922.32	226.78
922.63	226.82
922.93	227.10
923.23	227.17
923.53	227.15
923.83	226.77
924.13	226.78
924.44	226.80
924.74	226.82
925.04	226.96
925.34	226.95
925.64	226.70
925.94	226.72
926.24	226.96
926.55	226.91
926.85	227.00
927.15	226.94
927.45	226.94
927.75	226.96
928.05	226.90
928.35	226.83
928.65	226.89
928.95	226.90
929.26	226.72
929.56	226.79
929.86	226.88
930.16	226.89
930.46	226.82
930.76	226.84
931.06	226.57
931.36	226.47
931.66	226.51
931.96	226.54
932.26	226.58
932.56	226.45
932.86	226.53
933.16	226.49
933.46	226.48
933.76	226.38
934.06	226.47
934.36	226.66
934.66	226.64
934.96	226.56
935.26	226.53
935.56	226.61
935.86	226.49
936.16	226.45
936.46	226.40
936.76	226.45
937.06	226.34
937.36	226.40
937.66	226.38
937.96	226.31
938.26	226.26
938.56	226.20
938.86	226.19
939.16	226.33
939.46	226.39
939.76	226.39
940.06	226.34
940.35	226.28
940.65	226.01
940.95	226.10
941.25	226.07
941.55	226.10
941.85	226.04
942.15	226.19
942.45	226.28
942.75	226.30
943.04	226.32
943.34	226.50
943.64	226.53
943.94	226.49
944.24	226.56
944.54	226.65
944.84	226.71
945.13	226.71
945.43	226.61
945.73	226.55
946.03	226.58
946.33	226.57
946.62	226.56
946.92	226.59
947.22	226.59
947.52	226.60
947.82	226.64
948.11	226.62
948.41	226.52
948.71	226.38
949.01	226.45
949.31	226.34
949.60	226.29
949.90	226.32
950.20	226.33
950.50	226.29
950.79	226.16
951.09	226.23
951.39	226.19
951.69	226.09
951.98	226.24
952.28	226.21
952.58	226.29
952.87	226.31
953.17	226.43
953.47	226.40
953.76	226.33
954.06	226.24
954.36	226.15
954.66	226.09
954.95	226.23
955.25	226.19
955.55	226.35
955.84	226.25
956.14	226.30
956.44	226.36
956.73	226.29
957.03	226.36
957.32	226.36
957.62	226.33
957.92	226.54
958.21	226.41
958.51	226.98
958.81	226.99
959.10	227.00
959.40	227.03
959.69	227.06
959.99	227.17
960.29	227.10
960.58	227.06
960.88	227.28
961.17	227.23
961.47	227.32
961.76	227.23
962.06	227.29
962.36	227.24
962.65	227.23
962.95	227.26
963.24	227.25
963.54	227.20
963.83	227.25
964.13	227.15
964.42	227.08
964.72	226.66
965.01	226.67
965.31	226.58
965.60	226.45
965.90	226.73
966.19	226.65
966.49	226.77
966.78	226.81
967.08	226.70
967.37	226.70
967.67	226.59
967.96	226.60
968.26	226.58
968.55	226.63
968.85	226.58
969.14	226.63
969.43	226.61
969.73	226.58
970.02	226.54
970.32	226.55
970.61	226.53
970.91	226.40
971.20	226.28
971.49	226.26
971.79	226.35
972.08	225.97
972.38	225.95
972.67	225.88
972.96	225.95
973.26	225.88
973.55	225.91
973.85	225.86
974.14	225.81
974.43	225.90
974.73	225.78
975.02	225.74
975.31	225.63
975.61	225.57
975.90	225.53
976.19	225.51
976.49	225.47
976.78	225.45
977.07	225.46
977.37	225.55
977.66	225.62
977.95	225.48
978.24	225.56
978.54	225.75
978.83	225.78
979.12	225.77
979.42	225.74
979.71	225.72
980.00	225.71
980.29	225.79
980.59	225.60
980.88	225.76
981.17	225.76
981.46	225.83
981.76	225.83
982.05	225.96
982.34	225.99
982.63	226.06
982.93	226.17
983.22	226.32
983.51	226.29
983.80	226.36
984.09	226.54
984.39	226.53
984.68	226.38
984.97	226.44
985.26	226.44
985.55	226.55
985.85	226.42
986.14	226.48
986.43	226.48
986.72	226.48
987.01	226.33
987.30	226.39
987.59	226.46
987.89	226.56
988.18	226.47
988.47	226.40
988.76	226.35
989.05	226.33
989.34	226.25
989.63	226.43
989.92	226.33
990.22	226.26
990.51	226.34
990.80	226.40
991.09	226.41
991.38	226.45
991.67	226.36
991.96	226.35
992.25	226.45
992.54	226.49
992.83	226.58
993.12	226.56
993.41	226.65
993.70	226.86
993.99	226.88
994.28	226.96
994.58	227.07
994.87	227.08
995.16	227.08
995.45	227.07
995.74	226.93
996.03	227.02
996.32	227.08
996.61	227.07
996.90	227.04
997.19	227.02
997.48	226.95
997.77	226.96
998.06	227.02
998.34	226.98
998.63	226.90
998.92	226.91
999.21	227.05
999.50	227.00
999.79	226.78
1000.08	226.81
1000.37	226.79
1000.66	226.79
1000.95	226.88
1001.24	226.93
1001.53	226.97
1001.82	226.93
1002.11	226.80
1002.40	226.90
1002.68	227.02
1002.97	227.34
1003.26	227.26
1003.55	227.23
1003.84	227.24
1004.13	227.37
1004.42	227.35
1004.71	227.39
1004.99	227.44
1005.28	227.51
1005.57	227.51
1005.86	227.39
1006.15	227.32
1006.44	227.24
1006.72	227.30
1007.01	227.11
1007.30	227.05
1007.59	226.97
1007.88	226.98
1008.17	226.98
1008.45	226.76
1008.74	226.59
1009.03	226.35
1009.32	226.42
1009.60	226.41
1009.89	226.39
1010.18	226.17
1010.47	226.10
1010.76	226.10
1011.04	226.01
1011.33	226.01
1011.62	226.01
1011.91	226.12
1012.19	226.03
1012.48	226.00
1012.77	225.91
1013.05	226.20
1013.34	226.25
1013.63	226.24
1013.92	226.21
1014.20	226.18
1014.49	226.26
1014.78	226.24
1015.06	226.05
1015.35	226.02
1015.64	226.04
1015.92	226.03
1016.21	226.10
1016.50	226.12
1016.78	226.14
1017.07	226.14
1017.36	226.00
1017.64	225.88
1017.93	225.85
1018.22	225.93
1018.50	225.98
1018.79	226.02
1019.08	225.80
1019.36	225.75
1019.65	225.72
1019.93	225.91
1020.22	226.06
1020.51	226.28
1020.79	226.27
1021.08	226.55
1021.36	225.60
1021.65	226.75
1021.94	226.40
1022.22	226.00
1022.51	225.70
1022.79	228.85
1023.08	227.45
1023.36	231.80
1023.65	225.30
>>>>>End Processed Spectral Data<<<<<
