SpectraSuite Data File
++++++++++++++++++++++++++++++++++++
Date: Wed Sep 04 18:04:21 EDT 2013
User: lab3
Dark Spectrum Present: Yes
Reference Spectrum Present: No
Number of Sampled Component Spectra: 1
Spectrometers: USB2E7196
Integration Time (usec): 170000 (USB2E7196)
Spectra Averaged: 20 (USB2E7196)
Boxcar Smoothing: 10 (USB2E7196)
Correct for Electrical Dark: No (USB2E7196)
Strobe/Lamp Enabled: No (USB2E7196)
Correct for Detector Non-linearity: No (USB2E7196)
Correct for Stray Light: No (USB2E7196)
Number of Pixels in Processed Spectrum: 2048
>>>>>Begin Processed Spectral Data<<<<<
339.09	0.00
339.48	213.35
339.86	214.70
340.24	216.50
340.63	218.05
341.01	226.70
341.39	220.55
341.78	223.65
342.16	223.80
342.54	223.90
342.93	212.94
343.31	223.63
343.69	224.18
344.07	224.70
344.46	225.20
344.84	225.59
345.22	225.54
345.60	225.77
345.99	225.90
346.37	226.02
346.75	226.10
347.13	226.15
347.52	226.22
347.90	226.32
348.28	226.31
348.66	226.43
349.05	226.20
349.43	226.28
349.81	226.44
350.19	226.51
350.57	226.52
350.96	226.61
351.34	226.80
351.72	226.86
352.10	226.95
352.48	226.97
352.87	227.04
353.25	227.06
353.63	227.13
354.01	227.18
354.39	227.28
354.77	227.37
355.15	227.49
355.54	227.47
355.92	227.41
356.30	227.56
356.68	227.98
357.06	228.08
357.44	228.06
357.82	228.07
358.20	228.54
358.58	228.65
358.97	228.75
359.35	228.85
359.73	229.06
360.11	229.09
360.49	229.18
360.87	229.19
361.25	229.35
361.63	229.55
362.01	229.58
362.39	229.54
362.77	229.60
363.15	229.65
363.53	229.70
363.91	229.70
364.29	229.73
364.67	229.25
365.05	229.38
365.43	229.47
365.81	229.56
366.19	229.40
366.57	229.62
366.95	229.54
367.33	229.43
367.71	229.37
368.09	229.50
368.47	229.46
368.85	229.50
369.23	229.58
369.61	229.33
369.99	229.56
370.37	229.63
370.75	229.88
371.13	229.80
371.51	229.73
371.89	229.81
372.27	229.83
372.65	229.86
373.03	229.81
373.41	229.77
373.78	229.69
374.16	229.46
374.54	229.31
374.92	229.30
375.30	229.26
375.68	229.19
376.06	229.15
376.44	229.06
376.82	229.00
377.19	228.89
377.57	228.91
377.95	228.60
378.33	228.46
378.71	228.13
379.09	228.11
379.47	228.12
379.84	227.92
380.22	227.77
380.60	227.63
380.98	227.46
381.36	227.34
381.73	227.20
382.11	227.17
382.49	227.06
382.87	226.91
383.25	226.84
383.62	227.30
384.00	227.08
384.38	227.07
384.76	227.00
385.13	227.11
385.51	227.06
385.89	226.93
386.27	226.99
386.64	226.96
387.02	226.83
387.40	226.68
387.78	226.68
388.15	226.63
388.53	226.49
388.91	226.49
389.29	226.43
389.66	226.52
390.04	226.42
390.42	226.50
390.79	226.51
391.17	226.52
391.55	225.97
391.92	225.98
392.30	226.03
392.68	226.01
393.05	226.05
393.43	226.08
393.81	226.17
394.18	226.13
394.56	226.15
394.94	226.33
395.31	226.41
395.69	226.61
396.06	226.72
396.44	226.82
396.82	226.89
397.19	227.20
397.57	227.18
397.95	227.33
398.32	227.26
398.70	227.40
399.07	227.59
399.45	227.69
399.82	227.80
400.20	227.84
400.58	227.96
400.95	227.78
401.33	228.03
401.70	228.55
402.08	228.69
402.45	228.87
402.83	229.07
403.20	229.24
403.58	229.41
403.95	229.64
404.33	229.92
404.71	230.11
405.08	230.54
405.46	230.81
405.83	231.05
406.21	231.30
406.58	231.65
406.96	231.89
407.33	232.25
407.70	232.63
408.08	233.39
408.45	233.86
408.83	234.42
409.20	234.78
409.58	234.90
409.95	235.47
410.33	235.96
410.70	236.36
411.08	236.92
411.45	237.46
411.82	238.12
412.20	238.99
412.57	239.97
412.95	240.37
413.32	241.24
413.69	242.02
414.07	242.95
414.44	243.92
414.82	244.94
415.19	246.10
415.56	247.30
415.94	248.26
416.31	249.73
416.68	251.13
417.06	252.68
417.43	254.36
417.81	256.02
418.18	257.84
418.55	259.76
418.93	261.89
419.30	264.02
419.67	266.27
420.04	268.38
420.42	270.72
420.79	273.70
421.16	276.46
421.54	279.62
421.91	282.62
422.28	285.70
422.66	289.03
423.03	292.46
423.40	295.77
423.77	299.37
424.15	302.98
424.52	306.84
424.89	311.09
425.26	315.05
425.64	318.90
426.01	323.06
426.38	327.53
426.75	332.13
427.13	336.72
427.50	341.51
427.87	346.47
428.24	351.40
428.61	355.95
428.99	361.25
429.36	366.67
429.73	372.21
430.10	377.77
430.47	383.41
430.85	389.18
431.22	395.56
431.59	402.40
431.96	408.68
432.33	415.75
432.70	422.35
433.08	430.22
433.45	437.80
433.82	445.17
434.19	453.41
434.56	461.52
434.93	469.29
435.30	477.08
435.68	485.75
436.05	494.17
436.42	502.58
436.79	510.42
437.16	518.82
437.53	527.59
437.90	536.30
438.27	544.95
438.64	553.77
439.01	561.93
439.38	569.09
439.75	576.26
440.13	584.22
440.50	591.81
440.87	597.96
441.24	604.25
441.61	611.39
441.98	616.51
442.35	622.22
442.72	628.29
443.09	634.19
443.46	637.61
443.83	640.04
444.20	642.07
444.57	644.63
444.94	645.71
445.31	646.83
445.68	648.08
446.05	648.24
446.42	646.95
446.79	645.60
447.16	643.91
447.53	642.60
447.90	638.85
448.27	635.20
448.64	630.25
449.01	626.61
449.37	620.33
449.74	614.14
450.11	607.29
450.48	599.45
450.85	591.38
451.22	584.51
451.59	577.87
451.96	571.41
452.33	563.26
452.70	555.95
453.07	547.41
453.43	538.45
453.80	529.97
454.17	521.85
454.54	514.07
454.91	505.98
455.28	497.88
455.65	490.38
456.02	483.45
456.38	477.13
456.75	469.25
457.12	462.82
457.49	456.56
457.86	450.23
458.23	445.06
458.59	439.26
458.96	433.47
459.33	428.32
459.70	423.21
460.07	419.17
460.43	414.44
460.80	410.11
461.17	406.35
461.54	402.43
461.91	398.77
462.27	394.86
462.64	391.65
463.01	388.12
463.38	384.73
463.74	380.72
464.11	377.72
464.48	375.01
464.85	372.10
465.21	370.03
465.58	367.62
465.95	364.76
466.32	362.53
466.68	360.27
467.05	358.02
467.42	355.95
467.78	353.63
468.15	351.35
468.52	349.63
468.88	347.34
469.25	345.35
469.62	343.86
469.98	342.22
470.35	340.54
470.72	339.05
471.08	337.45
471.45	336.28
471.82	334.99
472.18	333.60
472.55	332.55
472.92	331.09
473.28	330.01
473.65	328.83
474.02	327.76
474.38	326.92
474.75	326.08
475.11	325.19
475.48	324.56
475.85	323.91
476.21	323.25
476.58	322.72
476.94	322.31
477.31	321.72
477.67	321.34
478.04	321.02
478.41	320.85
478.77	321.10
479.14	320.73
479.50	320.57
479.87	320.62
480.23	320.59
480.60	320.63
480.96	320.71
481.33	321.19
481.69	321.44
482.06	321.63
482.42	321.97
482.79	322.31
483.15	322.75
483.52	323.51
483.88	324.07
484.25	324.75
484.61	325.37
484.98	326.07
485.34	327.02
485.71	328.07
486.07	328.95
486.44	329.52
486.80	330.67
487.17	331.89
487.53	333.26
487.90	334.80
488.26	336.50
488.62	338.23
488.99	339.72
489.35	341.39
489.72	343.21
490.08	345.21
490.44	347.25
490.81	349.47
491.17	351.65
491.54	354.10
491.90	356.66
492.26	359.43
492.63	362.35
492.99	365.26
493.36	368.33
493.72	371.66
494.08	375.19
494.45	378.90
494.81	382.76
495.17	386.62
495.54	390.68
495.90	394.80
496.26	399.11
496.63	403.73
496.99	408.50
497.35	413.62
497.72	418.89
498.08	424.40
498.44	430.10
498.80	436.17
499.17	442.23
499.53	448.49
499.89	455.02
500.26	461.76
500.62	468.72
500.98	476.19
501.34	483.62
501.71	491.45
502.07	499.40
502.43	507.40
502.79	515.84
503.16	524.63
503.52	533.82
503.88	543.11
504.24	552.99
504.60	563.00
504.97	573.40
505.33	583.90
505.69	594.89
506.05	605.95
506.41	616.99
506.78	628.62
507.14	640.69
507.50	653.17
507.86	665.69
508.22	678.67
508.59	691.63
508.95	705.35
509.31	719.52
509.67	733.51
510.03	748.04
510.39	762.83
510.75	777.98
511.12	793.20
511.48	808.74
511.84	824.30
512.20	840.35
512.56	856.53
512.92	873.32
513.28	890.05
513.64	907.45
514.00	925.20
514.37	943.13
514.73	961.24
515.09	979.64
515.45	998.22
515.81	1016.54
516.17	1035.49
516.53	1054.18
516.89	1072.89
517.25	1092.40
517.61	1112.67
517.97	1132.92
518.33	1152.85
518.69	1173.12
519.05	1193.80
519.41	1214.55
519.77	1235.67
520.13	1256.44
520.49	1277.27
520.85	1299.83
521.21	1320.82
521.57	1342.52
521.93	1363.28
522.29	1384.86
522.65	1405.36
523.01	1426.58
523.37	1447.67
523.73	1468.64
524.09	1489.57
524.45	1510.27
524.81	1531.47
525.17	1552.36
525.53	1573.09
525.89	1593.99
526.25	1614.82
526.61	1635.51
526.97	1656.64
527.33	1678.20
527.68	1699.85
528.04	1721.20
528.40	1741.09
528.76	1762.22
529.12	1782.16
529.48	1803.09
529.84	1823.01
530.20	1844.51
530.56	1865.16
530.91	1886.13
531.27	1906.89
531.63	1927.37
531.99	1948.40
532.35	1968.28
532.71	1988.32
533.07	2009.13
533.42	2029.25
533.78	2049.47
534.14	2069.24
534.50	2088.50
534.86	2107.53
535.21	2125.85
535.57	2144.55
535.93	2162.43
536.29	2180.25
536.65	2198.96
537.00	2216.73
537.36	2234.48
537.72	2251.03
538.08	2268.54
538.44	2285.36
538.79	2302.00
539.15	2319.01
539.51	2334.72
539.87	2350.61
540.22	2364.98
540.58	2379.22
540.94	2392.89
541.29	2405.64
541.65	2418.65
542.01	2431.43
542.37	2442.03
542.72	2452.88
543.08	2463.76
543.44	2475.41
543.79	2486.19
544.15	2495.80
544.51	2506.00
544.87	2516.12
545.22	2525.05
545.58	2532.73
545.94	2540.39
546.29	2547.07
546.65	2553.29
547.01	2559.27
547.36	2564.44
547.72	2569.93
548.07	2574.59
548.43	2579.92
548.79	2584.89
549.14	2588.72
549.50	2592.51
549.86	2596.90
550.21	2600.84
550.57	2603.95
550.92	2605.78
551.28	2607.23
551.64	2609.68
551.99	2611.83
552.35	2613.20
552.70	2615.11
553.06	2616.73
553.41	2617.55
553.77	2619.39
554.13	2621.34
554.48	2622.74
554.84	2624.55
555.19	2625.65
555.55	2627.13
555.90	2626.34
556.26	2625.55
556.61	2624.46
556.97	2622.76
557.32	2622.18
557.68	2621.02
558.03	2619.86
558.39	2618.78
558.74	2617.26
559.10	2614.26
559.45	2610.95
559.81	2606.59
560.16	2601.89
560.52	2597.39
560.87	2593.52
561.23	2587.87
561.58	2581.41
561.94	2574.74
562.29	2567.17
562.64	2560.53
563.00	2552.10
563.35	2545.89
563.71	2539.40
564.06	2533.15
564.42	2526.41
564.77	2519.38
565.12	2511.55
565.48	2503.72
565.83	2495.24
566.19	2487.97
566.54	2480.40
566.89	2472.16
567.25	2464.82
567.60	2457.40
567.96	2449.50
568.31	2441.23
568.66	2432.57
569.02	2423.89
569.37	2415.46
569.72	2407.83
570.08	2398.34
570.43	2389.01
570.78	2379.61
571.14	2370.18
571.49	2360.04
571.84	2350.44
572.20	2339.56
572.55	2329.62
572.90	2318.62
573.26	2308.44
573.61	2296.93
573.96	2285.85
574.31	2273.59
574.67	2261.23
575.02	2248.49
575.37	2235.68
575.72	2222.27
576.08	2210.10
576.43	2197.68
576.78	2184.80
577.13	2171.08
577.49	2158.49
577.84	2146.46
578.19	2133.94
578.54	2121.54
578.90	2109.51
579.25	2096.97
579.60	2084.64
579.95	2071.70
580.30	2058.52
580.66	2044.93
581.01	2031.21
581.36	2016.97
581.71	2004.39
582.06	1991.57
582.42	1978.83
582.77	1966.32
583.12	1954.15
583.47	1941.84
583.82	1929.63
584.17	1917.58
584.53	1905.78
584.88	1892.88
585.23	1879.53
585.58	1865.48
585.93	1851.78
586.28	1838.19
586.63	1824.07
586.98	1809.82
587.34	1796.70
587.69	1783.66
588.04	1771.02
588.39	1758.99
588.74	1746.71
589.09	1734.43
589.44	1721.55
589.79	1709.48
590.14	1697.66
590.49	1685.80
590.84	1673.45
591.19	1661.06
591.54	1648.66
591.89	1636.19
592.25	1625.70
592.60	1614.35
592.95	1603.12
593.30	1590.88
593.65	1578.88
594.00	1566.99
594.35	1557.17
594.70	1545.10
595.05	1533.59
595.40	1521.25
595.75	1509.05
596.10	1497.69
596.45	1486.48
596.80	1475.73
597.15	1464.26
597.50	1452.35
597.85	1440.63
598.19	1429.09
598.54	1417.45
598.89	1406.09
599.24	1395.61
599.59	1383.79
599.94	1372.79
600.29	1361.94
600.64	1351.48
600.99	1340.60
601.34	1330.93
601.69	1319.55
602.04	1309.42
602.39	1299.53
602.74	1290.47
603.08	1281.18
603.43	1271.87
603.78	1261.71
604.13	1251.79
604.48	1241.91
604.83	1232.19
605.18	1222.62
605.53	1213.03
605.87	1204.02
606.22	1195.38
606.57	1185.85
606.92	1176.44
607.27	1167.42
607.62	1158.96
607.96	1150.48
608.31	1142.49
608.66	1134.22
609.01	1125.36
609.36	1116.78
609.70	1107.97
610.05	1099.11
610.40	1090.36
610.75	1081.31
611.10	1072.95
611.44	1064.18
611.79	1055.72
612.14	1047.74
612.49	1039.71
612.83	1032.12
613.18	1024.19
613.53	1016.44
613.88	1008.36
614.22	1000.58
614.57	992.76
614.92	984.79
615.27	977.04
615.61	969.25
615.96	961.22
616.31	953.71
616.65	946.70
617.00	939.53
617.35	932.23
617.70	925.17
618.04	918.11
618.39	911.03
618.74	904.65
619.08	898.05
619.43	890.81
619.78	883.73
620.12	876.50
620.47	869.57
620.82	862.27
621.16	855.56
621.51	848.99
621.85	842.54
622.20	835.89
622.55	829.40
622.89	822.86
623.24	816.58
623.59	810.10
623.93	803.80
624.28	797.55
624.62	791.77
624.97	785.93
625.32	780.18
625.66	774.13
626.01	767.88
626.35	762.25
626.70	756.74
627.04	751.35
627.39	745.61
627.73	740.18
628.08	734.84
628.43	729.36
628.77	724.09
629.12	718.68
629.46	713.65
629.81	708.79
630.15	704.01
630.50	699.02
630.84	694.17
631.19	689.37
631.53	684.70
631.88	679.51
632.22	674.55
632.57	669.98
632.91	665.37
633.26	660.91
633.60	656.27
633.95	651.51
634.29	646.76
634.64	642.56
634.98	637.62
635.32	633.12
635.67	629.05
636.01	624.72
636.36	620.37
636.70	616.39
637.05	612.09
637.39	607.82
637.73	603.62
638.08	599.68
638.42	595.40
638.77	591.14
639.11	586.73
639.45	582.23
639.80	577.75
640.14	573.55
640.49	569.59
640.83	565.59
641.17	561.89
641.52	558.06
641.86	554.35
642.20	551.20
642.55	547.55
642.89	543.95
643.23	540.31
643.58	537.07
643.92	533.25
644.26	529.84
644.61	526.49
644.95	523.02
645.29	519.53
645.64	516.39
645.98	513.32
646.32	510.46
646.66	507.45
647.01	504.59
647.35	501.89
647.69	498.81
648.04	496.08
648.38	493.19
648.72	490.20
649.06	487.06
649.41	483.94
649.75	481.16
650.09	478.24
650.43	475.38
650.78	472.28
651.12	469.61
651.46	466.81
651.80	464.05
652.14	461.39
652.49	458.82
652.83	456.10
653.17	453.24
653.51	450.43
653.85	447.93
654.20	445.24
654.54	442.58
654.88	440.06
655.22	437.75
655.56	435.34
655.90	433.04
656.25	430.80
656.59	428.54
656.93	426.20
657.27	424.03
657.61	421.56
657.95	419.50
658.29	417.17
658.64	415.02
658.98	412.85
659.32	410.55
659.66	408.28
660.00	406.12
660.34	404.04
660.68	401.99
661.02	400.00
661.36	398.05
661.70	395.89
662.05	393.89
662.39	391.78
662.73	389.96
663.07	388.29
663.41	386.40
663.75	384.50
664.09	382.57
664.43	380.54
664.77	378.94
665.11	377.14
665.45	375.40
665.79	373.80
666.13	372.08
666.47	370.42
666.81	368.76
667.15	367.00
667.49	365.55
667.83	364.19
668.17	362.62
668.51	361.20
668.85	360.02
669.19	358.81
669.53	357.29
669.87	355.70
670.21	354.05
670.55	352.63
670.89	351.44
671.23	350.13
671.57	348.83
671.91	347.59
672.25	346.17
672.58	345.05
672.92	343.55
673.26	342.22
673.60	341.03
673.94	339.79
674.28	338.74
674.62	337.62
674.96	336.38
675.30	335.26
675.64	334.03
675.97	332.74
676.31	331.42
676.65	330.15
676.99	329.15
677.33	328.12
677.67	327.09
678.01	325.86
678.34	324.85
678.68	323.90
679.02	322.71
679.36	321.79
679.70	320.65
680.04	319.72
680.37	318.81
680.71	317.95
681.05	317.19
681.39	316.31
681.73	315.25
682.06	314.28
682.40	313.42
682.74	312.60
683.08	311.85
683.42	310.96
683.75	310.21
684.09	309.31
684.43	308.46
684.77	307.59
685.10	306.74
685.44	305.87
685.78	305.05
686.12	304.31
686.45	303.47
686.79	302.70
687.13	302.06
687.46	301.33
687.80	300.56
688.14	299.70
688.48	298.94
688.81	298.29
689.15	297.70
689.49	296.95
689.82	296.22
690.16	295.38
690.50	294.69
690.83	293.96
691.17	293.26
691.51	292.50
691.84	291.89
692.18	291.27
692.52	290.57
692.85	289.88
693.19	289.43
693.52	288.80
693.86	288.08
694.20	287.41
694.53	286.81
694.87	286.10
695.21	285.42
695.54	284.83
695.88	284.14
696.21	283.45
696.55	282.89
696.88	282.22
697.22	281.69
697.56	281.17
697.89	280.59
698.23	280.06
698.56	279.49
698.90	279.00
699.23	278.44
699.57	278.01
699.90	277.46
700.24	276.81
700.58	276.40
700.91	276.03
701.25	275.93
701.58	275.78
701.92	275.43
702.25	275.05
702.59	274.51
702.92	274.11
703.26	273.68
703.59	273.24
703.93	273.31
704.26	272.85
704.60	272.34
704.93	271.78
705.26	271.32
705.60	270.98
705.93	270.50
706.27	270.20
706.60	269.89
706.94	269.69
707.27	269.30
707.61	268.90
707.94	268.44
708.27	267.69
708.61	266.97
708.94	266.65
709.28	266.25
709.61	265.78
709.94	265.45
710.28	265.09
710.61	264.64
710.95	263.78
711.28	263.69
711.61	263.44
711.95	263.29
712.28	262.85
712.61	262.51
712.95	262.40
713.28	262.25
713.61	261.76
713.95	261.27
714.28	260.94
714.61	260.49
714.95	260.23
715.28	259.80
715.61	259.33
715.95	258.96
716.28	258.57
716.61	258.43
716.95	258.00
717.28	257.65
717.61	257.45
717.94	257.16
718.28	256.54
718.61	256.13
718.94	255.75
719.27	255.50
719.61	255.24
719.94	254.83
720.27	254.28
720.60	254.03
720.94	253.80
721.27	253.49
721.60	253.40
721.93	253.06
722.27	252.98
722.60	252.89
722.93	252.65
723.26	252.47
723.59	252.11
723.93	252.02
724.26	251.84
724.59	251.58
724.92	251.35
725.25	251.27
725.59	251.14
725.92	251.02
726.25	250.81
726.58	250.57
726.91	250.31
727.24	250.18
727.57	249.99
727.91	249.74
728.24	249.73
728.57	249.46
728.90	249.39
729.23	249.05
729.56	249.09
729.89	248.80
730.22	248.63
730.55	248.42
730.89	248.20
731.22	247.98
731.55	247.75
731.88	247.54
732.21	247.29
732.54	247.05
732.87	246.85
733.20	246.72
733.53	246.59
733.86	246.46
734.19	246.24
734.52	246.11
734.85	246.30
735.18	245.97
735.51	245.93
735.84	245.70
736.17	245.68
736.50	245.23
736.83	245.74
737.16	245.58
737.49	245.48
737.82	245.23
738.15	245.18
738.48	245.01
738.81	244.84
739.14	244.62
739.47	244.38
739.80	244.25
740.13	244.15
740.46	243.97
740.79	243.74
741.12	243.59
741.45	243.40
741.78	242.94
742.11	242.97
742.44	242.77
742.77	242.72
743.10	242.47
743.43	242.39
743.75	241.72
744.08	242.18
744.41	242.06
744.74	241.93
745.07	241.64
745.40	241.57
745.73	241.67
746.06	241.57
746.39	241.53
746.71	241.33
747.04	241.11
747.37	240.92
747.70	240.90
748.03	240.76
748.36	240.72
748.68	240.63
749.01	240.33
749.34	240.15
749.67	240.02
750.00	239.95
750.33	240.12
750.65	240.02
750.98	239.30
751.31	239.17
751.64	239.03
751.97	239.28
752.29	239.15
752.62	238.86
752.95	238.78
753.28	238.65
753.60	238.58
753.93	238.66
754.26	238.58
754.59	238.35
754.91	238.23
755.24	238.08
755.57	238.01
755.90	237.88
756.22	237.79
756.55	237.55
756.88	237.38
757.20	236.98
757.53	236.74
757.86	236.65
758.19	236.60
758.51	236.59
758.84	236.21
759.17	236.09
759.49	236.05
759.82	236.11
760.15	236.07
760.47	235.99
760.80	235.72
761.13	235.75
761.45	235.67
761.78	235.56
762.11	235.50
762.43	235.34
762.76	235.21
763.08	235.18
763.41	235.26
763.74	235.18
764.06	235.10
764.39	235.02
764.71	234.93
765.04	234.73
765.37	234.62
765.69	234.53
766.02	234.47
766.34	234.37
766.67	234.17
767.00	234.21
767.32	234.45
767.65	234.69
767.97	234.55
768.30	234.55
768.62	234.47
768.95	234.35
769.27	234.25
769.60	234.34
769.92	234.25
770.25	234.08
770.57	233.97
770.90	233.90
771.22	233.82
771.55	233.79
771.87	233.83
772.20	233.78
772.52	234.12
772.85	234.63
773.17	234.56
773.50	234.49
773.82	234.29
774.15	233.88
774.47	233.50
774.80	233.38
775.12	233.23
775.45	233.21
775.77	233.18
776.09	233.19
776.42	233.14
776.74	233.16
777.07	233.09
777.39	233.05
777.72	232.97
778.04	233.00
778.36	232.85
778.69	232.83
779.01	232.83
779.33	232.39
779.66	231.76
779.98	231.67
780.31	231.77
780.63	232.03
780.95	232.06
781.28	232.06
781.60	231.98
781.92	231.92
782.25	231.81
782.57	231.80
782.89	231.73
783.22	231.62
783.54	231.47
783.86	231.44
784.19	231.38
784.51	231.47
784.83	231.31
785.16	231.32
785.48	231.20
785.80	231.11
786.12	231.08
786.45	230.98
786.77	230.96
787.09	230.79
787.42	230.54
787.74	230.52
788.06	230.52
788.38	230.48
788.71	230.43
789.03	230.58
789.35	230.57
789.67	230.47
789.99	230.49
790.32	230.35
790.64	230.45
790.96	230.83
791.28	230.55
791.61	230.57
791.93	230.48
792.25	230.50
792.57	230.74
792.89	230.57
793.21	230.62
793.54	230.59
793.86	230.51
794.18	230.51
794.50	230.46
794.82	230.41
795.14	230.49
795.47	230.58
795.79	230.47
796.11	230.32
796.43	230.24
796.75	230.21
797.07	230.30
797.39	230.24
797.71	229.88
798.04	229.96
798.36	229.99
798.68	230.03
799.00	229.99
799.32	229.80
799.64	229.90
799.96	229.95
800.28	229.99
800.60	229.98
800.92	229.97
801.24	229.90
801.56	229.83
801.89	229.77
802.21	229.74
802.53	229.67
802.85	229.79
803.17	230.05
803.49	229.95
803.81	229.94
804.13	229.82
804.45	229.74
804.77	229.74
805.09	229.73
805.41	229.69
805.73	229.61
806.05	229.47
806.37	229.53
806.69	229.46
807.01	229.45
807.33	229.48
807.65	229.34
807.97	229.56
808.28	229.60
808.60	229.60
808.92	229.57
809.24	229.86
809.56	229.74
809.88	229.58
810.20	229.60
810.52	229.66
810.84	229.56
811.16	229.52
811.48	229.54
811.80	229.69
812.12	229.65
812.43	229.71
812.75	229.74
813.07	229.64
813.39	229.63
813.71	229.56
814.03	229.48
814.35	229.47
814.67	229.23
814.98	229.13
815.30	229.14
815.62	228.99
815.94	228.65
816.26	228.91
816.58	228.81
816.89	228.82
817.21	228.71
817.53	228.80
817.85	228.79
818.17	228.76
818.48	228.49
818.80	228.65
819.12	228.61
819.44	228.49
819.76	228.42
820.07	228.40
820.39	228.34
820.71	228.40
821.03	228.40
821.34	228.39
821.66	228.48
821.98	228.45
822.30	228.46
822.61	228.72
822.93	228.39
823.25	228.31
823.57	228.29
823.88	228.28
824.20	228.19
824.52	228.25
824.83	228.16
825.15	228.16
825.47	228.03
825.79	228.06
826.10	228.05
826.42	228.02
826.74	228.04
827.05	228.07
827.37	228.09
827.69	227.97
828.00	227.90
828.32	227.89
828.64	227.79
828.95	228.03
829.27	227.82
829.58	227.86
829.90	227.98
830.22	228.04
830.53	228.03
830.85	228.05
831.17	227.95
831.48	227.89
831.80	227.83
832.11	227.82
832.43	227.74
832.75	227.68
833.06	227.92
833.38	227.85
833.69	227.78
834.01	227.68
834.32	227.72
834.64	227.69
834.96	227.60
835.27	227.65
835.59	227.46
835.90	227.51
836.22	227.47
836.53	227.40
836.85	227.27
837.16	227.70
837.48	227.66
837.79	227.78
838.11	227.91
838.42	227.97
838.74	228.02
839.05	227.98
839.37	227.97
839.68	227.76
840.00	227.67
840.31	227.75
840.63	227.79
840.94	227.78
841.26	227.74
841.57	227.78
841.88	227.81
842.20	227.78
842.51	227.67
842.83	227.71
843.14	228.05
843.46	228.05
843.77	227.78
844.08	227.75
844.40	227.65
844.71	227.51
845.03	227.57
845.34	227.53
845.65	227.55
845.97	227.68
846.28	227.66
846.60	227.79
846.91	227.72
847.22	227.72
847.54	227.79
847.85	227.90
848.16	227.81
848.48	227.74
848.79	227.91
849.10	227.99
849.42	227.97
849.73	227.64
850.04	227.68
850.36	227.45
850.67	227.60
850.98	227.66
851.30	227.77
851.61	227.71
851.92	227.71
852.23	227.91
852.55	227.89
852.86	227.91
853.17	227.89
853.49	227.98
853.80	228.02
854.11	228.07
854.42	228.14
854.74	228.15
855.05	228.18
855.36	227.90
855.67	227.85
855.99	227.86
856.30	228.42
856.61	228.41
856.92	228.55
857.23	228.53
857.55	228.39
857.86	228.39
858.17	228.43
858.48	228.32
858.79	228.15
859.11	228.23
859.42	228.16
859.73	228.17
860.04	228.09
860.35	227.94
860.66	227.74
860.98	227.70
861.29	227.77
861.60	227.67
861.91	227.89
862.22	227.90
862.53	227.81
862.84	227.25
863.16	227.32
863.47	227.15
863.78	227.12
864.09	227.19
864.40	227.17
864.71	227.19
865.02	227.23
865.33	227.12
865.64	226.97
865.95	227.05
866.27	227.26
866.58	227.28
866.89	227.34
867.20	227.36
867.51	227.27
867.82	227.21
868.13	227.46
868.44	227.27
868.75	227.33
869.06	227.37
869.37	227.39
869.68	227.31
869.99	227.44
870.30	227.41
870.61	227.49
870.92	227.38
871.23	227.36
871.54	227.48
871.85	227.64
872.16	227.63
872.47	227.54
872.78	227.34
873.09	227.31
873.40	227.32
873.71	227.38
874.02	227.44
874.33	227.45
874.64	227.29
874.95	227.43
875.26	227.29
875.56	227.25
875.87	227.19
876.18	227.07
876.49	227.53
876.80	227.48
877.11	227.34
877.42	227.36
877.73	227.30
878.04	227.22
878.35	227.20
878.66	227.34
878.96	227.40
879.27	227.34
879.58	227.35
879.89	227.33
880.20	227.44
880.51	227.39
880.82	227.40
881.12	227.41
881.43	227.28
881.74	227.25
882.05	227.27
882.36	227.38
882.67	227.42
882.97	226.85
883.28	226.87
883.59	226.84
883.90	226.96
884.21	227.00
884.51	226.95
884.82	226.89
885.13	226.78
885.44	226.77
885.74	226.75
886.05	226.72
886.36	226.72
886.67	226.55
886.98	226.78
887.28	226.83
887.59	226.81
887.90	226.86
888.20	226.84
888.51	226.95
888.82	226.88
889.13	226.96
889.43	227.41
889.74	227.36
890.05	227.42
890.35	227.33
890.66	227.30
890.97	227.27
891.28	227.18
891.58	227.26
891.89	227.23
892.20	227.25
892.50	227.21
892.81	227.24
893.12	227.22
893.42	227.06
893.73	227.05
894.04	227.04
894.34	226.97
894.65	226.96
894.95	226.84
895.26	226.85
895.57	227.06
895.87	226.59
896.18	226.68
896.48	226.67
896.79	226.70
897.10	226.81
897.40	226.81
897.71	226.88
898.01	226.78
898.32	226.83
898.63	226.77
898.93	226.81
899.24	226.79
899.54	226.84
899.85	226.82
900.15	226.77
900.46	226.76
900.76	226.85
901.07	226.87
901.38	226.92
901.68	226.93
901.99	226.68
902.29	226.74
902.60	226.73
902.90	226.65
903.21	226.63
903.51	226.58
903.82	226.71
904.12	226.71
904.43	226.79
904.73	226.79
905.03	226.80
905.34	227.21
905.64	227.18
905.95	227.17
906.25	227.10
906.56	227.15
906.86	227.24
907.17	227.22
907.47	227.24
907.77	227.17
908.08	227.14
908.38	227.16
908.69	227.25
908.99	227.30
909.30	227.40
909.60	227.44
909.90	227.43
910.21	227.31
910.51	227.24
910.81	227.24
911.12	227.26
911.42	227.31
911.73	226.82
912.03	226.85
912.33	226.91
912.64	227.00
912.94	226.92
913.24	226.83
913.55	226.85
913.85	226.86
914.15	227.01
914.46	227.09
914.76	227.06
915.06	226.99
915.37	226.95
915.67	226.90
915.97	226.83
916.27	226.79
916.58	226.83
916.88	226.87
917.18	226.82
917.49	227.12
917.79	227.11
918.09	227.23
918.39	227.40
918.70	227.37
919.00	227.32
919.30	227.58
919.60	227.54
919.91	227.43
920.21	227.49
920.51	227.28
920.81	227.22
921.12	227.30
921.42	227.34
921.72	227.36
922.02	227.40
922.32	227.49
922.63	227.43
922.93	227.69
923.23	227.73
923.53	227.72
923.83	227.40
924.13	227.43
924.44	227.38
924.74	227.38
925.04	227.48
925.34	227.45
925.64	227.20
925.94	227.25
926.24	227.51
926.55	227.40
926.85	227.59
927.15	227.54
927.45	227.52
927.75	227.43
928.05	227.41
928.35	227.36
928.65	227.41
928.95	227.42
929.26	227.17
929.56	227.26
929.86	227.32
930.16	227.26
930.46	227.23
930.76	227.28
931.06	226.99
931.36	226.83
931.66	226.97
931.96	227.03
932.26	226.98
932.56	226.76
932.86	226.82
933.16	226.77
933.46	226.73
933.76	226.66
934.06	226.78
934.36	226.93
934.66	226.93
934.96	226.83
935.26	226.88
935.56	226.92
935.86	226.71
936.16	226.62
936.46	226.57
936.76	226.56
937.06	226.51
937.36	226.57
937.66	226.60
937.96	226.53
938.26	226.45
938.56	226.43
938.86	226.47
939.16	226.56
939.46	226.59
939.76	226.62
940.06	226.60
940.35	226.53
940.65	226.29
940.95	226.32
941.25	226.24
941.55	226.20
941.85	226.23
942.15	226.42
942.45	226.56
942.75	226.65
943.04	226.57
943.34	226.61
943.64	226.60
943.94	226.53
944.24	226.50
944.54	226.57
944.84	226.55
945.13	226.50
945.43	226.40
945.73	226.33
946.03	226.27
946.33	226.20
946.62	226.12
946.92	226.14
947.22	226.12
947.52	226.21
947.82	226.21
948.11	226.16
948.41	226.04
948.71	225.86
949.01	225.86
949.31	225.91
949.60	225.89
949.90	225.99
950.20	226.04
950.50	226.05
950.79	225.99
951.09	226.13
951.39	226.09
951.69	226.03
951.98	226.15
952.28	226.26
952.58	226.32
952.87	226.33
953.17	226.37
953.47	226.35
953.76	226.24
954.06	226.26
954.36	226.20
954.66	226.22
954.95	226.39
955.25	226.36
955.55	226.35
955.84	226.30
956.14	226.39
956.44	226.40
956.73	226.38
957.03	226.38
957.32	226.43
957.62	226.52
957.92	226.70
958.21	226.65
958.51	227.19
958.81	227.22
959.10	227.33
959.40	227.43
959.69	227.47
959.99	227.65
960.29	227.65
960.58	227.62
960.88	227.79
961.17	227.74
961.47	227.82
961.76	227.80
962.06	227.95
962.36	227.84
962.65	227.81
962.95	227.79
963.24	227.75
963.54	227.72
963.83	227.70
964.13	227.66
964.42	227.54
964.72	227.19
965.01	227.17
965.31	227.15
965.60	226.99
965.90	227.30
966.19	227.14
966.49	227.13
966.78	227.18
967.08	227.10
967.37	227.09
967.67	227.09
967.96	227.26
968.26	227.18
968.55	227.27
968.85	227.33
969.14	227.31
969.43	227.21
969.73	227.14
970.02	227.01
970.32	227.00
970.61	226.96
970.91	226.76
971.20	226.75
971.49	226.67
971.79	226.70
972.08	226.30
972.38	226.40
972.67	226.40
972.96	226.44
973.26	226.35
973.55	226.45
973.85	226.40
974.14	226.27
974.43	226.30
974.73	226.15
975.02	226.01
975.31	226.07
975.61	226.13
975.90	226.09
976.19	226.10
976.49	226.06
976.78	226.10
977.07	226.05
977.37	226.00
977.66	225.97
977.95	225.91
978.24	225.99
978.54	226.05
978.83	226.05
979.12	225.97
979.42	225.99
979.71	225.87
980.00	225.83
980.29	225.81
980.59	225.73
980.88	225.86
981.17	225.87
981.46	225.80
981.76	225.81
982.05	225.93
982.34	226.00
982.63	225.94
982.93	225.99
983.22	226.12
983.51	226.17
983.80	226.28
984.09	226.33
984.39	226.30
984.68	226.19
984.97	226.11
985.26	226.09
985.55	226.10
985.85	225.97
986.14	226.07
986.43	226.11
986.72	226.10
987.01	225.94
987.30	225.95
987.59	225.95
987.89	225.97
988.18	225.80
988.47	225.77
988.76	225.89
989.05	225.88
989.34	225.77
989.63	225.86
989.92	225.77
990.22	225.83
990.51	225.83
990.80	225.81
991.09	225.90
991.38	225.92
991.67	225.81
991.96	225.88
992.25	225.87
992.54	225.83
992.83	225.87
993.12	225.89
993.41	225.97
993.70	226.13
993.99	226.23
994.28	226.34
994.58	226.43
994.87	226.35
995.16	226.37
995.45	226.40
995.74	226.29
996.03	226.40
996.32	226.43
996.61	226.47
996.90	226.48
997.19	226.49
997.48	226.53
997.77	226.61
998.06	226.65
998.34	226.63
998.63	226.70
998.92	226.67
999.21	226.77
999.50	226.82
999.79	226.72
1000.08	226.72
1000.37	226.75
1000.66	226.71
1000.95	226.78
1001.24	226.76
1001.53	226.82
1001.82	226.83
1002.11	226.71
1002.40	226.75
1002.68	226.92
1002.97	227.24
1003.26	227.19
1003.55	227.16
1003.84	227.15
1004.13	227.26
1004.42	227.28
1004.71	227.27
1004.99	227.23
1005.28	227.37
1005.57	227.32
1005.86	227.25
1006.15	227.15
1006.44	227.05
1006.72	227.07
1007.01	226.99
1007.30	226.98
1007.59	226.90
1007.88	226.87
1008.17	226.95
1008.45	226.82
1008.74	226.61
1009.03	226.45
1009.32	226.34
1009.60	226.28
1009.89	226.21
1010.18	226.03
1010.47	225.93
1010.76	225.90
1011.04	225.89
1011.33	225.81
1011.62	225.83
1011.91	225.87
1012.19	225.97
1012.48	225.99
1012.77	225.96
1013.05	226.22
1013.34	226.25
1013.63	226.25
1013.92	226.32
1014.20	226.24
1014.49	226.19
1014.78	226.24
1015.06	226.08
1015.35	226.22
1015.64	226.34
1015.92	226.40
1016.21	226.44
1016.50	226.44
1016.78	226.46
1017.07	226.51
1017.36	226.45
1017.64	226.40
1017.93	226.42
1018.22	226.30
1018.50	226.31
1018.79	226.33
1019.08	226.03
1019.36	226.03
1019.65	226.00
1019.93	226.09
1020.22	226.22
1020.51	226.53
1020.79	226.45
1021.08	224.70
1021.36	225.95
1021.65	226.25
1021.94	225.25
1022.22	226.70
1022.51	225.35
1022.79	228.25
1023.08	228.00
1023.36	231.35
1023.65	224.80
>>>>>End Processed Spectral Data<<<<<
