SpectraSuite Data File
++++++++++++++++++++++++++++++++++++
Date: Wed Sep 04 17:57:37 EDT 2013
User: lab3
Dark Spectrum Present: Yes
Reference Spectrum Present: No
Number of Sampled Component Spectra: 1
Spectrometers: USB2E7196
Integration Time (usec): 170000 (USB2E7196)
Spectra Averaged: 20 (USB2E7196)
Boxcar Smoothing: 10 (USB2E7196)
Correct for Electrical Dark: No (USB2E7196)
Strobe/Lamp Enabled: No (USB2E7196)
Correct for Detector Non-linearity: No (USB2E7196)
Correct for Stray Light: No (USB2E7196)
Number of Pixels in Processed Spectrum: 2048
>>>>>Begin Processed Spectral Data<<<<<
339.09	0.00
339.48	212.80
339.86	214.60
340.24	216.45
340.63	217.55
341.01	226.35
341.39	219.75
341.78	222.70
342.16	224.15
342.54	223.65
342.93	212.46
343.31	223.17
343.69	223.78
344.07	224.29
344.46	224.80
344.84	225.15
345.22	225.08
345.60	225.32
345.99	225.52
346.37	225.68
346.75	225.80
347.13	225.87
347.52	225.94
347.90	226.18
348.28	226.22
348.66	226.35
349.05	226.23
349.43	226.30
349.81	226.35
350.19	226.48
350.57	226.55
350.96	226.62
351.34	226.72
351.72	226.82
352.10	226.92
352.48	226.91
352.87	227.01
353.25	227.09
353.63	227.25
354.01	227.24
354.39	227.25
354.77	227.27
355.15	227.43
355.54	227.48
355.92	227.25
356.30	227.33
356.68	227.64
357.06	227.77
357.44	227.81
357.82	227.93
358.20	228.37
358.58	228.38
358.97	228.47
359.35	228.65
359.73	228.75
360.11	228.74
360.49	228.82
360.87	228.84
361.25	228.95
361.63	229.19
362.01	229.24
362.39	229.27
362.77	229.47
363.15	229.49
363.53	229.51
363.91	229.71
364.29	229.77
364.67	229.42
365.05	229.44
365.43	229.58
365.81	229.65
366.19	229.52
366.57	229.71
366.95	229.74
367.33	229.62
367.71	229.63
368.09	229.75
368.47	229.79
368.85	229.87
369.23	229.98
369.61	229.73
369.99	229.87
370.37	229.92
370.75	230.05
371.13	230.00
371.51	230.00
371.89	230.00
372.27	229.92
372.65	229.94
373.03	229.92
373.41	229.86
373.78	229.73
374.16	229.40
374.54	229.21
374.92	229.06
375.30	228.98
375.68	228.84
376.06	228.80
376.44	228.70
376.82	228.60
377.19	228.50
377.57	228.46
377.95	228.30
378.33	228.22
378.71	227.93
379.09	227.87
379.47	227.75
379.84	227.60
380.22	227.51
380.60	227.30
380.98	227.20
381.36	227.07
381.73	226.98
382.11	227.02
382.49	227.01
382.87	226.93
383.25	226.86
383.62	227.31
384.00	227.15
384.38	227.02
384.76	227.07
385.13	227.21
385.51	227.15
385.89	227.02
386.27	226.96
386.64	226.87
387.02	226.77
387.40	226.71
387.78	226.71
388.15	226.70
388.53	226.70
388.91	226.66
389.29	226.60
389.66	226.62
390.04	226.47
390.42	226.54
390.79	226.53
391.17	226.59
391.55	226.03
391.92	226.07
392.30	226.18
392.68	226.05
393.05	225.99
393.43	226.02
393.81	226.09
394.18	226.02
394.56	226.08
394.94	226.24
395.31	226.30
395.69	226.45
396.06	226.50
396.44	226.59
396.82	226.57
397.19	226.85
397.57	226.81
397.95	227.00
398.32	226.86
398.70	226.96
399.07	227.12
399.45	227.27
399.82	227.37
400.20	227.44
400.58	227.59
400.95	227.50
401.33	227.69
401.70	228.09
402.08	228.26
402.45	228.38
402.83	228.47
403.20	228.65
403.58	228.73
403.95	229.04
404.33	229.20
404.71	229.45
405.08	229.95
405.46	230.17
405.83	230.45
406.21	230.79
406.58	231.15
406.96	231.30
407.33	231.62
407.70	232.04
408.08	232.72
408.45	233.16
408.83	233.70
409.20	234.05
409.58	234.24
409.95	234.80
410.33	235.35
410.70	235.86
411.08	236.43
411.45	237.03
411.82	237.59
412.20	238.47
412.57	239.42
412.95	239.80
413.32	240.80
413.69	241.56
414.07	242.47
414.44	243.40
414.82	244.48
415.19	245.65
415.56	246.77
415.94	247.75
416.31	249.15
416.68	250.52
417.06	252.18
417.43	253.78
417.81	255.56
418.18	257.48
418.55	259.36
418.93	261.40
419.30	263.56
419.67	265.86
420.04	268.08
420.42	270.47
420.79	273.51
421.16	276.25
421.54	279.30
421.91	282.31
422.28	285.55
422.66	288.82
423.03	292.26
423.40	295.70
423.77	299.29
424.15	302.86
424.52	306.64
424.89	310.74
425.26	314.75
425.64	318.48
426.01	322.62
426.38	327.06
426.75	331.63
427.13	336.18
427.50	340.84
427.87	345.87
428.24	350.70
428.61	355.24
428.99	360.61
429.36	366.09
429.73	371.63
430.10	377.05
430.47	382.93
430.85	388.60
431.22	394.72
431.59	401.56
431.96	407.89
432.33	414.84
432.70	421.58
433.08	429.44
433.45	437.02
433.82	444.43
434.19	452.71
434.56	460.87
434.93	468.60
435.30	476.41
435.68	485.05
436.05	493.68
436.42	502.10
436.79	509.81
437.16	518.26
437.53	527.06
437.90	535.81
438.27	544.34
438.64	553.26
439.01	561.51
439.38	568.70
439.75	575.95
440.13	584.13
440.50	591.66
440.87	597.73
441.24	603.99
441.61	611.09
441.98	616.21
442.35	622.05
442.72	628.19
443.09	633.99
443.46	637.25
443.83	639.54
444.20	641.32
444.57	644.04
444.94	645.09
445.31	646.37
445.68	647.82
446.05	647.98
446.42	646.72
446.79	645.47
447.16	643.86
447.53	642.42
447.90	638.66
448.27	635.09
448.64	630.31
449.01	626.51
449.37	620.22
449.74	614.16
450.11	607.26
450.48	599.32
450.85	591.21
451.22	584.35
451.59	577.63
451.96	571.44
452.33	563.25
452.70	555.86
453.07	546.97
453.43	537.61
453.80	529.16
454.17	521.05
454.54	513.29
454.91	505.16
455.28	497.26
455.65	489.74
456.02	482.82
456.38	476.35
456.75	468.63
457.12	462.01
457.49	455.65
457.86	449.14
458.23	444.06
458.59	438.40
458.96	432.59
459.33	427.51
459.70	422.41
460.07	418.20
460.43	413.50
460.80	409.31
461.17	405.68
461.54	401.68
461.91	397.86
462.27	393.94
462.64	390.57
463.01	386.86
463.38	383.59
463.74	379.42
464.11	376.52
464.48	373.92
464.85	371.11
465.21	368.90
465.58	366.62
465.95	363.74
466.32	361.62
466.68	359.41
467.05	357.06
467.42	354.90
467.78	352.67
468.15	350.53
468.52	348.90
468.88	346.66
469.25	344.75
469.62	343.31
469.98	341.61
470.35	340.04
470.72	338.67
471.08	336.82
471.45	335.63
471.82	334.30
472.18	332.82
472.55	331.79
472.92	330.47
473.28	329.42
473.65	328.30
474.02	327.10
474.38	326.21
474.75	325.52
475.11	324.60
475.48	323.96
475.85	323.27
476.21	322.58
476.58	322.09
476.94	321.67
477.31	321.27
477.67	320.84
478.04	320.52
478.41	320.30
478.77	320.61
479.14	320.34
479.50	320.25
479.87	320.33
480.23	320.35
480.60	320.37
480.96	320.35
481.33	320.74
481.69	321.06
482.06	321.28
482.42	321.52
482.79	321.78
483.15	322.23
483.52	322.94
483.88	323.37
484.25	323.85
484.61	324.47
484.98	325.07
485.34	326.09
485.71	327.04
486.07	327.97
486.44	328.53
486.80	329.69
487.17	330.75
487.53	332.20
487.90	333.58
488.26	335.27
488.62	336.98
488.99	338.46
489.35	340.16
489.72	341.96
490.08	344.02
490.44	346.17
490.81	348.45
491.17	350.75
491.54	353.27
491.90	355.93
492.26	358.63
492.63	361.45
492.99	364.23
493.36	367.40
493.72	370.81
494.08	374.27
494.45	377.91
494.81	381.80
495.17	385.55
495.54	389.77
495.90	393.97
496.26	398.43
496.63	403.15
496.99	407.75
497.35	412.98
497.72	418.27
498.08	423.75
498.44	429.30
498.80	435.20
499.17	441.24
499.53	447.50
499.89	454.19
500.26	461.15
500.62	468.21
500.98	475.54
501.34	482.96
501.71	490.78
502.07	498.54
502.43	506.66
502.79	515.18
503.16	523.86
503.52	532.79
503.88	542.04
504.24	551.69
504.60	561.90
504.97	572.12
505.33	582.55
505.69	593.62
506.05	604.62
506.41	615.96
506.78	627.82
507.14	639.98
507.50	652.20
507.86	664.67
508.22	677.65
508.59	690.66
508.95	704.26
509.31	718.46
509.67	733.01
510.03	747.17
510.39	761.93
510.75	777.05
511.12	792.41
511.48	808.25
511.84	824.00
512.20	840.02
512.56	856.45
512.92	873.29
513.28	890.03
513.64	907.51
514.00	924.92
514.37	942.48
514.73	960.43
515.09	978.95
515.45	997.44
515.81	1015.84
516.17	1034.98
516.53	1053.74
516.89	1072.49
517.25	1091.90
517.61	1112.51
517.97	1132.82
518.33	1152.90
518.69	1173.22
519.05	1193.67
519.41	1214.31
519.77	1235.42
520.13	1256.13
520.49	1276.59
520.85	1299.15
521.21	1320.48
521.57	1341.74
521.93	1362.80
522.29	1384.24
522.65	1404.57
523.01	1425.56
523.37	1446.57
523.73	1467.39
524.09	1488.17
524.45	1508.78
524.81	1529.62
525.17	1550.31
525.53	1570.84
525.89	1591.98
526.25	1613.03
526.61	1633.29
526.97	1654.68
527.33	1675.90
527.68	1697.61
528.04	1719.07
528.40	1738.92
528.76	1759.79
529.12	1780.39
529.48	1801.22
529.84	1821.29
530.20	1842.75
530.56	1863.87
530.91	1884.74
531.27	1905.34
531.63	1925.78
531.99	1946.55
532.35	1966.87
532.71	1986.95
533.07	2007.94
533.42	2027.83
533.78	2047.66
534.14	2068.07
534.50	2087.29
534.86	2106.64
535.21	2124.56
535.57	2143.22
535.93	2160.66
536.29	2178.61
536.65	2196.97
537.00	2214.73
537.36	2232.82
537.72	2249.32
538.08	2266.14
538.44	2282.82
538.79	2299.25
539.15	2315.93
539.51	2331.94
539.87	2346.85
540.22	2360.84
540.58	2375.20
540.94	2388.47
541.29	2401.36
541.65	2413.75
542.01	2426.28
542.37	2436.48
542.72	2447.32
543.08	2458.12
543.44	2469.67
543.79	2479.38
544.15	2489.23
544.51	2499.02
544.87	2508.43
545.22	2517.13
545.58	2525.29
545.94	2532.59
546.29	2539.12
546.65	2545.70
547.01	2551.22
547.36	2556.94
547.72	2562.63
548.07	2566.59
548.43	2572.06
548.79	2576.87
549.14	2580.88
549.50	2584.43
549.86	2588.85
550.21	2592.99
550.57	2596.45
550.92	2598.11
551.28	2599.38
551.64	2601.60
551.99	2603.92
552.35	2605.40
552.70	2607.47
553.06	2608.89
553.41	2609.99
553.77	2611.55
554.13	2613.01
554.48	2614.98
554.84	2616.42
555.19	2617.80
555.55	2619.46
555.90	2618.64
556.26	2617.58
556.61	2616.08
556.97	2613.85
557.32	2613.44
557.68	2612.21
558.03	2610.56
558.39	2609.20
558.74	2608.80
559.10	2605.67
559.45	2601.83
559.81	2597.48
560.16	2592.22
560.52	2587.35
560.87	2583.11
561.23	2577.88
561.58	2571.84
561.94	2564.70
562.29	2557.48
562.64	2550.34
563.00	2541.97
563.35	2535.22
563.71	2528.52
564.06	2522.28
564.42	2516.01
564.77	2508.98
565.12	2501.45
565.48	2493.58
565.83	2485.53
566.19	2477.41
566.54	2469.69
566.89	2461.86
567.25	2454.25
567.60	2447.64
567.96	2440.10
568.31	2432.31
568.66	2423.68
569.02	2414.94
569.37	2406.87
569.72	2399.26
570.08	2389.74
570.43	2380.26
570.78	2371.50
571.14	2362.31
571.49	2352.01
571.84	2342.45
572.20	2331.68
572.55	2321.59
572.90	2310.94
573.26	2300.62
573.61	2289.22
573.96	2277.72
574.31	2265.67
574.67	2253.65
575.02	2240.56
575.37	2227.84
575.72	2214.35
576.08	2202.30
576.43	2189.35
576.78	2176.25
577.13	2162.30
577.49	2149.78
577.84	2138.20
578.19	2125.73
578.54	2112.68
578.90	2100.73
579.25	2088.15
579.60	2075.48
579.95	2062.39
580.30	2049.31
580.66	2036.01
581.01	2022.96
581.36	2009.54
581.71	1996.64
582.06	1983.70
582.42	1971.23
582.77	1958.63
583.12	1946.68
583.47	1934.37
583.82	1922.42
584.17	1910.20
584.53	1898.40
584.88	1885.67
585.23	1871.98
585.58	1857.91
585.93	1844.80
586.28	1831.58
586.63	1817.69
586.98	1803.41
587.34	1790.01
587.69	1776.58
588.04	1763.72
588.39	1751.35
588.74	1738.81
589.09	1726.66
589.44	1713.85
589.79	1701.73
590.14	1689.60
590.49	1677.43
590.84	1665.20
591.19	1653.10
591.54	1640.97
591.89	1628.64
592.25	1618.25
592.60	1606.80
592.95	1595.38
593.30	1583.34
593.65	1571.19
594.00	1559.15
594.35	1549.32
594.70	1537.50
595.05	1526.16
595.40	1514.36
595.75	1502.38
596.10	1491.21
596.45	1479.74
596.80	1468.91
597.15	1457.46
597.50	1445.51
597.85	1433.99
598.19	1422.38
598.54	1410.60
598.89	1399.15
599.24	1388.64
599.59	1377.01
599.94	1366.23
600.29	1355.60
600.64	1345.33
600.99	1334.58
601.34	1325.39
601.69	1313.85
602.04	1303.91
602.39	1294.25
602.74	1284.88
603.08	1275.49
603.43	1266.09
603.78	1256.30
604.13	1246.53
604.48	1236.83
604.83	1227.22
605.18	1217.40
605.53	1207.83
605.87	1199.08
606.22	1190.46
606.57	1181.05
606.92	1171.32
607.27	1162.23
607.62	1153.50
607.96	1144.96
608.31	1137.08
608.66	1128.09
609.01	1119.56
609.36	1111.07
609.70	1102.25
610.05	1093.61
610.40	1085.09
610.75	1076.06
611.10	1067.84
611.44	1059.29
611.79	1051.05
612.14	1043.24
612.49	1035.32
612.83	1027.80
613.18	1019.68
613.53	1011.83
613.88	1003.99
614.22	996.45
614.57	988.40
614.92	980.51
615.27	972.81
615.61	965.01
615.96	957.53
616.31	950.08
616.65	942.91
617.00	935.71
617.35	928.37
617.70	921.25
618.04	914.29
618.39	907.07
618.74	900.78
619.08	893.88
619.43	886.87
619.78	879.91
620.12	872.60
620.47	865.71
620.82	858.79
621.16	851.85
621.51	845.56
621.85	839.42
622.20	832.90
622.55	826.30
622.89	819.78
623.24	813.30
623.59	807.00
623.93	800.55
624.28	794.21
624.62	788.60
624.97	782.75
625.32	776.95
625.66	770.89
626.01	764.52
626.35	758.79
626.70	753.00
627.04	747.60
627.39	742.01
627.73	736.78
628.08	731.39
628.43	725.88
628.77	720.23
629.12	714.98
629.46	710.07
629.81	705.50
630.15	700.77
630.50	695.90
630.84	690.90
631.19	686.24
631.53	681.71
631.88	676.27
632.22	671.12
632.57	666.71
632.91	662.25
633.26	657.90
633.60	653.16
633.95	648.64
634.29	643.88
634.64	639.58
634.98	634.64
635.32	630.14
635.67	626.16
636.01	621.96
636.36	617.61
636.70	613.52
637.05	609.05
637.39	604.89
637.73	600.76
638.08	596.72
638.42	592.37
638.77	588.15
639.11	584.00
639.45	579.80
639.80	575.27
640.14	571.25
640.49	567.17
640.83	563.38
641.17	559.67
641.52	556.03
641.86	552.33
642.20	549.24
642.55	545.65
642.89	542.00
643.23	538.28
643.58	535.08
643.92	531.25
644.26	527.79
644.61	524.49
644.95	521.09
645.29	517.76
645.64	514.62
645.98	511.44
646.32	508.41
646.66	505.51
647.01	502.60
647.35	499.69
647.69	496.74
648.04	494.02
648.38	491.23
648.72	488.36
649.06	485.32
649.41	482.23
649.75	479.34
650.09	476.50
650.43	473.85
650.78	470.89
651.12	468.12
651.46	465.46
651.80	462.65
652.14	459.99
652.49	457.59
652.83	455.02
653.17	452.43
653.51	449.75
653.85	447.24
654.20	444.77
654.54	442.15
654.88	439.66
655.22	437.39
655.56	434.84
655.90	432.40
656.25	430.16
656.59	427.92
656.93	425.74
657.27	423.67
657.61	421.24
657.95	418.95
658.29	416.79
658.64	414.65
658.98	412.38
659.32	410.04
659.66	407.71
660.00	405.56
660.34	403.48
660.68	401.56
661.02	399.51
661.36	397.49
661.70	395.49
662.05	393.42
662.39	391.35
662.73	389.71
663.07	388.14
663.41	386.27
663.75	384.33
664.09	382.43
664.43	380.40
664.77	378.67
665.11	376.90
665.45	375.21
665.79	373.53
666.13	371.88
666.47	370.35
666.81	368.83
667.15	367.13
667.49	365.62
667.83	364.26
668.17	362.82
668.51	361.30
668.85	359.95
669.19	358.78
669.53	357.19
669.87	355.55
670.21	353.92
670.55	352.57
670.89	351.52
671.23	350.17
671.57	348.84
671.91	347.55
672.25	346.26
672.58	345.08
672.92	343.69
673.26	342.40
673.60	341.17
673.94	339.87
674.28	338.75
674.62	337.54
674.96	336.17
675.30	334.91
675.64	333.80
675.97	332.60
676.31	331.29
676.65	330.11
676.99	329.17
677.33	328.05
677.67	326.98
678.01	325.55
678.34	324.48
678.68	323.57
679.02	322.55
679.36	321.48
679.70	320.38
680.04	319.35
680.37	318.37
680.71	317.40
681.05	316.51
681.39	315.59
681.73	314.65
682.06	313.79
682.40	312.91
682.74	311.99
683.08	311.26
683.42	310.39
683.75	309.62
684.09	308.60
684.43	307.78
684.77	306.83
685.10	306.03
685.44	305.30
685.78	304.40
686.12	303.58
686.45	302.75
686.79	301.87
687.13	301.25
687.46	300.54
687.80	299.87
688.14	299.05
688.48	298.26
688.81	297.49
689.15	296.76
689.49	295.93
689.82	295.27
690.16	294.37
690.50	293.62
690.83	292.91
691.17	292.23
691.51	291.54
691.84	290.97
692.18	290.29
692.52	289.52
692.85	288.94
693.19	288.50
693.52	287.97
693.86	287.40
694.20	286.72
694.53	286.15
694.87	285.47
695.21	284.88
695.54	284.29
695.88	283.67
696.21	282.90
696.55	282.30
696.88	281.69
697.22	281.06
697.56	280.60
697.89	279.96
698.23	279.47
698.56	278.91
698.90	278.40
699.23	277.85
699.57	277.36
699.90	276.84
700.24	276.20
700.58	275.66
700.91	275.27
701.25	275.08
701.58	274.88
701.92	274.61
702.25	274.21
702.59	273.80
702.92	273.43
703.26	273.09
703.59	272.75
703.93	272.68
704.26	272.33
704.60	271.89
704.93	271.46
705.26	270.85
705.60	270.43
705.93	269.84
706.27	269.61
706.60	269.23
706.94	269.02
707.27	268.55
707.61	268.20
707.94	267.80
708.27	267.10
708.61	266.37
708.94	265.84
709.28	265.42
709.61	265.03
709.94	264.65
710.28	264.34
710.61	264.00
710.95	263.21
711.28	263.18
711.61	262.78
711.95	262.59
712.28	262.30
712.61	261.99
712.95	261.99
713.28	261.80
713.61	261.41
713.95	260.82
714.28	260.53
714.61	260.12
714.95	259.80
715.28	259.35
715.61	259.02
715.95	258.68
716.28	258.30
716.61	258.00
716.95	257.62
717.28	257.24
717.61	256.95
717.94	256.64
718.28	255.93
718.61	255.63
718.94	255.18
719.27	254.91
719.61	254.66
719.94	254.25
720.27	253.73
720.60	253.50
720.94	253.28
721.27	253.07
721.60	252.91
721.93	252.56
722.27	252.52
722.60	252.37
722.93	252.05
723.26	251.79
723.59	251.51
723.93	251.33
724.26	251.15
724.59	250.81
724.92	250.67
725.25	250.57
725.59	250.29
725.92	250.16
726.25	249.88
726.58	249.70
726.91	249.50
727.24	249.33
727.57	249.11
727.91	248.80
728.24	248.66
728.57	248.35
728.90	248.23
729.23	247.86
729.56	247.90
729.89	247.84
730.22	247.70
730.55	247.48
730.89	247.35
731.22	247.07
731.55	246.85
731.88	246.62
732.21	246.41
732.54	246.20
732.87	246.05
733.20	245.93
733.53	245.73
733.86	245.46
734.19	245.30
734.52	245.21
734.85	245.41
735.18	245.21
735.51	245.24
735.84	245.12
736.17	245.10
736.50	244.66
736.83	245.00
737.16	244.90
737.49	244.83
737.82	244.54
738.15	244.53
738.48	244.46
738.81	244.35
739.14	244.19
739.47	244.04
739.80	243.92
740.13	243.85
740.46	243.59
740.79	243.45
741.12	243.27
741.45	243.00
741.78	242.61
742.11	242.58
742.44	242.33
742.77	242.30
743.10	242.07
743.43	241.93
743.75	241.31
744.08	241.74
744.41	241.54
744.74	241.52
745.07	241.30
745.40	241.28
745.73	241.40
746.06	241.34
746.39	241.37
746.71	241.24
747.04	241.04
747.37	240.97
747.70	240.98
748.03	240.96
748.36	240.99
748.68	240.92
749.01	240.58
749.34	240.47
749.67	240.27
750.00	240.22
750.33	240.46
750.65	240.40
750.98	239.75
751.31	239.67
751.64	239.55
751.97	239.65
752.29	239.49
752.62	239.15
752.95	239.00
753.28	238.84
753.60	238.67
753.93	238.71
754.26	238.68
754.59	238.38
754.91	238.20
755.24	238.02
755.57	237.82
755.90	237.83
756.22	237.71
756.55	237.54
756.88	237.41
757.20	237.01
757.53	236.73
757.86	236.57
758.19	236.46
758.51	236.32
758.84	236.04
759.17	235.85
759.49	235.79
759.82	235.83
760.15	235.76
760.47	235.63
760.80	235.38
761.13	235.36
761.45	235.32
761.78	235.15
762.11	235.07
762.43	234.92
762.76	234.79
763.08	234.78
763.41	234.72
763.74	234.61
764.06	234.53
764.39	234.46
764.71	234.35
765.04	234.25
765.37	234.08
765.69	233.98
766.02	233.92
766.34	233.80
766.67	233.58
767.00	233.54
767.32	233.74
767.65	233.96
767.97	233.74
768.30	233.70
768.62	233.71
768.95	233.52
769.27	233.48
769.60	233.43
769.92	233.28
770.25	233.15
770.57	233.00
770.90	232.82
771.22	232.80
771.55	232.76
771.87	232.76
772.20	232.71
772.52	233.00
772.85	233.47
773.17	233.42
773.50	233.32
773.82	233.22
774.15	232.89
774.47	232.51
774.80	232.48
775.12	232.39
775.45	232.33
775.77	232.39
776.09	232.37
776.42	232.30
776.74	232.40
777.07	232.32
777.39	232.29
777.72	232.24
778.04	232.20
778.36	232.04
778.69	231.99
779.01	232.00
779.33	231.58
779.66	231.03
779.98	230.89
780.31	230.91
780.63	231.11
780.95	231.15
781.28	231.13
781.60	231.03
781.92	230.99
782.25	230.92
782.57	230.89
782.89	230.76
783.22	230.75
783.54	230.52
783.86	230.57
784.19	230.52
784.51	230.70
784.83	230.58
785.16	230.61
785.48	230.60
785.80	230.51
786.12	230.56
786.45	230.49
786.77	230.60
787.09	230.56
787.42	230.28
787.74	230.34
788.06	230.33
788.38	230.32
788.71	230.30
789.03	230.37
789.35	230.35
789.67	230.32
789.99	230.33
790.32	230.32
790.64	230.32
790.96	230.71
791.28	230.50
791.61	230.54
791.93	230.55
792.25	230.49
792.57	230.83
792.89	230.67
793.21	230.76
793.54	230.61
793.86	230.49
794.18	230.54
794.50	230.38
794.82	230.37
795.14	230.44
795.47	230.49
795.79	230.41
796.11	230.34
796.43	230.34
796.75	230.31
797.07	230.30
797.39	230.21
797.71	229.95
798.04	229.96
798.36	229.94
798.68	229.91
799.00	229.90
799.32	229.62
799.64	229.76
799.96	229.73
800.28	229.85
800.60	229.77
800.92	229.71
801.24	229.72
801.56	229.80
801.89	229.78
802.21	229.83
802.53	229.72
802.85	229.77
803.17	229.97
803.49	229.89
803.81	229.93
804.13	229.89
804.45	229.78
804.77	229.81
805.09	229.75
805.41	229.70
805.73	229.66
806.05	229.67
806.37	229.57
806.69	229.49
807.01	229.42
807.33	229.49
807.65	229.37
807.97	229.53
808.28	229.45
808.60	229.40
808.92	229.25
809.24	229.63
809.56	229.54
809.88	229.31
810.20	229.29
810.52	229.30
810.84	229.24
811.16	229.15
811.48	229.06
811.80	229.21
812.12	229.20
812.43	229.21
812.75	229.15
813.07	229.13
813.39	229.16
813.71	229.10
814.03	229.06
814.35	229.10
814.67	228.88
814.98	228.81
815.30	228.75
815.62	228.66
815.94	228.26
816.26	228.51
816.58	228.47
816.89	228.52
817.21	228.42
817.53	228.42
817.85	228.47
818.17	228.47
818.48	228.31
818.80	228.33
819.12	228.24
819.44	228.13
819.76	228.01
820.07	227.95
820.39	227.94
820.71	227.91
821.03	227.86
821.34	227.87
821.66	227.91
821.98	227.96
822.30	227.93
822.61	228.17
822.93	227.88
823.25	227.87
823.57	227.81
823.88	227.79
824.20	227.74
824.52	227.82
824.83	227.80
825.15	227.71
825.47	227.72
825.79	227.71
826.10	227.69
826.42	227.73
826.74	227.79
827.05	227.79
827.37	227.80
827.69	227.77
828.00	227.71
828.32	227.64
828.64	227.65
828.95	227.85
829.27	227.80
829.58	227.75
829.90	227.82
830.22	227.86
830.53	227.86
830.85	227.85
831.17	227.69
831.48	227.64
831.80	227.70
832.11	227.70
832.43	227.65
832.75	227.64
833.06	227.86
833.38	227.66
833.69	227.61
834.01	227.58
834.32	227.54
834.64	227.55
834.96	227.60
835.27	227.53
835.59	227.50
835.90	227.36
836.22	227.41
836.53	227.30
836.85	227.14
837.16	227.58
837.48	227.68
837.79	227.84
838.11	227.94
838.42	227.98
838.74	228.01
839.05	227.98
839.37	228.01
839.68	227.78
840.00	227.86
840.31	227.97
840.63	227.97
840.94	227.92
841.26	227.88
841.57	227.85
841.88	227.87
842.20	227.76
842.51	227.72
842.83	227.70
843.14	228.15
843.46	228.28
843.77	227.97
844.08	227.84
844.40	227.72
844.71	227.67
845.03	227.60
845.34	227.52
845.65	227.48
845.97	227.48
846.28	227.50
846.60	227.53
846.91	227.38
847.22	227.40
847.54	227.50
847.85	227.55
848.16	227.47
848.48	227.41
848.79	227.58
849.10	227.63
849.42	227.58
849.73	227.16
850.04	227.11
850.36	226.98
850.67	227.16
850.98	227.12
851.30	227.08
851.61	227.04
851.92	227.04
852.23	227.21
852.55	227.19
852.86	227.22
853.17	227.15
853.49	227.31
853.80	227.41
854.11	227.48
854.42	227.48
854.74	227.49
855.05	227.46
855.36	227.25
855.67	227.29
855.99	227.32
856.30	227.92
856.61	227.87
856.92	227.89
857.23	227.78
857.55	227.71
857.86	227.77
858.17	227.83
858.48	227.80
858.79	227.72
859.11	227.73
859.42	227.63
859.73	227.57
860.04	227.42
860.35	227.31
860.66	227.11
860.98	227.12
861.29	227.18
861.60	227.15
861.91	227.21
862.22	227.14
862.53	227.05
862.84	226.48
863.16	226.61
863.47	226.52
863.78	226.52
864.09	226.61
864.40	226.55
864.71	226.52
865.02	226.54
865.33	226.55
865.64	226.54
865.95	226.57
866.27	226.90
866.58	226.90
866.89	226.92
867.20	226.97
867.51	226.88
867.82	226.80
868.13	227.01
868.44	226.94
868.75	226.94
869.06	227.06
869.37	227.07
869.68	226.91
869.99	226.96
870.30	226.99
870.61	227.02
870.92	227.03
871.23	227.03
871.54	227.11
871.85	227.23
872.16	227.24
872.47	227.21
872.78	227.00
873.09	227.10
873.40	227.05
873.71	227.10
874.02	227.13
874.33	227.12
874.64	227.00
874.95	227.01
875.26	226.95
875.56	226.88
875.87	226.86
876.18	226.84
876.49	227.36
876.80	227.30
877.11	227.23
877.42	227.30
877.73	227.31
878.04	227.27
878.35	227.27
878.66	227.27
878.96	227.27
879.27	227.22
879.58	227.22
879.89	227.21
880.20	227.35
880.51	227.31
880.82	227.27
881.12	227.29
881.43	227.30
881.74	227.26
882.05	227.23
882.36	227.29
882.67	227.43
882.97	226.92
883.28	226.93
883.59	226.93
883.90	226.93
884.21	226.99
884.51	226.91
884.82	226.81
885.13	226.80
885.44	226.80
885.74	226.89
886.05	226.80
886.36	226.83
886.67	226.65
886.98	226.96
887.28	227.12
887.59	227.13
887.90	227.18
888.20	227.20
888.51	227.35
888.82	227.23
889.13	227.25
889.43	227.60
889.74	227.58
890.05	227.53
890.35	227.53
890.66	227.46
890.97	227.48
891.28	227.47
891.58	227.58
891.89	227.59
892.20	227.51
892.50	227.51
892.81	227.45
893.12	227.43
893.42	227.15
893.73	227.10
894.04	227.11
894.34	227.10
894.65	227.11
894.95	227.05
895.26	227.13
895.57	227.35
895.87	226.94
896.18	227.08
896.48	227.17
896.79	227.14
897.10	227.16
897.40	227.15
897.71	227.19
898.01	227.05
898.32	227.08
898.63	227.06
898.93	227.10
899.24	227.16
899.54	227.19
899.85	227.23
900.15	227.18
900.46	227.19
900.76	227.16
901.07	227.13
901.38	227.15
901.68	227.11
901.99	226.81
902.29	226.81
902.60	226.71
902.90	226.68
903.21	226.60
903.51	226.65
903.82	226.74
904.12	226.67
904.43	226.74
904.73	226.67
905.03	226.64
905.34	227.11
905.64	227.06
905.95	227.04
906.25	227.00
906.56	227.04
906.86	226.98
907.17	226.97
907.47	227.00
907.77	226.88
908.08	226.87
908.38	226.92
908.69	226.95
908.99	226.99
909.30	227.00
909.60	226.99
909.90	227.00
910.21	226.81
910.51	226.80
910.81	226.76
911.12	226.84
911.42	226.85
911.73	226.32
912.03	226.37
912.33	226.46
912.64	226.47
912.94	226.42
913.24	226.39
913.55	226.30
913.85	226.27
914.15	226.33
914.46	226.37
914.76	226.33
915.06	226.29
915.37	226.22
915.67	226.14
915.97	226.18
916.27	226.06
916.58	226.11
916.88	226.09
917.18	226.05
917.49	226.36
917.79	226.34
918.09	226.39
918.39	226.57
918.70	226.55
919.00	226.51
919.30	226.71
919.60	226.71
919.91	226.70
920.21	226.73
920.51	226.65
920.81	226.62
921.12	226.69
921.42	226.71
921.72	226.72
922.02	226.80
922.32	226.91
922.63	226.91
922.93	227.19
923.23	227.22
923.53	227.21
923.83	226.90
924.13	226.97
924.44	227.04
924.74	227.06
925.04	227.20
925.34	227.25
925.64	227.05
925.94	227.08
926.24	227.44
926.55	227.46
926.85	227.55
927.15	227.55
927.45	227.52
927.75	227.53
928.05	227.61
928.35	227.50
928.65	227.49
928.95	227.52
929.26	227.39
929.56	227.49
929.86	227.51
930.16	227.52
930.46	227.45
930.76	227.40
931.06	227.20
931.36	227.05
931.66	227.12
931.96	227.17
932.26	227.15
932.56	226.87
932.86	226.89
933.16	226.87
933.46	226.89
933.76	226.86
934.06	226.99
934.36	227.10
934.66	227.12
934.96	227.05
935.26	227.10
935.56	227.05
935.86	226.99
936.16	226.97
936.46	226.91
936.76	226.94
937.06	226.84
937.36	226.81
937.66	226.85
937.96	226.82
938.26	226.69
938.56	226.67
938.86	226.73
939.16	226.77
939.46	226.84
939.76	226.81
940.06	226.81
940.35	226.64
940.65	226.45
940.95	226.60
941.25	226.52
941.55	226.47
941.85	226.48
942.15	226.59
942.45	226.70
942.75	226.67
943.04	226.71
943.34	226.85
943.64	226.93
943.94	226.78
944.24	226.77
944.54	226.85
944.84	226.82
945.13	226.80
945.43	226.79
945.73	226.75
946.03	226.73
946.33	226.65
946.62	226.67
946.92	226.64
947.22	226.65
947.52	226.77
947.82	226.79
948.11	226.74
948.41	226.60
948.71	226.48
949.01	226.54
949.31	226.48
949.60	226.46
949.90	226.50
950.20	226.51
950.50	226.47
950.79	226.45
951.09	226.53
951.39	226.51
951.69	226.40
951.98	226.54
952.28	226.58
952.58	226.65
952.87	226.62
953.17	226.65
953.47	226.59
953.76	226.51
954.06	226.49
954.36	226.44
954.66	226.43
954.95	226.56
955.25	226.53
955.55	226.60
955.84	226.46
956.14	226.46
956.44	226.51
956.73	226.46
957.03	226.51
957.32	226.45
957.62	226.38
957.92	226.52
958.21	226.44
958.51	226.95
958.81	226.92
959.10	227.00
959.40	227.14
959.69	227.13
959.99	227.16
960.29	227.13
960.58	227.08
960.88	227.27
961.17	227.16
961.47	227.20
961.76	227.14
962.06	227.30
962.36	227.20
962.65	227.23
962.95	227.24
963.24	227.14
963.54	227.19
963.83	227.25
964.13	227.19
964.42	227.00
964.72	226.72
965.01	226.69
965.31	226.57
965.60	226.40
965.90	226.74
966.19	226.60
966.49	226.64
966.78	226.64
967.08	226.57
967.37	226.67
967.67	226.56
967.96	226.66
968.26	226.63
968.55	226.72
968.85	226.63
969.14	226.60
969.43	226.64
969.73	226.65
970.02	226.59
970.32	226.54
970.61	226.55
970.91	226.29
971.20	226.32
971.49	226.36
971.79	226.39
972.08	226.00
972.38	226.08
972.67	226.03
972.96	226.12
973.26	226.02
973.55	226.06
973.85	226.03
974.14	225.97
974.43	225.96
974.73	225.89
975.02	225.91
975.31	225.95
975.61	225.98
975.90	225.82
976.19	225.82
976.49	225.81
976.78	225.94
977.07	225.94
977.37	225.93
977.66	225.90
977.95	225.84
978.24	225.86
978.54	225.95
978.83	225.98
979.12	225.96
979.42	225.99
979.71	225.91
980.00	226.02
980.29	226.04
980.59	225.99
980.88	226.06
981.17	226.06
981.46	226.04
981.76	226.03
982.05	226.28
982.34	226.31
982.63	226.40
982.93	226.30
983.22	226.42
983.51	226.45
983.80	226.61
984.09	226.65
984.39	226.72
984.68	226.68
984.97	226.66
985.26	226.62
985.55	226.67
985.85	226.58
986.14	226.55
986.43	226.58
986.72	226.53
987.01	226.43
987.30	226.40
987.59	226.35
987.89	226.39
988.18	226.29
988.47	226.28
988.76	226.21
989.05	226.19
989.34	226.18
989.63	226.26
989.92	226.17
990.22	226.16
990.51	226.05
990.80	225.95
991.09	225.94
991.38	226.01
991.67	225.98
991.96	225.95
992.25	226.01
992.54	225.93
992.83	225.99
993.12	225.97
993.41	226.10
993.70	226.30
993.99	226.33
994.28	226.35
994.58	226.43
994.87	226.32
995.16	226.32
995.45	226.25
995.74	226.13
996.03	226.18
996.32	226.25
996.61	226.35
996.90	226.38
997.19	226.34
997.48	226.35
997.77	226.24
998.06	226.30
998.34	226.29
998.63	226.27
998.92	226.25
999.21	226.36
999.50	226.27
999.79	226.10
1000.08	226.02
1000.37	226.02
1000.66	225.87
1000.95	225.97
1001.24	225.99
1001.53	226.07
1001.82	226.06
1002.11	225.92
1002.40	225.91
1002.68	226.07
1002.97	226.47
1003.26	226.46
1003.55	226.40
1003.84	226.46
1004.13	226.60
1004.42	226.53
1004.71	226.60
1004.99	226.53
1005.28	226.57
1005.57	226.56
1005.86	226.55
1006.15	226.60
1006.44	226.45
1006.72	226.58
1007.01	226.60
1007.30	226.69
1007.59	226.68
1007.88	226.67
1008.17	226.73
1008.45	226.68
1008.74	226.52
1009.03	226.26
1009.32	226.28
1009.60	226.29
1009.89	226.24
1010.18	226.06
1010.47	226.12
1010.76	226.06
1011.04	226.08
1011.33	226.09
1011.62	226.11
1011.91	226.14
1012.19	226.11
1012.48	226.21
1012.77	226.22
1013.05	226.38
1013.34	226.29
1013.63	226.17
1013.92	226.23
1014.20	226.23
1014.49	226.23
1014.78	226.23
1015.06	226.07
1015.35	226.06
1015.64	226.15
1015.92	226.27
1016.21	226.31
1016.50	226.24
1016.78	226.33
1017.07	226.40
1017.36	226.34
1017.64	226.30
1017.93	226.39
1018.22	226.40
1018.50	226.40
1018.79	226.33
1019.08	226.11
1019.36	226.19
1019.65	226.21
1019.93	226.28
1020.22	226.37
1020.51	226.67
1020.79	226.64
1021.08	226.25
1021.36	226.10
1021.65	225.90
1021.94	225.35
1022.22	226.55
1022.51	225.65
1022.79	228.20
1023.08	227.65
1023.36	232.45
1023.65	225.95
>>>>>End Processed Spectral Data<<<<<
