SpectraSuite Data File
++++++++++++++++++++++++++++++++++++
Date: Wed Sep 04 17:40:30 EDT 2013
User: lab3
Dark Spectrum Present: Yes
Reference Spectrum Present: No
Number of Sampled Component Spectra: 1
Spectrometers: USB2E7196
Integration Time (usec): 170000 (USB2E7196)
Spectra Averaged: 20 (USB2E7196)
Boxcar Smoothing: 10 (USB2E7196)
Correct for Electrical Dark: No (USB2E7196)
Strobe/Lamp Enabled: No (USB2E7196)
Correct for Detector Non-linearity: No (USB2E7196)
Correct for Stray Light: No (USB2E7196)
Number of Pixels in Processed Spectrum: 2048
>>>>>Begin Processed Spectral Data<<<<<
339.09	0.00
339.48	212.20
339.86	212.65
340.24	214.20
340.63	216.90
341.01	225.95
341.39	219.90
341.78	221.40
342.16	222.30
342.54	222.30
342.93	211.68
343.31	222.32
343.69	222.94
344.07	223.47
344.46	223.94
344.84	224.33
345.22	224.27
345.60	224.52
345.99	224.66
346.37	224.83
346.75	225.00
347.13	225.05
347.52	225.05
347.90	225.23
348.28	225.27
348.66	225.32
349.05	225.20
349.43	225.29
349.81	225.37
350.19	225.33
350.57	225.27
350.96	225.40
351.34	225.46
351.72	225.49
352.10	225.60
352.48	225.67
352.87	225.74
353.25	225.80
353.63	225.77
354.01	225.87
354.39	225.93
354.77	225.92
355.15	226.17
355.54	226.20
355.92	226.07
356.30	226.09
356.68	226.47
357.06	226.59
357.44	226.58
357.82	226.61
358.20	227.12
358.58	227.17
358.97	227.20
359.35	227.42
359.73	227.53
360.11	227.58
360.49	227.65
360.87	227.66
361.25	227.79
361.63	228.01
362.01	228.09
362.39	228.07
362.77	228.24
363.15	228.21
363.53	228.31
363.91	228.42
364.29	228.46
364.67	228.05
365.05	228.19
365.43	228.24
365.81	228.28
366.19	228.05
366.57	228.32
366.95	228.33
367.33	228.20
367.71	228.26
368.09	228.37
368.47	228.38
368.85	228.39
369.23	228.40
369.61	228.28
369.99	228.42
370.37	228.50
370.75	228.66
371.13	228.63
371.51	228.45
371.89	228.46
372.27	228.47
372.65	228.45
373.03	228.38
373.41	228.30
373.78	228.26
374.16	228.04
374.54	227.79
374.92	227.75
375.30	227.73
375.68	227.56
376.06	227.57
376.44	227.46
376.82	227.52
377.19	227.53
377.57	227.44
377.95	227.20
378.33	227.11
378.71	226.70
379.09	226.63
379.47	226.73
379.84	226.61
380.22	226.55
380.60	226.46
380.98	226.32
381.36	226.31
381.73	226.17
382.11	226.22
382.49	226.18
382.87	225.96
383.25	225.85
383.62	226.38
384.00	226.16
384.38	226.13
384.76	226.08
385.13	226.12
385.51	226.12
385.89	226.01
386.27	225.94
386.64	226.02
387.02	225.97
387.40	225.86
387.78	225.87
388.15	225.90
388.53	225.78
388.91	225.76
389.29	225.59
389.66	225.65
390.04	225.55
390.42	225.64
390.79	225.73
391.17	225.77
391.55	225.23
391.92	225.24
392.30	225.30
392.68	225.17
393.05	225.13
393.43	225.11
393.81	225.17
394.18	225.15
394.56	225.21
394.94	225.35
395.31	225.32
395.69	225.47
396.06	225.49
396.44	225.61
396.82	225.60
397.19	226.03
397.57	226.01
397.95	226.12
398.32	226.10
398.70	226.15
399.07	226.28
399.45	226.33
399.82	226.37
400.20	226.40
400.58	226.52
400.95	226.40
401.33	226.54
401.70	226.93
402.08	227.02
402.45	227.10
402.83	227.25
403.20	227.39
403.58	227.43
403.95	227.64
404.33	227.83
404.71	228.05
405.08	228.46
405.46	228.69
405.83	228.96
406.21	229.20
406.58	229.51
406.96	229.70
407.33	229.98
407.70	230.36
408.08	231.01
408.45	231.37
408.83	231.85
409.20	232.22
409.58	232.31
409.95	232.86
410.33	233.28
410.70	233.64
411.08	234.20
411.45	234.69
411.82	235.13
412.20	235.86
412.57	236.75
412.95	236.93
413.32	237.62
413.69	238.27
414.07	239.00
414.44	239.78
414.82	240.61
415.19	241.63
415.56	242.51
415.94	243.28
416.31	244.49
416.68	245.61
417.06	246.96
417.43	248.41
417.81	249.87
418.18	251.40
418.55	252.91
418.93	254.55
419.30	256.30
419.67	258.23
420.04	260.03
420.42	261.88
420.79	264.52
421.16	266.90
421.54	269.53
421.91	271.95
422.28	274.54
422.66	277.33
423.03	280.25
423.40	283.05
423.77	286.05
424.15	289.07
424.52	292.28
424.89	295.81
425.26	299.05
425.64	302.19
426.01	305.64
426.38	309.31
426.75	313.15
427.13	316.93
427.50	320.90
427.87	324.96
428.24	329.00
428.61	332.69
428.99	337.14
429.36	341.53
429.73	346.22
430.10	350.81
430.47	355.57
430.85	360.18
431.22	365.44
431.59	371.28
431.96	376.44
432.33	382.32
432.70	387.88
433.08	394.45
433.45	400.60
433.82	406.82
434.19	413.69
434.56	420.39
434.93	426.75
435.30	433.23
435.68	440.45
436.05	447.47
436.42	454.29
436.79	460.68
437.16	467.71
437.53	474.88
437.90	482.07
438.27	489.21
438.64	496.57
439.01	503.38
439.38	509.13
439.75	515.08
440.13	521.56
440.50	527.75
440.87	532.82
441.24	538.11
441.61	543.82
441.98	547.96
442.35	552.75
442.72	557.88
443.09	562.79
443.46	565.64
443.83	567.51
444.20	569.25
444.57	571.45
444.94	572.38
445.31	573.31
445.68	574.57
446.05	574.71
446.42	573.55
446.79	572.62
447.16	571.35
447.53	570.31
447.90	567.27
448.27	564.23
448.64	560.13
449.01	557.12
449.37	552.10
449.74	547.26
450.11	541.85
450.48	535.44
450.85	528.60
451.22	522.91
451.59	517.56
451.96	512.41
452.33	505.79
452.70	499.80
453.07	492.72
453.43	485.15
453.80	478.13
454.17	471.59
454.54	465.02
454.91	458.27
455.28	451.73
455.65	445.68
456.02	440.18
456.38	435.06
456.75	428.52
457.12	423.08
457.49	417.78
457.86	412.24
458.23	407.98
458.59	403.46
458.96	398.69
459.33	394.41
459.70	390.14
460.07	386.68
460.43	382.73
460.80	379.22
461.17	376.17
461.54	372.96
461.91	369.92
462.27	366.75
462.64	364.05
463.01	361.12
463.38	358.45
463.74	354.96
464.11	352.40
464.48	350.39
464.85	348.13
465.21	346.45
465.58	344.65
465.95	342.30
466.32	340.40
466.68	338.52
467.05	336.73
467.42	334.98
467.78	333.08
468.15	331.25
468.52	329.94
468.88	328.04
469.25	326.39
469.62	325.16
469.98	323.90
470.35	322.61
470.72	321.41
471.08	319.99
471.45	319.01
471.82	318.09
472.18	316.91
472.55	316.12
472.92	314.97
473.28	314.11
473.65	313.26
474.02	312.37
474.38	311.79
474.75	311.25
475.11	310.56
475.48	310.12
475.85	309.78
476.21	309.27
476.58	309.00
476.94	308.84
477.31	308.56
477.67	308.20
478.04	308.10
478.41	307.89
478.77	308.22
479.14	307.97
479.50	307.91
479.87	307.92
480.23	307.97
480.60	308.11
480.96	308.15
481.33	308.55
481.69	308.87
482.06	309.05
482.42	309.40
482.79	309.93
483.15	310.35
483.52	310.97
483.88	311.41
484.25	311.86
484.61	312.55
484.98	313.14
485.34	314.05
485.71	314.88
486.07	315.85
486.44	316.35
486.80	317.56
487.17	318.57
487.53	319.99
487.90	321.31
488.26	322.85
488.62	324.47
488.99	325.88
489.35	327.50
489.72	329.31
490.08	331.03
490.44	332.87
490.81	334.94
491.17	336.82
491.54	339.18
491.90	341.55
492.26	343.85
492.63	346.40
492.99	349.02
493.36	351.94
493.72	354.99
494.08	358.24
494.45	361.51
494.81	365.21
495.17	368.54
495.54	372.35
495.90	376.07
496.26	379.97
496.63	384.20
496.99	388.53
497.35	392.96
497.72	397.90
498.08	402.73
498.44	407.80
498.80	413.30
499.17	418.76
499.53	424.31
499.89	430.34
500.26	436.46
500.62	442.75
500.98	449.28
501.34	455.89
501.71	462.67
502.07	469.60
502.43	476.52
502.79	484.12
503.16	491.88
503.52	499.82
503.88	508.11
504.24	516.67
504.60	525.45
504.97	534.70
505.33	543.57
505.69	553.24
506.05	562.80
506.41	572.47
506.78	582.59
507.14	593.14
507.50	603.89
507.86	614.79
508.22	625.85
508.59	636.92
508.95	648.64
509.31	660.97
509.67	673.24
510.03	685.54
510.39	697.91
510.75	710.41
511.12	723.46
511.48	736.61
511.84	749.97
512.20	763.25
512.56	776.64
512.92	790.75
513.28	804.75
513.64	819.30
514.00	833.67
514.37	848.27
514.73	863.10
515.09	878.10
515.45	893.18
515.81	908.41
516.17	924.01
516.53	939.21
516.89	953.95
517.25	969.68
517.61	986.06
517.97	1002.55
518.33	1018.87
518.69	1035.07
519.05	1051.43
519.41	1067.86
519.77	1084.76
520.13	1101.50
520.49	1117.91
520.85	1135.91
521.21	1152.51
521.57	1169.57
521.93	1185.98
522.29	1202.68
522.65	1218.96
523.01	1235.58
523.37	1251.50
523.73	1267.70
524.09	1283.58
524.45	1299.47
524.81	1315.35
525.17	1331.13
525.53	1346.61
525.89	1362.43
526.25	1378.27
526.61	1393.57
526.97	1409.16
527.33	1424.96
527.68	1441.32
528.04	1457.27
528.40	1471.36
528.76	1486.82
529.12	1501.89
529.48	1517.35
529.84	1532.00
530.20	1547.14
530.56	1561.73
530.91	1576.87
531.27	1591.47
531.63	1606.53
531.99	1621.44
532.35	1635.74
532.71	1650.00
533.07	1664.78
533.42	1678.80
533.78	1692.42
534.14	1706.45
534.50	1719.65
534.86	1733.06
535.21	1744.76
535.57	1757.35
535.93	1769.31
536.29	1781.47
536.65	1793.73
537.00	1805.26
537.36	1816.99
537.72	1827.85
538.08	1839.19
538.44	1850.22
538.79	1860.85
539.15	1871.27
539.51	1881.51
539.87	1891.04
540.22	1899.38
540.58	1908.26
540.94	1916.20
541.29	1923.91
541.65	1931.47
542.01	1938.60
542.37	1944.23
542.72	1950.17
543.08	1955.59
543.44	1962.27
543.79	1967.15
544.15	1972.23
544.51	1977.46
544.87	1982.06
545.22	1986.34
545.58	1989.77
545.94	1992.22
546.29	1994.64
546.65	1996.67
547.01	1998.29
547.36	2000.19
547.72	2002.02
548.07	2002.24
548.43	2003.45
548.79	2004.35
549.14	2004.47
549.50	2005.06
549.86	2005.37
550.21	2005.68
550.57	2005.92
550.92	2004.23
551.28	2002.92
551.64	2001.92
551.99	2000.75
552.35	1999.54
552.70	1998.47
553.06	1997.23
553.41	1996.18
553.77	1995.00
554.13	1993.65
554.48	1992.59
554.84	1990.98
555.19	1989.68
555.55	1988.83
555.90	1986.23
556.26	1983.30
556.61	1980.05
556.97	1976.06
557.32	1973.30
557.68	1970.36
558.03	1967.01
558.39	1963.83
558.74	1961.07
559.10	1956.55
559.45	1951.77
559.81	1946.71
560.16	1940.62
560.52	1934.97
560.87	1929.55
561.23	1923.78
561.58	1918.11
561.94	1911.17
562.29	1904.08
562.64	1897.05
563.00	1889.12
563.35	1882.57
563.71	1876.03
564.06	1869.76
564.42	1863.58
564.77	1856.92
565.12	1850.04
565.48	1843.34
565.83	1836.32
566.19	1829.03
566.54	1822.12
566.89	1814.98
567.25	1808.29
567.60	1802.34
567.96	1795.99
568.31	1789.38
568.66	1782.10
569.02	1774.45
569.37	1767.44
569.72	1760.94
570.08	1753.34
570.43	1745.61
570.78	1738.21
571.14	1730.59
571.49	1722.40
571.84	1714.72
572.20	1706.41
572.55	1698.28
572.90	1689.35
573.26	1680.87
573.61	1672.11
573.96	1663.19
574.31	1653.90
574.67	1644.31
575.02	1634.25
575.37	1624.15
575.72	1613.92
576.08	1604.48
576.43	1594.61
576.78	1584.73
577.13	1574.60
577.49	1565.00
577.84	1555.95
578.19	1546.49
578.54	1537.10
578.90	1528.10
579.25	1518.93
579.60	1509.64
579.95	1500.05
580.30	1490.28
580.66	1480.63
581.01	1470.79
581.36	1460.73
581.71	1451.42
582.06	1442.09
582.42	1432.90
582.77	1423.77
583.12	1414.93
583.47	1406.15
583.82	1397.44
584.17	1388.60
584.53	1379.64
584.88	1370.17
585.23	1360.58
585.58	1350.64
585.93	1340.94
586.28	1331.38
586.63	1321.27
586.98	1311.08
587.34	1301.22
587.69	1291.83
588.04	1282.73
588.39	1274.26
588.74	1265.48
589.09	1257.04
589.44	1247.84
589.79	1239.42
590.14	1230.75
590.49	1221.98
590.84	1212.94
591.19	1204.43
591.54	1195.88
591.89	1187.34
592.25	1180.29
592.60	1172.42
592.95	1164.59
593.30	1156.43
593.65	1148.19
594.00	1139.86
594.35	1133.23
594.70	1125.15
595.05	1117.27
595.40	1109.10
595.75	1100.59
596.10	1092.91
596.45	1084.91
596.80	1077.43
597.15	1069.52
597.50	1061.55
597.85	1054.04
598.19	1046.26
598.54	1038.32
598.89	1030.62
599.24	1023.27
599.59	1015.18
599.94	1007.60
600.29	1000.19
600.64	993.16
600.99	985.87
601.34	979.31
601.69	971.31
602.04	964.78
602.39	958.19
602.74	951.97
603.08	945.65
603.43	939.43
603.78	932.83
604.13	926.50
604.48	919.91
604.83	913.39
605.18	906.74
605.53	900.34
605.87	894.02
606.22	888.16
606.57	882.00
606.92	875.82
607.27	869.91
607.62	864.28
607.96	858.54
608.31	853.16
608.66	847.58
609.01	841.75
609.36	836.08
609.70	830.15
610.05	824.13
610.40	818.38
610.75	812.20
611.10	806.52
611.44	800.62
611.79	795.12
612.14	789.90
612.49	784.47
612.83	779.64
613.18	774.43
613.53	769.09
613.88	763.67
614.22	758.42
614.57	753.04
614.92	747.39
615.27	742.20
615.61	736.99
615.96	731.66
616.31	726.75
616.65	721.84
617.00	717.09
617.35	712.20
617.70	707.27
618.04	702.62
618.39	697.79
618.74	693.54
619.08	688.79
619.43	683.95
619.78	679.12
620.12	674.09
620.47	669.56
620.82	664.91
621.16	660.39
621.51	656.05
621.85	651.74
622.20	647.51
622.55	643.05
622.89	638.57
623.24	634.45
623.59	630.18
623.93	625.92
624.28	621.81
624.62	618.20
624.97	614.41
625.32	610.55
625.66	606.58
626.01	602.28
626.35	598.66
626.70	594.95
627.04	591.58
627.39	587.84
627.73	584.22
628.08	580.73
628.43	576.95
628.77	573.22
629.12	569.57
629.46	566.26
629.81	563.04
630.15	559.74
630.50	556.21
630.84	552.84
631.19	549.50
631.53	546.30
631.88	542.44
632.22	539.15
632.57	536.10
632.91	533.10
633.26	530.21
633.60	527.10
633.95	523.90
634.29	520.53
634.64	517.52
634.98	514.31
635.32	511.41
635.67	508.81
636.01	505.91
636.36	503.06
636.70	500.29
637.05	497.36
637.39	494.58
637.73	491.90
638.08	489.19
638.42	486.32
638.77	483.33
639.11	480.43
639.45	477.35
639.80	474.23
640.14	471.40
640.49	468.61
640.83	465.86
641.17	463.44
641.52	460.92
641.86	458.43
642.20	456.38
642.55	453.82
642.89	451.26
643.23	448.78
643.58	446.67
643.92	444.09
644.26	441.80
644.61	439.58
644.95	437.30
645.29	434.90
645.64	432.87
645.98	430.73
646.32	428.82
646.66	426.75
647.01	424.69
647.35	422.79
647.69	420.83
648.04	418.97
648.38	417.00
648.72	415.12
649.06	413.07
649.41	410.80
649.75	408.71
650.09	406.89
650.43	405.02
650.78	402.90
651.12	400.95
651.46	399.01
651.80	397.10
652.14	395.28
652.49	393.81
652.83	391.99
653.17	390.20
653.51	388.26
653.85	386.75
654.20	385.12
654.54	383.40
654.88	381.56
655.22	380.04
655.56	378.44
655.90	376.81
656.25	375.23
656.59	373.71
656.93	372.19
657.27	370.55
657.61	368.97
657.95	367.40
658.29	365.93
658.64	364.55
658.98	363.02
659.32	361.46
659.66	359.79
660.00	358.44
660.34	357.14
660.68	355.84
661.02	354.39
661.36	353.03
661.70	351.63
662.05	350.28
662.39	348.90
662.73	347.63
663.07	346.53
663.41	345.35
663.75	344.05
664.09	342.77
664.43	341.42
664.77	340.21
665.11	339.00
665.45	337.87
665.79	336.70
666.13	335.46
666.47	334.18
666.81	333.08
667.15	331.71
667.49	330.56
667.83	329.55
668.17	328.33
668.51	327.27
668.85	326.25
669.19	325.49
669.53	324.26
669.87	323.01
670.21	321.78
670.55	320.72
670.89	319.88
671.23	318.95
671.57	318.03
671.91	317.14
672.25	316.19
672.58	315.33
672.92	314.25
673.26	313.46
673.60	312.75
673.94	311.87
674.28	311.09
674.62	310.21
674.96	309.31
675.30	308.61
675.64	307.75
675.97	306.85
676.31	305.92
676.65	305.02
676.99	304.44
677.33	303.62
677.67	302.81
678.01	301.80
678.34	301.05
678.68	300.40
679.02	299.59
679.36	298.87
679.70	298.09
680.04	297.43
680.37	296.69
680.71	295.94
681.05	295.33
681.39	294.68
681.73	294.00
682.06	293.32
682.40	292.60
682.74	292.06
683.08	291.58
683.42	290.82
683.75	290.40
684.09	289.68
684.43	289.15
684.77	288.53
685.10	287.92
685.44	287.32
685.78	286.70
686.12	286.09
686.45	285.47
686.79	284.84
687.13	284.33
687.46	283.78
687.80	283.40
688.14	282.77
688.48	282.23
688.81	281.78
689.15	281.41
689.49	280.85
689.82	280.29
690.16	279.54
690.50	279.14
690.83	278.56
691.17	277.98
691.51	277.52
691.84	277.06
692.18	276.60
692.52	276.05
692.85	275.62
693.19	275.40
693.52	274.96
693.86	274.41
694.20	274.02
694.53	273.61
694.87	273.05
695.21	272.58
695.54	272.19
695.88	271.65
696.21	271.02
696.55	270.66
696.88	270.27
697.22	269.79
697.56	269.33
697.89	268.83
698.23	268.46
698.56	267.99
698.90	267.71
699.23	267.34
699.57	267.03
699.90	266.54
700.24	265.93
700.58	265.60
700.91	265.39
701.25	265.31
701.58	265.27
701.92	265.03
702.25	264.65
702.59	264.29
702.92	264.04
703.26	263.76
703.59	263.50
703.93	263.58
704.26	263.44
704.60	263.21
704.93	262.96
705.26	262.55
705.60	262.34
705.93	261.92
706.27	261.80
706.60	261.62
706.94	261.54
707.27	261.28
707.61	261.03
707.94	260.70
708.27	260.10
708.61	259.45
708.94	259.09
709.28	258.84
709.61	258.53
709.94	258.24
710.28	257.92
710.61	257.60
710.95	256.90
711.28	256.92
711.61	256.54
711.95	256.28
712.28	256.10
712.61	255.75
712.95	255.72
713.28	255.58
713.61	255.15
713.95	254.68
714.28	254.47
714.61	254.10
714.95	253.83
715.28	253.42
715.61	253.13
715.95	252.83
716.28	252.46
716.61	252.25
716.95	251.90
717.28	251.70
717.61	251.40
717.94	251.14
718.28	250.59
718.61	250.32
718.94	250.05
719.27	249.86
719.61	249.71
719.94	249.34
720.27	248.88
720.60	248.69
720.94	248.53
721.27	248.32
721.60	248.24
721.93	248.01
722.27	248.02
722.60	247.92
722.93	247.69
723.26	247.61
723.59	247.27
723.93	247.16
724.26	246.97
724.59	246.73
724.92	246.60
725.25	246.46
725.59	246.34
725.92	246.19
726.25	245.94
726.58	245.78
726.91	245.53
727.24	245.41
727.57	245.19
727.91	244.98
728.24	244.89
728.57	244.61
728.90	244.56
729.23	244.20
729.56	244.23
729.89	244.13
730.22	243.96
730.55	243.88
730.89	243.70
731.22	243.47
731.55	243.30
731.88	243.16
732.21	242.99
732.54	242.83
732.87	242.73
733.20	242.59
733.53	242.43
733.86	242.36
734.19	242.15
734.52	242.16
734.85	242.34
735.18	242.11
735.51	242.12
735.84	241.90
736.17	241.96
736.50	241.57
736.83	242.06
737.16	241.92
737.49	241.79
737.82	241.64
738.15	241.64
738.48	241.53
738.81	241.36
739.14	241.18
739.47	241.05
739.80	240.94
740.13	240.88
740.46	240.68
740.79	240.45
741.12	240.43
741.45	240.24
741.78	239.86
742.11	239.84
742.44	239.66
742.77	239.66
743.10	239.45
743.43	239.30
743.75	238.58
744.08	239.06
744.41	238.92
744.74	238.80
745.07	238.51
745.40	238.56
745.73	238.68
746.06	238.50
746.39	238.43
746.71	238.23
747.04	238.12
747.37	238.02
747.70	238.08
748.03	237.93
748.36	237.93
748.68	237.81
749.01	237.58
749.34	237.43
749.67	237.38
750.00	237.36
750.33	237.70
750.65	237.70
750.98	237.06
751.31	237.06
751.64	237.02
751.97	237.34
752.29	237.21
752.62	236.84
752.95	236.81
753.28	236.66
753.60	236.56
753.93	236.66
754.26	236.65
754.59	236.42
754.91	236.29
755.24	236.06
755.57	235.97
755.90	235.85
756.22	235.79
756.55	235.55
756.88	235.35
757.20	234.89
757.53	234.63
757.86	234.46
758.19	234.36
758.51	234.16
758.84	233.72
759.17	233.55
759.49	233.48
759.82	233.68
760.15	233.65
760.47	233.55
760.80	233.24
761.13	233.21
761.45	233.16
761.78	233.13
762.11	233.15
762.43	233.09
762.76	233.10
763.08	233.02
763.41	233.03
763.74	233.04
764.06	232.97
764.39	232.95
764.71	232.86
765.04	232.72
765.37	232.76
765.69	232.69
766.02	232.63
766.34	232.53
766.67	232.20
767.00	232.19
767.32	232.37
767.65	232.62
767.97	232.49
768.30	232.44
768.62	232.26
768.95	232.11
769.27	231.96
769.60	231.92
769.92	231.77
770.25	231.63
770.57	231.47
770.90	231.41
771.22	231.28
771.55	231.30
771.87	231.30
772.20	231.16
772.52	231.60
772.85	232.17
773.17	232.21
773.50	232.13
773.82	232.00
774.15	231.73
774.47	231.33
774.80	231.18
775.12	231.06
775.45	231.07
775.77	231.04
776.09	231.11
776.42	231.04
776.74	231.22
777.07	231.14
777.39	231.12
777.72	231.01
778.04	231.09
778.36	230.95
778.69	230.89
779.01	230.86
779.33	230.33
779.66	229.66
779.98	229.56
780.31	229.54
780.63	229.79
780.95	229.87
781.28	229.79
781.60	229.77
781.92	229.77
782.25	229.72
782.57	229.71
782.89	229.58
783.22	229.59
783.54	229.46
783.86	229.49
784.19	229.43
784.51	229.53
784.83	229.37
785.16	229.38
785.48	229.40
785.80	229.41
786.12	229.45
786.45	229.43
786.77	229.45
787.09	229.50
787.42	229.22
787.74	229.21
788.06	229.34
788.38	229.34
788.71	229.26
789.03	229.27
789.35	229.36
789.67	229.31
789.99	229.28
790.32	229.14
790.64	229.27
790.96	229.66
791.28	229.49
791.61	229.50
791.93	229.55
792.25	229.59
792.57	229.88
792.89	229.85
793.21	229.89
793.54	229.84
793.86	229.69
794.18	229.71
794.50	229.60
794.82	229.59
795.14	229.64
795.47	229.72
795.79	229.75
796.11	229.62
796.43	229.61
796.75	229.55
797.07	229.64
797.39	229.54
797.71	229.19
798.04	229.21
798.36	229.20
798.68	229.13
799.00	229.05
799.32	228.84
799.64	228.93
799.96	228.90
800.28	228.97
800.60	228.91
800.92	228.93
801.24	228.86
801.56	228.85
801.89	228.77
802.21	228.74
802.53	228.62
802.85	228.64
803.17	228.86
803.49	228.70
803.81	228.58
804.13	228.46
804.45	228.30
804.77	228.35
805.09	228.34
805.41	228.30
805.73	228.26
806.05	228.04
806.37	227.88
806.69	227.80
807.01	227.74
807.33	227.77
807.65	227.63
807.97	227.86
808.28	227.79
808.60	227.84
808.92	227.82
809.24	228.07
809.56	228.01
809.88	227.81
810.20	227.85
810.52	227.98
810.84	227.95
811.16	227.97
811.48	227.84
811.80	228.00
812.12	227.94
812.43	227.97
812.75	228.04
813.07	228.00
813.39	228.05
813.71	227.93
814.03	227.86
814.35	227.88
814.67	227.64
814.98	227.55
815.30	227.46
815.62	227.32
815.94	227.04
816.26	227.25
816.58	227.13
816.89	227.21
817.21	227.09
817.53	227.09
817.85	227.15
818.17	227.23
818.48	227.00
818.80	227.08
819.12	227.03
819.44	226.94
819.76	226.86
820.07	226.85
820.39	226.89
820.71	226.95
821.03	226.92
821.34	226.90
821.66	227.04
821.98	227.04
822.30	227.03
822.61	227.31
822.93	227.09
823.25	227.06
823.57	226.98
823.88	227.05
824.20	227.05
824.52	227.06
824.83	227.00
825.15	226.96
825.47	226.98
825.79	226.94
826.10	226.93
826.42	226.99
826.74	227.05
827.05	227.01
827.37	227.02
827.69	226.99
828.00	227.02
828.32	227.00
828.64	226.96
828.95	227.24
829.27	227.13
829.58	227.04
829.90	227.17
830.22	227.25
830.53	227.12
830.85	227.11
831.17	226.97
831.48	226.95
831.80	226.99
832.11	226.98
832.43	226.93
832.75	226.90
833.06	227.19
833.38	227.02
833.69	226.97
834.01	226.98
834.32	226.98
834.64	226.95
834.96	226.90
835.27	226.88
835.59	226.68
835.90	226.58
836.22	226.65
836.53	226.55
836.85	226.53
837.16	227.05
837.48	227.05
837.79	227.18
838.11	227.20
838.42	227.20
838.74	227.20
839.05	227.19
839.37	227.22
839.68	226.92
840.00	226.95
840.31	227.05
840.63	227.02
840.94	227.00
841.26	226.90
841.57	226.87
841.88	226.98
842.20	226.94
842.51	226.91
842.83	226.87
843.14	227.26
843.46	227.21
843.77	226.93
844.08	226.93
844.40	226.86
844.71	226.84
845.03	226.90
845.34	226.80
845.65	226.85
845.97	226.83
846.28	226.86
846.60	226.93
846.91	226.83
847.22	226.74
847.54	226.82
847.85	226.91
848.16	226.89
848.48	226.72
848.79	226.93
849.10	226.90
849.42	226.86
849.73	226.44
850.04	226.42
850.36	226.19
850.67	226.25
850.98	226.23
851.30	226.22
851.61	226.18
851.92	226.20
852.23	226.20
852.55	226.31
852.86	226.29
853.17	226.28
853.49	226.39
853.80	226.55
854.11	226.54
854.42	226.60
854.74	226.57
855.05	226.63
855.36	226.39
855.67	226.40
855.99	226.48
856.30	227.07
856.61	227.02
856.92	227.05
857.23	227.00
857.55	226.97
857.86	226.94
858.17	226.98
858.48	226.91
858.79	226.86
859.11	226.82
859.42	226.78
859.73	226.63
860.04	226.57
860.35	226.41
860.66	226.22
860.98	226.21
861.29	226.29
861.60	226.25
861.91	226.34
862.22	226.26
862.53	226.26
862.84	225.64
863.16	225.83
863.47	225.77
863.78	225.67
864.09	225.66
864.40	225.80
864.71	225.69
865.02	225.74
865.33	225.73
865.64	225.66
865.95	225.69
866.27	226.10
866.58	226.08
866.89	226.20
867.20	226.31
867.51	226.18
867.82	226.15
868.13	226.37
868.44	226.28
868.75	226.42
869.06	226.40
869.37	226.49
869.68	226.34
869.99	226.42
870.30	226.57
870.61	226.63
870.92	226.48
871.23	226.51
871.54	226.58
871.85	226.66
872.16	226.68
872.47	226.62
872.78	226.28
873.09	226.39
873.40	226.31
873.71	226.26
874.02	226.28
874.33	226.21
874.64	226.02
874.95	226.08
875.26	226.01
875.56	225.95
875.87	225.91
876.18	225.86
876.49	226.33
876.80	226.23
877.11	226.17
877.42	226.21
877.73	226.21
878.04	226.15
878.35	226.09
878.66	226.08
878.96	226.09
879.27	226.13
879.58	226.02
879.89	225.98
880.20	226.14
880.51	226.16
880.82	226.22
881.12	226.28
881.43	226.23
881.74	226.15
882.05	226.22
882.36	226.30
882.67	226.26
882.97	225.73
883.28	225.79
883.59	225.78
883.90	225.80
884.21	225.91
884.51	225.92
884.82	225.92
885.13	225.99
885.44	226.00
885.74	225.94
886.05	225.91
886.36	225.97
886.67	225.77
886.98	226.05
887.28	226.11
887.59	226.07
887.90	226.05
888.20	226.04
888.51	226.09
888.82	225.99
889.13	226.11
889.43	226.55
889.74	226.51
890.05	226.50
890.35	226.42
890.66	226.36
890.97	226.25
891.28	226.17
891.58	226.11
891.89	226.05
892.20	226.09
892.50	226.09
892.81	226.03
893.12	226.10
893.42	225.81
893.73	225.76
894.04	225.84
894.34	225.87
894.65	225.90
894.95	225.79
895.26	225.87
895.57	226.05
895.87	225.58
896.18	225.60
896.48	225.70
896.79	225.75
897.10	225.77
897.40	225.89
897.71	226.01
898.01	226.03
898.32	226.11
898.63	226.08
898.93	226.07
899.24	226.05
899.54	225.96
899.85	226.04
900.15	226.00
900.46	225.99
900.76	226.05
901.07	226.06
901.38	226.09
901.68	226.07
901.99	225.85
902.29	225.87
902.60	225.92
902.90	225.81
903.21	225.81
903.51	225.81
903.82	225.81
904.12	225.72
904.43	225.71
904.73	225.68
905.03	225.70
905.34	226.24
905.64	226.31
905.95	226.34
906.25	226.30
906.56	226.29
906.86	226.32
907.17	226.31
907.47	226.24
907.77	226.18
908.08	226.04
908.38	226.09
908.69	226.13
908.99	226.10
909.30	226.10
909.60	226.01
909.90	225.99
910.21	225.92
910.51	225.88
910.81	225.91
911.12	225.95
911.42	225.96
911.73	225.48
912.03	225.42
912.33	225.54
912.64	225.55
912.94	225.47
913.24	225.31
913.55	225.23
913.85	225.21
914.15	225.37
914.46	225.50
914.76	225.44
915.06	225.41
915.37	225.36
915.67	225.39
915.97	225.44
916.27	225.33
916.58	225.41
916.88	225.48
917.18	225.47
917.49	225.82
917.79	225.82
918.09	225.86
918.39	226.02
918.70	225.89
919.00	225.92
919.30	226.21
919.60	226.21
919.91	226.13
920.21	226.19
920.51	226.04
920.81	226.02
921.12	226.12
921.42	226.22
921.72	226.27
922.02	226.28
922.32	226.39
922.63	226.44
922.93	226.66
923.23	226.67
923.53	226.62
923.83	226.27
924.13	226.30
924.44	226.30
924.74	226.42
925.04	226.58
925.34	226.54
925.64	226.30
925.94	226.30
926.24	226.61
926.55	226.63
926.85	226.67
927.15	226.62
927.45	226.59
927.75	226.54
928.05	226.57
928.35	226.54
928.65	226.58
928.95	226.67
929.26	226.46
929.56	226.50
929.86	226.55
930.16	226.58
930.46	226.54
930.76	226.55
931.06	226.28
931.36	226.16
931.66	226.16
931.96	226.25
932.26	226.33
932.56	226.15
932.86	226.16
933.16	226.20
933.46	226.21
933.76	226.14
934.06	226.25
934.36	226.43
934.66	226.46
934.96	226.43
935.26	226.39
935.56	226.45
935.86	226.39
936.16	226.32
936.46	226.21
936.76	226.20
937.06	226.11
937.36	226.16
937.66	226.19
937.96	226.22
938.26	226.13
938.56	226.08
938.86	226.08
939.16	226.18
939.46	226.20
939.76	226.22
940.06	226.20
940.35	226.06
940.65	225.74
940.95	225.78
941.25	225.68
941.55	225.66
941.85	225.70
942.15	225.70
942.45	225.85
942.75	225.89
943.04	225.93
943.34	226.04
943.64	226.00
943.94	225.92
944.24	225.95
944.54	226.03
944.84	225.94
945.13	225.85
945.43	225.71
945.73	225.68
946.03	225.64
946.33	225.63
946.62	225.62
946.92	225.60
947.22	225.55
947.52	225.52
947.82	225.56
948.11	225.43
948.41	225.31
948.71	225.19
949.01	225.21
949.31	225.14
949.60	225.11
949.90	225.19
950.20	225.20
950.50	225.21
950.79	225.14
951.09	225.27
951.39	225.27
951.69	225.21
951.98	225.26
952.28	225.25
952.58	225.24
952.87	225.23
953.17	225.33
953.47	225.35
953.76	225.43
954.06	225.30
954.36	225.27
954.66	225.27
954.95	225.40
955.25	225.39
955.55	225.44
955.84	225.36
956.14	225.39
956.44	225.40
956.73	225.31
957.03	225.36
957.32	225.34
957.62	225.29
957.92	225.41
958.21	225.38
958.51	225.95
958.81	226.00
959.10	226.06
959.40	226.20
959.69	226.21
959.99	226.23
960.29	226.25
960.58	226.23
960.88	226.46
961.17	226.40
961.47	226.43
961.76	226.40
962.06	226.47
962.36	226.39
962.65	226.40
962.95	226.39
963.24	226.29
963.54	226.30
963.83	226.40
964.13	226.36
964.42	226.24
964.72	225.81
965.01	225.80
965.31	225.77
965.60	225.61
965.90	225.88
966.19	225.72
966.49	225.78
966.78	225.79
967.08	225.72
967.37	225.70
967.67	225.64
967.96	225.71
968.26	225.72
968.55	225.75
968.85	225.74
969.14	225.77
969.43	225.79
969.73	225.80
970.02	225.78
970.32	225.73
970.61	225.77
970.91	225.68
971.20	225.61
971.49	225.58
971.79	225.64
972.08	225.30
972.38	225.44
972.67	225.42
972.96	225.49
973.26	225.42
973.55	225.59
973.85	225.54
974.14	225.46
974.43	225.49
974.73	225.48
975.02	225.45
975.31	225.44
975.61	225.50
975.90	225.36
976.19	225.30
976.49	225.36
976.78	225.40
977.07	225.36
977.37	225.43
977.66	225.46
977.95	225.40
978.24	225.40
978.54	225.50
978.83	225.45
979.12	225.42
979.42	225.40
979.71	225.25
980.00	225.29
980.29	225.33
980.59	225.22
980.88	225.33
981.17	225.36
981.46	225.40
981.76	225.33
982.05	225.51
982.34	225.52
982.63	225.53
982.93	225.49
983.22	225.64
983.51	225.62
983.80	225.66
984.09	225.70
984.39	225.67
984.68	225.58
984.97	225.60
985.26	225.54
985.55	225.54
985.85	225.50
986.14	225.54
986.43	225.55
986.72	225.45
987.01	225.27
987.30	225.29
987.59	225.22
987.89	225.23
988.18	225.13
988.47	225.19
988.76	225.16
989.05	225.15
989.34	225.08
989.63	225.26
989.92	225.15
990.22	225.10
990.51	225.14
990.80	225.02
991.09	225.12
991.38	225.20
991.67	225.17
991.96	225.21
992.25	225.22
992.54	225.15
992.83	225.26
993.12	225.27
993.41	225.31
993.70	225.49
993.99	225.61
994.28	225.65
994.58	225.64
994.87	225.60
995.16	225.66
995.45	225.64
995.74	225.34
996.03	225.49
996.32	225.57
996.61	225.70
996.90	225.77
997.19	225.69
997.48	225.65
997.77	225.64
998.06	225.58
998.34	225.56
998.63	225.61
998.92	225.61
999.21	225.71
999.50	225.71
999.79	225.60
1000.08	225.56
1000.37	225.58
1000.66	225.59
1000.95	225.71
1001.24	225.70
1001.53	225.81
1001.82	225.91
1002.11	225.76
1002.40	225.75
1002.68	225.80
1002.97	226.19
1003.26	226.12
1003.55	226.11
1003.84	226.12
1004.13	226.23
1004.42	226.22
1004.71	226.17
1004.99	226.14
1005.28	226.27
1005.57	226.21
1005.86	226.14
1006.15	226.08
1006.44	225.98
1006.72	226.03
1007.01	225.93
1007.30	225.99
1007.59	225.88
1007.88	225.85
1008.17	225.87
1008.45	225.76
1008.74	225.57
1009.03	225.34
1009.32	225.41
1009.60	225.43
1009.89	225.41
1010.18	225.26
1010.47	225.17
1010.76	225.17
1011.04	225.11
1011.33	225.11
1011.62	225.02
1011.91	225.09
1012.19	225.10
1012.48	225.13
1012.77	225.11
1013.05	225.35
1013.34	225.31
1013.63	225.30
1013.92	225.38
1014.20	225.32
1014.49	225.40
1014.78	225.45
1015.06	225.26
1015.35	225.18
1015.64	225.24
1015.92	225.25
1016.21	225.34
1016.50	225.40
1016.78	225.48
1017.07	225.60
1017.36	225.48
1017.64	225.60
1017.93	225.62
1018.22	225.55
1018.50	225.57
1018.79	225.53
1019.08	225.27
1019.36	225.20
1019.65	225.13
1019.93	225.30
1020.22	225.40
1020.51	225.65
1020.79	225.56
1021.08	223.70
1021.36	225.00
1021.65	225.10
1021.94	224.60
1022.22	224.50
1022.51	223.80
1022.79	229.05
1023.08	225.90
1023.36	231.30
1023.65	224.00
>>>>>End Processed Spectral Data<<<<<
