SpectraSuite Data File
++++++++++++++++++++++++++++++++++++
Date: Wed Sep 04 17:39:31 EDT 2013
User: lab3
Dark Spectrum Present: Yes
Reference Spectrum Present: No
Number of Sampled Component Spectra: 1
Spectrometers: USB2E7196
Integration Time (usec): 170000 (USB2E7196)
Spectra Averaged: 20 (USB2E7196)
Boxcar Smoothing: 10 (USB2E7196)
Correct for Electrical Dark: No (USB2E7196)
Strobe/Lamp Enabled: No (USB2E7196)
Correct for Detector Non-linearity: No (USB2E7196)
Correct for Stray Light: No (USB2E7196)
Number of Pixels in Processed Spectrum: 2048
>>>>>Begin Processed Spectral Data<<<<<
339.09	0.00
339.48	213.55
339.86	214.00
340.24	214.45
340.63	217.50
341.01	225.35
341.39	220.40
341.78	221.00
342.16	223.50
342.54	222.35
342.93	211.95
343.31	222.68
343.69	223.16
344.07	223.67
344.46	224.32
344.84	224.70
345.22	224.66
345.60	224.88
345.99	225.12
346.37	225.16
346.75	225.25
347.13	225.31
347.52	225.45
347.90	225.67
348.28	225.69
348.66	225.81
349.05	225.70
349.43	225.79
349.81	225.81
350.19	225.89
350.57	225.91
350.96	225.96
351.34	226.05
351.72	226.12
352.10	226.19
352.48	226.06
352.87	226.12
353.25	226.25
353.63	226.24
354.01	226.25
354.39	226.40
354.77	226.47
355.15	226.72
355.54	226.63
355.92	226.51
356.30	226.51
356.68	226.89
357.06	226.99
357.44	226.96
357.82	227.03
358.20	227.48
358.58	227.46
358.97	227.52
359.35	227.59
359.73	227.82
360.11	227.87
360.49	227.97
360.87	227.95
361.25	227.96
361.63	228.25
362.01	228.30
362.39	228.25
362.77	228.39
363.15	228.37
363.53	228.50
363.91	228.57
364.29	228.70
364.67	228.22
365.05	228.28
365.43	228.35
365.81	228.40
366.19	228.26
366.57	228.49
366.95	228.45
367.33	228.37
367.71	228.32
368.09	228.42
368.47	228.42
368.85	228.45
369.23	228.57
369.61	228.37
369.99	228.50
370.37	228.56
370.75	228.72
371.13	228.54
371.51	228.44
371.89	228.42
372.27	228.46
372.65	228.46
373.03	228.38
373.41	228.37
373.78	228.31
374.16	228.05
374.54	227.90
374.92	227.88
375.30	227.86
375.68	227.74
376.06	227.62
376.44	227.49
376.82	227.48
377.19	227.43
377.57	227.32
377.95	227.13
378.33	227.03
378.71	226.65
379.09	226.68
379.47	226.65
379.84	226.53
380.22	226.41
380.60	226.28
380.98	226.22
381.36	226.05
381.73	225.95
382.11	225.94
382.49	225.88
382.87	225.78
383.25	225.75
383.62	226.29
384.00	226.18
384.38	226.17
384.76	226.19
385.13	226.25
385.51	226.25
385.89	226.13
386.27	226.12
386.64	226.20
387.02	226.06
387.40	225.98
387.78	226.01
388.15	225.98
388.53	225.92
388.91	225.90
389.29	225.90
389.66	225.99
390.04	225.89
390.42	225.96
390.79	225.98
391.17	225.88
391.55	225.28
391.92	225.31
392.30	225.42
392.68	225.30
393.05	225.30
393.43	225.33
393.81	225.34
394.18	225.29
394.56	225.32
394.94	225.49
395.31	225.52
395.69	225.70
396.06	225.80
396.44	225.91
396.82	225.91
397.19	226.23
397.57	226.21
397.95	226.33
398.32	226.23
398.70	226.29
399.07	226.54
399.45	226.58
399.82	226.68
400.20	226.61
400.58	226.75
400.95	226.62
401.33	226.78
401.70	227.28
402.08	227.42
402.45	227.52
402.83	227.72
403.20	227.83
403.58	227.91
403.95	228.10
404.33	228.27
404.71	228.50
405.08	228.86
405.46	229.06
405.83	229.33
406.21	229.57
406.58	229.79
406.96	229.95
407.33	230.26
407.70	230.60
408.08	231.29
408.45	231.70
408.83	232.17
409.20	232.46
409.58	232.49
409.95	232.97
410.33	233.38
410.70	233.64
411.08	234.20
411.45	234.63
411.82	235.05
412.20	235.70
412.57	236.45
412.95	236.66
413.32	237.35
413.69	237.93
414.07	238.65
414.44	239.48
414.82	240.29
415.19	241.28
415.56	242.22
415.94	243.07
416.31	244.17
416.68	245.30
417.06	246.65
417.43	248.11
417.81	249.56
418.18	251.14
418.55	252.81
418.93	254.43
419.30	256.20
419.67	258.04
420.04	259.90
420.42	261.80
420.79	264.49
421.16	266.77
421.54	269.46
421.91	272.07
422.28	274.64
422.66	277.46
423.03	280.32
423.40	283.14
423.77	285.98
424.15	288.94
424.52	292.12
424.89	295.65
425.26	298.89
425.64	302.00
426.01	305.45
426.38	309.12
426.75	312.99
427.13	316.75
427.50	320.69
427.87	324.69
428.24	328.78
428.61	332.35
428.99	336.81
429.36	341.23
429.73	345.70
430.10	350.19
430.47	354.81
430.85	359.41
431.22	364.49
431.59	370.28
431.96	375.45
432.33	381.12
432.70	386.58
433.08	393.09
433.45	399.22
433.82	405.25
434.19	412.00
434.56	418.66
434.93	425.08
435.30	431.57
435.68	438.85
436.05	445.88
436.42	452.77
436.79	459.14
437.16	466.13
437.53	473.41
437.90	480.70
438.27	487.97
438.64	495.39
439.01	502.29
439.38	508.11
439.75	514.09
440.13	520.89
440.50	527.08
440.87	532.09
441.24	537.40
441.61	543.45
441.98	547.75
442.35	552.60
442.72	557.59
443.09	562.55
443.46	565.36
443.83	567.20
444.20	568.88
444.57	571.14
444.94	572.03
445.31	573.10
445.68	574.39
446.05	574.45
446.42	573.45
446.79	572.31
447.16	571.15
447.53	570.16
447.90	567.07
448.27	564.21
448.64	560.32
449.01	557.39
449.37	552.24
449.74	547.22
450.11	541.74
450.48	535.40
450.85	528.74
451.22	523.23
451.59	517.93
451.96	512.90
452.33	506.21
452.70	500.23
453.07	493.10
453.43	485.55
453.80	478.67
454.17	472.02
454.54	465.76
454.91	458.95
455.28	452.31
455.65	446.24
456.02	440.72
456.38	435.45
456.75	429.06
457.12	423.64
457.49	418.46
457.86	413.02
458.23	408.75
458.59	404.20
458.96	399.36
459.33	395.18
459.70	390.90
460.07	387.57
460.43	383.73
460.80	380.18
461.17	377.13
461.54	373.88
461.91	370.72
462.27	367.50
462.64	364.74
463.01	361.86
463.38	359.11
463.74	355.61
464.11	353.10
464.48	350.97
464.85	348.59
465.21	346.85
465.58	345.01
465.95	342.65
466.32	340.72
466.68	338.82
467.05	336.95
467.42	335.18
467.78	333.30
468.15	331.45
468.52	330.11
468.88	328.19
469.25	326.62
469.62	325.50
469.98	324.06
470.35	322.92
470.72	321.74
471.08	320.27
471.45	319.24
471.82	318.33
472.18	317.02
472.55	316.25
472.92	315.15
473.28	314.21
473.65	313.36
474.02	312.45
474.38	311.70
474.75	311.14
475.11	310.36
475.48	309.79
475.85	309.36
476.21	308.83
476.58	308.60
476.94	308.33
477.31	307.93
477.67	307.66
478.04	307.38
478.41	307.37
478.77	307.82
479.14	307.61
479.50	307.52
479.87	307.71
480.23	307.86
480.60	307.93
480.96	308.02
481.33	308.49
481.69	308.74
482.06	309.12
482.42	309.45
482.79	309.86
483.15	310.38
483.52	310.99
483.88	311.53
484.25	311.95
484.61	312.58
484.98	313.30
485.34	314.26
485.71	315.17
486.07	316.01
486.44	316.48
486.80	317.65
487.17	318.73
487.53	320.00
487.90	321.25
488.26	322.83
488.62	324.40
488.99	325.79
489.35	327.44
489.72	329.11
490.08	330.97
490.44	332.91
490.81	334.94
491.17	336.94
491.54	339.24
491.90	341.77
492.26	344.24
492.63	346.73
492.99	349.35
493.36	352.25
493.72	355.28
494.08	358.52
494.45	361.81
494.81	365.35
495.17	368.84
495.54	372.64
495.90	376.26
496.26	380.34
496.63	384.50
496.99	388.77
497.35	393.40
497.72	398.08
498.08	402.88
498.44	407.90
498.80	413.41
499.17	418.86
499.53	424.36
499.89	430.42
500.26	436.62
500.62	442.85
500.98	449.43
501.34	456.02
501.71	462.83
502.07	469.76
502.43	476.95
502.79	484.46
503.16	492.14
503.52	500.22
503.88	508.18
504.24	516.77
504.60	525.53
504.97	534.55
505.33	543.50
505.69	553.36
506.05	563.11
506.41	572.78
506.78	582.80
507.14	593.18
507.50	603.67
507.86	614.66
508.22	625.92
508.59	636.96
508.95	648.72
509.31	660.91
509.67	673.35
510.03	685.35
510.39	697.86
510.75	710.40
511.12	723.38
511.48	736.75
511.84	749.89
512.20	763.41
512.56	776.90
512.92	791.10
513.28	805.03
513.64	819.29
514.00	833.81
514.37	848.69
514.73	863.80
515.09	878.82
515.45	893.65
515.81	908.54
516.17	924.10
516.53	939.19
516.89	954.67
517.25	970.36
517.61	986.97
517.97	1003.57
518.33	1019.95
518.69	1036.44
519.05	1052.65
519.41	1069.27
519.77	1086.07
520.13	1102.72
520.49	1118.93
520.85	1136.79
521.21	1153.58
521.57	1170.23
521.93	1186.26
522.29	1202.93
522.65	1219.08
523.01	1235.54
523.37	1251.65
523.73	1267.77
524.09	1283.68
524.45	1299.22
524.81	1314.90
525.17	1330.63
525.53	1345.86
525.89	1361.70
526.25	1377.08
526.61	1392.52
526.97	1408.27
527.33	1424.20
527.68	1440.66
528.04	1456.95
528.40	1471.36
528.76	1486.91
529.12	1502.23
529.48	1517.77
529.84	1531.98
530.20	1547.33
530.56	1562.36
530.91	1577.60
531.27	1592.27
531.63	1606.93
531.99	1621.42
532.35	1635.57
532.71	1649.97
533.07	1664.75
533.42	1678.79
533.78	1692.73
534.14	1706.63
534.50	1719.82
534.86	1732.75
535.21	1744.32
535.57	1756.50
535.93	1768.17
536.29	1779.95
536.65	1792.01
537.00	1803.46
537.36	1815.22
537.72	1825.88
538.08	1837.05
538.44	1847.94
538.79	1858.60
539.15	1869.35
539.51	1879.73
539.87	1889.26
540.22	1897.38
540.58	1906.15
540.94	1913.86
541.29	1921.20
541.65	1928.40
542.01	1935.83
542.37	1941.70
542.72	1947.62
543.08	1953.30
543.44	1959.81
543.79	1964.83
544.15	1969.87
544.51	1975.21
544.87	1980.01
545.22	1984.33
545.58	1987.62
545.94	1990.48
546.29	1993.08
546.65	1994.94
547.01	1996.45
547.36	1998.22
547.72	1999.99
548.07	2000.23
548.43	2001.66
548.79	2002.45
549.14	2002.97
549.50	2003.03
549.86	2003.38
550.21	2004.10
550.57	2004.15
550.92	2002.56
551.28	2001.19
551.64	2000.17
551.99	1998.92
552.35	1997.50
552.70	1996.54
553.06	1995.49
553.41	1994.21
553.77	1992.93
554.13	1992.03
554.48	1990.92
554.84	1989.68
555.19	1988.28
555.55	1987.42
555.90	1984.56
556.26	1981.97
556.61	1978.65
556.97	1974.88
557.32	1972.37
557.68	1969.06
558.03	1966.03
558.39	1962.83
558.74	1960.17
559.10	1955.85
559.45	1951.31
559.81	1946.19
560.16	1940.34
560.52	1934.77
560.87	1929.35
561.23	1923.62
561.58	1917.58
561.94	1910.98
562.29	1903.81
562.64	1897.23
563.00	1889.48
563.35	1883.23
563.71	1876.70
564.06	1870.39
564.42	1864.19
564.77	1857.46
565.12	1850.36
565.48	1843.27
565.83	1836.19
566.19	1829.07
566.54	1822.06
566.89	1814.74
567.25	1808.14
567.60	1801.75
567.96	1795.10
568.31	1788.23
568.66	1780.98
569.02	1773.14
569.37	1765.74
569.72	1759.04
570.08	1751.19
570.43	1743.22
570.78	1735.29
571.14	1727.75
571.49	1719.87
571.84	1711.82
572.20	1703.20
572.55	1695.27
572.90	1686.19
573.26	1677.98
573.61	1669.12
573.96	1660.21
574.31	1650.85
574.67	1641.49
575.02	1631.37
575.37	1621.35
575.72	1611.07
576.08	1601.37
576.43	1591.89
576.78	1581.79
577.13	1571.65
577.49	1561.77
577.84	1552.67
578.19	1543.78
578.54	1534.16
578.90	1524.84
579.25	1515.59
579.60	1505.99
579.95	1496.45
580.30	1487.05
580.66	1476.95
581.01	1466.85
581.36	1456.76
581.71	1447.51
582.06	1438.10
582.42	1429.12
582.77	1420.04
583.12	1411.28
583.47	1402.22
583.82	1393.51
584.17	1385.18
584.53	1376.72
584.88	1367.46
585.23	1357.98
585.58	1347.92
585.93	1338.40
586.28	1328.90
586.63	1319.16
586.98	1309.17
587.34	1299.54
587.69	1290.08
588.04	1281.22
588.39	1272.72
588.74	1264.00
589.09	1255.56
589.44	1246.40
589.79	1237.71
590.14	1229.12
590.49	1220.59
590.84	1212.18
591.19	1203.66
591.54	1194.79
591.89	1185.99
592.25	1179.04
592.60	1171.18
592.95	1162.98
593.30	1154.61
593.65	1146.11
594.00	1137.73
594.35	1131.40
594.70	1123.19
595.05	1115.35
595.40	1107.06
595.75	1098.76
596.10	1090.94
596.45	1082.71
596.80	1075.39
597.15	1067.73
597.50	1059.67
597.85	1051.95
598.19	1043.65
598.54	1035.50
598.89	1027.78
599.24	1020.42
599.59	1012.41
599.94	1004.88
600.29	997.93
600.64	991.06
600.99	984.18
601.34	977.58
601.69	969.47
602.04	962.88
602.39	956.05
602.74	949.97
603.08	943.65
603.43	937.46
603.78	931.12
604.13	924.61
604.48	918.15
604.83	911.60
605.18	904.95
605.53	898.89
605.87	892.90
606.22	887.41
606.57	881.22
606.92	874.77
607.27	868.77
607.62	862.99
607.96	857.21
608.31	851.69
608.66	846.05
609.01	840.31
609.36	834.49
609.70	828.94
610.05	822.99
610.40	817.39
610.75	811.57
611.10	806.12
611.44	800.25
611.79	794.74
612.14	789.52
612.49	784.23
612.83	779.18
613.18	773.96
613.53	768.62
613.88	763.45
614.22	758.34
614.57	753.02
614.92	747.55
615.27	742.40
615.61	737.28
615.96	732.17
616.31	727.14
616.65	722.43
617.00	717.52
617.35	712.63
617.70	707.64
618.04	702.86
618.39	697.83
618.74	693.49
619.08	688.87
619.43	684.11
619.78	679.38
620.12	674.56
620.47	669.93
620.82	665.07
621.16	660.44
621.51	656.16
621.85	651.82
622.20	647.42
622.55	642.82
622.89	638.41
623.24	634.10
623.59	629.94
623.93	625.63
624.28	621.47
624.62	617.99
624.97	614.20
625.32	610.09
625.66	606.34
626.01	602.22
626.35	598.45
626.70	594.71
627.04	591.26
627.39	587.51
627.73	583.90
628.08	580.43
628.43	576.58
628.77	572.66
629.12	569.16
629.46	565.84
629.81	562.91
630.15	559.62
630.50	556.28
630.84	552.80
631.19	549.62
631.53	546.57
631.88	542.67
632.22	539.18
632.57	536.26
632.91	532.90
633.26	530.00
633.60	526.67
633.95	523.49
634.29	520.05
634.64	517.02
634.98	513.79
635.32	510.78
635.67	508.17
636.01	505.59
636.36	502.55
636.70	499.88
637.05	496.77
637.39	494.00
637.73	491.30
638.08	488.68
638.42	485.79
638.77	482.87
639.11	480.02
639.45	477.22
639.80	474.19
640.14	471.52
640.49	468.64
640.83	466.12
641.17	463.68
641.52	461.16
641.86	458.64
642.20	456.56
642.55	454.07
642.89	451.66
643.23	449.12
643.58	447.03
643.92	444.41
644.26	442.07
644.61	439.90
644.95	437.56
645.29	435.21
645.64	433.04
645.98	430.80
646.32	428.86
646.66	426.67
647.01	424.66
647.35	422.84
647.69	420.86
648.04	419.04
648.38	417.11
648.72	415.12
649.06	413.06
649.41	410.84
649.75	408.80
650.09	406.67
650.43	404.67
650.78	402.62
651.12	400.77
651.46	398.88
651.80	396.87
652.14	395.01
652.49	393.36
652.83	391.55
653.17	389.78
653.51	387.97
653.85	386.31
654.20	384.62
654.54	382.81
654.88	381.00
655.22	379.43
655.56	377.79
655.90	376.26
656.25	374.74
656.59	373.18
656.93	371.74
657.27	370.48
657.61	368.86
657.95	367.44
658.29	365.91
658.64	364.50
658.98	362.93
659.32	361.34
659.66	359.85
660.00	358.49
660.34	357.11
660.68	355.70
661.02	354.39
661.36	353.02
661.70	351.51
662.05	350.25
662.39	348.82
662.73	347.60
663.07	346.51
663.41	345.20
663.75	343.91
664.09	342.67
664.43	341.21
664.77	340.09
665.11	338.73
665.45	337.58
665.79	336.50
666.13	335.38
666.47	334.19
666.81	332.91
667.15	331.59
667.49	330.46
667.83	329.49
668.17	328.43
668.51	327.43
668.85	326.60
669.19	325.85
669.53	324.73
669.87	323.55
670.21	322.34
670.55	321.42
670.89	320.73
671.23	319.72
671.57	318.78
671.91	317.90
672.25	317.02
672.58	316.19
672.92	315.10
673.26	314.26
673.60	313.52
673.94	312.75
674.28	312.01
674.62	311.25
674.96	310.28
675.30	309.47
675.64	308.59
675.97	307.65
676.31	306.58
676.65	305.61
676.99	305.03
677.33	304.17
677.67	303.40
678.01	302.26
678.34	301.43
678.68	300.82
679.02	299.97
679.36	299.29
679.70	298.39
680.04	297.78
680.37	297.05
680.71	296.25
681.05	295.62
681.39	295.09
681.73	294.27
682.06	293.71
682.40	293.00
682.74	292.45
683.08	291.96
683.42	291.32
683.75	290.87
684.09	290.10
684.43	289.55
684.77	288.92
685.10	288.36
685.44	287.92
685.78	287.19
686.12	286.71
686.45	286.10
686.79	285.49
687.13	284.98
687.46	284.49
687.80	284.11
688.14	283.43
688.48	282.76
688.81	282.31
689.15	281.83
689.49	281.26
689.82	280.76
690.16	280.03
690.50	279.54
690.83	278.94
691.17	278.39
691.51	277.94
691.84	277.49
692.18	276.95
692.52	276.36
692.85	275.88
693.19	275.48
693.52	275.03
693.86	274.61
694.20	274.07
694.53	273.60
694.87	273.08
695.21	272.57
695.54	272.10
695.88	271.60
696.21	270.99
696.55	270.62
696.88	270.11
697.22	269.68
697.56	269.29
697.89	268.83
698.23	268.46
698.56	268.01
698.90	267.67
699.23	267.26
699.57	266.89
699.90	266.52
700.24	266.04
700.58	265.70
700.91	265.45
701.25	265.57
701.58	265.58
701.92	265.31
702.25	265.00
702.59	264.64
702.92	264.40
703.26	264.14
703.59	263.80
703.93	263.90
704.26	263.65
704.60	263.33
704.93	263.06
705.26	262.74
705.60	262.54
705.93	262.11
706.27	262.04
706.60	261.88
706.94	261.81
707.27	261.50
707.61	261.25
707.94	260.92
708.27	260.16
708.61	259.43
708.94	259.05
709.28	258.89
709.61	258.63
709.94	258.36
710.28	258.05
710.61	257.74
710.95	257.03
711.28	257.11
711.61	256.87
711.95	256.71
712.28	256.35
712.61	256.08
712.95	256.11
713.28	256.02
713.61	255.66
713.95	255.31
714.28	255.05
714.61	254.68
714.95	254.29
715.28	253.99
715.61	253.76
715.95	253.59
716.28	253.26
716.61	253.13
716.95	252.84
717.28	252.58
717.61	252.36
717.94	252.09
718.28	251.48
718.61	251.25
718.94	250.90
719.27	250.76
719.61	250.54
719.94	250.27
720.27	249.79
720.60	249.53
720.94	249.18
721.27	249.02
721.60	248.85
721.93	248.72
722.27	248.66
722.60	248.52
722.93	248.25
723.26	248.12
723.59	247.80
723.93	247.62
724.26	247.47
724.59	247.25
724.92	247.17
725.25	247.11
725.59	246.89
725.92	246.80
726.25	246.57
726.58	246.41
726.91	246.10
727.24	246.01
727.57	245.81
727.91	245.61
728.24	245.50
728.57	245.34
728.90	245.19
729.23	244.94
729.56	245.02
729.89	244.92
730.22	244.64
730.55	244.49
730.89	244.36
731.22	244.17
731.55	243.98
731.88	243.82
732.21	243.64
732.54	243.43
732.87	243.26
733.20	243.16
733.53	243.00
733.86	242.95
734.19	242.71
734.52	242.73
734.85	242.97
735.18	242.69
735.51	242.77
735.84	242.71
736.17	242.71
736.50	242.34
736.83	242.74
737.16	242.65
737.49	242.44
737.82	242.19
738.15	242.18
738.48	242.10
738.81	241.93
739.14	241.77
739.47	241.68
739.80	241.50
740.13	241.41
740.46	241.21
740.79	240.95
741.12	240.85
741.45	240.64
741.78	240.20
742.11	240.29
742.44	239.99
742.77	239.87
743.10	239.59
743.43	239.49
743.75	238.83
744.08	239.37
744.41	239.26
744.74	239.15
745.07	238.87
745.40	238.87
745.73	238.97
746.06	238.83
746.39	238.75
746.71	238.70
747.04	238.47
747.37	238.33
747.70	238.30
748.03	238.25
748.36	238.20
748.68	238.12
749.01	237.81
749.34	237.75
749.67	237.67
750.00	237.69
750.33	237.96
750.65	237.89
750.98	237.17
751.31	237.18
751.64	237.14
751.97	237.36
752.29	237.14
752.62	236.79
752.95	236.68
753.28	236.51
753.60	236.30
753.93	236.40
754.26	236.44
754.59	236.17
754.91	236.00
755.24	235.87
755.57	235.77
755.90	235.70
756.22	235.54
756.55	235.35
756.88	235.17
757.20	234.75
757.53	234.60
757.86	234.51
758.19	234.47
758.51	234.37
758.84	234.05
759.17	234.04
759.49	234.00
759.82	234.15
760.15	234.09
760.47	234.02
760.80	233.79
761.13	233.70
761.45	233.69
761.78	233.64
762.11	233.59
762.43	233.52
762.76	233.45
763.08	233.48
763.41	233.48
763.74	233.43
764.06	233.26
764.39	233.14
764.71	233.04
765.04	232.90
765.37	232.80
765.69	232.76
766.02	232.67
766.34	232.59
766.67	232.33
767.00	232.35
767.32	232.59
767.65	232.77
767.97	232.73
768.30	232.71
768.62	232.67
768.95	232.55
769.27	232.44
769.60	232.52
769.92	232.38
770.25	232.23
770.57	232.10
770.90	232.08
771.22	232.04
771.55	232.00
771.87	231.99
772.20	231.95
772.52	232.28
772.85	232.74
773.17	232.63
773.50	232.55
773.82	232.46
774.15	232.21
774.47	231.90
774.80	231.75
775.12	231.75
775.45	231.67
775.77	231.65
776.09	231.66
776.42	231.57
776.74	231.65
777.07	231.57
777.39	231.55
777.72	231.40
778.04	231.43
778.36	231.37
778.69	231.24
779.01	231.24
779.33	230.73
779.66	230.22
779.98	230.24
780.31	230.20
780.63	230.36
780.95	230.41
781.28	230.39
781.60	230.34
781.92	230.21
782.25	230.19
782.57	230.14
782.89	230.08
783.22	229.98
783.54	229.84
783.86	229.92
784.19	229.85
784.51	230.04
784.83	229.90
785.16	229.87
785.48	229.91
785.80	229.79
786.12	229.89
786.45	229.81
786.77	229.77
787.09	229.75
787.42	229.55
787.74	229.55
788.06	229.48
788.38	229.45
788.71	229.43
789.03	229.41
789.35	229.42
789.67	229.33
789.99	229.30
790.32	229.20
790.64	229.20
790.96	229.52
791.28	229.39
791.61	229.40
791.93	229.41
792.25	229.31
792.57	229.71
792.89	229.50
793.21	229.52
793.54	229.50
793.86	229.37
794.18	229.35
794.50	229.15
794.82	229.09
795.14	229.21
795.47	229.29
795.79	229.29
796.11	229.22
796.43	229.16
796.75	229.20
797.07	229.27
797.39	229.15
797.71	228.83
798.04	228.80
798.36	228.79
798.68	228.75
799.00	228.80
799.32	228.46
799.64	228.59
799.96	228.57
800.28	228.62
800.60	228.68
800.92	228.70
801.24	228.74
801.56	228.90
801.89	228.78
802.21	228.73
802.53	228.62
802.85	228.72
803.17	228.99
803.49	228.82
803.81	228.82
804.13	228.79
804.45	228.73
804.77	228.65
805.09	228.64
805.41	228.64
805.73	228.56
806.05	228.49
806.37	228.46
806.69	228.41
807.01	228.34
807.33	228.37
807.65	228.20
807.97	228.30
808.28	228.17
808.60	228.13
808.92	228.12
809.24	228.43
809.56	228.30
809.88	228.05
810.20	228.06
810.52	228.08
810.84	228.04
811.16	228.00
811.48	228.08
811.80	228.19
812.12	228.06
812.43	228.12
812.75	228.12
813.07	228.02
813.39	228.03
813.71	228.00
814.03	227.95
814.35	228.00
814.67	227.87
814.98	227.85
815.30	227.82
815.62	227.66
815.94	227.34
816.26	227.59
816.58	227.52
816.89	227.60
817.21	227.50
817.53	227.52
817.85	227.52
818.17	227.41
818.48	227.24
818.80	227.36
819.12	227.28
819.44	227.22
819.76	227.16
820.07	227.12
820.39	227.07
820.71	227.02
821.03	227.02
821.34	226.98
821.66	226.99
821.98	227.00
822.30	227.05
822.61	227.32
822.93	227.02
823.25	227.01
823.57	226.95
823.88	227.07
824.20	227.06
824.52	227.16
824.83	227.19
825.15	227.13
825.47	227.08
825.79	227.07
826.10	227.09
826.42	227.03
826.74	227.10
827.05	227.12
827.37	227.20
827.69	227.19
828.00	227.20
828.32	227.26
828.64	227.25
828.95	227.40
829.27	227.29
829.58	227.30
829.90	227.39
830.22	227.40
830.53	227.24
830.85	227.27
831.17	227.12
831.48	227.15
831.80	227.19
832.11	227.19
832.43	227.16
832.75	227.12
833.06	227.46
833.38	227.32
833.69	227.29
834.01	227.22
834.32	227.19
834.64	227.15
834.96	227.13
835.27	227.09
835.59	226.97
835.90	226.74
836.22	226.72
836.53	226.71
836.85	226.62
837.16	227.07
837.48	226.95
837.79	227.07
838.11	227.02
838.42	227.03
838.74	227.06
839.05	227.00
839.37	227.03
839.68	226.69
840.00	226.55
840.31	226.64
840.63	226.65
840.94	226.62
841.26	226.55
841.57	226.48
841.88	226.49
842.20	226.42
842.51	226.44
842.83	226.37
843.14	226.70
843.46	226.73
843.77	226.44
844.08	226.49
844.40	226.35
844.71	226.37
845.03	226.35
845.34	226.28
845.65	226.27
845.97	226.28
846.28	226.30
846.60	226.44
846.91	226.30
847.22	226.27
847.54	226.33
847.85	226.39
848.16	226.36
848.48	226.30
848.79	226.55
849.10	226.62
849.42	226.65
849.73	226.19
850.04	226.28
850.36	226.10
850.67	226.19
850.98	226.22
851.30	226.17
851.61	226.13
851.92	226.21
852.23	226.36
852.55	226.34
852.86	226.37
853.17	226.41
853.49	226.57
853.80	226.66
854.11	226.67
854.42	226.77
854.74	226.72
855.05	226.75
855.36	226.49
855.67	226.52
855.99	226.58
856.30	227.11
856.61	227.00
856.92	227.06
857.23	227.00
857.55	226.96
857.86	226.95
858.17	227.10
858.48	226.97
858.79	226.84
859.11	226.95
859.42	226.91
859.73	226.78
860.04	226.77
860.35	226.65
860.66	226.49
860.98	226.45
861.29	226.64
861.60	226.57
861.91	226.66
862.22	226.60
862.53	226.54
862.84	226.06
863.16	226.21
863.47	226.11
863.78	226.09
864.09	226.15
864.40	226.20
864.71	226.12
865.02	226.21
865.33	226.20
865.64	226.07
865.95	226.04
866.27	226.40
866.58	226.34
866.89	226.42
867.20	226.42
867.51	226.31
867.82	226.21
868.13	226.40
868.44	226.27
868.75	226.36
869.06	226.33
869.37	226.34
869.68	226.16
869.99	226.27
870.30	226.25
870.61	226.33
870.92	226.31
871.23	226.27
871.54	226.35
871.85	226.42
872.16	226.49
872.47	226.53
872.78	226.27
873.09	226.25
873.40	226.15
873.71	226.20
874.02	226.24
874.33	226.19
874.64	226.05
874.95	226.14
875.26	226.04
875.56	226.08
875.87	226.03
876.18	226.03
876.49	226.43
876.80	226.37
877.11	226.28
877.42	226.28
877.73	226.26
878.04	226.12
878.35	226.11
878.66	226.02
878.96	226.04
879.27	225.94
879.58	225.94
879.89	225.92
880.20	226.07
880.51	226.05
880.82	226.02
881.12	226.06
881.43	226.00
881.74	225.92
882.05	225.91
882.36	225.99
882.67	226.06
882.97	225.61
883.28	225.61
883.59	225.57
883.90	225.57
884.21	225.62
884.51	225.65
884.82	225.61
885.13	225.64
885.44	225.57
885.74	225.58
886.05	225.56
886.36	225.55
886.67	225.38
886.98	225.61
887.28	225.69
887.59	225.70
887.90	225.72
888.20	225.70
888.51	225.77
888.82	225.69
889.13	225.69
889.43	226.08
889.74	226.10
890.05	226.06
890.35	226.06
890.66	225.97
890.97	225.94
891.28	225.85
891.58	225.85
891.89	225.92
892.20	225.93
892.50	225.84
892.81	225.82
893.12	225.84
893.42	225.62
893.73	225.61
894.04	225.60
894.34	225.66
894.65	225.65
894.95	225.54
895.26	225.60
895.57	225.83
895.87	225.36
896.18	225.48
896.48	225.60
896.79	225.58
897.10	225.69
897.40	225.65
897.71	225.76
898.01	225.73
898.32	225.76
898.63	225.76
898.93	225.89
899.24	225.93
899.54	225.92
899.85	225.90
900.15	225.88
900.46	225.86
900.76	225.87
901.07	225.93
901.38	225.94
901.68	226.05
901.99	225.73
902.29	225.75
902.60	225.69
902.90	225.54
903.21	225.57
903.51	225.56
903.82	225.76
904.12	225.77
904.43	225.83
904.73	225.84
905.03	225.86
905.34	226.29
905.64	226.21
905.95	226.28
906.25	226.29
906.56	226.28
906.86	226.32
907.17	226.30
907.47	226.22
907.77	226.28
908.08	226.05
908.38	226.09
908.69	226.12
908.99	226.16
909.30	226.16
909.60	226.08
909.90	226.10
910.21	225.89
910.51	225.77
910.81	225.76
911.12	225.76
911.42	225.77
911.73	225.22
912.03	225.30
912.33	225.34
912.64	225.37
912.94	225.33
913.24	225.23
913.55	225.18
913.85	225.17
914.15	225.22
914.46	225.32
914.76	225.26
915.06	225.23
915.37	225.13
915.67	225.16
915.97	225.13
916.27	224.97
916.58	225.05
916.88	225.05
917.18	225.03
917.49	225.35
917.79	225.31
918.09	225.47
918.39	225.56
918.70	225.57
919.00	225.55
919.30	225.72
919.60	225.67
919.91	225.62
920.21	225.65
920.51	225.53
920.81	225.44
921.12	225.55
921.42	225.63
921.72	225.62
922.02	225.64
922.32	225.79
922.63	225.79
922.93	225.98
923.23	226.01
923.53	225.99
923.83	225.64
924.13	225.72
924.44	225.66
924.74	225.75
925.04	225.76
925.34	225.76
925.64	225.60
925.94	225.58
926.24	225.83
926.55	225.83
926.85	225.87
927.15	225.95
927.45	225.98
927.75	225.93
928.05	225.96
928.35	225.97
928.65	226.06
928.95	226.15
929.26	225.99
929.56	226.12
929.86	226.18
930.16	226.22
930.46	226.21
930.76	226.25
931.06	226.02
931.36	225.93
931.66	226.01
931.96	226.06
932.26	226.15
932.56	226.01
932.86	226.05
933.16	226.07
933.46	226.01
933.76	225.93
934.06	226.07
934.36	226.24
934.66	226.22
934.96	226.17
935.26	226.21
935.56	226.32
935.86	226.15
936.16	226.06
936.46	226.01
936.76	225.99
937.06	225.93
937.36	225.96
937.66	226.00
937.96	226.02
938.26	225.97
938.56	225.95
938.86	225.98
939.16	226.02
939.46	226.13
939.76	226.20
940.06	226.23
940.35	226.09
940.65	225.87
940.95	225.91
941.25	225.73
941.55	225.64
941.85	225.56
942.15	225.69
942.45	225.81
942.75	225.76
943.04	225.71
943.34	225.84
943.64	225.80
943.94	225.69
944.24	225.62
944.54	225.65
944.84	225.70
945.13	225.68
945.43	225.68
945.73	225.60
946.03	225.53
946.33	225.46
946.62	225.48
946.92	225.47
947.22	225.51
947.52	225.63
947.82	225.71
948.11	225.69
948.41	225.59
948.71	225.40
949.01	225.49
949.31	225.51
949.60	225.44
949.90	225.55
950.20	225.53
950.50	225.54
950.79	225.52
951.09	225.55
951.39	225.50
951.69	225.39
951.98	225.51
952.28	225.63
952.58	225.66
952.87	225.66
953.17	225.71
953.47	225.64
953.76	225.60
954.06	225.53
954.36	225.44
954.66	225.44
954.95	225.64
955.25	225.64
955.55	225.67
955.84	225.60
956.14	225.58
956.44	225.65
956.73	225.61
957.03	225.60
957.32	225.62
957.62	225.57
957.92	225.73
958.21	225.62
958.51	226.05
958.81	226.14
959.10	226.22
959.40	226.39
959.69	226.35
959.99	226.39
960.29	226.39
960.58	226.37
960.88	226.55
961.17	226.48
961.47	226.49
961.76	226.42
962.06	226.50
962.36	226.54
962.65	226.57
962.95	226.60
963.24	226.60
963.54	226.52
963.83	226.54
964.13	226.44
964.42	226.26
964.72	225.94
965.01	225.84
965.31	225.77
965.60	225.55
965.90	225.92
966.19	225.81
966.49	225.85
966.78	225.84
967.08	225.73
967.37	225.79
967.67	225.72
967.96	225.80
968.26	225.75
968.55	225.78
968.85	225.76
969.14	225.70
969.43	225.68
969.73	225.65
970.02	225.67
970.32	225.69
970.61	225.78
970.91	225.64
971.20	225.64
971.49	225.59
971.79	225.72
972.08	225.36
972.38	225.45
972.67	225.49
972.96	225.61
973.26	225.63
973.55	225.70
973.85	225.65
974.14	225.62
974.43	225.78
974.73	225.64
975.02	225.62
975.31	225.67
975.61	225.68
975.90	225.65
976.19	225.59
976.49	225.64
976.78	225.66
977.07	225.63
977.37	225.71
977.66	225.78
977.95	225.74
978.24	225.87
978.54	225.96
978.83	225.85
979.12	225.83
979.42	225.81
979.71	225.71
980.00	225.70
980.29	225.80
980.59	225.62
980.88	225.78
981.17	225.78
981.46	225.75
981.76	225.77
982.05	226.01
982.34	226.07
982.63	226.07
982.93	226.10
983.22	226.31
983.51	226.25
983.80	226.29
984.09	226.32
984.39	226.26
984.68	226.16
984.97	226.20
985.26	226.07
985.55	226.12
985.85	226.05
986.14	226.12
986.43	226.16
986.72	226.10
987.01	225.93
987.30	225.94
987.59	225.91
987.89	225.93
988.18	225.77
988.47	225.73
988.76	225.72
989.05	225.70
989.34	225.56
989.63	225.69
989.92	225.60
990.22	225.55
990.51	225.51
990.80	225.53
991.09	225.59
991.38	225.64
991.67	225.56
991.96	225.55
992.25	225.59
992.54	225.48
992.83	225.58
993.12	225.55
993.41	225.62
993.70	225.83
993.99	225.92
994.28	225.96
994.58	226.00
994.87	225.90
995.16	225.85
995.45	225.86
995.74	225.71
996.03	225.84
996.32	225.90
996.61	225.98
996.90	225.99
997.19	225.94
997.48	226.02
997.77	226.04
998.06	226.11
998.34	226.04
998.63	225.97
998.92	225.92
999.21	226.03
999.50	225.99
999.79	225.87
1000.08	225.80
1000.37	225.79
1000.66	225.72
1000.95	225.95
1001.24	225.95
1001.53	225.94
1001.82	225.92
1002.11	225.80
1002.40	225.85
1002.68	226.04
1002.97	226.30
1003.26	226.30
1003.55	226.22
1003.84	226.18
1004.13	226.29
1004.42	226.28
1004.71	226.34
1004.99	226.38
1005.28	226.52
1005.57	226.45
1005.86	226.36
1006.15	226.27
1006.44	226.23
1006.72	226.33
1007.01	226.11
1007.30	226.20
1007.59	226.15
1007.88	226.14
1008.17	226.10
1008.45	225.97
1008.74	225.71
1009.03	225.49
1009.32	225.47
1009.60	225.52
1009.89	225.45
1010.18	225.30
1010.47	225.33
1010.76	225.33
1011.04	225.26
1011.33	225.22
1011.62	225.31
1011.91	225.36
1012.19	225.42
1012.48	225.43
1012.77	225.43
1013.05	225.79
1013.34	225.71
1013.63	225.68
1013.92	225.74
1014.20	225.75
1014.49	225.71
1014.78	225.83
1015.06	225.67
1015.35	225.70
1015.64	225.77
1015.92	225.81
1016.21	225.87
1016.50	225.87
1016.78	225.86
1017.07	225.98
1017.36	225.81
1017.64	225.76
1017.93	225.83
1018.22	225.78
1018.50	225.73
1018.79	225.73
1019.08	225.36
1019.36	225.43
1019.65	225.42
1019.93	225.52
1020.22	225.60
1020.51	225.85
1020.79	225.75
1021.08	224.55
1021.36	224.30
1021.65	226.05
1021.94	224.30
1022.22	225.95
1022.51	224.85
1022.79	227.50
1023.08	226.35
1023.36	230.45
1023.65	224.50
>>>>>End Processed Spectral Data<<<<<
