SpectraSuite Data File
++++++++++++++++++++++++++++++++++++
Date: Wed Sep 04 18:00:56 EDT 2013
User: lab3
Dark Spectrum Present: Yes
Reference Spectrum Present: No
Number of Sampled Component Spectra: 1
Spectrometers: USB2E7196
Integration Time (usec): 170000 (USB2E7196)
Spectra Averaged: 20 (USB2E7196)
Boxcar Smoothing: 10 (USB2E7196)
Correct for Electrical Dark: No (USB2E7196)
Strobe/Lamp Enabled: No (USB2E7196)
Correct for Detector Non-linearity: No (USB2E7196)
Correct for Stray Light: No (USB2E7196)
Number of Pixels in Processed Spectrum: 2048
>>>>>Begin Processed Spectral Data<<<<<
339.09	0.00
339.48	213.20
339.86	215.10
340.24	215.85
340.63	217.80
341.01	225.55
341.39	220.65
341.78	222.35
342.16	225.00
342.54	224.05
342.93	212.65
343.31	223.30
343.69	223.78
344.07	224.26
344.46	224.85
344.84	225.27
345.22	225.24
345.60	225.55
345.99	225.81
346.37	225.86
346.75	225.96
347.13	226.04
347.52	226.13
347.90	226.30
348.28	226.35
348.66	226.51
349.05	226.45
349.43	226.61
349.81	226.70
350.19	226.74
350.57	226.87
350.96	226.90
351.34	227.09
351.72	227.28
352.10	227.44
352.48	227.40
352.87	227.47
353.25	227.61
353.63	227.58
354.01	227.55
354.39	227.62
354.77	227.72
355.15	227.94
355.54	227.85
355.92	227.80
356.30	227.79
356.68	228.17
357.06	228.17
357.44	228.07
357.82	228.05
358.20	228.47
358.58	228.48
358.97	228.66
359.35	228.78
359.73	228.90
360.11	228.91
360.49	228.95
360.87	228.95
361.25	229.05
361.63	229.29
362.01	229.41
362.39	229.46
362.77	229.49
363.15	229.47
363.53	229.58
363.91	229.56
364.29	229.61
364.67	229.19
365.05	229.30
365.43	229.45
365.81	229.60
366.19	229.49
366.57	229.75
366.95	229.72
367.33	229.62
367.71	229.65
368.09	229.72
368.47	229.74
368.85	229.72
369.23	229.80
369.61	229.64
369.99	229.74
370.37	229.75
370.75	229.90
371.13	229.80
371.51	229.72
371.89	229.70
372.27	229.73
372.65	229.66
373.03	229.58
373.41	229.52
373.78	229.45
374.16	229.20
374.54	228.99
374.92	228.84
375.30	228.82
375.68	228.59
376.06	228.52
376.44	228.48
376.82	228.45
377.19	228.32
377.57	228.21
377.95	227.95
378.33	227.85
378.71	227.53
379.09	227.53
379.47	227.55
379.84	227.52
380.22	227.31
380.60	227.23
380.98	227.15
381.36	227.03
381.73	226.91
382.11	226.93
382.49	226.85
382.87	226.71
383.25	226.62
383.62	227.13
384.00	226.96
384.38	226.89
384.76	226.88
385.13	226.99
385.51	226.91
385.89	226.82
386.27	226.76
386.64	226.80
387.02	226.69
387.40	226.56
387.78	226.55
388.15	226.59
388.53	226.54
388.91	226.46
389.29	226.33
389.66	226.35
390.04	226.31
390.42	226.29
390.79	226.33
391.17	226.30
391.55	225.78
391.92	225.75
392.30	225.76
392.68	225.68
393.05	225.64
393.43	225.70
393.81	225.80
394.18	225.73
394.56	225.81
394.94	226.03
395.31	226.02
395.69	226.17
396.06	226.34
396.44	226.40
396.82	226.43
397.19	226.85
397.57	226.90
397.95	227.00
398.32	226.95
398.70	227.08
399.07	227.22
399.45	227.29
399.82	227.53
400.20	227.59
400.58	227.70
400.95	227.68
401.33	227.87
401.70	228.28
402.08	228.46
402.45	228.55
402.83	228.62
403.20	228.83
403.58	228.91
403.95	229.11
404.33	229.44
404.71	229.77
405.08	230.14
405.46	230.33
405.83	230.58
406.21	230.90
406.58	231.20
406.96	231.53
407.33	231.89
407.70	232.19
408.08	232.90
408.45	233.36
408.83	233.89
409.20	234.33
409.58	234.50
409.95	235.14
410.33	235.69
410.70	236.17
411.08	236.76
411.45	237.39
411.82	238.01
412.20	238.67
412.57	239.62
412.95	240.01
413.32	240.89
413.69	241.74
414.07	242.72
414.44	243.74
414.82	244.75
415.19	245.91
415.56	247.11
415.94	248.20
416.31	249.60
416.68	250.93
417.06	252.52
417.43	254.17
417.81	255.92
418.18	257.71
418.55	259.65
418.93	261.72
419.30	263.89
419.67	266.10
420.04	268.44
420.42	270.71
420.79	273.71
421.16	276.52
421.54	279.61
421.91	282.51
422.28	285.57
422.66	288.91
423.03	292.45
423.40	295.86
423.77	299.33
424.15	302.92
424.52	306.74
424.89	310.93
425.26	314.92
425.64	318.70
426.01	322.95
426.38	327.43
426.75	331.94
427.13	336.47
427.50	341.30
427.87	346.10
428.24	351.15
428.61	355.69
428.99	360.94
429.36	366.36
429.73	371.89
430.10	377.46
430.47	383.12
430.85	388.79
431.22	394.98
431.59	401.91
431.96	408.24
432.33	415.29
432.70	421.99
433.08	429.84
433.45	437.30
433.82	444.78
434.19	453.05
434.56	461.35
434.93	469.18
435.30	476.92
435.68	485.68
436.05	494.14
436.42	502.55
436.79	510.36
437.16	518.85
437.53	527.75
437.90	536.53
438.27	545.15
438.64	554.12
439.01	562.59
439.38	569.59
439.75	576.76
440.13	584.77
440.50	592.32
440.87	598.45
441.24	604.82
441.61	611.80
441.98	616.95
442.35	622.68
442.72	628.75
443.09	634.65
443.46	638.14
443.83	640.49
444.20	642.53
444.57	645.23
444.94	646.28
445.31	647.50
445.68	648.81
446.05	649.07
446.42	647.76
446.79	646.11
447.16	644.62
447.53	643.46
447.90	639.76
448.27	636.08
448.64	631.19
449.01	627.44
449.37	621.29
449.74	615.01
450.11	608.15
450.48	600.27
450.85	592.09
451.22	585.00
451.59	578.32
451.96	571.91
452.33	563.83
452.70	556.48
453.07	547.67
453.43	538.56
453.80	530.00
454.17	521.82
454.54	514.22
454.91	506.12
455.28	497.95
455.65	490.44
456.02	483.55
456.38	477.08
456.75	469.39
457.12	462.67
457.49	456.48
457.86	449.93
458.23	444.72
458.59	439.15
458.96	433.57
459.33	428.39
459.70	423.24
460.07	419.04
460.43	414.32
460.80	410.05
461.17	406.21
461.54	402.30
461.91	398.49
462.27	394.56
462.64	391.14
463.01	387.58
463.38	384.26
463.74	380.26
464.11	377.31
464.48	374.61
464.85	371.78
465.21	369.56
465.58	367.31
465.95	364.43
466.32	362.03
466.68	359.65
467.05	357.44
467.42	355.23
467.78	352.93
468.15	350.80
468.52	349.19
468.88	347.03
469.25	345.03
469.62	343.61
469.98	341.96
470.35	340.44
470.72	338.98
471.08	337.23
471.45	335.99
471.82	334.74
472.18	333.35
472.55	332.35
472.92	330.99
473.28	329.96
473.65	328.86
474.02	327.82
474.38	326.96
474.75	326.14
475.11	325.28
475.48	324.60
475.85	323.90
476.21	323.13
476.58	322.61
476.94	322.27
477.31	321.73
477.67	321.28
478.04	320.95
478.41	320.70
478.77	321.00
479.14	320.57
479.50	320.39
479.87	320.37
480.23	320.38
480.60	320.34
480.96	320.25
481.33	320.64
481.69	320.87
482.06	321.04
482.42	321.24
482.79	321.60
483.15	321.99
483.52	322.60
483.88	323.04
484.25	323.50
484.61	324.10
484.98	324.77
485.34	325.68
485.71	326.58
486.07	327.64
486.44	328.16
486.80	329.34
487.17	330.42
487.53	331.76
487.90	333.20
488.26	334.93
488.62	336.60
488.99	338.09
489.35	339.80
489.72	341.76
490.08	343.76
490.44	345.78
490.81	347.99
491.17	350.14
491.54	352.71
491.90	355.37
492.26	358.01
492.63	360.87
492.99	363.67
493.36	366.77
493.72	369.97
494.08	373.46
494.45	377.24
494.81	381.23
495.17	385.15
495.54	389.30
495.90	393.39
496.26	397.86
496.63	402.53
496.99	407.40
497.35	412.42
497.72	417.74
498.08	423.29
498.44	429.12
498.80	435.22
499.17	441.30
499.53	447.54
499.89	454.36
500.26	461.15
500.62	468.30
500.98	475.64
501.34	483.25
501.71	491.19
502.07	498.91
502.43	507.14
502.79	515.62
503.16	524.36
503.52	533.56
503.88	542.88
504.24	552.60
504.60	562.77
504.97	573.19
505.33	583.70
505.69	594.73
506.05	605.94
506.41	617.24
506.78	629.10
507.14	641.39
507.50	653.77
507.86	666.41
508.22	679.39
508.59	692.45
508.95	705.95
509.31	719.96
509.67	734.35
510.03	748.73
510.39	763.50
510.75	778.69
511.12	794.06
511.48	809.63
511.84	825.56
512.20	841.40
512.56	857.76
512.92	874.61
513.28	891.44
513.64	908.67
514.00	926.28
514.37	944.15
514.73	962.30
515.09	980.37
515.45	998.92
515.81	1017.59
516.17	1036.55
516.53	1055.28
516.89	1074.03
517.25	1093.63
517.61	1113.95
517.97	1134.27
518.33	1154.10
518.69	1174.32
519.05	1195.07
519.41	1215.78
519.77	1236.95
520.13	1257.63
520.49	1278.57
520.85	1300.94
521.21	1322.04
521.57	1343.50
521.93	1364.30
522.29	1385.44
522.65	1406.49
523.01	1427.37
523.37	1448.01
523.73	1469.24
524.09	1490.26
524.45	1511.11
524.81	1531.99
525.17	1552.42
525.53	1573.27
525.89	1594.52
526.25	1615.45
526.61	1635.80
526.97	1656.81
527.33	1678.20
527.68	1700.17
528.04	1721.31
528.40	1741.21
528.76	1762.27
529.12	1782.63
529.48	1803.40
529.84	1823.80
530.20	1844.99
530.56	1865.88
530.91	1886.96
531.27	1907.38
531.63	1928.10
531.99	1948.87
532.35	1968.88
532.71	1989.30
533.07	2009.76
533.42	2029.49
533.78	2049.42
534.14	2069.55
534.50	2088.90
534.86	2108.08
535.21	2125.78
535.57	2144.49
535.93	2162.03
536.29	2180.10
536.65	2198.55
537.00	2216.31
537.36	2234.05
537.72	2250.50
538.08	2268.01
538.44	2284.83
538.79	2301.48
539.15	2318.12
539.51	2334.04
539.87	2349.50
540.22	2363.94
540.58	2378.38
540.94	2392.06
541.29	2404.60
541.65	2417.46
542.01	2430.03
542.37	2440.65
542.72	2451.80
543.08	2462.49
543.44	2474.53
543.79	2484.63
544.15	2494.16
544.51	2504.25
544.87	2513.86
545.22	2522.85
545.58	2530.51
545.94	2538.05
546.29	2544.69
546.65	2551.06
547.01	2556.60
547.36	2562.11
547.72	2567.46
548.07	2571.55
548.43	2577.15
548.79	2582.12
549.14	2586.46
549.50	2590.24
549.86	2594.82
550.21	2598.90
550.57	2601.96
550.92	2603.32
551.28	2604.62
551.64	2607.34
551.99	2609.23
552.35	2610.62
552.70	2612.65
553.06	2614.14
553.41	2615.07
553.77	2617.09
554.13	2618.87
554.48	2620.66
554.84	2622.34
555.19	2623.58
555.55	2625.64
555.90	2624.46
556.26	2623.81
556.61	2621.99
556.97	2619.96
557.32	2619.21
557.68	2618.04
558.03	2616.79
558.39	2616.03
558.74	2615.42
559.10	2612.06
559.45	2608.63
559.81	2604.29
560.16	2599.46
560.52	2595.44
560.87	2591.25
561.23	2585.55
561.58	2579.47
561.94	2572.79
562.29	2565.35
562.64	2558.36
563.00	2549.72
563.35	2543.59
563.71	2536.93
564.06	2530.95
564.42	2524.45
564.77	2517.45
565.12	2509.64
565.48	2502.20
565.83	2494.15
566.19	2486.09
566.54	2478.35
566.89	2470.41
567.25	2462.99
567.60	2455.41
567.96	2447.27
568.31	2439.38
568.66	2430.60
569.02	2421.52
569.37	2413.18
569.72	2405.49
570.08	2396.39
570.43	2386.99
570.78	2377.67
571.14	2368.34
571.49	2358.14
571.84	2348.60
572.20	2337.26
572.55	2327.25
572.90	2316.33
573.26	2305.68
573.61	2294.25
573.96	2282.89
574.31	2270.56
574.67	2258.60
575.02	2246.07
575.37	2233.40
575.72	2219.93
576.08	2207.79
576.43	2194.96
576.78	2182.10
577.13	2168.41
577.49	2155.59
577.84	2143.67
578.19	2131.29
578.54	2118.51
578.90	2106.27
579.25	2094.04
579.60	2081.66
579.95	2068.56
580.30	2055.36
580.66	2041.90
581.01	2028.46
581.36	2014.66
581.71	2002.10
582.06	1988.72
582.42	1976.05
582.77	1963.22
583.12	1951.09
583.47	1938.66
583.82	1926.83
584.17	1914.85
584.53	1902.90
584.88	1889.81
585.23	1876.59
585.58	1862.60
585.93	1849.44
586.28	1835.77
586.63	1821.40
586.98	1807.06
587.34	1793.71
587.69	1780.55
588.04	1767.76
588.39	1755.60
588.74	1743.35
589.09	1731.22
589.44	1718.91
589.79	1706.77
590.14	1694.75
590.49	1682.60
590.84	1670.42
591.19	1658.19
591.54	1645.37
591.89	1633.01
592.25	1622.59
592.60	1611.29
592.95	1599.62
593.30	1587.39
593.65	1575.62
594.00	1563.61
594.35	1553.93
594.70	1542.07
595.05	1530.26
595.40	1518.04
595.75	1505.84
596.10	1494.57
596.45	1482.80
596.80	1471.50
597.15	1460.17
597.50	1448.26
597.85	1436.72
598.19	1425.10
598.54	1413.32
598.89	1402.17
599.24	1391.88
599.59	1380.09
599.94	1368.80
600.29	1358.32
600.64	1347.77
600.99	1336.80
601.34	1327.40
601.69	1316.10
602.04	1306.08
602.39	1296.38
602.74	1287.14
603.08	1277.87
603.43	1268.43
603.78	1258.96
604.13	1249.55
604.48	1239.54
604.83	1229.90
605.18	1220.20
605.53	1210.70
605.87	1201.65
606.22	1193.01
606.57	1183.41
606.92	1174.06
607.27	1165.29
607.62	1156.52
607.96	1147.98
608.31	1140.06
608.66	1131.42
609.01	1122.60
609.36	1114.07
609.70	1105.47
610.05	1096.91
610.40	1088.30
610.75	1079.40
611.10	1070.69
611.44	1061.94
611.79	1053.70
612.14	1045.69
612.49	1037.73
612.83	1030.15
613.18	1022.37
613.53	1014.62
613.88	1006.48
614.22	998.88
614.57	990.81
614.92	982.58
615.27	975.22
615.61	967.48
615.96	959.55
616.31	952.31
616.65	945.16
617.00	937.92
617.35	930.65
617.70	923.38
618.04	916.25
618.39	909.43
618.74	902.98
619.08	896.02
619.43	888.84
619.78	881.78
620.12	874.62
620.47	867.53
620.82	860.36
621.16	853.66
621.51	847.20
621.85	840.85
622.20	834.55
622.55	827.70
622.89	821.29
623.24	815.03
623.59	808.54
623.93	802.08
624.28	795.85
624.62	790.03
624.97	784.24
625.32	778.60
625.66	772.50
626.01	766.12
626.35	760.49
626.70	755.16
627.04	750.00
627.39	744.20
627.73	738.90
628.08	733.52
628.43	727.87
628.77	722.17
629.12	716.73
629.46	711.74
629.81	706.97
630.15	701.98
630.50	697.20
630.84	692.37
631.19	687.54
631.53	682.78
631.88	677.53
632.22	672.55
632.57	667.91
632.91	663.35
633.26	658.89
633.60	654.41
633.95	649.55
634.29	644.42
634.64	640.17
634.98	635.38
635.32	630.96
635.67	627.02
636.01	622.91
636.36	618.67
636.70	614.61
637.05	610.25
637.39	606.15
637.73	601.89
638.08	597.85
638.42	593.73
638.77	589.50
639.11	585.20
639.45	580.96
639.80	576.53
640.14	572.45
640.49	568.59
640.83	564.49
641.17	560.88
641.52	557.32
641.86	553.78
642.20	550.66
642.55	546.92
642.89	543.34
643.23	539.87
643.58	536.65
643.92	533.04
644.26	529.70
644.61	526.42
644.95	523.00
645.29	519.47
645.64	516.23
645.98	513.11
646.32	510.15
646.66	507.08
647.01	504.17
647.35	501.22
647.69	498.22
648.04	495.47
648.38	492.57
648.72	489.65
649.06	486.44
649.41	483.14
649.75	480.20
650.09	477.36
650.43	474.41
650.78	471.34
651.12	468.51
651.46	465.80
651.80	462.96
652.14	460.39
652.49	457.95
652.83	455.33
653.17	452.60
653.51	449.86
653.85	447.49
654.20	444.95
654.54	442.38
654.88	439.82
655.22	437.53
655.56	434.95
655.90	432.52
656.25	430.29
656.59	428.05
656.93	425.90
657.27	423.74
657.61	421.21
657.95	419.00
658.29	416.86
658.64	414.61
658.98	412.37
659.32	409.97
659.66	407.65
660.00	405.51
660.34	403.50
660.68	401.52
661.02	399.45
661.36	397.45
661.70	395.45
662.05	393.57
662.39	391.54
662.73	389.97
663.07	388.44
663.41	386.52
663.75	384.64
664.09	382.76
664.43	380.68
664.77	379.21
665.11	377.58
665.45	375.84
665.79	374.20
666.13	372.51
666.47	370.86
666.81	369.19
667.15	367.62
667.49	366.06
667.83	364.69
668.17	363.05
668.51	361.57
668.85	360.28
669.19	359.01
669.53	357.41
669.87	355.73
670.21	354.09
670.55	352.81
670.89	351.73
671.23	350.35
671.57	349.00
671.91	347.57
672.25	346.19
672.58	345.01
672.92	343.58
673.26	342.24
673.60	340.99
673.94	339.83
674.28	338.58
674.62	337.36
674.96	336.09
675.30	334.94
675.64	333.77
675.97	332.54
676.31	331.16
676.65	329.98
676.99	328.95
677.33	327.78
677.67	326.60
678.01	325.20
678.34	324.12
678.68	323.15
679.02	322.05
679.36	320.95
679.70	319.88
680.04	318.97
680.37	318.02
680.71	317.07
681.05	316.22
681.39	315.40
681.73	314.46
682.06	313.45
682.40	312.65
682.74	311.83
683.08	311.05
683.42	310.14
683.75	309.38
684.09	308.48
684.43	307.69
684.77	306.80
685.10	306.04
685.44	305.24
685.78	304.40
686.12	303.69
686.45	302.88
686.79	302.08
687.13	301.30
687.46	300.52
687.80	299.94
688.14	299.08
688.48	298.26
688.81	297.52
689.15	296.97
689.49	296.14
689.82	295.38
690.16	294.48
690.50	293.81
690.83	293.11
691.17	292.31
691.51	291.58
691.84	291.00
692.18	290.25
692.52	289.55
692.85	288.97
693.19	288.45
693.52	287.85
693.86	287.15
694.20	286.45
694.53	285.96
694.87	285.26
695.21	284.58
695.54	284.05
695.88	283.44
696.21	282.61
696.55	282.04
696.88	281.33
697.22	280.73
697.56	280.18
697.89	279.56
698.23	279.14
698.56	278.60
698.90	278.13
699.23	277.62
699.57	277.18
699.90	276.63
700.24	276.04
700.58	275.61
700.91	275.19
701.25	275.17
701.58	274.94
701.92	274.51
702.25	274.11
702.59	273.62
702.92	273.17
703.26	272.87
703.59	272.41
703.93	272.41
704.26	272.08
704.60	271.75
704.93	271.35
705.26	270.87
705.60	270.53
705.93	270.02
706.27	269.80
706.60	269.55
706.94	269.41
707.27	268.95
707.61	268.59
707.94	268.21
708.27	267.48
708.61	266.74
708.94	266.37
709.28	265.93
709.61	265.56
709.94	265.23
710.28	264.82
710.61	264.55
710.95	263.91
711.28	263.82
711.61	263.39
711.95	263.09
712.28	262.78
712.61	262.36
712.95	262.29
713.28	262.15
713.61	261.67
713.95	261.16
714.28	260.90
714.61	260.49
714.95	260.12
715.28	259.72
715.61	259.40
715.95	259.17
716.28	258.86
716.61	258.63
716.95	258.31
717.28	258.01
717.61	257.63
717.94	257.25
718.28	256.64
718.61	256.35
718.94	256.07
719.27	255.77
719.61	255.59
719.94	255.23
720.27	254.68
720.60	254.35
720.94	254.12
721.27	253.94
721.60	253.88
721.93	253.66
722.27	253.61
722.60	253.49
722.93	253.18
723.26	253.00
723.59	252.68
723.93	252.47
724.26	252.31
724.59	252.06
724.92	251.85
725.25	251.79
725.59	251.61
725.92	251.39
726.25	251.15
726.58	250.93
726.91	250.64
727.24	250.52
727.57	250.33
727.91	250.00
728.24	249.82
728.57	249.43
728.90	249.20
729.23	248.83
729.56	248.82
729.89	248.62
730.22	248.41
730.55	248.21
730.89	247.95
731.22	247.66
731.55	247.56
731.88	247.43
732.21	247.20
732.54	246.91
732.87	246.73
733.20	246.61
733.53	246.48
733.86	246.31
734.19	246.05
734.52	245.99
734.85	246.17
735.18	245.91
735.51	245.98
735.84	245.89
736.17	245.90
736.50	245.49
736.83	245.86
737.16	245.69
737.49	245.62
737.82	245.43
738.15	245.41
738.48	245.16
738.81	244.97
739.14	244.68
739.47	244.54
739.80	244.37
740.13	244.26
740.46	244.08
740.79	243.90
741.12	243.72
741.45	243.48
741.78	243.05
742.11	243.01
742.44	242.70
742.77	242.58
743.10	242.32
743.43	242.17
743.75	241.47
744.08	241.98
744.41	241.69
744.74	241.60
745.07	241.38
745.40	241.38
745.73	241.50
746.06	241.44
746.39	241.39
746.71	241.24
747.04	241.00
747.37	240.84
747.70	240.78
748.03	240.76
748.36	240.71
748.68	240.59
749.01	240.39
749.34	240.31
749.67	240.17
750.00	240.16
750.33	240.38
750.65	240.31
750.98	239.59
751.31	239.56
751.64	239.50
751.97	239.67
752.29	239.47
752.62	239.05
752.95	238.83
753.28	238.66
753.60	238.60
753.93	238.69
754.26	238.60
754.59	238.38
754.91	238.17
755.24	238.00
755.57	237.92
755.90	237.73
756.22	237.60
756.55	237.47
756.88	237.26
757.20	236.93
757.53	236.71
757.86	236.64
758.19	236.65
758.51	236.55
758.84	236.17
759.17	236.01
759.49	235.94
759.82	236.23
760.15	236.20
760.47	236.02
760.80	235.76
761.13	235.69
761.45	235.57
761.78	235.56
762.11	235.53
762.43	235.36
762.76	235.36
763.08	235.30
763.41	235.21
763.74	235.16
764.06	235.03
764.39	234.98
764.71	234.87
765.04	234.69
765.37	234.57
765.69	234.47
766.02	234.44
766.34	234.40
766.67	234.09
767.00	234.08
767.32	234.33
767.65	234.66
767.97	234.60
768.30	234.61
768.62	234.52
768.95	234.38
769.27	234.36
769.60	234.33
769.92	234.18
770.25	234.14
770.57	233.97
770.90	233.88
771.22	233.79
771.55	233.70
771.87	233.65
772.20	233.52
772.52	233.96
772.85	234.48
773.17	234.41
773.50	234.34
773.82	234.20
774.15	233.91
774.47	233.44
774.80	233.24
775.12	233.14
775.45	233.05
775.77	232.97
776.09	232.95
776.42	232.90
776.74	233.03
777.07	232.89
777.39	232.94
777.72	232.83
778.04	232.85
778.36	232.83
778.69	232.72
779.01	232.75
779.33	232.25
779.66	231.68
779.98	231.67
780.31	231.60
780.63	231.79
780.95	231.80
781.28	231.75
781.60	231.75
781.92	231.71
782.25	231.63
782.57	231.66
782.89	231.54
783.22	231.40
783.54	231.26
783.86	231.31
784.19	231.17
784.51	231.32
784.83	231.17
785.16	231.08
785.48	231.06
785.80	231.03
786.12	231.00
786.45	230.99
786.77	230.97
787.09	230.86
787.42	230.61
787.74	230.57
788.06	230.52
788.38	230.44
788.71	230.34
789.03	230.34
789.35	230.30
789.67	230.20
789.99	230.27
790.32	230.15
790.64	230.11
790.96	230.47
791.28	230.26
791.61	230.24
791.93	230.21
792.25	230.17
792.57	230.49
792.89	230.40
793.21	230.36
793.54	230.31
793.86	230.34
794.18	230.32
794.50	230.22
794.82	230.29
795.14	230.33
795.47	230.44
795.79	230.39
796.11	230.29
796.43	230.30
796.75	230.29
797.07	230.31
797.39	230.29
797.71	229.95
798.04	230.00
798.36	229.95
798.68	229.90
799.00	229.98
799.32	229.67
799.64	229.70
799.96	229.67
800.28	229.71
800.60	229.65
800.92	229.65
801.24	229.60
801.56	229.64
801.89	229.56
802.21	229.51
802.53	229.50
802.85	229.63
803.17	229.85
803.49	229.70
803.81	229.65
804.13	229.57
804.45	229.44
804.77	229.44
805.09	229.53
805.41	229.57
805.73	229.45
806.05	229.31
806.37	229.28
806.69	229.21
807.01	229.11
807.33	229.17
807.65	229.00
807.97	229.24
808.28	229.09
808.60	229.10
808.92	229.04
809.24	229.30
809.56	229.15
809.88	228.97
810.20	228.95
810.52	229.07
810.84	228.97
811.16	228.97
811.48	228.95
811.80	229.10
812.12	229.06
812.43	229.14
812.75	229.25
813.07	229.20
813.39	229.19
813.71	229.12
814.03	229.04
814.35	229.09
814.67	228.87
814.98	228.89
815.30	228.86
815.62	228.76
815.94	228.49
816.26	228.70
816.58	228.59
816.89	228.72
817.21	228.66
817.53	228.74
817.85	228.73
818.17	228.71
818.48	228.51
818.80	228.58
819.12	228.44
819.44	228.26
819.76	228.20
820.07	228.17
820.39	228.20
820.71	228.21
821.03	228.17
821.34	228.10
821.66	228.14
821.98	228.18
822.30	228.19
822.61	228.39
822.93	228.13
823.25	228.10
823.57	227.99
823.88	228.01
824.20	227.99
824.52	228.08
824.83	228.01
825.15	227.91
825.47	227.86
825.79	227.91
826.10	227.94
826.42	227.95
826.74	228.06
827.05	227.98
827.37	228.00
827.69	228.00
828.00	228.02
828.32	228.03
828.64	227.95
828.95	228.30
829.27	228.18
829.58	228.20
829.90	228.30
830.22	228.28
830.53	228.03
830.85	227.98
831.17	227.79
831.48	227.77
831.80	227.79
832.11	227.70
832.43	227.65
832.75	227.70
833.06	228.00
833.38	227.82
833.69	227.77
834.01	227.80
834.32	227.71
834.64	227.74
834.96	227.74
835.27	227.81
835.59	227.55
835.90	227.47
836.22	227.52
836.53	227.44
836.85	227.44
837.16	228.05
837.48	228.06
837.79	228.25
838.11	228.27
838.42	228.30
838.74	228.46
839.05	228.43
839.37	228.38
839.68	227.97
840.00	227.95
840.31	228.04
840.63	228.01
840.94	228.01
841.26	227.91
841.57	227.92
841.88	227.88
842.20	227.85
842.51	227.75
842.83	227.74
843.14	228.16
843.46	228.19
843.77	227.83
844.08	227.82
844.40	227.71
844.71	227.70
845.03	227.70
845.34	227.67
845.65	227.67
845.97	227.67
846.28	227.77
846.60	227.84
846.91	227.81
847.22	227.77
847.54	227.86
847.85	227.94
848.16	227.78
848.48	227.71
848.79	227.83
849.10	227.99
849.42	227.97
849.73	227.58
850.04	227.58
850.36	227.45
850.67	227.58
850.98	227.56
851.30	227.62
851.61	227.59
851.92	227.51
852.23	227.66
852.55	227.67
852.86	227.68
853.17	227.66
853.49	227.79
853.80	227.85
854.11	227.90
854.42	227.86
854.74	227.88
855.05	227.97
855.36	227.71
855.67	227.61
855.99	227.64
856.30	228.15
856.61	228.13
856.92	228.17
857.23	228.11
857.55	228.11
857.86	228.03
858.17	228.09
858.48	227.98
858.79	227.83
859.11	227.82
859.42	227.82
859.73	227.79
860.04	227.69
860.35	227.57
860.66	227.43
860.98	227.45
861.29	227.56
861.60	227.43
861.91	227.63
862.22	227.62
862.53	227.54
862.84	226.91
863.16	227.02
863.47	226.93
863.78	226.79
864.09	226.81
864.40	226.81
864.71	226.79
865.02	226.87
865.33	226.85
865.64	226.80
865.95	226.79
866.27	227.06
866.58	226.98
866.89	227.08
867.20	227.06
867.51	226.93
867.82	226.86
868.13	227.03
868.44	226.89
868.75	227.03
869.06	227.04
869.37	227.05
869.68	226.91
869.99	227.04
870.30	227.11
870.61	227.13
870.92	227.11
871.23	227.05
871.54	227.06
871.85	227.16
872.16	227.17
872.47	227.14
872.78	226.88
873.09	227.03
873.40	226.89
873.71	226.96
874.02	227.07
874.33	227.02
874.64	226.93
874.95	227.00
875.26	226.80
875.56	226.74
875.87	226.75
876.18	226.72
876.49	227.11
876.80	227.06
877.11	226.99
877.42	227.04
877.73	227.10
878.04	227.05
878.35	226.97
878.66	227.01
878.96	227.04
879.27	227.07
879.58	226.91
879.89	226.99
880.20	227.10
880.51	227.13
880.82	227.15
881.12	227.22
881.43	227.15
881.74	227.15
882.05	227.16
882.36	227.26
882.67	227.32
882.97	226.79
883.28	226.82
883.59	226.82
883.90	226.80
884.21	226.84
884.51	226.83
884.82	226.83
885.13	226.81
885.44	226.84
885.74	226.85
886.05	226.91
886.36	226.89
886.67	226.73
886.98	226.94
887.28	227.01
887.59	226.96
887.90	227.01
888.20	226.97
888.51	227.09
888.82	226.97
889.13	227.05
889.43	227.50
889.74	227.48
890.05	227.50
890.35	227.51
890.66	227.46
890.97	227.47
891.28	227.45
891.58	227.47
891.89	227.42
892.20	227.39
892.50	227.38
892.81	227.44
893.12	227.46
893.42	227.25
893.73	227.20
894.04	227.19
894.34	227.20
894.65	227.21
894.95	227.09
895.26	227.16
895.57	227.40
895.87	227.00
896.18	227.03
896.48	226.99
896.79	226.97
897.10	226.98
897.40	226.97
897.71	227.02
898.01	226.95
898.32	227.05
898.63	227.00
898.93	227.04
899.24	226.99
899.54	226.92
899.85	226.88
900.15	226.86
900.46	226.86
900.76	226.83
901.07	226.77
901.38	226.80
901.68	226.83
901.99	226.51
902.29	226.52
902.60	226.56
902.90	226.59
903.21	226.55
903.51	226.58
903.82	226.67
904.12	226.66
904.43	226.66
904.73	226.54
905.03	226.55
905.34	226.95
905.64	226.83
905.95	226.85
906.25	226.82
906.56	226.80
906.86	226.78
907.17	226.76
907.47	226.87
907.77	226.81
908.08	226.64
908.38	226.67
908.69	226.69
908.99	226.71
909.30	226.73
909.60	226.75
909.90	226.66
910.21	226.53
910.51	226.43
910.81	226.53
911.12	226.58
911.42	226.58
911.73	226.05
912.03	226.10
912.33	226.12
912.64	226.07
912.94	226.04
913.24	226.01
913.55	225.93
913.85	225.83
914.15	225.93
914.46	226.05
914.76	225.96
915.06	225.88
915.37	225.82
915.67	225.70
915.97	225.70
916.27	225.61
916.58	225.65
916.88	225.63
917.18	225.54
917.49	225.86
917.79	225.82
918.09	225.92
918.39	226.07
918.70	226.10
919.00	226.15
919.30	226.40
919.60	226.37
919.91	226.41
920.21	226.48
920.51	226.32
920.81	226.26
921.12	226.29
921.42	226.32
921.72	226.31
922.02	226.36
922.32	226.47
922.63	226.58
922.93	226.81
923.23	226.92
923.53	226.90
923.83	226.53
924.13	226.67
924.44	226.75
924.74	226.81
925.04	226.93
925.34	226.92
925.64	226.73
925.94	226.71
926.24	226.97
926.55	226.97
926.85	227.08
927.15	227.10
927.45	227.16
927.75	227.18
928.05	227.20
928.35	227.25
928.65	227.34
928.95	227.37
929.26	227.18
929.56	227.27
929.86	227.34
930.16	227.30
930.46	227.25
930.76	227.28
931.06	227.12
931.36	226.96
931.66	227.07
931.96	227.13
932.26	227.24
932.56	227.01
932.86	227.04
933.16	227.09
933.46	227.12
933.76	227.05
934.06	227.13
934.36	227.25
934.66	227.19
934.96	227.09
935.26	227.04
935.56	227.08
935.86	226.96
936.16	226.94
936.46	227.00
936.76	226.94
937.06	226.84
937.36	226.83
937.66	226.89
937.96	226.85
938.26	226.75
938.56	226.74
938.86	226.78
939.16	226.84
939.46	226.84
939.76	226.79
940.06	226.84
940.35	226.71
940.65	226.59
940.95	226.64
941.25	226.54
941.55	226.53
941.85	226.50
942.15	226.60
942.45	226.72
942.75	226.63
943.04	226.69
943.34	226.78
943.64	226.74
943.94	226.72
944.24	226.69
944.54	226.75
944.84	226.68
945.13	226.63
945.43	226.57
945.73	226.54
946.03	226.49
946.33	226.46
946.62	226.42
946.92	226.36
947.22	226.44
947.52	226.50
947.82	226.56
948.11	226.52
948.41	226.41
948.71	226.28
949.01	226.36
949.31	226.38
949.60	226.32
949.90	226.30
950.20	226.19
950.50	226.18
950.79	226.09
951.09	226.17
951.39	226.18
951.69	226.11
951.98	226.18
952.28	226.17
952.58	226.07
952.87	226.07
953.17	226.09
953.47	225.94
953.76	225.90
954.06	225.81
954.36	225.75
954.66	225.70
954.95	225.83
955.25	225.82
955.55	225.77
955.84	225.66
956.14	225.79
956.44	225.83
956.73	225.79
957.03	225.84
957.32	225.84
957.62	225.77
957.92	225.88
958.21	225.83
958.51	226.38
958.81	226.43
959.10	226.54
959.40	226.70
959.69	226.76
959.99	226.82
960.29	226.83
960.58	226.81
960.88	227.03
961.17	226.95
961.47	227.00
961.76	227.02
962.06	227.20
962.36	227.05
962.65	227.09
962.95	227.11
963.24	227.07
963.54	227.04
963.83	227.11
964.13	227.09
964.42	227.00
964.72	226.65
965.01	226.69
965.31	226.62
965.60	226.43
965.90	226.69
966.19	226.56
966.49	226.61
966.78	226.61
967.08	226.54
967.37	226.50
967.67	226.45
967.96	226.50
968.26	226.41
968.55	226.50
968.85	226.52
969.14	226.55
969.43	226.56
969.73	226.51
970.02	226.46
970.32	226.42
970.61	226.47
970.91	226.31
971.20	226.28
971.49	226.32
971.79	226.35
972.08	226.05
972.38	226.14
972.67	226.07
972.96	226.17
973.26	226.05
973.55	226.25
973.85	226.19
974.14	226.14
974.43	226.16
974.73	226.12
975.02	226.07
975.31	226.06
975.61	226.10
975.90	226.13
976.19	226.10
976.49	226.22
976.78	226.18
977.07	226.19
977.37	226.23
977.66	226.28
977.95	226.26
978.24	226.32
978.54	226.33
978.83	226.33
979.12	226.29
979.42	226.40
979.71	226.34
980.00	226.35
980.29	226.38
980.59	226.34
980.88	226.43
981.17	226.40
981.46	226.42
981.76	226.37
982.05	226.52
982.34	226.57
982.63	226.53
982.93	226.59
983.22	226.75
983.51	226.79
983.80	226.80
984.09	226.88
984.39	226.85
984.68	226.88
984.97	226.93
985.26	226.88
985.55	226.85
985.85	226.75
986.14	226.85
986.43	226.91
986.72	226.89
987.01	226.80
987.30	226.80
987.59	226.80
987.89	226.78
988.18	226.61
988.47	226.62
988.76	226.57
989.05	226.48
989.34	226.40
989.63	226.49
989.92	226.37
990.22	226.29
990.51	226.25
990.80	226.16
991.09	226.15
991.38	226.19
991.67	226.19
991.96	226.16
992.25	226.20
992.54	226.06
992.83	226.05
993.12	226.02
993.41	226.16
993.70	226.36
993.99	226.52
994.28	226.58
994.58	226.66
994.87	226.60
995.16	226.62
995.45	226.60
995.74	226.43
996.03	226.65
996.32	226.76
996.61	226.93
996.90	226.94
997.19	226.99
997.48	227.04
997.77	227.00
998.06	226.95
998.34	226.85
998.63	226.83
998.92	226.89
999.21	226.98
999.50	226.93
999.79	226.76
1000.08	226.69
1000.37	226.73
1000.66	226.62
1000.95	226.79
1001.24	226.84
1001.53	226.92
1001.82	226.95
1002.11	226.77
1002.40	226.84
1002.68	226.94
1002.97	227.22
1003.26	227.12
1003.55	227.03
1003.84	227.05
1004.13	227.31
1004.42	227.33
1004.71	227.40
1004.99	227.34
1005.28	227.38
1005.57	227.40
1005.86	227.38
1006.15	227.34
1006.44	227.26
1006.72	227.32
1007.01	227.22
1007.30	227.29
1007.59	227.17
1007.88	227.07
1008.17	227.02
1008.45	226.85
1008.74	226.64
1009.03	226.50
1009.32	226.54
1009.60	226.52
1009.89	226.54
1010.18	226.31
1010.47	226.27
1010.76	226.25
1011.04	226.21
1011.33	226.29
1011.62	226.33
1011.91	226.28
1012.19	226.32
1012.48	226.35
1012.77	226.36
1013.05	226.54
1013.34	226.53
1013.63	226.54
1013.92	226.58
1014.20	226.66
1014.49	226.67
1014.78	226.70
1015.06	226.51
1015.35	226.50
1015.64	226.56
1015.92	226.59
1016.21	226.59
1016.50	226.57
1016.78	226.66
1017.07	226.70
1017.36	226.58
1017.64	226.47
1017.93	226.65
1018.22	226.61
1018.50	226.48
1018.79	226.49
1019.08	226.26
1019.36	226.24
1019.65	226.19
1019.93	226.37
1020.22	226.42
1020.51	226.68
1020.79	226.66
1021.08	226.00
1021.36	223.70
1021.65	227.20
1021.94	225.80
1022.22	226.80
1022.51	224.95
1022.79	229.05
1023.08	227.50
1023.36	231.90
1023.65	225.95
>>>>>End Processed Spectral Data<<<<<
