SpectraSuite Data File
++++++++++++++++++++++++++++++++++++
Date: Wed Sep 04 17:45:02 EDT 2013
User: lab3
Dark Spectrum Present: Yes
Reference Spectrum Present: No
Number of Sampled Component Spectra: 1
Spectrometers: USB2E7196
Integration Time (usec): 170000 (USB2E7196)
Spectra Averaged: 20 (USB2E7196)
Boxcar Smoothing: 10 (USB2E7196)
Correct for Electrical Dark: No (USB2E7196)
Strobe/Lamp Enabled: No (USB2E7196)
Correct for Detector Non-linearity: No (USB2E7196)
Correct for Stray Light: No (USB2E7196)
Number of Pixels in Processed Spectrum: 2048
>>>>>Begin Processed Spectral Data<<<<<
339.09	0.00
339.48	212.95
339.86	215.15
340.24	215.95
340.63	216.45
341.01	225.25
341.39	219.25
341.78	221.35
342.16	224.35
342.54	222.75
342.93	211.98
343.31	222.64
343.69	223.23
344.07	223.62
344.46	224.14
344.84	224.56
345.22	224.58
345.60	224.90
345.99	225.14
346.37	225.21
346.75	225.34
347.13	225.43
347.52	225.47
347.90	225.60
348.28	225.56
348.66	225.70
349.05	225.63
349.43	225.67
349.81	225.75
350.19	225.84
350.57	225.94
350.96	226.07
351.34	226.20
351.72	226.26
352.10	226.39
352.48	226.35
352.87	226.38
353.25	226.42
353.63	226.47
354.01	226.45
354.39	226.55
354.77	226.64
355.15	226.83
355.54	226.86
355.92	226.83
356.30	226.92
356.68	227.23
357.06	227.30
357.44	227.26
357.82	227.31
358.20	227.77
358.58	227.73
358.97	227.84
359.35	227.94
359.73	228.04
360.11	228.15
360.49	228.28
360.87	228.39
361.25	228.44
361.63	228.64
362.01	228.77
362.39	228.71
362.77	228.73
363.15	228.74
363.53	228.75
363.91	228.87
364.29	228.92
364.67	228.55
365.05	228.62
365.43	228.77
365.81	228.91
366.19	228.76
366.57	229.00
366.95	229.00
367.33	228.96
367.71	229.00
368.09	229.04
368.47	229.04
368.85	229.00
369.23	229.14
369.61	228.95
369.99	229.09
370.37	229.22
370.75	229.51
371.13	229.41
371.51	229.40
371.89	229.32
372.27	229.37
372.65	229.37
373.03	229.36
373.41	229.30
373.78	229.17
374.16	228.93
374.54	228.80
374.92	228.66
375.30	228.54
375.68	228.39
376.06	228.36
376.44	228.21
376.82	228.15
377.19	228.04
377.57	227.96
377.95	227.74
378.33	227.55
378.71	227.15
379.09	227.20
379.47	227.13
379.84	227.06
380.22	226.89
380.60	226.75
380.98	226.57
381.36	226.43
381.73	226.30
382.11	226.32
382.49	226.26
382.87	226.17
383.25	226.20
383.62	226.68
384.00	226.51
384.38	226.49
384.76	226.55
385.13	226.67
385.51	226.61
385.89	226.45
386.27	226.46
386.64	226.45
387.02	226.27
387.40	226.20
387.78	226.12
388.15	226.13
388.53	226.11
388.91	226.17
389.29	226.15
389.66	226.32
390.04	226.21
390.42	226.23
390.79	226.27
391.17	226.21
391.55	225.67
391.92	225.69
392.30	225.67
392.68	225.54
393.05	225.44
393.43	225.50
393.81	225.57
394.18	225.54
394.56	225.59
394.94	225.75
395.31	225.75
395.69	226.00
396.06	226.13
396.44	226.21
396.82	226.21
397.19	226.51
397.57	226.39
397.95	226.52
398.32	226.42
398.70	226.57
399.07	226.78
399.45	226.84
399.82	226.91
400.20	227.01
400.58	227.15
400.95	227.14
401.33	227.31
401.70	227.83
402.08	227.92
402.45	228.04
402.83	228.30
403.20	228.44
403.58	228.53
403.95	228.70
404.33	228.96
404.71	229.18
405.08	229.61
405.46	229.88
405.83	230.17
406.21	230.46
406.58	230.66
406.96	230.95
407.33	231.37
407.70	231.76
408.08	232.52
408.45	232.98
408.83	233.48
409.20	233.85
409.58	233.91
409.95	234.51
410.33	235.07
410.70	235.40
411.08	236.06
411.45	236.61
411.82	237.14
412.20	237.90
412.57	238.86
412.95	239.27
413.32	240.19
413.69	240.92
414.07	241.79
414.44	242.76
414.82	243.68
415.19	244.82
415.56	245.95
415.94	246.89
416.31	248.30
416.68	249.68
417.06	251.14
417.43	252.78
417.81	254.52
418.18	256.31
418.55	258.18
418.93	260.14
419.30	262.17
419.67	264.33
420.04	266.39
420.42	268.60
420.79	271.48
421.16	274.06
421.54	277.13
421.91	280.09
422.28	283.03
422.66	286.16
423.03	289.51
423.40	292.75
423.77	296.15
424.15	299.53
424.52	303.20
424.89	307.40
425.26	311.18
425.64	314.77
426.01	318.80
426.38	323.10
426.75	327.42
427.13	331.91
427.50	336.50
427.87	341.40
428.24	346.09
428.61	350.53
428.99	355.71
429.36	360.93
429.73	366.31
430.10	371.72
430.47	377.35
430.85	382.78
431.22	388.80
431.59	395.46
431.96	401.62
432.33	408.45
432.70	414.80
433.08	422.47
433.45	429.77
433.82	436.98
434.19	444.90
434.56	452.90
434.93	460.41
435.30	467.88
435.68	476.28
436.05	484.54
436.42	492.68
436.79	500.21
437.16	508.40
437.53	516.88
437.90	525.27
438.27	533.66
438.64	542.51
439.01	550.59
439.38	557.57
439.75	564.59
440.13	572.40
440.50	579.86
440.87	585.91
441.24	592.06
441.61	598.94
441.98	603.88
442.35	609.52
442.72	615.51
443.09	621.30
443.46	624.48
443.83	626.71
444.20	628.49
444.57	631.15
444.94	632.20
445.31	633.21
445.68	634.84
446.05	634.95
446.42	633.54
446.79	632.24
447.16	630.63
447.53	629.37
447.90	625.73
448.27	622.12
448.64	617.36
449.01	613.93
449.37	607.93
449.74	602.19
450.11	595.56
450.48	587.95
450.85	580.22
451.22	573.70
451.59	567.37
451.96	561.33
452.33	553.46
452.70	546.41
453.07	538.15
453.43	529.08
453.80	520.87
454.17	513.11
454.54	505.61
454.91	497.71
455.28	490.00
455.65	482.67
456.02	476.17
456.38	469.96
456.75	462.33
457.12	455.81
457.49	449.60
457.86	443.30
458.23	438.23
458.59	432.69
458.96	427.08
459.33	422.14
459.70	417.17
460.07	413.08
460.43	408.44
460.80	404.20
461.17	400.52
461.54	396.73
461.91	392.84
462.27	389.05
462.64	385.85
463.01	382.30
463.38	379.06
463.74	374.97
464.11	371.95
464.48	369.42
464.85	366.76
465.21	364.75
465.58	362.56
465.95	359.74
466.32	357.55
466.68	355.24
467.05	353.01
467.42	350.74
467.78	348.46
468.15	346.34
468.52	344.79
468.88	342.69
469.25	340.78
469.62	339.44
469.98	337.81
470.35	336.30
470.72	334.81
471.08	333.19
471.45	331.96
471.82	330.74
472.18	329.21
472.55	328.11
472.92	326.73
473.28	325.68
473.65	324.63
474.02	323.54
474.38	322.71
474.75	321.99
475.11	321.28
475.48	320.72
475.85	320.06
476.21	319.38
476.58	318.92
476.94	318.46
477.31	317.95
477.67	317.57
478.04	317.32
478.41	317.16
478.77	317.53
479.14	317.38
479.50	317.25
479.87	317.38
480.23	317.46
480.60	317.45
480.96	317.36
481.33	317.71
481.69	317.94
482.06	318.15
482.42	318.47
482.79	318.86
483.15	319.35
483.52	320.12
483.88	320.66
484.25	321.16
484.61	321.83
484.98	322.55
485.34	323.51
485.71	324.41
486.07	325.32
486.44	325.90
486.80	326.92
487.17	328.10
487.53	329.38
487.90	330.80
488.26	332.47
488.62	334.27
488.99	335.79
489.35	337.56
489.72	339.45
490.08	341.25
490.44	343.20
490.81	345.45
491.17	347.51
491.54	349.87
491.90	352.45
492.26	355.21
492.63	358.04
492.99	360.79
493.36	363.84
493.72	367.17
494.08	370.56
494.45	374.30
494.81	378.24
495.17	382.11
495.54	386.24
495.90	390.35
496.26	394.65
496.63	399.27
496.99	403.89
497.35	408.98
497.72	414.27
498.08	419.69
498.44	425.20
498.80	431.21
499.17	437.24
499.53	443.46
499.89	450.08
500.26	456.81
500.62	463.73
500.98	471.10
501.34	478.41
501.71	485.95
502.07	493.60
502.43	501.50
502.79	509.77
503.16	518.31
503.52	527.24
503.88	536.40
504.24	546.02
504.60	556.06
504.97	566.23
505.33	576.47
505.69	587.38
506.05	598.43
506.41	609.62
506.78	621.20
507.14	633.02
507.50	645.05
507.86	657.61
508.22	670.47
508.59	683.21
508.95	696.69
509.31	710.66
509.67	724.81
510.03	738.82
510.39	753.27
510.75	768.08
511.12	782.88
511.48	798.20
511.84	813.69
512.20	829.33
512.56	845.21
512.92	861.60
513.28	878.12
513.64	894.93
514.00	911.95
514.37	929.32
514.73	947.17
515.09	965.15
515.45	982.94
515.81	1000.99
516.17	1019.47
516.53	1037.89
516.89	1056.33
517.25	1075.11
517.61	1095.25
517.97	1115.10
518.33	1134.65
518.69	1154.67
519.05	1174.73
519.41	1194.69
519.77	1215.26
520.13	1235.55
520.49	1255.86
520.85	1276.31
521.21	1296.74
521.57	1317.44
521.93	1337.70
522.29	1358.24
522.65	1378.27
523.01	1398.79
523.37	1418.96
523.73	1439.52
524.09	1459.28
524.45	1479.37
524.81	1500.05
525.17	1519.83
525.53	1539.83
525.89	1560.13
526.25	1580.00
526.61	1599.84
526.97	1620.41
527.33	1641.10
527.68	1662.54
528.04	1683.00
528.40	1703.20
528.76	1723.40
529.12	1743.23
529.48	1763.38
529.84	1782.65
530.20	1803.11
530.56	1823.29
530.91	1843.74
531.27	1863.09
531.63	1883.05
531.99	1902.92
532.35	1921.93
532.71	1941.47
533.07	1961.21
533.42	1980.46
533.78	2000.07
534.14	2019.16
534.50	2037.54
534.86	2055.58
535.21	2072.28
535.57	2090.28
535.93	2107.31
536.29	2124.47
536.65	2142.00
537.00	2158.84
537.36	2176.03
537.72	2191.91
538.08	2207.99
538.44	2223.79
538.79	2239.89
539.15	2255.92
539.51	2270.99
539.87	2285.56
540.22	2298.88
540.58	2312.74
540.94	2325.35
541.29	2337.25
541.65	2349.13
542.01	2360.73
542.37	2370.85
542.72	2381.33
543.08	2391.17
543.44	2402.44
543.79	2411.94
544.15	2420.95
544.51	2430.53
544.87	2439.22
545.22	2447.13
545.58	2454.15
545.94	2460.64
546.29	2466.43
546.65	2471.98
547.01	2476.96
547.36	2482.03
547.72	2486.97
548.07	2490.24
548.43	2494.91
548.79	2498.93
549.14	2502.54
549.50	2505.92
549.86	2509.54
550.21	2512.41
550.57	2515.33
550.92	2515.95
551.28	2516.91
551.64	2518.61
551.99	2519.72
552.35	2521.07
552.70	2522.74
553.06	2524.00
553.41	2524.86
553.77	2526.34
554.13	2527.31
554.48	2528.40
554.84	2529.05
555.19	2529.80
555.55	2531.03
555.90	2529.72
556.26	2528.88
556.61	2527.02
556.97	2524.54
557.32	2523.17
557.68	2521.56
558.03	2519.51
558.39	2518.16
558.74	2516.75
559.10	2513.44
559.45	2509.63
559.81	2504.85
560.16	2499.41
560.52	2494.67
560.87	2489.58
561.23	2483.54
561.58	2477.43
561.94	2470.43
562.29	2462.98
562.64	2455.87
563.00	2447.71
563.35	2441.08
563.71	2433.89
564.06	2427.42
564.42	2420.58
564.77	2413.73
565.12	2406.08
565.48	2398.77
565.83	2390.58
566.19	2382.90
566.54	2375.01
566.89	2367.00
567.25	2359.07
567.60	2351.76
567.96	2344.10
568.31	2336.37
568.66	2328.04
569.02	2319.22
569.37	2311.13
569.72	2303.64
570.08	2294.30
570.43	2284.61
570.78	2275.83
571.14	2266.58
571.49	2256.68
571.84	2247.45
572.20	2236.50
572.55	2226.55
572.90	2215.54
573.26	2205.33
573.61	2194.25
573.96	2183.24
574.31	2171.33
574.67	2160.02
575.02	2147.73
575.37	2135.20
575.72	2122.37
576.08	2110.51
576.43	2098.43
576.78	2085.58
577.13	2072.16
577.49	2059.82
577.84	2048.43
578.19	2036.39
578.54	2024.11
578.90	2012.35
579.25	2000.35
579.60	1988.55
579.95	1976.17
580.30	1963.57
580.66	1950.51
581.01	1937.51
581.36	1924.05
581.71	1911.90
582.06	1899.27
582.42	1887.23
582.77	1875.21
583.12	1863.69
583.47	1851.73
583.82	1840.14
584.17	1828.82
584.53	1817.75
584.88	1805.46
585.23	1792.73
585.58	1779.32
585.93	1766.50
586.28	1753.45
586.63	1739.90
586.98	1726.11
587.34	1713.33
587.69	1700.70
588.04	1688.92
588.39	1677.09
588.74	1665.55
589.09	1653.84
589.44	1641.63
589.79	1629.97
590.14	1618.28
590.49	1606.62
590.84	1594.99
591.19	1583.25
591.54	1571.27
591.89	1559.37
592.25	1549.47
592.60	1538.60
592.95	1527.67
593.30	1516.50
593.65	1505.22
594.00	1493.96
594.35	1484.77
594.70	1473.54
595.05	1462.42
595.40	1450.54
595.75	1439.20
596.10	1428.17
596.45	1417.23
596.80	1406.75
597.15	1395.66
597.50	1384.40
597.85	1373.52
598.19	1362.23
598.54	1351.24
598.89	1340.67
599.24	1330.57
599.59	1319.51
599.94	1309.08
600.29	1299.00
600.64	1289.00
600.99	1278.68
601.34	1269.45
601.69	1258.56
602.04	1249.03
602.39	1239.89
602.74	1231.31
603.08	1222.40
603.43	1213.60
603.78	1204.44
604.13	1195.52
604.48	1186.29
604.83	1177.08
605.18	1167.67
605.53	1158.87
605.87	1150.11
606.22	1141.84
606.57	1132.77
606.92	1123.69
607.27	1115.36
607.62	1107.00
607.96	1099.15
608.31	1091.85
608.66	1084.07
609.01	1075.96
609.36	1067.94
609.70	1059.77
610.05	1051.44
610.40	1043.33
610.75	1034.98
611.10	1027.05
611.44	1018.70
611.79	1011.17
612.14	1003.80
612.49	996.33
612.83	989.22
613.18	981.68
613.53	974.32
613.88	966.84
614.22	959.50
614.57	951.72
614.92	944.28
615.27	936.66
615.61	929.31
615.96	921.76
616.31	914.72
616.65	907.99
617.00	900.89
617.35	894.07
617.70	887.15
618.04	880.62
618.39	874.07
618.74	867.94
619.08	861.27
619.43	854.52
619.78	847.89
620.12	840.89
620.47	834.43
620.82	827.64
621.16	821.14
621.51	815.15
621.85	809.06
622.20	802.68
622.55	796.46
622.89	790.20
623.24	784.19
623.59	778.12
623.93	772.03
624.28	766.24
624.62	760.95
624.97	755.50
625.32	750.04
625.66	744.29
626.01	738.45
626.35	733.03
626.70	727.66
627.04	722.72
627.39	717.51
627.73	712.49
628.08	707.54
628.43	702.42
628.77	697.23
629.12	692.30
629.46	687.80
629.81	683.27
630.15	678.74
630.50	674.09
630.84	669.45
631.19	664.97
631.53	660.74
631.88	655.67
632.22	651.03
632.57	646.59
632.91	642.26
633.26	638.07
633.60	633.61
633.95	629.22
634.29	624.47
634.64	620.07
634.98	615.37
635.32	611.22
635.67	607.49
636.01	603.39
636.36	599.15
636.70	595.33
637.05	591.45
637.39	587.54
637.73	583.66
638.08	579.88
638.42	575.84
638.77	571.62
639.11	567.30
639.45	563.09
639.80	558.86
640.14	554.97
640.49	551.17
640.83	547.63
641.17	544.19
641.52	540.90
641.86	537.68
642.20	534.77
642.55	531.21
642.89	527.70
643.23	524.32
643.58	521.42
643.92	517.91
644.26	514.54
644.61	511.53
644.95	508.30
645.29	505.00
645.64	502.05
645.98	499.12
646.32	496.56
646.66	493.72
647.01	490.97
647.35	488.22
647.69	485.43
648.04	482.75
648.38	480.14
648.72	477.34
649.06	474.47
649.41	471.48
649.75	468.68
650.09	465.98
650.43	463.41
650.78	460.54
651.12	457.83
651.46	455.23
651.80	452.48
652.14	449.92
652.49	447.63
652.83	445.17
653.17	442.58
653.51	439.95
653.85	437.65
654.20	435.23
654.54	432.80
654.88	430.43
655.22	428.34
655.56	425.98
655.90	423.66
656.25	421.45
656.59	419.34
656.93	417.34
657.27	415.37
657.61	413.05
657.95	411.01
658.29	409.01
658.64	406.95
658.98	404.70
659.32	402.52
659.66	400.27
660.00	398.26
660.34	396.47
660.68	394.56
661.02	392.64
661.36	390.97
661.70	389.04
662.05	387.05
662.39	385.05
662.73	383.31
663.07	381.79
663.41	380.08
663.75	378.25
664.09	376.40
664.43	374.46
664.77	372.90
665.11	371.23
665.45	369.53
665.79	367.97
666.13	366.46
666.47	364.93
666.81	363.44
667.15	361.74
667.49	360.27
667.83	359.05
668.17	357.61
668.51	356.03
668.85	354.78
669.19	353.83
669.53	352.44
669.87	350.96
670.21	349.44
670.55	348.04
670.89	346.91
671.23	345.66
671.57	344.30
671.91	343.06
672.25	341.73
672.58	340.65
672.92	339.25
673.26	338.02
673.60	336.99
673.94	335.83
674.28	334.80
674.62	333.55
674.96	332.23
675.30	331.05
675.64	329.86
675.97	328.61
676.31	327.22
676.65	326.00
676.99	325.05
677.33	323.89
677.67	322.89
678.01	321.69
678.34	320.67
678.68	319.84
679.02	318.80
679.36	317.90
679.70	316.78
680.04	315.80
680.37	314.85
680.71	313.73
681.05	312.77
681.39	311.91
681.73	311.03
682.06	310.13
682.40	309.35
682.74	308.62
683.08	307.89
683.42	307.03
683.75	306.31
684.09	305.40
684.43	304.63
684.77	303.83
685.10	303.08
685.44	302.28
685.78	301.45
686.12	300.68
686.45	299.79
686.79	299.05
687.13	298.52
687.46	297.82
687.80	297.28
688.14	296.57
688.48	295.80
688.81	295.06
689.15	294.53
689.49	293.77
689.82	293.04
690.16	292.20
690.50	291.50
690.83	290.79
691.17	290.06
691.51	289.41
691.84	288.78
692.18	288.04
692.52	287.32
692.85	286.74
693.19	286.34
693.52	285.85
693.86	285.17
694.20	284.50
694.53	283.91
694.87	283.27
695.21	282.71
695.54	282.16
695.88	281.62
696.21	280.88
696.55	280.29
696.88	279.65
697.22	279.13
697.56	278.65
697.89	278.08
698.23	277.58
698.56	276.92
698.90	276.54
699.23	276.03
699.57	275.63
699.90	275.07
700.24	274.35
700.58	273.82
700.91	273.52
701.25	273.46
701.58	273.35
701.92	273.03
702.25	272.58
702.59	272.10
702.92	271.67
703.26	271.22
703.59	270.91
703.93	271.04
704.26	270.70
704.60	270.26
704.93	269.85
705.26	269.39
705.60	269.21
705.93	268.64
706.27	268.44
706.60	268.17
706.94	267.94
707.27	267.57
707.61	267.28
707.94	266.81
708.27	266.03
708.61	265.30
708.94	264.88
709.28	264.55
709.61	264.27
709.94	263.90
710.28	263.58
710.61	263.15
710.95	262.25
711.28	262.17
711.61	261.84
711.95	261.60
712.28	261.30
712.61	260.93
712.95	260.86
713.28	260.70
713.61	260.22
713.95	259.76
714.28	259.50
714.61	259.11
714.95	258.81
715.28	258.41
715.61	258.14
715.95	257.76
716.28	257.38
716.61	257.03
716.95	256.70
717.28	256.31
717.61	256.00
717.94	255.81
718.28	255.24
718.61	254.95
718.94	254.60
719.27	254.30
719.61	254.03
719.94	253.68
720.27	253.20
720.60	252.95
720.94	252.76
721.27	252.48
721.60	252.29
721.93	252.10
722.27	252.17
722.60	252.04
722.93	251.80
723.26	251.56
723.59	251.26
723.93	251.13
724.26	251.07
724.59	250.78
724.92	250.58
725.25	250.52
725.59	250.30
725.92	250.23
726.25	250.08
726.58	249.90
726.91	249.68
727.24	249.53
727.57	249.33
727.91	249.03
728.24	248.95
728.57	248.68
728.90	248.51
729.23	248.04
729.56	247.97
729.89	247.80
730.22	247.63
730.55	247.53
730.89	247.25
731.22	247.05
731.55	246.96
731.88	246.81
732.21	246.40
732.54	246.22
732.87	246.06
733.20	245.87
733.53	245.72
733.86	245.57
734.19	245.29
734.52	245.20
734.85	245.41
735.18	245.10
735.51	245.16
735.84	244.95
736.17	244.98
736.50	244.60
736.83	245.00
737.16	244.90
737.49	244.73
737.82	244.58
738.15	244.50
738.48	244.31
738.81	244.10
739.14	243.96
739.47	243.79
739.80	243.53
740.13	243.47
740.46	243.17
740.79	242.98
741.12	242.87
741.45	242.65
741.78	242.20
742.11	242.20
742.44	241.96
742.77	241.89
743.10	241.70
743.43	241.44
743.75	240.75
744.08	241.18
744.41	240.97
744.74	240.84
745.07	240.55
745.40	240.47
745.73	240.64
746.06	240.52
746.39	240.51
746.71	240.35
747.04	240.12
747.37	240.04
747.70	239.96
748.03	239.88
748.36	239.83
748.68	239.75
749.01	239.51
749.34	239.35
749.67	239.24
750.00	239.13
750.33	239.52
750.65	239.51
750.98	238.84
751.31	238.74
751.64	238.68
751.97	238.80
752.29	238.67
752.62	238.27
752.95	238.17
753.28	237.97
753.60	237.86
753.93	237.82
754.26	237.87
754.59	237.60
754.91	237.45
755.24	237.32
755.57	237.23
755.90	237.12
756.22	236.99
756.55	236.84
756.88	236.63
757.20	236.17
757.53	235.86
757.86	235.78
758.19	235.72
758.51	235.58
758.84	235.29
759.17	235.20
759.49	235.15
759.82	235.26
760.15	235.25
760.47	235.13
760.80	234.99
761.13	234.90
761.45	234.78
761.78	234.77
762.11	234.71
762.43	234.60
762.76	234.52
763.08	234.47
763.41	234.44
763.74	234.44
764.06	234.39
764.39	234.36
764.71	234.25
765.04	234.14
765.37	234.09
765.69	234.04
766.02	233.93
766.34	233.85
766.67	233.59
767.00	233.54
767.32	233.76
767.65	233.98
767.97	233.84
768.30	233.90
768.62	233.71
768.95	233.56
769.27	233.46
769.60	233.50
769.92	233.44
770.25	233.29
770.57	233.15
770.90	233.00
771.22	232.91
771.55	232.80
771.87	232.83
772.20	232.78
772.52	233.12
772.85	233.69
773.17	233.63
773.50	233.65
773.82	233.61
774.15	233.36
774.47	233.05
774.80	232.93
775.12	232.75
775.45	232.70
775.77	232.74
776.09	232.66
776.42	232.60
776.74	232.74
777.07	232.60
777.39	232.51
777.72	232.49
778.04	232.55
778.36	232.51
778.69	232.42
779.01	232.47
779.33	231.99
779.66	231.25
779.98	231.22
780.31	231.17
780.63	231.25
780.95	231.26
781.28	231.18
781.60	231.13
781.92	231.22
782.25	231.21
782.57	231.05
782.89	231.01
783.22	230.89
783.54	230.65
783.86	230.72
784.19	230.67
784.51	230.80
784.83	230.67
785.16	230.65
785.48	230.62
785.80	230.55
786.12	230.53
786.45	230.54
786.77	230.51
787.09	230.46
787.42	230.21
787.74	230.17
788.06	230.15
788.38	230.19
788.71	230.09
789.03	230.02
789.35	230.18
789.67	230.10
789.99	230.11
790.32	230.02
790.64	230.01
790.96	230.35
791.28	230.15
791.61	230.05
791.93	230.05
792.25	229.99
792.57	230.25
792.89	230.16
793.21	230.24
793.54	230.20
793.86	230.11
794.18	230.24
794.50	230.14
794.82	230.08
795.14	230.03
795.47	230.06
795.79	230.15
796.11	229.95
796.43	229.88
796.75	229.84
797.07	229.90
797.39	229.86
797.71	229.57
798.04	229.59
798.36	229.62
798.68	229.61
799.00	229.57
799.32	229.28
799.64	229.32
799.96	229.20
800.28	229.20
800.60	229.15
800.92	229.02
801.24	228.96
801.56	228.98
801.89	228.91
802.21	228.89
802.53	228.71
802.85	228.78
803.17	229.04
803.49	228.91
803.81	228.86
804.13	228.76
804.45	228.70
804.77	228.73
805.09	228.76
805.41	228.66
805.73	228.60
806.05	228.52
806.37	228.50
806.69	228.52
807.01	228.44
807.33	228.40
807.65	228.27
807.97	228.42
808.28	228.31
808.60	228.33
808.92	228.23
809.24	228.53
809.56	228.51
809.88	228.28
810.20	228.29
810.52	228.38
810.84	228.26
811.16	228.17
811.48	228.08
811.80	228.19
812.12	228.19
812.43	228.22
812.75	228.20
813.07	228.15
813.39	228.14
813.71	228.04
814.03	227.95
814.35	227.95
814.67	227.79
814.98	227.81
815.30	227.80
815.62	227.74
815.94	227.45
816.26	227.57
816.58	227.51
816.89	227.54
817.21	227.38
817.53	227.44
817.85	227.48
818.17	227.44
818.48	227.16
818.80	227.21
819.12	227.13
819.44	227.01
819.76	226.96
820.07	226.93
820.39	227.03
820.71	227.10
821.03	227.13
821.34	227.10
821.66	227.14
821.98	227.16
822.30	227.20
822.61	227.37
822.93	227.16
823.25	227.12
823.57	227.08
823.88	227.15
824.20	227.26
824.52	227.30
824.83	227.31
825.15	227.34
825.47	227.36
825.79	227.43
826.10	227.43
826.42	227.42
826.74	227.47
827.05	227.43
827.37	227.43
827.69	227.34
828.00	227.45
828.32	227.41
828.64	227.34
828.95	227.61
829.27	227.47
829.58	227.46
829.90	227.60
830.22	227.65
830.53	227.54
830.85	227.46
831.17	227.32
831.48	227.29
831.80	227.41
832.11	227.27
832.43	227.17
832.75	227.19
833.06	227.46
833.38	227.37
833.69	227.31
834.01	227.36
834.32	227.38
834.64	227.24
834.96	227.21
835.27	227.17
835.59	227.02
835.90	227.04
836.22	227.04
836.53	226.92
836.85	226.90
837.16	227.42
837.48	227.36
837.79	227.53
838.11	227.60
838.42	227.49
838.74	227.62
839.05	227.60
839.37	227.65
839.68	227.36
840.00	227.30
840.31	227.43
840.63	227.39
840.94	227.38
841.26	227.35
841.57	227.39
841.88	227.51
842.20	227.38
842.51	227.31
842.83	227.37
843.14	227.82
843.46	227.77
843.77	227.43
844.08	227.42
844.40	227.25
844.71	227.17
845.03	227.20
845.34	227.08
845.65	227.10
845.97	227.05
846.28	227.03
846.60	227.05
846.91	226.97
847.22	227.00
847.54	227.11
847.85	227.11
848.16	227.14
848.48	227.06
848.79	227.29
849.10	227.29
849.42	227.33
849.73	226.87
850.04	226.87
850.36	226.72
850.67	226.77
850.98	226.80
851.30	226.86
851.61	226.81
851.92	226.85
852.23	226.99
852.55	227.03
852.86	227.06
853.17	227.13
853.49	227.20
853.80	227.22
854.11	227.23
854.42	227.30
854.74	227.21
855.05	227.15
855.36	226.93
855.67	226.98
855.99	226.91
856.30	227.44
856.61	227.43
856.92	227.45
857.23	227.52
857.55	227.47
857.86	227.42
858.17	227.50
858.48	227.45
858.79	227.31
859.11	227.32
859.42	227.35
859.73	227.30
860.04	227.23
860.35	227.10
860.66	227.01
860.98	226.93
861.29	227.00
861.60	226.99
861.91	227.00
862.22	226.93
862.53	226.87
862.84	226.22
863.16	226.33
863.47	226.30
863.78	226.24
864.09	226.25
864.40	226.24
864.71	226.19
865.02	226.24
865.33	226.31
865.64	226.23
865.95	226.20
866.27	226.51
866.58	226.50
866.89	226.49
867.20	226.45
867.51	226.40
867.82	226.33
868.13	226.50
868.44	226.45
868.75	226.49
869.06	226.55
869.37	226.67
869.68	226.49
869.99	226.47
870.30	226.47
870.61	226.45
870.92	226.46
871.23	226.40
871.54	226.43
871.85	226.49
872.16	226.51
872.47	226.40
872.78	226.03
873.09	226.05
873.40	226.06
873.71	226.13
874.02	226.22
874.33	226.15
874.64	225.99
874.95	226.07
875.26	226.01
875.56	225.90
875.87	225.87
876.18	225.90
876.49	226.38
876.80	226.33
877.11	226.29
877.42	226.30
877.73	226.29
878.04	226.21
878.35	226.17
878.66	226.23
878.96	226.25
879.27	226.24
879.58	226.22
879.89	226.23
880.20	226.30
880.51	226.22
880.82	226.27
881.12	226.27
881.43	226.22
881.74	226.16
882.05	226.15
882.36	226.19
882.67	226.18
882.97	225.64
883.28	225.62
883.59	225.67
883.90	225.71
884.21	225.82
884.51	225.82
884.82	225.73
885.13	225.67
885.44	225.65
885.74	225.64
886.05	225.65
886.36	225.58
886.67	225.37
886.98	225.61
887.28	225.68
887.59	225.74
887.90	225.75
888.20	225.76
888.51	225.88
888.82	225.78
889.13	225.81
889.43	226.26
889.74	226.29
890.05	226.27
890.35	226.15
890.66	226.06
890.97	226.00
891.28	225.93
891.58	225.98
891.89	226.05
892.20	226.10
892.50	226.06
892.81	226.10
893.12	226.21
893.42	225.98
893.73	225.96
894.04	225.90
894.34	225.95
894.65	225.90
894.95	225.80
895.26	225.88
895.57	226.10
895.87	225.68
896.18	225.74
896.48	225.84
896.79	225.88
897.10	226.00
897.40	226.02
897.71	226.15
898.01	226.11
898.32	226.16
898.63	226.12
898.93	226.19
899.24	226.17
899.54	226.13
899.85	226.15
900.15	226.20
900.46	226.19
900.76	226.24
901.07	226.26
901.38	226.29
901.68	226.33
901.99	226.15
902.29	226.15
902.60	226.12
902.90	225.97
903.21	225.96
903.51	225.90
903.82	226.03
904.12	226.03
904.43	226.09
904.73	225.97
905.03	226.00
905.34	226.45
905.64	226.41
905.95	226.42
906.25	226.40
906.56	226.34
906.86	226.33
907.17	226.24
907.47	226.33
907.77	226.30
908.08	226.19
908.38	226.23
908.69	226.28
908.99	226.34
909.30	226.43
909.60	226.46
909.90	226.48
910.21	226.32
910.51	226.20
910.81	226.14
911.12	226.34
911.42	226.30
911.73	225.71
912.03	225.72
912.33	225.83
912.64	225.74
912.94	225.66
913.24	225.61
913.55	225.61
913.85	225.57
914.15	225.56
914.46	225.60
914.76	225.49
915.06	225.47
915.37	225.41
915.67	225.31
915.97	225.26
916.27	225.10
916.58	225.09
916.88	225.07
917.18	225.06
917.49	225.27
917.79	225.37
918.09	225.44
918.39	225.60
918.70	225.47
919.00	225.50
919.30	225.70
919.60	225.71
919.91	225.63
920.21	225.59
920.51	225.56
920.81	225.57
921.12	225.66
921.42	225.64
921.72	225.65
922.02	225.72
922.32	225.85
922.63	225.89
922.93	226.17
923.23	226.14
923.53	226.10
923.83	225.77
924.13	225.77
924.44	225.75
924.74	225.84
925.04	226.01
925.34	226.04
925.64	225.90
925.94	225.91
926.24	226.16
926.55	226.12
926.85	226.13
927.15	226.08
927.45	226.04
927.75	226.04
928.05	226.05
928.35	226.00
928.65	226.05
928.95	226.14
929.26	225.92
929.56	226.13
929.86	226.20
930.16	226.15
930.46	226.10
930.76	226.19
931.06	225.98
931.36	225.84
931.66	225.95
931.96	226.04
932.26	226.05
932.56	225.88
932.86	225.95
933.16	226.02
933.46	225.97
933.76	225.95
934.06	226.12
934.36	226.30
934.66	226.34
934.96	226.31
935.26	226.36
935.56	226.51
935.86	226.36
936.16	226.28
936.46	226.35
936.76	226.33
937.06	226.22
937.36	226.31
937.66	226.34
937.96	226.31
938.26	226.16
938.56	226.17
938.86	226.23
939.16	226.35
939.46	226.39
939.76	226.53
940.06	226.54
940.35	226.35
940.65	226.12
940.95	226.12
941.25	226.01
941.55	225.94
941.85	225.87
942.15	226.04
942.45	226.22
942.75	226.17
943.04	226.20
943.34	226.39
943.64	226.34
943.94	226.27
944.24	226.28
944.54	226.37
944.84	226.37
945.13	226.37
945.43	226.25
945.73	226.25
946.03	226.16
946.33	226.10
946.62	226.08
946.92	226.06
947.22	226.09
947.52	226.13
947.82	226.17
948.11	226.10
948.41	225.95
948.71	225.75
949.01	225.77
949.31	225.72
949.60	225.60
949.90	225.65
950.20	225.62
950.50	225.52
950.79	225.54
951.09	225.60
951.39	225.48
951.69	225.47
951.98	225.53
952.28	225.58
952.58	225.55
952.87	225.50
953.17	225.59
953.47	225.58
953.76	225.53
954.06	225.45
954.36	225.42
954.66	225.43
954.95	225.57
955.25	225.60
955.55	225.64
955.84	225.59
956.14	225.60
956.44	225.62
956.73	225.61
957.03	225.54
957.32	225.51
957.62	225.55
957.92	225.64
958.21	225.61
958.51	226.10
958.81	226.20
959.10	226.33
959.40	226.35
959.69	226.35
959.99	226.45
960.29	226.49
960.58	226.43
960.88	226.61
961.17	226.50
961.47	226.49
961.76	226.44
962.06	226.55
962.36	226.50
962.65	226.61
962.95	226.65
963.24	226.67
963.54	226.68
963.83	226.73
964.13	226.70
964.42	226.52
964.72	226.15
965.01	226.08
965.31	226.02
965.60	225.92
965.90	226.22
966.19	226.11
966.49	226.15
966.78	226.16
967.08	226.13
967.37	226.19
967.67	226.13
967.96	226.27
968.26	226.20
968.55	226.24
968.85	226.20
969.14	226.21
969.43	226.17
969.73	226.18
970.02	226.11
970.32	226.10
970.61	226.10
970.91	226.02
971.20	226.02
971.49	225.99
971.79	226.10
972.08	225.78
972.38	225.83
972.67	225.83
972.96	225.89
973.26	225.82
973.55	225.92
973.85	225.92
974.14	225.89
974.43	225.86
974.73	225.86
975.02	225.83
975.31	225.88
975.61	225.89
975.90	225.81
976.19	225.81
976.49	225.86
976.78	225.99
977.07	225.93
977.37	225.98
977.66	226.02
977.95	225.96
978.24	225.96
978.54	226.06
978.83	225.99
979.12	225.96
979.42	225.98
979.71	225.90
980.00	225.91
980.29	225.95
980.59	225.89
980.88	225.92
981.17	225.85
981.46	225.78
981.76	225.82
982.05	225.96
982.34	225.97
982.63	226.00
982.93	225.97
983.22	226.17
983.51	226.19
983.80	226.31
984.09	226.32
984.39	226.29
984.68	226.21
984.97	226.29
985.26	226.28
985.55	226.24
985.85	226.15
986.14	226.23
986.43	226.25
986.72	226.33
987.01	226.27
987.30	226.29
987.59	226.26
987.89	226.23
988.18	226.07
988.47	226.04
988.76	225.94
989.05	225.86
989.34	225.72
989.63	225.86
989.92	225.71
990.22	225.69
990.51	225.67
990.80	225.64
991.09	225.62
991.38	225.64
991.67	225.59
991.96	225.60
992.25	225.61
992.54	225.47
992.83	225.49
993.12	225.48
993.41	225.65
993.70	225.84
993.99	225.92
994.28	225.97
994.58	226.06
994.87	225.98
995.16	225.91
995.45	225.85
995.74	225.66
996.03	225.80
996.32	225.86
996.61	226.00
996.90	225.99
997.19	225.97
997.48	225.94
997.77	225.94
998.06	226.01
998.34	225.99
998.63	226.00
998.92	225.99
999.21	226.05
999.50	225.98
999.79	225.85
1000.08	225.81
1000.37	225.91
1000.66	225.81
1000.95	225.95
1001.24	226.10
1001.53	226.19
1001.82	226.21
1002.11	226.03
1002.40	226.06
1002.68	226.19
1002.97	226.59
1003.26	226.57
1003.55	226.53
1003.84	226.61
1004.13	226.74
1004.42	226.71
1004.71	226.72
1004.99	226.72
1005.28	226.77
1005.57	226.73
1005.86	226.64
1006.15	226.68
1006.44	226.55
1006.72	226.68
1007.01	226.59
1007.30	226.53
1007.59	226.48
1007.88	226.45
1008.17	226.53
1008.45	226.40
1008.74	226.16
1009.03	225.86
1009.32	225.82
1009.60	225.86
1009.89	225.80
1010.18	225.59
1010.47	225.60
1010.76	225.58
1011.04	225.52
1011.33	225.54
1011.62	225.66
1011.91	225.76
1012.19	225.76
1012.48	225.72
1012.77	225.73
1013.05	225.96
1013.34	225.99
1013.63	226.01
1013.92	226.03
1014.20	225.95
1014.49	225.98
1014.78	226.08
1015.06	225.90
1015.35	225.90
1015.64	225.98
1015.92	226.07
1016.21	226.11
1016.50	226.09
1016.78	226.20
1017.07	226.25
1017.36	226.15
1017.64	225.99
1017.93	226.06
1018.22	225.98
1018.50	226.06
1018.79	225.97
1019.08	225.76
1019.36	225.77
1019.65	225.63
1019.93	225.73
1020.22	225.88
1020.51	226.09
1020.79	225.99
1021.08	224.50
1021.36	225.75
1021.65	225.30
1021.94	225.25
1022.22	226.00
1022.51	223.70
1022.79	227.35
1023.08	227.05
1023.36	230.55
1023.65	224.30
>>>>>End Processed Spectral Data<<<<<
