SpectraSuite Data File
++++++++++++++++++++++++++++++++++++
Date: Wed Sep 04 17:50:36 EDT 2013
User: lab3
Dark Spectrum Present: Yes
Reference Spectrum Present: No
Number of Sampled Component Spectra: 1
Spectrometers: USB2E7196
Integration Time (usec): 170000 (USB2E7196)
Spectra Averaged: 20 (USB2E7196)
Boxcar Smoothing: 10 (USB2E7196)
Correct for Electrical Dark: No (USB2E7196)
Strobe/Lamp Enabled: No (USB2E7196)
Correct for Detector Non-linearity: No (USB2E7196)
Correct for Stray Light: No (USB2E7196)
Number of Pixels in Processed Spectrum: 2048
>>>>>Begin Processed Spectral Data<<<<<
339.09	0.00
339.48	212.10
339.86	212.75
340.24	216.15
340.63	216.90
341.01	225.05
341.39	220.60
341.78	221.65
342.16	224.40
342.54	221.30
342.93	212.10
343.31	222.77
343.69	223.37
344.07	223.93
344.46	224.39
344.84	224.80
345.22	224.80
345.60	225.04
345.99	225.27
346.37	225.29
346.75	225.50
347.13	225.60
347.52	225.65
347.90	225.78
348.28	225.85
348.66	225.98
349.05	225.82
349.43	225.86
349.81	225.98
350.19	225.91
350.57	226.01
350.96	226.07
351.34	226.23
351.72	226.30
352.10	226.37
352.48	226.36
352.87	226.37
353.25	226.42
353.63	226.49
354.01	226.44
354.39	226.61
354.77	226.58
355.15	226.70
355.54	226.69
355.92	226.64
356.30	226.69
356.68	227.07
357.06	227.11
357.44	227.07
357.82	227.11
358.20	227.67
358.58	227.77
358.97	227.91
359.35	228.00
359.73	228.13
360.11	228.16
360.49	228.29
360.87	228.41
361.25	228.55
361.63	228.70
362.01	228.83
362.39	228.86
362.77	229.00
363.15	229.15
363.53	229.20
363.91	229.23
364.29	229.27
364.67	228.83
365.05	228.92
365.43	229.06
365.81	229.04
366.19	228.92
366.57	229.00
366.95	228.94
367.33	228.91
367.71	228.94
368.09	229.09
368.47	229.10
368.85	229.06
369.23	229.11
369.61	228.96
369.99	229.06
370.37	228.98
370.75	229.18
371.13	229.00
371.51	228.94
371.89	228.96
372.27	228.98
372.65	228.98
373.03	228.95
373.41	228.92
373.78	228.91
374.16	228.60
374.54	228.50
374.92	228.49
375.30	228.44
375.68	228.29
376.06	228.20
376.44	228.06
376.82	227.97
377.19	227.88
377.57	227.85
377.95	227.62
378.33	227.60
378.71	227.25
379.09	227.26
379.47	227.30
379.84	227.25
380.22	227.10
380.60	226.95
380.98	226.85
381.36	226.74
381.73	226.62
382.11	226.65
382.49	226.57
382.87	226.37
383.25	226.24
383.62	226.78
384.00	226.64
384.38	226.63
384.76	226.72
385.13	226.78
385.51	226.68
385.89	226.57
386.27	226.50
386.64	226.55
387.02	226.44
387.40	226.30
387.78	226.25
388.15	226.23
388.53	226.21
388.91	226.17
389.29	226.17
389.66	226.25
390.04	226.10
390.42	226.16
390.79	226.24
391.17	226.26
391.55	225.66
391.92	225.63
392.30	225.69
392.68	225.60
393.05	225.63
393.43	225.67
393.81	225.77
394.18	225.75
394.56	225.77
394.94	225.88
395.31	225.85
395.69	226.04
396.06	226.17
396.44	226.22
396.82	226.24
397.19	226.49
397.57	226.45
397.95	226.69
398.32	226.65
398.70	226.67
399.07	226.83
399.45	226.86
399.82	226.98
400.20	226.99
400.58	227.11
400.95	227.03
401.33	227.29
401.70	227.75
402.08	227.89
402.45	228.00
402.83	228.24
403.20	228.48
403.58	228.49
403.95	228.64
404.33	228.86
404.71	229.12
405.08	229.60
405.46	229.82
405.83	230.05
406.21	230.31
406.58	230.66
406.96	230.93
407.33	231.35
407.70	231.70
408.08	232.44
408.45	232.82
408.83	233.28
409.20	233.56
409.58	233.75
409.95	234.28
410.33	234.88
410.70	235.28
411.08	235.90
411.45	236.56
411.82	237.24
412.20	237.99
412.57	238.94
412.95	239.28
413.32	240.14
413.69	240.98
414.07	241.85
414.44	242.78
414.82	243.83
415.19	245.00
415.56	246.20
415.94	247.14
416.31	248.59
416.68	250.03
417.06	251.62
417.43	253.25
417.81	255.04
418.18	256.84
418.55	258.75
418.93	260.64
419.30	262.68
419.67	264.87
420.04	267.16
420.42	269.46
420.79	272.47
421.16	275.21
421.54	278.22
421.91	281.23
422.28	284.32
422.66	287.55
423.03	290.99
423.40	294.32
423.77	297.87
424.15	301.49
424.52	305.16
424.89	309.32
425.26	313.23
425.64	317.00
426.01	321.10
426.38	325.42
426.75	330.02
427.13	334.50
427.50	339.18
427.87	344.11
428.24	349.00
428.61	353.44
428.99	358.74
429.36	364.10
429.73	369.51
430.10	375.01
430.47	380.57
430.85	386.24
431.22	392.39
431.59	399.15
431.96	405.38
432.33	412.39
432.70	419.04
433.08	426.69
433.45	433.85
433.82	441.16
434.19	449.29
434.56	457.27
434.93	465.13
435.30	472.82
435.68	481.34
436.05	489.71
436.42	497.95
436.79	505.56
437.16	513.92
437.53	522.76
437.90	531.43
438.27	540.05
438.64	548.88
439.01	557.15
439.38	564.22
439.75	571.19
440.13	578.97
440.50	586.29
440.87	592.39
441.24	598.94
441.61	605.83
441.98	610.90
442.35	616.67
442.72	622.54
443.09	628.37
443.46	631.68
443.83	634.00
444.20	636.02
444.57	638.70
444.94	639.81
445.31	640.95
445.68	642.33
446.05	642.39
446.42	641.09
446.79	639.63
447.16	638.08
447.53	636.86
447.90	633.26
448.27	629.76
448.64	625.06
449.01	621.32
449.37	615.31
449.74	609.37
450.11	602.69
450.48	594.87
450.85	586.94
451.22	579.98
451.59	573.51
451.96	567.34
452.33	559.34
452.70	552.01
453.07	543.25
453.43	534.03
453.80	525.78
454.17	517.75
454.54	510.19
454.91	502.09
455.28	494.25
455.65	486.89
456.02	480.04
456.38	473.68
456.75	465.95
457.12	459.46
457.49	453.25
457.86	446.79
458.23	441.78
458.59	436.05
458.96	430.51
459.33	425.35
459.70	420.28
460.07	416.13
460.43	411.46
460.80	407.26
461.17	403.65
461.54	399.68
461.91	395.92
462.27	391.95
462.64	388.74
463.01	385.14
463.38	381.87
463.74	377.92
464.11	374.96
464.48	372.52
464.85	369.65
465.21	367.44
465.58	365.27
465.95	362.34
466.32	360.19
466.68	358.00
467.05	355.73
467.42	353.47
467.78	351.23
468.15	349.14
468.52	347.58
468.88	345.38
469.25	343.47
469.62	342.00
469.98	340.42
470.35	338.80
470.72	337.40
471.08	335.74
471.45	334.52
471.82	333.29
472.18	331.82
472.55	330.84
472.92	329.49
473.28	328.39
473.65	327.36
474.02	326.22
474.38	325.29
474.75	324.56
475.11	323.74
475.48	323.11
475.85	322.51
476.21	321.82
476.58	321.27
476.94	320.90
477.31	320.43
477.67	320.04
478.04	319.71
478.41	319.39
478.77	319.63
479.14	319.28
479.50	319.11
479.87	319.00
480.23	318.98
480.60	318.96
480.96	318.81
481.33	319.19
481.69	319.46
482.06	319.72
482.42	319.93
482.79	320.25
483.15	320.68
483.52	321.23
483.88	321.65
484.25	322.26
484.61	322.90
484.98	323.59
485.34	324.60
485.71	325.66
486.07	326.74
486.44	327.38
486.80	328.54
487.17	329.62
487.53	331.06
487.90	332.47
488.26	334.25
488.62	336.07
488.99	337.60
489.35	339.32
489.72	341.16
490.08	343.21
490.44	345.27
490.81	347.52
491.17	349.71
491.54	352.29
491.90	354.86
492.26	357.56
492.63	360.33
492.99	363.06
493.36	366.10
493.72	369.24
494.08	372.68
494.45	376.34
494.81	380.22
495.17	384.11
495.54	388.31
495.90	392.37
496.26	396.73
496.63	401.36
496.99	406.17
497.35	411.24
497.72	416.58
498.08	422.00
498.44	427.59
498.80	433.62
499.17	439.71
499.53	446.09
499.89	452.60
500.26	459.32
500.62	466.38
500.98	473.75
501.34	481.31
501.71	489.07
502.07	496.93
502.43	505.01
502.79	513.39
503.16	521.86
503.52	530.83
503.88	540.06
504.24	549.66
504.60	559.62
504.97	569.80
505.33	580.25
505.69	591.40
506.05	602.39
506.41	613.48
506.78	625.11
507.14	637.08
507.50	649.34
507.86	661.88
508.22	674.64
508.59	687.57
508.95	701.15
509.31	715.13
509.67	729.22
510.03	743.50
510.39	758.10
510.75	773.24
511.12	788.27
511.48	803.86
511.84	819.58
512.20	835.44
512.56	851.73
512.92	868.27
513.28	884.83
513.64	902.00
514.00	919.57
514.37	937.00
514.73	954.98
515.09	973.19
515.45	991.87
515.81	1010.32
516.17	1029.02
516.53	1047.41
516.89	1065.76
517.25	1085.39
517.61	1105.42
517.97	1125.58
518.33	1145.49
518.69	1165.95
519.05	1186.38
519.41	1207.05
519.77	1227.88
520.13	1248.38
520.49	1268.95
520.85	1291.05
521.21	1312.08
521.57	1333.14
521.93	1353.87
522.29	1374.85
522.65	1395.35
523.01	1416.02
523.37	1436.60
523.73	1457.66
524.09	1478.37
524.45	1499.15
524.81	1519.65
525.17	1540.30
525.53	1560.75
525.89	1581.62
526.25	1602.41
526.61	1622.45
526.97	1643.15
527.33	1664.47
527.68	1686.18
528.04	1707.39
528.40	1727.14
528.76	1747.88
529.12	1768.38
529.48	1789.14
529.84	1809.03
530.20	1830.12
530.56	1850.54
530.91	1871.36
531.27	1891.49
531.63	1911.86
531.99	1932.18
532.35	1952.08
532.71	1972.10
533.07	1992.37
533.42	2011.84
533.78	2031.20
534.14	2050.97
534.50	2069.91
534.86	2088.75
535.21	2105.90
535.57	2123.70
535.93	2141.04
536.29	2158.74
536.65	2176.64
537.00	2194.14
537.36	2211.38
537.72	2227.66
538.08	2244.66
538.44	2261.25
538.79	2277.60
539.15	2293.91
539.51	2309.44
539.87	2324.22
540.22	2337.74
540.58	2352.02
540.94	2365.17
541.29	2377.76
541.65	2390.22
542.01	2402.50
542.37	2412.97
542.72	2424.00
543.08	2434.59
543.44	2446.06
543.79	2455.81
544.15	2465.35
544.51	2475.05
544.87	2484.60
545.22	2492.97
545.58	2500.81
545.94	2507.65
546.29	2513.86
546.65	2519.65
547.01	2525.73
547.36	2531.39
547.72	2537.10
548.07	2540.72
548.43	2545.80
548.79	2550.64
549.14	2554.70
549.50	2558.48
549.86	2562.06
550.21	2565.60
550.57	2569.08
550.92	2570.37
551.28	2571.82
551.64	2574.16
551.99	2575.76
552.35	2577.19
552.70	2579.25
553.06	2580.52
553.41	2581.74
553.77	2583.40
554.13	2585.24
554.48	2586.21
554.84	2587.30
555.19	2588.14
555.55	2589.96
555.90	2589.26
556.26	2588.10
556.61	2586.25
556.97	2583.69
557.32	2583.17
557.68	2581.99
558.03	2580.38
558.39	2578.93
558.74	2577.63
559.10	2574.02
559.45	2570.59
559.81	2566.23
560.16	2561.09
560.52	2556.07
560.87	2551.22
561.23	2545.83
561.58	2539.61
561.94	2532.89
562.29	2525.34
562.64	2518.47
563.00	2509.98
563.35	2503.19
563.71	2496.64
564.06	2490.36
564.42	2484.15
564.77	2477.28
565.12	2469.62
565.48	2461.94
565.83	2454.29
566.19	2446.70
566.54	2438.89
566.89	2430.78
567.25	2422.78
567.60	2415.46
567.96	2408.15
568.31	2400.44
568.66	2391.74
569.02	2383.12
569.37	2374.92
569.72	2367.77
570.08	2358.67
570.43	2349.24
570.78	2340.47
571.14	2330.68
571.49	2320.83
571.84	2311.06
572.20	2299.71
572.55	2289.52
572.90	2278.72
573.26	2268.31
573.61	2257.07
573.96	2246.19
574.31	2234.22
574.67	2222.65
575.02	2209.91
575.37	2196.98
575.72	2183.56
576.08	2171.49
576.43	2158.70
576.78	2145.54
577.13	2131.80
577.49	2119.36
577.84	2107.55
578.19	2095.25
578.54	2083.03
578.90	2070.82
579.25	2058.74
579.60	2046.62
579.95	2034.12
580.30	2021.11
580.66	2007.59
581.01	1994.17
581.36	1980.13
581.71	1967.60
582.06	1954.86
582.42	1942.84
582.77	1930.58
583.12	1919.30
583.47	1907.24
583.82	1895.43
584.17	1883.76
584.53	1872.22
584.88	1859.16
585.23	1846.04
585.58	1832.11
585.93	1819.14
586.28	1806.04
586.63	1792.05
586.98	1777.82
587.34	1764.47
587.69	1751.61
588.04	1739.19
588.39	1727.19
588.74	1715.33
589.09	1703.24
589.44	1690.57
589.79	1678.40
590.14	1666.44
590.49	1654.08
590.84	1641.93
591.19	1630.03
591.54	1617.95
591.89	1605.51
592.25	1595.40
592.60	1584.45
592.95	1573.15
593.30	1561.02
593.65	1549.13
594.00	1537.36
594.35	1527.97
594.70	1516.34
595.05	1504.77
595.40	1492.72
595.75	1480.92
596.10	1469.81
596.45	1458.60
596.80	1447.88
597.15	1436.69
597.50	1425.02
597.85	1413.75
598.19	1402.40
598.54	1390.90
598.89	1379.76
599.24	1369.33
599.59	1357.74
599.94	1346.78
600.29	1336.58
600.64	1326.61
600.99	1316.01
601.34	1306.65
601.69	1295.49
602.04	1285.80
602.39	1276.05
602.74	1267.17
603.08	1257.88
603.43	1248.60
603.78	1239.04
604.13	1229.59
604.48	1219.80
604.83	1209.99
605.18	1200.44
605.53	1190.81
605.87	1181.64
606.22	1172.93
606.57	1163.61
606.92	1154.06
607.27	1145.27
607.62	1136.59
607.96	1128.20
608.31	1120.61
608.66	1112.19
609.01	1103.94
609.36	1095.59
609.70	1087.28
610.05	1078.72
610.40	1070.30
610.75	1061.65
611.10	1053.19
611.44	1044.59
611.79	1036.58
612.14	1028.95
612.49	1021.15
612.83	1013.93
613.18	1006.34
613.53	999.00
613.88	991.35
614.22	983.94
614.57	976.11
614.92	968.22
615.27	960.46
615.61	952.49
615.96	945.05
616.31	937.52
616.65	930.43
617.00	923.21
617.35	916.06
617.70	908.91
618.04	901.80
618.39	895.10
618.74	889.01
619.08	882.33
619.43	875.53
619.78	868.51
620.12	861.40
620.47	854.61
620.82	847.25
621.16	840.46
621.51	834.22
621.85	828.04
622.20	821.86
622.55	815.36
622.89	808.99
623.24	802.70
623.59	796.66
623.93	790.49
624.28	784.46
624.62	778.90
624.97	773.30
625.32	767.82
625.66	761.91
626.01	755.55
626.35	750.05
626.70	744.63
627.04	739.53
627.39	733.95
627.73	728.75
628.08	723.74
628.43	718.52
628.77	713.13
629.12	707.90
629.46	703.07
629.81	698.60
630.15	694.05
630.50	689.18
630.84	684.11
631.19	679.37
631.53	674.79
631.88	669.49
632.22	664.62
632.57	660.08
632.91	655.52
633.26	651.41
633.60	646.82
633.95	642.11
634.29	637.29
634.64	633.01
634.98	628.33
635.32	624.10
635.67	620.19
636.01	616.07
636.36	611.85
636.70	607.70
637.05	603.35
637.39	599.24
637.73	595.21
638.08	591.24
638.42	587.02
638.77	582.82
639.11	578.75
639.45	574.45
639.80	570.00
640.14	565.96
640.49	561.77
640.83	557.78
641.17	554.24
641.52	550.72
641.86	546.97
642.20	543.74
642.55	540.01
642.89	536.34
643.23	532.81
643.58	529.67
643.92	526.00
644.26	522.74
644.61	519.62
644.95	516.23
645.29	512.85
645.64	509.75
645.98	506.69
646.32	503.72
646.66	500.70
647.01	497.89
647.35	495.18
647.69	492.45
648.04	489.72
648.38	486.74
648.72	483.75
649.06	480.96
649.41	477.99
649.75	475.16
650.09	472.36
650.43	469.45
650.78	466.48
651.12	463.73
651.46	460.91
651.80	458.02
652.14	455.45
652.49	453.15
652.83	450.52
653.17	447.97
653.51	445.28
653.85	442.87
654.20	440.36
654.54	437.80
654.88	435.28
655.22	433.15
655.56	430.89
655.90	428.70
656.25	426.38
656.59	424.22
656.93	421.95
657.27	419.84
657.61	417.56
657.95	415.32
658.29	413.20
658.64	411.15
658.98	408.99
659.32	406.76
659.66	404.54
660.00	402.46
660.34	400.35
660.68	398.42
661.02	396.53
661.36	394.65
661.70	392.65
662.05	390.76
662.39	388.78
662.73	387.01
663.07	385.42
663.41	383.67
663.75	381.82
664.09	380.04
664.43	378.17
664.77	376.56
665.11	374.83
665.45	373.18
665.79	371.64
666.13	369.99
666.47	368.34
666.81	366.67
667.15	365.06
667.49	363.70
667.83	362.44
668.17	360.95
668.51	359.53
668.85	358.23
669.19	357.09
669.53	355.57
669.87	354.15
670.21	352.51
670.55	351.17
670.89	349.99
671.23	348.69
671.57	347.34
671.91	346.03
672.25	344.76
672.58	343.57
672.92	342.08
673.26	340.84
673.60	339.62
673.94	338.47
674.28	337.32
674.62	336.15
674.96	334.85
675.30	333.63
675.64	332.41
675.97	331.18
676.31	329.83
676.65	328.66
676.99	327.59
677.33	326.49
677.67	325.42
678.01	324.15
678.34	323.09
678.68	322.17
679.02	321.11
679.36	320.10
679.70	319.02
680.04	318.06
680.37	317.09
680.71	316.10
681.05	315.19
681.39	314.30
681.73	313.35
682.06	312.39
682.40	311.55
682.74	310.75
683.08	310.05
683.42	309.01
683.75	308.12
684.09	307.18
684.43	306.41
684.77	305.52
685.10	304.70
685.44	303.85
685.78	302.94
686.12	302.20
686.45	301.40
686.79	300.55
687.13	299.94
687.46	299.17
687.80	298.62
688.14	297.75
688.48	296.98
688.81	296.14
689.15	295.45
689.49	294.59
689.82	293.96
690.16	292.98
690.50	292.33
690.83	291.61
691.17	290.83
691.51	290.04
691.84	289.45
692.18	288.77
692.52	288.09
692.85	287.54
693.19	287.00
693.52	286.39
693.86	285.72
694.20	285.02
694.53	284.48
694.87	283.77
695.21	283.20
695.54	282.64
695.88	281.98
696.21	281.28
696.55	280.77
696.88	280.08
697.22	279.54
697.56	279.08
697.89	278.56
698.23	278.12
698.56	277.62
698.90	277.16
699.23	276.64
699.57	276.18
699.90	275.55
700.24	274.94
700.58	274.43
700.91	274.10
701.25	273.97
701.58	273.86
701.92	273.54
702.25	273.07
702.59	272.61
702.92	272.29
703.26	271.96
703.59	271.65
703.93	271.71
704.26	271.36
704.60	270.96
704.93	270.56
705.26	270.06
705.60	269.67
705.93	269.02
706.27	268.76
706.60	268.54
706.94	268.38
707.27	268.06
707.61	267.76
707.94	267.35
708.27	266.57
708.61	265.80
708.94	265.31
709.28	264.99
709.61	264.58
709.94	264.22
710.28	263.76
710.61	263.39
710.95	262.58
711.28	262.54
711.61	262.13
711.95	261.82
712.28	261.48
712.61	261.16
712.95	261.10
713.28	260.90
713.61	260.46
713.95	259.93
714.28	259.49
714.61	259.05
714.95	258.68
715.28	258.24
715.61	257.89
715.95	257.64
716.28	257.25
716.61	257.03
716.95	256.66
717.28	256.42
717.61	256.00
717.94	255.68
718.28	254.98
718.61	254.73
718.94	254.43
719.27	254.15
719.61	253.89
719.94	253.55
720.27	253.05
720.60	252.74
720.94	252.49
721.27	252.28
721.60	252.20
721.93	251.93
722.27	251.91
722.60	251.74
722.93	251.45
723.26	251.31
723.59	250.91
723.93	250.81
724.26	250.60
724.59	250.41
724.92	250.30
725.25	250.21
725.59	249.89
725.92	249.66
726.25	249.45
726.58	249.22
726.91	248.94
727.24	248.82
727.57	248.65
727.91	248.40
728.24	248.28
728.57	247.97
728.90	247.85
729.23	247.52
729.56	247.53
729.89	247.36
730.22	247.08
730.55	246.95
730.89	246.71
731.22	246.49
731.55	246.33
731.88	246.17
732.21	245.91
732.54	245.76
732.87	245.64
733.20	245.51
733.53	245.35
733.86	245.30
734.19	244.98
734.52	244.84
734.85	245.00
735.18	244.78
735.51	244.76
735.84	244.64
736.17	244.64
736.50	244.27
736.83	244.67
737.16	244.60
737.49	244.50
737.82	244.30
738.15	244.25
738.48	244.10
738.81	243.85
739.14	243.69
739.47	243.54
739.80	243.37
740.13	243.28
740.46	243.10
740.79	242.87
741.12	242.84
741.45	242.68
741.78	242.36
742.11	242.34
742.44	242.11
742.77	242.11
743.10	241.87
743.43	241.70
743.75	241.05
744.08	241.56
744.41	241.44
744.74	241.33
745.07	241.09
745.40	241.03
745.73	241.16
746.06	241.11
746.39	241.04
746.71	240.89
747.04	240.72
747.37	240.63
747.70	240.57
748.03	240.47
748.36	240.43
748.68	240.28
749.01	240.06
749.34	239.95
749.67	239.79
750.00	239.79
750.33	240.04
750.65	239.90
750.98	239.16
751.31	239.08
751.64	239.00
751.97	239.12
752.29	239.00
752.62	238.64
752.95	238.55
753.28	238.41
753.60	238.34
753.93	238.40
754.26	238.28
754.59	238.06
754.91	237.89
755.24	237.76
755.57	237.62
755.90	237.51
756.22	237.35
756.55	237.19
756.88	237.03
757.20	236.65
757.53	236.48
757.86	236.36
758.19	236.26
758.51	236.11
758.84	235.85
759.17	235.68
759.49	235.68
759.82	235.72
760.15	235.68
760.47	235.52
760.80	235.28
761.13	235.29
761.45	235.18
761.78	235.11
762.11	234.94
762.43	234.79
762.76	234.69
763.08	234.71
763.41	234.63
763.74	234.45
764.06	234.38
764.39	234.31
764.71	234.25
765.04	234.09
765.37	233.96
765.69	233.87
766.02	233.76
766.34	233.68
766.67	233.41
767.00	233.42
767.32	233.65
767.65	233.81
767.97	233.70
768.30	233.72
768.62	233.65
768.95	233.65
769.27	233.55
769.60	233.52
769.92	233.35
770.25	233.18
770.57	233.13
770.90	232.97
771.22	232.89
771.55	232.82
771.87	232.78
772.20	232.74
772.52	233.13
772.85	233.68
773.17	233.56
773.50	233.56
773.82	233.45
774.15	233.12
774.47	232.76
774.80	232.70
775.12	232.57
775.45	232.53
775.77	232.46
776.09	232.49
776.42	232.42
776.74	232.58
777.07	232.50
777.39	232.44
777.72	232.38
778.04	232.39
778.36	232.31
778.69	232.36
779.01	232.39
779.33	231.85
779.66	231.28
779.98	231.18
780.31	231.10
780.63	231.18
780.95	231.29
781.28	231.28
781.60	231.19
781.92	231.22
782.25	231.12
782.57	231.10
782.89	231.05
783.22	231.00
783.54	230.86
783.86	230.86
784.19	230.84
784.51	231.06
784.83	230.87
785.16	230.85
785.48	230.72
785.80	230.68
786.12	230.70
786.45	230.67
786.77	230.68
787.09	230.63
787.42	230.49
787.74	230.38
788.06	230.34
788.38	230.24
788.71	230.12
789.03	230.17
789.35	230.17
789.67	230.11
789.99	230.08
790.32	229.93
790.64	229.96
790.96	230.39
791.28	230.13
791.61	230.20
791.93	230.22
792.25	230.20
792.57	230.48
792.89	230.43
793.21	230.37
793.54	230.26
793.86	230.22
794.18	230.22
794.50	230.15
794.82	230.16
795.14	230.25
795.47	230.33
795.79	230.26
796.11	230.13
796.43	230.11
796.75	230.14
797.07	230.14
797.39	230.15
797.71	229.71
798.04	229.71
798.36	229.71
798.68	229.63
799.00	229.57
799.32	229.33
799.64	229.33
799.96	229.40
800.28	229.51
800.60	229.39
800.92	229.37
801.24	229.34
801.56	229.35
801.89	229.17
802.21	229.10
802.53	229.02
802.85	229.08
803.17	229.22
803.49	229.11
803.81	229.08
804.13	228.99
804.45	228.99
804.77	229.01
805.09	228.99
805.41	228.88
805.73	228.80
806.05	228.63
806.37	228.55
806.69	228.50
807.01	228.44
807.33	228.51
807.65	228.27
807.97	228.48
808.28	228.35
808.60	228.37
808.92	228.43
809.24	228.66
809.56	228.55
809.88	228.36
810.20	228.37
810.52	228.44
810.84	228.40
811.16	228.26
811.48	228.19
811.80	228.26
812.12	228.29
812.43	228.40
812.75	228.44
813.07	228.37
813.39	228.29
813.71	228.21
814.03	228.09
814.35	228.20
814.67	227.95
814.98	227.95
815.30	227.93
815.62	227.71
815.94	227.44
816.26	227.63
816.58	227.52
816.89	227.57
817.21	227.38
817.53	227.37
817.85	227.36
818.17	227.35
818.48	227.28
818.80	227.40
819.12	227.26
819.44	227.17
819.76	227.17
820.07	227.14
820.39	227.08
820.71	227.12
821.03	227.06
821.34	227.02
821.66	227.08
821.98	227.05
822.30	227.09
822.61	227.40
822.93	227.19
823.25	227.22
823.57	227.10
823.88	227.23
824.20	227.19
824.52	227.26
824.83	227.23
825.15	227.10
825.47	227.02
825.79	227.08
826.10	227.01
826.42	226.96
826.74	226.97
827.05	227.02
827.37	227.12
827.69	227.13
828.00	227.20
828.32	227.13
828.64	227.12
828.95	227.38
829.27	227.25
829.58	227.28
829.90	227.38
830.22	227.38
830.53	227.31
830.85	227.29
831.17	227.27
831.48	227.26
831.80	227.30
832.11	227.29
832.43	227.29
832.75	227.34
833.06	227.60
833.38	227.52
833.69	227.54
834.01	227.48
834.32	227.44
834.64	227.39
834.96	227.42
835.27	227.46
835.59	227.28
835.90	227.20
836.22	227.18
836.53	227.02
836.85	227.07
837.16	227.55
837.48	227.57
837.79	227.65
838.11	227.70
838.42	227.68
838.74	227.69
839.05	227.60
839.37	227.55
839.68	227.36
840.00	227.33
840.31	227.32
840.63	227.36
840.94	227.27
841.26	227.26
841.57	227.26
841.88	227.26
842.20	227.20
842.51	227.12
842.83	227.12
843.14	227.56
843.46	227.53
843.77	227.25
844.08	227.15
844.40	226.99
844.71	226.98
845.03	226.93
845.34	226.95
845.65	226.93
845.97	226.99
846.28	226.97
846.60	227.01
846.91	226.95
847.22	226.86
847.54	226.98
847.85	226.98
848.16	226.91
848.48	226.82
848.79	226.96
849.10	227.03
849.42	227.04
849.73	226.64
850.04	226.61
850.36	226.41
850.67	226.52
850.98	226.50
851.30	226.45
851.61	226.45
851.92	226.39
852.23	226.57
852.55	226.57
852.86	226.62
853.17	226.59
853.49	226.61
853.80	226.73
854.11	226.74
854.42	226.82
854.74	226.80
855.05	226.85
855.36	226.67
855.67	226.66
855.99	226.65
856.30	227.27
856.61	227.25
856.92	227.25
857.23	227.25
857.55	227.25
857.86	227.27
858.17	227.33
858.48	227.22
858.79	227.09
859.11	227.10
859.42	227.05
859.73	227.07
860.04	227.17
860.35	227.01
860.66	226.91
860.98	226.83
861.29	226.94
861.60	226.92
861.91	227.02
862.22	226.94
862.53	226.82
862.84	226.15
863.16	226.32
863.47	226.28
863.78	226.24
864.09	226.30
864.40	226.37
864.71	226.44
865.02	226.57
865.33	226.52
865.64	226.49
865.95	226.49
866.27	226.77
866.58	226.70
866.89	226.83
867.20	226.81
867.51	226.73
867.82	226.70
868.13	226.89
868.44	226.81
868.75	226.98
869.06	227.08
869.37	227.14
869.68	226.99
869.99	227.10
870.30	227.15
870.61	227.20
870.92	227.11
871.23	227.09
871.54	227.16
871.85	227.27
872.16	227.32
872.47	227.32
872.78	227.09
873.09	227.13
873.40	227.09
873.71	227.21
874.02	227.34
874.33	227.35
874.64	227.22
874.95	227.33
875.26	227.21
875.56	227.27
875.87	227.35
876.18	227.30
876.49	227.80
876.80	227.73
877.11	227.60
877.42	227.61
877.73	227.56
878.04	227.49
878.35	227.49
878.66	227.53
878.96	227.45
879.27	227.44
879.58	227.49
879.89	227.40
880.20	227.54
880.51	227.45
880.82	227.42
881.12	227.42
881.43	227.21
881.74	227.15
882.05	227.05
882.36	227.03
882.67	227.09
882.97	226.51
883.28	226.56
883.59	226.63
883.90	226.65
884.21	226.70
884.51	226.66
884.82	226.60
885.13	226.58
885.44	226.63
885.74	226.58
886.05	226.48
886.36	226.55
886.67	226.31
886.98	226.55
887.28	226.59
887.59	226.59
887.90	226.65
888.20	226.53
888.51	226.61
888.82	226.52
889.13	226.55
889.43	226.93
889.74	226.84
890.05	226.74
890.35	226.70
890.66	226.56
890.97	226.54
891.28	226.47
891.58	226.44
891.89	226.45
892.20	226.43
892.50	226.36
892.81	226.26
893.12	226.24
893.42	226.03
893.73	225.93
894.04	225.90
894.34	225.94
894.65	225.95
894.95	225.87
895.26	225.89
895.57	226.16
895.87	225.72
896.18	225.76
896.48	225.78
896.79	225.83
897.10	225.91
897.40	225.90
897.71	225.97
898.01	225.99
898.32	226.00
898.63	226.02
898.93	226.03
899.24	226.07
899.54	226.05
899.85	226.01
900.15	226.00
900.46	226.00
900.76	226.05
901.07	226.09
901.38	226.12
901.68	226.11
901.99	225.78
902.29	225.81
902.60	225.79
902.90	225.78
903.21	225.65
903.51	225.69
903.82	225.78
904.12	225.83
904.43	225.78
904.73	225.75
905.03	225.70
905.34	226.19
905.64	226.18
905.95	226.22
906.25	226.23
906.56	226.23
906.86	226.18
907.17	226.09
907.47	226.13
907.77	225.99
908.08	226.02
908.38	226.08
908.69	226.11
908.99	226.26
909.30	226.34
909.60	226.45
909.90	226.47
910.21	226.35
910.51	226.26
910.81	226.38
911.12	226.33
911.42	226.41
911.73	225.94
912.03	226.00
912.33	226.06
912.64	226.01
912.94	226.04
913.24	226.02
913.55	226.06
913.85	226.10
914.15	226.25
914.46	226.25
914.76	226.21
915.06	226.13
915.37	226.04
915.67	225.97
915.97	225.96
916.27	225.76
916.58	225.83
916.88	225.79
917.18	225.65
917.49	226.07
917.79	226.02
918.09	226.06
918.39	226.15
918.70	226.12
919.00	226.16
919.30	226.36
919.60	226.43
919.91	226.31
920.21	226.27
920.51	226.17
920.81	226.14
921.12	226.18
921.42	226.22
921.72	226.21
922.02	226.26
922.32	226.27
922.63	226.34
922.93	226.54
923.23	226.58
923.53	226.50
923.83	226.20
924.13	226.28
924.44	226.33
924.74	226.35
925.04	226.42
925.34	226.42
925.64	226.18
925.94	226.07
926.24	226.45
926.55	226.42
926.85	226.50
927.15	226.52
927.45	226.53
927.75	226.58
928.05	226.53
928.35	226.42
928.65	226.52
928.95	226.53
929.26	226.37
929.56	226.45
929.86	226.55
930.16	226.47
930.46	226.38
930.76	226.33
931.06	226.10
931.36	226.05
931.66	226.15
931.96	226.20
932.26	226.22
932.56	225.93
932.86	225.92
933.16	225.89
933.46	225.85
933.76	225.76
934.06	225.82
934.36	226.02
934.66	226.07
934.96	226.01
935.26	226.03
935.56	226.10
935.86	226.02
936.16	225.95
936.46	225.92
936.76	225.95
937.06	225.87
937.36	225.93
937.66	225.95
937.96	225.88
938.26	225.83
938.56	225.82
938.86	225.83
939.16	225.89
939.46	225.95
939.76	226.02
940.06	226.08
940.35	225.97
940.65	225.71
940.95	225.74
941.25	225.64
941.55	225.65
941.85	225.57
942.15	225.71
942.45	225.84
942.75	225.90
943.04	225.90
943.34	226.07
943.64	226.08
943.94	226.02
944.24	226.06
944.54	226.15
944.84	226.16
945.13	226.17
945.43	226.13
945.73	226.11
946.03	226.12
946.33	226.08
946.62	226.10
946.92	226.17
947.22	226.26
947.52	226.35
947.82	226.41
948.11	226.40
948.41	226.24
948.71	226.20
949.01	226.22
949.31	226.23
949.60	226.16
949.90	226.25
950.20	226.21
950.50	226.17
950.79	226.08
951.09	226.16
951.39	226.17
951.69	226.18
951.98	226.31
952.28	226.27
952.58	226.21
952.87	226.26
953.17	226.26
953.47	226.18
953.76	226.16
954.06	226.05
954.36	226.02
954.66	226.05
954.95	226.20
955.25	226.25
955.55	226.29
955.84	226.21
956.14	226.30
956.44	226.36
956.73	226.37
957.03	226.44
957.32	226.45
957.62	226.42
957.92	226.53
958.21	226.47
958.51	227.04
958.81	227.13
959.10	227.08
959.40	227.18
959.69	227.20
959.99	227.26
960.29	227.34
960.58	227.25
960.88	227.44
961.17	227.30
961.47	227.32
961.76	227.25
962.06	227.36
962.36	227.22
962.65	227.24
962.95	227.24
963.24	227.24
963.54	227.27
963.83	227.23
964.13	227.13
964.42	226.99
964.72	226.54
965.01	226.51
965.31	226.53
965.60	226.49
965.90	226.74
966.19	226.66
966.49	226.65
966.78	226.61
967.08	226.51
967.37	226.49
967.67	226.36
967.96	226.43
968.26	226.38
968.55	226.45
968.85	226.35
969.14	226.33
969.43	226.30
969.73	226.12
970.02	226.13
970.32	226.07
970.61	226.05
970.91	225.90
971.20	225.84
971.49	225.71
971.79	225.76
972.08	225.41
972.38	225.40
972.67	225.36
972.96	225.51
973.26	225.39
973.55	225.52
973.85	225.51
974.14	225.44
974.43	225.36
974.73	225.29
975.02	225.27
975.31	225.25
975.61	225.20
975.90	225.20
976.19	225.22
976.49	225.30
976.78	225.39
977.07	225.43
977.37	225.46
977.66	225.54
977.95	225.44
978.24	225.46
978.54	225.58
978.83	225.56
979.12	225.48
979.42	225.51
979.71	225.45
980.00	225.40
980.29	225.41
980.59	225.38
980.88	225.46
981.17	225.47
981.46	225.49
981.76	225.50
982.05	225.66
982.34	225.70
982.63	225.70
982.93	225.66
983.22	225.77
983.51	225.76
983.80	225.86
984.09	225.93
984.39	225.98
984.68	225.88
984.97	225.88
985.26	225.89
985.55	225.96
985.85	225.85
986.14	226.00
986.43	226.06
986.72	226.09
987.01	225.99
987.30	226.02
987.59	226.00
987.89	226.00
988.18	225.95
988.47	225.92
988.76	225.82
989.05	225.97
989.34	225.84
989.63	225.96
989.92	225.84
990.22	225.85
990.51	225.87
990.80	225.84
991.09	225.96
991.38	226.01
991.67	225.94
991.96	225.97
992.25	225.94
992.54	225.90
992.83	225.98
993.12	225.98
993.41	226.06
993.70	226.31
993.99	226.46
994.28	226.46
994.58	226.54
994.87	226.65
995.16	226.49
995.45	226.51
995.74	226.43
996.03	226.50
996.32	226.53
996.61	226.59
996.90	226.64
997.19	226.49
997.48	226.49
997.77	226.42
998.06	226.41
998.34	226.38
998.63	226.33
998.92	226.29
999.21	226.33
999.50	226.31
999.79	226.11
1000.08	226.05
1000.37	226.05
1000.66	225.99
1000.95	226.06
1001.24	226.09
1001.53	226.15
1001.82	226.09
1002.11	226.05
1002.40	226.09
1002.68	226.17
1002.97	226.45
1003.26	226.48
1003.55	226.36
1003.84	226.42
1004.13	226.61
1004.42	226.61
1004.71	226.64
1004.99	226.58
1005.28	226.67
1005.57	226.61
1005.86	226.48
1006.15	226.36
1006.44	226.26
1006.72	226.24
1007.01	226.07
1007.30	226.13
1007.59	226.04
1007.88	226.03
1008.17	225.98
1008.45	225.85
1008.74	225.60
1009.03	225.35
1009.32	225.33
1009.60	225.30
1009.89	225.25
1010.18	224.98
1010.47	224.88
1010.76	224.82
1011.04	224.78
1011.33	224.77
1011.62	224.80
1011.91	224.93
1012.19	225.01
1012.48	225.04
1012.77	225.06
1013.05	225.37
1013.34	225.29
1013.63	225.27
1013.92	225.32
1014.20	225.39
1014.49	225.40
1014.78	225.53
1015.06	225.35
1015.35	225.31
1015.64	225.45
1015.92	225.57
1016.21	225.66
1016.50	225.74
1016.78	225.82
1017.07	225.91
1017.36	225.84
1017.64	225.78
1017.93	225.85
1018.22	225.84
1018.50	225.87
1018.79	225.82
1019.08	225.57
1019.36	225.57
1019.65	225.53
1019.93	225.66
1020.22	225.70
1020.51	226.00
1020.79	225.96
1021.08	225.50
1021.36	225.35
1021.65	224.95
1021.94	225.95
1022.22	224.80
1022.51	223.90
1022.79	228.55
1023.08	226.40
1023.36	232.40
1023.65	225.35
>>>>>End Processed Spectral Data<<<<<
