SpectraSuite Data File
++++++++++++++++++++++++++++++++++++
Date: Wed Sep 04 17:56:14 EDT 2013
User: lab3
Dark Spectrum Present: Yes
Reference Spectrum Present: No
Number of Sampled Component Spectra: 1
Spectrometers: USB2E7196
Integration Time (usec): 170000 (USB2E7196)
Spectra Averaged: 20 (USB2E7196)
Boxcar Smoothing: 10 (USB2E7196)
Correct for Electrical Dark: No (USB2E7196)
Strobe/Lamp Enabled: No (USB2E7196)
Correct for Detector Non-linearity: No (USB2E7196)
Correct for Stray Light: No (USB2E7196)
Number of Pixels in Processed Spectrum: 2048
>>>>>Begin Processed Spectral Data<<<<<
339.09	0.00
339.48	213.10
339.86	213.50
340.24	215.75
340.63	217.15
341.01	227.10
341.39	220.85
341.78	222.05
342.16	224.80
342.54	223.80
342.93	212.43
343.31	223.16
343.69	223.70
344.07	224.20
344.46	224.71
344.84	225.11
345.22	224.96
345.60	225.30
345.99	225.48
346.37	225.56
346.75	225.64
347.13	225.74
347.52	225.82
347.90	226.06
348.28	226.19
348.66	226.22
349.05	226.17
349.43	226.21
349.81	226.25
350.19	226.31
350.57	226.37
350.96	226.46
351.34	226.56
351.72	226.69
352.10	226.83
352.48	226.82
352.87	226.85
353.25	227.02
353.63	226.98
354.01	227.01
354.39	227.05
354.77	227.14
355.15	227.33
355.54	227.33
355.92	227.20
356.30	227.20
356.68	227.61
357.06	227.68
357.44	227.73
357.82	227.74
358.20	228.21
358.58	228.27
358.97	228.30
359.35	228.41
359.73	228.54
360.11	228.56
360.49	228.62
360.87	228.70
361.25	228.77
361.63	228.95
362.01	229.07
362.39	229.10
362.77	229.18
363.15	229.15
363.53	229.22
363.91	229.31
364.29	229.34
364.67	228.95
365.05	228.92
365.43	228.98
365.81	229.19
366.19	229.12
366.57	229.32
366.95	229.27
367.33	229.20
367.71	229.21
368.09	229.33
368.47	229.41
368.85	229.45
369.23	229.60
369.61	229.51
369.99	229.65
370.37	229.64
370.75	229.85
371.13	229.80
371.51	229.73
371.89	229.77
372.27	229.82
372.65	229.87
373.03	229.95
373.41	229.92
373.78	229.80
374.16	229.45
374.54	229.27
374.92	229.27
375.30	229.23
375.68	229.08
376.06	229.07
376.44	228.97
376.82	228.89
377.19	228.77
377.57	228.68
377.95	228.46
378.33	228.44
378.71	228.16
379.09	228.18
379.47	228.24
379.84	228.16
380.22	228.00
380.60	227.80
380.98	227.72
381.36	227.60
381.73	227.49
382.11	227.55
382.49	227.48
382.87	227.36
383.25	227.28
383.62	227.79
384.00	227.59
384.38	227.56
384.76	227.67
385.13	227.80
385.51	227.77
385.89	227.70
386.27	227.68
386.64	227.68
387.02	227.59
387.40	227.43
387.78	227.43
388.15	227.42
388.53	227.40
388.91	227.39
389.29	227.39
389.66	227.48
390.04	227.39
390.42	227.54
390.79	227.54
391.17	227.58
391.55	227.05
391.92	227.03
392.30	227.04
392.68	226.93
393.05	226.85
393.43	226.78
393.81	226.81
394.18	226.79
394.56	226.76
394.94	226.84
395.31	226.88
395.69	227.00
396.06	227.14
396.44	227.22
396.82	227.13
397.19	227.39
397.57	227.30
397.95	227.47
398.32	227.38
398.70	227.52
399.07	227.65
399.45	227.68
399.82	227.74
400.20	227.78
400.58	227.80
400.95	227.70
401.33	227.97
401.70	228.45
402.08	228.55
402.45	228.71
402.83	228.97
403.20	229.17
403.58	229.28
403.95	229.45
404.33	229.67
404.71	229.96
405.08	230.33
405.46	230.58
405.83	230.78
406.21	230.97
406.58	231.28
406.96	231.55
407.33	231.93
407.70	232.38
408.08	233.15
408.45	233.65
408.83	234.20
409.20	234.45
409.58	234.58
409.95	235.10
410.33	235.59
410.70	235.90
411.08	236.43
411.45	237.07
411.82	237.56
412.20	238.25
412.57	239.20
412.95	239.55
413.32	240.46
413.69	241.29
414.07	242.24
414.44	243.20
414.82	244.25
415.19	245.45
415.56	246.65
415.94	247.61
416.31	249.00
416.68	250.32
417.06	252.02
417.43	253.63
417.81	255.36
418.18	257.20
418.55	259.23
418.93	261.25
419.30	263.33
419.67	265.55
420.04	267.84
420.42	270.13
420.79	273.26
421.16	276.00
421.54	279.14
421.91	282.21
422.28	285.25
422.66	288.49
423.03	291.94
423.40	295.25
423.77	298.76
424.15	302.35
424.52	306.12
424.89	310.33
425.26	314.32
425.64	318.08
426.01	322.27
426.38	326.62
426.75	331.15
427.13	335.70
427.50	340.62
427.87	345.57
428.24	350.51
428.61	354.95
428.99	360.31
429.36	365.73
429.73	371.07
430.10	376.65
430.47	382.38
430.85	387.86
431.22	394.13
431.59	401.06
431.96	407.42
432.33	414.35
432.70	421.00
433.08	428.80
433.45	436.33
433.82	443.70
434.19	451.90
434.56	459.98
434.93	467.69
435.30	475.34
435.68	484.13
436.05	492.52
436.42	500.97
436.79	508.68
437.16	517.08
437.53	525.96
437.90	534.70
438.27	543.30
438.64	552.48
439.01	560.77
439.38	567.84
439.75	574.90
440.13	583.02
440.50	590.55
440.87	596.77
441.24	602.97
441.61	609.94
441.98	615.07
442.35	620.78
442.72	626.72
443.09	632.76
443.46	635.99
443.83	638.29
444.20	640.23
444.57	642.81
444.94	643.82
445.31	645.00
445.68	646.33
446.05	646.58
446.42	645.15
446.79	643.64
447.16	642.10
447.53	640.71
447.90	636.99
448.27	633.30
448.64	628.39
449.01	624.81
449.37	618.74
449.74	612.68
450.11	606.01
450.48	598.34
450.85	590.16
451.22	583.15
451.59	576.73
451.96	570.36
452.33	562.21
452.70	554.88
453.07	546.19
453.43	537.09
453.80	528.47
454.17	520.43
454.54	512.78
454.91	504.53
455.28	496.71
455.65	489.33
456.02	482.35
456.38	475.92
456.75	468.06
457.12	461.54
457.49	455.18
457.86	448.75
458.23	443.59
458.59	437.86
458.96	432.23
459.33	426.91
459.70	421.78
460.07	417.74
460.43	413.04
460.80	408.77
461.17	405.05
461.54	401.09
461.91	397.27
462.27	393.33
462.64	390.16
463.01	386.52
463.38	383.15
463.74	379.22
464.11	376.30
464.48	373.85
464.85	371.01
465.21	368.88
465.58	366.62
465.95	363.69
466.32	361.44
466.68	359.23
467.05	357.10
467.42	354.98
467.78	352.65
468.15	350.47
468.52	348.77
468.88	346.55
469.25	344.76
469.62	343.25
469.98	341.59
470.35	340.03
470.72	338.58
471.08	336.84
471.45	335.60
471.82	334.35
472.18	332.87
472.55	331.75
472.92	330.42
473.28	329.29
473.65	328.27
474.02	327.21
474.38	326.31
474.75	325.52
475.11	324.55
475.48	324.05
475.85	323.39
476.21	322.79
476.58	322.25
476.94	321.81
477.31	321.29
477.67	321.02
478.04	320.62
478.41	320.45
478.77	320.77
479.14	320.49
479.50	320.35
479.87	320.32
480.23	320.29
480.60	320.28
480.96	320.31
481.33	320.73
481.69	320.98
482.06	321.20
482.42	321.52
482.79	321.94
483.15	322.29
483.52	323.02
483.88	323.44
484.25	323.99
484.61	324.62
484.98	325.37
485.34	326.17
485.71	327.19
486.07	328.12
486.44	328.78
486.80	329.97
487.17	331.04
487.53	332.38
487.90	333.86
488.26	335.53
488.62	337.15
488.99	338.60
489.35	340.30
489.72	342.16
490.08	344.09
490.44	346.11
490.81	348.39
491.17	350.49
491.54	352.94
491.90	355.56
492.26	358.32
492.63	361.10
492.99	363.99
493.36	366.99
493.72	370.25
494.08	373.64
494.45	377.26
494.81	381.15
495.17	385.11
495.54	389.37
495.90	393.61
496.26	398.08
496.63	402.75
496.99	407.59
497.35	412.77
497.72	418.09
498.08	423.55
498.44	429.08
498.80	435.15
499.17	441.25
499.53	447.44
499.89	454.03
500.26	460.92
500.62	467.89
500.98	475.24
501.34	482.70
501.71	490.45
502.07	498.30
502.43	506.40
502.79	514.82
503.16	523.43
503.52	532.42
503.88	541.53
504.24	551.25
504.60	561.30
504.97	571.34
505.33	581.74
505.69	592.98
506.05	604.07
506.41	615.35
506.78	627.20
507.14	639.35
507.50	651.57
507.86	664.20
508.22	677.11
508.59	690.21
508.95	703.77
509.31	718.00
509.67	732.27
510.03	746.75
510.39	761.44
510.75	776.54
511.12	791.73
511.48	807.54
511.84	823.08
512.20	838.97
512.56	855.44
512.92	872.21
513.28	888.92
513.64	906.14
514.00	923.64
514.37	941.10
514.73	959.11
515.09	977.49
515.45	996.10
515.81	1014.72
516.17	1033.61
516.53	1052.43
516.89	1070.91
517.25	1090.34
517.61	1110.38
517.97	1130.75
518.33	1150.68
518.69	1171.11
519.05	1191.51
519.41	1212.53
519.77	1233.71
520.13	1254.45
520.49	1275.06
520.85	1297.41
521.21	1318.67
521.57	1340.06
521.93	1361.00
522.29	1382.39
522.65	1402.86
523.01	1423.56
523.37	1444.20
523.73	1465.59
524.09	1486.09
524.45	1506.90
524.81	1527.63
525.17	1548.41
525.53	1568.92
525.89	1589.59
526.25	1610.42
526.61	1630.75
526.97	1651.83
527.33	1673.07
527.68	1695.03
528.04	1716.39
528.40	1736.01
528.76	1756.79
529.12	1777.36
529.48	1798.34
529.84	1818.11
530.20	1839.72
530.56	1860.34
530.91	1881.53
531.27	1901.44
531.63	1922.61
531.99	1943.25
532.35	1963.50
532.71	1983.65
533.07	2004.18
533.42	2024.15
533.78	2044.18
534.14	2064.32
534.50	2083.33
534.86	2102.38
535.21	2119.79
535.57	2138.39
535.93	2156.16
536.29	2174.13
536.65	2192.33
537.00	2209.92
537.36	2227.65
537.72	2243.66
538.08	2261.19
538.44	2277.73
538.79	2294.25
539.15	2310.37
539.51	2326.32
539.87	2341.24
540.22	2355.40
540.58	2369.83
540.94	2383.26
541.29	2395.75
541.65	2408.29
542.01	2420.93
542.37	2431.48
542.72	2442.32
543.08	2452.69
543.44	2464.60
543.79	2474.74
544.15	2484.28
544.51	2494.20
544.87	2503.80
545.22	2512.97
545.58	2520.63
545.94	2527.83
546.29	2534.38
546.65	2540.67
547.01	2546.13
547.36	2552.26
547.72	2557.32
548.07	2561.00
548.43	2566.12
548.79	2570.73
549.14	2574.87
549.50	2578.28
549.86	2582.46
550.21	2586.86
550.57	2590.57
550.92	2591.36
551.28	2592.63
551.64	2595.07
551.99	2596.81
552.35	2598.55
552.70	2600.56
553.06	2602.25
553.41	2603.55
553.77	2605.25
554.13	2606.52
554.48	2608.40
554.84	2609.21
555.19	2611.07
555.55	2612.75
555.90	2612.43
556.26	2611.74
556.61	2609.89
556.97	2607.98
557.32	2607.26
557.68	2605.64
558.03	2603.82
558.39	2602.80
558.74	2601.90
559.10	2598.41
559.45	2594.89
559.81	2590.26
560.16	2585.16
560.52	2580.02
560.87	2575.50
561.23	2570.10
561.58	2564.57
561.94	2557.58
562.29	2550.18
562.64	2542.87
563.00	2535.11
563.35	2528.48
563.71	2521.99
564.06	2516.07
564.42	2509.38
564.77	2502.53
565.12	2495.07
565.48	2487.55
565.83	2479.27
566.19	2471.28
566.54	2463.79
566.89	2455.75
567.25	2448.21
567.60	2440.95
567.96	2433.21
568.31	2425.20
568.66	2416.63
569.02	2407.60
569.37	2399.62
569.72	2392.15
570.08	2382.58
570.43	2372.65
570.78	2363.37
571.14	2353.76
571.49	2343.37
571.84	2333.95
572.20	2323.25
572.55	2313.35
572.90	2302.33
573.26	2292.30
573.61	2281.15
573.96	2269.58
574.31	2257.72
574.67	2246.09
575.02	2233.22
575.37	2220.92
575.72	2207.55
576.08	2195.54
576.43	2182.94
576.78	2169.53
577.13	2155.71
577.49	2143.15
577.84	2131.71
578.19	2119.62
578.54	2107.09
578.90	2095.30
579.25	2083.12
579.60	2070.42
579.95	2057.25
580.30	2044.13
580.66	2030.71
581.01	2017.36
581.36	2003.46
581.71	1991.03
582.06	1977.68
582.42	1965.22
582.77	1952.53
583.12	1940.86
583.47	1928.26
583.82	1916.18
584.17	1904.26
584.53	1892.80
584.88	1880.06
585.23	1866.70
585.58	1852.45
585.93	1839.31
586.28	1825.90
586.63	1811.70
586.98	1797.33
587.34	1783.94
587.69	1770.80
588.04	1758.35
588.39	1746.34
588.74	1734.42
589.09	1722.16
589.44	1709.56
589.79	1697.34
590.14	1685.24
590.49	1673.05
590.84	1661.26
591.19	1649.35
591.54	1636.99
591.89	1624.82
592.25	1614.36
592.60	1602.94
592.95	1591.56
593.30	1579.49
593.65	1567.32
594.00	1555.35
594.35	1545.57
594.70	1533.84
595.05	1522.30
595.40	1510.14
595.75	1498.05
596.10	1486.97
596.45	1475.43
596.80	1464.88
597.15	1453.40
597.50	1441.70
597.85	1430.41
598.19	1418.55
598.54	1406.71
598.89	1395.71
599.24	1385.01
599.59	1373.42
599.94	1362.57
600.29	1352.37
600.64	1342.04
600.99	1331.50
601.34	1322.06
601.69	1310.95
602.04	1300.92
602.39	1291.52
602.74	1282.27
603.08	1272.81
603.43	1263.31
603.78	1253.51
604.13	1243.63
604.48	1234.09
604.83	1224.37
605.18	1214.37
605.53	1205.06
605.87	1195.94
606.22	1187.27
606.57	1177.75
606.92	1168.43
607.27	1159.47
607.62	1150.43
607.96	1141.77
608.31	1133.91
608.66	1125.26
609.01	1116.67
609.36	1108.32
609.70	1099.58
610.05	1090.85
610.40	1082.24
610.75	1073.40
611.10	1065.09
611.44	1056.50
611.79	1048.10
612.14	1040.10
612.49	1032.22
612.83	1024.43
613.18	1016.68
613.53	1008.73
613.88	1000.93
614.22	993.27
614.57	985.17
614.92	977.46
615.27	969.97
615.61	962.33
615.96	954.88
616.31	947.59
616.65	940.62
617.00	933.35
617.35	926.19
617.70	919.21
618.04	912.30
618.39	905.34
618.74	898.83
619.08	892.13
619.43	885.38
619.78	878.40
620.12	871.61
620.47	864.77
620.82	857.59
621.16	850.64
621.51	844.11
621.85	837.78
622.20	831.17
622.55	824.44
622.89	817.83
623.24	811.30
623.59	804.75
623.93	798.08
624.28	791.98
624.62	786.35
624.97	780.39
625.32	774.59
625.66	768.71
626.01	762.59
626.35	757.02
626.70	751.40
627.04	746.03
627.39	740.23
627.73	734.83
628.08	729.96
628.43	724.69
628.77	719.21
629.12	714.06
629.46	709.27
629.81	704.64
630.15	699.90
630.50	695.05
630.84	690.31
631.19	685.69
631.53	681.05
631.88	675.72
632.22	670.76
632.57	666.19
632.91	661.31
633.26	657.04
633.60	652.35
633.95	647.60
634.29	642.81
634.64	638.30
634.98	633.63
635.32	628.95
635.67	625.04
636.01	621.02
636.36	616.61
636.70	612.40
637.05	607.97
637.39	603.78
637.73	599.70
638.08	595.50
638.42	591.13
638.77	586.83
639.11	582.59
639.45	578.34
639.80	573.96
640.14	570.02
640.49	565.84
640.83	561.94
641.17	558.32
641.52	554.68
641.86	551.10
642.20	547.86
642.55	544.18
642.89	540.32
643.23	536.74
643.58	533.63
643.92	530.08
644.26	526.70
644.61	523.45
644.95	520.13
645.29	516.75
645.64	513.77
645.98	510.71
646.32	507.85
646.66	504.84
647.01	501.90
647.35	499.21
647.69	496.42
648.04	493.67
648.38	490.89
648.72	487.93
649.06	484.99
649.41	481.94
649.75	479.13
650.09	476.32
650.43	473.53
650.78	470.57
651.12	467.71
651.46	464.97
651.80	462.24
652.14	459.50
652.49	457.03
652.83	454.42
653.17	451.80
653.51	449.07
653.85	446.71
654.20	444.10
654.54	441.35
654.88	438.80
655.22	436.48
655.56	433.98
655.90	431.81
656.25	429.49
656.59	427.18
656.93	424.89
657.27	422.82
657.61	420.34
657.95	418.04
658.29	415.96
658.64	413.96
658.98	411.67
659.32	409.41
659.66	407.18
660.00	405.01
660.34	402.88
660.68	400.90
661.02	398.79
661.36	396.85
661.70	394.87
662.05	392.87
662.39	390.96
662.73	389.10
663.07	387.44
663.41	385.60
663.75	383.70
664.09	381.91
664.43	380.00
664.77	378.42
665.11	376.71
665.45	374.97
665.79	373.26
666.13	371.52
666.47	369.88
666.81	368.31
667.15	366.57
667.49	365.12
667.83	363.72
668.17	362.35
668.51	361.01
668.85	359.72
669.19	358.63
669.53	357.13
669.87	355.62
670.21	354.09
670.55	352.72
670.89	351.68
671.23	350.35
671.57	348.93
671.91	347.48
672.25	346.23
672.58	345.10
672.92	343.64
673.26	342.44
673.60	341.28
673.94	340.05
674.28	338.99
674.62	337.85
674.96	336.56
675.30	335.31
675.64	334.03
675.97	332.72
676.31	331.28
676.65	329.97
676.99	329.00
677.33	327.84
677.67	326.77
678.01	325.41
678.34	324.35
678.68	323.37
679.02	322.40
679.36	321.35
679.70	320.21
680.04	319.26
680.37	318.25
680.71	317.23
681.05	316.31
681.39	315.40
681.73	314.31
682.06	313.45
682.40	312.54
682.74	311.79
683.08	311.11
683.42	310.21
683.75	309.58
684.09	308.63
684.43	307.73
684.77	306.88
685.10	306.08
685.44	305.29
685.78	304.53
686.12	303.71
686.45	302.88
686.79	302.08
687.13	301.41
687.46	300.70
687.80	300.08
688.14	299.25
688.48	298.50
688.81	297.82
689.15	297.16
689.49	296.41
689.82	295.68
690.16	294.74
690.50	293.98
690.83	293.10
691.17	292.30
691.51	291.64
691.84	290.98
692.18	290.30
692.52	289.59
692.85	288.85
693.19	288.46
693.52	287.82
693.86	287.13
694.20	286.52
694.53	285.84
694.87	285.11
695.21	284.49
695.54	283.83
695.88	283.10
696.21	282.27
696.55	281.73
696.88	281.09
697.22	280.52
697.56	280.05
697.89	279.46
698.23	278.98
698.56	278.38
698.90	277.94
699.23	277.46
699.57	276.98
699.90	276.49
700.24	275.81
700.58	275.34
700.91	275.00
701.25	274.84
701.58	274.80
701.92	274.46
702.25	273.91
702.59	273.47
702.92	273.13
703.26	272.82
703.59	272.28
703.93	272.27
704.26	271.92
704.60	271.50
704.93	271.11
705.26	270.68
705.60	270.35
705.93	269.80
706.27	269.46
706.60	269.10
706.94	268.90
707.27	268.50
707.61	268.16
707.94	267.79
708.27	266.97
708.61	266.20
708.94	265.79
709.28	265.48
709.61	265.06
709.94	264.73
710.28	264.34
710.61	263.98
710.95	263.20
711.28	263.14
711.61	262.78
711.95	262.47
712.28	262.05
712.61	261.63
712.95	261.57
713.28	261.40
713.61	261.05
713.95	260.70
714.28	260.31
714.61	259.95
714.95	259.50
715.28	259.16
715.61	258.74
715.95	258.40
716.28	258.09
716.61	257.91
716.95	257.47
717.28	257.15
717.61	256.95
717.94	256.62
718.28	255.95
718.61	255.64
718.94	255.30
719.27	255.05
719.61	254.92
719.94	254.44
720.27	253.94
720.60	253.65
720.94	253.46
721.27	253.28
721.60	253.17
721.93	252.95
722.27	252.86
722.60	252.83
722.93	252.56
723.26	252.32
723.59	252.00
723.93	251.85
724.26	251.66
724.59	251.39
724.92	251.22
725.25	251.13
725.59	250.93
725.92	250.87
726.25	250.67
726.58	250.41
726.91	250.25
727.24	250.17
727.57	249.97
727.91	249.59
728.24	249.43
728.57	249.15
728.90	248.96
729.23	248.61
729.56	248.65
729.89	248.47
730.22	248.30
730.55	248.18
730.89	248.13
731.22	247.96
731.55	247.75
731.88	247.58
732.21	247.34
732.54	247.05
732.87	246.82
733.20	246.74
733.53	246.55
733.86	246.41
734.19	246.15
734.52	246.02
734.85	246.13
735.18	245.89
735.51	245.91
735.84	245.81
736.17	245.82
736.50	245.35
736.83	245.80
737.16	245.68
737.49	245.47
737.82	245.24
738.15	245.14
738.48	244.97
738.81	244.79
739.14	244.63
739.47	244.51
739.80	244.33
740.13	244.18
740.46	243.97
740.79	243.75
741.12	243.58
741.45	243.32
741.78	242.95
742.11	242.97
742.44	242.65
742.77	242.51
743.10	242.28
743.43	242.13
743.75	241.45
744.08	241.97
744.41	241.79
744.74	241.61
745.07	241.32
745.40	241.29
745.73	241.32
746.06	241.16
746.39	241.12
746.71	240.98
747.04	240.77
747.37	240.63
747.70	240.66
748.03	240.60
748.36	240.59
748.68	240.46
749.01	240.15
749.34	239.99
749.67	239.93
750.00	239.88
750.33	240.16
750.65	240.10
750.98	239.33
751.31	239.32
751.64	239.18
751.97	239.34
752.29	239.16
752.62	238.93
752.95	238.82
753.28	238.61
753.60	238.44
753.93	238.43
754.26	238.38
754.59	238.10
754.91	237.93
755.24	237.80
755.57	237.67
755.90	237.60
756.22	237.48
756.55	237.27
756.88	237.07
757.20	236.64
757.53	236.39
757.86	236.30
758.19	236.13
758.51	236.10
758.84	235.81
759.17	235.67
759.49	235.53
759.82	235.66
760.15	235.56
760.47	235.50
760.80	235.31
761.13	235.23
761.45	235.11
761.78	235.02
762.11	234.90
762.43	234.80
762.76	234.70
763.08	234.66
763.41	234.59
763.74	234.52
764.06	234.42
764.39	234.38
764.71	234.27
765.04	234.17
765.37	234.05
765.69	233.95
766.02	233.85
766.34	233.81
766.67	233.55
767.00	233.64
767.32	233.81
767.65	234.00
767.97	233.91
768.30	233.89
768.62	233.73
768.95	233.61
769.27	233.55
769.60	233.56
769.92	233.52
770.25	233.39
770.57	233.26
770.90	233.19
771.22	233.01
771.55	232.90
771.87	232.94
772.20	232.84
772.52	233.18
772.85	233.75
773.17	233.66
773.50	233.54
773.82	233.35
774.15	233.06
774.47	232.66
774.80	232.65
775.12	232.58
775.45	232.62
775.77	232.62
776.09	232.62
776.42	232.56
776.74	232.61
777.07	232.57
777.39	232.61
777.72	232.51
778.04	232.57
778.36	232.53
778.69	232.40
779.01	232.40
779.33	232.04
779.66	231.39
779.98	231.36
780.31	231.46
780.63	231.69
780.95	231.78
781.28	231.83
781.60	231.67
781.92	231.61
782.25	231.55
782.57	231.52
782.89	231.48
783.22	231.43
783.54	231.27
783.86	231.26
784.19	231.15
784.51	231.31
784.83	231.21
785.16	231.18
785.48	231.18
785.80	231.18
786.12	231.13
786.45	231.11
786.77	231.13
787.09	230.98
787.42	230.75
787.74	230.80
788.06	230.73
788.38	230.74
788.71	230.70
789.03	230.72
789.35	230.87
789.67	230.72
789.99	230.72
790.32	230.61
790.64	230.68
790.96	231.06
791.28	230.85
791.61	230.84
791.93	230.84
792.25	230.83
792.57	231.10
792.89	230.96
793.21	230.98
793.54	230.82
793.86	230.80
794.18	230.78
794.50	230.57
794.82	230.60
795.14	230.63
795.47	230.71
795.79	230.69
796.11	230.47
796.43	230.42
796.75	230.38
797.07	230.41
797.39	230.27
797.71	229.90
798.04	229.95
798.36	229.97
798.68	229.92
799.00	229.89
799.32	229.65
799.64	229.80
799.96	229.76
800.28	229.90
800.60	229.79
800.92	229.84
801.24	229.83
801.56	229.83
801.89	229.83
802.21	229.83
802.53	229.73
802.85	229.81
803.17	230.04
803.49	229.87
803.81	229.84
804.13	229.79
804.45	229.74
804.77	229.75
805.09	229.70
805.41	229.72
805.73	229.70
806.05	229.61
806.37	229.49
806.69	229.43
807.01	229.37
807.33	229.45
807.65	229.21
807.97	229.39
808.28	229.29
808.60	229.16
808.92	229.00
809.24	229.28
809.56	229.10
809.88	228.91
810.20	228.98
810.52	229.05
810.84	229.04
811.16	228.99
811.48	228.89
811.80	229.05
812.12	229.00
812.43	228.99
812.75	228.97
813.07	228.94
813.39	228.99
813.71	228.82
814.03	228.79
814.35	228.82
814.67	228.61
814.98	228.62
815.30	228.66
815.62	228.60
815.94	228.26
816.26	228.54
816.58	228.45
816.89	228.46
817.21	228.31
817.53	228.28
817.85	228.28
818.17	228.24
818.48	228.01
818.80	228.12
819.12	228.09
819.44	227.99
819.76	227.96
820.07	227.90
820.39	227.98
820.71	228.01
821.03	228.03
821.34	228.00
821.66	228.04
821.98	228.11
822.30	228.13
822.61	228.47
822.93	228.20
823.25	228.22
823.57	228.16
823.88	228.28
824.20	228.28
824.52	228.27
824.83	228.28
825.15	228.16
825.47	228.05
825.79	227.96
826.10	227.92
826.42	227.81
826.74	227.91
827.05	227.86
827.37	227.78
827.69	227.82
828.00	227.80
828.32	227.75
828.64	227.67
828.95	227.91
829.27	227.76
829.58	227.73
829.90	227.82
830.22	227.84
830.53	227.76
830.85	227.73
831.17	227.70
831.48	227.68
831.80	227.76
832.11	227.71
832.43	227.66
832.75	227.67
833.06	228.01
833.38	227.83
833.69	227.84
834.01	227.91
834.32	227.79
834.64	227.76
834.96	227.80
835.27	227.74
835.59	227.58
835.90	227.49
836.22	227.53
836.53	227.34
836.85	227.26
837.16	227.67
837.48	227.69
837.79	227.85
838.11	227.86
838.42	227.80
838.74	227.87
839.05	227.82
839.37	227.85
839.68	227.50
840.00	227.51
840.31	227.52
840.63	227.46
840.94	227.40
841.26	227.33
841.57	227.24
841.88	227.25
842.20	227.15
842.51	227.01
842.83	226.95
843.14	227.40
843.46	227.42
843.77	227.10
844.08	227.11
844.40	226.90
844.71	226.85
845.03	226.81
845.34	226.70
845.65	226.73
845.97	226.63
846.28	226.68
846.60	226.70
846.91	226.69
847.22	226.65
847.54	226.80
847.85	226.89
848.16	226.87
848.48	226.79
848.79	226.98
849.10	227.07
849.42	227.11
849.73	226.71
850.04	226.67
850.36	226.49
850.67	226.56
850.98	226.59
851.30	226.67
851.61	226.65
851.92	226.71
852.23	226.89
852.55	226.93
852.86	226.97
853.17	227.04
853.49	227.15
853.80	227.24
854.11	227.33
854.42	227.39
854.74	227.35
855.05	227.41
855.36	227.19
855.67	227.18
855.99	227.20
856.30	227.74
856.61	227.79
856.92	227.91
857.23	227.80
857.55	227.78
857.86	227.73
858.17	227.89
858.48	227.83
858.79	227.76
859.11	227.78
859.42	227.67
859.73	227.57
860.04	227.54
860.35	227.40
860.66	227.24
860.98	227.24
861.29	227.31
861.60	227.26
861.91	227.39
862.22	227.32
862.53	227.33
862.84	226.81
863.16	226.90
863.47	226.79
863.78	226.79
864.09	226.84
864.40	226.85
864.71	226.81
865.02	226.88
865.33	226.83
865.64	226.82
865.95	226.88
866.27	227.19
866.58	227.15
866.89	227.17
867.20	227.15
867.51	227.06
867.82	227.12
868.13	227.33
868.44	227.19
868.75	227.33
869.06	227.30
869.37	227.32
869.68	227.17
869.99	227.24
870.30	227.36
870.61	227.41
870.92	227.36
871.23	227.33
871.54	227.35
871.85	227.41
872.16	227.50
872.47	227.47
872.78	227.24
873.09	227.25
873.40	227.33
873.71	227.34
874.02	227.38
874.33	227.30
874.64	227.18
874.95	227.26
875.26	227.16
875.56	227.10
875.87	227.12
876.18	227.08
876.49	227.55
876.80	227.50
877.11	227.35
877.42	227.40
877.73	227.46
878.04	227.42
878.35	227.39
878.66	227.35
878.96	227.42
879.27	227.36
879.58	227.34
879.89	227.17
880.20	227.34
880.51	227.30
880.82	227.31
881.12	227.29
881.43	227.22
881.74	227.22
882.05	227.30
882.36	227.28
882.67	227.38
882.97	226.88
883.28	226.89
883.59	226.88
883.90	226.98
884.21	227.04
884.51	227.07
884.82	227.07
885.13	227.05
885.44	227.01
885.74	227.01
886.05	227.02
886.36	227.09
886.67	226.94
886.98	227.18
887.28	227.19
887.59	227.17
887.90	227.23
888.20	227.18
888.51	227.25
888.82	227.21
889.13	227.17
889.43	227.57
889.74	227.51
890.05	227.57
890.35	227.45
890.66	227.35
890.97	227.31
891.28	227.26
891.58	227.31
891.89	227.27
892.20	227.25
892.50	227.23
892.81	227.19
893.12	227.13
893.42	226.91
893.73	226.96
894.04	227.00
894.34	227.02
894.65	227.04
894.95	226.92
895.26	226.97
895.57	227.26
895.87	226.81
896.18	226.85
896.48	226.81
896.79	226.82
897.10	226.86
897.40	226.82
897.71	226.95
898.01	226.89
898.32	226.99
898.63	226.92
898.93	226.87
899.24	226.96
899.54	226.95
899.85	226.90
900.15	226.89
900.46	226.78
900.76	226.79
901.07	226.75
901.38	226.77
901.68	226.74
901.99	226.45
902.29	226.48
902.60	226.48
902.90	226.50
903.21	226.52
903.51	226.49
903.82	226.51
904.12	226.45
904.43	226.45
904.73	226.40
905.03	226.47
905.34	226.97
905.64	226.90
905.95	226.89
906.25	226.88
906.56	226.83
906.86	226.90
907.17	226.85
907.47	226.83
907.77	226.74
908.08	226.62
908.38	226.68
908.69	226.72
908.99	226.79
909.30	226.78
909.60	226.73
909.90	226.82
910.21	226.77
910.51	226.70
910.81	226.67
911.12	226.70
911.42	226.66
911.73	226.17
912.03	226.20
912.33	226.33
912.64	226.37
912.94	226.35
913.24	226.24
913.55	226.22
913.85	226.24
914.15	226.35
914.46	226.45
914.76	226.30
915.06	226.28
915.37	226.19
915.67	226.12
915.97	226.08
916.27	225.92
916.58	225.96
916.88	225.91
917.18	225.88
917.49	226.21
917.79	226.23
918.09	226.25
918.39	226.36
918.70	226.34
919.00	226.30
919.30	226.52
919.60	226.54
919.91	226.42
920.21	226.45
920.51	226.37
920.81	226.31
921.12	226.45
921.42	226.37
921.72	226.41
922.02	226.45
922.32	226.52
922.63	226.59
922.93	226.78
923.23	226.83
923.53	226.83
923.83	226.54
924.13	226.52
924.44	226.55
924.74	226.56
925.04	226.59
925.34	226.58
925.64	226.35
925.94	226.36
926.24	226.66
926.55	226.60
926.85	226.59
927.15	226.63
927.45	226.67
927.75	226.71
928.05	226.64
928.35	226.62
928.65	226.77
928.95	226.72
929.26	226.57
929.56	226.63
929.86	226.65
930.16	226.61
930.46	226.56
930.76	226.49
931.06	226.29
931.36	226.20
931.66	226.27
931.96	226.34
932.26	226.36
932.56	226.19
932.86	226.19
933.16	226.26
933.46	226.29
933.76	226.19
934.06	226.24
934.36	226.44
934.66	226.41
934.96	226.29
935.26	226.36
935.56	226.43
935.86	226.34
936.16	226.29
936.46	226.22
936.76	226.26
937.06	226.28
937.36	226.34
937.66	226.36
937.96	226.27
938.26	226.25
938.56	226.25
938.86	226.27
939.16	226.40
939.46	226.40
939.76	226.43
940.06	226.47
940.35	226.40
940.65	226.14
940.95	226.21
941.25	226.11
941.55	226.05
941.85	226.05
942.15	226.16
942.45	226.30
942.75	226.29
943.04	226.33
943.34	226.39
943.64	226.36
943.94	226.32
944.24	226.36
944.54	226.30
944.84	226.23
945.13	226.19
945.43	226.10
945.73	226.07
946.03	226.04
946.33	225.93
946.62	225.90
946.92	225.93
947.22	225.95
947.52	226.03
947.82	226.07
948.11	225.92
948.41	225.82
948.71	225.78
949.01	225.89
949.31	225.84
949.60	225.91
949.90	225.98
950.20	225.93
950.50	225.91
950.79	225.91
951.09	225.99
951.39	225.97
951.69	226.00
951.98	226.10
952.28	226.00
952.58	226.06
952.87	226.09
953.17	226.14
953.47	226.11
953.76	226.12
954.06	226.02
954.36	225.98
954.66	225.89
954.95	225.90
955.25	225.86
955.55	225.97
955.84	225.83
956.14	225.90
956.44	225.88
956.73	225.84
957.03	225.97
957.32	225.95
957.62	225.86
957.92	225.91
958.21	225.86
958.51	226.48
958.81	226.53
959.10	226.64
959.40	226.79
959.69	226.78
959.99	226.86
960.29	226.92
960.58	226.96
960.88	227.22
961.17	227.17
961.47	227.24
961.76	227.14
962.06	227.22
962.36	227.18
962.65	227.29
962.95	227.32
963.24	227.21
963.54	227.28
963.83	227.38
964.13	227.40
964.42	227.30
964.72	226.92
965.01	226.90
965.31	226.80
965.60	226.68
965.90	227.04
966.19	226.93
966.49	226.95
966.78	226.94
967.08	226.89
967.37	226.92
967.67	226.85
967.96	226.93
968.26	226.94
968.55	226.98
968.85	226.93
969.14	226.96
969.43	227.00
969.73	226.93
970.02	226.92
970.32	226.87
970.61	226.86
970.91	226.74
971.20	226.71
971.49	226.68
971.79	226.63
972.08	226.21
972.38	226.21
972.67	226.16
972.96	226.25
973.26	226.18
973.55	226.28
973.85	226.29
974.14	226.27
974.43	226.23
974.73	226.16
975.02	226.15
975.31	226.11
975.61	226.03
975.90	226.03
976.19	225.93
976.49	225.90
976.78	225.93
977.07	225.85
977.37	225.85
977.66	225.92
977.95	225.94
978.24	225.98
978.54	226.05
978.83	226.08
979.12	225.98
979.42	225.96
979.71	225.91
980.00	225.83
980.29	225.80
980.59	225.73
980.88	225.77
981.17	225.73
981.46	225.74
981.76	225.78
982.05	225.85
982.34	225.92
982.63	225.93
982.93	225.96
983.22	226.11
983.51	226.12
983.80	226.18
984.09	226.20
984.39	226.23
984.68	226.18
984.97	226.18
985.26	226.16
985.55	226.18
985.85	226.06
986.14	226.15
986.43	226.22
986.72	226.27
987.01	226.16
987.30	226.21
987.59	226.18
987.89	226.16
988.18	226.00
988.47	226.00
988.76	226.02
989.05	225.94
989.34	225.86
989.63	225.93
989.92	225.87
990.22	225.82
990.51	225.82
990.80	225.81
991.09	225.85
991.38	225.92
991.67	225.85
991.96	225.87
992.25	225.81
992.54	225.69
992.83	225.65
993.12	225.61
993.41	225.74
993.70	225.93
993.99	226.03
994.28	226.21
994.58	226.28
994.87	226.23
995.16	226.26
995.45	226.29
995.74	226.18
996.03	226.25
996.32	226.33
996.61	226.36
996.90	226.31
997.19	226.26
997.48	226.22
997.77	226.27
998.06	226.25
998.34	226.26
998.63	226.32
998.92	226.39
999.21	226.51
999.50	226.48
999.79	226.31
1000.08	226.28
1000.37	226.23
1000.66	226.15
1000.95	226.26
1001.24	226.28
1001.53	226.24
1001.82	226.20
1002.11	226.07
1002.40	226.11
1002.68	226.27
1002.97	226.68
1003.26	226.65
1003.55	226.63
1003.84	226.62
1004.13	226.82
1004.42	226.87
1004.71	226.88
1004.99	226.73
1005.28	226.85
1005.57	226.80
1005.86	226.75
1006.15	226.72
1006.44	226.67
1006.72	226.70
1007.01	226.62
1007.30	226.66
1007.59	226.69
1007.88	226.75
1008.17	226.74
1008.45	226.63
1008.74	226.40
1009.03	226.19
1009.32	226.15
1009.60	226.14
1009.89	226.08
1010.18	225.87
1010.47	225.82
1010.76	225.81
1011.04	225.90
1011.33	225.85
1011.62	225.85
1011.91	225.92
1012.19	226.00
1012.48	225.97
1012.77	226.00
1013.05	226.21
1013.34	226.13
1013.63	226.07
1013.92	226.12
1014.20	226.19
1014.49	226.26
1014.78	226.40
1015.06	226.17
1015.35	226.17
1015.64	226.24
1015.92	226.37
1016.21	226.49
1016.50	226.51
1016.78	226.54
1017.07	226.53
1017.36	226.40
1017.64	226.33
1017.93	226.41
1018.22	226.26
1018.50	226.27
1018.79	226.31
1019.08	226.07
1019.36	226.21
1019.65	226.20
1019.93	226.27
1020.22	226.26
1020.51	226.38
1020.79	226.25
1021.08	224.10
1021.36	225.05
1021.65	227.45
1021.94	225.65
1022.22	227.85
1022.51	225.25
1022.79	228.35
1023.08	226.10
1023.36	230.05
1023.65	225.00
>>>>>End Processed Spectral Data<<<<<
