SpectraSuite Data File
++++++++++++++++++++++++++++++++++++
Date: Wed Sep 04 17:52:55 EDT 2013
User: lab3
Dark Spectrum Present: Yes
Reference Spectrum Present: No
Number of Sampled Component Spectra: 1
Spectrometers: USB2E7196
Integration Time (usec): 170000 (USB2E7196)
Spectra Averaged: 20 (USB2E7196)
Boxcar Smoothing: 10 (USB2E7196)
Correct for Electrical Dark: No (USB2E7196)
Strobe/Lamp Enabled: No (USB2E7196)
Correct for Detector Non-linearity: No (USB2E7196)
Correct for Stray Light: No (USB2E7196)
Number of Pixels in Processed Spectrum: 2048
>>>>>Begin Processed Spectral Data<<<<<
339.09	0.00
339.48	214.20
339.86	214.50
340.24	217.65
340.63	217.55
341.01	226.10
341.39	219.80
341.78	221.35
342.16	224.00
342.54	224.55
342.93	212.67
343.31	223.38
343.69	223.89
344.07	224.38
344.46	224.86
344.84	225.26
345.22	225.21
345.60	225.52
345.99	225.77
346.37	225.92
346.75	225.95
347.13	226.02
347.52	226.08
347.90	226.25
348.28	226.30
348.66	226.38
349.05	226.29
349.43	226.41
349.81	226.43
350.19	226.38
350.57	226.49
350.96	226.60
351.34	226.72
351.72	226.73
352.10	226.81
352.48	226.73
352.87	226.80
353.25	226.90
353.63	226.92
354.01	226.90
354.39	226.92
354.77	226.99
355.15	227.17
355.54	227.23
355.92	227.16
356.30	227.28
356.68	227.61
357.06	227.66
357.44	227.65
357.82	227.67
358.20	228.16
358.58	228.15
358.97	228.20
359.35	228.36
359.73	228.58
360.11	228.62
360.49	228.73
360.87	228.76
361.25	228.87
361.63	229.05
362.01	229.16
362.39	229.23
362.77	229.34
363.15	229.37
363.53	229.38
363.91	229.48
364.29	229.38
364.67	229.12
365.05	229.22
365.43	229.27
365.81	229.37
366.19	229.27
366.57	229.45
366.95	229.56
367.33	229.48
367.71	229.48
368.09	229.67
368.47	229.62
368.85	229.64
369.23	229.70
369.61	229.62
369.99	229.77
370.37	229.77
370.75	230.03
371.13	229.92
371.51	229.87
371.89	229.85
372.27	229.97
372.65	229.84
373.03	229.85
373.41	229.80
373.78	229.71
374.16	229.41
374.54	229.28
374.92	229.12
375.30	229.05
375.68	228.92
376.06	228.83
376.44	228.77
376.82	228.70
377.19	228.61
377.57	228.50
377.95	228.23
378.33	228.10
378.71	227.74
379.09	227.73
379.47	227.74
379.84	227.62
380.22	227.46
380.60	227.29
380.98	227.10
381.36	227.05
381.73	226.92
382.11	226.96
382.49	226.95
382.87	226.79
383.25	226.70
383.62	227.16
384.00	227.01
384.38	227.00
384.76	227.00
385.13	227.10
385.51	227.05
385.89	226.94
386.27	226.96
386.64	226.98
387.02	226.81
387.40	226.68
387.78	226.64
388.15	226.60
388.53	226.58
388.91	226.59
389.29	226.53
389.66	226.60
390.04	226.53
390.42	226.45
390.79	226.51
391.17	226.51
391.55	225.98
391.92	225.97
392.30	225.96
392.68	225.87
393.05	225.86
393.43	225.88
393.81	225.95
394.18	225.84
394.56	225.83
394.94	225.99
395.31	226.01
395.69	226.21
396.06	226.33
396.44	226.41
396.82	226.42
397.19	226.67
397.57	226.70
397.95	226.86
398.32	226.84
398.70	226.92
399.07	227.10
399.45	227.15
399.82	227.22
400.20	227.31
400.58	227.40
400.95	227.30
401.33	227.43
401.70	227.94
402.08	228.10
402.45	228.21
402.83	228.47
403.20	228.67
403.58	228.77
403.95	229.00
404.33	229.29
404.71	229.53
405.08	229.97
405.46	230.20
405.83	230.42
406.21	230.69
406.58	230.97
406.96	231.25
407.33	231.61
407.70	232.00
408.08	232.75
408.45	233.20
408.83	233.70
409.20	234.12
409.58	234.28
409.95	234.87
410.33	235.46
410.70	235.85
411.08	236.50
411.45	237.06
411.82	237.55
412.20	238.35
412.57	239.29
412.95	239.66
413.32	240.51
413.69	241.28
414.07	242.28
414.44	243.22
414.82	244.21
415.19	245.45
415.56	246.62
415.94	247.66
416.31	249.16
416.68	250.53
417.06	252.12
417.43	253.70
417.81	255.44
418.18	257.23
418.55	259.08
418.93	261.06
419.30	263.16
419.67	265.41
420.04	267.66
420.42	270.01
420.79	272.94
421.16	275.69
421.54	278.76
421.91	281.73
422.28	284.80
422.66	288.14
423.03	291.52
423.40	294.90
423.77	298.30
424.15	301.80
424.52	305.64
424.89	309.93
425.26	313.85
425.64	317.53
426.01	321.72
426.38	326.06
426.75	330.60
427.13	335.11
427.50	339.83
427.87	344.63
428.24	349.46
428.61	354.01
428.99	359.31
429.36	364.70
429.73	370.03
430.10	375.54
430.47	381.00
430.85	386.52
431.22	392.55
431.59	399.38
431.96	405.62
432.33	412.42
432.70	418.91
433.08	426.82
433.45	434.31
433.82	441.65
434.19	449.78
434.56	457.76
434.93	465.43
435.30	473.19
435.68	481.74
436.05	490.10
436.42	498.50
436.79	506.16
437.16	514.51
437.53	523.30
437.90	532.00
438.27	540.66
438.64	549.56
439.01	557.90
439.38	565.08
439.75	572.19
440.13	580.23
440.50	587.81
440.87	593.84
441.24	600.11
441.61	606.95
441.98	612.17
442.35	617.82
442.72	623.86
443.09	629.64
443.46	633.01
443.83	635.26
444.20	637.14
444.57	639.86
444.94	641.03
445.31	642.17
445.68	643.48
446.05	643.65
446.42	642.41
446.79	640.99
447.16	639.27
447.53	637.95
447.90	634.24
448.27	630.53
448.64	625.67
449.01	622.17
449.37	616.19
449.74	610.19
450.11	603.63
450.48	595.88
450.85	587.99
451.22	581.23
451.59	574.76
451.96	568.49
452.33	560.32
452.70	552.90
453.07	544.29
453.43	535.31
453.80	527.05
454.17	519.00
454.54	511.34
454.91	503.36
455.28	495.28
455.65	487.88
456.02	481.08
456.38	474.80
456.75	466.95
457.12	460.38
457.49	454.09
457.86	447.65
458.23	442.62
458.59	436.96
458.96	431.15
459.33	426.02
459.70	421.00
460.07	416.92
460.43	412.22
460.80	408.11
461.17	404.36
461.54	400.31
461.91	396.58
462.27	392.73
462.64	389.43
463.01	386.05
463.38	382.83
463.74	378.87
464.11	375.85
464.48	373.23
464.85	370.40
465.21	368.30
465.58	366.06
465.95	363.11
466.32	360.92
466.68	358.77
467.05	356.66
467.42	354.45
467.78	352.30
468.15	350.20
468.52	348.55
468.88	346.31
469.25	344.54
469.62	343.08
469.98	341.44
470.35	339.89
470.72	338.48
471.08	336.80
471.45	335.55
471.82	334.27
472.18	332.82
472.55	331.81
472.92	330.41
473.28	329.20
473.65	328.15
474.02	326.91
474.38	326.04
474.75	325.25
475.11	324.29
475.48	323.57
475.85	322.97
476.21	322.21
476.58	321.79
476.94	321.30
477.31	320.76
477.67	320.43
478.04	320.15
478.41	319.95
478.77	320.19
479.14	319.91
479.50	319.83
479.87	319.86
480.23	319.93
480.60	319.96
480.96	320.10
481.33	320.50
481.69	320.81
482.06	321.01
482.42	321.25
482.79	321.64
483.15	322.13
483.52	322.70
483.88	323.17
484.25	323.68
484.61	324.25
484.98	324.88
485.34	325.85
485.71	326.70
486.07	327.68
486.44	328.29
486.80	329.34
487.17	330.40
487.53	331.80
487.90	333.09
488.26	334.76
488.62	336.34
488.99	337.87
489.35	339.62
489.72	341.40
490.08	343.46
490.44	345.46
490.81	347.56
491.17	349.90
491.54	352.33
491.90	354.89
492.26	357.59
492.63	360.46
492.99	363.09
493.36	366.17
493.72	369.37
494.08	372.76
494.45	376.43
494.81	380.42
495.17	384.33
495.54	388.48
495.90	392.73
496.26	397.29
496.63	401.93
496.99	406.64
497.35	411.68
497.72	416.88
498.08	422.33
498.44	428.01
498.80	433.98
499.17	440.14
499.53	446.45
499.89	453.03
500.26	459.88
500.62	467.11
500.98	474.56
501.34	482.09
501.71	489.75
502.07	497.58
502.43	505.58
502.79	514.00
503.16	522.65
503.52	531.52
503.88	540.74
504.24	550.48
504.60	560.50
504.97	571.02
505.33	581.47
505.69	592.59
506.05	603.80
506.41	614.96
506.78	626.70
507.14	638.67
507.50	651.09
507.86	663.63
508.22	676.54
508.59	689.51
508.95	703.17
509.31	717.28
509.67	731.57
510.03	745.84
510.39	760.35
510.75	775.41
511.12	790.69
511.48	806.25
511.84	821.80
512.20	837.73
512.56	853.78
512.92	870.56
513.28	887.41
513.64	904.52
514.00	921.71
514.37	939.53
514.73	957.55
515.09	975.61
515.45	993.89
515.81	1012.13
516.17	1031.02
516.53	1049.54
516.89	1068.09
517.25	1087.30
517.61	1107.54
517.97	1127.81
518.33	1147.88
518.69	1168.13
519.05	1188.53
519.41	1209.29
519.77	1230.26
520.13	1251.17
520.49	1271.78
520.85	1294.03
521.21	1315.00
521.57	1336.40
521.93	1356.86
522.29	1377.91
522.65	1398.33
523.01	1419.25
523.37	1439.86
523.73	1460.73
524.09	1481.47
524.45	1501.96
524.81	1522.62
525.17	1543.07
525.53	1563.61
525.89	1584.30
526.25	1605.22
526.61	1625.51
526.97	1646.40
527.33	1667.38
527.68	1688.82
528.04	1709.88
528.40	1729.40
528.76	1750.33
529.12	1770.78
529.48	1791.69
529.84	1811.58
530.20	1832.71
530.56	1853.28
530.91	1874.30
531.27	1894.53
531.63	1914.85
531.99	1935.77
532.35	1955.75
532.71	1975.95
533.07	1996.32
533.42	2016.05
533.78	2035.59
534.14	2055.19
534.50	2073.75
534.86	2092.91
535.21	2110.37
535.57	2128.54
535.93	2146.00
536.29	2163.60
536.65	2181.88
537.00	2199.08
537.36	2216.63
537.72	2233.27
538.08	2250.41
538.44	2266.86
538.79	2283.08
539.15	2299.50
539.51	2315.25
539.87	2330.33
540.22	2344.24
540.58	2358.70
540.94	2372.11
541.29	2384.85
541.65	2397.58
542.01	2410.21
542.37	2420.56
542.72	2431.41
543.08	2442.19
543.44	2454.10
543.79	2464.07
544.15	2473.76
544.51	2483.92
544.87	2493.46
545.22	2502.00
545.58	2509.66
545.94	2516.65
546.29	2522.89
546.65	2529.02
547.01	2534.94
547.36	2540.61
547.72	2545.87
548.07	2549.77
548.43	2555.11
548.79	2559.43
549.14	2563.39
549.50	2567.22
549.86	2571.34
550.21	2574.94
550.57	2578.09
550.92	2579.15
551.28	2580.35
551.64	2582.39
551.99	2583.74
552.35	2585.21
552.70	2587.18
553.06	2589.14
553.41	2590.52
553.77	2592.37
554.13	2593.88
554.48	2594.90
554.84	2596.01
555.19	2597.12
555.55	2598.47
555.90	2597.35
556.26	2596.46
556.61	2595.01
556.97	2592.98
557.32	2592.39
557.68	2591.37
558.03	2590.10
558.39	2588.62
558.74	2587.87
559.10	2584.22
559.45	2580.91
559.81	2576.53
560.16	2571.37
560.52	2566.14
560.87	2561.77
561.23	2556.63
561.58	2550.96
561.94	2544.18
562.29	2537.07
562.64	2530.01
563.00	2521.84
563.35	2515.06
563.71	2508.48
564.06	2502.27
564.42	2495.74
564.77	2488.25
565.12	2480.54
565.48	2472.82
565.83	2464.90
566.19	2456.87
566.54	2449.19
566.89	2441.52
567.25	2433.69
567.60	2426.39
567.96	2418.61
568.31	2410.37
568.66	2401.78
569.02	2392.54
569.37	2384.50
569.72	2376.81
570.08	2367.75
570.43	2358.34
570.78	2349.75
571.14	2340.21
571.49	2329.81
571.84	2320.25
572.20	2309.79
572.55	2299.81
572.90	2289.02
573.26	2278.97
573.61	2268.17
573.96	2257.38
574.31	2245.10
574.67	2233.64
575.02	2221.21
575.37	2208.89
575.72	2195.75
576.08	2183.43
576.43	2170.98
576.78	2157.82
577.13	2144.12
577.49	2131.41
577.84	2119.61
578.19	2107.30
578.54	2094.91
578.90	2083.31
579.25	2070.65
579.60	2058.21
579.95	2045.55
580.30	2032.43
580.66	2019.06
581.01	2005.08
581.36	1991.05
581.71	1978.35
582.06	1965.35
582.42	1952.80
582.77	1940.02
583.12	1928.28
583.47	1916.25
583.82	1904.53
584.17	1892.36
584.53	1880.74
584.88	1867.74
585.23	1854.65
585.58	1840.54
585.93	1827.55
586.28	1814.05
586.63	1800.43
586.98	1786.30
587.34	1773.02
587.69	1759.95
588.04	1747.20
588.39	1735.50
588.74	1723.52
589.09	1711.75
589.44	1699.17
589.79	1686.86
590.14	1675.23
590.49	1663.34
590.84	1651.13
591.19	1639.00
591.54	1626.79
591.89	1614.64
592.25	1604.57
592.60	1593.25
592.95	1582.06
593.30	1569.95
593.65	1557.97
594.00	1546.12
594.35	1536.44
594.70	1524.74
595.05	1513.22
595.40	1501.11
595.75	1489.29
596.10	1477.85
596.45	1466.31
596.80	1455.51
597.15	1444.31
597.50	1432.55
597.85	1420.96
598.19	1409.46
598.54	1397.85
598.89	1386.68
599.24	1376.17
599.59	1364.60
599.94	1353.87
600.29	1343.42
600.64	1333.34
600.99	1322.69
601.34	1313.15
601.69	1302.04
602.04	1292.23
602.39	1282.84
602.74	1273.91
603.08	1264.49
603.43	1255.31
603.78	1245.61
604.13	1236.00
604.48	1226.36
604.83	1216.53
605.18	1206.75
605.53	1197.17
605.87	1188.02
606.22	1179.66
606.57	1170.32
606.92	1160.76
607.27	1151.79
607.62	1143.28
607.96	1134.61
608.31	1126.76
608.66	1118.13
609.01	1109.67
609.36	1101.22
609.70	1092.41
610.05	1083.77
610.40	1075.46
610.75	1066.85
611.10	1058.62
611.44	1049.90
611.79	1042.04
612.14	1034.28
612.49	1026.47
612.83	1019.09
613.18	1011.33
613.53	1003.46
613.88	995.70
614.22	988.30
614.57	980.38
614.92	972.35
615.27	964.75
615.61	957.11
615.96	949.85
616.31	942.38
616.65	935.30
617.00	928.01
617.35	920.85
617.70	913.59
618.04	906.61
618.39	899.55
618.74	893.34
619.08	886.50
619.43	879.62
619.78	872.84
620.12	865.87
620.47	859.00
620.82	852.05
621.16	845.13
621.51	838.82
621.85	832.72
622.20	826.09
622.55	819.79
622.89	813.31
623.24	806.80
623.59	800.42
623.93	794.17
624.28	788.31
624.62	782.79
624.97	777.12
625.32	771.36
625.66	765.52
626.01	759.30
626.35	753.51
626.70	747.88
627.04	742.46
627.39	736.91
627.73	731.70
628.08	726.57
628.43	721.29
628.77	715.83
629.12	710.53
629.46	705.85
629.81	701.02
630.15	696.26
630.50	691.38
630.84	686.60
631.19	681.61
631.53	676.84
631.88	671.56
632.22	666.56
632.57	661.99
632.91	657.38
633.26	653.25
633.60	648.76
633.95	644.13
634.29	639.37
634.64	634.96
634.98	630.26
635.32	625.90
635.67	622.00
636.01	617.86
636.36	613.35
636.70	609.39
637.05	605.30
637.39	601.31
637.73	597.20
638.08	593.30
638.42	589.17
638.77	584.92
639.11	580.67
639.45	576.39
639.80	572.10
640.14	568.10
640.49	563.95
640.83	560.10
641.17	556.61
641.52	552.90
641.86	549.23
642.20	546.12
642.55	542.51
642.89	538.82
643.23	535.39
643.58	532.36
643.92	528.63
644.26	525.23
644.61	521.95
644.95	518.80
645.29	515.30
645.64	512.32
645.98	509.29
646.32	506.43
646.66	503.35
647.01	500.43
647.35	497.62
647.69	494.83
648.04	492.12
648.38	489.18
648.72	486.39
649.06	483.46
649.41	480.32
649.75	477.24
650.09	474.41
650.43	471.46
650.78	468.36
651.12	465.56
651.46	462.79
651.80	460.05
652.14	457.38
652.49	455.05
652.83	452.31
653.17	449.67
653.51	446.89
653.85	444.57
654.20	442.19
654.54	439.71
654.88	437.17
655.22	434.95
655.56	432.59
655.90	430.21
656.25	427.91
656.59	425.72
656.93	423.65
657.27	421.58
657.61	419.22
657.95	417.09
658.29	414.97
658.64	412.81
658.98	410.51
659.32	408.15
659.66	405.90
660.00	403.99
660.34	401.96
660.68	400.07
661.02	398.10
661.36	396.12
661.70	394.03
662.05	392.10
662.39	390.03
662.73	388.24
663.07	386.75
663.41	385.03
663.75	383.03
664.09	381.19
664.43	379.15
664.77	377.62
665.11	375.88
665.45	374.15
665.79	372.54
666.13	370.84
666.47	369.26
666.81	367.56
667.15	365.79
667.49	364.33
667.83	362.92
668.17	361.40
668.51	359.91
668.85	358.67
669.19	357.45
669.53	355.90
669.87	354.29
670.21	352.73
670.55	351.22
670.89	350.23
671.23	348.85
671.57	347.52
671.91	346.10
672.25	344.77
672.58	343.55
672.92	342.12
673.26	340.95
673.60	339.80
673.94	338.61
674.28	337.55
674.62	336.38
674.96	335.12
675.30	333.88
675.64	332.73
675.97	331.44
676.31	330.12
676.65	328.92
676.99	327.98
677.33	326.73
677.67	325.72
678.01	324.30
678.34	323.40
678.68	322.45
679.02	321.40
679.36	320.41
679.70	319.37
680.04	318.37
680.37	317.43
680.71	316.44
681.05	315.56
681.39	314.53
681.73	313.47
682.06	312.57
682.40	311.74
682.74	310.79
683.08	310.10
683.42	309.23
683.75	308.44
684.09	307.46
684.43	306.76
684.77	305.88
685.10	305.20
685.44	304.24
685.78	303.43
686.12	302.63
686.45	301.91
686.79	301.09
687.13	300.48
687.46	299.73
687.80	299.15
688.14	298.37
688.48	297.69
688.81	297.05
689.15	296.47
689.49	295.71
689.82	295.08
690.16	294.16
690.50	293.42
690.83	292.73
691.17	292.19
691.51	291.56
691.84	291.07
692.18	290.37
692.52	289.71
692.85	289.14
693.19	288.82
693.52	288.17
693.86	287.55
694.20	286.94
694.53	286.31
694.87	285.59
695.21	284.86
695.54	284.29
695.88	283.56
696.21	282.70
696.55	282.20
696.88	281.50
697.22	280.90
697.56	280.38
697.89	279.80
698.23	279.17
698.56	278.51
698.90	277.97
699.23	277.42
699.57	276.98
699.90	276.41
700.24	275.73
700.58	275.33
700.91	274.89
701.25	274.72
701.58	274.54
701.92	274.11
702.25	273.84
702.59	273.30
702.92	272.95
703.26	272.61
703.59	272.14
703.93	272.22
704.26	271.90
704.60	271.53
704.93	271.11
705.26	270.65
705.60	270.35
705.93	269.80
706.27	269.51
706.60	269.24
706.94	269.08
707.27	268.64
707.61	268.26
707.94	267.90
708.27	267.18
708.61	266.50
708.94	266.16
709.28	265.73
709.61	265.39
709.94	265.01
710.28	264.71
710.61	264.34
710.95	263.54
711.28	263.45
711.61	263.04
711.95	262.78
712.28	262.44
712.61	261.95
712.95	261.83
713.28	261.68
713.61	261.20
713.95	260.59
714.28	260.21
714.61	259.69
714.95	259.32
715.28	258.94
715.61	258.60
715.95	258.29
716.28	257.91
716.61	257.65
716.95	257.23
717.28	256.90
717.61	256.52
717.94	256.24
718.28	255.63
718.61	255.26
718.94	254.94
719.27	254.68
719.61	254.54
719.94	254.10
720.27	253.63
720.60	253.35
720.94	253.20
721.27	253.01
721.60	252.86
721.93	252.64
722.27	252.57
722.60	252.41
722.93	252.12
723.26	252.01
723.59	251.81
723.93	251.66
724.26	251.42
724.59	251.29
724.92	251.07
725.25	251.01
725.59	250.84
725.92	250.62
726.25	250.40
726.58	250.20
726.91	250.00
727.24	249.86
727.57	249.66
727.91	249.40
728.24	249.30
728.57	249.13
728.90	248.98
729.23	248.62
729.56	248.65
729.89	248.45
730.22	248.16
730.55	247.91
730.89	247.77
731.22	247.67
731.55	247.44
731.88	247.30
732.21	247.03
732.54	246.72
732.87	246.59
733.20	246.47
733.53	246.35
733.86	246.27
734.19	246.00
734.52	245.97
734.85	246.13
735.18	245.86
735.51	245.89
735.84	245.80
736.17	245.75
736.50	245.30
736.83	245.74
737.16	245.62
737.49	245.53
737.82	245.40
738.15	245.30
738.48	245.20
738.81	245.00
739.14	244.83
739.47	244.81
739.80	244.58
740.13	244.39
740.46	244.16
740.79	243.94
741.12	243.80
741.45	243.61
741.78	243.19
742.11	243.22
742.44	242.99
742.77	242.89
743.10	242.70
743.43	242.55
743.75	241.87
744.08	242.36
744.41	242.20
744.74	241.96
745.07	241.66
745.40	241.55
745.73	241.64
746.06	241.47
746.39	241.43
746.71	241.31
747.04	241.23
747.37	241.03
747.70	240.97
748.03	240.86
748.36	240.79
748.68	240.64
749.01	240.39
749.34	240.22
749.67	240.10
750.00	240.03
750.33	240.34
750.65	240.26
750.98	239.48
751.31	239.40
751.64	239.30
751.97	239.47
752.29	239.34
752.62	239.03
752.95	238.95
753.28	238.77
753.60	238.64
753.93	238.63
754.26	238.60
754.59	238.34
754.91	238.20
755.24	237.99
755.57	237.90
755.90	237.76
756.22	237.60
756.55	237.38
756.88	237.22
757.20	236.82
757.53	236.64
757.86	236.63
758.19	236.52
758.51	236.48
758.84	236.16
759.17	235.96
759.49	235.92
759.82	236.06
760.15	236.00
760.47	235.93
760.80	235.65
761.13	235.65
761.45	235.58
761.78	235.45
762.11	235.36
762.43	235.25
762.76	235.11
763.08	235.14
763.41	235.08
763.74	235.00
764.06	234.80
764.39	234.66
764.71	234.53
765.04	234.33
765.37	234.19
765.69	234.08
766.02	234.00
766.34	233.82
766.67	233.52
767.00	233.52
767.32	233.71
767.65	234.00
767.97	233.86
768.30	233.85
768.62	233.94
768.95	233.83
769.27	233.77
769.60	233.84
769.92	233.62
770.25	233.52
770.57	233.34
770.90	233.31
771.22	233.21
771.55	233.18
771.87	233.21
772.20	233.12
772.52	233.45
772.85	234.03
773.17	234.02
773.50	233.99
773.82	233.92
774.15	233.56
774.47	233.16
774.80	233.05
775.12	232.90
775.45	232.79
775.77	232.88
776.09	232.83
776.42	232.75
776.74	232.89
777.07	232.82
777.39	232.80
777.72	232.74
778.04	232.73
778.36	232.69
778.69	232.66
779.01	232.67
779.33	232.30
779.66	231.71
779.98	231.69
780.31	231.65
780.63	231.74
780.95	231.88
781.28	231.86
781.60	231.81
781.92	231.87
782.25	231.75
782.57	231.58
782.89	231.37
783.22	231.31
783.54	231.19
783.86	231.17
784.19	231.11
784.51	231.23
784.83	231.19
785.16	231.11
785.48	231.07
785.80	231.00
786.12	230.96
786.45	230.86
786.77	230.81
787.09	230.75
787.42	230.57
787.74	230.46
788.06	230.44
788.38	230.37
788.71	230.27
789.03	230.29
789.35	230.37
789.67	230.39
789.99	230.37
790.32	230.24
790.64	230.23
790.96	230.64
791.28	230.44
791.61	230.38
791.93	230.39
792.25	230.34
792.57	230.68
792.89	230.57
793.21	230.61
793.54	230.54
793.86	230.36
794.18	230.34
794.50	230.25
794.82	230.14
795.14	230.17
795.47	230.18
795.79	230.17
796.11	230.02
796.43	229.98
796.75	229.94
797.07	230.03
797.39	229.98
797.71	229.60
798.04	229.60
798.36	229.62
798.68	229.54
799.00	229.57
799.32	229.28
799.64	229.38
799.96	229.31
800.28	229.35
800.60	229.40
800.92	229.40
801.24	229.37
801.56	229.55
801.89	229.45
802.21	229.52
802.53	229.36
802.85	229.45
803.17	229.65
803.49	229.54
803.81	229.45
804.13	229.45
804.45	229.37
804.77	229.45
805.09	229.39
805.41	229.32
805.73	229.22
806.05	229.11
806.37	228.98
806.69	228.96
807.01	228.94
807.33	228.94
807.65	228.77
807.97	228.97
808.28	228.79
808.60	228.82
808.92	228.71
809.24	228.98
809.56	228.86
809.88	228.67
810.20	228.72
810.52	228.73
810.84	228.57
811.16	228.52
811.48	228.51
811.80	228.69
812.12	228.73
812.43	228.83
812.75	228.84
813.07	228.91
813.39	228.92
813.71	228.84
814.03	228.80
814.35	228.83
814.67	228.64
814.98	228.60
815.30	228.61
815.62	228.54
815.94	228.25
816.26	228.52
816.58	228.43
816.89	228.50
817.21	228.40
817.53	228.54
817.85	228.51
818.17	228.46
818.48	228.31
818.80	228.33
819.12	228.14
819.44	228.06
819.76	227.95
820.07	228.02
820.39	227.99
820.71	228.04
821.03	228.05
821.34	227.97
821.66	228.03
821.98	228.03
822.30	228.02
822.61	228.32
822.93	228.00
823.25	228.06
823.57	227.99
823.88	228.15
824.20	228.06
824.52	228.25
824.83	228.20
825.15	228.12
825.47	228.10
825.79	228.21
826.10	228.11
826.42	228.08
826.74	228.02
827.05	228.04
827.37	228.01
827.69	227.95
828.00	228.04
828.32	228.01
828.64	227.95
828.95	228.22
829.27	228.06
829.58	228.14
829.90	228.14
830.22	228.24
830.53	228.08
830.85	228.08
831.17	227.89
831.48	227.82
831.80	227.82
832.11	227.80
832.43	227.73
832.75	227.83
833.06	228.14
833.38	228.06
833.69	228.08
834.01	228.11
834.32	228.08
834.64	228.04
834.96	228.07
835.27	228.00
835.59	227.85
835.90	227.79
836.22	227.70
836.53	227.64
836.85	227.50
837.16	227.97
837.48	227.93
837.79	228.09
838.11	228.07
838.42	228.11
838.74	228.11
839.05	228.08
839.37	228.06
839.68	227.79
840.00	227.80
840.31	227.83
840.63	227.79
840.94	227.70
841.26	227.58
841.57	227.52
841.88	227.63
842.20	227.52
842.51	227.48
842.83	227.49
843.14	227.92
843.46	227.90
843.77	227.63
844.08	227.62
844.40	227.46
844.71	227.42
845.03	227.33
845.34	227.27
845.65	227.23
845.97	227.15
846.28	227.09
846.60	227.01
846.91	226.89
847.22	226.87
847.54	227.12
847.85	227.17
848.16	227.11
848.48	227.05
848.79	227.19
849.10	227.19
849.42	227.20
849.73	226.71
850.04	226.64
850.36	226.39
850.67	226.50
850.98	226.50
851.30	226.63
851.61	226.62
851.92	226.61
852.23	226.82
852.55	226.91
852.86	226.96
853.17	227.01
853.49	227.15
853.80	227.26
854.11	227.22
854.42	227.30
854.74	227.28
855.05	227.28
855.36	227.08
855.67	227.15
855.99	227.22
856.30	227.82
856.61	227.89
856.92	227.97
857.23	227.93
857.55	227.80
857.86	227.71
858.17	227.81
858.48	227.73
858.79	227.58
859.11	227.60
859.42	227.54
859.73	227.52
860.04	227.49
860.35	227.30
860.66	227.16
860.98	227.13
861.29	227.20
861.60	227.11
861.91	227.15
862.22	226.99
862.53	226.87
862.84	226.31
863.16	226.34
863.47	226.21
863.78	226.20
864.09	226.21
864.40	226.28
864.71	226.23
865.02	226.36
865.33	226.33
865.64	226.26
865.95	226.34
866.27	226.65
866.58	226.57
866.89	226.70
867.20	226.63
867.51	226.58
867.82	226.57
868.13	226.80
868.44	226.76
868.75	226.90
869.06	226.96
869.37	227.02
869.68	226.91
869.99	227.03
870.30	227.07
870.61	227.20
870.92	227.11
871.23	227.02
871.54	227.04
871.85	227.17
872.16	227.16
872.47	227.08
872.78	226.79
873.09	226.84
873.40	226.74
873.71	226.82
874.02	226.87
874.33	226.85
874.64	226.71
874.95	226.79
875.26	226.74
875.56	226.76
875.87	226.73
876.18	226.75
876.49	227.22
876.80	227.17
877.11	227.10
877.42	227.19
877.73	227.20
878.04	227.17
878.35	227.18
878.66	227.23
878.96	227.25
879.27	227.23
879.58	227.27
879.89	227.24
880.20	227.33
880.51	227.30
880.82	227.30
881.12	227.34
881.43	227.23
881.74	227.18
882.05	227.15
882.36	227.20
882.67	227.28
882.97	226.73
883.28	226.77
883.59	226.78
883.90	226.86
884.21	226.89
884.51	226.92
884.82	226.81
885.13	226.75
885.44	226.73
885.74	226.69
886.05	226.61
886.36	226.60
886.67	226.51
886.98	226.75
887.28	226.78
887.59	226.73
887.90	226.76
888.20	226.71
888.51	226.77
888.82	226.69
889.13	226.68
889.43	227.13
889.74	227.01
890.05	227.00
890.35	226.83
890.66	226.83
890.97	226.75
891.28	226.68
891.58	226.71
891.89	226.69
892.20	226.67
892.50	226.60
892.81	226.61
893.12	226.48
893.42	226.21
893.73	226.19
894.04	226.19
894.34	226.27
894.65	226.30
894.95	226.23
895.26	226.25
895.57	226.49
895.87	225.98
896.18	226.10
896.48	226.09
896.79	226.06
897.10	226.07
897.40	226.10
897.71	226.24
898.01	226.20
898.32	226.30
898.63	226.29
898.93	226.30
899.24	226.37
899.54	226.40
899.85	226.35
900.15	226.38
900.46	226.39
900.76	226.42
901.07	226.41
901.38	226.36
901.68	226.38
901.99	226.14
902.29	226.21
902.60	226.15
902.90	226.18
903.21	226.23
903.51	226.22
903.82	226.28
904.12	226.20
904.43	226.24
904.73	226.23
905.03	226.30
905.34	226.80
905.64	226.69
905.95	226.71
906.25	226.74
906.56	226.67
906.86	226.66
907.17	226.61
907.47	226.62
907.77	226.59
908.08	226.53
908.38	226.55
908.69	226.60
908.99	226.71
909.30	226.72
909.60	226.71
909.90	226.81
910.21	226.65
910.51	226.59
910.81	226.58
911.12	226.56
911.42	226.54
911.73	226.06
912.03	226.15
912.33	226.24
912.64	226.24
912.94	226.17
913.24	226.12
913.55	225.98
913.85	225.97
914.15	226.10
914.46	226.15
914.76	226.12
915.06	226.08
915.37	225.99
915.67	225.95
915.97	226.02
916.27	225.88
916.58	225.88
916.88	225.87
917.18	225.84
917.49	226.22
917.79	226.16
918.09	226.22
918.39	226.34
918.70	226.29
919.00	226.25
919.30	226.51
919.60	226.52
919.91	226.56
920.21	226.60
920.51	226.46
920.81	226.40
921.12	226.45
921.42	226.45
921.72	226.47
922.02	226.50
922.32	226.49
922.63	226.49
922.93	226.81
923.23	226.88
923.53	226.84
923.83	226.48
924.13	226.55
924.44	226.53
924.74	226.64
925.04	226.73
925.34	226.77
925.64	226.57
925.94	226.51
926.24	226.82
926.55	226.76
926.85	226.89
927.15	226.88
927.45	226.82
927.75	226.84
928.05	226.87
928.35	226.83
928.65	226.94
928.95	226.96
929.26	226.79
929.56	226.85
929.86	226.90
930.16	226.93
930.46	226.95
930.76	227.06
931.06	226.75
931.36	226.64
931.66	226.83
931.96	226.91
932.26	226.99
932.56	226.72
932.86	226.75
933.16	226.75
933.46	226.73
933.76	226.66
934.06	226.78
934.36	226.91
934.66	226.93
934.96	226.81
935.26	226.85
935.56	226.85
935.86	226.72
936.16	226.73
936.46	226.68
936.76	226.69
937.06	226.58
937.36	226.65
937.66	226.73
937.96	226.61
938.26	226.55
938.56	226.55
938.86	226.62
939.16	226.76
939.46	226.75
939.76	226.80
940.06	226.89
940.35	226.72
940.65	226.47
940.95	226.57
941.25	226.55
941.55	226.48
941.85	226.44
942.15	226.60
942.45	226.74
942.75	226.70
943.04	226.70
943.34	226.75
943.64	226.68
943.94	226.58
944.24	226.59
944.54	226.60
944.84	226.55
945.13	226.48
945.43	226.40
945.73	226.39
946.03	226.35
946.33	226.17
946.62	226.20
946.92	226.28
947.22	226.25
947.52	226.31
947.82	226.29
948.11	226.27
948.41	226.16
948.71	226.06
949.01	226.17
949.31	226.04
949.60	226.05
949.90	226.26
950.20	226.22
950.50	226.21
950.79	226.10
951.09	226.27
951.39	226.26
951.69	226.20
951.98	226.29
952.28	226.28
952.58	226.42
952.87	226.36
953.17	226.37
953.47	226.32
953.76	226.22
954.06	226.23
954.36	226.19
954.66	226.23
954.95	226.28
955.25	226.25
955.55	226.35
955.84	226.30
956.14	226.23
956.44	226.26
956.73	226.12
957.03	226.24
957.32	226.12
957.62	226.09
957.92	226.16
958.21	226.05
958.51	226.57
958.81	226.60
959.10	226.66
959.40	226.75
959.69	226.74
959.99	226.80
960.29	226.80
960.58	226.78
960.88	226.88
961.17	226.80
961.47	226.81
961.76	226.74
962.06	226.85
962.36	226.77
962.65	226.82
962.95	226.92
963.24	226.85
963.54	226.85
963.83	226.84
964.13	226.82
964.42	226.74
964.72	226.38
965.01	226.37
965.31	226.40
965.60	226.31
965.90	226.66
966.19	226.62
966.49	226.58
966.78	226.56
967.08	226.55
967.37	226.61
967.67	226.51
967.96	226.58
968.26	226.47
968.55	226.51
968.85	226.43
969.14	226.36
969.43	226.34
969.73	226.34
970.02	226.38
970.32	226.32
970.61	226.34
970.91	226.24
971.20	226.17
971.49	226.11
971.79	226.13
972.08	225.72
972.38	225.72
972.67	225.80
972.96	225.90
973.26	225.72
973.55	225.86
973.85	225.88
974.14	225.85
974.43	225.96
974.73	225.92
975.02	225.93
975.31	225.96
975.61	225.92
975.90	225.93
976.19	225.89
976.49	225.95
976.78	225.91
977.07	225.89
977.37	225.99
977.66	226.08
977.95	226.04
978.24	226.14
978.54	226.28
978.83	226.23
979.12	226.13
979.42	226.18
979.71	226.07
980.00	226.09
980.29	226.14
980.59	226.02
980.88	226.17
981.17	226.18
981.46	226.19
981.76	226.30
982.05	226.43
982.34	226.47
982.63	226.53
982.93	226.57
983.22	226.70
983.51	226.68
983.80	226.65
984.09	226.65
984.39	226.61
984.68	226.47
984.97	226.55
985.26	226.59
985.55	226.68
985.85	226.65
986.14	226.73
986.43	226.74
986.72	226.76
987.01	226.59
987.30	226.58
987.59	226.58
987.89	226.57
988.18	226.38
988.47	226.31
988.76	226.20
989.05	226.13
989.34	226.04
989.63	226.14
989.92	226.12
990.22	226.13
990.51	226.11
990.80	226.08
991.09	226.05
991.38	226.10
991.67	226.00
991.96	225.81
992.25	225.73
992.54	225.63
992.83	225.67
993.12	225.65
993.41	225.73
993.70	225.90
993.99	225.89
994.28	225.96
994.58	226.00
994.87	225.99
995.16	226.00
995.45	225.97
995.74	225.77
996.03	225.76
996.32	225.77
996.61	225.84
996.90	225.84
997.19	225.76
997.48	225.78
997.77	225.75
998.06	225.87
998.34	225.82
998.63	225.83
998.92	225.80
999.21	225.86
999.50	225.79
999.79	225.61
1000.08	225.59
1000.37	225.56
1000.66	225.61
1000.95	225.70
1001.24	225.75
1001.53	225.84
1001.82	225.84
1002.11	225.75
1002.40	225.78
1002.68	225.90
1002.97	226.26
1003.26	226.23
1003.55	226.10
1003.84	226.18
1004.13	226.34
1004.42	226.34
1004.71	226.35
1004.99	226.27
1005.28	226.33
1005.57	226.39
1005.86	226.35
1006.15	226.34
1006.44	226.27
1006.72	226.35
1007.01	226.30
1007.30	226.28
1007.59	226.20
1007.88	226.18
1008.17	226.19
1008.45	226.12
1008.74	225.95
1009.03	225.74
1009.32	225.75
1009.60	225.78
1009.89	225.70
1010.18	225.53
1010.47	225.54
1010.76	225.60
1011.04	225.60
1011.33	225.62
1011.62	225.73
1011.91	225.78
1012.19	225.81
1012.48	225.83
1012.77	225.75
1013.05	225.96
1013.34	226.05
1013.63	226.08
1013.92	226.20
1014.20	226.15
1014.49	226.25
1014.78	226.35
1015.06	226.17
1015.35	226.22
1015.64	226.31
1015.92	226.42
1016.21	226.45
1016.50	226.49
1016.78	226.50
1017.07	226.59
1017.36	226.46
1017.64	226.38
1017.93	226.44
1018.22	226.49
1018.50	226.55
1018.79	226.49
1019.08	226.32
1019.36	226.37
1019.65	226.35
1019.93	226.47
1020.22	226.60
1020.51	226.80
1020.79	226.75
1021.08	226.95
1021.36	226.00
1021.65	225.40
1021.94	226.95
1022.22	227.60
1022.51	226.10
1022.79	228.95
1023.08	226.90
1023.36	232.25
1023.65	226.05
>>>>>End Processed Spectral Data<<<<<
