SpectraSuite Data File
++++++++++++++++++++++++++++++++++++
Date: Wed Sep 04 17:58:29 EDT 2013
User: lab3
Dark Spectrum Present: Yes
Reference Spectrum Present: No
Number of Sampled Component Spectra: 1
Spectrometers: USB2E7196
Integration Time (usec): 170000 (USB2E7196)
Spectra Averaged: 20 (USB2E7196)
Boxcar Smoothing: 10 (USB2E7196)
Correct for Electrical Dark: No (USB2E7196)
Strobe/Lamp Enabled: No (USB2E7196)
Correct for Detector Non-linearity: No (USB2E7196)
Correct for Stray Light: No (USB2E7196)
Number of Pixels in Processed Spectrum: 2048
>>>>>Begin Processed Spectral Data<<<<<
339.09	0.00
339.48	212.25
339.86	215.65
340.24	216.95
340.63	217.55
341.01	225.45
341.39	220.80
341.78	222.50
342.16	223.90
342.54	224.35
342.93	212.57
343.31	223.28
343.69	223.90
344.07	224.32
344.46	224.73
344.84	225.18
345.22	225.21
345.60	225.52
345.99	225.74
346.37	225.90
346.75	225.98
347.13	226.07
347.52	226.20
347.90	226.48
348.28	226.49
348.66	226.65
349.05	226.49
349.43	226.64
349.81	226.70
350.19	226.76
350.57	226.85
350.96	226.98
351.34	227.11
351.72	227.12
352.10	227.21
352.48	227.24
352.87	227.22
353.25	227.27
353.63	227.30
354.01	227.25
354.39	227.26
354.77	227.33
355.15	227.49
355.54	227.47
355.92	227.32
356.30	227.43
356.68	227.71
357.06	227.83
357.44	227.78
357.82	227.88
358.20	228.41
358.58	228.42
358.97	228.53
359.35	228.66
359.73	228.88
360.11	228.93
360.49	229.07
360.87	229.12
361.25	229.23
361.63	229.46
362.01	229.60
362.39	229.58
362.77	229.72
363.15	229.74
363.53	229.69
363.91	229.77
364.29	229.73
364.67	229.40
365.05	229.40
365.43	229.52
365.81	229.56
366.19	229.37
366.57	229.59
366.95	229.55
367.33	229.44
367.71	229.49
368.09	229.51
368.47	229.51
368.85	229.54
369.23	229.58
369.61	229.35
369.99	229.47
370.37	229.56
370.75	229.67
371.13	229.52
371.51	229.56
371.89	229.62
372.27	229.61
372.65	229.60
373.03	229.57
373.41	229.40
373.78	229.36
374.16	229.10
374.54	228.93
374.92	228.82
375.30	228.83
375.68	228.57
376.06	228.57
376.44	228.47
376.82	228.49
377.19	228.42
377.57	228.39
377.95	228.20
378.33	228.07
378.71	227.74
379.09	227.79
379.47	227.71
379.84	227.58
380.22	227.45
380.60	227.31
380.98	227.21
381.36	227.21
381.73	227.06
382.11	227.08
382.49	226.98
382.87	226.94
383.25	226.81
383.62	227.33
384.00	227.23
384.38	227.18
384.76	227.14
385.13	227.27
385.51	227.20
385.89	227.09
386.27	227.10
386.64	227.16
387.02	227.09
387.40	227.07
387.78	227.10
388.15	227.17
388.53	227.11
388.91	227.09
389.29	227.03
389.66	227.16
390.04	227.07
390.42	227.13
390.79	227.07
391.17	227.14
391.55	226.64
391.92	226.62
392.30	226.75
392.68	226.68
393.05	226.61
393.43	226.65
393.81	226.68
394.18	226.63
394.56	226.64
394.94	226.75
395.31	226.69
395.69	226.83
396.06	226.88
396.44	226.91
396.82	226.95
397.19	227.29
397.57	227.25
397.95	227.36
398.32	227.34
398.70	227.50
399.07	227.68
399.45	227.74
399.82	227.84
400.20	227.86
400.58	227.89
400.95	227.85
401.33	228.03
401.70	228.53
402.08	228.66
402.45	228.86
402.83	229.11
403.20	229.30
403.58	229.38
403.95	229.66
404.33	229.93
404.71	230.17
405.08	230.66
405.46	230.85
405.83	231.07
406.21	231.39
406.58	231.65
406.96	231.86
407.33	232.19
407.70	232.61
408.08	233.28
408.45	233.77
408.83	234.22
409.20	234.56
409.58	234.64
409.95	235.18
410.33	235.59
410.70	235.96
411.08	236.58
411.45	237.27
411.82	237.82
412.20	238.65
412.57	239.61
412.95	239.88
413.32	240.84
413.69	241.71
414.07	242.50
414.44	243.44
414.82	244.44
415.19	245.66
415.56	246.81
415.94	247.80
416.31	249.28
416.68	250.66
417.06	252.30
417.43	253.93
417.81	255.73
418.18	257.62
418.55	259.44
418.93	261.52
419.30	263.44
419.67	265.67
420.04	267.87
420.42	270.11
420.79	273.15
421.16	275.87
421.54	278.93
421.91	282.07
422.28	285.14
422.66	288.43
423.03	291.81
423.40	295.17
423.77	298.80
424.15	302.38
424.52	306.21
424.89	310.47
425.26	314.41
425.64	318.22
426.01	322.45
426.38	326.95
426.75	331.56
427.13	336.11
427.50	340.94
427.87	345.89
428.24	350.85
428.61	355.35
428.99	360.68
429.36	366.19
429.73	371.65
430.10	377.22
430.47	383.09
430.85	388.75
431.22	395.08
431.59	401.78
431.96	408.07
432.33	415.00
432.70	421.58
433.08	429.52
433.45	436.93
433.82	444.26
434.19	452.47
434.56	460.57
434.93	468.39
435.30	476.06
435.68	484.85
436.05	493.39
436.42	501.85
436.79	509.75
437.16	518.00
437.53	526.87
437.90	535.67
438.27	544.25
438.64	553.32
439.01	561.62
439.38	568.87
439.75	576.07
440.13	584.29
440.50	591.94
440.87	597.99
441.24	604.41
441.61	611.50
441.98	616.55
442.35	622.29
442.72	628.27
443.09	634.10
443.46	637.31
443.83	639.57
444.20	641.34
444.57	644.06
444.94	645.25
445.31	646.44
445.68	647.68
446.05	647.84
446.42	646.40
446.79	644.95
447.16	643.36
447.53	642.06
447.90	638.21
448.27	634.43
448.64	629.60
449.01	625.76
449.37	619.56
449.74	613.45
450.11	606.75
450.48	599.15
450.85	591.05
451.22	584.12
451.59	577.47
451.96	571.31
452.33	563.01
452.70	555.59
453.07	546.79
453.43	537.73
453.80	529.21
454.17	521.20
454.54	513.44
454.91	505.27
455.28	497.17
455.65	489.60
456.02	482.72
456.38	476.29
456.75	468.57
457.12	462.02
457.49	455.82
457.86	449.27
458.23	443.92
458.59	438.28
458.96	432.59
459.33	427.48
459.70	422.33
460.07	418.02
460.43	413.32
460.80	408.97
461.17	405.28
461.54	401.24
461.91	397.37
462.27	393.49
462.64	390.09
463.01	386.55
463.38	383.39
463.74	379.35
464.11	376.40
464.48	373.75
464.85	370.87
465.21	368.67
465.58	366.39
465.95	363.67
466.32	361.50
466.68	359.25
467.05	357.00
467.42	354.78
467.78	352.71
468.15	350.58
468.52	349.02
468.88	346.76
469.25	344.85
469.62	343.43
469.98	341.67
470.35	340.18
470.72	338.77
471.08	337.05
471.45	335.85
471.82	334.58
472.18	333.25
472.55	332.17
472.92	330.85
473.28	329.63
473.65	328.50
474.02	327.31
474.38	326.35
474.75	325.57
475.11	324.67
475.48	323.96
475.85	323.36
476.21	322.67
476.58	322.18
476.94	321.92
477.31	321.38
477.67	320.99
478.04	320.70
478.41	320.55
478.77	320.81
479.14	320.46
479.50	320.35
479.87	320.24
480.23	320.31
480.60	320.38
480.96	320.41
481.33	320.86
481.69	321.19
482.06	321.49
482.42	321.79
482.79	322.18
483.15	322.55
483.52	323.18
483.88	323.68
484.25	324.25
484.61	324.77
484.98	325.47
485.34	326.49
485.71	327.43
486.07	328.39
486.44	328.98
486.80	330.16
487.17	331.30
487.53	332.77
487.90	334.18
488.26	335.80
488.62	337.58
488.99	338.99
489.35	340.70
489.72	342.53
490.08	344.52
490.44	346.55
490.81	348.77
491.17	350.85
491.54	353.38
491.90	355.99
492.26	358.73
492.63	361.48
492.99	364.36
493.36	367.36
493.72	370.57
494.08	374.13
494.45	377.87
494.81	381.83
495.17	385.66
495.54	389.87
495.90	394.05
496.26	398.42
496.63	403.05
496.99	407.95
497.35	413.07
497.72	418.24
498.08	423.76
498.44	429.42
498.80	435.48
499.17	441.45
499.53	447.70
499.89	454.41
500.26	461.27
500.62	468.18
500.98	475.81
501.34	483.32
501.71	490.90
502.07	498.70
502.43	506.81
502.79	515.19
503.16	523.99
503.52	533.14
503.88	542.37
504.24	552.16
504.60	562.23
504.97	572.59
505.33	583.24
505.69	594.32
506.05	605.28
506.41	616.59
506.78	628.41
507.14	640.53
507.50	652.79
507.86	665.62
508.22	678.64
508.59	691.47
508.95	705.04
509.31	719.33
509.67	733.67
510.03	748.05
510.39	763.03
510.75	777.97
511.12	793.13
511.48	809.03
511.84	824.67
512.20	840.66
512.56	856.91
512.92	873.51
513.28	890.44
513.64	907.98
514.00	925.67
514.37	943.35
514.73	961.40
515.09	979.60
515.45	997.91
515.81	1016.42
516.17	1035.43
516.53	1054.17
516.89	1072.85
517.25	1092.31
517.61	1112.30
517.97	1132.41
518.33	1152.66
518.69	1173.15
519.05	1193.49
519.41	1214.21
519.77	1235.25
520.13	1256.24
520.49	1277.24
520.85	1298.05
521.21	1319.22
521.57	1340.35
521.93	1361.06
522.29	1382.52
522.65	1403.26
523.01	1424.56
523.37	1445.53
523.73	1466.55
524.09	1487.32
524.45	1508.18
524.81	1529.22
525.17	1549.95
525.53	1570.85
525.89	1591.64
526.25	1612.51
526.61	1633.11
526.97	1654.20
527.33	1675.45
527.68	1697.15
528.04	1718.36
528.40	1739.67
528.76	1760.59
529.12	1781.12
529.48	1802.35
529.84	1822.41
530.20	1843.79
530.56	1864.42
530.91	1885.31
531.27	1905.77
531.63	1926.61
531.99	1947.42
532.35	1967.20
532.71	1987.91
533.07	2008.35
533.42	2028.10
533.78	2048.23
534.14	2068.24
534.50	2087.49
534.86	2106.95
535.21	2124.61
535.57	2143.18
535.93	2160.74
536.29	2178.94
536.65	2197.52
537.00	2215.05
537.36	2232.90
537.72	2249.70
538.08	2266.96
538.44	2283.96
538.79	2300.45
539.15	2316.88
539.51	2332.73
539.87	2348.10
540.22	2361.83
540.58	2376.34
540.94	2390.10
541.29	2402.51
541.65	2415.00
542.01	2427.78
542.37	2438.20
542.72	2449.49
543.08	2460.14
543.44	2472.02
543.79	2481.95
544.15	2491.57
544.51	2501.68
544.87	2511.33
545.22	2519.86
545.58	2527.21
545.94	2534.41
546.29	2541.17
546.65	2547.72
547.01	2553.45
547.36	2559.35
547.72	2564.85
548.07	2568.77
548.43	2573.97
548.79	2578.62
549.14	2582.85
549.50	2586.31
549.86	2590.54
550.21	2594.17
550.57	2597.85
550.92	2599.45
551.28	2600.80
551.64	2603.19
551.99	2604.90
552.35	2606.61
552.70	2608.73
553.06	2610.49
553.41	2611.50
553.77	2613.23
554.13	2614.46
554.48	2615.88
554.84	2617.16
555.19	2618.64
555.55	2620.38
555.90	2619.48
556.26	2619.00
556.61	2617.63
556.97	2615.95
557.32	2615.16
557.68	2613.95
558.03	2612.41
558.39	2611.05
558.74	2610.33
559.10	2607.13
559.45	2603.91
559.81	2599.18
560.16	2594.01
560.52	2589.63
560.87	2585.22
561.23	2579.50
561.58	2573.95
561.94	2567.10
562.29	2559.95
562.64	2553.46
563.00	2545.24
563.35	2538.89
563.71	2532.07
564.06	2526.05
564.42	2519.38
564.77	2512.34
565.12	2504.89
565.48	2497.26
565.83	2489.02
566.19	2481.05
566.54	2473.26
566.89	2464.89
567.25	2457.21
567.60	2450.33
567.96	2442.75
568.31	2434.91
568.66	2426.64
569.02	2417.50
569.37	2409.34
569.72	2401.36
570.08	2391.47
570.43	2381.93
570.78	2372.65
571.14	2363.20
571.49	2352.85
571.84	2343.10
572.20	2332.15
572.55	2322.08
572.90	2310.95
573.26	2301.01
573.61	2289.75
573.96	2278.65
574.31	2266.96
574.67	2255.14
575.02	2242.11
575.37	2229.45
575.72	2216.13
576.08	2203.98
576.43	2191.40
576.78	2178.20
577.13	2164.88
577.49	2152.14
577.84	2140.39
578.19	2128.36
578.54	2115.65
578.90	2103.64
579.25	2091.50
579.60	2079.33
579.95	2066.28
580.30	2053.17
580.66	2039.53
581.01	2025.99
581.36	2011.77
581.71	1999.23
582.06	1986.15
582.42	1973.74
582.77	1960.70
583.12	1948.74
583.47	1936.31
583.82	1924.27
584.17	1912.47
584.53	1900.32
584.88	1887.19
585.23	1873.89
585.58	1859.63
585.93	1846.61
586.28	1832.70
586.63	1818.51
586.98	1804.02
587.34	1790.77
587.69	1777.51
588.04	1764.87
588.39	1752.88
588.74	1740.84
589.09	1728.25
589.44	1715.41
589.79	1703.02
590.14	1691.55
590.49	1679.22
590.84	1667.04
591.19	1654.85
591.54	1642.60
591.89	1630.36
592.25	1620.50
592.60	1608.99
592.95	1597.62
593.30	1585.43
593.65	1573.60
594.00	1561.62
594.35	1551.83
594.70	1539.94
595.05	1528.44
595.40	1516.05
595.75	1503.61
596.10	1492.25
596.45	1480.72
596.80	1470.02
597.15	1458.64
597.50	1446.52
597.85	1435.00
598.19	1423.18
598.54	1411.48
598.89	1399.90
599.24	1389.31
599.59	1377.47
599.94	1366.69
600.29	1356.27
600.64	1346.18
600.99	1335.49
601.34	1325.67
601.69	1314.41
602.04	1304.44
602.39	1294.72
602.74	1285.85
603.08	1276.72
603.43	1267.29
603.78	1257.46
604.13	1247.73
604.48	1237.99
604.83	1228.15
605.18	1218.49
605.53	1208.96
605.87	1200.06
606.22	1191.52
606.57	1182.01
606.92	1172.41
607.27	1163.13
607.62	1154.33
607.96	1145.55
608.31	1137.82
608.66	1129.48
609.01	1120.91
609.36	1112.23
609.70	1103.65
610.05	1094.74
610.40	1086.12
610.75	1077.49
611.10	1069.20
611.44	1060.54
611.79	1052.31
612.14	1044.25
612.49	1036.32
612.83	1028.82
613.18	1020.67
613.53	1012.90
613.88	1004.93
614.22	997.11
614.57	989.20
614.92	981.33
615.27	973.61
615.61	965.80
615.96	958.24
616.31	950.72
616.65	943.65
617.00	936.21
617.35	929.18
617.70	921.94
618.04	914.72
618.39	907.91
618.74	901.50
619.08	894.72
619.43	887.75
619.78	880.65
620.12	873.53
620.47	866.62
620.82	859.30
621.16	852.42
621.51	846.11
621.85	839.86
622.20	833.05
622.55	826.41
622.89	819.78
623.24	813.28
623.59	806.78
623.93	800.44
624.28	794.41
624.62	788.57
624.97	782.67
625.32	777.04
625.66	770.86
626.01	764.49
626.35	758.75
626.70	753.07
627.04	747.76
627.39	742.13
627.73	736.84
628.08	731.73
628.43	726.44
628.77	721.09
629.12	715.83
629.46	710.92
629.81	706.12
630.15	701.38
630.50	696.35
630.84	691.60
631.19	686.80
631.53	682.23
631.88	676.81
632.22	671.98
632.57	667.31
632.91	662.66
633.26	658.33
633.60	653.63
633.95	649.03
634.29	644.12
634.64	639.72
634.98	634.86
635.32	630.49
635.67	626.45
636.01	622.13
636.36	617.70
636.70	613.74
637.05	609.47
637.39	605.18
637.73	601.21
638.08	597.20
638.42	592.95
638.77	588.45
639.11	584.19
639.45	579.92
639.80	575.47
640.14	571.40
640.49	567.42
640.83	563.61
641.17	560.02
641.52	556.37
641.86	552.75
642.20	549.60
642.55	545.92
642.89	542.25
643.23	538.80
643.58	535.61
643.92	531.90
644.26	528.48
644.61	525.22
644.95	521.93
645.29	518.36
645.64	515.26
645.98	512.27
646.32	509.30
646.66	506.20
647.01	503.27
647.35	500.44
647.69	497.43
648.04	494.56
648.38	491.61
648.72	488.74
649.06	485.70
649.41	482.80
649.75	479.74
650.09	476.68
650.43	473.81
650.78	470.84
651.12	467.99
651.46	465.24
651.80	462.36
652.14	459.55
652.49	457.07
652.83	454.45
653.17	451.78
653.51	449.10
653.85	446.68
654.20	444.10
654.54	441.58
654.88	439.06
655.22	436.84
655.56	434.40
655.90	432.07
656.25	429.79
656.59	427.34
656.93	425.12
657.27	423.10
657.61	420.64
657.95	418.45
658.29	416.24
658.64	414.19
658.98	412.00
659.32	409.76
659.66	407.53
660.00	405.36
660.34	403.16
660.68	401.14
661.02	399.06
661.36	397.13
661.70	395.09
662.05	393.12
662.39	391.04
662.73	389.23
663.07	387.56
663.41	385.69
663.75	383.85
664.09	382.12
664.43	380.22
664.77	378.56
665.11	376.71
665.45	375.11
665.79	373.37
666.13	371.67
666.47	370.00
666.81	368.39
667.15	366.69
667.49	365.22
667.83	363.88
668.17	362.36
668.51	360.90
668.85	359.53
669.19	358.43
669.53	356.84
669.87	355.27
670.21	353.71
670.55	352.37
670.89	351.25
671.23	349.85
671.57	348.40
671.91	347.07
672.25	345.81
672.58	344.54
672.92	343.09
673.26	341.87
673.60	340.68
673.94	339.50
674.28	338.33
674.62	337.29
674.96	336.01
675.30	334.85
675.64	333.68
675.97	332.53
676.31	331.05
676.65	329.81
676.99	328.84
677.33	327.71
677.67	326.58
678.01	325.17
678.34	324.13
678.68	323.30
679.02	322.34
679.36	321.26
679.70	320.22
680.04	319.36
680.37	318.38
680.71	317.38
681.05	316.48
681.39	315.68
681.73	314.61
682.06	313.76
682.40	312.84
682.74	311.88
683.08	311.17
683.42	310.34
683.75	309.65
684.09	308.71
684.43	307.99
684.77	307.13
685.10	306.40
685.44	305.56
685.78	304.64
686.12	303.85
686.45	303.03
686.79	302.15
687.13	301.40
687.46	300.70
687.80	300.03
688.14	299.22
688.48	298.39
688.81	297.60
689.15	296.88
689.49	296.08
689.82	295.51
690.16	294.51
690.50	293.84
690.83	293.09
691.17	292.33
691.51	291.61
691.84	290.93
692.18	290.17
692.52	289.50
692.85	288.82
693.19	288.40
693.52	287.80
693.86	287.19
694.20	286.57
694.53	285.94
694.87	285.23
695.21	284.55
695.54	283.92
695.88	283.32
696.21	282.60
696.55	282.04
696.88	281.34
697.22	280.75
697.56	280.20
697.89	279.59
698.23	279.06
698.56	278.49
698.90	278.03
699.23	277.44
699.57	276.82
699.90	276.17
700.24	275.40
700.58	275.00
700.91	274.56
701.25	274.36
701.58	274.15
701.92	273.84
702.25	273.40
702.59	272.80
702.92	272.39
703.26	271.94
703.59	271.55
703.93	271.56
704.26	271.15
704.60	270.73
704.93	270.34
705.26	269.90
705.60	269.55
705.93	269.06
706.27	268.85
706.60	268.65
706.94	268.53
707.27	268.09
707.61	267.64
707.94	267.23
708.27	266.49
708.61	265.74
708.94	265.32
709.28	264.96
709.61	264.75
709.94	264.29
710.28	263.92
710.61	263.56
710.95	262.69
711.28	262.69
711.61	262.34
711.95	262.12
712.28	261.70
712.61	261.34
712.95	261.20
713.28	261.07
713.61	260.65
713.95	260.27
714.28	259.98
714.61	259.60
714.95	259.29
715.28	258.92
715.61	258.65
715.95	258.30
716.28	257.96
716.61	257.60
716.95	257.32
717.28	257.11
717.61	256.81
717.94	256.63
718.28	256.01
718.61	255.65
718.94	255.31
719.27	255.04
719.61	254.70
719.94	254.40
720.27	253.92
720.60	253.66
720.94	253.34
721.27	253.16
721.60	252.99
721.93	252.72
722.27	252.77
722.60	252.59
722.93	252.25
723.26	252.11
723.59	251.88
723.93	251.69
724.26	251.50
724.59	251.21
724.92	250.98
725.25	250.90
725.59	250.78
725.92	250.60
726.25	250.44
726.58	250.27
726.91	250.02
727.24	249.90
727.57	249.67
727.91	249.33
728.24	249.15
728.57	248.88
728.90	248.74
729.23	248.35
729.56	248.44
729.89	248.31
730.22	248.06
730.55	247.88
730.89	247.84
731.22	247.59
731.55	247.45
731.88	247.29
732.21	247.00
732.54	246.75
732.87	246.54
733.20	246.36
733.53	246.25
733.86	246.06
734.19	245.82
734.52	245.73
734.85	245.93
735.18	245.70
735.51	245.76
735.84	245.68
736.17	245.60
736.50	245.15
736.83	245.53
737.16	245.31
737.49	245.20
737.82	244.99
738.15	244.89
738.48	244.77
738.81	244.58
739.14	244.33
739.47	244.15
739.80	244.01
740.13	243.97
740.46	243.72
740.79	243.48
741.12	243.26
741.45	243.08
741.78	242.73
742.11	242.68
742.44	242.40
742.77	242.31
743.10	242.16
743.43	241.96
743.75	241.38
744.08	241.87
744.41	241.67
744.74	241.50
745.07	241.28
745.40	241.19
745.73	241.20
746.06	241.19
746.39	241.12
746.71	240.96
747.04	240.80
747.37	240.62
747.70	240.62
748.03	240.57
748.36	240.54
748.68	240.32
749.01	240.07
749.34	240.02
749.67	239.93
750.00	239.80
750.33	240.08
750.65	239.98
750.98	239.38
751.31	239.31
751.64	239.17
751.97	239.31
752.29	239.18
752.62	238.95
752.95	238.71
753.28	238.56
753.60	238.47
753.93	238.37
754.26	238.33
754.59	238.09
754.91	237.88
755.24	237.69
755.57	237.67
755.90	237.54
756.22	237.36
756.55	237.15
756.88	237.04
757.20	236.63
757.53	236.37
757.86	236.17
758.19	236.19
758.51	236.20
758.84	235.89
759.17	235.73
759.49	235.64
759.82	235.90
760.15	235.85
760.47	235.74
760.80	235.64
761.13	235.57
761.45	235.48
761.78	235.42
762.11	235.39
762.43	235.24
762.76	235.22
763.08	235.19
763.41	235.18
763.74	235.09
764.06	235.02
764.39	235.03
764.71	234.99
765.04	234.77
765.37	234.55
765.69	234.50
766.02	234.46
766.34	234.39
766.67	234.07
767.00	234.09
767.32	234.24
767.65	234.46
767.97	234.44
768.30	234.42
768.62	234.33
768.95	234.16
769.27	234.09
769.60	234.11
769.92	233.96
770.25	233.76
770.57	233.60
770.90	233.48
771.22	233.35
771.55	233.36
771.87	233.34
772.20	233.22
772.52	233.54
772.85	234.07
773.17	234.04
773.50	234.01
773.82	233.87
774.15	233.55
774.47	233.20
774.80	233.09
775.12	233.02
775.45	232.93
775.77	232.91
776.09	232.88
776.42	232.79
776.74	232.90
777.07	232.85
777.39	232.87
777.72	232.82
778.04	232.88
778.36	232.68
778.69	232.68
779.01	232.75
779.33	232.31
779.66	231.66
779.98	231.59
780.31	231.56
780.63	231.70
780.95	231.79
781.28	231.71
781.60	231.55
781.92	231.45
782.25	231.50
782.57	231.44
782.89	231.41
783.22	231.22
783.54	230.99
783.86	230.99
784.19	230.94
784.51	231.03
784.83	230.88
785.16	230.83
785.48	230.70
785.80	230.67
786.12	230.73
786.45	230.74
786.77	230.66
787.09	230.55
787.42	230.40
787.74	230.41
788.06	230.43
788.38	230.45
788.71	230.41
789.03	230.34
789.35	230.38
789.67	230.21
789.99	230.31
790.32	230.30
790.64	230.34
790.96	230.69
791.28	230.57
791.61	230.56
791.93	230.58
792.25	230.55
792.57	230.80
792.89	230.54
793.21	230.54
793.54	230.45
793.86	230.35
794.18	230.26
794.50	230.13
794.82	230.03
795.14	230.04
795.47	230.15
795.79	230.12
796.11	230.00
796.43	230.09
796.75	230.04
797.07	230.01
797.39	229.96
797.71	229.58
798.04	229.49
798.36	229.45
798.68	229.42
799.00	229.38
799.32	229.12
799.64	229.29
799.96	229.25
800.28	229.44
800.60	229.46
800.92	229.57
801.24	229.52
801.56	229.52
801.89	229.47
802.21	229.49
802.53	229.40
802.85	229.54
803.17	229.70
803.49	229.65
803.81	229.65
804.13	229.64
804.45	229.56
804.77	229.62
805.09	229.56
805.41	229.53
805.73	229.50
806.05	229.43
806.37	229.37
806.69	229.32
807.01	229.20
807.33	229.26
807.65	229.01
807.97	229.20
808.28	229.19
808.60	229.12
808.92	229.02
809.24	229.35
809.56	229.16
809.88	229.01
810.20	229.01
810.52	229.10
810.84	229.00
811.16	228.88
811.48	228.81
811.80	229.03
812.12	229.01
812.43	229.19
812.75	229.12
813.07	229.10
813.39	229.14
813.71	229.10
814.03	229.01
814.35	229.07
814.67	228.86
814.98	228.83
815.30	228.86
815.62	228.74
815.94	228.39
816.26	228.65
816.58	228.51
816.89	228.54
817.21	228.37
817.53	228.35
817.85	228.41
818.17	228.38
818.48	228.20
818.80	228.29
819.12	228.13
819.44	228.12
819.76	228.00
820.07	227.94
820.39	227.85
820.71	227.82
821.03	227.75
821.34	227.70
821.66	227.75
821.98	227.77
822.30	227.80
822.61	228.07
822.93	227.86
823.25	227.90
823.57	227.80
823.88	227.97
824.20	227.97
824.52	228.04
824.83	227.98
825.15	227.98
825.47	227.87
825.79	227.84
826.10	227.84
826.42	227.83
826.74	227.81
827.05	227.84
827.37	227.97
827.69	227.97
828.00	228.10
828.32	228.08
828.64	228.04
828.95	228.20
829.27	228.04
829.58	228.00
829.90	228.13
830.22	228.09
830.53	228.01
830.85	227.92
831.17	227.83
831.48	227.85
831.80	227.81
832.11	227.80
832.43	227.78
832.75	227.70
833.06	227.94
833.38	227.82
833.69	227.80
834.01	227.72
834.32	227.69
834.64	227.61
834.96	227.65
835.27	227.66
835.59	227.63
835.90	227.59
836.22	227.66
836.53	227.54
836.85	227.58
837.16	227.97
837.48	228.03
837.79	228.15
838.11	228.16
838.42	228.20
838.74	228.30
839.05	228.25
839.37	228.22
839.68	228.04
840.00	228.05
840.31	228.16
840.63	228.10
840.94	228.11
841.26	228.00
841.57	227.88
841.88	227.96
842.20	227.85
842.51	227.76
842.83	227.62
843.14	227.99
843.46	227.98
843.77	227.71
844.08	227.70
844.40	227.54
844.71	227.55
845.03	227.43
845.34	227.42
845.65	227.43
845.97	227.51
846.28	227.51
846.60	227.59
846.91	227.43
847.22	227.48
847.54	227.61
847.85	227.66
848.16	227.66
848.48	227.54
848.79	227.75
849.10	227.81
849.42	227.95
849.73	227.46
850.04	227.45
850.36	227.29
850.67	227.39
850.98	227.45
851.30	227.49
851.61	227.58
851.92	227.57
852.23	227.73
852.55	227.73
852.86	227.74
853.17	227.81
853.49	228.02
853.80	228.12
854.11	228.10
854.42	228.23
854.74	228.23
855.05	228.32
855.36	228.07
855.67	228.11
855.99	228.09
856.30	228.74
856.61	228.82
856.92	228.87
857.23	228.86
857.55	228.82
857.86	228.74
858.17	228.85
858.48	228.76
858.79	228.69
859.11	228.77
859.42	228.71
859.73	228.57
860.04	228.52
860.35	228.30
860.66	228.17
860.98	228.14
861.29	228.20
861.60	228.12
861.91	228.27
862.22	228.19
862.53	228.11
862.84	227.55
863.16	227.67
863.47	227.57
863.78	227.49
864.09	227.60
864.40	227.73
864.71	227.64
865.02	227.66
865.33	227.55
865.64	227.45
865.95	227.50
866.27	227.72
866.58	227.61
866.89	227.71
867.20	227.67
867.51	227.57
867.82	227.51
868.13	227.61
868.44	227.44
868.75	227.53
869.06	227.56
869.37	227.62
869.68	227.39
869.99	227.55
870.30	227.59
870.61	227.53
870.92	227.39
871.23	227.32
871.54	227.43
871.85	227.56
872.16	227.58
872.47	227.47
872.78	227.29
873.09	227.33
873.40	227.29
873.71	227.38
874.02	227.38
874.33	227.39
874.64	227.22
874.95	227.26
875.26	227.17
875.56	227.11
875.87	227.07
876.18	227.02
876.49	227.41
876.80	227.31
877.11	227.17
877.42	227.25
877.73	227.27
878.04	227.29
878.35	227.24
878.66	227.30
878.96	227.31
879.27	227.30
879.58	227.30
879.89	227.26
880.20	227.35
880.51	227.25
880.82	227.21
881.12	227.32
881.43	227.21
881.74	227.09
882.05	227.02
882.36	227.00
882.67	227.05
882.97	226.45
883.28	226.40
883.59	226.38
883.90	226.37
884.21	226.44
884.51	226.22
884.82	226.16
885.13	226.12
885.44	226.11
885.74	226.08
886.05	226.04
886.36	226.02
886.67	225.83
886.98	226.10
887.28	226.12
887.59	226.07
887.90	226.15
888.20	226.17
888.51	226.27
888.82	226.14
889.13	226.17
889.43	226.62
889.74	226.64
890.05	226.65
890.35	226.59
890.66	226.51
890.97	226.56
891.28	226.57
891.58	226.59
891.89	226.60
892.20	226.52
892.50	226.39
892.81	226.49
893.12	226.46
893.42	226.28
893.73	226.28
894.04	226.30
894.34	226.33
894.65	226.31
894.95	226.27
895.26	226.38
895.57	226.58
895.87	226.13
896.18	226.26
896.48	226.29
896.79	226.36
897.10	226.42
897.40	226.44
897.71	226.44
898.01	226.35
898.32	226.40
898.63	226.47
898.93	226.63
899.24	226.55
899.54	226.61
899.85	226.60
900.15	226.61
900.46	226.63
900.76	226.70
901.07	226.75
901.38	226.75
901.68	226.82
901.99	226.54
902.29	226.58
902.60	226.51
902.90	226.52
903.21	226.42
903.51	226.39
903.82	226.47
904.12	226.51
904.43	226.57
904.73	226.61
905.03	226.58
905.34	227.01
905.64	226.97
905.95	226.95
906.25	226.97
906.56	226.97
906.86	226.93
907.17	226.82
907.47	226.83
907.77	226.87
908.08	226.80
908.38	226.91
908.69	227.03
908.99	227.09
909.30	227.07
909.60	227.10
909.90	227.12
910.21	227.00
910.51	226.89
910.81	226.87
911.12	226.83
911.42	226.86
911.73	226.39
912.03	226.46
912.33	226.57
912.64	226.50
912.94	226.45
913.24	226.40
913.55	226.46
913.85	226.40
914.15	226.45
914.46	226.51
914.76	226.42
915.06	226.31
915.37	226.22
915.67	226.27
915.97	226.32
916.27	226.24
916.58	226.26
916.88	226.30
917.18	226.28
917.49	226.63
917.79	226.65
918.09	226.67
918.39	226.79
918.70	226.71
919.00	226.72
919.30	227.02
919.60	227.08
919.91	226.97
920.21	226.98
920.51	226.91
920.81	226.91
921.12	226.97
921.42	226.90
921.72	226.98
922.02	226.95
922.32	226.97
922.63	227.02
922.93	227.24
923.23	227.26
923.53	227.24
923.83	226.91
924.13	226.95
924.44	226.94
924.74	226.99
925.04	227.14
925.34	227.15
925.64	226.93
925.94	226.90
926.24	227.18
926.55	227.14
926.85	227.17
927.15	227.15
927.45	227.13
927.75	227.20
928.05	227.20
928.35	227.23
928.65	227.28
928.95	227.30
929.26	227.21
929.56	227.32
929.86	227.46
930.16	227.46
930.46	227.38
930.76	227.35
931.06	227.16
931.36	227.03
931.66	227.11
931.96	227.13
932.26	227.13
932.56	226.95
932.86	227.09
933.16	227.04
933.46	226.97
933.76	226.95
934.06	227.04
934.36	227.15
934.66	227.07
934.96	227.01
935.26	227.09
935.56	227.04
935.86	226.90
936.16	226.73
936.46	226.68
936.76	226.63
937.06	226.55
937.36	226.57
937.66	226.60
937.96	226.60
938.26	226.44
938.56	226.45
938.86	226.48
939.16	226.53
939.46	226.62
939.76	226.71
940.06	226.71
940.35	226.60
940.65	226.35
940.95	226.44
941.25	226.34
941.55	226.26
941.85	226.18
942.15	226.30
942.45	226.44
942.75	226.39
943.04	226.53
943.34	226.72
943.64	226.71
943.94	226.71
944.24	226.68
944.54	226.77
944.84	226.75
945.13	226.69
945.43	226.57
945.73	226.51
946.03	226.48
946.33	226.48
946.62	226.52
946.92	226.60
947.22	226.66
947.52	226.70
947.82	226.68
948.11	226.70
948.41	226.57
948.71	226.50
949.01	226.58
949.31	226.54
949.60	226.50
949.90	226.56
950.20	226.48
950.50	226.51
950.79	226.53
951.09	226.59
951.39	226.55
951.69	226.57
951.98	226.68
952.28	226.71
952.58	226.71
952.87	226.67
953.17	226.74
953.47	226.62
953.76	226.56
954.06	226.45
954.36	226.40
954.66	226.33
954.95	226.41
955.25	226.41
955.55	226.35
955.84	226.27
956.14	226.31
956.44	226.42
956.73	226.30
957.03	226.27
957.32	226.23
957.62	226.21
957.92	226.23
958.21	226.14
958.51	226.62
958.81	226.65
959.10	226.72
959.40	226.85
959.69	226.83
959.99	227.00
960.29	227.03
960.58	227.00
960.88	227.30
961.17	227.25
961.47	227.31
961.76	227.30
962.06	227.40
962.36	227.35
962.65	227.34
962.95	227.35
963.24	227.33
963.54	227.32
963.83	227.39
964.13	227.36
964.42	227.32
964.72	226.90
965.01	226.86
965.31	226.71
965.60	226.54
965.90	226.86
966.19	226.70
966.49	226.75
966.78	226.71
967.08	226.55
967.37	226.58
967.67	226.44
967.96	226.59
968.26	226.56
968.55	226.56
968.85	226.50
969.14	226.49
969.43	226.49
969.73	226.43
970.02	226.40
970.32	226.34
970.61	226.27
970.91	226.12
971.20	226.09
971.49	226.10
971.79	226.14
972.08	225.82
972.38	225.85
972.67	225.84
972.96	225.92
973.26	225.87
973.55	225.96
973.85	225.97
974.14	225.86
974.43	225.95
974.73	225.88
975.02	225.82
975.31	225.85
975.61	225.86
975.90	225.89
976.19	225.93
976.49	226.04
976.78	226.13
977.07	226.19
977.37	226.25
977.66	226.34
977.95	226.25
978.24	226.30
978.54	226.44
978.83	226.40
979.12	226.40
979.42	226.43
979.71	226.34
980.00	226.33
980.29	226.40
980.59	226.25
980.88	226.40
981.17	226.44
981.46	226.38
981.76	226.41
982.05	226.56
982.34	226.48
982.63	226.45
982.93	226.45
983.22	226.54
983.51	226.57
983.80	226.59
984.09	226.70
984.39	226.70
984.68	226.56
984.97	226.63
985.26	226.57
985.55	226.63
985.85	226.56
986.14	226.56
986.43	226.58
986.72	226.54
987.01	226.41
987.30	226.44
987.59	226.46
987.89	226.50
988.18	226.31
988.47	226.23
988.76	226.17
989.05	226.13
989.34	226.08
989.63	226.16
989.92	226.08
990.22	225.96
990.51	225.94
990.80	226.00
991.09	226.07
991.38	226.19
991.67	226.14
991.96	226.10
992.25	226.20
992.54	226.14
992.83	226.14
993.12	226.07
993.41	226.12
993.70	226.30
993.99	226.30
994.28	226.36
994.58	226.49
994.87	226.44
995.16	226.48
995.45	226.39
995.74	226.18
996.03	226.31
996.32	226.45
996.61	226.49
996.90	226.39
997.19	226.33
997.48	226.29
997.77	226.13
998.06	226.13
998.34	226.08
998.63	226.05
998.92	226.05
999.21	226.18
999.50	226.16
999.79	226.00
1000.08	226.00
1000.37	226.03
1000.66	225.92
1000.95	226.08
1001.24	226.05
1001.53	226.15
1001.82	226.17
1002.11	226.01
1002.40	225.97
1002.68	226.13
1002.97	226.49
1003.26	226.35
1003.55	226.17
1003.84	226.32
1004.13	226.50
1004.42	226.44
1004.71	226.44
1004.99	226.41
1005.28	226.46
1005.57	226.40
1005.86	226.35
1006.15	226.24
1006.44	226.15
1006.72	226.27
1007.01	226.21
1007.30	226.17
1007.59	226.10
1007.88	226.03
1008.17	226.07
1008.45	226.00
1008.74	225.80
1009.03	225.68
1009.32	225.72
1009.60	225.82
1009.89	225.74
1010.18	225.46
1010.47	225.50
1010.76	225.46
1011.04	225.48
1011.33	225.52
1011.62	225.53
1011.91	225.57
1012.19	225.67
1012.48	225.68
1012.77	225.64
1013.05	225.85
1013.34	225.92
1013.63	225.88
1013.92	225.99
1014.20	225.91
1014.49	225.97
1014.78	225.97
1015.06	225.80
1015.35	225.84
1015.64	225.92
1015.92	225.99
1016.21	226.13
1016.50	226.12
1016.78	226.23
1017.07	226.29
1017.36	226.22
1017.64	226.18
1017.93	226.23
1018.22	226.17
1018.50	226.22
1018.79	226.26
1019.08	225.97
1019.36	226.04
1019.65	226.05
1019.93	226.15
1020.22	226.34
1020.51	226.55
1020.79	226.53
1021.08	225.65
1021.36	225.70
1021.65	226.90
1021.94	224.95
1022.22	227.30
1022.51	225.85
1022.79	227.95
1023.08	227.80
1023.36	230.95
1023.65	225.10
>>>>>End Processed Spectral Data<<<<<
