SpectraSuite Data File
++++++++++++++++++++++++++++++++++++
Date: Wed Sep 04 17:50:50 EDT 2013
User: lab3
Dark Spectrum Present: Yes
Reference Spectrum Present: No
Number of Sampled Component Spectra: 1
Spectrometers: USB2E7196
Integration Time (usec): 170000 (USB2E7196)
Spectra Averaged: 20 (USB2E7196)
Boxcar Smoothing: 10 (USB2E7196)
Correct for Electrical Dark: No (USB2E7196)
Strobe/Lamp Enabled: No (USB2E7196)
Correct for Detector Non-linearity: No (USB2E7196)
Correct for Stray Light: No (USB2E7196)
Number of Pixels in Processed Spectrum: 2048
>>>>>Begin Processed Spectral Data<<<<<
339.09	0.00
339.48	212.80
339.86	214.55
340.24	217.00
340.63	217.30
341.01	225.90
341.39	219.80
341.78	223.05
342.16	224.00
342.54	223.50
342.93	212.25
343.31	222.93
343.69	223.57
344.07	224.05
344.46	224.51
344.84	224.94
345.22	224.92
345.60	225.23
345.99	225.33
346.37	225.36
346.75	225.44
347.13	225.60
347.52	225.67
347.90	225.83
348.28	225.81
348.66	225.96
349.05	225.90
349.43	225.91
349.81	226.00
350.19	226.06
350.57	226.14
350.96	226.22
351.34	226.33
351.72	226.32
352.10	226.37
352.48	226.35
352.87	226.31
353.25	226.35
353.63	226.36
354.01	226.49
354.39	226.65
354.77	226.73
355.15	226.85
355.54	226.80
355.92	226.78
356.30	226.82
356.68	227.25
357.06	227.30
357.44	227.33
357.82	227.38
358.20	227.85
358.58	227.87
358.97	227.89
359.35	228.05
359.73	228.17
360.11	228.30
360.49	228.33
360.87	228.39
361.25	228.54
361.63	228.78
362.01	228.80
362.39	228.80
362.77	228.85
363.15	228.91
363.53	228.94
363.91	228.99
364.29	229.11
364.67	228.65
365.05	228.72
365.43	228.81
365.81	228.85
366.19	228.71
366.57	228.86
366.95	228.90
367.33	228.76
367.71	228.82
368.09	228.84
368.47	228.92
368.85	228.90
369.23	228.97
369.61	228.76
369.99	228.90
370.37	228.95
370.75	229.15
371.13	229.01
371.51	228.95
371.89	228.95
372.27	228.90
372.65	228.96
373.03	228.88
373.41	228.89
373.78	228.87
374.16	228.60
374.54	228.43
374.92	228.35
375.30	228.37
375.68	228.18
376.06	228.21
376.44	228.08
376.82	228.07
377.19	227.91
377.57	227.85
377.95	227.68
378.33	227.58
378.71	227.26
379.09	227.31
379.47	227.30
379.84	227.18
380.22	227.08
380.60	226.88
380.98	226.84
381.36	226.63
381.73	226.50
382.11	226.49
382.49	226.52
382.87	226.41
383.25	226.39
383.62	226.95
384.00	226.72
384.38	226.70
384.76	226.79
385.13	226.97
385.51	226.91
385.89	226.72
386.27	226.68
386.64	226.80
387.02	226.64
387.40	226.62
387.78	226.58
388.15	226.61
388.53	226.57
388.91	226.61
389.29	226.62
389.66	226.66
390.04	226.61
390.42	226.66
390.79	226.73
391.17	226.65
391.55	226.10
391.92	226.13
392.30	226.23
392.68	226.13
393.05	226.10
393.43	226.15
393.81	226.25
394.18	226.28
394.56	226.21
394.94	226.40
395.31	226.36
395.69	226.58
396.06	226.63
396.44	226.75
396.82	226.74
397.19	227.01
397.57	227.06
397.95	227.24
398.32	227.13
398.70	227.21
399.07	227.43
399.45	227.47
399.82	227.55
400.20	227.54
400.58	227.65
400.95	227.55
401.33	227.75
401.70	228.15
402.08	228.20
402.45	228.23
402.83	228.47
403.20	228.70
403.58	228.78
403.95	229.04
404.33	229.26
404.71	229.45
405.08	229.90
405.46	230.14
405.83	230.35
406.21	230.66
406.58	230.97
406.96	231.15
407.33	231.54
407.70	231.89
408.08	232.62
408.45	233.06
408.83	233.55
409.20	233.85
409.58	234.05
409.95	234.63
410.33	235.25
410.70	235.53
411.08	236.16
411.45	236.79
411.82	237.35
412.20	238.07
412.57	239.07
412.95	239.44
413.32	240.25
413.69	241.01
414.07	241.93
414.44	242.94
414.82	244.02
415.19	245.23
415.56	246.46
415.94	247.50
416.31	248.89
416.68	250.27
417.06	251.94
417.43	253.52
417.81	255.25
418.18	257.00
418.55	258.98
418.93	260.95
419.30	263.00
419.67	265.26
420.04	267.54
420.42	269.80
420.79	272.80
421.16	275.61
421.54	278.71
421.91	281.66
422.28	284.68
422.66	287.89
423.03	291.34
423.40	294.58
423.77	298.10
424.15	301.62
424.52	305.30
424.89	309.50
425.26	313.40
425.64	317.16
426.01	321.33
426.38	325.69
426.75	330.15
427.13	334.72
427.50	339.30
427.87	344.15
428.24	348.99
428.61	353.36
428.99	358.64
429.36	363.96
429.73	369.41
430.10	374.79
430.47	380.35
430.85	385.86
431.22	392.06
431.59	398.85
431.96	405.04
432.33	411.98
432.70	418.52
433.08	426.38
433.45	433.68
433.82	440.98
434.19	449.07
434.56	457.02
434.93	464.55
435.30	472.33
435.68	480.79
436.05	489.21
436.42	497.51
436.79	505.09
437.16	513.42
437.53	522.05
437.90	530.69
438.27	539.17
438.64	548.09
439.01	556.15
439.38	563.16
439.75	570.32
440.13	578.35
440.50	585.80
440.87	591.87
441.24	598.27
441.61	605.36
441.98	610.41
442.35	616.31
442.72	622.32
443.09	627.98
443.46	631.51
443.83	633.83
444.20	635.94
444.57	638.70
444.94	639.80
445.31	640.97
445.68	642.40
446.05	642.64
446.42	641.28
446.79	640.09
447.16	638.46
447.53	637.18
447.90	633.45
448.27	629.83
448.64	624.96
449.01	621.30
449.37	615.08
449.74	609.15
450.11	602.33
450.48	594.64
450.85	586.85
451.22	580.06
451.59	573.58
451.96	567.24
452.33	559.20
452.70	551.99
453.07	543.35
453.43	534.35
453.80	526.07
454.17	518.07
454.54	510.35
454.91	502.40
455.28	494.43
455.65	487.10
456.02	480.28
456.38	474.02
456.75	466.28
457.12	459.80
457.49	453.53
457.86	447.14
458.23	442.08
458.59	436.45
458.96	430.70
459.33	425.49
459.70	420.46
460.07	416.31
460.43	411.57
460.80	407.47
461.17	403.71
461.54	399.78
461.91	395.98
462.27	392.13
462.64	388.87
463.01	385.44
463.38	382.10
463.74	378.13
464.11	375.12
464.48	372.57
464.85	369.76
465.21	367.60
465.58	365.35
465.95	362.40
466.32	360.08
466.68	357.80
467.05	355.55
467.42	353.33
467.78	351.03
468.15	348.90
468.52	347.22
468.88	345.06
469.25	343.07
469.62	341.68
469.98	340.05
470.35	338.38
470.72	336.74
471.08	335.06
471.45	333.79
471.82	332.44
472.18	330.94
472.55	329.97
472.92	328.74
473.28	327.62
473.65	326.67
474.02	325.62
474.38	324.79
474.75	324.09
475.11	323.20
475.48	322.57
475.85	321.95
476.21	321.22
476.58	320.69
476.94	320.35
477.31	319.83
477.67	319.46
478.04	319.25
478.41	319.16
478.77	319.45
479.14	319.25
479.50	319.26
479.87	319.32
480.23	319.30
480.60	319.21
480.96	319.22
481.33	319.51
481.69	319.75
482.06	319.87
482.42	320.11
482.79	320.45
483.15	320.82
483.52	321.44
483.88	322.00
484.25	322.60
484.61	323.25
484.98	323.88
485.34	324.85
485.71	325.82
486.07	326.88
486.44	327.49
486.80	328.52
487.17	329.66
487.53	331.07
487.90	332.46
488.26	334.12
488.62	335.74
488.99	337.25
489.35	339.11
489.72	341.08
490.08	343.10
490.44	345.22
490.81	347.46
491.17	349.65
491.54	352.15
491.90	354.72
492.26	357.26
492.63	360.16
492.99	362.95
493.36	365.90
493.72	369.12
494.08	372.61
494.45	376.28
494.81	380.12
495.17	383.94
495.54	388.13
495.90	392.25
496.26	396.71
496.63	401.51
496.99	406.13
497.35	411.18
497.72	416.56
498.08	422.02
498.44	427.63
498.80	433.62
499.17	439.63
499.53	445.78
499.89	452.56
500.26	459.38
500.62	466.37
500.98	473.83
501.34	481.39
501.71	489.05
502.07	496.80
502.43	504.89
502.79	513.38
503.16	521.98
503.52	531.08
503.88	540.49
504.24	550.03
504.60	560.03
504.97	570.20
505.33	580.45
505.69	591.44
506.05	602.42
506.41	613.64
506.78	625.39
507.14	637.63
507.50	650.09
507.86	662.58
508.22	675.39
508.59	688.34
508.95	701.81
509.31	715.96
509.67	730.28
510.03	744.66
510.39	759.24
510.75	774.34
511.12	789.55
511.48	805.05
511.84	820.75
512.20	836.64
512.56	852.87
512.92	869.54
513.28	886.32
513.64	903.63
514.00	921.26
514.37	938.89
514.73	956.80
515.09	974.74
515.45	993.10
515.81	1011.44
516.17	1030.00
516.53	1048.53
516.89	1067.02
517.25	1086.62
517.61	1106.59
517.97	1126.56
518.33	1146.36
518.69	1166.39
519.05	1186.55
519.41	1207.04
519.77	1228.05
520.13	1248.61
520.49	1269.19
520.85	1291.50
521.21	1312.36
521.57	1333.49
521.93	1354.12
522.29	1375.03
522.65	1395.64
523.01	1416.27
523.37	1437.00
523.73	1457.93
524.09	1478.26
524.45	1498.71
524.81	1519.10
525.17	1539.65
525.53	1560.03
525.89	1580.67
526.25	1601.37
526.61	1621.81
526.97	1642.63
527.33	1663.59
527.68	1685.54
528.04	1706.55
528.40	1725.82
528.76	1746.88
529.12	1766.88
529.48	1787.40
529.84	1807.47
530.20	1828.55
530.56	1849.15
530.91	1869.89
531.27	1890.09
531.63	1910.63
531.99	1930.88
532.35	1950.60
532.71	1970.57
533.07	1991.17
533.42	2010.96
533.78	2030.75
534.14	2050.52
534.50	2069.36
534.86	2088.39
535.21	2105.60
535.57	2124.21
535.93	2141.77
536.29	2159.51
536.65	2177.59
537.00	2195.05
537.36	2212.30
537.72	2228.14
538.08	2245.29
538.44	2261.56
538.79	2277.85
539.15	2294.27
539.51	2310.29
539.87	2325.54
540.22	2339.41
540.58	2353.84
540.94	2366.88
541.29	2379.55
541.65	2391.69
542.01	2404.25
542.37	2414.76
542.72	2425.37
543.08	2435.70
543.44	2447.36
543.79	2456.87
544.15	2466.69
544.51	2476.78
544.87	2486.39
545.22	2495.43
545.58	2503.15
545.94	2510.30
546.29	2516.77
546.65	2522.69
547.01	2528.35
547.36	2533.70
547.72	2539.10
548.07	2542.60
548.43	2548.00
548.79	2552.42
549.14	2556.86
549.50	2560.49
549.86	2564.25
550.21	2568.06
550.57	2571.17
550.92	2572.35
551.28	2573.65
551.64	2575.52
551.99	2576.75
552.35	2578.13
552.70	2579.98
553.06	2581.08
553.41	2582.46
553.77	2584.08
554.13	2585.55
554.48	2586.84
554.84	2588.20
555.19	2589.22
555.55	2591.23
555.90	2590.14
556.26	2589.06
556.61	2587.12
556.97	2584.90
557.32	2584.10
557.68	2583.00
558.03	2581.46
558.39	2580.08
558.74	2579.26
559.10	2576.38
559.45	2572.90
559.81	2568.44
560.16	2562.95
560.52	2557.99
560.87	2553.75
561.23	2548.38
561.58	2542.45
561.94	2535.57
562.29	2527.70
562.64	2520.64
563.00	2511.91
563.35	2505.50
563.71	2498.66
564.06	2492.12
564.42	2485.55
564.77	2478.58
565.12	2471.00
565.48	2463.45
565.83	2455.57
566.19	2447.30
566.54	2439.31
566.89	2431.56
567.25	2423.68
567.60	2416.42
567.96	2409.14
568.31	2400.55
568.66	2391.98
569.02	2383.16
569.37	2375.01
569.72	2367.68
570.08	2358.30
570.43	2348.72
570.78	2339.38
571.14	2330.25
571.49	2320.35
571.84	2310.55
572.20	2299.56
572.55	2289.40
572.90	2278.14
573.26	2267.58
573.61	2256.68
573.96	2245.34
574.31	2233.24
574.67	2221.46
575.02	2209.14
575.37	2196.61
575.72	2183.45
576.08	2171.46
576.43	2158.82
576.78	2145.81
577.13	2132.40
577.49	2120.01
577.84	2108.28
578.19	2096.43
578.54	2083.60
578.90	2071.78
579.25	2059.92
579.60	2047.86
579.95	2034.89
580.30	2022.22
580.66	2008.93
581.01	1995.26
581.36	1981.44
581.71	1968.96
582.06	1956.44
582.42	1944.00
582.77	1931.55
583.12	1919.95
583.47	1907.54
583.82	1896.09
584.17	1884.32
584.53	1872.58
584.88	1859.60
585.23	1846.50
585.58	1832.51
585.93	1819.66
586.28	1806.44
586.63	1792.36
586.98	1778.29
587.34	1765.04
587.69	1751.84
588.04	1739.61
588.39	1727.82
588.74	1715.66
589.09	1703.57
589.44	1690.96
589.79	1678.92
590.14	1667.00
590.49	1654.80
590.84	1642.90
591.19	1630.67
591.54	1618.19
591.89	1606.17
592.25	1596.17
592.60	1584.94
592.95	1573.65
593.30	1561.70
593.65	1549.78
594.00	1537.97
594.35	1528.10
594.70	1516.51
595.05	1505.50
595.40	1493.27
595.75	1481.58
596.10	1470.63
596.45	1459.26
596.80	1448.63
597.15	1437.41
597.50	1425.56
597.85	1414.58
598.19	1402.89
598.54	1391.34
598.89	1380.37
599.24	1369.78
599.59	1358.30
599.94	1347.60
600.29	1337.38
600.64	1327.43
600.99	1316.78
601.34	1307.36
601.69	1296.14
602.04	1286.70
602.39	1276.71
602.74	1267.74
603.08	1258.54
603.43	1249.45
603.78	1239.85
604.13	1230.22
604.48	1220.47
604.83	1210.96
605.18	1201.07
605.53	1191.82
605.87	1182.78
606.22	1174.30
606.57	1164.92
606.92	1155.42
607.27	1146.56
607.62	1137.59
607.96	1129.07
608.31	1121.34
608.66	1113.05
609.01	1104.95
609.36	1096.45
609.70	1088.20
610.05	1079.60
610.40	1071.00
610.75	1062.34
611.10	1054.26
611.44	1045.68
611.79	1037.62
612.14	1029.90
612.49	1022.25
612.83	1014.81
613.18	1007.19
613.53	999.45
613.88	991.67
614.22	984.30
614.57	976.50
614.92	968.95
615.27	961.57
615.61	954.02
615.96	946.35
616.31	938.68
616.65	931.63
617.00	924.29
617.35	917.05
617.70	910.11
618.04	903.00
618.39	895.83
618.74	889.58
619.08	882.79
619.43	875.82
619.78	868.67
620.12	861.43
620.47	854.61
620.82	847.49
621.16	840.84
621.51	834.39
621.85	828.19
622.20	821.66
622.55	814.90
622.89	808.54
623.24	802.40
623.59	796.07
623.93	789.64
624.28	783.67
624.62	778.18
624.97	772.49
625.32	766.76
625.66	760.95
626.01	754.85
626.35	749.34
626.70	743.80
627.04	738.85
627.39	733.59
627.73	728.23
628.08	723.16
628.43	717.95
628.77	712.63
629.12	707.48
629.46	702.70
629.81	698.18
630.15	693.41
630.50	688.53
630.84	683.97
631.19	679.43
631.53	674.83
631.88	669.75
632.22	664.71
632.57	660.41
632.91	655.94
633.26	651.55
633.60	647.00
633.95	642.42
634.29	637.50
634.64	633.00
634.98	628.45
635.32	624.19
635.67	620.24
636.01	616.03
636.36	611.65
636.70	607.60
637.05	603.21
637.39	599.05
637.73	595.00
638.08	591.06
638.42	586.80
638.77	582.54
639.11	578.34
639.45	574.14
639.80	569.80
640.14	565.77
640.49	561.89
640.83	558.12
641.17	554.47
641.52	550.98
641.86	547.51
642.20	544.30
642.55	540.66
642.89	537.02
643.23	533.67
643.58	530.65
643.92	527.06
644.26	523.77
644.61	520.65
644.95	517.35
645.29	513.96
645.64	510.83
645.98	507.84
646.32	504.87
646.66	501.86
647.01	498.95
647.35	496.21
647.69	493.24
648.04	490.51
648.38	487.87
648.72	485.09
649.06	482.15
649.41	479.16
649.75	476.20
650.09	473.28
650.43	470.45
650.78	467.57
651.12	464.74
651.46	462.03
651.80	459.19
652.14	456.51
652.49	454.15
652.83	451.64
653.17	449.15
653.51	446.48
653.85	444.24
654.20	441.71
654.54	439.01
654.88	436.51
655.22	434.36
655.56	431.85
655.90	429.44
656.25	427.18
656.59	424.97
656.93	422.87
657.27	420.85
657.61	418.50
657.95	416.23
658.29	414.08
658.64	412.03
658.98	409.93
659.32	407.74
659.66	405.37
660.00	403.31
660.34	401.28
660.68	399.24
661.02	397.21
661.36	395.20
661.70	393.36
662.05	391.44
662.39	389.35
662.73	387.58
663.07	385.96
663.41	384.13
663.75	382.10
664.09	380.34
664.43	378.33
664.77	376.63
665.11	374.82
665.45	373.26
665.79	371.65
666.13	369.76
666.47	368.09
666.81	366.55
667.15	364.89
667.49	363.25
667.83	361.95
668.17	360.39
668.51	359.03
668.85	357.71
669.19	356.62
669.53	355.10
669.87	353.63
670.21	352.05
670.55	350.59
670.89	349.63
671.23	348.21
671.57	346.92
671.91	345.65
672.25	344.41
672.58	343.10
672.92	341.51
673.26	340.42
673.60	339.27
673.94	338.06
674.28	336.89
674.62	335.78
674.96	334.60
675.30	333.37
675.64	332.20
675.97	330.97
676.31	329.43
676.65	328.23
676.99	327.26
677.33	326.13
677.67	325.08
678.01	323.78
678.34	322.84
678.68	321.88
679.02	320.70
679.36	319.68
679.70	318.73
680.04	318.00
680.37	317.05
680.71	316.02
681.05	315.12
681.39	314.20
681.73	313.25
682.06	312.30
682.40	311.42
682.74	310.61
683.08	309.89
683.42	309.14
683.75	308.36
684.09	307.42
684.43	306.66
684.77	305.90
685.10	305.07
685.44	304.20
685.78	303.40
686.12	302.70
686.45	301.96
686.79	301.17
687.13	300.38
687.46	299.58
687.80	298.99
688.14	298.18
688.48	297.48
688.81	296.77
689.15	296.06
689.49	295.43
689.82	294.75
690.16	293.87
690.50	293.15
690.83	292.44
691.17	291.65
691.51	290.91
691.84	290.23
692.18	289.47
692.52	288.80
692.85	288.26
693.19	287.81
693.52	287.13
693.86	286.44
694.20	285.86
694.53	285.27
694.87	284.59
695.21	283.99
695.54	283.27
695.88	282.55
696.21	281.87
696.55	281.26
696.88	280.57
697.22	279.94
697.56	279.45
697.89	278.85
698.23	278.38
698.56	277.80
698.90	277.32
699.23	276.85
699.57	276.34
699.90	275.65
700.24	274.94
700.58	274.45
700.91	274.10
701.25	273.91
701.58	273.75
701.92	273.36
702.25	272.87
702.59	272.46
702.92	272.11
703.26	271.74
703.59	271.27
703.93	271.22
704.26	270.95
704.60	270.59
704.93	270.12
705.26	269.63
705.60	269.37
705.93	268.82
706.27	268.58
706.60	268.27
706.94	268.09
707.27	267.66
707.61	267.32
707.94	266.93
708.27	266.15
708.61	265.40
708.94	264.95
709.28	264.59
709.61	264.18
709.94	263.79
710.28	263.36
710.61	263.01
710.95	262.23
711.28	262.13
711.61	261.69
711.95	261.50
712.28	261.21
712.61	260.79
712.95	260.71
713.28	260.52
713.61	260.14
713.95	259.63
714.28	259.39
714.61	259.02
714.95	258.60
715.28	258.23
715.61	257.92
715.95	257.71
716.28	257.43
716.61	257.21
716.95	256.92
717.28	256.59
717.61	256.29
717.94	256.14
718.28	255.48
718.61	255.18
718.94	254.85
719.27	254.43
719.61	254.21
719.94	253.83
720.27	253.35
720.60	253.07
720.94	252.82
721.27	252.63
721.60	252.56
721.93	252.41
722.27	252.40
722.60	252.25
722.93	251.91
723.26	251.67
723.59	251.37
723.93	251.19
724.26	251.06
724.59	250.81
724.92	250.56
725.25	250.46
725.59	250.24
725.92	250.07
726.25	250.01
726.58	249.80
726.91	249.60
727.24	249.40
727.57	249.28
727.91	249.05
728.24	248.95
728.57	248.68
728.90	248.49
729.23	248.12
729.56	248.15
729.89	247.94
730.22	247.71
730.55	247.57
730.89	247.35
731.22	247.14
731.55	247.01
731.88	246.87
732.21	246.66
732.54	246.38
732.87	246.20
733.20	246.07
733.53	245.92
733.86	245.83
734.19	245.62
734.52	245.46
734.85	245.67
735.18	245.37
735.51	245.30
735.84	245.16
736.17	245.21
736.50	244.82
736.83	245.28
737.16	245.19
737.49	245.09
737.82	244.93
738.15	244.84
738.48	244.59
738.81	244.40
739.14	244.18
739.47	244.09
739.80	243.84
740.13	243.64
740.46	243.46
740.79	243.22
741.12	243.12
741.45	242.87
741.78	242.39
742.11	242.41
742.44	242.14
742.77	242.07
743.10	241.83
743.43	241.62
743.75	240.97
744.08	241.38
744.41	241.16
744.74	241.02
745.07	240.79
745.40	240.71
745.73	240.80
746.06	240.69
746.39	240.65
746.71	240.57
747.04	240.37
747.37	240.24
747.70	240.20
748.03	240.13
748.36	240.07
748.68	240.00
749.01	239.65
749.34	239.53
749.67	239.35
750.00	239.32
750.33	239.59
750.65	239.51
750.98	238.87
751.31	238.82
751.64	238.69
751.97	238.79
752.29	238.69
752.62	238.27
752.95	238.11
753.28	237.91
753.60	237.78
753.93	237.83
754.26	237.75
754.59	237.55
754.91	237.29
755.24	237.17
755.57	237.05
755.90	236.99
756.22	236.86
756.55	236.65
756.88	236.44
757.20	236.01
757.53	235.71
757.86	235.57
758.19	235.45
758.51	235.41
758.84	235.14
759.17	235.00
759.49	234.92
759.82	235.09
760.15	235.05
760.47	235.00
760.80	234.75
761.13	234.67
761.45	234.49
761.78	234.45
762.11	234.36
762.43	234.21
762.76	234.14
763.08	234.06
763.41	234.06
763.74	234.05
764.06	233.99
764.39	234.00
764.71	233.92
765.04	233.82
765.37	233.64
765.69	233.49
766.02	233.38
766.34	233.32
766.67	233.05
767.00	233.11
767.32	233.27
767.65	233.48
767.97	233.39
768.30	233.46
768.62	233.40
768.95	233.29
769.27	233.24
769.60	233.22
769.92	233.21
770.25	233.02
770.57	232.82
770.90	232.77
771.22	232.59
771.55	232.54
771.87	232.55
772.20	232.53
772.52	232.94
772.85	233.50
773.17	233.46
773.50	233.38
773.82	233.25
774.15	232.91
774.47	232.60
774.80	232.49
775.12	232.39
775.45	232.30
775.77	232.26
776.09	232.27
776.42	232.30
776.74	232.34
777.07	232.38
777.39	232.36
777.72	232.26
778.04	232.35
778.36	232.25
778.69	232.18
779.01	232.17
779.33	231.70
779.66	231.18
779.98	231.15
780.31	231.12
780.63	231.30
780.95	231.39
781.28	231.34
781.60	231.40
781.92	231.40
782.25	231.36
782.57	231.38
782.89	231.25
783.22	231.12
783.54	230.89
783.86	230.84
784.19	230.76
784.51	230.85
784.83	230.77
785.16	230.70
785.48	230.64
785.80	230.55
786.12	230.57
786.45	230.58
786.77	230.53
787.09	230.46
787.42	230.25
787.74	230.24
788.06	230.22
788.38	230.06
788.71	229.92
789.03	229.90
789.35	229.95
789.67	229.84
789.99	229.91
790.32	229.88
790.64	229.90
790.96	230.33
791.28	230.23
791.61	230.22
791.93	230.20
792.25	230.15
792.57	230.57
792.89	230.46
793.21	230.43
793.54	230.40
793.86	230.35
794.18	230.31
794.50	230.20
794.82	230.25
795.14	230.31
795.47	230.37
795.79	230.40
796.11	230.17
796.43	230.19
796.75	230.16
797.07	230.14
797.39	230.12
797.71	229.74
798.04	229.72
798.36	229.66
798.68	229.67
799.00	229.69
799.32	229.37
799.64	229.44
799.96	229.44
800.28	229.54
800.60	229.56
800.92	229.57
801.24	229.50
801.56	229.50
801.89	229.40
802.21	229.43
802.53	229.32
802.85	229.47
803.17	229.72
803.49	229.60
803.81	229.60
804.13	229.54
804.45	229.49
804.77	229.50
805.09	229.55
805.41	229.57
805.73	229.48
806.05	229.36
806.37	229.27
806.69	229.11
807.01	228.96
807.33	228.97
807.65	228.75
807.97	228.95
808.28	228.89
808.60	228.95
808.92	228.85
809.24	229.07
809.56	228.98
809.88	228.80
810.20	228.74
810.52	228.84
810.84	228.76
811.16	228.64
811.48	228.57
811.80	228.69
812.12	228.68
812.43	228.77
812.75	228.84
813.07	228.82
813.39	228.91
813.71	228.93
814.03	228.80
814.35	228.89
814.67	228.66
814.98	228.58
815.30	228.50
815.62	228.40
815.94	228.11
816.26	228.35
816.58	228.24
816.89	228.34
817.21	228.18
817.53	228.17
817.85	228.22
818.17	228.19
818.48	227.99
818.80	227.94
819.12	227.85
819.44	227.62
819.76	227.56
820.07	227.53
820.39	227.55
820.71	227.62
821.03	227.51
821.34	227.49
821.66	227.53
821.98	227.58
822.30	227.58
822.61	227.83
822.93	227.51
823.25	227.56
823.57	227.47
823.88	227.61
824.20	227.55
824.52	227.60
824.83	227.55
825.15	227.57
825.47	227.55
825.79	227.62
826.10	227.73
826.42	227.70
826.74	227.73
827.05	227.68
827.37	227.62
827.69	227.66
828.00	227.65
828.32	227.62
828.64	227.53
828.95	227.81
829.27	227.70
829.58	227.79
829.90	227.74
830.22	227.73
830.53	227.55
830.85	227.56
831.17	227.36
831.48	227.35
831.80	227.31
832.11	227.29
832.43	227.15
832.75	227.11
833.06	227.43
833.38	227.33
833.69	227.26
834.01	227.32
834.32	227.29
834.64	227.26
834.96	227.29
835.27	227.28
835.59	227.03
835.90	226.88
836.22	226.83
836.53	226.76
836.85	226.75
837.16	227.24
837.48	227.28
837.79	227.49
838.11	227.54
838.42	227.48
838.74	227.58
839.05	227.60
839.37	227.54
839.68	227.18
840.00	227.14
840.31	227.25
840.63	227.20
840.94	227.15
841.26	227.12
841.57	227.13
841.88	227.15
842.20	227.14
842.51	227.16
842.83	227.06
843.14	227.50
843.46	227.53
843.77	227.25
844.08	227.22
844.40	227.10
844.71	227.08
845.03	227.03
845.34	226.94
845.65	226.94
845.97	227.00
846.28	226.99
846.60	226.98
846.91	226.94
847.22	226.84
847.54	226.95
847.85	227.01
848.16	226.89
848.48	226.84
848.79	227.05
849.10	227.08
849.42	227.23
849.73	226.77
850.04	226.75
850.36	226.59
850.67	226.65
850.98	226.67
851.30	226.75
851.61	226.80
851.92	226.79
852.23	226.86
852.55	226.85
852.86	226.94
853.17	227.01
853.49	227.04
853.80	227.20
854.11	227.23
854.42	227.31
854.74	227.32
855.05	227.34
855.36	227.09
855.67	227.11
855.99	227.11
856.30	227.70
856.61	227.67
856.92	227.69
857.23	227.68
857.55	227.60
857.86	227.49
858.17	227.57
858.48	227.55
858.79	227.50
859.11	227.54
859.42	227.49
859.73	227.35
860.04	227.35
860.35	227.19
860.66	227.05
860.98	226.96
861.29	226.97
861.60	226.87
861.91	226.92
862.22	226.84
862.53	226.72
862.84	226.11
863.16	226.24
863.47	226.15
863.78	226.02
864.09	226.09
864.40	226.03
864.71	225.99
865.02	226.01
865.33	225.94
865.64	225.91
865.95	225.90
866.27	226.20
866.58	226.12
866.89	226.20
867.20	226.17
867.51	226.06
867.82	226.08
868.13	226.29
868.44	226.18
868.75	226.34
869.06	226.36
869.37	226.45
869.68	226.31
869.99	226.29
870.30	226.33
870.61	226.33
870.92	226.40
871.23	226.30
871.54	226.36
871.85	226.47
872.16	226.52
872.47	226.50
872.78	226.21
873.09	226.29
873.40	226.21
873.71	226.24
874.02	226.35
874.33	226.32
874.64	226.23
874.95	226.37
875.26	226.20
875.56	226.22
875.87	226.18
876.18	226.15
876.49	226.63
876.80	226.60
877.11	226.54
877.42	226.49
877.73	226.62
878.04	226.57
878.35	226.57
878.66	226.55
878.96	226.62
879.27	226.67
879.58	226.60
879.89	226.59
880.20	226.68
880.51	226.61
880.82	226.62
881.12	226.61
881.43	226.49
881.74	226.46
882.05	226.37
882.36	226.37
882.67	226.39
882.97	225.91
883.28	225.89
883.59	225.88
883.90	225.89
884.21	225.96
884.51	225.92
884.82	225.86
885.13	225.86
885.44	225.79
885.74	225.76
886.05	225.79
886.36	225.84
886.67	225.69
886.98	226.03
887.28	226.03
887.59	226.07
887.90	226.17
888.20	226.13
888.51	226.19
888.82	226.28
889.13	226.33
889.43	226.81
889.74	226.84
890.05	226.83
890.35	226.75
890.66	226.62
890.97	226.57
891.28	226.52
891.58	226.52
891.89	226.58
892.20	226.58
892.50	226.54
892.81	226.54
893.12	226.63
893.42	226.33
893.73	226.40
894.04	226.32
894.34	226.32
894.65	226.38
894.95	226.40
895.26	226.36
895.57	226.57
895.87	226.13
896.18	226.25
896.48	226.29
896.79	226.40
897.10	226.49
897.40	226.55
897.71	226.60
898.01	226.63
898.32	226.64
898.63	226.55
898.93	226.58
899.24	226.56
899.54	226.57
899.85	226.58
900.15	226.60
900.46	226.66
900.76	226.75
901.07	226.76
901.38	226.72
901.68	226.76
901.99	226.53
902.29	226.54
902.60	226.45
902.90	226.42
903.21	226.39
903.51	226.31
903.82	226.40
904.12	226.32
904.43	226.28
904.73	226.28
905.03	226.39
905.34	226.83
905.64	226.85
905.95	226.74
906.25	226.76
906.56	226.70
906.86	226.67
907.17	226.58
907.47	226.55
907.77	226.51
908.08	226.40
908.38	226.40
908.69	226.45
908.99	226.45
909.30	226.51
909.60	226.52
909.90	226.54
910.21	226.38
910.51	226.35
910.81	226.36
911.12	226.31
911.42	226.27
911.73	225.76
912.03	225.74
912.33	225.87
912.64	225.91
912.94	225.85
913.24	225.79
913.55	225.75
913.85	225.82
914.15	225.96
914.46	226.04
914.76	226.06
915.06	226.04
915.37	226.04
915.67	225.98
915.97	225.97
916.27	225.86
916.58	225.95
916.88	226.03
917.18	225.98
917.49	226.32
917.79	226.40
918.09	226.47
918.39	226.59
918.70	226.57
919.00	226.45
919.30	226.68
919.60	226.69
919.91	226.64
920.21	226.57
920.51	226.47
920.81	226.40
921.12	226.38
921.42	226.37
921.72	226.41
922.02	226.43
922.32	226.54
922.63	226.63
922.93	226.88
923.23	226.81
923.53	226.80
923.83	226.52
924.13	226.50
924.44	226.47
924.74	226.55
925.04	226.66
925.34	226.64
925.64	226.41
925.94	226.41
926.24	226.65
926.55	226.57
926.85	226.64
927.15	226.61
927.45	226.62
927.75	226.52
928.05	226.62
928.35	226.63
928.65	226.66
928.95	226.72
929.26	226.49
929.56	226.59
929.86	226.61
930.16	226.60
930.46	226.51
930.76	226.64
931.06	226.43
931.36	226.27
931.66	226.41
931.96	226.49
932.26	226.51
932.56	226.35
932.86	226.54
933.16	226.51
933.46	226.51
933.76	226.45
934.06	226.69
934.36	226.80
934.66	226.71
934.96	226.66
935.26	226.64
935.56	226.64
935.86	226.54
936.16	226.57
936.46	226.43
936.76	226.48
937.06	226.36
937.36	226.40
937.66	226.47
937.96	226.39
938.26	226.34
938.56	226.33
938.86	226.31
939.16	226.32
939.46	226.34
939.76	226.33
940.06	226.35
940.35	226.19
940.65	225.91
940.95	225.99
941.25	225.86
941.55	225.78
941.85	225.79
942.15	225.95
942.45	225.96
942.75	226.02
943.04	226.06
943.34	226.12
943.64	226.03
943.94	225.97
944.24	225.98
944.54	225.96
944.84	225.92
945.13	225.89
945.43	225.75
945.73	225.76
946.03	225.81
946.33	225.70
946.62	225.72
946.92	225.65
947.22	225.71
947.52	225.80
947.82	225.88
948.11	225.77
948.41	225.58
948.71	225.53
949.01	225.58
949.31	225.48
949.60	225.49
949.90	225.52
950.20	225.51
950.50	225.49
950.79	225.47
951.09	225.55
951.39	225.58
951.69	225.65
951.98	225.75
952.28	225.72
952.58	225.80
952.87	225.83
953.17	225.98
953.47	225.85
953.76	225.81
954.06	225.80
954.36	225.86
954.66	225.91
954.95	226.02
955.25	226.07
955.55	226.16
955.84	226.14
956.14	226.21
956.44	226.25
956.73	226.20
957.03	226.26
957.32	226.35
957.62	226.34
957.92	226.37
958.21	226.25
958.51	226.77
958.81	226.82
959.10	226.80
959.40	226.88
959.69	227.00
959.99	227.08
960.29	227.02
960.58	226.96
960.88	227.12
961.17	227.08
961.47	227.09
961.76	227.02
962.06	226.99
962.36	226.95
962.65	226.92
962.95	226.92
963.24	226.81
963.54	226.70
963.83	226.72
964.13	226.63
964.42	226.52
964.72	226.12
965.01	226.11
965.31	226.09
965.60	226.00
965.90	226.22
966.19	226.03
966.49	226.00
966.78	226.01
967.08	225.90
967.37	225.89
967.67	225.79
967.96	225.87
968.26	225.85
968.55	225.92
968.85	225.88
969.14	225.92
969.43	225.93
969.73	225.84
970.02	225.86
970.32	225.90
970.61	225.93
970.91	225.81
971.20	225.71
971.49	225.62
971.79	225.63
972.08	225.29
972.38	225.44
972.67	225.47
972.96	225.63
973.26	225.60
973.55	225.68
973.85	225.72
974.14	225.67
974.43	225.70
974.73	225.59
975.02	225.60
975.31	225.51
975.61	225.55
975.90	225.62
976.19	225.54
976.49	225.56
976.78	225.59
977.07	225.62
977.37	225.70
977.66	225.78
977.95	225.68
978.24	225.71
978.54	225.72
978.83	225.62
979.12	225.49
979.42	225.46
979.71	225.38
980.00	225.31
980.29	225.36
980.59	225.34
980.88	225.47
981.17	225.44
981.46	225.56
981.76	225.55
982.05	225.70
982.34	225.73
982.63	225.75
982.93	225.69
983.22	225.85
983.51	225.91
983.80	225.96
984.09	226.05
984.39	226.08
984.68	226.02
984.97	226.10
985.26	226.03
985.55	226.08
985.85	226.04
986.14	226.13
986.43	226.10
986.72	226.08
987.01	225.97
987.30	225.99
987.59	225.95
987.89	225.94
988.18	225.80
988.47	225.78
988.76	225.72
989.05	225.75
989.34	225.65
989.63	225.76
989.92	225.70
990.22	225.70
990.51	225.68
990.80	225.69
991.09	225.79
991.38	225.90
991.67	225.81
991.96	225.79
992.25	225.79
992.54	225.76
992.83	225.79
993.12	225.74
993.41	225.89
993.70	226.07
993.99	226.15
994.28	226.13
994.58	226.12
994.87	226.05
995.16	226.07
995.45	226.01
995.74	225.85
996.03	225.88
996.32	225.92
996.61	226.04
996.90	226.03
997.19	225.96
997.48	226.04
997.77	226.03
998.06	225.96
998.34	225.90
998.63	225.90
998.92	225.85
999.21	226.01
999.50	225.99
999.79	225.84
1000.08	225.86
1000.37	225.94
1000.66	225.91
1000.95	226.08
1001.24	226.11
1001.53	226.14
1001.82	226.13
1002.11	226.06
1002.40	226.05
1002.68	226.16
1002.97	226.42
1003.26	226.40
1003.55	226.26
1003.84	226.25
1004.13	226.49
1004.42	226.51
1004.71	226.54
1004.99	226.59
1005.28	226.54
1005.57	226.46
1005.86	226.37
1006.15	226.35
1006.44	226.23
1006.72	226.28
1007.01	226.12
1007.30	226.10
1007.59	226.03
1007.88	225.96
1008.17	226.01
1008.45	225.95
1008.74	225.74
1009.03	225.57
1009.32	225.56
1009.60	225.50
1009.89	225.53
1010.18	225.31
1010.47	225.28
1010.76	225.24
1011.04	225.20
1011.33	225.26
1011.62	225.31
1011.91	225.41
1012.19	225.39
1012.48	225.44
1012.77	225.40
1013.05	225.75
1013.34	225.67
1013.63	225.62
1013.92	225.69
1014.20	225.61
1014.49	225.61
1014.78	225.66
1015.06	225.48
1015.35	225.45
1015.64	225.55
1015.92	225.59
1016.21	225.58
1016.50	225.58
1016.78	225.62
1017.07	225.68
1017.36	225.57
1017.64	225.49
1017.93	225.50
1018.22	225.40
1018.50	225.34
1018.79	225.34
1019.08	225.05
1019.36	225.16
1019.65	225.14
1019.93	225.20
1020.22	225.31
1020.51	225.53
1020.79	225.44
1021.08	223.95
1021.36	224.05
1021.65	224.90
1021.94	225.25
1022.22	226.35
1022.51	223.55
1022.79	226.55
1023.08	226.70
1023.36	230.75
1023.65	224.25
>>>>>End Processed Spectral Data<<<<<
